file_name,block_instructions,target_example,thisN,thisTrialN,thisRepN,target_presence,opacity_1,opacity_2,opacity_3,opacity_4,opacity_5,opacity_6,opacity_7,opacity_8,opacity_9,opacity_10,opacity_11,opacity_12,n_distract,n_items,target_ori,key_resp_4.keys,key_resp_4.rt,key_resp_4.duration,key_resp.keys,key_resp.corr,key_resp.rt,key_resp.duration,key_resp_5.keys,key_resp_5.rt,key_resp_5.duration,blocks.thisRepN,blocks.thisTrialN,blocks.thisN,blocks.thisIndex,practice_trials.thisRepN,practice_trials.thisTrialN,practice_trials.thisN,practice_trials.thisIndex,trials.thisRepN,trials.thisTrialN,trials.thisN,trials.thisIndex,thisRow.t,notes,Welcome.started,WelcomeText.started,key_resp_2.started,Welcome.stopped,key_resp_2.keys,key_resp_2.rt,key_resp_2.duration,InformedConsent.started,text_4.started,InformedConsent.stopped,key_resp_6.keys,key_resp_6.rt,key_resp_6.duration,key_resp_4.started,example_target.started,text_3.started,blocks.key_resp_4.keys,blocks.key_resp_4.rt,blocks.key_resp_4.duration,FixCross.started,fixCross.started,FixCross.stopped,Stimulus.started,key_resp.started,Stimulus.stopped,practice_trials.key_resp.keys,practice_trials.key_resp.corr,practice_trials.key_resp.rt,practice_trials.key_resp.duration,BlankScreen.started,text.started,text.stopped,BlankScreen.stopped,fixCross.stopped,ExperimentStart.started,text_2.started,key_resp_5.started,ExperimentStart.stopped,blocks.key_resp_5.keys,blocks.key_resp_5.rt,blocks.key_resp_5.duration,trials.key_resp.keys,trials.key_resp.corr,trials.key_resp.rt,trials.key_resp.duration,Thanks.started,ThankYou.started,key_resp_3.started,Thanks.stopped,key_resp_3.keys,key_resp_3.rt,key_resp_3.duration,participant,leeftijd,gender,links/rechtshandig,date,expName,expVersion,psychopyVersion,expStart,
,,,,,,,,,,,,,,,,,,,,,,,,,,,,,,,,,,,,,,,,,,,,,,0.02147049999985029,0.03747269999985292,0.03747269999985292,40.378753200000574,space,40.316849800000455,None,,,,,,,,,,,,,,,,,,,,,,,,,,,,,,,,,,,,,,,,,,,,,,31,22,V,R,2026-02-25_12h03.15.882,VisualSearch_2526_3,,2025.2.4,2026-02-25 12h03.16.109032 +0100,
,,,,,,,,,,,,,,,,,,,,,,,,,,,,,,,,,,,,,,,,,,,,,,,,,,,,,40.378928400000405,40.388193700000556,67.85927720000018,y,27.47665810000035,None,,,,,,,,,,,,,,,,,,,,,,,,,,,,,,,,,,,,,,,,31,22,V,R,2026-02-25_12h03.15.882,VisualSearch_2526_3,,2025.2.4,2026-02-25 12h03.16.109032 +0100,
vertical.xlsx,The target is tilted.,135,0,0,0,0,1,1,1,1,1,1,1,0,0,0,0,1,7,8,135,space,6.0065167000002475,None,0,1,4.14031199999954,None,,,,0,0,0,1,0,0,0,5,,,,,73.95200879999993,,,,,,,,,,,,,,,67.90131340000062,67.90131340000062,67.90131340000062,space,6.0065167000002475,None,73.94715429999997,73.95200879999993,74.4399813,74.4451680000002,74.4624560000002,78.60623360000045,0,1,4.14031199999954,None,78.60638449999988,78.62201460000051,78.82254400000056,78.80634079999982,,,,,,,,,,,,,,,,,,,,31,22,V,R,2026-02-25_12h03.15.882,VisualSearch_2526_3,,2025.2.4,2026-02-25 12h03.16.109032 +0100,
vertical.xlsx,The target is tilted.,135,1,1,0,0,1,1,1,1,1,1,1,1,1,1,1,1,11,12,135,space,6.0065167000002475,None,0,1,3.083795700000337,None,,,,0,0,0,1,0,1,1,4,,,,,78.82254400000056,,,,,,,,,,,,,,,,,,,,,78.8070316000003,78.82254400000056,79.30629950000002,79.31084960000044,79.32226330000049,82.4225508999998,0,1,3.083795700000337,None,82.42270840000037,82.43841510000038,82.63853100000051,82.62231680000059,79.32226330000049,,,,,,,,,,,,,,,,,,,31,22,V,R,2026-02-25_12h03.15.882,VisualSearch_2526_3,,2025.2.4,2026-02-25 12h03.16.109032 +0100,
vertical.xlsx,The target is tilted.,135,2,2,0,1,1,1,1,0,0,0,0,0,0,0,0,0,3,4,135,space,6.0065167000002475,None,1,1,0.9178853999992498,None,,,,0,0,0,1,0,2,2,2,,,,,82.63853100000051,,,,,,,,,,,,,,,,,,,,,82.62299510000048,82.63853100000051,83.12229220000063,83.12693949999993,83.14511260000018,84.07239960000061,1,1,0.9178853999992498,None,84.07254340000054,84.08762980000029,84.28805939999984,84.27100549999977,83.14511260000018,,,,,,,,,,,,,,,,,,,31,22,V,R,2026-02-25_12h03.15.882,VisualSearch_2526_3,,2025.2.4,2026-02-25 12h03.16.109032 +0100,
vertical.xlsx,The target is tilted.,135,3,3,0,1,0,0,0,0,0,0,0,0,0,0,0,0,0,1,135,space,6.0065167000002475,None,1,1,0.8085055999999895,None,,,,0,0,0,1,0,3,3,3,,,,,84.28805939999984,,,,,,,,,,,,,,,,,,,,,84.27121440000064,84.28805939999984,84.77198970000063,84.77667100000053,84.79154400000061,85.60546599999998,1,1,0.8085055999999895,None,85.6056337,85.62083630000052,85.82098190000033,85.80497410000044,84.79154400000061,,,,,,,,,,,,,,,,,,,31,22,V,R,2026-02-25_12h03.15.882,VisualSearch_2526_3,,2025.2.4,2026-02-25 12h03.16.109032 +0100,
vertical.xlsx,The target is tilted.,135,4,4,0,0,1,1,1,0,0,0,0,0,0,0,0,1,3,4,135,space,6.0065167000002475,None,0,1,1.1795314999999391,None,,,,0,0,0,1,0,4,4,6,,,,,85.82098190000033,,,,,,,,,,,,,,,,,,,,,85.80564709999999,85.82098190000033,86.30508929999996,86.30972519999978,86.3265992000006,87.52147909999985,0,1,1.1795314999999391,None,87.5216602999999,87.53707910000048,87.73770049999985,87.72142309999981,86.3265992000006,,,,,,,,,,,,,,,,,,,31,22,V,R,2026-02-25_12h03.15.882,VisualSearch_2526_3,,2025.2.4,2026-02-25 12h03.16.109032 +0100,
vertical.xlsx,The target is tilted.,135,5,5,0,1,1,1,1,1,1,1,1,1,1,1,1,0,11,12,135,space,6.0065167000002475,None,1,1,2.253105400000095,None,,,,0,0,0,1,0,5,5,0,,,,,87.73770049999985,,,,,,,,,,,,,,,,,,,,,87.72210840000025,87.73770049999985,88.22156900000027,88.22711729999992,88.24354149999999,90.50477860000046,1,1,2.253105400000095,None,90.50495080000019,90.51994449999984,90.72039120000045,90.70440340000005,88.24354149999999,,,,,,,,,,,,,,,,,,,31,22,V,R,2026-02-25_12h03.15.882,VisualSearch_2526_3,,2025.2.4,2026-02-25 12h03.16.109032 +0100,
vertical.xlsx,The target is tilted.,135,6,6,0,0,0,0,0,0,0,0,0,0,0,0,0,1,1,1,135,space,6.0065167000002475,None,0,1,1.1863173000001552,None,,,,0,0,0,1,0,6,6,7,,,,,90.72039120000045,,,,,,,,,,,,,,,,,,,,,90.70507410000027,90.72039120000045,91.2042749000002,91.20892970000023,91.22241120000035,92.42067620000034,0,1,1.1863173000001552,None,92.42086370000015,92.43629770000007,92.63699830000041,92.62049710000065,91.22241120000035,,,,,,,,,,,,,,,,,,,31,22,V,R,2026-02-25_12h03.15.882,VisualSearch_2526_3,,2025.2.4,2026-02-25 12h03.16.109032 +0100,
vertical.xlsx,The target is tilted.,135,7,7,0,1,1,1,1,1,1,1,1,0,0,0,0,0,7,8,135,space,6.0065167000002475,None,1,1,2.47239399999944,None,,,,0,0,0,1,0,7,7,1,,,,,92.63699830000041,,,,,,,,,,,,,,,,,,,,,92.62115369999992,92.63699830000041,93.12072690000059,93.1261242999999,93.1440631000005,95.61956240000018,1,1,2.47239399999944,None,95.61965690000034,95.63561070000014,95.8362044000005,95.81971350000003,93.1440631000005,,,,,,,,,,,,,,,,,,,31,22,V,R,2026-02-25_12h03.15.882,VisualSearch_2526_3,,2025.2.4,2026-02-25 12h03.16.109032 +0100,
vertical.xlsx,The target is tilted.,135,0,0,0,0,1,1,1,1,1,1,1,0,0,0,0,1,7,8,135,space,6.0065167000002475,None,0,1,2.0688718000001245,None,space,1.9306325000006836,None,0,0,0,1,,,,,0,0,0,5,97.80227079999986,,,,,,,,,,,,,,,,,,,,,97.79815740000049,97.80227079999986,98.2859696000005,98.29082480000034,98.30701169999975,100.3859653999998,,,,,100.38605060000009,100.40137630000027,100.6022208000004,100.58609369999976,,95.82595399999991,95.8362044000005,95.8362044000005,97.77024919999985,space,1.9306325000006836,None,0,1,2.0688718000001245,None,,,,,,,,31,22,V,R,2026-02-25_12h03.15.882,VisualSearch_2526_3,,2025.2.4,2026-02-25 12h03.16.109032 +0100,
vertical.xlsx,The target is tilted.,135,1,1,0,0,1,1,1,1,1,1,1,1,1,1,1,1,11,12,135,space,6.0065167000002475,None,0,1,1.6369750000003478,None,space,1.9306325000006836,None,0,0,0,1,,,,,0,1,1,4,100.6022208000004,,,,,,,,,,,,,,,,,,,,,100.58681630000046,100.6022208000004,101.08591660000002,101.09056849999979,101.10779390000062,102.75267690000055,,,,,102.7528570000004,102.76790450000044,102.9683715000001,102.95212189999984,101.10779390000062,,,,,,,,0,1,1.6369750000003478,None,,,,,,,,31,22,V,R,2026-02-25_12h03.15.882,VisualSearch_2526_3,,2025.2.4,2026-02-25 12h03.16.109032 +0100,
vertical.xlsx,The target is tilted.,135,2,2,0,1,1,1,1,1,1,1,1,1,1,1,1,0,11,12,135,space,6.0065167000002475,None,0,0,2.9735242999995535,None,space,1.9306325000006836,None,0,0,0,1,,,,,0,2,2,0,102.9683715000001,,,,,,,,,,,,,,,,,,,,,102.95279829999981,102.9683715000001,103.45221159999983,103.45699960000002,103.47248500000023,106.4520521000004,,,,,106.45223380000061,106.46730019999995,106.66789560000052,106.65163440000015,103.47248500000023,,,,,,,,0,0,2.9735242999995535,None,,,,,,,,31,22,V,R,2026-02-25_12h03.15.882,VisualSearch_2526_3,,2025.2.4,2026-02-25 12h03.16.109032 +0100,
vertical.xlsx,The target is tilted.,135,3,3,0,1,1,1,1,1,1,1,1,0,0,0,0,0,7,8,135,space,6.0065167000002475,None,1,1,2.127014599999711,None,space,1.9306325000006836,None,0,0,0,1,,,,,0,3,3,1,106.66789560000052,,,,,,,,,,,,,,,,,,,,,106.65241270000024,106.66789560000052,107.15156949999982,107.15640919999987,107.17422160000024,109.31738000000041,,,,,109.3175025999999,109.33336710000003,,109.51771230000031,107.17422160000024,,,,,,,,1,1,2.127014599999711,None,,,,,,,,31,22,V,R,2026-02-25_12h03.15.882,VisualSearch_2526_3,,2025.2.4,2026-02-25 12h03.16.109032 +0100,
vertical.xlsx,The target is tilted.,135,4,4,0,0,1,1,1,0,0,0,0,0,0,0,0,1,3,4,135,space,6.0065167000002475,None,0,1,0.8182283000005555,None,space,1.9306325000006836,None,0,0,0,1,,,,,0,4,4,6,109.53341940000064,,,,,,,,,,,,,,,,,,,,,109.51850060000015,109.53341940000064,110.01761739999984,110.02244410000003,110.04017530000056,110.86761300000035,,,,,110.86782700000003,110.88326849999976,111.08381879999979,111.06750350000038,,,,,,,,,0,1,0.8182283000005555,None,,,,,,,,31,22,V,R,2026-02-25_12h03.15.882,VisualSearch_2526_3,,2025.2.4,2026-02-25 12h03.16.109032 +0100,
vertical.xlsx,The target is tilted.,135,5,5,0,1,1,1,1,0,0,0,0,0,0,0,0,0,3,4,135,space,6.0065167000002475,None,1,1,1.1115518999995402,None,space,1.9306325000006836,None,0,0,0,1,,,,,0,5,5,2,111.08381879999979,,,,,,,,,,,,,,,,,,,,,111.0682710000001,111.08381879999979,111.56741299999976,111.57215760000054,111.58946470000046,112.71726200000012,,,,,112.71745340000052,112.73288219999995,112.93346740000015,112.9173421000005,111.58946470000046,,,,,,,,1,1,1.1115518999995402,None,,,,,,,,31,22,V,R,2026-02-25_12h03.15.882,VisualSearch_2526_3,,2025.2.4,2026-02-25 12h03.16.109032 +0100,
vertical.xlsx,The target is tilted.,135,6,6,0,0,0,0,0,0,0,0,0,0,0,0,0,1,1,1,135,space,6.0065167000002475,None,0,1,0.7910480000000462,None,space,1.9306325000006836,None,0,0,0,1,,,,,0,6,6,7,112.93346740000015,,,,,,,,,,,,,,,,,,,,,112.91807920000065,112.93346740000015,113.41698820000056,113.42118590000064,113.43545670000003,114.2342391000002,,,,,114.23442049999994,114.24931610000021,114.44920079999974,114.43253600000025,113.43545670000003,,,,,,,,0,1,0.7910480000000462,None,,,,,,,,31,22,V,R,2026-02-25_12h03.15.882,VisualSearch_2526_3,,2025.2.4,2026-02-25 12h03.16.109032 +0100,
vertical.xlsx,The target is tilted.,135,7,7,0,1,0,0,0,0,0,0,0,0,0,0,0,0,0,1,135,space,6.0065167000002475,None,1,1,0.5404428000001644,None,space,1.9306325000006836,None,0,0,0,1,,,,,0,7,7,3,114.44920079999974,,,,,,,,,,,,,,,,,,,,,114.43279890000031,114.44920079999974,114.9336172000003,114.93830950000029,114.95385350000015,115.49993069999982,,,,,115.50005190000047,115.51581200000055,115.71624049999991,115.70008580000012,114.95385350000015,,,,,,,,1,1,0.5404428000001644,None,,,,,,,,31,22,V,R,2026-02-25_12h03.15.882,VisualSearch_2526_3,,2025.2.4,2026-02-25 12h03.16.109032 +0100,
vertical.xlsx,The target is tilted.,135,8,0,1,1,1,1,1,1,1,1,1,0,0,0,0,0,7,8,135,space,6.0065167000002475,None,1,1,0.8870360000000801,None,space,1.9306325000006836,None,0,0,0,1,,,,,1,0,8,1,115.71624049999991,,,,,,,,,,,,,,,,,,,,,115.70083870000053,115.71624049999991,116.1998837000001,116.20782359999976,116.21857100000034,117.11716080000042,,,,,117.1173662000001,117.13221130000056,117.33245249999982,117.31626380000034,116.21857100000034,,,,,,,,1,1,0.8870360000000801,None,,,,,,,,31,22,V,R,2026-02-25_12h03.15.882,VisualSearch_2526_3,,2025.2.4,2026-02-25 12h03.16.109032 +0100,
vertical.xlsx,The target is tilted.,135,9,1,1,0,1,1,1,0,0,0,0,0,0,0,0,1,3,4,135,space,6.0065167000002475,None,0,1,0.7461425999999847,None,space,1.9306325000006836,None,0,0,0,1,,,,,1,1,9,6,117.33245249999982,,,,,,,,,,,,,,,,,,,,,117.31701150000026,117.33245249999982,117.8165439000004,117.82113430000027,117.83257279999998,118.58354870000039,,,,,118.58373350000056,118.59867080000004,118.79919059999975,118.7829929999998,117.83257279999998,,,,,,,,0,1,0.7461425999999847,None,,,,,,,,31,22,V,R,2026-02-25_12h03.15.882,VisualSearch_2526_3,,2025.2.4,2026-02-25 12h03.16.109032 +0100,
vertical.xlsx,The target is tilted.,135,10,2,1,1,0,0,0,0,0,0,0,0,0,0,0,0,0,1,135,space,6.0065167000002475,None,1,1,0.6032416999996713,None,space,1.9306325000006836,None,0,0,0,1,,,,,1,2,10,3,118.79919059999975,,,,,,,,,,,,,,,,,,,,,118.78374369999983,118.79919059999975,119.28311170000052,119.28835160000017,119.30396840000049,119.91678000000047,,,,,119.9169781999999,119.93174390000058,120.13188360000004,120.11626210000031,119.30396840000049,,,,,,,,1,1,0.6032416999996713,None,,,,,,,,31,22,V,R,2026-02-25_12h03.15.882,VisualSearch_2526_3,,2025.2.4,2026-02-25 12h03.16.109032 +0100,
vertical.xlsx,The target is tilted.,135,11,3,1,0,1,1,1,1,1,1,1,0,0,0,0,1,7,8,135,space,6.0065167000002475,None,0,1,1.7617110999999568,None,space,1.9306325000006836,None,0,0,0,1,,,,,1,3,11,5,120.13188360000004,,,,,,,,,,,,,,,,,,,,,120.11697660000027,120.13188360000004,120.61615170000005,120.62082819999978,120.63705269999991,122.4155154,,,,,122.41568170000028,122.43116060000011,122.63174220000019,122.61574490000021,120.63705269999991,,,,,,,,0,1,1.7617110999999568,None,,,,,,,,31,22,V,R,2026-02-25_12h03.15.882,VisualSearch_2526_3,,2025.2.4,2026-02-25 12h03.16.109032 +0100,
vertical.xlsx,The target is tilted.,135,12,4,1,1,1,1,1,1,1,1,1,1,1,1,1,0,11,12,135,space,6.0065167000002475,None,0,0,4.6652328000000125,None,space,1.9306325000006836,None,0,0,0,1,,,,,1,4,12,0,122.63174220000019,,,,,,,,,,,,,,,,,,,,,122.61647530000027,122.63174220000019,123.11566360000052,123.12026190000051,123.13155430000006,127.79851380000036,,,,,127.79868739999984,127.8136613000006,128.01431409999986,127.99821390000034,123.13155430000006,,,,,,,,0,0,4.6652328000000125,None,,,,,,,,31,22,V,R,2026-02-25_12h03.15.882,VisualSearch_2526_3,,2025.2.4,2026-02-25 12h03.16.109032 +0100,
vertical.xlsx,The target is tilted.,135,13,5,1,0,1,1,1,1,1,1,1,1,1,1,1,1,11,12,135,space,6.0065167000002475,None,0,1,3.212744399999792,None,space,1.9306325000006836,None,0,0,0,1,,,,,1,5,13,4,128.01431409999986,,,,,,,,,,,,,,,,,,,,,127.99895590000051,128.01431409999986,128.49820460000046,128.5031968000003,128.5185916999999,131.74730199999976,,,,,131.74746909999976,131.76294810000036,131.96365789999982,131.9474710000004,128.5185916999999,,,,,,,,0,1,3.212744399999792,None,,,,,,,,31,22,V,R,2026-02-25_12h03.15.882,VisualSearch_2526_3,,2025.2.4,2026-02-25 12h03.16.109032 +0100,
vertical.xlsx,The target is tilted.,135,14,6,1,1,1,1,1,0,0,0,0,0,0,0,0,0,3,4,135,space,6.0065167000002475,None,1,1,1.1722743000000264,None,space,1.9306325000006836,None,0,0,0,1,,,,,1,6,14,2,131.96365789999982,,,,,,,,,,,,,,,,,,,,,131.94821599999977,131.96365789999982,132.44748049999998,132.45232000000033,132.46697850000055,133.64770380000027,,,,,133.64788399999998,133.66266189999988,133.86334549999992,133.84704950000014,132.46697850000055,,,,,,,,1,1,1.1722743000000264,None,,,,,,,,31,22,V,R,2026-02-25_12h03.15.882,VisualSearch_2526_3,,2025.2.4,2026-02-25 12h03.16.109032 +0100,
vertical.xlsx,The target is tilted.,135,15,7,1,0,0,0,0,0,0,0,0,0,0,0,0,1,1,1,135,space,6.0065167000002475,None,0,1,0.9788226000000577,None,space,1.9306325000006836,None,0,0,0,1,,,,,1,7,15,7,133.86334549999992,,,,,,,,,,,,,,,,,,,,,133.84780460000002,133.86334549999992,134.34689419999995,134.35138030000053,134.36615830000028,135.34673550000025,,,,,135.34689350000008,135.3624552000001,135.56306510000013,135.5469146000005,134.36615830000028,,,,,,,,0,1,0.9788226000000577,None,,,,,,,,31,22,V,R,2026-02-25_12h03.15.882,VisualSearch_2526_3,,2025.2.4,2026-02-25 12h03.16.109032 +0100,
vertical.xlsx,The target is tilted.,135,16,0,2,0,0,0,0,0,0,0,0,0,0,0,0,1,1,1,135,space,6.0065167000002475,None,0,1,0.6138259999997899,None,space,1.9306325000006836,None,0,0,0,1,,,,,2,0,16,7,135.56306510000013,,,,,,,,,,,,,,,,,,,,,135.54762819999996,135.56306510000013,136.0468709000006,136.05152950000047,136.0684037000001,136.69648810000035,,,,,136.6966521000004,136.71211120000044,136.91252669999994,136.89650130000064,136.0684037000001,,,,,,,,0,1,0.6138259999997899,None,,,,,,,,31,22,V,R,2026-02-25_12h03.15.882,VisualSearch_2526_3,,2025.2.4,2026-02-25 12h03.16.109032 +0100,
vertical.xlsx,The target is tilted.,135,17,1,2,1,0,0,0,0,0,0,0,0,0,0,0,0,0,1,135,space,6.0065167000002475,None,1,1,0.5948404999999184,None,space,1.9306325000006836,None,0,0,0,1,,,,,2,1,17,3,136.91252669999994,,,,,,,,,,,,,,,,,,,,,136.89722400000028,136.91252669999994,137.39652699999988,137.40119500000037,137.41786719999982,138.0296146999999,,,,,138.02978040000016,138.0452737000005,138.24568439999985,138.22975790000055,137.41786719999982,,,,,,,,1,1,0.5948404999999184,None,,,,,,,,31,22,V,R,2026-02-25_12h03.15.882,VisualSearch_2526_3,,2025.2.4,2026-02-25 12h03.16.109032 +0100,
vertical.xlsx,The target is tilted.,135,18,2,2,1,1,1,1,1,1,1,1,1,1,1,1,0,11,12,135,space,6.0065167000002475,None,1,1,3.5195455000002767,None,space,1.9306325000006836,None,0,0,0,1,,,,,2,2,18,0,138.24568439999985,,,,,,,,,,,,,,,,,,,,,138.23044050000044,138.24568439999985,138.72962240000015,138.73433399999976,138.75008590000016,142.27947610000047,,,,,142.27964640000027,142.29459680000036,142.4946630000004,142.47851020000053,138.75008590000016,,,,,,,,1,1,3.5195455000002767,None,,,,,,,,31,22,V,R,2026-02-25_12h03.15.882,VisualSearch_2526_3,,2025.2.4,2026-02-25 12h03.16.109032 +0100,
vertical.xlsx,The target is tilted.,135,19,3,2,1,1,1,1,1,1,1,1,0,0,0,0,0,7,8,135,space,6.0065167000002475,None,1,1,3.060081800000262,None,space,1.9306325000006836,None,0,0,0,1,,,,,2,3,19,1,142.4946630000004,,,,,,,,,,,,,,,,,,,,,142.47914450000007,142.4946630000004,142.97891170000003,142.98358019999978,143.00130869999975,146.07822990000022,,,,,146.07839680000052,146.09386480000012,146.29463470000064,146.27850339999986,143.00130869999975,,,,,,,,1,1,3.060081800000262,None,,,,,,,,31,22,V,R,2026-02-25_12h03.15.882,VisualSearch_2526_3,,2025.2.4,2026-02-25 12h03.16.109032 +0100,
vertical.xlsx,The target is tilted.,135,20,4,2,1,1,1,1,0,0,0,0,0,0,0,0,0,3,4,135,space,6.0065167000002475,None,0,0,1.3265246999999363,None,space,1.9306325000006836,None,0,0,0,1,,,,,2,4,20,2,146.29463470000064,,,,,,,,,,,,,,,,,,,,,146.2792343000001,146.29463470000064,146.77894110000034,146.78355780000038,146.7992432000001,148.12839170000007,,,,,148.12856530000045,148.14365710000038,148.3442058999999,148.32816300000013,146.7992432000001,,,,,,,,0,0,1.3265246999999363,None,,,,,,,,31,22,V,R,2026-02-25_12h03.15.882,VisualSearch_2526_3,,2025.2.4,2026-02-25 12h03.16.109032 +0100,
vertical.xlsx,The target is tilted.,135,21,5,2,0,1,1,1,1,1,1,1,1,1,1,1,1,11,12,135,space,6.0065167000002475,None,0,1,3.9063900000001013,None,space,1.9306325000006836,None,0,0,0,1,,,,,2,5,21,4,148.3442058999999,,,,,,,,,,,,,,,,,,,,,148.32889870000054,148.3442058999999,148.82802619999984,148.83261560000028,148.85024599999997,152.7606282000006,,,,,152.7608369999998,152.77621400000044,152.97683580000012,152.96032190000005,148.85024599999997,,,,,,,,0,1,3.9063900000001013,None,,,,,,,,31,22,V,R,2026-02-25_12h03.15.882,VisualSearch_2526_3,,2025.2.4,2026-02-25 12h03.16.109032 +0100,
vertical.xlsx,The target is tilted.,135,22,6,2,0,1,1,1,0,0,0,0,0,0,0,0,1,3,4,135,space,6.0065167000002475,None,0,1,1.0519400999992286,None,space,1.9306325000006836,None,0,0,0,1,,,,,2,6,22,6,152.97683580000012,,,,,,,,,,,,,,,,,,,,,152.96102059999976,152.97683580000012,153.46015330000046,153.46433220000017,153.47999450000043,154.54353460000038,,,,,154.54366850000042,154.55902969999988,154.7594398000001,154.74370030000046,153.47999450000043,,,,,,,,0,1,1.0519400999992286,None,,,,,,,,31,22,V,R,2026-02-25_12h03.15.882,VisualSearch_2526_3,,2025.2.4,2026-02-25 12h03.16.109032 +0100,
vertical.xlsx,The target is tilted.,135,23,7,2,0,1,1,1,1,1,1,1,0,0,0,0,1,7,8,135,space,6.0065167000002475,None,0,1,2.7088559000003443,None,space,1.9306325000006836,None,0,0,0,1,,,,,2,7,23,5,154.7594398000001,,,,,,,,,,,,,,,,,,,,,154.74442550000003,154.7594398000001,155.24378250000063,155.2490502999999,155.26750790000006,157.99282080000012,,,,,157.99297769999976,158.00857050000013,158.2093329999998,158.19305030000032,155.26750790000006,,,,,,,,0,1,2.7088559000003443,None,,,,,,,,31,22,V,R,2026-02-25_12h03.15.882,VisualSearch_2526_3,,2025.2.4,2026-02-25 12h03.16.109032 +0100,
vertical.xlsx,The target is tilted.,135,24,0,3,1,0,0,0,0,0,0,0,0,0,0,0,0,0,1,135,space,6.0065167000002475,None,1,1,0.6677356000000145,None,space,1.9306325000006836,None,0,0,0,1,,,,,3,0,24,3,158.2093329999998,,,,,,,,,,,,,,,,,,,,,158.1937837000005,158.2093329999998,158.6929927000001,158.69774250000046,158.71480450000035,159.3933461000006,,,,,159.39352409999992,159.4084829000003,159.6090807999999,159.59287270000004,158.71480450000035,,,,,,,,1,1,0.6677356000000145,None,,,,,,,,31,22,V,R,2026-02-25_12h03.15.882,VisualSearch_2526_3,,2025.2.4,2026-02-25 12h03.16.109032 +0100,
vertical.xlsx,The target is tilted.,135,25,1,3,1,1,1,1,0,0,0,0,0,0,0,0,0,3,4,135,space,6.0065167000002475,None,1,1,0.942221199999949,None,space,1.9306325000006836,None,0,0,0,1,,,,,3,1,25,2,159.6090807999999,,,,,,,,,,,,,,,,,,,,,159.59361869999975,159.6090807999999,160.09283219999998,160.09741420000046,160.11459130000003,161.05988960000013,,,,,161.06007390000013,161.0749110000006,161.27546080000047,161.2592163999998,160.11459130000003,,,,,,,,1,1,0.942221199999949,None,,,,,,,,31,22,V,R,2026-02-25_12h03.15.882,VisualSearch_2526_3,,2025.2.4,2026-02-25 12h03.16.109032 +0100,
vertical.xlsx,The target is tilted.,135,26,2,3,0,1,1,1,1,1,1,1,0,0,0,0,1,7,8,135,space,6.0065167000002475,None,0,1,3.6967788000001747,None,space,1.9306325000006836,None,0,0,0,1,,,,,3,2,26,5,161.27546080000047,,,,,,,,,,,,,,,,,,,,,161.25999480000064,161.27546080000047,161.75920680000036,161.76377910000065,161.77990630000022,165.49165619999985,,,,,165.4917575999998,165.5072540000001,165.70742830000017,165.69182340000043,161.77990630000022,,,,,,,,0,1,3.6967788000001747,None,,,,,,,,31,22,V,R,2026-02-25_12h03.15.882,VisualSearch_2526_3,,2025.2.4,2026-02-25 12h03.16.109032 +0100,
vertical.xlsx,The target is tilted.,135,27,3,3,1,1,1,1,1,1,1,1,1,1,1,1,0,11,12,135,space,6.0065167000002475,None,1,1,1.8323323000004166,None,space,1.9306325000006836,None,0,0,0,1,,,,,3,3,27,0,165.70742830000017,,,,,,,,,,,,,,,,,,,,,165.69255109999995,165.70742830000017,166.19161619999977,166.19633720000002,166.21296679999978,168.0579099000006,,,,,168.05807559999994,168.07353479999983,168.27386860000024,168.25764100000015,166.21296679999978,,,,,,,,1,1,1.8323323000004166,None,,,,,,,,31,22,V,R,2026-02-25_12h03.15.882,VisualSearch_2526_3,,2025.2.4,2026-02-25 12h03.16.109032 +0100,
vertical.xlsx,The target is tilted.,135,28,4,3,0,0,0,0,0,0,0,0,0,0,0,0,1,1,1,135,space,6.0065167000002475,None,0,1,0.7400797000000239,None,space,1.9306325000006836,None,0,0,0,1,,,,,3,4,28,7,168.27386860000024,,,,,,,,,,,,,,,,,,,,,168.25831620000008,168.27386860000024,168.75764940000045,168.7619381000004,168.77887800000008,169.52492400000028,,,,,169.52510390000043,169.54015049999998,169.740589,169.72447759999977,168.77887800000008,,,,,,,,0,1,0.7400797000000239,None,,,,,,,,31,22,V,R,2026-02-25_12h03.15.882,VisualSearch_2526_3,,2025.2.4,2026-02-25 12h03.16.109032 +0100,
vertical.xlsx,The target is tilted.,135,29,5,3,0,1,1,1,1,1,1,1,1,1,1,1,1,11,12,135,space,6.0065167000002475,None,0,1,3.4698115000001053,None,space,1.9306325000006836,None,0,0,0,1,,,,,3,5,29,4,169.740589,,,,,,,,,,,,,,,,,,,,,169.72522490000028,169.740589,170.22454749999997,170.22947980000026,170.24011860000064,173.7235995000001,,,,,173.72376480000003,173.73926370000027,173.93971750000037,173.92362130000038,170.24011860000064,,,,,,,,0,1,3.4698115000001053,None,,,,,,,,31,22,V,R,2026-02-25_12h03.15.882,VisualSearch_2526_3,,2025.2.4,2026-02-25 12h03.16.109032 +0100,
vertical.xlsx,The target is tilted.,135,30,6,3,0,1,1,1,0,0,0,0,0,0,0,0,1,3,4,135,space,6.0065167000002475,None,0,1,1.5689895999994405,None,space,1.9306325000006836,None,0,0,0,1,,,,,3,6,30,6,173.93971750000037,,,,,,,,,,,,,,,,,,,,,173.9243077000001,173.93971750000037,174.4235703000004,174.42863579999994,174.44668610000008,176.02389850000054,,,,,176.0240803000006,176.03908730000057,176.23930960000052,176.22313570000006,174.44668610000008,,,,,,,,0,1,1.5689895999994405,None,,,,,,,,31,22,V,R,2026-02-25_12h03.15.882,VisualSearch_2526_3,,2025.2.4,2026-02-25 12h03.16.109032 +0100,
vertical.xlsx,The target is tilted.,135,31,7,3,1,1,1,1,1,1,1,1,0,0,0,0,0,7,8,135,space,6.0065167000002475,None,1,1,3.0328577000000223,None,space,1.9306325000006836,None,0,0,0,1,,,,,3,7,31,1,176.23930960000052,,,,,,,,,,,,,,,,,,,,,176.2238713000006,176.23930960000052,176.72328939999989,176.72817329999998,176.74623580000025,179.78981269999986,,,,,179.78999770000064,179.80504130000008,180.00524810000024,179.9894973999999,176.74623580000025,,,,,,,,1,1,3.0328577000000223,None,,,,,,,,31,22,V,R,2026-02-25_12h03.15.882,VisualSearch_2526_3,,2025.2.4,2026-02-25 12h03.16.109032 +0100,
vertical.xlsx,The target is tilted.,135,32,0,4,0,0,0,0,0,0,0,0,0,0,0,0,1,1,1,135,space,6.0065167000002475,None,0,1,0.7275816999999734,None,space,1.9306325000006836,None,0,0,0,1,,,,,4,0,32,7,180.00524810000024,,,,,,,,,,,,,,,,,,,,,179.9902176000005,180.00524810000024,180.48935210000036,180.49398329999985,180.51041520000035,181.23944930000016,,,,,181.23961640000016,181.25478730000032,181.4554288999998,181.43929970000045,180.51041520000035,,,,,,,,0,1,0.7275816999999734,None,,,,,,,,31,22,V,R,2026-02-25_12h03.15.882,VisualSearch_2526_3,,2025.2.4,2026-02-25 12h03.16.109032 +0100,
vertical.xlsx,The target is tilted.,135,33,1,4,1,1,1,1,0,0,0,0,0,0,0,0,0,3,4,135,space,6.0065167000002475,None,1,1,0.8506547999995746,None,space,1.9306325000006836,None,0,0,0,1,,,,,4,1,33,2,181.4554288999998,,,,,,,,,,,,,,,,,,,,,181.44003880000037,181.4554288999998,181.9391685999999,181.94377030000032,181.96187210000062,182.8227525000002,,,,,182.8229355000003,182.8378915000003,183.03808410000056,183.02188840000053,181.96187210000062,,,,,,,,1,1,0.8506547999995746,None,,,,,,,,31,22,V,R,2026-02-25_12h03.15.882,VisualSearch_2526_3,,2025.2.4,2026-02-25 12h03.16.109032 +0100,
vertical.xlsx,The target is tilted.,135,34,2,4,1,1,1,1,1,1,1,1,0,0,0,0,0,7,8,135,space,6.0065167000002475,None,0,0,2.3536170000006678,None,space,1.9306325000006836,None,0,0,0,1,,,,,4,2,34,1,183.03808410000056,,,,,,,,,,,,,,,,,,,,,183.02259349999986,183.03808410000056,183.52163660000042,183.52560400000038,183.53807400000005,185.90501360000053,,,,,185.90520350000043,185.92062820000046,186.12125100000048,186.10513230000015,183.53807400000005,,,,,,,,0,0,2.3536170000006678,None,,,,,,,,31,22,V,R,2026-02-25_12h03.15.882,VisualSearch_2526_3,,2025.2.4,2026-02-25 12h03.16.109032 +0100,
vertical.xlsx,The target is tilted.,135,35,3,4,1,0,0,0,0,0,0,0,0,0,0,0,0,0,1,135,space,6.0065167000002475,None,1,1,0.6819186000002446,None,space,1.9306325000006836,None,0,0,0,1,,,,,4,3,35,3,186.12125100000048,,,,,,,,,,,,,,,,,,,,,186.10585580000043,186.12125100000048,186.60511680000036,186.60978220000015,186.62693130000025,187.32087740000043,,,,,187.3209596000006,187.336953,,187.52122229999986,186.62693130000025,,,,,,,,1,1,0.6819186000002446,None,,,,,,,,31,22,V,R,2026-02-25_12h03.15.882,VisualSearch_2526_3,,2025.2.4,2026-02-25 12h03.16.109032 +0100,
vertical.xlsx,The target is tilted.,135,36,4,4,0,1,1,1,0,0,0,0,0,0,0,0,1,3,4,135,space,6.0065167000002475,None,0,1,1.5204604999998992,None,space,1.9306325000006836,None,0,0,0,1,,,,,4,4,36,6,187.53774560000056,,,,,,,,,,,,,,,,,,,,,187.5219745000004,187.53774560000056,188.0212532000005,188.0259716999999,188.04411960000016,189.57146420000026,,,,,189.57161309999992,189.58680019999974,189.7873696000006,189.77097940000021,,,,,,,,,0,1,1.5204604999998992,None,,,,,,,,31,22,V,R,2026-02-25_12h03.15.882,VisualSearch_2526_3,,2025.2.4,2026-02-25 12h03.16.109032 +0100,
vertical.xlsx,The target is tilted.,135,37,5,4,0,1,1,1,1,1,1,1,0,0,0,0,1,7,8,135,space,6.0065167000002475,None,0,1,2.425221800000145,None,space,1.9306325000006836,None,0,0,0,1,,,,,4,5,37,5,189.7873696000006,,,,,,,,,,,,,,,,,,,,,189.77175530000022,189.7873696000006,190.2709302000003,190.2756956000003,190.29186430000027,192.72077979999995,,,,,192.7209616,192.73645790000046,192.93683610000062,192.92047290000028,190.29186430000027,,,,,,,,0,1,2.425221800000145,None,,,,,,,,31,22,V,R,2026-02-25_12h03.15.882,VisualSearch_2526_3,,2025.2.4,2026-02-25 12h03.16.109032 +0100,
vertical.xlsx,The target is tilted.,135,38,6,4,0,1,1,1,1,1,1,1,1,1,1,1,1,11,12,135,space,6.0065167000002475,None,0,1,4.19753750000018,None,space,1.9306325000006836,None,0,0,0,1,,,,,4,6,38,4,192.93683610000062,,,,,,,,,,,,,,,,,,,,,192.92122149999977,192.93683610000062,193.42026450000048,193.4256021000001,193.44079349999993,197.65319770000042,,,,,197.6533715000005,197.66865529999995,197.86934070000007,197.8531262000006,193.44079349999993,,,,,,,,0,1,4.19753750000018,None,,,,,,,,31,22,V,R,2026-02-25_12h03.15.882,VisualSearch_2526_3,,2025.2.4,2026-02-25 12h03.16.109032 +0100,
vertical.xlsx,The target is tilted.,135,39,7,4,1,1,1,1,1,1,1,1,1,1,1,1,0,11,12,135,space,6.0065167000002475,None,0,0,3.7949029000001246,None,space,1.9306325000006836,None,0,0,0,1,,,,,4,7,39,0,197.86934070000007,,,,,,,,,,,,,,,,,,,,,197.85387460000038,197.86934070000007,198.3529898000006,198.35767690000011,198.37536510000064,202.1854768000003,,,,,202.18564659999993,202.20117960000061,202.40177140000014,202.3857366000002,198.37536510000064,,,,,,,,0,0,3.7949029000001246,None,,,,,,,,31,22,V,R,2026-02-25_12h03.15.882,VisualSearch_2526_3,,2025.2.4,2026-02-25 12h03.16.109032 +0100,
vertical.xlsx,The target is tilted.,135,40,0,5,0,1,1,1,0,0,0,0,0,0,0,0,1,3,4,135,space,6.0065167000002475,None,0,1,0.9685236999994231,None,space,1.9306325000006836,None,0,0,0,1,,,,,5,0,40,6,202.40177140000014,,,,,,,,,,,,,,,,,,,,,202.38651320000008,202.40177140000014,202.88560469999993,202.8902078000001,202.9072068000005,203.88596310000048,,,,,203.88614280000002,203.9010060999999,204.10151300000052,204.0854530000006,202.9072068000005,,,,,,,,0,1,0.9685236999994231,None,,,,,,,,31,22,V,R,2026-02-25_12h03.15.882,VisualSearch_2526_3,,2025.2.4,2026-02-25 12h03.16.109032 +0100,
vertical.xlsx,The target is tilted.,135,41,1,5,1,1,1,1,0,0,0,0,0,0,0,0,0,3,4,135,space,6.0065167000002475,None,0,0,1.722777799999676,None,space,1.9306325000006836,None,0,0,0,1,,,,,5,1,41,2,204.10151300000052,,,,,,,,,,,,,,,,,,,,,204.0861689000003,204.10151300000052,204.58528110000043,204.5893915000006,204.60526410000057,206.3353275999998,,,,,206.33551700000044,206.3507123999998,206.55104720000054,206.5350038000006,204.60526410000057,,,,,,,,0,0,1.722777799999676,None,,,,,,,,31,22,V,R,2026-02-25_12h03.15.882,VisualSearch_2526_3,,2025.2.4,2026-02-25 12h03.16.109032 +0100,
vertical.xlsx,The target is tilted.,135,42,2,5,0,0,0,0,0,0,0,0,0,0,0,0,1,1,1,135,space,6.0065167000002475,None,0,1,0.7761397999993278,None,space,1.9306325000006836,None,0,0,0,1,,,,,5,2,42,7,206.55104720000054,,,,,,,,,,,,,,,,,,,,,206.53575510000064,206.55104720000054,207.03501680000045,207.03957609999998,207.05715789999977,207.8355044,,,,,207.83572189999995,207.85041160000037,208.05083470000045,208.03448860000026,207.05715789999977,,,,,,,,0,1,0.7761397999993278,None,,,,,,,,31,22,V,R,2026-02-25_12h03.15.882,VisualSearch_2526_3,,2025.2.4,2026-02-25 12h03.16.109032 +0100,
vertical.xlsx,The target is tilted.,135,43,3,5,1,0,0,0,0,0,0,0,0,0,0,0,0,0,1,135,space,6.0065167000002475,None,1,1,0.6355067000004055,None,space,1.9306325000006836,None,0,0,0,1,,,,,5,3,43,3,208.05083470000045,,,,,,,,,,,,,,,,,,,,,208.03511590000016,208.05083470000045,208.53455740000027,208.54041140000027,208.55678530000023,209.20179700000062,,,,,209.2019938000003,209.21688170000016,209.41724729999987,209.40072280000004,208.55678530000023,,,,,,,,1,1,0.6355067000004055,None,,,,,,,,31,22,V,R,2026-02-25_12h03.15.882,VisualSearch_2526_3,,2025.2.4,2026-02-25 12h03.16.109032 +0100,
vertical.xlsx,The target is tilted.,135,44,4,5,0,1,1,1,1,1,1,1,1,1,1,1,1,11,12,135,space,6.0065167000002475,None,0,1,4.167580199999975,None,space,1.9306325000006836,None,0,0,0,1,,,,,5,4,44,4,209.41724729999987,,,,,,,,,,,,,,,,,,,,,209.4010202999998,209.41724729999987,209.90125970000008,209.90656469999976,209.9240080999998,214.10014020000017,,,,,214.1002613999999,214.11591380000027,214.31640320000042,214.2998922000006,209.9240080999998,,,,,,,,0,1,4.167580199999975,None,,,,,,,,31,22,V,R,2026-02-25_12h03.15.882,VisualSearch_2526_3,,2025.2.4,2026-02-25 12h03.16.109032 +0100,
vertical.xlsx,The target is tilted.,135,45,5,5,1,1,1,1,1,1,1,1,0,0,0,0,0,7,8,135,space,6.0065167000002475,None,1,1,1.0235413999998855,None,space,1.9306325000006836,None,0,0,0,1,,,,,5,5,45,1,214.31640320000042,,,,,,,,,,,,,,,,,,,,,214.30055439999978,214.31640320000042,214.79996410000058,214.80462460000035,214.82047969999985,215.85010130000046,,,,,215.8503037999999,215.86569099999997,216.06625559999975,216.04987660000006,214.82047969999985,,,,,,,,1,1,1.0235413999998855,None,,,,,,,,31,22,V,R,2026-02-25_12h03.15.882,VisualSearch_2526_3,,2025.2.4,2026-02-25 12h03.16.109032 +0100,
vertical.xlsx,The target is tilted.,135,46,6,5,1,1,1,1,1,1,1,1,1,1,1,1,0,11,12,135,space,6.0065167000002475,None,1,1,1.1821233999999095,None,space,1.9306325000006836,None,0,0,0,1,,,,,5,6,46,0,216.06625559999975,,,,,,,,,,,,,,,,,,,,,216.05061710000064,216.06625559999975,216.54987090000031,216.55449370000042,216.5711437,217.76586000000043,,,,,217.7659893,217.78209750000042,,217.9664204999999,216.5711437,,,,,,,,1,1,1.1821233999999095,None,,,,,,,,31,22,V,R,2026-02-25_12h03.15.882,VisualSearch_2526_3,,2025.2.4,2026-02-25 12h03.16.109032 +0100,
vertical.xlsx,The target is tilted.,135,47,7,5,0,1,1,1,1,1,1,1,0,0,0,0,1,7,8,135,space,6.0065167000002475,None,0,1,1.9020135000000664,None,space,1.9306325000006836,None,0,0,0,1,,,,,5,7,47,5,217.98264720000043,,,,,,,,,,,,,,,,,,,,,217.9672982000002,217.98264720000043,218.46621630000027,218.4708580000006,218.48456200000055,220.39914130000034,,,,,220.39930950000053,220.41484010000022,220.61508740000045,220.5989113000005,,,,,,,,,0,1,1.9020135000000664,None,,,,,,,,31,22,V,R,2026-02-25_12h03.15.882,VisualSearch_2526_3,,2025.2.4,2026-02-25 12h03.16.109032 +0100,
vertical.xlsx,The target is tilted.,135,48,0,6,0,0,0,0,0,0,0,0,0,0,0,0,1,1,1,135,space,6.0065167000002475,None,0,1,0.6133302999996886,None,space,1.9306325000006836,None,0,0,0,1,,,,,6,0,48,7,220.61508740000045,,,,,,,,,,,,,,,,,,,,,220.59960620000038,220.61508740000045,221.09894030000032,221.1037597000004,221.1208127,221.74901360000058,,,,,221.74922349999997,221.7646149000002,221.96531099999993,221.94912750000003,221.1208127,,,,,,,,0,1,0.6133302999996886,None,,,,,,,,31,22,V,R,2026-02-25_12h03.15.882,VisualSearch_2526_3,,2025.2.4,2026-02-25 12h03.16.109032 +0100,
vertical.xlsx,The target is tilted.,135,49,1,6,0,1,1,1,1,1,1,1,1,1,1,1,1,11,12,135,space,6.0065167000002475,None,0,1,3.1461364000006142,None,space,1.9306325000006836,None,0,0,0,1,,,,,6,1,49,4,221.96531099999993,,,,,,,,,,,,,,,,,,,,,221.94988019999982,221.96531099999993,222.44888919999994,222.45412230000056,222.47020919999977,225.63148050000018,,,,,225.63164490000054,225.64726900000005,225.84799610000027,225.83172569999988,222.47020919999977,,,,,,,,0,1,3.1461364000006142,None,,,,,,,,31,22,V,R,2026-02-25_12h03.15.882,VisualSearch_2526_3,,2025.2.4,2026-02-25 12h03.16.109032 +0100,
vertical.xlsx,The target is tilted.,135,50,2,6,1,1,1,1,1,1,1,1,1,1,1,1,0,11,12,135,space,6.0065167000002475,None,1,1,3.0565374999996493,None,space,1.9306325000006836,None,0,0,0,1,,,,,6,2,50,0,225.84799610000027,,,,,,,,,,,,,,,,,,,,,225.83248189999995,225.84799610000027,226.33188250000057,226.33666080000057,226.3540896000004,229.4145008000005,,,,,229.4147079000004,229.43003490000046,229.63059560000056,229.61456510000062,226.3540896000004,,,,,,,,1,1,3.0565374999996493,None,,,,,,,,31,22,V,R,2026-02-25_12h03.15.882,VisualSearch_2526_3,,2025.2.4,2026-02-25 12h03.16.109032 +0100,
vertical.xlsx,The target is tilted.,135,51,3,6,1,0,0,0,0,0,0,0,0,0,0,0,0,0,1,135,space,6.0065167000002475,None,1,1,0.82263039999998,None,space,1.9306325000006836,None,0,0,0,1,,,,,6,3,51,3,229.63059560000056,,,,,,,,,,,,,,,,,,,,,229.61534949999987,229.63059560000056,230.11450120000063,230.11888989999989,230.1327869000006,230.96437030000016,,,,,230.9645031,230.97980970000026,231.1802115999999,231.16386039999998,230.1327869000006,,,,,,,,1,1,0.82263039999998,None,,,,,,,,31,22,V,R,2026-02-25_12h03.15.882,VisualSearch_2526_3,,2025.2.4,2026-02-25 12h03.16.109032 +0100,
vertical.xlsx,The target is tilted.,135,52,4,6,1,1,1,1,0,0,0,0,0,0,0,0,0,3,4,135,space,6.0065167000002475,None,0,0,2.7891984999996566,None,space,1.9306325000006836,None,0,0,0,1,,,,,6,4,52,2,231.1802115999999,,,,,,,,,,,,,,,,,,,,,231.16460610000013,231.1802115999999,231.66418109999995,231.66887980000047,231.68600930000048,234.48074590000033,,,,,234.48092439999982,234.4958862000003,234.6964742,234.6799729000004,231.68600930000048,,,,,,,,0,0,2.7891984999996566,None,,,,,,,,31,22,V,R,2026-02-25_12h03.15.882,VisualSearch_2526_3,,2025.2.4,2026-02-25 12h03.16.109032 +0100,
vertical.xlsx,The target is tilted.,135,53,5,6,0,1,1,1,1,1,1,1,0,0,0,0,1,7,8,135,space,6.0065167000002475,None,0,1,3.233899400000155,None,space,1.9306325000006836,None,0,0,0,1,,,,,6,5,53,5,234.6964742,,,,,,,,,,,,,,,,,,,,,234.6807273000004,234.6964742,235.17985940000017,235.18454470000052,235.19617209999979,238.4459992000002,,,,,238.4461523,238.46179610000036,238.66237850000016,238.64622359999976,235.19617209999979,,,,,,,,0,1,3.233899400000155,None,,,,,,,,31,22,V,R,2026-02-25_12h03.15.882,VisualSearch_2526_3,,2025.2.4,2026-02-25 12h03.16.109032 +0100,
vertical.xlsx,The target is tilted.,135,54,6,6,0,1,1,1,0,0,0,0,0,0,0,0,1,3,4,135,space,6.0065167000002475,None,0,1,2.678880399999798,None,space,1.9306325000006836,None,0,0,0,1,,,,,6,6,54,6,238.66237850000016,,,,,,,,,,,,,,,,,,,,,238.64689110000018,238.66237850000016,239.14617439999984,239.15032080000037,239.16578370000025,241.84559330000047,,,,,241.8457429,241.86127970000052,242.0618955,242.04568180000024,239.16578370000025,,,,,,,,0,1,2.678880399999798,None,,,,,,,,31,22,V,R,2026-02-25_12h03.15.882,VisualSearch_2526_3,,2025.2.4,2026-02-25 12h03.16.109032 +0100,
vertical.xlsx,The target is tilted.,135,55,7,6,1,1,1,1,1,1,1,1,0,0,0,0,0,7,8,135,space,6.0065167000002475,None,1,1,2.3407282999996823,None,space,1.9306325000006836,None,0,0,0,1,,,,,6,7,55,1,242.0618955,,,,,,,,,,,,,,,,,,,,,242.04644800000005,242.0618955,242.5456211999999,242.54980849999993,242.56473650000044,244.91232670000045,,,,,244.9125143000001,244.92750140000044,245.12762519999978,245.1112880999999,242.56473650000044,,,,,,,,1,1,2.3407282999996823,None,,,,,,,,31,22,V,R,2026-02-25_12h03.15.882,VisualSearch_2526_3,,2025.2.4,2026-02-25 12h03.16.109032 +0100,
vertical.xlsx,The target is tilted.,135,56,0,7,0,1,1,1,1,1,1,1,1,1,1,1,1,11,12,135,space,6.0065167000002475,None,0,1,4.245532500000081,None,space,1.9306325000006836,None,0,0,0,1,,,,,7,0,56,4,245.12762519999978,,,,,,,,,,,,,,,,,,,,,245.11185130000013,245.12762519999978,245.61177920000046,245.61671399999977,245.63369190000049,249.89420530000007,,,,,249.89437140000064,249.90988470000048,250.11050609999984,250.0942700000005,245.63369190000049,,,,,,,,0,1,4.245532500000081,None,,,,,,,,31,22,V,R,2026-02-25_12h03.15.882,VisualSearch_2526_3,,2025.2.4,2026-02-25 12h03.16.109032 +0100,
vertical.xlsx,The target is tilted.,135,57,1,7,0,0,0,0,0,0,0,0,0,0,0,0,1,1,1,135,space,6.0065167000002475,None,0,1,0.5889068000005864,None,space,1.9306325000006836,None,0,0,0,1,,,,,7,1,57,7,250.11050609999984,,,,,,,,,,,,,,,,,,,,,250.09495100000004,250.11050609999984,250.5934087000005,250.5952154000006,250.61002860000008,251.21145119999983,,,,,251.21164810000028,251.22646750000058,251.42700609999974,251.4107530000001,250.61002860000008,,,,,,,,0,1,0.5889068000005864,None,,,,,,,,31,22,V,R,2026-02-25_12h03.15.882,VisualSearch_2526_3,,2025.2.4,2026-02-25 12h03.16.109032 +0100,
vertical.xlsx,The target is tilted.,135,58,2,7,0,1,1,1,1,1,1,1,0,0,0,0,1,7,8,135,space,6.0065167000002475,None,0,1,1.9600667999993675,None,space,1.9306325000006836,None,0,0,0,1,,,,,7,2,58,5,251.42700609999974,,,,,,,,,,,,,,,,,,,,,251.41149170000062,251.42700609999974,251.91073880000022,251.9159752000005,251.93248060000042,253.89475630000015,,,,,253.89494000000013,253.9093573,254.10961120000047,254.0934087000005,251.93248060000042,,,,,,,,0,1,1.9600667999993675,None,,,,,,,,31,22,V,R,2026-02-25_12h03.15.882,VisualSearch_2526_3,,2025.2.4,2026-02-25 12h03.16.109032 +0100,
vertical.xlsx,The target is tilted.,135,59,3,7,0,1,1,1,0,0,0,0,0,0,0,0,1,3,4,135,space,6.0065167000002475,None,0,1,1.0938793000004807,None,space,1.9306325000006836,None,0,0,0,1,,,,,7,3,59,6,254.10961120000047,,,,,,,,,,,,,,,,,,,,,254.09415630000058,254.10961120000047,254.5932584000002,254.59805440000036,254.6133150000005,255.7105091000003,,,,,255.7107106000003,255.7257356,255.9258662000002,255.9099044000004,254.6133150000005,,,,,,,,0,1,1.0938793000004807,None,,,,,,,,31,22,V,R,2026-02-25_12h03.15.882,VisualSearch_2526_3,,2025.2.4,2026-02-25 12h03.16.109032 +0100,
vertical.xlsx,The target is tilted.,135,60,4,7,1,0,0,0,0,0,0,0,0,0,0,0,0,0,1,135,space,6.0065167000002475,None,1,1,0.6982616999994207,None,space,1.9306325000006836,None,0,0,0,1,,,,,7,4,60,3,255.9258662000002,,,,,,,,,,,,,,,,,,,,,255.91063010000016,255.9258662000002,256.4099501999999,256.41517380000005,256.43206499999997,257.14309310000044,,,,,257.14328490000025,257.15881160000026,257.3592318000001,257.3431784000004,256.43206499999997,,,,,,,,1,1,0.6982616999994207,None,,,,,,,,31,22,V,R,2026-02-25_12h03.15.882,VisualSearch_2526_3,,2025.2.4,2026-02-25 12h03.16.109032 +0100,
vertical.xlsx,The target is tilted.,135,61,5,7,1,1,1,1,0,0,0,0,0,0,0,0,0,3,4,135,space,6.0065167000002475,None,1,1,0.8598308999999063,None,space,1.9306325000006836,None,0,0,0,1,,,,,7,5,61,2,257.3592318000001,,,,,,,,,,,,,,,,,,,,,257.34395459999996,257.3592318000001,257.8433108999998,257.8487507,257.86358720000044,258.7262612000004,,,,,258.72645980000016,258.7418899000004,258.94244979999985,258.92627300000004,257.86358720000044,,,,,,,,1,1,0.8598308999999063,None,,,,,,,,31,22,V,R,2026-02-25_12h03.15.882,VisualSearch_2526_3,,2025.2.4,2026-02-25 12h03.16.109032 +0100,
vertical.xlsx,The target is tilted.,135,62,6,7,1,1,1,1,1,1,1,1,1,1,1,1,0,11,12,135,space,6.0065167000002475,None,1,1,1.1190581000000748,None,space,1.9306325000006836,None,0,0,0,1,,,,,7,6,62,0,258.94244979999985,,,,,,,,,,,,,,,,,,,,,258.9270942000003,258.94244979999985,259.42624799999976,259.4315125000003,259.44773540000006,260.57627310000044,,,,,260.57643480000024,260.59157140000025,260.79212430000007,260.77588060000016,259.44773540000006,,,,,,,,1,1,1.1190581000000748,None,,,,,,,,31,22,V,R,2026-02-25_12h03.15.882,VisualSearch_2526_3,,2025.2.4,2026-02-25 12h03.16.109032 +0100,
vertical.xlsx,The target is tilted.,135,63,7,7,1,1,1,1,1,1,1,1,0,0,0,0,0,7,8,135,space,6.0065167000002475,None,1,1,0.8095280999996248,None,space,1.9306325000006836,None,0,0,0,1,,,,,7,7,63,1,260.79212430000007,,,,,,,,,,,,,,,,,,,,,260.776648,260.79212430000007,261.27547610000056,261.2769390000003,261.29185830000006,262.10916650000036,,,,,262.10935119999976,262.12475390000054,262.3251889000003,262.3090694000002,261.29185830000006,,,,,,,,1,1,0.8095280999996248,None,,,,,,,,31,22,V,R,2026-02-25_12h03.15.882,VisualSearch_2526_3,,2025.2.4,2026-02-25 12h03.16.109032 +0100,
vertical.xlsx,The target is tilted.,135,64,0,8,1,0,0,0,0,0,0,0,0,0,0,0,0,0,1,135,space,6.0065167000002475,None,1,1,0.8142409000001862,None,space,1.9306325000006836,None,0,0,0,1,,,,,8,0,64,3,262.3251889000003,,,,,,,,,,,,,,,,,,,,,262.30977619999976,262.3251889000003,262.80890530000033,262.81367560000035,262.82509149999987,263.6425579000006,,,,,263.64271650000046,263.65771829999994,263.85814670000036,263.84209460000056,262.82509149999987,,,,,,,,1,1,0.8142409000001862,None,,,,,,,,31,22,V,R,2026-02-25_12h03.15.882,VisualSearch_2526_3,,2025.2.4,2026-02-25 12h03.16.109032 +0100,
vertical.xlsx,The target is tilted.,135,65,1,8,0,1,1,1,1,1,1,1,0,0,0,0,1,7,8,135,space,6.0065167000002475,None,0,1,2.340872699999636,None,space,1.9306325000006836,None,0,0,0,1,,,,,8,1,65,5,263.85814670000036,,,,,,,,,,,,,,,,,,,,,263.84285940000063,263.85814670000036,264.34213,264.34708109999974,264.3632336999999,266.70821200000046,,,,,266.7083882000006,266.72387100000014,266.9238068000004,266.9076696000002,264.3632336999999,,,,,,,,0,1,2.340872699999636,None,,,,,,,,31,22,V,R,2026-02-25_12h03.15.882,VisualSearch_2526_3,,2025.2.4,2026-02-25 12h03.16.109032 +0100,
vertical.xlsx,The target is tilted.,135,66,2,8,1,1,1,1,0,0,0,0,0,0,0,0,0,3,4,135,space,6.0065167000002475,None,1,1,0.9384056999997483,None,space,1.9306325000006836,None,0,0,0,1,,,,,8,2,66,2,266.9238068000004,,,,,,,,,,,,,,,,,,,,,266.9082655000002,266.9238068000004,267.4083846000003,267.4133791000004,267.4272154999999,268.3753258000006,,,,,268.3755264000001,268.39028490000055,268.5907047999999,268.5745345000005,267.4272154999999,,,,,,,,1,1,0.9384056999997483,None,,,,,,,,31,22,V,R,2026-02-25_12h03.15.882,VisualSearch_2526_3,,2025.2.4,2026-02-25 12h03.16.109032 +0100,
vertical.xlsx,The target is tilted.,135,67,3,8,1,1,1,1,1,1,1,1,1,1,1,1,0,11,12,135,space,6.0065167000002475,None,1,1,2.6434158000001844,None,space,1.9306325000006836,None,0,0,0,1,,,,,8,3,67,0,268.5907047999999,,,,,,,,,,,,,,,,,,,,,268.5752128000004,268.5907047999999,269.07418400000006,269.07868659999986,269.0937711000006,271.7409348000001,,,,,271.74111450000055,271.75638640000034,271.9569607000003,271.94065150000006,269.0937711000006,,,,,,,,1,1,2.6434158000001844,None,,,,,,,,31,22,V,R,2026-02-25_12h03.15.882,VisualSearch_2526_3,,2025.2.4,2026-02-25 12h03.16.109032 +0100,
vertical.xlsx,The target is tilted.,135,68,4,8,0,0,0,0,0,0,0,0,0,0,0,0,1,1,1,135,space,6.0065167000002475,None,0,1,0.6251787000001059,None,space,1.9306325000006836,None,0,0,0,1,,,,,8,4,68,7,271.9569607000003,,,,,,,,,,,,,,,,,,,,,271.94140380000044,271.9569607000003,272.4405473000006,272.4451594000002,272.4610151000006,273.09109960000023,,,,,273.09129660000053,273.10618909999994,273.3063419,273.29039439999997,272.4610151000006,,,,,,,,0,1,0.6251787000001059,None,,,,,,,,31,22,V,R,2026-02-25_12h03.15.882,VisualSearch_2526_3,,2025.2.4,2026-02-25 12h03.16.109032 +0100,
vertical.xlsx,The target is tilted.,135,69,5,8,0,1,1,1,1,1,1,1,1,1,1,1,1,11,12,135,space,6.0065167000002475,None,0,1,3.253819900000053,None,space,1.9306325000006836,None,0,0,0,1,,,,,8,5,69,4,273.3063419,,,,,,,,,,,,,,,,,,,,,273.29112070000065,273.3063419,273.7906321999999,273.7954924000005,273.8110381000006,277.07359630000064,,,,,277.0737595999999,277.0888008000002,277.28882669999985,277.2726889000005,273.8110381000006,,,,,,,,0,1,3.253819900000053,None,,,,,,,,31,22,V,R,2026-02-25_12h03.15.882,VisualSearch_2526_3,,2025.2.4,2026-02-25 12h03.16.109032 +0100,
vertical.xlsx,The target is tilted.,135,70,6,8,0,1,1,1,0,0,0,0,0,0,0,0,1,3,4,135,space,6.0065167000002475,None,0,1,0.7218543999997564,None,space,1.9306325000006836,None,0,0,0,1,,,,,8,6,70,6,277.28882669999985,,,,,,,,,,,,,,,,,,,,,277.27326900000025,277.28882669999985,277.7728434999999,277.77756670000053,277.79460590000053,278.5233487000005,,,,,278.5235244000005,278.5385389000003,278.73916069999996,278.72293140000056,277.79460590000053,,,,,,,,0,1,0.7218543999997564,None,,,,,,,,31,22,V,R,2026-02-25_12h03.15.882,VisualSearch_2526_3,,2025.2.4,2026-02-25 12h03.16.109032 +0100,
vertical.xlsx,The target is tilted.,135,71,7,8,1,1,1,1,1,1,1,1,0,0,0,0,0,7,8,135,space,6.0065167000002475,None,1,1,0.9960837999997239,None,space,1.9306325000006836,None,0,0,0,1,,,,,8,7,71,1,278.73916069999996,,,,,,,,,,,,,,,,,,,,,278.7236761000004,278.73916069999996,279.22255010000026,279.22714559999986,279.24198720000004,280.2400475000004,,,,,280.24026030000005,280.25495020000017,280.45549610000035,280.4394164000005,279.24198720000004,,,,,,,,1,1,0.9960837999997239,None,,,,,,,,31,22,V,R,2026-02-25_12h03.15.882,VisualSearch_2526_3,,2025.2.4,2026-02-25 12h03.16.109032 +0100,
vertical.xlsx,The target is tilted.,135,72,0,9,1,1,1,1,1,1,1,1,1,1,1,1,0,11,12,135,space,6.0065167000002475,None,1,1,2.0198731999998927,None,space,1.9306325000006836,None,0,0,0,1,,,,,9,0,72,0,280.45549610000035,,,,,,,,,,,,,,,,,,,,,280.4401404,280.45549610000035,280.93953390000024,280.9446316000003,280.95984020000014,282.9889933000004,,,,,282.98911970000063,283.00451859999976,283.2051022000005,283.1889766000004,280.95984020000014,,,,,,,,1,1,2.0198731999998927,None,,,,,,,,31,22,V,R,2026-02-25_12h03.15.882,VisualSearch_2526_3,,2025.2.4,2026-02-25 12h03.16.109032 +0100,
vertical.xlsx,The target is tilted.,135,73,1,9,1,1,1,1,1,1,1,1,0,0,0,0,0,7,8,135,space,6.0065167000002475,None,1,1,3.5050123999999414,None,space,1.9306325000006836,None,0,0,0,1,,,,,9,1,73,1,283.2051022000005,,,,,,,,,,,,,,,,,,,,,283.18972080000003,283.2051022000005,283.68866010000056,283.69319240000004,283.70851070000026,287.2218020999999,,,,,287.22196350000013,287.2370775999998,287.43769489999977,287.42137020000064,283.70851070000026,,,,,,,,1,1,3.5050123999999414,None,,,,,,,,31,22,V,R,2026-02-25_12h03.15.882,VisualSearch_2526_3,,2025.2.4,2026-02-25 12h03.16.109032 +0100,
vertical.xlsx,The target is tilted.,135,74,2,9,0,0,0,0,0,0,0,0,0,0,0,0,1,1,1,135,space,6.0065167000002475,None,0,1,0.6948896000003515,None,space,1.9306325000006836,None,0,0,0,1,,,,,9,2,74,7,287.43769489999977,,,,,,,,,,,,,,,,,,,,,287.4220387000005,287.43769489999977,287.9213653000006,287.9259909000002,287.9421624000006,288.6383792000006,,,,,288.63858470000014,288.65356130000055,288.85415269999976,288.8380023999998,287.9421624000006,,,,,,,,0,1,0.6948896000003515,None,,,,,,,,31,22,V,R,2026-02-25_12h03.15.882,VisualSearch_2526_3,,2025.2.4,2026-02-25 12h03.16.109032 +0100,
vertical.xlsx,The target is tilted.,135,75,3,9,0,1,1,1,0,0,0,0,0,0,0,0,1,3,4,135,space,6.0065167000002475,None,0,1,1.3948398000002271,None,space,1.9306325000006836,None,0,0,0,1,,,,,9,3,75,6,288.85415269999976,,,,,,,,,,,,,,,,,,,,,288.83874520000063,288.85415269999976,289.33792410000024,289.34273250000024,289.3601067999998,290.77075740000055,,,,,290.7709163999998,290.78642350000064,290.98706570000013,290.97078090000014,289.3601067999998,,,,,,,,0,1,1.3948398000002271,None,,,,,,,,31,22,V,R,2026-02-25_12h03.15.882,VisualSearch_2526_3,,2025.2.4,2026-02-25 12h03.16.109032 +0100,
vertical.xlsx,The target is tilted.,135,76,4,9,0,1,1,1,1,1,1,1,0,0,0,0,1,7,8,135,space,6.0065167000002475,None,0,1,4.2756832999994,None,space,1.9306325000006836,None,0,0,0,1,,,,,9,4,76,5,290.98706570000013,,,,,,,,,,,,,,,,,,,,,290.9715020000003,290.98706570000013,291.47069269999974,291.4753722000005,291.49156589999984,295.7703719000001,,,,,295.7705192000003,295.78563889999987,295.9862426999998,295.9697345000004,291.49156589999984,,,,,,,,0,1,4.2756832999994,None,,,,,,,,31,22,V,R,2026-02-25_12h03.15.882,VisualSearch_2526_3,,2025.2.4,2026-02-25 12h03.16.109032 +0100,
vertical.xlsx,The target is tilted.,135,77,5,9,1,1,1,1,0,0,0,0,0,0,0,0,0,3,4,135,space,6.0065167000002475,None,1,1,0.6849017999993521,None,space,1.9306325000006836,None,0,0,0,1,,,,,9,5,77,2,295.9862426999998,,,,,,,,,,,,,,,,,,,,,295.9703977999998,295.9862426999998,296.46984599999996,296.47447809999994,296.49061249999977,297.1870552999999,,,,,297.1872256000006,297.2020978999999,297.40254110000024,297.38621090000015,296.49061249999977,,,,,,,,1,1,0.6849017999993521,None,,,,,,,,31,22,V,R,2026-02-25_12h03.15.882,VisualSearch_2526_3,,2025.2.4,2026-02-25 12h03.16.109032 +0100,
vertical.xlsx,The target is tilted.,135,78,6,9,1,0,0,0,0,0,0,0,0,0,0,0,0,0,1,135,space,6.0065167000002475,None,1,1,0.7634956999991118,None,space,1.9306325000006836,None,0,0,0,1,,,,,9,6,78,3,297.40254110000024,,,,,,,,,,,,,,,,,,,,,297.38680569999997,297.40254110000024,297.8866145000002,297.8913603000001,297.90825230000064,298.6861091999999,,,,,298.6862875000006,298.7017821999998,298.9024279000005,298.88630040000044,297.90825230000064,,,,,,,,1,1,0.7634956999991118,None,,,,,,,,31,22,V,R,2026-02-25_12h03.15.882,VisualSearch_2526_3,,2025.2.4,2026-02-25 12h03.16.109032 +0100,
vertical.xlsx,The target is tilted.,135,79,7,9,0,1,1,1,1,1,1,1,1,1,1,1,1,11,12,135,space,6.0065167000002475,None,0,1,5.260649400000148,None,space,1.9306325000006836,None,0,0,0,1,,,,,9,7,79,4,298.9024279000005,,,,,,,,,,,,,,,,,,,,,298.8870152999998,298.9024279000005,299.3863581000005,299.3911753000002,299.4082812000006,304.6850672999999,,,,,304.6852151000003,304.70086360000005,304.9012776999998,304.88509070000055,299.4082812000006,,,,,,,,0,1,5.260649400000148,None,,,,,,,,31,22,V,R,2026-02-25_12h03.15.882,VisualSearch_2526_3,,2025.2.4,2026-02-25 12h03.16.109032 +0100,
vertical.xlsx,The target is tilted.,135,80,0,10,1,0,0,0,0,0,0,0,0,0,0,0,0,0,1,135,space,6.0065167000002475,None,1,1,0.7054367999999158,None,space,1.9306325000006836,None,0,0,0,1,,,,,10,0,80,3,304.9012776999998,,,,,,,,,,,,,,,,,,,,,304.8858301999999,304.9012776999998,305.3852145000001,305.3896902000006,305.4059876000001,306.11844699999983,,,,,306.11855749999995,306.13388870000017,306.3341334000006,306.31821450000007,305.4059876000001,,,,,,,,1,1,0.7054367999999158,None,,,,,,,,31,22,V,R,2026-02-25_12h03.15.882,VisualSearch_2526_3,,2025.2.4,2026-02-25 12h03.16.109032 +0100,
vertical.xlsx,The target is tilted.,135,81,1,10,0,1,1,1,0,0,0,0,0,0,0,0,1,3,4,135,space,6.0065167000002475,None,0,1,1.2197218999999677,None,space,1.9306325000006836,None,0,0,0,1,,,,,10,1,81,6,306.3341334000006,,,,,,,,,,,,,,,,,,,,,306.3189376,306.3341334000006,306.81855220000034,306.8235758999999,306.84036920000017,308.06869220000044,,,,,308.0688828000002,308.083654,308.2840747,308.26748659999976,306.84036920000017,,,,,,,,0,1,1.2197218999999677,None,,,,,,,,31,22,V,R,2026-02-25_12h03.15.882,VisualSearch_2526_3,,2025.2.4,2026-02-25 12h03.16.109032 +0100,
vertical.xlsx,The target is tilted.,135,82,2,10,0,1,1,1,1,1,1,1,1,1,1,1,1,11,12,135,space,6.0065167000002475,None,0,1,3.5844773999997415,None,space,1.9306325000006836,None,0,0,0,1,,,,,10,2,82,4,308.2840747,,,,,,,,,,,,,,,,,,,,,308.2681223999998,308.2840747,308.76819890000024,308.77340360000017,308.7901965000001,312.3844734000004,,,,,312.38463580000007,312.39960580000024,312.5997702000004,312.58377759999985,308.7901965000001,,,,,,,,0,1,3.5844773999997415,None,,,,,,,,31,22,V,R,2026-02-25_12h03.15.882,VisualSearch_2526_3,,2025.2.4,2026-02-25 12h03.16.109032 +0100,
vertical.xlsx,The target is tilted.,135,83,3,10,0,0,0,0,0,0,0,0,0,0,0,0,1,1,1,135,space,6.0065167000002475,None,0,1,1.0247022000003199,None,space,1.9306325000006836,None,0,0,0,1,,,,,10,3,83,7,312.5997702000004,,,,,,,,,,,,,,,,,,,,,312.5845110999999,312.5997702000004,313.0840646000006,313.0886967000006,313.10541569999987,314.1338753,,,,,314.1340639,314.14943270000003,314.3495333000001,314.3332844000006,313.10541569999987,,,,,,,,0,1,1.0247022000003199,None,,,,,,,,31,22,V,R,2026-02-25_12h03.15.882,VisualSearch_2526_3,,2025.2.4,2026-02-25 12h03.16.109032 +0100,
vertical.xlsx,The target is tilted.,135,84,4,10,1,1,1,1,1,1,1,1,0,0,0,0,0,7,8,135,space,6.0065167000002475,None,1,1,1.1630515000006199,None,space,1.9306325000006836,None,0,0,0,1,,,,,10,4,84,1,314.3495333000001,,,,,,,,,,,,,,,,,,,,,314.3339536000003,314.3495333000001,314.83321369999976,314.83754540000064,314.84920200000033,316.0171297000006,,,,,316.0173046,316.03284750000057,316.2326871000005,316.2167685000004,314.84920200000033,,,,,,,,1,1,1.1630515000006199,None,,,,,,,,31,22,V,R,2026-02-25_12h03.15.882,VisualSearch_2526_3,,2025.2.4,2026-02-25 12h03.16.109032 +0100,
vertical.xlsx,The target is tilted.,135,85,5,10,1,1,1,1,0,0,0,0,0,0,0,0,0,3,4,135,space,6.0065167000002475,None,0,0,1.4615587999996933,None,space,1.9306325000006836,None,0,0,0,1,,,,,10,5,85,2,316.2326871000005,,,,,,,,,,,,,,,,,,,,,316.2174818000003,316.2326871000005,316.71685979999984,316.72192780000023,316.7386299,318.2165918999999,,,,,318.2167519000004,318.2324005999999,318.4325257999999,318.41647269999976,316.7386299,,,,,,,,0,0,1.4615587999996933,None,,,,,,,,31,22,V,R,2026-02-25_12h03.15.882,VisualSearch_2526_3,,2025.2.4,2026-02-25 12h03.16.109032 +0100,
vertical.xlsx,The target is tilted.,135,86,6,10,0,1,1,1,1,1,1,1,0,0,0,0,1,7,8,135,space,6.0065167000002475,None,0,1,3.1784692999999606,None,space,1.9306325000006836,None,0,0,0,1,,,,,10,6,86,5,318.4325257999999,,,,,,,,,,,,,,,,,,,,,318.4171918000002,318.4325257999999,318.9162909000006,318.9208091999999,318.93743300000006,322.132337,,,,,322.13253580000037,322.1483189999999,322.3486131999998,322.33228020000024,318.93743300000006,,,,,,,,0,1,3.1784692999999606,None,,,,,,,,31,22,V,R,2026-02-25_12h03.15.882,VisualSearch_2526_3,,2025.2.4,2026-02-25 12h03.16.109032 +0100,
vertical.xlsx,The target is tilted.,135,87,7,10,1,1,1,1,1,1,1,1,1,1,1,1,0,11,12,135,space,6.0065167000002475,None,0,0,4.656587700000273,None,space,1.9306325000006836,None,0,0,0,1,,,,,10,7,87,0,322.3486131999998,,,,,,,,,,,,,,,,,,,,,322.3330170999998,322.3486131999998,322.8314814000005,322.8348741,322.848532,327.51533130000007,,,,,327.51550469999984,327.53082950000044,327.73044389999995,327.71483910000006,322.848532,,,,,,,,0,0,4.656587700000273,None,,,,,,,,31,22,V,R,2026-02-25_12h03.15.882,VisualSearch_2526_3,,2025.2.4,2026-02-25 12h03.16.109032 +0100,
vertical.xlsx,The target is tilted.,135,88,0,11,1,1,1,1,1,1,1,1,0,0,0,0,0,7,8,135,space,6.0065167000002475,None,1,1,1.1576006999994206,None,space,1.9306325000006836,None,0,0,0,1,,,,,11,0,88,1,327.73044389999995,,,,,,,,,,,,,,,,,,,,,327.71561629999997,327.73044389999995,328.21461499999987,328.21924020000006,328.23401660000036,329.3982169000001,,,,,329.39839889999985,329.41390910000064,329.61401860000024,329.5977707000002,328.23401660000036,,,,,,,,1,1,1.1576006999994206,None,,,,,,,,31,22,V,R,2026-02-25_12h03.15.882,VisualSearch_2526_3,,2025.2.4,2026-02-25 12h03.16.109032 +0100,
vertical.xlsx,The target is tilted.,135,89,1,11,0,1,1,1,1,1,1,1,0,0,0,0,1,7,8,135,space,6.0065167000002475,None,0,1,1.7016565000003538,None,space,1.9306325000006836,None,0,0,0,1,,,,,11,1,89,5,329.61401860000024,,,,,,,,,,,,,,,,,,,,,329.5985357999998,329.61401860000024,330.0973328,330.1021361000003,330.11779750000005,331.8310677999998,,,,,331.83123740000065,331.8467894000005,332.0469281000005,332.0305835999998,330.11779750000005,,,,,,,,0,1,1.7016565000003538,None,,,,,,,,31,22,V,R,2026-02-25_12h03.15.882,VisualSearch_2526_3,,2025.2.4,2026-02-25 12h03.16.109032 +0100,
vertical.xlsx,The target is tilted.,135,90,2,11,0,1,1,1,1,1,1,1,1,1,1,1,1,11,12,135,space,6.0065167000002475,None,0,1,3.280888600000253,None,space,1.9306325000006836,None,0,0,0,1,,,,,11,2,90,4,332.0469281000005,,,,,,,,,,,,,,,,,,,,,332.0313261000001,332.0469281000005,332.53047419999984,332.5350511000006,332.55280630000016,335.84704020000027,,,,,335.84719790000054,335.86279250000007,336.0627460000005,336.04625810000016,332.55280630000016,,,,,,,,0,1,3.280888600000253,None,,,,,,,,31,22,V,R,2026-02-25_12h03.15.882,VisualSearch_2526_3,,2025.2.4,2026-02-25 12h03.16.109032 +0100,
vertical.xlsx,The target is tilted.,135,91,3,11,1,1,1,1,0,0,0,0,0,0,0,0,0,3,4,135,space,6.0065167000002475,None,1,1,0.7474496000004365,None,space,1.9306325000006836,None,0,0,0,1,,,,,11,3,91,2,336.0627460000005,,,,,,,,,,,,,,,,,,,,,336.0469199999998,336.0627460000005,336.5466350000006,336.55141749999984,336.56741560000046,337.3300927999999,,,,,337.33026560000053,337.3459319000003,337.5460315999999,337.5296631000001,336.56741560000046,,,,,,,,1,1,0.7474496000004365,None,,,,,,,,31,22,V,R,2026-02-25_12h03.15.882,VisualSearch_2526_3,,2025.2.4,2026-02-25 12h03.16.109032 +0100,
vertical.xlsx,The target is tilted.,135,92,4,11,0,1,1,1,0,0,0,0,0,0,0,0,1,3,4,135,space,6.0065167000002475,None,0,1,0.6261445999998614,None,space,1.9306325000006836,None,0,0,0,1,,,,,11,4,92,6,337.5460315999999,,,,,,,,,,,,,,,,,,,,,337.53039330000047,337.5460315999999,338.02963379999983,338.03422649999993,338.05079209999985,338.6802598000004,,,,,338.68043279999983,338.6958181,338.8958237000006,338.8797136000003,338.05079209999985,,,,,,,,0,1,0.6261445999998614,None,,,,,,,,31,22,V,R,2026-02-25_12h03.15.882,VisualSearch_2526_3,,2025.2.4,2026-02-25 12h03.16.109032 +0100,
vertical.xlsx,The target is tilted.,135,93,5,11,1,0,0,0,0,0,0,0,0,0,0,0,0,0,1,135,space,6.0065167000002475,None,1,1,0.5280032999999094,None,space,1.9306325000006836,None,0,0,0,1,,,,,11,5,93,3,338.8958237000006,,,,,,,,,,,,,,,,,,,,,338.88050269999985,338.8958237000006,339.37946550000015,339.3835045000005,339.3995341,339.92950400000063,,,,,339.92963280000004,339.9454172000005,340.14556249999987,340.1292508000006,339.3995341,,,,,,,,1,1,0.5280032999999094,None,,,,,,,,31,22,V,R,2026-02-25_12h03.15.882,VisualSearch_2526_3,,2025.2.4,2026-02-25 12h03.16.109032 +0100,
vertical.xlsx,The target is tilted.,135,94,6,11,1,1,1,1,1,1,1,1,1,1,1,1,0,11,12,135,space,6.0065167000002475,None,1,1,2.746085800000401,None,space,1.9306325000006836,None,0,0,0,1,,,,,11,6,94,0,340.14556249999987,,,,,,,,,,,,,,,,,,,,,340.130083,340.14556249999987,340.62955450000027,340.63478190000023,340.6515747000003,343.4125611999998,,,,,343.41273900000033,343.42819469999995,343.6278818999999,343.61210870000014,340.6515747000003,,,,,,,,1,1,2.746085800000401,None,,,,,,,,31,22,V,R,2026-02-25_12h03.15.882,VisualSearch_2526_3,,2025.2.4,2026-02-25 12h03.16.109032 +0100,
vertical.xlsx,The target is tilted.,135,95,7,11,0,0,0,0,0,0,0,0,0,0,0,0,1,1,1,135,space,6.0065167000002475,None,0,1,0.667743199999677,None,space,1.9306325000006836,None,0,0,0,1,,,,,11,7,95,7,343.6278818999999,,,,,,,,,,,,,,,,,,,,,343.6128657999998,343.6278818999999,344.1120365000006,344.11657079999986,344.1328088999999,344.81205110000064,,,,,344.81223110000064,344.8276009000001,345.02813550000064,345.01183279999987,344.1328088999999,,,,,,,,0,1,0.667743199999677,None,,,,,,,,31,22,V,R,2026-02-25_12h03.15.882,VisualSearch_2526_3,,2025.2.4,2026-02-25 12h03.16.109032 +0100,
vertical.xlsx,The target is tilted.,135,96,0,12,0,1,1,1,1,1,1,1,0,0,0,0,1,7,8,135,space,6.0065167000002475,None,0,1,3.562695100000383,None,space,1.9306325000006836,None,0,0,0,1,,,,,12,0,96,5,345.02813550000064,,,,,,,,,,,,,,,,,,,,,345.0126030000001,345.02813550000064,345.5114702000001,345.51597290000063,345.53205510000043,349.11165299999993,,,,,349.11182850000023,349.12722510000003,349.3267229000003,349.3101148000005,345.53205510000043,,,,,,,,0,1,3.562695100000383,None,,,,,,,,31,22,V,R,2026-02-25_12h03.15.882,VisualSearch_2526_3,,2025.2.4,2026-02-25 12h03.16.109032 +0100,
vertical.xlsx,The target is tilted.,135,97,1,12,1,1,1,1,1,1,1,1,0,0,0,0,0,7,8,135,space,6.0065167000002475,None,0,0,5.146015899999838,None,space,1.9306325000006836,None,0,0,0,1,,,,,12,1,97,1,349.3267229000003,,,,,,,,,,,,,,,,,,,,,349.3105009000001,349.3267229000003,349.81091950000064,349.81502569999975,349.82924150000053,354.9773644000006,,,,,354.9775497999999,354.9930148000003,355.19258720000016,355.1766277000006,349.82924150000053,,,,,,,,0,0,5.146015899999838,None,,,,,,,,31,22,V,R,2026-02-25_12h03.15.882,VisualSearch_2526_3,,2025.2.4,2026-02-25 12h03.16.109032 +0100,
vertical.xlsx,The target is tilted.,135,98,2,12,1,1,1,1,0,0,0,0,0,0,0,0,0,3,4,135,space,6.0065167000002475,None,0,0,0.9215378999997483,None,space,1.9306325000006836,None,0,0,0,1,,,,,12,2,98,2,355.19258720000016,,,,,,,,,,,,,,,,,,,,,355.17739530000017,355.19258720000016,355.67686779999985,355.68148269999983,355.6986813000003,356.6270159000005,,,,,356.6271899000003,356.6426483000005,356.8422571000001,356.82608450000043,355.6986813000003,,,,,,,,0,0,0.9215378999997483,None,,,,,,,,31,22,V,R,2026-02-25_12h03.15.882,VisualSearch_2526_3,,2025.2.4,2026-02-25 12h03.16.109032 +0100,
vertical.xlsx,The target is tilted.,135,99,3,12,1,0,0,0,0,0,0,0,0,0,0,0,0,0,1,135,space,6.0065167000002475,None,1,1,0.6963882999998532,None,space,1.9306325000006836,None,0,0,0,1,,,,,12,3,99,3,356.8422571000001,,,,,,,,,,,,,,,,,,,,,356.82669799999985,356.8422571000001,357.32655520000026,357.33107350000046,357.3469009999999,358.05948869999975,,,,,358.05955919999997,358.0756405000002,358.27589609999995,358.2598071000002,357.3469009999999,,,,,,,,1,1,0.6963882999998532,None,,,,,,,,31,22,V,R,2026-02-25_12h03.15.882,VisualSearch_2526_3,,2025.2.4,2026-02-25 12h03.16.109032 +0100,
vertical.xlsx,The target is tilted.,135,100,4,12,0,0,0,0,0,0,0,0,0,0,0,0,1,1,1,135,space,6.0065167000002475,None,0,1,0.7256581000001461,None,space,1.9306325000006836,None,0,0,0,1,,,,,12,4,100,7,358.27589609999995,,,,,,,,,,,,,,,,,,,,,358.26052249999975,358.27589609999995,358.7596543999998,358.76415030000044,358.77855230000023,359.5098564,,,,,359.51001350000024,359.52554450000025,359.7256146999998,359.7093954000002,358.77855230000023,,,,,,,,0,1,0.7256581000001461,None,,,,,,,,31,22,V,R,2026-02-25_12h03.15.882,VisualSearch_2526_3,,2025.2.4,2026-02-25 12h03.16.109032 +0100,
vertical.xlsx,The target is tilted.,135,101,5,12,1,1,1,1,1,1,1,1,1,1,1,1,0,11,12,135,space,6.0065167000002475,None,1,1,1.1877956999996968,None,space,1.9306325000006836,None,0,0,0,1,,,,,12,5,101,0,359.7256146999998,,,,,,,,,,,,,,,,,,,,,359.7100883000003,359.7256146999998,360.2093375000004,360.21384260000013,360.2291107000001,361.42626389999987,,,,,361.4264387000003,361.4418329,361.64193590000014,361.6258678000004,360.2291107000001,,,,,,,,1,1,1.1877956999996968,None,,,,,,,,31,22,V,R,2026-02-25_12h03.15.882,VisualSearch_2526_3,,2025.2.4,2026-02-25 12h03.16.109032 +0100,
vertical.xlsx,The target is tilted.,135,102,6,12,0,1,1,1,0,0,0,0,0,0,0,0,1,3,4,135,space,6.0065167000002475,None,0,1,2.225573699999586,None,space,1.9306325000006836,None,0,0,0,1,,,,,12,6,102,6,361.64193590000014,,,,,,,,,,,,,,,,,,,,,361.62658999999985,361.64193590000014,362.1255049000001,362.1300265,362.1417351,364.37552570000025,,,,,364.3757053999998,364.3913443000001,364.59088820000034,364.5744130000003,362.1417351,,,,,,,,0,1,2.225573699999586,None,,,,,,,,31,22,V,R,2026-02-25_12h03.15.882,VisualSearch_2526_3,,2025.2.4,2026-02-25 12h03.16.109032 +0100,
vertical.xlsx,The target is tilted.,135,103,7,12,0,1,1,1,1,1,1,1,1,1,1,1,1,11,12,135,space,6.0065167000002475,None,0,1,3.2906570999994074,None,space,1.9306325000006836,None,0,0,0,1,,,,,12,7,103,4,364.59088820000034,,,,,,,,,,,,,,,,,,,,,364.57486830000016,364.59088820000034,365.07457479999994,365.0775001000002,365.09111610000036,368.39141199999995,,,,,368.3915695000005,368.40726300000006,368.60734070000035,368.59117779999997,365.09111610000036,,,,,,,,0,1,3.2906570999994074,None,,,,,,,,31,22,V,R,2026-02-25_12h03.15.882,VisualSearch_2526_3,,2025.2.4,2026-02-25 12h03.16.109032 +0100,
vertical.xlsx,The target is tilted.,135,104,0,13,0,1,1,1,1,1,1,1,0,0,0,0,1,7,8,135,space,6.0065167000002475,None,0,1,2.9801008000004003,None,space,1.9306325000006836,None,0,0,0,1,,,,,13,0,104,5,368.60734070000035,,,,,,,,,,,,,,,,,,,,,368.5919192000001,368.60734070000035,369.0911028999999,369.09562370000003,369.11151210000025,372.10754670000006,,,,,372.1077430000005,372.1231036999998,372.3234502000005,372.30726420000065,369.11151210000025,,,,,,,,0,1,2.9801008000004003,None,,,,,,,,31,22,V,R,2026-02-25_12h03.15.882,VisualSearch_2526_3,,2025.2.4,2026-02-25 12h03.16.109032 +0100,
vertical.xlsx,The target is tilted.,135,105,1,13,0,1,1,1,0,0,0,0,0,0,0,0,1,3,4,135,space,6.0065167000002475,None,0,1,0.8872347999995327,None,space,1.9306325000006836,None,0,0,0,1,,,,,13,1,105,6,372.3234502000005,,,,,,,,,,,,,,,,,,,,,372.3079505000005,372.3234502000005,372.80731340000057,372.8118878000005,372.8272998000002,373.7242500000002,,,,,373.724424,373.7397968000005,373.9398197999999,373.9235015000004,372.8272998000002,,,,,,,,0,1,0.8872347999995327,None,,,,,,,,31,22,V,R,2026-02-25_12h03.15.882,VisualSearch_2526_3,,2025.2.4,2026-02-25 12h03.16.109032 +0100,
vertical.xlsx,The target is tilted.,135,106,2,13,0,0,0,0,0,0,0,0,0,0,0,0,1,1,1,135,space,6.0065167000002475,None,0,1,0.6144949999998062,None,space,1.9306325000006836,None,0,0,0,1,,,,,13,2,106,7,373.9398197999999,,,,,,,,,,,,,,,,,,,,,373.92414389999976,373.9398197999999,374.42362219999995,374.4281853000002,374.4454089999999,375.07386510000015,,,,,375.0739988000005,375.08941830000003,375.2892609999999,375.2736566000003,374.4454089999999,,,,,,,,0,1,0.6144949999998062,None,,,,,,,,31,22,V,R,2026-02-25_12h03.15.882,VisualSearch_2526_3,,2025.2.4,2026-02-25 12h03.16.109032 +0100,
vertical.xlsx,The target is tilted.,135,107,3,13,1,1,1,1,1,1,1,1,1,1,1,1,0,11,12,135,space,6.0065167000002475,None,1,1,2.2091009000005215,None,space,1.9306325000006836,None,0,0,0,1,,,,,13,3,107,0,375.2892609999999,,,,,,,,,,,,,,,,,,,,,375.27447219999976,375.2892609999999,375.77359739999974,375.7789835000003,375.79445940000005,378.00685130000056,,,,,378.0070132999999,378.02239139999983,378.2223690999999,378.2059697000004,375.79445940000005,,,,,,,,1,1,2.2091009000005215,None,,,,,,,,31,22,V,R,2026-02-25_12h03.15.882,VisualSearch_2526_3,,2025.2.4,2026-02-25 12h03.16.109032 +0100,
vertical.xlsx,The target is tilted.,135,108,4,13,1,1,1,1,1,1,1,1,0,0,0,0,0,7,8,135,space,6.0065167000002475,None,1,1,0.8326885999995284,None,space,1.9306325000006836,None,0,0,0,1,,,,,13,4,108,1,378.2223690999999,,,,,,,,,,,,,,,,,,,,,378.2066461000004,378.2223690999999,378.7062778999998,378.71062580000034,378.7265146999998,379.57342119999976,,,,,379.57363200000054,379.58884769999986,379.7880303000002,379.7725977,378.7265146999998,,,,,,,,1,1,0.8326885999995284,None,,,,,,,,31,22,V,R,2026-02-25_12h03.15.882,VisualSearch_2526_3,,2025.2.4,2026-02-25 12h03.16.109032 +0100,
vertical.xlsx,The target is tilted.,135,109,5,13,0,1,1,1,1,1,1,1,1,1,1,1,1,11,12,135,space,6.0065167000002475,None,0,1,3.2129218000000037,None,space,1.9306325000006836,None,0,0,0,1,,,,,13,5,109,4,379.7880303000002,,,,,,,,,,,,,,,,,,,,,379.7732855000004,379.7880303000002,380.27198080000016,380.27476860000024,380.28813919999993,383.5055250000005,,,,,383.5056886000002,383.52113720000034,383.7215584000005,383.7055611000005,380.28813919999993,,,,,,,,0,1,3.2129218000000037,None,,,,,,,,31,22,V,R,2026-02-25_12h03.15.882,VisualSearch_2526_3,,2025.2.4,2026-02-25 12h03.16.109032 +0100,
vertical.xlsx,The target is tilted.,135,110,6,13,1,1,1,1,0,0,0,0,0,0,0,0,0,3,4,135,space,6.0065167000002475,None,0,0,0.8643308000000616,None,space,1.9306325000006836,None,0,0,0,1,,,,,13,6,110,2,383.7215584000005,,,,,,,,,,,,,,,,,,,,,383.70622660000026,383.7215584000005,384.20538829999987,384.20996509999986,384.2269041999998,385.1056073,,,,,385.10576839999976,385.12100499999997,385.3212398000005,385.3052537000003,384.2269041999998,,,,,,,,0,0,0.8643308000000616,None,,,,,,,,31,22,V,R,2026-02-25_12h03.15.882,VisualSearch_2526_3,,2025.2.4,2026-02-25 12h03.16.109032 +0100,
vertical.xlsx,The target is tilted.,135,111,7,13,1,0,0,0,0,0,0,0,0,0,0,0,0,0,1,135,space,6.0065167000002475,None,1,1,0.5091890000003332,None,space,1.9306325000006836,None,0,0,0,1,,,,,13,7,111,3,385.3212398000005,,,,,,,,,,,,,,,,,,,,,385.3059844999998,385.3212398000005,385.8051612999998,385.8096708000003,385.82615220000025,386.3387504000002,,,,,386.3389594,386.3542918000003,386.5544786999999,386.53812890000063,385.82615220000025,,,,,,,,1,1,0.5091890000003332,None,,,,,,,,31,22,V,R,2026-02-25_12h03.15.882,VisualSearch_2526_3,,2025.2.4,2026-02-25 12h03.16.109032 +0100,
vertical.xlsx,The target is tilted.,135,112,0,14,1,1,1,1,1,1,1,1,0,0,0,0,0,7,8,135,space,6.0065167000002475,None,1,1,0.8051469000001816,None,space,1.9306325000006836,None,0,0,0,1,,,,,14,0,112,1,386.5544786999999,,,,,,,,,,,,,,,,,,,,,386.5389387000005,386.5544786999999,387.0384818000002,387.0437146000004,387.06147299999975,387.8712346000002,,,,,387.8713770000004,387.8871149000006,388.0875794000003,388.07127780000064,387.06147299999975,,,,,,,,1,1,0.8051469000001816,None,,,,,,,,31,22,V,R,2026-02-25_12h03.15.882,VisualSearch_2526_3,,2025.2.4,2026-02-25 12h03.16.109032 +0100,
vertical.xlsx,The target is tilted.,135,113,1,14,1,1,1,1,1,1,1,1,1,1,1,1,0,11,12,135,space,6.0065167000002475,None,1,1,0.9863810999995621,None,space,1.9306325000006836,None,0,0,0,1,,,,,14,1,113,0,388.0875794000003,,,,,,,,,,,,,,,,,,,,,388.0720054000003,388.0875794000003,388.57142620000013,388.5765652,388.59255699999994,389.5882601000003,,,,,389.5884347000001,389.6039580000006,389.80385079999996,389.7876403999999,388.59255699999994,,,,,,,,1,1,0.9863810999995621,None,,,,,,,,31,22,V,R,2026-02-25_12h03.15.882,VisualSearch_2526_3,,2025.2.4,2026-02-25 12h03.16.109032 +0100,
vertical.xlsx,The target is tilted.,135,114,2,14,1,1,1,1,0,0,0,0,0,0,0,0,0,3,4,135,space,6.0065167000002475,None,1,1,0.5952120000001742,None,space,1.9306325000006836,None,0,0,0,1,,,,,14,2,114,2,389.80385079999996,,,,,,,,,,,,,,,,,,,,,389.78837459999977,389.80385079999996,390.2872474000005,390.2917900000002,390.3079864000001,390.90470749999986,,,,,390.9048926000005,390.92006370000036,391.12021939999977,391.1042189,390.3079864000001,,,,,,,,1,1,0.5952120000001742,None,,,,,,,,31,22,V,R,2026-02-25_12h03.15.882,VisualSearch_2526_3,,2025.2.4,2026-02-25 12h03.16.109032 +0100,
vertical.xlsx,The target is tilted.,135,115,3,14,0,0,0,0,0,0,0,0,0,0,0,0,1,1,1,135,space,6.0065167000002475,None,0,1,0.7746762999995553,None,space,1.9306325000006836,None,0,0,0,1,,,,,14,3,115,7,391.12021939999977,,,,,,,,,,,,,,,,,,,,,391.104926,391.12021939999977,391.60429209999984,391.60940240000036,391.62703090000014,392.4040732000003,,,,,392.40424600000006,392.41992910000045,392.61999749999995,392.6039738999998,391.62703090000014,,,,,,,,0,1,0.7746762999995553,None,,,,,,,,31,22,V,R,2026-02-25_12h03.15.882,VisualSearch_2526_3,,2025.2.4,2026-02-25 12h03.16.109032 +0100,
vertical.xlsx,The target is tilted.,135,116,4,14,1,0,0,0,0,0,0,0,0,0,0,0,0,0,1,135,space,6.0065167000002475,None,1,1,0.5011131999999634,None,space,1.9306325000006836,None,0,0,0,1,,,,,14,4,116,3,392.61999749999995,,,,,,,,,,,,,,,,,,,,,392.6047638,392.61999749999995,393.10406890000013,393.1093053000004,393.1242620000003,393.6377768000002,,,,,393.6380067,393.65311910000037,393.85295790000055,393.83698559999993,393.1242620000003,,,,,,,,1,1,0.5011131999999634,None,,,,,,,,31,22,V,R,2026-02-25_12h03.15.882,VisualSearch_2526_3,,2025.2.4,2026-02-25 12h03.16.109032 +0100,
vertical.xlsx,The target is tilted.,135,117,5,14,0,1,1,1,1,1,1,1,0,0,0,0,1,7,8,135,space,6.0065167000002475,None,0,1,2.246997000000192,None,space,1.9306325000006836,None,0,0,0,1,,,,,14,5,117,5,393.85295790000055,,,,,,,,,,,,,,,,,,,,,393.83772839999983,393.85295790000055,394.33727439999984,394.3423577000003,394.3592318000001,396.6202850999998,,,,,396.6204598000004,396.6358691000005,396.83601460000045,396.819837,394.3592318000001,,,,,,,,0,1,2.246997000000192,None,,,,,,,,31,22,V,R,2026-02-25_12h03.15.882,VisualSearch_2526_3,,2025.2.4,2026-02-25 12h03.16.109032 +0100,
vertical.xlsx,The target is tilted.,135,118,6,14,0,1,1,1,0,0,0,0,0,0,0,0,1,3,4,135,space,6.0065167000002475,None,0,1,1.4998986000000514,None,space,1.9306325000006836,None,0,0,0,1,,,,,14,6,118,6,396.83601460000045,,,,,,,,,,,,,,,,,,,,,396.82058920000054,396.83601460000045,397.3199850000001,397.3245119000003,397.34105069999987,398.85341770000014,,,,,398.8535923999998,398.8689374000005,399.0690497000005,399.0528509000005,397.34105069999987,,,,,,,,0,1,1.4998986000000514,None,,,,,,,,31,22,V,R,2026-02-25_12h03.15.882,VisualSearch_2526_3,,2025.2.4,2026-02-25 12h03.16.109032 +0100,
vertical.xlsx,The target is tilted.,135,119,7,14,0,1,1,1,1,1,1,1,1,1,1,1,1,11,12,135,space,6.0065167000002475,None,0,1,4.3436093000000255,None,space,1.9306325000006836,None,0,0,0,1,,,,,14,7,119,4,399.0690497000005,,,,,,,,,,,,,,,,,,,,,399.05361749999975,399.0690497000005,399.55292310000004,399.5574228000005,399.5741794000005,403.91919899999994,,,,,403.9193757000003,403.93441489999987,404.1496967000003,404.1188043000002,399.5741794000005,,,,,,,,0,1,4.3436093000000255,None,,,,,,,,31,22,V,R,2026-02-25_12h03.15.882,VisualSearch_2526_3,,2025.2.4,2026-02-25 12h03.16.109032 +0100,
vertical.xlsx,The target is tilted.,135,0,0,0,,,,,,,,,,,,,,,,,space,6.0065167000002475,None,,,,,space,1.9306325000006836,None,0,0,0,1,,,,,,,,,,,,,,,,,,,,,,,,,,,,,,,,,,,,,,,,,,,,,,,,,,,,,,,,,,,,,,,31,22,V,R,2026-02-25_12h03.15.882,VisualSearch_2526_3,,2025.2.4,2026-02-25 12h03.16.109032 +0100,
tilted.xlsx,The target is tilted.,117,0,0,0,0,1,1,1,1,1,1,1,0,0,0,0,1,7,8,117,space,9.926634499999636,None,1,0,8.027789599999778,None,,,,0,1,1,0,0,0,0,5,,,,,414.1013426999998,,,,,,,,,,,,,,,404.1496967000003,404.1496967000003,404.1496967000003,space,9.926634499999636,None,414.09759060000033,414.1013426999998,414.59992169999987,414.6046501000001,414.62133150000045,422.66573960000005,1,0,8.027789599999778,None,422.6659223000006,422.68161409999993,422.88162310000007,422.8654774000006,,,,,,,,,,,,,,,,,,,,31,22,V,R,2026-02-25_12h03.15.882,VisualSearch_2526_3,,2025.2.4,2026-02-25 12h03.16.109032 +0100,
tilted.xlsx,The target is tilted.,117,1,1,0,1,0,0,0,0,0,0,0,0,0,0,0,0,0,1,117,space,9.926634499999636,None,1,1,0.6629800000000614,None,,,,0,1,1,0,0,1,1,3,,,,,422.88162310000007,,,,,,,,,,,,,,,,,,,,,422.866094,422.88162310000007,423.36550830000033,423.37001469999996,423.38452529999995,424.0492008000001,1,1,0.6629800000000614,None,424.0493680999998,424.0648121000004,424.2648409000003,424.2487013,423.38452529999995,,,,,,,,,,,,,,,,,,,31,22,V,R,2026-02-25_12h03.15.882,VisualSearch_2526_3,,2025.2.4,2026-02-25 12h03.16.109032 +0100,
tilted.xlsx,The target is tilted.,117,2,2,0,0,0,0,0,0,0,0,0,0,0,0,0,1,1,1,117,space,9.926634499999636,None,0,1,0.9788447000000815,None,,,,0,1,1,0,0,2,2,7,,,,,424.2648409000003,,,,,,,,,,,,,,,,,,,,,424.24936460000026,424.2648409000003,424.74875520000023,424.7532256000004,424.76986829999987,425.76558699999987,0,1,0.9788447000000815,None,425.7657601000001,425.78079739999976,425.98079229999985,425.9651106000001,424.76986829999987,,,,,,,,,,,,,,,,,,,31,22,V,R,2026-02-25_12h03.15.882,VisualSearch_2526_3,,2025.2.4,2026-02-25 12h03.16.109032 +0100,
tilted.xlsx,The target is tilted.,117,3,3,0,1,1,1,1,1,1,1,1,0,0,0,0,0,7,8,117,space,9.926634499999636,None,1,1,2.181118399999832,None,,,,0,1,1,0,0,3,3,1,,,,,425.98079229999985,,,,,,,,,,,,,,,,,,,,,425.9658378000004,425.98079229999985,426.4650922999999,426.47020280000015,426.48792289999983,428.68166610000026,1,1,2.181118399999832,None,428.68183839999983,428.6972708000003,428.8974437000006,428.8811271000004,426.48792289999983,,,,,,,,,,,,,,,,,,,31,22,V,R,2026-02-25_12h03.15.882,VisualSearch_2526_3,,2025.2.4,2026-02-25 12h03.16.109032 +0100,
tilted.xlsx,The target is tilted.,117,4,4,0,1,1,1,1,0,0,0,0,0,0,0,0,0,3,4,117,space,9.926634499999636,None,1,1,1.35265470000013,None,,,,0,1,1,0,0,4,4,2,,,,,428.8974437000006,,,,,,,,,,,,,,,,,,,,,428.8818277999999,428.8974437000006,429.38107880000007,429.3858465000003,429.4015016000003,430.7648022000003,1,1,1.35265470000013,None,430.7650054000005,430.7802648000006,430.98024499999974,430.9641228999999,429.4015016000003,,,,,,,,,,,,,,,,,,,31,22,V,R,2026-02-25_12h03.15.882,VisualSearch_2526_3,,2025.2.4,2026-02-25 12h03.16.109032 +0100,
tilted.xlsx,The target is tilted.,117,5,5,0,0,1,1,1,0,0,0,0,0,0,0,0,1,3,4,117,space,9.926634499999636,None,0,1,1.240990299999794,None,,,,0,1,1,0,0,5,5,6,,,,,430.98024499999974,,,,,,,,,,,,,,,,,,,,,430.9647703999999,430.98024499999974,431.4637736000004,431.46862990000045,431.48672910000005,432.73118669999985,0,1,1.240990299999794,None,432.73137120000047,432.7466750000003,432.94679410000026,432.9304679000006,431.48672910000005,,,,,,,,,,,,,,,,,,,31,22,V,R,2026-02-25_12h03.15.882,VisualSearch_2526_3,,2025.2.4,2026-02-25 12h03.16.109032 +0100,
tilted.xlsx,The target is tilted.,117,6,6,0,1,1,1,1,1,1,1,1,1,1,1,1,0,11,12,117,space,9.926634499999636,None,1,1,1.3488058000002638,None,,,,0,1,1,0,0,6,6,0,,,,,432.94679410000026,,,,,,,,,,,,,,,,,,,,,432.9312852000003,432.94679410000026,433.4303802000004,433.4350523000003,433.4516776999999,434.81317020000006,1,1,1.3488058000002638,None,434.8132894999999,434.8292153000002,435.0293443999999,435.01363050000054,433.4516776999999,,,,,,,,,,,,,,,,,,,31,22,V,R,2026-02-25_12h03.15.882,VisualSearch_2526_3,,2025.2.4,2026-02-25 12h03.16.109032 +0100,
tilted.xlsx,The target is tilted.,117,7,7,0,0,1,1,1,1,1,1,1,1,1,1,1,1,11,12,117,space,9.926634499999636,None,1,0,0.7402084000004834,None,,,,0,1,1,0,0,7,7,4,,,,,435.0293443999999,,,,,,,,,,,,,,,,,,,,,435.01429180000014,435.0293443999999,435.51308659999995,435.5176104000002,435.53237830000035,436.28012089999993,1,0,0.7402084000004834,None,436.2802870000005,436.29600819999996,436.49609280000004,436.4794645000002,435.53237830000035,,,,,,,,,,,,,,,,,,,31,22,V,R,2026-02-25_12h03.15.882,VisualSearch_2526_3,,2025.2.4,2026-02-25 12h03.16.109032 +0100,
tilted.xlsx,The target is tilted.,117,0,0,0,0,1,1,1,1,1,1,1,0,0,0,0,1,7,8,117,space,9.926634499999636,None,0,1,5.967569000000367,None,space,4.471985299999687,None,0,1,1,0,,,,,0,0,0,5,441.0147385999999,,,,,,,,,,,,,,,,,,,,,441.01024810000035,441.0147385999999,441.49568420000014,441.50089430000025,441.51865910000015,447.49465280000004,,,,,447.4947200000006,447.5108024000001,447.7107590000005,447.6942469000005,,436.4853099000002,436.49609280000004,436.49609280000004,440.9798230000006,space,4.471985299999687,None,0,1,5.967569000000367,None,,,,,,,,31,22,V,R,2026-02-25_12h03.15.882,VisualSearch_2526_3,,2025.2.4,2026-02-25 12h03.16.109032 +0100,
tilted.xlsx,The target is tilted.,117,1,1,0,0,0,0,0,0,0,0,0,0,0,0,0,1,1,1,117,space,9.926634499999636,None,0,1,0.598686600000292,None,space,4.471985299999687,None,0,1,1,0,,,,,0,1,1,7,447.7107590000005,,,,,,,,,,,,,,,,,,,,,447.69489690000046,447.7107590000005,448.19470770000044,448.19940769999994,448.2171970999998,448.8283317000005,,,,,448.82850529999996,448.8435811999998,449.04373829999986,449.0274988000001,448.2171970999998,,,,,,,,0,1,0.598686600000292,None,,,,,,,,31,22,V,R,2026-02-25_12h03.15.882,VisualSearch_2526_3,,2025.2.4,2026-02-25 12h03.16.109032 +0100,
tilted.xlsx,The target is tilted.,117,2,2,0,0,1,1,1,0,0,0,0,0,0,0,0,1,3,4,117,space,9.926634499999636,None,1,0,0.867492599999423,None,space,4.471985299999687,None,0,1,1,0,,,,,0,2,2,6,449.04373829999986,,,,,,,,,,,,,,,,,,,,,449.02823890000036,449.04373829999986,449.5273160000006,449.53044709999995,449.5438238000006,450.42812289999983,,,,,450.4283002000002,450.44362700000056,450.6433482000002,450.6271735999999,449.5438238000006,,,,,,,,1,0,0.867492599999423,None,,,,,,,,31,22,V,R,2026-02-25_12h03.15.882,VisualSearch_2526_3,,2025.2.4,2026-02-25 12h03.16.109032 +0100,
tilted.xlsx,The target is tilted.,117,3,3,0,1,1,1,1,0,0,0,0,0,0,0,0,0,3,4,117,space,9.926634499999636,None,1,1,0.7396426000004794,None,space,4.471985299999687,None,0,1,1,0,,,,,0,3,3,2,450.6433482000002,,,,,,,,,,,,,,,,,,,,,450.62785880000047,450.6433482000002,451.1274035000006,451.1328671000001,451.15037459999985,451.8942893000003,,,,,451.8944827000005,451.91009720000056,452.1100524000003,452.0941633000002,451.15037459999985,,,,,,,,1,1,0.7396426000004794,None,,,,,,,,31,22,V,R,2026-02-25_12h03.15.882,VisualSearch_2526_3,,2025.2.4,2026-02-25 12h03.16.109032 +0100,
tilted.xlsx,The target is tilted.,117,4,4,0,1,1,1,1,1,1,1,1,0,0,0,0,0,7,8,117,space,9.926634499999636,None,0,0,3.224111300000004,None,space,4.471985299999687,None,0,1,1,0,,,,,0,4,4,1,452.1100524000003,,,,,,,,,,,,,,,,,,,,,452.09510690000025,452.1100524000003,452.59412220000013,452.5993761,452.61647379999977,455.8438855000004,,,,,455.84406110000054,455.85930590000044,456.05909280000014,456.0431139000002,452.61647379999977,,,,,,,,0,0,3.224111300000004,None,,,,,,,,31,22,V,R,2026-02-25_12h03.15.882,VisualSearch_2526_3,,2025.2.4,2026-02-25 12h03.16.109032 +0100,
tilted.xlsx,The target is tilted.,117,5,5,0,1,0,0,0,0,0,0,0,0,0,0,0,0,0,1,117,space,9.926634499999636,None,1,1,0.9079405000002225,None,space,4.471985299999687,None,0,1,1,0,,,,,0,5,5,3,456.05909280000014,,,,,,,,,,,,,,,,,,,,,456.04389809999975,456.05909280000014,456.5432676999999,456.54789990000063,456.5633488000003,457.47662070000024,,,,,457.4767943000006,457.49223919999986,457.6922045000001,457.6765503000006,456.5633488000003,,,,,,,,1,1,0.9079405000002225,None,,,,,,,,31,22,V,R,2026-02-25_12h03.15.882,VisualSearch_2526_3,,2025.2.4,2026-02-25 12h03.16.109032 +0100,
tilted.xlsx,The target is tilted.,117,6,6,0,1,1,1,1,1,1,1,1,1,1,1,1,0,11,12,117,space,9.926634499999636,None,1,1,2.371552200000224,None,space,4.471985299999687,None,0,1,1,0,,,,,0,6,6,0,457.6922045000001,,,,,,,,,,,,,,,,,,,,,457.67726930000026,457.6922045000001,458.1765953000004,458.1814264000004,458.1982115999999,460.57630849999987,,,,,460.5764850000005,460.59194690000004,460.7920954000001,460.7759033000002,458.1982115999999,,,,,,,,1,1,2.371552200000224,None,,,,,,,,31,22,V,R,2026-02-25_12h03.15.882,VisualSearch_2526_3,,2025.2.4,2026-02-25 12h03.16.109032 +0100,
tilted.xlsx,The target is tilted.,117,7,7,0,0,1,1,1,1,1,1,1,1,1,1,1,1,11,12,117,space,9.926634499999636,None,0,1,5.509242500000255,None,space,4.471985299999687,None,0,1,1,0,,,,,0,7,7,4,460.7920954000001,,,,,,,,,,,,,,,,,,,,,460.7766394,460.7920954000001,461.27577610000026,461.2803812000002,461.2973535000001,466.80862810000053,,,,,466.8087929000003,466.82428190000064,467.0239425,467.00774569999976,461.2973535000001,,,,,,,,0,1,5.509242500000255,None,,,,,,,,31,22,V,R,2026-02-25_12h03.15.882,VisualSearch_2526_3,,2025.2.4,2026-02-25 12h03.16.109032 +0100,
tilted.xlsx,The target is tilted.,117,8,0,1,1,1,1,1,0,0,0,0,0,0,0,0,0,3,4,117,space,9.926634499999636,None,1,1,1.040862200000447,None,space,4.471985299999687,None,0,1,1,0,,,,,1,0,8,2,467.0239425,,,,,,,,,,,,,,,,,,,,,467.0084284000004,467.0239425,467.5077204999998,467.5126902000002,467.5278900000003,468.5741861000006,,,,,468.5742553,468.5901878000004,468.7905171000002,468.7743953999998,467.5278900000003,,,,,,,,1,1,1.040862200000447,None,,,,,,,,31,22,V,R,2026-02-25_12h03.15.882,VisualSearch_2526_3,,2025.2.4,2026-02-25 12h03.16.109032 +0100,
tilted.xlsx,The target is tilted.,117,9,1,1,0,1,1,1,0,0,0,0,0,0,0,0,1,3,4,117,space,9.926634499999636,None,0,1,0.9437828999998601,None,space,4.471985299999687,None,0,1,1,0,,,,,1,1,9,6,468.7905171000002,,,,,,,,,,,,,,,,,,,,,468.7751966000005,468.7905171000002,469.2746259000005,469.2794696000001,469.2972544000004,470.2574335999998,,,,,470.2575149000004,470.27341890000025,470.4736997,470.4574111000002,469.2972544000004,,,,,,,,0,1,0.9437828999998601,None,,,,,,,,31,22,V,R,2026-02-25_12h03.15.882,VisualSearch_2526_3,,2025.2.4,2026-02-25 12h03.16.109032 +0100,
tilted.xlsx,The target is tilted.,117,10,2,1,1,0,0,0,0,0,0,0,0,0,0,0,0,0,1,117,space,9.926634499999636,None,1,1,0.7373855999994703,None,space,4.471985299999687,None,0,1,1,0,,,,,1,2,10,3,470.4736997,,,,,,,,,,,,,,,,,,,,,470.45814729999984,470.4736997,470.9578181000006,470.96291999999994,470.9797672000004,471.7244287000003,,,,,471.7246049000005,471.74009939999996,471.93999410000015,471.92396700000063,470.9797672000004,,,,,,,,1,1,0.7373855999994703,None,,,,,,,,31,22,V,R,2026-02-25_12h03.15.882,VisualSearch_2526_3,,2025.2.4,2026-02-25 12h03.16.109032 +0100,
tilted.xlsx,The target is tilted.,117,11,3,1,0,1,1,1,1,1,1,1,1,1,1,1,1,11,12,117,space,9.926634499999636,None,1,0,1.6075954000007187,None,space,4.471985299999687,None,0,1,1,0,,,,,1,3,11,4,471.93999410000015,,,,,,,,,,,,,,,,,,,,,471.9247978000003,471.93999410000015,472.42368030000034,472.42831579999984,472.44408790000034,474.0570821000001,,,,,474.05726070000037,474.0727673000001,474.27318000000014,474.25705300000027,472.44408790000034,,,,,,,,1,0,1.6075954000007187,None,,,,,,,,31,22,V,R,2026-02-25_12h03.15.882,VisualSearch_2526_3,,2025.2.4,2026-02-25 12h03.16.109032 +0100,
tilted.xlsx,The target is tilted.,117,12,4,1,1,1,1,1,1,1,1,1,1,1,1,1,0,11,12,117,space,9.926634499999636,None,1,1,1.2179519999999684,None,space,4.471985299999687,None,0,1,1,0,,,,,1,4,12,0,474.27318000000014,,,,,,,,,,,,,,,,,,,,,474.25778790000004,474.27318000000014,474.7569927000004,474.7616318999999,474.7785251000005,476.0068097000003,,,,,476.0069690999999,476.0227592000001,476.2224047999998,476.2062848000005,474.7785251000005,,,,,,,,1,1,1.2179519999999684,None,,,,,,,,31,22,V,R,2026-02-25_12h03.15.882,VisualSearch_2526_3,,2025.2.4,2026-02-25 12h03.16.109032 +0100,
tilted.xlsx,The target is tilted.,117,13,5,1,0,0,0,0,0,0,0,0,0,0,0,0,1,1,1,117,space,9.926634499999636,None,0,1,0.6994617000000289,None,space,4.471985299999687,None,0,1,1,0,,,,,1,5,13,7,476.2224047999998,,,,,,,,,,,,,,,,,,,,,476.2070786000004,476.2224047999998,476.7065612000006,476.71112730000004,476.7284896000001,477.4403989000002,,,,,477.4405901,477.4555492999998,477.65605099999993,477.63986170000044,476.7284896000001,,,,,,,,0,1,0.6994617000000289,None,,,,,,,,31,22,V,R,2026-02-25_12h03.15.882,VisualSearch_2526_3,,2025.2.4,2026-02-25 12h03.16.109032 +0100,
tilted.xlsx,The target is tilted.,117,14,6,1,0,1,1,1,1,1,1,1,0,0,0,0,1,7,8,117,space,9.926634499999636,None,1,0,1.1286906999994244,None,space,4.471985299999687,None,0,1,1,0,,,,,1,6,14,5,477.65605099999993,,,,,,,,,,,,,,,,,,,,,477.64067049999994,477.65605099999993,478.1397538000001,478.1442551,478.15976839999985,479.28976049999983,,,,,479.28992240000025,479.3056668999998,479.5055775000001,479.4889229999999,478.15976839999985,,,,,,,,1,0,1.1286906999994244,None,,,,,,,,31,22,V,R,2026-02-25_12h03.15.882,VisualSearch_2526_3,,2025.2.4,2026-02-25 12h03.16.109032 +0100,
tilted.xlsx,The target is tilted.,117,15,7,1,1,1,1,1,1,1,1,1,0,0,0,0,0,7,8,117,space,9.926634499999636,None,1,1,1.5378928000000087,None,space,4.471985299999687,None,0,1,1,0,,,,,1,7,15,1,479.5055775000001,,,,,,,,,,,,,,,,,,,,,479.4895868000003,479.5055775000001,479.9894982000005,479.9947122000003,480.0119805000004,481.55615769999986,,,,,481.55634050000026,481.57180419999986,481.77184810000017,481.75576249999995,480.0119805000004,,,,,,,,1,1,1.5378928000000087,None,,,,,,,,31,22,V,R,2026-02-25_12h03.15.882,VisualSearch_2526_3,,2025.2.4,2026-02-25 12h03.16.109032 +0100,
tilted.xlsx,The target is tilted.,117,16,0,2,0,1,1,1,0,0,0,0,0,0,0,0,1,3,4,117,space,9.926634499999636,None,0,1,1.5971356999998534,None,space,4.471985299999687,None,0,1,1,0,,,,,2,0,16,6,481.77184810000017,,,,,,,,,,,,,,,,,,,,,481.75649520000024,481.77184810000017,482.25554939999984,482.2600917999998,482.27550210000027,483.8888603000005,,,,,483.88902860000053,483.9044144999998,484.10486330000003,484.08875439999974,482.27550210000027,,,,,,,,0,1,1.5971356999998534,None,,,,,,,,31,22,V,R,2026-02-25_12h03.15.882,VisualSearch_2526_3,,2025.2.4,2026-02-25 12h03.16.109032 +0100,
tilted.xlsx,The target is tilted.,117,17,1,2,1,1,1,1,1,1,1,1,0,0,0,0,0,7,8,117,space,9.926634499999636,None,0,0,2.520312300000114,None,space,4.471985299999687,None,0,1,1,0,,,,,2,1,17,1,484.10486330000003,,,,,,,,,,,,,,,,,,,,,484.0894853,484.10486330000003,484.5886350999999,484.5935773000001,484.609015,487.13807929999984,,,,,487.13814939999975,487.1541277000006,487.3543145000003,487.3381113000005,484.609015,,,,,,,,0,0,2.520312300000114,None,,,,,,,,31,22,V,R,2026-02-25_12h03.15.882,VisualSearch_2526_3,,2025.2.4,2026-02-25 12h03.16.109032 +0100,
tilted.xlsx,The target is tilted.,117,18,2,2,0,0,0,0,0,0,0,0,0,0,0,0,1,1,1,117,space,9.926634499999636,None,0,1,0.6206956000005448,None,space,4.471985299999687,None,0,1,1,0,,,,,2,2,18,7,487.3543145000003,,,,,,,,,,,,,,,,,,,,,487.33888879999995,487.3543145000003,487.8379627000004,487.8424875999999,487.8576143,488.4884284999998,,,,,488.4885997000001,488.50397020000037,488.70407650000016,488.68781110000054,487.8576143,,,,,,,,0,1,0.6206956000005448,None,,,,,,,,31,22,V,R,2026-02-25_12h03.15.882,VisualSearch_2526_3,,2025.2.4,2026-02-25 12h03.16.109032 +0100,
tilted.xlsx,The target is tilted.,117,19,3,2,1,1,1,1,0,0,0,0,0,0,0,0,0,3,4,117,space,9.926634499999636,None,1,1,1.09526840000035,None,space,4.471985299999687,None,0,1,1,0,,,,,2,3,19,2,488.70407650000016,,,,,,,,,,,,,,,,,,,,,488.6885591,488.70407650000016,489.18769150000026,489.19235930000013,489.2077411,490.30479300000025,,,,,490.3049682999999,490.3203499000001,490.5203277999999,490.50425300000006,489.2077411,,,,,,,,1,1,1.09526840000035,None,,,,,,,,31,22,V,R,2026-02-25_12h03.15.882,VisualSearch_2526_3,,2025.2.4,2026-02-25 12h03.16.109032 +0100,
tilted.xlsx,The target is tilted.,117,20,4,2,1,0,0,0,0,0,0,0,0,0,0,0,0,0,1,117,space,9.926634499999636,None,1,1,0.6797999999998865,None,space,4.471985299999687,None,0,1,1,0,,,,,2,4,20,3,490.5203277999999,,,,,,,,,,,,,,,,,,,,,490.5050310000006,490.5203277999999,491.0042576000005,491.00890489999983,491.0260976999998,491.72117870000056,,,,,491.72137120000025,491.73669560000053,491.93689710000035,491.9203465999999,491.0260976999998,,,,,,,,1,1,0.6797999999998865,None,,,,,,,,31,22,V,R,2026-02-25_12h03.15.882,VisualSearch_2526_3,,2025.2.4,2026-02-25 12h03.16.109032 +0100,
tilted.xlsx,The target is tilted.,117,21,5,2,1,1,1,1,1,1,1,1,1,1,1,1,0,11,12,117,space,9.926634499999636,None,0,0,4.804649900000186,None,space,4.471985299999687,None,0,1,1,0,,,,,2,5,21,0,491.93689710000035,,,,,,,,,,,,,,,,,,,,,491.9211199000001,491.93689710000035,492.4205989000002,492.4256892000003,492.4419015000003,497.25309689999995,,,,,497.25329130000046,497.26909460000024,497.4688114999999,497.45260270000017,492.4419015000003,,,,,,,,0,0,4.804649900000186,None,,,,,,,,31,22,V,R,2026-02-25_12h03.15.882,VisualSearch_2526_3,,2025.2.4,2026-02-25 12h03.16.109032 +0100,
tilted.xlsx,The target is tilted.,117,22,6,2,0,1,1,1,1,1,1,1,0,0,0,0,1,7,8,117,space,9.926634499999636,None,1,0,0.9137416000003213,None,space,4.471985299999687,None,0,1,1,0,,,,,2,6,22,5,497.4688114999999,,,,,,,,,,,,,,,,,,,,,497.4533723000004,497.4688114999999,497.9530560000003,497.9575571000005,497.9729023,498.9033423000001,,,,,498.90351480000027,498.91887570000017,499.11851000000024,499.1024838000003,497.9729023,,,,,,,,1,0,0.9137416000003213,None,,,,,,,,31,22,V,R,2026-02-25_12h03.15.882,VisualSearch_2526_3,,2025.2.4,2026-02-25 12h03.16.109032 +0100,
tilted.xlsx,The target is tilted.,117,23,7,2,0,1,1,1,1,1,1,1,1,1,1,1,1,11,12,117,space,9.926634499999636,None,1,0,1.0662885000001552,None,space,4.471985299999687,None,0,1,1,0,,,,,2,7,23,4,499.11851000000024,,,,,,,,,,,,,,,,,,,,,499.1031595000004,499.11851000000024,499.60275450000063,499.60724670000036,499.62278630000037,500.70280880000064,,,,,500.7030106000002,500.7182696,500.9186718000001,500.9023820000002,499.62278630000037,,,,,,,,1,0,1.0662885000001552,None,,,,,,,,31,22,V,R,2026-02-25_12h03.15.882,VisualSearch_2526_3,,2025.2.4,2026-02-25 12h03.16.109032 +0100,
tilted.xlsx,The target is tilted.,117,24,0,3,0,1,1,1,1,1,1,1,0,0,0,0,1,7,8,117,space,9.926634499999636,None,1,0,2.189138300000195,None,space,4.471985299999687,None,0,1,1,0,,,,,3,0,24,5,500.9186718000001,,,,,,,,,,,,,,,,,,,,,500.9031057000002,500.9186718000001,501.4021240000002,501.40674970000055,501.4220574000001,503.6192031999999,,,,,503.6193774000003,503.63468379999995,503.83494000000064,503.8187533999999,501.4220574000001,,,,,,,,1,0,2.189138300000195,None,,,,,,,,31,22,V,R,2026-02-25_12h03.15.882,VisualSearch_2526_3,,2025.2.4,2026-02-25 12h03.16.109032 +0100,
tilted.xlsx,The target is tilted.,117,25,1,3,1,1,1,1,0,0,0,0,0,0,0,0,0,3,4,117,space,9.926634499999636,None,0,0,0.9923363999996582,None,space,4.471985299999687,None,0,1,1,0,,,,,3,1,25,2,503.83494000000064,,,,,,,,,,,,,,,,,,,,,503.81955560000006,503.83494000000064,504.3188307999999,504.32353610000064,504.3404147000001,505.33562299999994,,,,,505.3358085,505.3508354000005,505.55122610000035,505.53506149999976,504.3404147000001,,,,,,,,0,0,0.9923363999996582,None,,,,,,,,31,22,V,R,2026-02-25_12h03.15.882,VisualSearch_2526_3,,2025.2.4,2026-02-25 12h03.16.109032 +0100,
tilted.xlsx,The target is tilted.,117,26,2,3,1,1,1,1,1,1,1,1,1,1,1,1,0,11,12,117,space,9.926634499999636,None,1,1,3.451098799999272,None,space,4.471985299999687,None,0,1,1,0,,,,,3,2,26,0,505.55122610000035,,,,,,,,,,,,,,,,,,,,,505.53582689999985,505.55122610000035,506.0349573000003,506.0396827000004,506.0540073000002,509.5181641999998,,,,,509.5183254000003,509.53374710000026,509.7339216999999,509.7177883000004,506.0540073000002,,,,,,,,1,1,3.451098799999272,None,,,,,,,,31,22,V,R,2026-02-25_12h03.15.882,VisualSearch_2526_3,,2025.2.4,2026-02-25 12h03.16.109032 +0100,
tilted.xlsx,The target is tilted.,117,27,3,3,0,1,1,1,0,0,0,0,0,0,0,0,1,3,4,117,space,9.926634499999636,None,0,1,1.5748830000002272,None,space,4.471985299999687,None,0,1,1,0,,,,,3,3,27,6,509.7339216999999,,,,,,,,,,,,,,,,,,,,,509.7185205000005,509.7339216999999,510.2176121000002,510.22222650000003,510.2389959000002,511.8174213000002,,,,,511.8175928999999,511.83345290000034,512.0335304,512.0174174000003,510.2389959000002,,,,,,,,0,1,1.5748830000002272,None,,,,,,,,31,22,V,R,2026-02-25_12h03.15.882,VisualSearch_2526_3,,2025.2.4,2026-02-25 12h03.16.109032 +0100,
tilted.xlsx,The target is tilted.,117,28,4,3,0,1,1,1,1,1,1,1,1,1,1,1,1,11,12,117,space,9.926634499999636,None,1,0,2.8791477000004306,None,space,4.471985299999687,None,0,1,1,0,,,,,3,4,28,4,512.0335304,,,,,,,,,,,,,,,,,,,,,512.0181229,512.0335304,512.5174803,512.5225510999999,512.5395642000003,515.4332562,,,,,515.4333447999998,515.4489938000006,515.6494696,515.6332573,512.5395642000003,,,,,,,,1,0,2.8791477000004306,None,,,,,,,,31,22,V,R,2026-02-25_12h03.15.882,VisualSearch_2526_3,,2025.2.4,2026-02-25 12h03.16.109032 +0100,
tilted.xlsx,The target is tilted.,117,29,5,3,1,1,1,1,1,1,1,1,0,0,0,0,0,7,8,117,space,9.926634499999636,None,1,1,3.216762299999573,None,space,4.471985299999687,None,0,1,1,0,,,,,3,5,29,1,515.6494696,,,,,,,,,,,,,,,,,,,,,515.6340006,515.6494696,516.1327562000006,516.1364178000003,516.1488788000006,519.3831314999998,,,,,519.3832910000001,519.3987870999999,519.5987841000006,519.5825489999997,516.1488788000006,,,,,,,,1,1,3.216762299999573,None,,,,,,,,31,22,V,R,2026-02-25_12h03.15.882,VisualSearch_2526_3,,2025.2.4,2026-02-25 12h03.16.109032 +0100,
tilted.xlsx,The target is tilted.,117,30,6,3,0,0,0,0,0,0,0,0,0,0,0,0,1,1,1,117,space,9.926634499999636,None,0,1,0.6443871999999828,None,space,4.471985299999687,None,0,1,1,0,,,,,3,6,30,7,519.5987841000006,,,,,,,,,,,,,,,,,,,,,519.5832933000002,519.5987841000006,520.0825352000002,520.0866918000002,520.1008649000005,520.7484132999998,,,,,520.7484797000006,520.7650209000003,,520.9485838,520.1008649000005,,,,,,,,0,1,0.6443871999999828,None,,,,,,,,31,22,V,R,2026-02-25_12h03.15.882,VisualSearch_2526_3,,2025.2.4,2026-02-25 12h03.16.109032 +0100,
tilted.xlsx,The target is tilted.,117,31,7,3,1,0,0,0,0,0,0,0,0,0,0,0,0,0,1,117,space,9.926634499999636,None,1,1,0.7426680999997188,None,space,4.471985299999687,None,0,1,1,0,,,,,3,7,31,3,520.9652781000004,,,,,,,,,,,,,,,,,,,,,520.9491431000006,520.9652781000004,521.4488751999997,521.4535052000001,521.4719526999997,522.2159781,,,,,522.2161520999998,522.2316494000006,522.4315789000002,522.4158836000006,,,,,,,,,1,1,0.7426680999997188,None,,,,,,,,31,22,V,R,2026-02-25_12h03.15.882,VisualSearch_2526_3,,2025.2.4,2026-02-25 12h03.16.109032 +0100,
tilted.xlsx,The target is tilted.,117,32,0,4,1,1,1,1,1,1,1,1,0,0,0,0,0,7,8,117,space,9.926634499999636,None,1,1,1.0120790000000852,None,space,4.471985299999687,None,0,1,1,0,,,,,4,0,32,1,522.4315789000002,,,,,,,,,,,,,,,,,,,,,522.4166456000003,522.4315789000002,522.9157826999999,522.9205794,522.9376363000001,523.9651482999998,,,,,523.9652866000006,523.9813497000005,524.1812172,524.1654932000001,522.9376363000001,,,,,,,,1,1,1.0120790000000852,None,,,,,,,,31,22,V,R,2026-02-25_12h03.15.882,VisualSearch_2526_3,,2025.2.4,2026-02-25 12h03.16.109032 +0100,
tilted.xlsx,The target is tilted.,117,33,1,4,1,0,0,0,0,0,0,0,0,0,0,0,0,0,1,117,space,9.926634499999636,None,0,0,1.2710551000000123,None,space,4.471985299999687,None,0,1,1,0,,,,,4,1,33,3,524.1812172,,,,,,,,,,,,,,,,,,,,,524.1663303000005,524.1812172,524.6654886000006,524.6706607000006,524.6853982000002,525.9655242999997,,,,,525.9656984000003,525.9808118999999,526.1810070000001,526.1650188000003,524.6853982000002,,,,,,,,0,0,1.2710551000000123,None,,,,,,,,31,22,V,R,2026-02-25_12h03.15.882,VisualSearch_2526_3,,2025.2.4,2026-02-25 12h03.16.109032 +0100,
