file_name,block_instructions,target_example,thisN,thisTrialN,thisRepN,target_presence,opacity_1,opacity_2,opacity_3,opacity_4,opacity_5,opacity_6,opacity_7,opacity_8,opacity_9,opacity_10,opacity_11,opacity_12,n_distract,n_items,target_ori,key_resp_4.keys,key_resp_4.rt,key_resp_4.duration,key_resp.keys,key_resp.corr,key_resp.rt,key_resp.duration,key_resp_5.keys,key_resp_5.rt,key_resp_5.duration,blocks.thisRepN,blocks.thisTrialN,blocks.thisN,blocks.thisIndex,practice_trials.thisRepN,practice_trials.thisTrialN,practice_trials.thisN,practice_trials.thisIndex,trials.thisRepN,trials.thisTrialN,trials.thisN,trials.thisIndex,thisRow.t,notes,Welcome.started,WelcomeText.started,key_resp_2.started,Welcome.stopped,key_resp_2.keys,key_resp_2.rt,key_resp_2.duration,InformedConsent.started,text_4.started,InformedConsent.stopped,key_resp_6.keys,key_resp_6.rt,key_resp_6.duration,key_resp_4.started,example_target.started,text_3.started,blocks.key_resp_4.keys,blocks.key_resp_4.rt,blocks.key_resp_4.duration,FixCross.started,fixCross.started,FixCross.stopped,Stimulus.started,key_resp.started,Stimulus.stopped,practice_trials.key_resp.keys,practice_trials.key_resp.corr,practice_trials.key_resp.rt,practice_trials.key_resp.duration,BlankScreen.started,text.started,text.stopped,BlankScreen.stopped,fixCross.stopped,ExperimentStart.started,text_2.started,key_resp_5.started,ExperimentStart.stopped,blocks.key_resp_5.keys,blocks.key_resp_5.rt,blocks.key_resp_5.duration,trials.key_resp.keys,trials.key_resp.corr,trials.key_resp.rt,trials.key_resp.duration,Thanks.started,ThankYou.started,key_resp_3.started,Thanks.stopped,key_resp_3.keys,key_resp_3.rt,key_resp_3.duration,participant,leeftijd,gender,links/rechtshandig,date,expName,expVersion,psychopyVersion,expStart,
,,,,,,,,,,,,,,,,,,,,,,,,,,,,,,,,,,,,,,,,,,,,,,0.03805529999999635,0.06579389999990326,0.06579389999990326,65.2490115999999,space,65.0010863,None,,,,,,,,,,,,,,,,,,,,,,,,,,,,,,,,,,,,,,,,,,,,,,801,26,M,L,2026-02-18_11h11.04.166,VisualSearch_2526_3,,2025.2.4,2026-02-18 11h11.04.909311 +0100,
,,,,,,,,,,,,,,,,,,,,,,,,,,,,,,,,,,,,,,,,,,,,,,,,,,,,,65.24906729999998,65.25518929999998,79.51880549999998,y,14.252668299999982,None,,,,,,,,,,,,,,,,,,,,,,,,,,,,,,,,,,,,,,,,801,26,M,L,2026-02-18_11h11.04.166,VisualSearch_2526_3,,2025.2.4,2026-02-18 11h11.04.909311 +0100,
tilted.xlsx,The target is tilted.,117,0,0,0,0,1,1,1,1,1,1,1,1,1,1,1,1,11,12,117,space,11.115191900000013,None,1,0,2.1500886999999693,None,,,,0,0,0,0,0,0,0,4,,,,,90.85034489999998,,,,,,,,,,,,,,,79.6595165,79.6595165,79.6595165,space,11.115191900000013,None,90.84548659999996,90.85034489999998,91.29952779999996,91.30460089999997,91.32361559999993,93.48333559999992,1,0,2.1500886999999693,None,93.48352549999993,93.49887149999995,93.69903959999999,93.68295760000001,,,,,,,,,,,,,,,,,,,,801,26,M,L,2026-02-18_11h11.04.166,VisualSearch_2526_3,,2025.2.4,2026-02-18 11h11.04.909311 +0100,
tilted.xlsx,The target is tilted.,117,1,1,0,0,0,0,0,0,0,0,0,0,0,0,0,1,1,1,117,space,11.115191900000013,None,1,0,0.9101162000000613,None,,,,0,0,0,0,0,1,1,7,,,,,93.69903959999999,,,,,,,,,,,,,,,,,,,,,93.6837003999999,93.69903959999999,94.18289389999995,94.18789249999998,94.20604189999995,95.13315469999998,1,0,0.9101162000000613,None,95.1333439,95.14865539999994,95.3485991,95.33216110000001,94.20604189999995,,,,,,,,,,,,,,,,,,,801,26,M,L,2026-02-18_11h11.04.166,VisualSearch_2526_3,,2025.2.4,2026-02-18 11h11.04.909311 +0100,
tilted.xlsx,The target is tilted.,117,2,2,0,0,1,1,1,1,1,1,1,0,0,0,0,1,7,8,117,space,11.115191900000013,None,1,0,1.559690000000046,None,,,,0,0,0,0,0,2,2,5,,,,,95.3485991,,,,,,,,,,,,,,,,,,,,,95.33254829999998,95.3485991,95.83169679999992,95.83439409999994,95.84845139999993,97.41578349999997,1,0,1.559690000000046,None,97.41597279999996,97.43126359999997,97.63171249999994,97.61550890000001,95.84845139999993,,,,,,,,,,,,,,,,,,,801,26,M,L,2026-02-18_11h11.04.166,VisualSearch_2526_3,,2025.2.4,2026-02-18 11h11.04.909311 +0100,
tilted.xlsx,The target is tilted.,117,3,3,0,1,0,0,0,0,0,0,0,0,0,0,0,0,0,1,117,space,11.115191900000013,None,0,0,0.8346083999999792,None,,,,0,0,0,0,0,3,3,3,,,,,97.63171249999994,,,,,,,,,,,,,,,,,,,,,97.61626889999991,97.63171249999994,98.1154421,98.12066870000001,98.13959769999997,98.9826233,0,0,0.8346083999999792,None,98.98281309999993,98.99767179999992,99.19803630000001,99.18186749999995,98.13959769999997,,,,,,,,,,,,,,,,,,,801,26,M,L,2026-02-18_11h11.04.166,VisualSearch_2526_3,,2025.2.4,2026-02-18 11h11.04.909311 +0100,
tilted.xlsx,The target is tilted.,117,4,4,0,0,1,1,1,0,0,0,0,0,0,0,0,1,3,4,117,space,11.115191900000013,None,1,0,2.1445839000000433,None,,,,0,0,0,0,0,4,4,6,,,,,99.19803630000001,,,,,,,,,,,,,,,,,,,,,99.18265929999995,99.19803630000001,99.68185319999998,99.68659959999991,99.70593669999994,101.86501279999993,1,0,2.1445839000000433,None,101.86520580000001,101.88058809999995,102.08112059999996,102.0650842,99.70593669999994,,,,,,,,,,,,,,,,,,,801,26,M,L,2026-02-18_11h11.04.166,VisualSearch_2526_3,,2025.2.4,2026-02-18 11h11.04.909311 +0100,
tilted.xlsx,The target is tilted.,117,5,5,0,1,1,1,1,0,0,0,0,0,0,0,0,0,3,4,117,space,11.115191900000013,None,0,0,1.826676099999986,None,,,,0,0,0,0,0,5,5,2,,,,,102.08112059999996,,,,,,,,,,,,,,,,,,,,,102.06585719999998,102.08112059999996,102.56484349999994,102.56991549999998,102.58879200000001,104.43130350000001,0,0,1.826676099999986,None,104.43151649999993,104.44692529999998,104.64742960000001,104.63139359999991,102.58879200000001,,,,,,,,,,,,,,,,,,,801,26,M,L,2026-02-18_11h11.04.166,VisualSearch_2526_3,,2025.2.4,2026-02-18 11h11.04.909311 +0100,
tilted.xlsx,The target is tilted.,117,6,6,0,1,1,1,1,1,1,1,1,1,1,1,1,0,11,12,117,space,11.115191900000013,None,1,1,0.9913093999999774,None,,,,0,0,0,0,0,6,6,0,,,,,104.64742960000001,,,,,,,,,,,,,,,,,,,,,104.63222359999997,104.64742960000001,105.13126249999993,105.13667629999998,105.15669759999992,106.1643398,1,1,0.9913093999999774,None,106.16454349999992,106.17999899999995,106.38047940000001,106.36441259999992,105.15669759999992,,,,,,,,,,,,,,,,,,,801,26,M,L,2026-02-18_11h11.04.166,VisualSearch_2526_3,,2025.2.4,2026-02-18 11h11.04.909311 +0100,
tilted.xlsx,The target is tilted.,117,7,7,0,1,1,1,1,1,1,1,1,0,0,0,0,0,7,8,117,space,11.115191900000013,None,1,1,1.5619247999999288,None,,,,0,0,0,0,0,7,7,1,,,,,106.38047940000001,,,,,,,,,,,,,,,,,,,,,106.36514309999995,106.38047940000001,106.86456279999993,106.86986549999995,106.88899279999998,108.46349239999995,1,1,1.5619247999999288,None,108.46360709999999,108.47989189999998,108.68701019999992,108.66370729999994,106.88899279999998,,,,,,,,,,,,,,,,,,,801,26,M,L,2026-02-18_11h11.04.166,VisualSearch_2526_3,,2025.2.4,2026-02-18 11h11.04.909311 +0100,
tilted.xlsx,The target is tilted.,117,0,0,0,1,1,1,1,0,0,0,0,0,0,0,0,0,3,4,117,space,11.115191900000013,None,0,0,1.2421176000000287,None,space,2.904543999999987,None,0,0,0,0,,,,,0,0,0,2,111.63620529999992,,,,,,,,,,,,,,,,,,,,,111.63192599999991,111.63620529999992,112.11328679999997,112.11872599999992,112.13767159999998,113.39602489999993,,,,,113.39614629999994,113.41254509999999,,113.59624789999998,,108.67970949999994,108.68701019999992,108.68701019999992,111.5973894,space,2.904543999999987,None,0,0,1.2421176000000287,None,,,,,,,,801,26,M,L,2026-02-18_11h11.04.166,VisualSearch_2526_3,,2025.2.4,2026-02-18 11h11.04.909311 +0100,
tilted.xlsx,The target is tilted.,117,1,1,0,1,1,1,1,1,1,1,1,0,0,0,0,0,7,8,117,space,11.115191900000013,None,1,1,1.443473299999937,None,space,2.904543999999987,None,0,0,0,0,,,,,0,1,1,1,113.61269299999992,,,,,,,,,,,,,,,,,,,,,113.59706929999993,113.61269299999992,114.096499,114.10196459999997,114.12037529999998,115.57977669999991,,,,,115.5799743,115.59515949999991,115.79578829999991,115.77961029999994,,,,,,,,,1,1,1.443473299999937,None,,,,,,,,801,26,M,L,2026-02-18_11h11.04.166,VisualSearch_2526_3,,2025.2.4,2026-02-18 11h11.04.909311 +0100,
tilted.xlsx,The target is tilted.,117,2,2,0,0,1,1,1,1,1,1,1,0,0,0,0,1,7,8,117,space,11.115191900000013,None,1,0,0.913150000000087,None,space,2.904543999999987,None,0,0,0,0,,,,,0,2,2,5,115.79578829999991,,,,,,,,,,,,,,,,,,,,,115.78037389999997,115.79578829999991,116.2797023999999,116.28508539999996,116.30502919999992,117.22920379999994,,,,,117.22939279999991,117.2447967999999,117.44488789999991,117.42834799999991,116.30502919999992,,,,,,,,1,0,0.913150000000087,None,,,,,,,,801,26,M,L,2026-02-18_11h11.04.166,VisualSearch_2526_3,,2025.2.4,2026-02-18 11h11.04.909311 +0100,
tilted.xlsx,The target is tilted.,117,3,3,0,0,1,1,1,0,0,0,0,0,0,0,0,1,3,4,117,space,11.115191900000013,None,0,1,0.9375195000000076,None,space,2.904543999999987,None,0,0,0,0,,,,,0,3,3,6,117.44488789999991,,,,,,,,,,,,,,,,,,,,,117.42874749999999,117.44488789999991,117.92950299999995,117.93489109999996,117.95429969999998,118.8961741999999,,,,,118.8963685,118.91155419999996,119.11197249999998,119.09564999999998,117.95429969999998,,,,,,,,0,1,0.9375195000000076,None,,,,,,,,801,26,M,L,2026-02-18_11h11.04.166,VisualSearch_2526_3,,2025.2.4,2026-02-18 11h11.04.909311 +0100,
tilted.xlsx,The target is tilted.,117,4,4,0,1,1,1,1,1,1,1,1,1,1,1,1,0,11,12,117,space,11.115191900000013,None,1,1,0.7647673000000168,None,space,2.904543999999987,None,0,0,0,0,,,,,0,4,4,0,119.11197249999998,,,,,,,,,,,,,,,,,,,,,119.0964649,119.11197249999998,119.59555109999997,119.60089099999993,119.61992939999993,120.39588819999994,,,,,120.39608569999996,120.41131509999991,120.61184919999994,120.59539050000001,119.61992939999993,,,,,,,,1,1,0.7647673000000168,None,,,,,,,,801,26,M,L,2026-02-18_11h11.04.166,VisualSearch_2526_3,,2025.2.4,2026-02-18 11h11.04.909311 +0100,
tilted.xlsx,The target is tilted.,117,5,5,0,1,0,0,0,0,0,0,0,0,0,0,0,0,0,1,117,space,11.115191900000013,None,0,0,0.676451400000019,None,space,2.904543999999987,None,0,0,0,0,,,,,0,5,5,3,120.61184919999994,,,,,,,,,,,,,,,,,,,,,120.5962596999999,120.61184919999994,121.09549189999996,121.10058919999994,121.11947629999997,121.81210079999994,,,,,121.81232890000001,121.82773529999997,122.02823379999995,122.01220579999995,121.11947629999997,,,,,,,,0,0,0.676451400000019,None,,,,,,,,801,26,M,L,2026-02-18_11h11.04.166,VisualSearch_2526_3,,2025.2.4,2026-02-18 11h11.04.909311 +0100,
tilted.xlsx,The target is tilted.,117,6,6,0,0,0,0,0,0,0,0,0,0,0,0,0,1,1,1,117,space,11.115191900000013,None,1,0,0.7343850999999404,None,space,2.904543999999987,None,0,0,0,0,,,,,0,6,6,7,122.02823379999995,,,,,,,,,,,,,,,,,,,,,122.01303949999999,122.02823379999995,122.51142809999999,122.51432939999995,122.52862119999998,123.27801299999999,,,,,123.2781455999999,123.29449169999998,,123.4782798,122.52862119999998,,,,,,,,1,0,0.7343850999999404,None,,,,,,,,801,26,M,L,2026-02-18_11h11.04.166,VisualSearch_2526_3,,2025.2.4,2026-02-18 11h11.04.909311 +0100,
tilted.xlsx,The target is tilted.,117,7,7,0,0,1,1,1,1,1,1,1,1,1,1,1,1,11,12,117,space,11.115191900000013,None,0,1,3.655113500000084,None,space,2.904543999999987,None,0,0,0,0,,,,,0,7,7,4,123.49448999999993,,,,,,,,,,,,,,,,,,,,,123.47916139999995,123.49448999999993,123.97835799999996,123.98367429999996,124.00239039999997,127.66160179999997,,,,,127.66180299999996,127.6768927999999,127.87737689999994,127.86126730000001,124.00239039999997,,,,,,,,0,1,3.655113500000084,None,,,,,,,,801,26,M,L,2026-02-18_11h11.04.166,VisualSearch_2526_3,,2025.2.4,2026-02-18 11h11.04.909311 +0100,
tilted.xlsx,The target is tilted.,117,8,0,1,1,1,1,1,1,1,1,1,0,0,0,0,0,7,8,117,space,11.115191900000013,None,1,1,2.3246370999999044,None,space,2.904543999999987,None,0,0,0,0,,,,,1,0,8,1,127.87737689999994,,,,,,,,,,,,,,,,,,,,,127.86202419999995,127.87737689999994,128.3608537,128.3640145999999,128.37714619999997,130.7114778,,,,,130.71167809999997,130.72651359999998,130.92697829999997,130.91044649999992,128.37714619999997,,,,,,,,1,1,2.3246370999999044,None,,,,,,,,801,26,M,L,2026-02-18_11h11.04.166,VisualSearch_2526_3,,2025.2.4,2026-02-18 11h11.04.909311 +0100,
tilted.xlsx,The target is tilted.,117,9,1,1,1,0,0,0,0,0,0,0,0,0,0,0,0,0,1,117,space,11.115191900000013,None,0,0,1.1269495000000234,None,space,2.904543999999987,None,0,0,0,0,,,,,1,1,9,3,130.92697829999997,,,,,,,,,,,,,,,,,,,,,130.91095719999998,130.92697829999997,131.41100499999993,131.41619659999992,131.43449829999997,132.57731709999996,,,,,132.57751339999993,132.59301879999998,132.79331419999994,132.77709529999993,131.43449829999997,,,,,,,,0,0,1.1269495000000234,None,,,,,,,,801,26,M,L,2026-02-18_11h11.04.166,VisualSearch_2526_3,,2025.2.4,2026-02-18 11h11.04.909311 +0100,
tilted.xlsx,The target is tilted.,117,10,2,1,1,1,1,1,1,1,1,1,1,1,1,1,0,11,12,117,space,11.115191900000013,None,1,1,1.5189435999999432,None,space,2.904543999999987,None,0,0,0,0,,,,,1,2,10,0,132.79331419999994,,,,,,,,,,,,,,,,,,,,,132.77793699999995,132.79331419999994,133.27732089999995,133.2827734,133.30172329999994,134.8274086,,,,,134.8276035,134.8425605,135.0430831,135.0268764,133.30172329999994,,,,,,,,1,1,1.5189435999999432,None,,,,,,,,801,26,M,L,2026-02-18_11h11.04.166,VisualSearch_2526_3,,2025.2.4,2026-02-18 11h11.04.909311 +0100,
tilted.xlsx,The target is tilted.,117,11,3,1,1,1,1,1,0,0,0,0,0,0,0,0,0,3,4,117,space,11.115191900000013,None,0,0,1.2960008000000016,None,space,2.904543999999987,None,0,0,0,0,,,,,1,3,11,2,135.0430831,,,,,,,,,,,,,,,,,,,,,135.0277099,135.0430831,135.52595889999998,135.5286486,135.5423723,136.84352849999993,,,,,136.84369809999998,136.85878879999996,137.05962279999994,137.04347769999993,135.5423723,,,,,,,,0,0,1.2960008000000016,None,,,,,,,,801,26,M,L,2026-02-18_11h11.04.166,VisualSearch_2526_3,,2025.2.4,2026-02-18 11h11.04.909311 +0100,
tilted.xlsx,The target is tilted.,117,12,4,1,0,0,0,0,0,0,0,0,0,0,0,0,1,1,1,117,space,11.115191900000013,None,0,1,0.8471365000000333,None,space,2.904543999999987,None,0,0,0,0,,,,,1,4,12,7,137.05962279999994,,,,,,,,,,,,,,,,,,,,,137.04427939999994,137.05962279999994,137.5434148999999,137.54863949999992,137.56758089999994,138.42645229999994,,,,,138.42665219999992,138.44208659999993,138.64219979999996,138.6263341,137.56758089999994,,,,,,,,0,1,0.8471365000000333,None,,,,,,,,801,26,M,L,2026-02-18_11h11.04.166,VisualSearch_2526_3,,2025.2.4,2026-02-18 11h11.04.909311 +0100,
tilted.xlsx,The target is tilted.,117,13,5,1,0,1,1,1,0,0,0,0,0,0,0,0,1,3,4,117,space,11.115191900000013,None,0,1,1.106013399999938,None,space,2.904543999999987,None,0,0,0,0,,,,,1,5,13,6,138.64219979999996,,,,,,,,,,,,,,,,,,,,,138.62709299999995,138.64219979999996,139.1260899,139.13081239999997,139.15014659999997,140.25979299999995,,,,,140.25998949999996,140.27515419999997,140.475505,140.45971429999997,139.15014659999997,,,,,,,,0,1,1.106013399999938,None,,,,,,,,801,26,M,L,2026-02-18_11h11.04.166,VisualSearch_2526_3,,2025.2.4,2026-02-18 11h11.04.909311 +0100,
tilted.xlsx,The target is tilted.,117,14,6,1,0,1,1,1,1,1,1,1,0,0,0,0,1,7,8,117,space,11.115191900000013,None,0,1,1.7677389999998923,None,space,2.904543999999987,None,0,0,0,0,,,,,1,6,14,5,140.475505,,,,,,,,,,,,,,,,,,,,,140.46051179999995,140.475505,140.95960719999994,140.9648912,140.98358689999998,142.75975649999987,,,,,142.7599636,142.7748102999999,142.97490719999996,142.95904419999988,140.98358689999998,,,,,,,,0,1,1.7677389999998923,None,,,,,,,,801,26,M,L,2026-02-18_11h11.04.166,VisualSearch_2526_3,,2025.2.4,2026-02-18 11h11.04.909311 +0100,
tilted.xlsx,The target is tilted.,117,15,7,1,0,1,1,1,1,1,1,1,1,1,1,1,1,11,12,117,space,11.115191900000013,None,0,1,1.7766745999999785,None,space,2.904543999999987,None,0,0,0,0,,,,,1,7,15,4,142.97490719999996,,,,,,,,,,,,,,,,,,,,,142.95980899999995,142.97490719999996,143.4590745999999,143.463798,143.482614,145.27482209999994,,,,,145.2749429999999,145.29089249999993,145.49110189999988,145.4751526,143.482614,,,,,,,,0,1,1.7766745999999785,None,,,,,,,,801,26,M,L,2026-02-18_11h11.04.166,VisualSearch_2526_3,,2025.2.4,2026-02-18 11h11.04.909311 +0100,
tilted.xlsx,The target is tilted.,117,16,0,2,1,1,1,1,0,0,0,0,0,0,0,0,0,3,4,117,space,11.115191900000013,None,0,0,0.7417014000000108,None,space,2.904543999999987,None,0,0,0,0,,,,,2,0,16,2,145.49110189999988,,,,,,,,,,,,,,,,,,,,,145.4758953999999,145.49110189999988,145.97517500000004,145.98010939999995,145.99938429999997,146.7425057999999,,,,,146.7427012999999,146.75736080000001,146.9578959999999,146.94159119999995,,,,,,,,,0,0,0.7417014000000108,None,,,,,,,,801,26,M,L,2026-02-18_11h11.04.166,VisualSearch_2526_3,,2025.2.4,2026-02-18 11h11.04.909311 +0100,
tilted.xlsx,The target is tilted.,117,17,1,2,1,0,0,0,0,0,0,0,0,0,0,0,0,0,1,117,space,11.115191900000013,None,0,0,0.5570023999998739,None,space,2.904543999999987,None,0,0,0,0,,,,,2,1,17,3,146.9578959999999,,,,,,,,,,,,,,,,,,,,,146.94213179999997,146.9578959999999,147.44199520000006,147.44671389999985,147.4659211999999,148.02504129999988,,,,,148.0252000999999,148.04049299999997,148.2413262,148.22523269999988,147.4659211999999,,,,,,,,0,0,0.5570023999998739,None,,,,,,,,801,26,M,L,2026-02-18_11h11.04.166,VisualSearch_2526_3,,2025.2.4,2026-02-18 11h11.04.909311 +0100,
tilted.xlsx,The target is tilted.,117,18,2,2,0,1,1,1,0,0,0,0,0,0,0,0,1,3,4,117,space,11.115191900000013,None,0,1,1.56070950000003,None,space,2.904543999999987,None,0,0,0,0,,,,,2,2,18,6,148.2413262,,,,,,,,,,,,,,,,,,,,,148.22603230000004,148.2413262,148.72500739999987,148.72961959999998,148.74938279999992,150.32476129999986,,,,,150.324969,150.34038140000007,150.54047719999994,150.52475290000007,148.74938279999992,,,,,,,,0,1,1.56070950000003,None,,,,,,,,801,26,M,L,2026-02-18_11h11.04.166,VisualSearch_2526_3,,2025.2.4,2026-02-18 11h11.04.909311 +0100,
tilted.xlsx,The target is tilted.,117,19,3,2,0,0,0,0,0,0,0,0,0,0,0,0,1,1,1,117,space,11.115191900000013,None,1,0,1.5059156999998322,None,space,2.904543999999987,None,0,0,0,0,,,,,2,3,19,7,150.54047719999994,,,,,,,,,,,,,,,,,,,,,150.52548079999997,150.54047719999994,151.02482800000007,151.03017649999992,151.04905959999996,152.55812390000006,,,,,152.55832029999988,152.5734574999999,152.7738895,152.7578701,151.04905959999996,,,,,,,,1,0,1.5059156999998322,None,,,,,,,,801,26,M,L,2026-02-18_11h11.04.166,VisualSearch_2526_3,,2025.2.4,2026-02-18 11h11.04.909311 +0100,
tilted.xlsx,The target is tilted.,117,20,4,2,0,1,1,1,1,1,1,1,1,1,1,1,1,11,12,117,space,11.115191900000013,None,1,0,0.8376028000000133,None,space,2.904543999999987,None,0,0,0,0,,,,,2,4,20,4,152.7738895,,,,,,,,,,,,,,,,,,,,,152.7586864,152.7738895,153.2578856,153.26317829999994,153.28174639999997,154.12473569999997,,,,,154.12493339999992,154.13986339999997,154.3404306,154.32425620000004,153.28174639999997,,,,,,,,1,0,0.8376028000000133,None,,,,,,,,801,26,M,L,2026-02-18_11h11.04.166,VisualSearch_2526_3,,2025.2.4,2026-02-18 11h11.04.909311 +0100,
tilted.xlsx,The target is tilted.,117,21,5,2,1,1,1,1,1,1,1,1,1,1,1,1,0,11,12,117,space,11.115191900000013,None,1,1,2.3324993000001086,None,space,2.904543999999987,None,0,0,0,0,,,,,2,5,21,0,154.3404306,,,,,,,,,,,,,,,,,,,,,154.32509879999998,154.3404306,154.82431810000003,154.82904170000006,154.84008019999987,157.17444920000003,,,,,157.17464829999994,157.18943790000003,157.38999409999997,157.3739048,154.84008019999987,,,,,,,,1,1,2.3324993000001086,None,,,,,,,,801,26,M,L,2026-02-18_11h11.04.166,VisualSearch_2526_3,,2025.2.4,2026-02-18 11h11.04.909311 +0100,
tilted.xlsx,The target is tilted.,117,22,6,2,0,1,1,1,1,1,1,1,0,0,0,0,1,7,8,117,space,11.115191900000013,None,0,1,2.460947600000054,None,space,2.904543999999987,None,0,0,0,0,,,,,2,6,22,5,157.38999409999997,,,,,,,,,,,,,,,,,,,,,157.37472550000007,157.38999409999997,157.87352190000001,157.87881489999995,157.89774609999995,160.3733651,,,,,160.37356279999995,160.3889408,160.5895473999999,160.57342259999996,157.89774609999995,,,,,,,,0,1,2.460947600000054,None,,,,,,,,801,26,M,L,2026-02-18_11h11.04.166,VisualSearch_2526_3,,2025.2.4,2026-02-18 11h11.04.909311 +0100,
tilted.xlsx,The target is tilted.,117,23,7,2,1,1,1,1,1,1,1,1,0,0,0,0,0,7,8,117,space,11.115191900000013,None,1,1,1.8601725000000897,None,space,2.904543999999987,None,0,0,0,0,,,,,2,7,23,1,160.5895473999999,,,,,,,,,,,,,,,,,,,,,160.5742401,160.5895473999999,161.07302809999987,161.07838360000005,161.0978095999999,162.97301919999995,,,,,162.97323789999996,162.98860009999999,163.18919359999995,163.17312820000006,161.0978095999999,,,,,,,,1,1,1.8601725000000897,None,,,,,,,,801,26,M,L,2026-02-18_11h11.04.166,VisualSearch_2526_3,,2025.2.4,2026-02-18 11h11.04.909311 +0100,
tilted.xlsx,The target is tilted.,117,24,0,3,1,1,1,1,1,1,1,1,1,1,1,1,0,11,12,117,space,11.115191900000013,None,1,1,1.8630722000000333,None,space,2.904543999999987,None,0,0,0,0,,,,,3,0,24,0,163.18919359999995,,,,,,,,,,,,,,,,,,,,,163.1739559,163.18919359999995,163.67302180000001,163.67836820000002,163.6982415,165.5731057999999,,,,,165.57330249999995,165.58823119999988,165.78869140000006,165.7724381999999,163.6982415,,,,,,,,1,1,1.8630722000000333,None,,,,,,,,801,26,M,L,2026-02-18_11h11.04.166,VisualSearch_2526_3,,2025.2.4,2026-02-18 11h11.04.909311 +0100,
tilted.xlsx,The target is tilted.,117,25,1,3,0,0,0,0,0,0,0,0,0,0,0,0,1,1,1,117,space,11.115191900000013,None,0,1,0.9346447000000353,None,space,2.904543999999987,None,0,0,0,0,,,,,3,1,25,7,165.78869140000006,,,,,,,,,,,,,,,,,,,,,165.77331319999985,165.78869140000006,166.2726978999999,166.27797229999987,166.29683799999998,167.23961020000002,,,,,167.2398169999999,167.25463220000006,167.4547912999999,167.43854469999997,166.29683799999998,,,,,,,,0,1,0.9346447000000353,None,,,,,,,,801,26,M,L,2026-02-18_11h11.04.166,VisualSearch_2526_3,,2025.2.4,2026-02-18 11h11.04.909311 +0100,
tilted.xlsx,The target is tilted.,117,26,2,3,1,1,1,1,0,0,0,0,0,0,0,0,0,3,4,117,space,11.115191900000013,None,0,0,1.177710100000013,None,space,2.904543999999987,None,0,0,0,0,,,,,3,2,26,2,167.4547912999999,,,,,,,,,,,,,,,,,,,,,167.4390452,167.4547912999999,167.93909839999992,167.94425060000003,167.9627587,169.15545989999987,,,,,169.15565960000004,169.1710696,169.37156690000006,169.35530089999997,167.9627587,,,,,,,,0,0,1.177710100000013,None,,,,,,,,801,26,M,L,2026-02-18_11h11.04.166,VisualSearch_2526_3,,2025.2.4,2026-02-18 11h11.04.909311 +0100,
tilted.xlsx,The target is tilted.,117,27,3,3,0,1,1,1,1,1,1,1,0,0,0,0,1,7,8,117,space,11.115191900000013,None,1,0,1.1387308999999277,None,space,2.904543999999987,None,0,0,0,0,,,,,3,3,27,5,169.37156690000006,,,,,,,,,,,,,,,,,,,,,169.35608000000002,169.37156690000006,169.85536609999986,169.86001910000005,169.87874390000002,171.02244159999987,,,,,171.02264029999992,171.03741659999991,171.23784649999993,171.22197340000002,169.87874390000002,,,,,,,,1,0,1.1387308999999277,None,,,,,,,,801,26,M,L,2026-02-18_11h11.04.166,VisualSearch_2526_3,,2025.2.4,2026-02-18 11h11.04.909311 +0100,
tilted.xlsx,The target is tilted.,117,28,4,3,0,1,1,1,1,1,1,1,1,1,1,1,1,11,12,117,space,11.115191900000013,None,1,0,0.7915655000001607,None,space,2.904543999999987,None,0,0,0,0,,,,,3,4,28,4,171.23784649999993,,,,,,,,,,,,,,,,,,,,,171.2227774999999,171.23784649999993,171.7218886999999,171.72727729999997,171.7471175999999,172.55484869999987,,,,,172.55507160000002,172.57059589999994,172.7711162999999,172.75501039999995,171.7471175999999,,,,,,,,1,0,0.7915655000001607,None,,,,,,,,801,26,M,L,2026-02-18_11h11.04.166,VisualSearch_2526_3,,2025.2.4,2026-02-18 11h11.04.909311 +0100,
tilted.xlsx,The target is tilted.,117,29,5,3,0,1,1,1,0,0,0,0,0,0,0,0,1,3,4,117,space,11.115191900000013,None,0,1,1.4900740000000496,None,space,2.904543999999987,None,0,0,0,0,,,,,3,5,29,6,172.7711162999999,,,,,,,,,,,,,,,,,,,,,172.75583979999988,172.7711162999999,173.2550647999999,173.26016619999996,173.27854469999988,174.77197339999998,,,,,174.77220880000004,174.78695930000004,174.98739049999995,174.9714449999999,173.27854469999988,,,,,,,,0,1,1.4900740000000496,None,,,,,,,,801,26,M,L,2026-02-18_11h11.04.166,VisualSearch_2526_3,,2025.2.4,2026-02-18 11h11.04.909311 +0100,
tilted.xlsx,The target is tilted.,117,30,6,3,1,1,1,1,1,1,1,1,0,0,0,0,0,7,8,117,space,11.115191900000013,None,1,1,0.9691695999999865,None,space,2.904543999999987,None,0,0,0,0,,,,,3,6,30,1,174.98739049999995,,,,,,,,,,,,,,,,,,,,,174.97228969999992,174.98739049999995,175.4710052999999,175.47616709999988,175.49521099999993,176.47166219999986,,,,,176.47185909999985,176.48666759999992,176.68707849999987,176.6706397999999,175.49521099999993,,,,,,,,1,1,0.9691695999999865,None,,,,,,,,801,26,M,L,2026-02-18_11h11.04.166,VisualSearch_2526_3,,2025.2.4,2026-02-18 11h11.04.909311 +0100,
tilted.xlsx,The target is tilted.,117,31,7,3,1,0,0,0,0,0,0,0,0,0,0,0,0,0,1,117,space,11.115191900000013,None,0,0,0.786128700000063,None,space,2.904543999999987,None,0,0,0,0,,,,,3,7,31,3,176.68707849999987,,,,,,,,,,,,,,,,,,,,,176.67109849999997,176.68707849999987,177.17012499999987,177.17297830000007,177.1865095999999,177.98700699999995,,,,,177.987126,178.0034149999999,,178.18738439999993,177.1865095999999,,,,,,,,0,0,0.786128700000063,None,,,,,,,,801,26,M,L,2026-02-18_11h11.04.166,VisualSearch_2526_3,,2025.2.4,2026-02-18 11h11.04.909311 +0100,
tilted.xlsx,The target is tilted.,117,32,0,4,0,1,1,1,1,1,1,1,1,1,1,1,1,11,12,117,space,11.115191900000013,None,1,0,1.5689190999999028,None,space,2.904543999999987,None,0,0,0,0,,,,,4,0,32,4,178.20377869999993,,,,,,,,,,,,,,,,,,,,,178.18827190000002,178.20377869999993,178.6872939,178.69255629999998,178.71151039999995,180.28770129999998,,,,,180.28792339999995,180.30281730000002,180.5031709,180.48708020000004,,,,,,,,,1,0,1.5689190999999028,None,,,,,,,,801,26,M,L,2026-02-18_11h11.04.166,VisualSearch_2526_3,,2025.2.4,2026-02-18 11h11.04.909311 +0100,
tilted.xlsx,The target is tilted.,117,33,1,4,1,1,1,1,1,1,1,1,0,0,0,0,0,7,8,117,space,11.115191900000013,None,1,1,1.4120969000000514,None,space,2.904543999999987,None,0,0,0,0,,,,,4,1,33,1,180.5031709,,,,,,,,,,,,,,,,,,,,,180.4879418999999,180.5031709,180.9870939,180.9917880999999,181.01050469999996,182.43728540000006,,,,,182.43749869999988,182.45252269999992,182.65302599999995,182.63695000000007,181.01050469999996,,,,,,,,1,1,1.4120969000000514,None,,,,,,,,801,26,M,L,2026-02-18_11h11.04.166,VisualSearch_2526_3,,2025.2.4,2026-02-18 11h11.04.909311 +0100,
tilted.xlsx,The target is tilted.,117,34,2,4,0,1,1,1,0,0,0,0,0,0,0,0,1,3,4,117,space,11.115191900000013,None,0,1,0.811458200000061,None,space,2.904543999999987,None,0,0,0,0,,,,,4,2,34,6,182.65302599999995,,,,,,,,,,,,,,,,,,,,,182.63778690000004,182.65302599999995,183.13682159999985,183.14164529999994,183.1602708999999,183.9860266999999,,,,,183.98610529999996,184.00251520000006,,184.18638829999986,183.1602708999999,,,,,,,,0,1,0.811458200000061,None,,,,,,,,801,26,M,L,2026-02-18_11h11.04.166,VisualSearch_2526_3,,2025.2.4,2026-02-18 11h11.04.909311 +0100,
tilted.xlsx,The target is tilted.,117,35,3,4,0,0,0,0,0,0,0,0,0,0,0,0,1,1,1,117,space,11.115191900000013,None,0,1,0.8640572999997858,None,space,2.904543999999987,None,0,0,0,0,,,,,4,3,35,7,184.20286340000007,,,,,,,,,,,,,,,,,,,,,184.18729899999994,184.20286340000007,184.6863194,184.69128460000002,184.70262839999987,185.56996479999998,,,,,185.57016569999996,185.58541730000002,185.7858228,185.76987289999988,,,,,,,,,0,1,0.8640572999997858,None,,,,,,,,801,26,M,L,2026-02-18_11h11.04.166,VisualSearch_2526_3,,2025.2.4,2026-02-18 11h11.04.909311 +0100,
tilted.xlsx,The target is tilted.,117,36,4,4,1,0,0,0,0,0,0,0,0,0,0,0,0,0,1,117,space,11.115191900000013,None,0,0,0.6045061999998325,None,space,2.904543999999987,None,0,0,0,0,,,,,4,4,36,3,185.7858228,,,,,,,,,,,,,,,,,,,,,185.77068409999993,185.7858228,186.26962099999992,186.27429630000006,186.29244560000006,186.90356339999994,,,,,186.9037676999999,186.91832769999996,187.1190216,187.10284219999994,186.29244560000006,,,,,,,,0,0,0.6045061999998325,None,,,,,,,,801,26,M,L,2026-02-18_11h11.04.166,VisualSearch_2526_3,,2025.2.4,2026-02-18 11h11.04.909311 +0100,
tilted.xlsx,The target is tilted.,117,37,5,4,1,1,1,1,0,0,0,0,0,0,0,0,0,3,4,117,space,11.115191900000013,None,0,0,0.8675547000000279,None,space,2.904543999999987,None,0,0,0,0,,,,,4,5,37,2,187.1190216,,,,,,,,,,,,,,,,,,,,,187.10362229999987,187.1190216,187.6028263999999,187.60816090000003,187.62533540000004,188.5031601999999,,,,,188.50335859999996,188.5184417999999,188.7188349999999,188.70286050000004,187.62533540000004,,,,,,,,0,0,0.8675547000000279,None,,,,,,,,801,26,M,L,2026-02-18_11h11.04.166,VisualSearch_2526_3,,2025.2.4,2026-02-18 11h11.04.909311 +0100,
tilted.xlsx,The target is tilted.,117,38,6,4,1,1,1,1,1,1,1,1,1,1,1,1,0,11,12,117,space,11.115191900000013,None,1,1,2.146136899999874,None,space,2.904543999999987,None,0,0,0,0,,,,,4,6,38,0,188.7188349999999,,,,,,,,,,,,,,,,,,,,,188.70366509999985,188.7188349999999,189.20275319999996,189.20798719999993,189.22676209999986,191.3856131,,,,,191.38582410000004,191.40126609999993,191.6016749999999,191.58555439999986,189.22676209999986,,,,,,,,1,1,2.146136899999874,None,,,,,,,,801,26,M,L,2026-02-18_11h11.04.166,VisualSearch_2526_3,,2025.2.4,2026-02-18 11h11.04.909311 +0100,
tilted.xlsx,The target is tilted.,117,39,7,4,0,1,1,1,1,1,1,1,0,0,0,0,1,7,8,117,space,11.115191900000013,None,1,0,0.8951147999998739,None,space,2.904543999999987,None,0,0,0,0,,,,,4,7,39,5,191.6016749999999,,,,,,,,,,,,,,,,,,,,,191.58637109999995,191.6016749999999,192.0855219,192.0908147,192.11015810000004,193.0180117,,,,,193.0181330999999,193.0342894999999,,193.21855349999987,192.11015810000004,,,,,,,,1,0,0.8951147999998739,None,,,,,,,,801,26,M,L,2026-02-18_11h11.04.166,VisualSearch_2526_3,,2025.2.4,2026-02-18 11h11.04.909311 +0100,
tilted.xlsx,The target is tilted.,117,40,0,5,0,1,1,1,1,1,1,1,1,1,1,1,1,11,12,117,space,11.115191900000013,None,1,0,0.916218200000003,None,space,2.904543999999987,None,0,0,0,0,,,,,5,0,40,4,193.2348915,,,,,,,,,,,,,,,,,,,,,193.21949300000006,193.2348915,193.71859760000007,193.72405979999985,193.74370049999993,194.66872439999997,,,,,194.66892459999985,194.68396239999993,194.88435979999986,194.86824290000004,,,,,,,,,1,0,0.916218200000003,None,,,,,,,,801,26,M,L,2026-02-18_11h11.04.166,VisualSearch_2526_3,,2025.2.4,2026-02-18 11h11.04.909311 +0100,
tilted.xlsx,The target is tilted.,117,41,1,5,0,1,1,1,1,1,1,1,0,0,0,0,1,7,8,117,space,11.115191900000013,None,1,0,1.298784699999942,None,space,2.904543999999987,None,0,0,0,0,,,,,5,1,41,5,194.88435979999986,,,,,,,,,,,,,,,,,,,,,194.86908100000005,194.88435979999986,195.36865339999986,195.37404259999994,195.39043199999992,196.7016438999999,,,,,196.70187850000002,196.71710229999985,196.91770040000006,196.9014881999999,195.39043199999992,,,,,,,,1,0,1.298784699999942,None,,,,,,,,801,26,M,L,2026-02-18_11h11.04.166,VisualSearch_2526_3,,2025.2.4,2026-02-18 11h11.04.909311 +0100,
tilted.xlsx,The target is tilted.,117,42,2,5,1,1,1,1,0,0,0,0,0,0,0,0,0,3,4,117,space,11.115191900000013,None,0,0,1.2152286999998978,None,space,2.904543999999987,None,0,0,0,0,,,,,5,2,42,2,196.91770040000006,,,,,,,,,,,,,,,,,,,,,196.90224919999991,196.91770040000006,197.40150219999987,197.40605970000001,197.42561039999987,198.65182929999992,,,,,198.65202569999997,198.66688909999993,198.86746930000004,198.85134649999986,197.42561039999987,,,,,,,,0,0,1.2152286999998978,None,,,,,,,,801,26,M,L,2026-02-18_11h11.04.166,VisualSearch_2526_3,,2025.2.4,2026-02-18 11h11.04.909311 +0100,
tilted.xlsx,The target is tilted.,117,43,3,5,1,1,1,1,1,1,1,1,0,0,0,0,0,7,8,117,space,11.115191900000013,None,1,1,1.7556373999998414,None,space,2.904543999999987,None,0,0,0,0,,,,,5,3,43,1,198.86746930000004,,,,,,,,,,,,,,,,,,,,,198.8521768999999,198.86746930000004,199.3513051,199.35663239999985,199.3755016,201.13458019999985,,,,,201.13477910000006,201.1497534,201.35044949999997,201.3341602999999,199.3755016,,,,,,,,1,1,1.7556373999998414,None,,,,,,,,801,26,M,L,2026-02-18_11h11.04.166,VisualSearch_2526_3,,2025.2.4,2026-02-18 11h11.04.909311 +0100,
tilted.xlsx,The target is tilted.,117,44,4,5,0,0,0,0,0,0,0,0,0,0,0,0,1,1,1,117,space,11.115191900000013,None,0,1,0.8617199999998775,None,space,2.904543999999987,None,0,0,0,0,,,,,5,4,44,7,201.35044949999997,,,,,,,,,,,,,,,,,,,,,201.33494930000006,201.35044949999997,201.83440100000007,201.83950720000007,201.85774930000002,202.73401560000002,,,,,202.73421659999985,202.74958049999987,202.9502253999999,202.93411229999992,201.85774930000002,,,,,,,,0,1,0.8617199999998775,None,,,,,,,,801,26,M,L,2026-02-18_11h11.04.166,VisualSearch_2526_3,,2025.2.4,2026-02-18 11h11.04.909311 +0100,
tilted.xlsx,The target is tilted.,117,45,5,5,0,1,1,1,0,0,0,0,0,0,0,0,1,3,4,117,space,11.115191900000013,None,0,1,1.1976804000000811,None,space,2.904543999999987,None,0,0,0,0,,,,,5,5,45,6,202.9502253999999,,,,,,,,,,,,,,,,,,,,,202.93493280000007,202.9502253999999,203.43410449999988,203.43923849999987,203.45772510000006,204.66706909999994,,,,,204.6672779999999,204.68246509999994,204.88281059999986,204.86697290000006,203.45772510000006,,,,,,,,0,1,1.1976804000000811,None,,,,,,,,801,26,M,L,2026-02-18_11h11.04.166,VisualSearch_2526_3,,2025.2.4,2026-02-18 11h11.04.909311 +0100,
tilted.xlsx,The target is tilted.,117,46,6,5,1,0,0,0,0,0,0,0,0,0,0,0,0,0,1,117,space,11.115191900000013,None,0,0,0.8855109999999513,None,space,2.904543999999987,None,0,0,0,0,,,,,5,6,46,3,204.88281059999986,,,,,,,,,,,,,,,,,,,,,204.8677098999999,204.88281059999986,205.36656870000002,205.37135710000007,205.39064719999988,206.2839062999999,,,,,206.2841065,206.29916589999993,206.49966999999992,206.48344539999994,205.39064719999988,,,,,,,,0,0,0.8855109999999513,None,,,,,,,,801,26,M,L,2026-02-18_11h11.04.166,VisualSearch_2526_3,,2025.2.4,2026-02-18 11h11.04.909311 +0100,
tilted.xlsx,The target is tilted.,117,47,7,5,1,1,1,1,1,1,1,1,1,1,1,1,0,11,12,117,space,11.115191900000013,None,1,1,0.750333400000045,None,space,2.904543999999987,None,0,0,0,0,,,,,5,7,47,0,206.49966999999992,,,,,,,,,,,,,,,,,,,,,206.4842099,206.49966999999992,206.98349699999994,206.98812099999986,207.00735800000007,207.76719409999987,,,,,207.7673952,207.7822784,207.9827459999999,207.96650210000007,207.00735800000007,,,,,,,,1,1,0.750333400000045,None,,,,,,,,801,26,M,L,2026-02-18_11h11.04.166,VisualSearch_2526_3,,2025.2.4,2026-02-18 11h11.04.909311 +0100,
tilted.xlsx,The target is tilted.,117,48,0,6,0,1,1,1,1,1,1,1,0,0,0,0,1,7,8,117,space,11.115191900000013,None,1,0,2.280749900000046,None,space,2.904543999999987,None,0,0,0,0,,,,,6,0,48,5,207.9827459999999,,,,,,,,,,,,,,,,,,,,,207.9673054,207.9827459999999,208.46649350000007,208.47165589999986,208.49041190000003,210.78339630000005,,,,,210.7835966,210.79851949999988,210.99908370000003,210.98301749999996,208.49041190000003,,,,,,,,1,0,2.280749900000046,None,,,,,,,,801,26,M,L,2026-02-18_11h11.04.166,VisualSearch_2526_3,,2025.2.4,2026-02-18 11h11.04.909311 +0100,
tilted.xlsx,The target is tilted.,117,49,1,6,1,1,1,1,0,0,0,0,0,0,0,0,0,3,4,117,space,11.115191900000013,None,0,0,1.1350352999997995,None,space,2.904543999999987,None,0,0,0,0,,,,,6,1,49,2,210.99908370000003,,,,,,,,,,,,,,,,,,,,,210.98382390000006,210.99908370000003,211.48254109999993,211.48787470000002,211.5075910999999,212.6495774,,,,,212.6498529999999,212.66492560000006,212.86504379999997,212.8492326999999,211.5075910999999,,,,,,,,0,0,1.1350352999997995,None,,,,,,,,801,26,M,L,2026-02-18_11h11.04.166,VisualSearch_2526_3,,2025.2.4,2026-02-18 11h11.04.909311 +0100,
tilted.xlsx,The target is tilted.,117,50,2,6,1,0,0,0,0,0,0,0,0,0,0,0,0,0,1,117,space,11.115191900000013,None,0,0,0.9900078000000576,None,space,2.904543999999987,None,0,0,0,0,,,,,6,2,50,3,212.86504379999997,,,,,,,,,,,,,,,,,,,,,212.84998849999988,212.86504379999997,213.34916539999995,213.35395470000003,213.37326280000002,214.3653061,,,,,214.36543619999998,214.38109399999985,214.5818795,214.56526989999998,213.37326280000002,,,,,,,,0,0,0.9900078000000576,None,,,,,,,,801,26,M,L,2026-02-18_11h11.04.166,VisualSearch_2526_3,,2025.2.4,2026-02-18 11h11.04.909311 +0100,
tilted.xlsx,The target is tilted.,117,51,3,6,0,0,0,0,0,0,0,0,0,0,0,0,1,1,1,117,space,11.115191900000013,None,0,1,0.7447308999999223,None,space,2.904543999999987,None,0,0,0,0,,,,,6,3,51,7,214.5818795,,,,,,,,,,,,,,,,,,,,,214.56600430000003,214.5818795,215.06547460000002,215.07000229999994,215.08798609999985,215.84890189999987,,,,,215.84911280000006,215.86440059999995,216.06488390000004,216.04880869999988,215.08798609999985,,,,,,,,0,1,0.7447308999999223,None,,,,,,,,801,26,M,L,2026-02-18_11h11.04.166,VisualSearch_2526_3,,2025.2.4,2026-02-18 11h11.04.909311 +0100,
tilted.xlsx,The target is tilted.,117,52,4,6,0,1,1,1,0,0,0,0,0,0,0,0,1,3,4,117,space,11.115191900000013,None,0,1,0.8660894000001917,None,space,2.904543999999987,None,0,0,0,0,,,,,6,4,52,6,216.06488390000004,,,,,,,,,,,,,,,,,,,,,216.0495163999999,216.06488390000004,216.54863269999987,216.55333309999992,216.5723997,217.4492095999999,,,,,217.4494064999999,217.4642131999999,217.66461619999995,217.64850780000006,216.5723997,,,,,,,,0,1,0.8660894000001917,None,,,,,,,,801,26,M,L,2026-02-18_11h11.04.166,VisualSearch_2526_3,,2025.2.4,2026-02-18 11h11.04.909311 +0100,
tilted.xlsx,The target is tilted.,117,53,5,6,1,1,1,1,1,1,1,1,1,1,1,1,0,11,12,117,space,11.115191900000013,None,1,1,0.8048260999999002,None,space,2.904543999999987,None,0,0,0,0,,,,,6,5,53,0,217.66461619999995,,,,,,,,,,,,,,,,,,,,,217.64927899999998,217.66461619999995,218.14841810000007,218.15384199999994,218.17397400000004,218.9820803,,,,,218.98227529999986,218.99737600000003,219.19787580000002,219.18178590000002,218.17397400000004,,,,,,,,1,1,0.8048260999999002,None,,,,,,,,801,26,M,L,2026-02-18_11h11.04.166,VisualSearch_2526_3,,2025.2.4,2026-02-18 11h11.04.909311 +0100,
tilted.xlsx,The target is tilted.,117,54,6,6,1,1,1,1,1,1,1,1,0,0,0,0,0,7,8,117,space,11.115191900000013,None,1,1,1.2561795999999958,None,space,2.904543999999987,None,0,0,0,0,,,,,6,6,54,1,219.19787580000002,,,,,,,,,,,,,,,,,,,,,219.18252729999995,219.19787580000002,219.6813841999999,219.68601880000006,219.7046648999999,220.9649726,,,,,220.96516959999985,220.98041609999996,221.18060519999995,221.16468809999992,219.7046648999999,,,,,,,,1,1,1.2561795999999958,None,,,,,,,,801,26,M,L,2026-02-18_11h11.04.166,VisualSearch_2526_3,,2025.2.4,2026-02-18 11h11.04.909311 +0100,
tilted.xlsx,The target is tilted.,117,55,7,6,0,1,1,1,1,1,1,1,1,1,1,1,1,11,12,117,space,11.115191900000013,None,1,0,1.0464282000000367,None,space,2.904543999999987,None,0,0,0,0,,,,,6,7,55,4,221.18060519999995,,,,,,,,,,,,,,,,,,,,,221.16552950000005,221.18060519999995,221.66483659999994,221.67008829999986,221.6889475999999,222.74805309999988,,,,,222.74825510000005,222.76341419999994,222.9639752999999,222.94775069999992,221.6889475999999,,,,,,,,1,0,1.0464282000000367,None,,,,,,,,801,26,M,L,2026-02-18_11h11.04.166,VisualSearch_2526_3,,2025.2.4,2026-02-18 11h11.04.909311 +0100,
tilted.xlsx,The target is tilted.,117,56,0,7,0,1,1,1,1,1,1,1,1,1,1,1,1,11,12,117,space,11.115191900000013,None,1,0,1.1569661999999425,None,space,2.904543999999987,None,0,0,0,0,,,,,7,0,56,4,222.9639752999999,,,,,,,,,,,,,,,,,,,,,222.94851519999997,222.9639752999999,223.4476775999999,223.4522652999999,223.47086319999994,224.63122129999988,,,,,224.63141629999996,224.6465564,224.84708380000006,224.83105899999987,223.47086319999994,,,,,,,,1,0,1.1569661999999425,None,,,,,,,,801,26,M,L,2026-02-18_11h11.04.166,VisualSearch_2526_3,,2025.2.4,2026-02-18 11h11.04.909311 +0100,
tilted.xlsx,The target is tilted.,117,57,1,7,1,1,1,1,0,0,0,0,0,0,0,0,0,3,4,117,space,11.115191900000013,None,0,0,0.8426967999998851,None,space,2.904543999999987,None,0,0,0,0,,,,,7,1,57,2,224.84708380000006,,,,,,,,,,,,,,,,,,,,,224.8318554,224.84708380000006,225.33096520000004,225.3362623999999,225.3559355,226.21405129999994,,,,,226.21424849999994,226.22965529999988,226.43021799999997,226.41396450000002,225.3559355,,,,,,,,0,0,0.8426967999998851,None,,,,,,,,801,26,M,L,2026-02-18_11h11.04.166,VisualSearch_2526_3,,2025.2.4,2026-02-18 11h11.04.909311 +0100,
tilted.xlsx,The target is tilted.,117,58,2,7,0,1,1,1,1,1,1,1,0,0,0,0,1,7,8,117,space,11.115191900000013,None,1,0,1.0279264000000694,None,space,2.904543999999987,None,0,0,0,0,,,,,7,2,58,5,226.43021799999997,,,,,,,,,,,,,,,,,,,,,226.4148227999999,226.43021799999997,226.91412519999994,226.91933649999987,226.9380759999999,227.98037290000002,,,,,227.98060340000006,227.99603439999987,228.19656020000002,228.1804823,226.9380759999999,,,,,,,,1,0,1.0279264000000694,None,,,,,,,,801,26,M,L,2026-02-18_11h11.04.166,VisualSearch_2526_3,,2025.2.4,2026-02-18 11h11.04.909311 +0100,
tilted.xlsx,The target is tilted.,117,59,3,7,1,1,1,1,1,1,1,1,1,1,1,1,0,11,12,117,space,11.115191900000013,None,1,1,1.7691411000000699,None,space,2.904543999999987,None,0,0,0,0,,,,,7,3,59,0,228.19656020000002,,,,,,,,,,,,,,,,,,,,,228.18131189999986,228.19656020000002,228.68024760000003,228.68561339999997,228.7051019999999,230.48075760000006,,,,,230.48098879999998,230.49550329999988,230.69625139999994,230.68025310000007,228.7051019999999,,,,,,,,1,1,1.7691411000000699,None,,,,,,,,801,26,M,L,2026-02-18_11h11.04.166,VisualSearch_2526_3,,2025.2.4,2026-02-18 11h11.04.909311 +0100,
tilted.xlsx,The target is tilted.,117,60,4,7,0,1,1,1,0,0,0,0,0,0,0,0,1,3,4,117,space,11.115191900000013,None,0,1,0.8200712000000294,None,space,2.904543999999987,None,0,0,0,0,,,,,7,4,60,6,230.69625139999994,,,,,,,,,,,,,,,,,,,,,230.68104960000005,230.69625139999994,231.1797709,231.18491410000001,231.20356049999987,232.03030179999996,,,,,232.03049469999996,232.04525710000007,232.24592340000004,232.22974,231.20356049999987,,,,,,,,0,1,0.8200712000000294,None,,,,,,,,801,26,M,L,2026-02-18_11h11.04.166,VisualSearch_2526_3,,2025.2.4,2026-02-18 11h11.04.909311 +0100,
tilted.xlsx,The target is tilted.,117,61,5,7,1,1,1,1,1,1,1,1,0,0,0,0,0,7,8,117,space,11.115191900000013,None,1,1,1.0459210999999868,None,space,2.904543999999987,None,0,0,0,0,,,,,7,5,61,1,232.24592340000004,,,,,,,,,,,,,,,,,,,,,232.23049719999995,232.24592340000004,232.73002010000005,232.7353407999999,232.75416719999998,233.81295669999986,,,,,233.8131558,233.82854499999985,234.0287197,234.0130517,232.75416719999998,,,,,,,,1,1,1.0459210999999868,None,,,,,,,,801,26,M,L,2026-02-18_11h11.04.166,VisualSearch_2526_3,,2025.2.4,2026-02-18 11h11.04.909311 +0100,
tilted.xlsx,The target is tilted.,117,62,6,7,0,0,0,0,0,0,0,0,0,0,0,0,1,1,1,117,space,11.115191900000013,None,0,1,0.7371083999998973,None,space,2.904543999999987,None,0,0,0,0,,,,,7,6,62,7,234.0287197,,,,,,,,,,,,,,,,,,,,,234.01390379999998,234.0287197,234.51265450000005,234.51781699999992,234.53632219999986,235.27963150000005,,,,,235.27982870000005,235.29503950000003,235.49517809999998,235.47929739999995,234.53632219999986,,,,,,,,0,1,0.7371083999998973,None,,,,,,,,801,26,M,L,2026-02-18_11h11.04.166,VisualSearch_2526_3,,2025.2.4,2026-02-18 11h11.04.909311 +0100,
tilted.xlsx,The target is tilted.,117,63,7,7,1,0,0,0,0,0,0,0,0,0,0,0,0,0,1,117,space,11.115191900000013,None,0,0,0.7663052999998854,None,space,2.904543999999987,None,0,0,0,0,,,,,7,7,63,3,235.49517809999998,,,,,,,,,,,,,,,,,,,,,235.4800972999999,235.49517809999998,235.9792677999999,235.9844192999999,236.00288980000005,236.77981269999987,,,,,236.7800041999999,236.79485709999994,236.99512179999988,236.97904010000002,236.00288980000005,,,,,,,,0,0,0.7663052999998854,None,,,,,,,,801,26,M,L,2026-02-18_11h11.04.166,VisualSearch_2526_3,,2025.2.4,2026-02-18 11h11.04.909311 +0100,
tilted.xlsx,The target is tilted.,117,64,0,8,0,0,0,0,0,0,0,0,0,0,0,0,1,1,1,117,space,11.115191900000013,None,0,1,0.4963121000000683,None,space,2.904543999999987,None,0,0,0,0,,,,,8,0,64,7,236.99512179999988,,,,,,,,,,,,,,,,,,,,,236.97977029999993,236.99512179999988,237.47861420000004,237.4815827,237.49613039999986,237.9960463,,,,,237.9962395,238.0110949,238.2111614999999,238.1949422,237.49613039999986,,,,,,,,0,1,0.4963121000000683,None,,,,,,,,801,26,M,L,2026-02-18_11h11.04.166,VisualSearch_2526_3,,2025.2.4,2026-02-18 11h11.04.909311 +0100,
tilted.xlsx,The target is tilted.,117,65,1,8,0,1,1,1,1,1,1,1,0,0,0,0,1,7,8,117,space,11.115191900000013,None,1,0,2.129649200000131,None,space,2.904543999999987,None,0,0,0,0,,,,,8,1,65,5,238.2111614999999,,,,,,,,,,,,,,,,,,,,,238.19541749999985,238.2111614999999,238.69538319999992,238.70016699999996,238.718926,240.86201119999987,,,,,240.86220609999987,240.87755049999987,241.07781569999997,241.06163620000007,238.718926,,,,,,,,1,0,2.129649200000131,None,,,,,,,,801,26,M,L,2026-02-18_11h11.04.166,VisualSearch_2526_3,,2025.2.4,2026-02-18 11h11.04.909311 +0100,
tilted.xlsx,The target is tilted.,117,66,2,8,1,1,1,1,0,0,0,0,0,0,0,0,0,3,4,117,space,11.115191900000013,None,0,0,2.7995447999999215,None,space,2.904543999999987,None,0,0,0,0,,,,,8,2,66,2,241.07781569999997,,,,,,,,,,,,,,,,,,,,,241.06241249999994,241.07781569999997,241.56192469999996,241.5665194999999,241.58529670000007,244.3953770999999,,,,,244.39556930000003,244.4104064999999,244.61098620000007,244.5949332,241.58529670000007,,,,,,,,0,0,2.7995447999999215,None,,,,,,,,801,26,M,L,2026-02-18_11h11.04.166,VisualSearch_2526_3,,2025.2.4,2026-02-18 11h11.04.909311 +0100,
tilted.xlsx,The target is tilted.,117,67,3,8,1,0,0,0,0,0,0,0,0,0,0,0,0,0,1,117,space,11.115191900000013,None,0,0,0.7655268000000888,None,space,2.904543999999987,None,0,0,0,0,,,,,8,3,67,3,244.61098620000007,,,,,,,,,,,,,,,,,,,,,244.59574440000006,244.61098620000007,245.09451259999992,245.09973909999985,245.1185711999999,245.89483700000005,,,,,245.8950324,245.91019570000003,246.1104281999999,246.09427579999988,245.1185711999999,,,,,,,,0,0,0.7655268000000888,None,,,,,,,,801,26,M,L,2026-02-18_11h11.04.166,VisualSearch_2526_3,,2025.2.4,2026-02-18 11h11.04.909311 +0100,
tilted.xlsx,The target is tilted.,117,68,4,8,1,1,1,1,1,1,1,1,0,0,0,0,0,7,8,117,space,11.115191900000013,None,1,1,2.1783115000000635,None,space,2.904543999999987,None,0,0,0,0,,,,,8,4,68,1,246.1104281999999,,,,,,,,,,,,,,,,,,,,,246.09503719999998,246.1104281999999,246.5947031999999,246.59978520000004,246.61813099999995,248.81094159999998,,,,,248.81113890000006,248.82643069999995,249.02682679999998,249.0108568999999,246.61813099999995,,,,,,,,1,1,2.1783115000000635,None,,,,,,,,801,26,M,L,2026-02-18_11h11.04.166,VisualSearch_2526_3,,2025.2.4,2026-02-18 11h11.04.909311 +0100,
tilted.xlsx,The target is tilted.,117,69,5,8,1,1,1,1,1,1,1,1,1,1,1,1,0,11,12,117,space,11.115191900000013,None,1,1,1.0782354000000396,None,space,2.904543999999987,None,0,0,0,0,,,,,8,5,69,0,249.02682679999998,,,,,,,,,,,,,,,,,,,,,249.01159889999985,249.02682679999998,249.5103924,249.5137135,249.52796480000006,250.6107993999999,,,,,250.61100779999992,250.62608750000004,250.82664550000004,250.8106894,249.52796480000006,,,,,,,,1,1,1.0782354000000396,None,,,,,,,,801,26,M,L,2026-02-18_11h11.04.166,VisualSearch_2526_3,,2025.2.4,2026-02-18 11h11.04.909311 +0100,
tilted.xlsx,The target is tilted.,117,70,6,8,0,1,1,1,0,0,0,0,0,0,0,0,1,3,4,117,space,11.115191900000013,None,0,1,1.689659600000141,None,space,2.904543999999987,None,0,0,0,0,,,,,8,6,70,6,250.82664550000004,,,,,,,,,,,,,,,,,,,,,250.81148710000002,250.82664550000004,251.31067910000002,251.3157194999999,251.33444069999996,253.02721969999993,,,,,253.02740799999992,253.04244629999994,253.24286549999988,253.2264548999999,251.33444069999996,,,,,,,,0,1,1.689659600000141,None,,,,,,,,801,26,M,L,2026-02-18_11h11.04.166,VisualSearch_2526_3,,2025.2.4,2026-02-18 11h11.04.909311 +0100,
tilted.xlsx,The target is tilted.,117,71,7,8,0,1,1,1,1,1,1,1,1,1,1,1,1,11,12,117,space,11.115191900000013,None,0,1,3.3632265999999618,None,space,2.904543999999987,None,0,0,0,0,,,,,8,7,71,4,253.24286549999988,,,,,,,,,,,,,,,,,,,,,253.2269592,253.24286549999988,253.72656170000005,253.73120799999992,253.75071159999993,257.1264374,,,,,257.12663470000007,257.14193550000005,257.3424683999999,257.32623139999987,253.75071159999993,,,,,,,,0,1,3.3632265999999618,None,,,,,,,,801,26,M,L,2026-02-18_11h11.04.166,VisualSearch_2526_3,,2025.2.4,2026-02-18 11h11.04.909311 +0100,
tilted.xlsx,The target is tilted.,117,72,0,9,1,1,1,1,1,1,1,1,1,1,1,1,0,11,12,117,space,11.115191900000013,None,0,0,2.978926399999864,None,space,2.904543999999987,None,0,0,0,0,,,,,9,0,72,0,257.3424683999999,,,,,,,,,,,,,,,,,,,,,257.3270617999999,257.3424683999999,257.82643110000004,257.8314507,257.8500612999999,260.84238060000007,,,,,260.84248890000003,260.85780969999996,261.0586536999999,261.04259849999994,257.8500612999999,,,,,,,,0,0,2.978926399999864,None,,,,,,,,801,26,M,L,2026-02-18_11h11.04.166,VisualSearch_2526_3,,2025.2.4,2026-02-18 11h11.04.909311 +0100,
tilted.xlsx,The target is tilted.,117,73,1,9,0,1,1,1,1,1,1,1,1,1,1,1,1,11,12,117,space,11.115191900000013,None,1,0,2.5121712999998635,None,space,2.904543999999987,None,0,0,0,0,,,,,9,1,73,4,261.0586536999999,,,,,,,,,,,,,,,,,,,,,261.0433914,261.0586536999999,261.54252959999985,261.5478238999999,261.56682479999995,264.0919564999999,,,,,264.0921859,264.10765319999996,264.307941,264.29203370000005,261.56682479999995,,,,,,,,1,0,2.5121712999998635,None,,,,,,,,801,26,M,L,2026-02-18_11h11.04.166,VisualSearch_2526_3,,2025.2.4,2026-02-18 11h11.04.909311 +0100,
tilted.xlsx,The target is tilted.,117,74,2,9,0,0,0,0,0,0,0,0,0,0,0,0,1,1,1,117,space,11.115191900000013,None,0,1,2.0844053000000713,None,space,2.904543999999987,None,0,0,0,0,,,,,9,2,74,7,264.307941,,,,,,,,,,,,,,,,,,,,,264.2927984999999,264.307941,264.79194289999987,264.7965199,264.81528449999996,266.9086519,,,,,266.9088402,266.9238763999999,267.1244979999999,267.1077250999999,264.81528449999996,,,,,,,,0,1,2.0844053000000713,None,,,,,,,,801,26,M,L,2026-02-18_11h11.04.166,VisualSearch_2526_3,,2025.2.4,2026-02-18 11h11.04.909311 +0100,
tilted.xlsx,The target is tilted.,117,75,3,9,1,0,0,0,0,0,0,0,0,0,0,0,0,0,1,117,space,11.115191900000013,None,0,0,2.0562473999998474,None,space,2.904543999999987,None,0,0,0,0,,,,,9,3,75,3,267.1244979999999,,,,,,,,,,,,,,,,,,,,,267.1084728000001,267.1244979999999,267.60835380000003,267.61357509999993,267.6341514999999,269.69209249999994,,,,,269.6922832,269.70681620000005,269.9073862,269.89132819999986,267.6341514999999,,,,,,,,0,0,2.0562473999998474,None,,,,,,,,801,26,M,L,2026-02-18_11h11.04.166,VisualSearch_2526_3,,2025.2.4,2026-02-18 11h11.04.909311 +0100,
tilted.xlsx,The target is tilted.,117,76,4,9,0,1,1,1,0,0,0,0,0,0,0,0,1,3,4,117,space,11.115191900000013,None,0,1,1.6128222999998343,None,space,2.904543999999987,None,0,0,0,0,,,,,9,4,76,6,269.9073862,,,,,,,,,,,,,,,,,,,,,269.8921295,269.9073862,270.3913014,270.3964974999999,270.4149682,272.04090589999987,,,,,272.04109530000005,272.05654189999996,272.2570315999999,272.24101440000004,270.4149682,,,,,,,,0,1,1.6128222999998343,None,,,,,,,,801,26,M,L,2026-02-18_11h11.04.166,VisualSearch_2526_3,,2025.2.4,2026-02-18 11h11.04.909311 +0100,
tilted.xlsx,The target is tilted.,117,77,5,9,1,1,1,1,1,1,1,1,0,0,0,0,0,7,8,117,space,11.115191900000013,None,1,1,0.9577869000002011,None,space,2.904543999999987,None,0,0,0,0,,,,,9,5,77,1,272.2570315999999,,,,,,,,,,,,,,,,,,,,,272.2419562,272.2570315999999,272.74090750000005,272.74607709999987,272.7650177999999,273.7244547,,,,,273.7246433999999,273.73958700000003,273.9401438,273.92412790000003,272.7650177999999,,,,,,,,1,1,0.9577869000002011,None,,,,,,,,801,26,M,L,2026-02-18_11h11.04.166,VisualSearch_2526_3,,2025.2.4,2026-02-18 11h11.04.909311 +0100,
tilted.xlsx,The target is tilted.,117,78,6,9,0,1,1,1,1,1,1,1,0,0,0,0,1,7,8,117,space,11.115191900000013,None,1,0,1.750775300000214,None,space,2.904543999999987,None,0,0,0,0,,,,,9,6,78,5,273.9401438,,,,,,,,,,,,,,,,,,,,,273.9249284,273.9401438,274.42399639999985,274.4292221999999,274.448396,276.20750959999987,,,,,276.2076987999999,276.22254399999997,276.4229845,276.40672629999995,274.448396,,,,,,,,1,0,1.750775300000214,None,,,,,,,,801,26,M,L,2026-02-18_11h11.04.166,VisualSearch_2526_3,,2025.2.4,2026-02-18 11h11.04.909311 +0100,
tilted.xlsx,The target is tilted.,117,79,7,9,1,1,1,1,0,0,0,0,0,0,0,0,0,3,4,117,space,11.115191900000013,None,0,0,1.6795609999999215,None,space,2.904543999999987,None,0,0,0,0,,,,,9,7,79,2,276.4229845,,,,,,,,,,,,,,,,,,,,,276.4075312,276.4229845,276.90696490000005,276.91226570000003,276.93149689999996,278.6238919,,,,,278.6240829999999,278.6388385,278.83943509999995,278.8234155,276.93149689999996,,,,,,,,0,0,1.6795609999999215,None,,,,,,,,801,26,M,L,2026-02-18_11h11.04.166,VisualSearch_2526_3,,2025.2.4,2026-02-18 11h11.04.909311 +0100,
tilted.xlsx,The target is tilted.,117,80,0,10,0,1,1,1,1,1,1,1,1,1,1,1,1,11,12,117,space,11.115191900000013,None,1,0,1.408994899999925,None,space,2.904543999999987,None,0,0,0,0,,,,,10,0,80,4,278.83943509999995,,,,,,,,,,,,,,,,,,,,,278.8242356999999,278.83943509999995,279.32292770000004,279.32781520000003,279.3464371,280.77304890000005,,,,,280.7732377,280.78851540000005,280.98924769999985,280.97301619999985,279.3464371,,,,,,,,1,0,1.408994899999925,None,,,,,,,,801,26,M,L,2026-02-18_11h11.04.166,VisualSearch_2526_3,,2025.2.4,2026-02-18 11h11.04.909311 +0100,
tilted.xlsx,The target is tilted.,117,81,1,10,1,1,1,1,0,0,0,0,0,0,0,0,0,3,4,117,space,11.115191900000013,None,0,0,0.9106663000000026,None,space,2.904543999999987,None,0,0,0,0,,,,,10,1,81,2,280.98924769999985,,,,,,,,,,,,,,,,,,,,,280.97386929999993,280.98924769999985,281.4730058,281.4781802,281.4970387999999,282.4227639999999,,,,,282.42295839999997,282.4383221999999,282.63885959999993,282.62233779999997,281.4970387999999,,,,,,,,0,0,0.9106663000000026,None,,,,,,,,801,26,M,L,2026-02-18_11h11.04.166,VisualSearch_2526_3,,2025.2.4,2026-02-18 11h11.04.909311 +0100,
tilted.xlsx,The target is tilted.,117,82,2,10,1,0,0,0,0,0,0,0,0,0,0,0,0,0,1,117,space,11.115191900000013,None,0,0,0.5598250999998982,None,space,2.904543999999987,None,0,0,0,0,,,,,10,2,82,3,282.63885959999993,,,,,,,,,,,,,,,,,,,,,282.62306390000003,282.63885959999993,283.1226079999999,283.12766250000004,283.14805309999997,283.7226235999999,,,,,283.72281150000003,283.73817009999993,283.9387382,283.92269540000007,283.14805309999997,,,,,,,,0,0,0.5598250999998982,None,,,,,,,,801,26,M,L,2026-02-18_11h11.04.166,VisualSearch_2526_3,,2025.2.4,2026-02-18 11h11.04.909311 +0100,
tilted.xlsx,The target is tilted.,117,83,3,10,0,1,1,1,0,0,0,0,0,0,0,0,1,3,4,117,space,11.115191900000013,None,0,1,0.9286217999999735,None,space,2.904543999999987,None,0,0,0,0,,,,,10,3,83,6,283.9387382,,,,,,,,,,,,,,,,,,,,,283.9234933,283.9387382,284.4226237999999,284.42775989999996,284.44591719999994,285.3889363999999,,,,,285.3891758,285.4046082,285.6048567999999,285.58910519999995,284.44591719999994,,,,,,,,0,1,0.9286217999999735,None,,,,,,,,801,26,M,L,2026-02-18_11h11.04.166,VisualSearch_2526_3,,2025.2.4,2026-02-18 11h11.04.909311 +0100,
tilted.xlsx,The target is tilted.,117,84,4,10,1,1,1,1,1,1,1,1,1,1,1,1,0,11,12,117,space,11.115191900000013,None,1,1,1.241508599999861,None,space,2.904543999999987,None,0,0,0,0,,,,,10,4,84,0,285.6048567999999,,,,,,,,,,,,,,,,,,,,,285.5899016999999,285.6048567999999,286.08906980000006,286.09429639999985,286.1132918999999,287.3726058,,,,,287.3727967,287.3881294,287.5881912,287.5718597,286.1132918999999,,,,,,,,1,1,1.241508599999861,None,,,,,,,,801,26,M,L,2026-02-18_11h11.04.166,VisualSearch_2526_3,,2025.2.4,2026-02-18 11h11.04.909311 +0100,
tilted.xlsx,The target is tilted.,117,85,5,10,1,1,1,1,1,1,1,1,0,0,0,0,0,7,8,117,space,11.115191900000013,None,1,1,0.6275259999999889,None,space,2.904543999999987,None,0,0,0,0,,,,,10,5,85,1,287.5881912,,,,,,,,,,,,,,,,,,,,,287.57268580000004,287.5881912,288.07208719999994,288.0767401999999,288.09505119999994,288.7387644999999,,,,,288.73895730000004,288.7542249999999,288.9547608999999,288.93860730000006,288.09505119999994,,,,,,,,1,1,0.6275259999999889,None,,,,,,,,801,26,M,L,2026-02-18_11h11.04.166,VisualSearch_2526_3,,2025.2.4,2026-02-18 11h11.04.909311 +0100,
tilted.xlsx,The target is tilted.,117,86,6,10,0,0,0,0,0,0,0,0,0,0,0,0,1,1,1,117,space,11.115191900000013,None,0,1,0.7199383000001944,None,space,2.904543999999987,None,0,0,0,0,,,,,10,6,86,7,288.9547608999999,,,,,,,,,,,,,,,,,,,,,288.93941829999994,288.9547608999999,289.43850410000005,289.4437195999999,289.4651114999999,290.1885230999999,,,,,290.18870960000004,290.20426599999996,290.40454780000005,290.38836820000006,289.4651114999999,,,,,,,,0,1,0.7199383000001944,None,,,,,,,,801,26,M,L,2026-02-18_11h11.04.166,VisualSearch_2526_3,,2025.2.4,2026-02-18 11h11.04.909311 +0100,
tilted.xlsx,The target is tilted.,117,87,7,10,0,1,1,1,1,1,1,1,0,0,0,0,1,7,8,117,space,11.115191900000013,None,1,0,1.0077938000001723,None,space,2.904543999999987,None,0,0,0,0,,,,,10,7,87,5,290.40454780000005,,,,,,,,,,,,,,,,,,,,,290.38918609999996,290.40454780000005,290.88837739999985,290.8936578,290.9130866999999,291.93865189999997,,,,,291.9388437,291.9541030999999,292.15413979999994,292.13788869999985,290.9130866999999,,,,,,,,1,0,1.0077938000001723,None,,,,,,,,801,26,M,L,2026-02-18_11h11.04.166,VisualSearch_2526_3,,2025.2.4,2026-02-18 11h11.04.909311 +0100,
tilted.xlsx,The target is tilted.,117,88,0,11,1,0,0,0,0,0,0,0,0,0,0,0,0,0,1,117,space,11.115191900000013,None,0,0,0.5980329999999867,None,space,2.904543999999987,None,0,0,0,0,,,,,11,0,88,3,292.15413979999994,,,,,,,,,,,,,,,,,,,,,292.1387,292.15413979999994,292.6381025999999,292.6433368999999,292.66196130000003,293.2715355999999,,,,,293.2717499999999,293.287204,293.48735869999996,293.4713595999999,292.66196130000003,,,,,,,,0,0,0.5980329999999867,None,,,,,,,,801,26,M,L,2026-02-18_11h11.04.166,VisualSearch_2526_3,,2025.2.4,2026-02-18 11h11.04.909311 +0100,
tilted.xlsx,The target is tilted.,117,89,1,11,0,1,1,1,0,0,0,0,0,0,0,0,1,3,4,117,space,11.115191900000013,None,0,1,0.7482927999999447,None,space,2.904543999999987,None,0,0,0,0,,,,,11,1,89,6,293.48735869999996,,,,,,,,,,,,,,,,,,,,,293.47215630000005,293.48735869999996,293.97129300000006,293.97632299999987,293.99422389999995,294.7550262,,,,,294.75523999999996,294.7701153999999,294.9703990999999,294.95423200000005,293.99422389999995,,,,,,,,0,1,0.7482927999999447,None,,,,,,,,801,26,M,L,2026-02-18_11h11.04.166,VisualSearch_2526_3,,2025.2.4,2026-02-18 11h11.04.909311 +0100,
tilted.xlsx,The target is tilted.,117,90,2,11,0,0,0,0,0,0,0,0,0,0,0,0,1,1,1,117,space,11.115191900000013,None,0,1,0.921588699999802,None,space,2.904543999999987,None,0,0,0,0,,,,,11,2,90,7,294.9703990999999,,,,,,,,,,,,,,,,,,,,,294.95501390000004,294.9703990999999,295.4544808999999,295.4596678999999,295.48057790000007,296.4046607999999,,,,,296.40485089999993,296.4202023,296.62014769999996,296.6036749,295.48057790000007,,,,,,,,0,1,0.921588699999802,None,,,,,,,,801,26,M,L,2026-02-18_11h11.04.166,VisualSearch_2526_3,,2025.2.4,2026-02-18 11h11.04.909311 +0100,
tilted.xlsx,The target is tilted.,117,91,3,11,0,1,1,1,1,1,1,1,0,0,0,0,1,7,8,117,space,11.115191900000013,None,0,1,1.8741574999999102,None,space,2.904543999999987,None,0,0,0,0,,,,,11,3,91,5,296.62014769999996,,,,,,,,,,,,,,,,,,,,,296.6044067,296.62014769999996,297.1040229,297.1085427999999,297.1272334999999,299.0042948999999,,,,,299.0044811,299.0196366,299.2196515999999,299.2033557,297.1272334999999,,,,,,,,0,1,1.8741574999999102,None,,,,,,,,801,26,M,L,2026-02-18_11h11.04.166,VisualSearch_2526_3,,2025.2.4,2026-02-18 11h11.04.909311 +0100,
tilted.xlsx,The target is tilted.,117,92,4,11,1,1,1,1,0,0,0,0,0,0,0,0,0,3,4,117,space,11.115191900000013,None,0,0,0.7935640999999123,None,space,2.904543999999987,None,0,0,0,0,,,,,11,4,92,2,299.2196515999999,,,,,,,,,,,,,,,,,,,,,299.20427100000006,299.2196515999999,299.70370379999986,299.70884060000003,299.7274866,300.53740859999994,,,,,300.5375996,300.5528594,300.75296660000004,300.7367104,299.7274866,,,,,,,,0,0,0.7935640999999123,None,,,,,,,,801,26,M,L,2026-02-18_11h11.04.166,VisualSearch_2526_3,,2025.2.4,2026-02-18 11h11.04.909311 +0100,
tilted.xlsx,The target is tilted.,117,93,5,11,1,1,1,1,1,1,1,1,1,1,1,1,0,11,12,117,space,11.115191900000013,None,1,1,3.9684320999999727,None,space,2.904543999999987,None,0,0,0,0,,,,,11,5,93,0,300.75296660000004,,,,,,,,,,,,,,,,,,,,,300.73747230000004,300.75296660000004,301.2368437,301.2418304999999,301.26116909999996,305.23660100000006,,,,,305.2367924,305.25220880000006,305.45233310000003,305.43610999999987,301.26116909999996,,,,,,,,1,1,3.9684320999999727,None,,,,,,,,801,26,M,L,2026-02-18_11h11.04.166,VisualSearch_2526_3,,2025.2.4,2026-02-18 11h11.04.909311 +0100,
tilted.xlsx,The target is tilted.,117,94,6,11,1,1,1,1,1,1,1,1,0,0,0,0,0,7,8,117,space,11.115191900000013,None,1,1,1.3654110999998466,None,space,2.904543999999987,None,0,0,0,0,,,,,11,6,94,1,305.45233310000003,,,,,,,,,,,,,,,,,,,,,305.43695479999997,305.45233310000003,305.9358124999999,305.9408696999999,305.95956649999994,307.3362852999999,,,,,307.33647640000004,307.3519239,307.55208489999995,307.53560249999987,305.95956649999994,,,,,,,,1,1,1.3654110999998466,None,,,,,,,,801,26,M,L,2026-02-18_11h11.04.166,VisualSearch_2526_3,,2025.2.4,2026-02-18 11h11.04.909311 +0100,
tilted.xlsx,The target is tilted.,117,95,7,11,0,1,1,1,1,1,1,1,1,1,1,1,1,11,12,117,space,11.115191900000013,None,1,0,3.0377871000000596,None,space,2.904543999999987,None,0,0,0,0,,,,,11,7,95,4,307.55208489999995,,,,,,,,,,,,,,,,,,,,,307.53650889999994,307.55208489999995,308.03559070000006,308.0406713,308.05870529999993,311.1025425,,,,,311.10273540000003,311.11823389999995,311.3179531999999,311.30214709999996,308.05870529999993,,,,,,,,1,0,3.0377871000000596,None,,,,,,,,801,26,M,L,2026-02-18_11h11.04.166,VisualSearch_2526_3,,2025.2.4,2026-02-18 11h11.04.909311 +0100,
tilted.xlsx,The target is tilted.,117,96,0,12,0,1,1,1,0,0,0,0,0,0,0,0,1,3,4,117,space,11.115191900000013,None,0,1,0.79126169999995,None,space,2.904543999999987,None,0,0,0,0,,,,,12,0,96,6,311.3179531999999,,,,,,,,,,,,,,,,,,,,,311.30303179999987,311.3179531999999,311.80208059999995,311.8071906,311.8260527,312.61867970000003,,,,,312.61888499999986,312.63446469999985,312.8346663,312.8184821,311.8260527,,,,,,,,0,1,0.79126169999995,None,,,,,,,,801,26,M,L,2026-02-18_11h11.04.166,VisualSearch_2526_3,,2025.2.4,2026-02-18 11h11.04.909311 +0100,
tilted.xlsx,The target is tilted.,117,97,1,12,1,1,1,1,1,1,1,1,1,1,1,1,0,11,12,117,space,11.115191900000013,None,1,1,2.509719600000153,None,space,2.904543999999987,None,0,0,0,0,,,,,12,1,97,0,312.8346663,,,,,,,,,,,,,,,,,,,,,312.81918339999993,312.8346663,313.31826750000005,313.3232788999999,313.3422217,315.8685903999999,,,,,315.8687949,315.88415209999994,316.0841588999999,316.0680608,313.3422217,,,,,,,,1,1,2.509719600000153,None,,,,,,,,801,26,M,L,2026-02-18_11h11.04.166,VisualSearch_2526_3,,2025.2.4,2026-02-18 11h11.04.909311 +0100,
tilted.xlsx,The target is tilted.,117,98,2,12,1,0,0,0,0,0,0,0,0,0,0,0,0,0,1,117,space,11.115191900000013,None,0,0,0.6896027999998751,None,space,2.904543999999987,None,0,0,0,0,,,,,12,2,98,3,316.0841588999999,,,,,,,,,,,,,,,,,,,,,316.0688863999999,316.0841588999999,316.56808679999995,316.57324790000007,316.5922275999999,317.28507190000005,,,,,317.28526339999985,317.300653,317.50066289999995,317.48460899999986,316.5922275999999,,,,,,,,0,0,0.6896027999998751,None,,,,,,,,801,26,M,L,2026-02-18_11h11.04.166,VisualSearch_2526_3,,2025.2.4,2026-02-18 11h11.04.909311 +0100,
tilted.xlsx,The target is tilted.,117,99,3,12,0,0,0,0,0,0,0,0,0,0,0,0,1,1,1,117,space,11.115191900000013,None,0,1,0.6037764000000152,None,space,2.904543999999987,None,0,0,0,0,,,,,12,3,99,7,317.50066289999995,,,,,,,,,,,,,,,,,,,,,317.4854811,317.50066289999995,317.9843418999999,317.988793,318.0068114999999,318.61811149999994,,,,,318.6183045,318.6335767999999,318.83347989999993,318.8174079999999,318.0068114999999,,,,,,,,0,1,0.6037764000000152,None,,,,,,,,801,26,M,L,2026-02-18_11h11.04.166,VisualSearch_2526_3,,2025.2.4,2026-02-18 11h11.04.909311 +0100,
tilted.xlsx,The target is tilted.,117,100,4,12,0,1,1,1,1,1,1,1,1,1,1,1,1,11,12,117,space,11.115191900000013,None,0,1,0.2010413000000426,None,space,2.904543999999987,None,0,0,0,0,,,,,12,4,100,4,318.83347989999993,,,,,,,,,,,,,,,,,,,,,318.81821949999994,318.83347989999993,319.3176549,319.3227915,319.34080389999986,319.55150520000007,,,,,319.5517221,319.56690660000004,319.7667349999999,319.7507487999999,319.34080389999986,,,,,,,,0,1,0.2010413000000426,None,,,,,,,,801,26,M,L,2026-02-18_11h11.04.166,VisualSearch_2526_3,,2025.2.4,2026-02-18 11h11.04.909311 +0100,
tilted.xlsx,The target is tilted.,117,101,5,12,0,1,1,1,1,1,1,1,0,0,0,0,1,7,8,117,space,11.115191900000013,None,1,0,1.1541566999999304,None,space,2.904543999999987,None,0,0,0,0,,,,,12,5,101,5,319.7667349999999,,,,,,,,,,,,,,,,,,,,,319.75157579999996,319.7667349999999,320.2509296999999,320.25611660000004,320.27481999999986,321.4344315999999,,,,,321.43462380000005,321.44973660000005,321.65009929999997,321.6340192,320.27481999999986,,,,,,,,1,0,1.1541566999999304,None,,,,,,,,801,26,M,L,2026-02-18_11h11.04.166,VisualSearch_2526_3,,2025.2.4,2026-02-18 11h11.04.909311 +0100,
tilted.xlsx,The target is tilted.,117,102,6,12,1,1,1,1,1,1,1,1,0,0,0,0,0,7,8,117,space,11.115191900000013,None,1,1,0.7245241999999052,None,space,2.904543999999987,None,0,0,0,0,,,,,12,6,102,1,321.65009929999997,,,,,,,,,,,,,,,,,,,,,321.6348201999999,321.65009929999997,322.13394629999993,322.13898589999985,322.1568551999999,322.8845108999999,,,,,322.8847086999999,322.8997374999999,323.0999262,323.08385440000006,322.1568551999999,,,,,,,,1,1,0.7245241999999052,None,,,,,,,,801,26,M,L,2026-02-18_11h11.04.166,VisualSearch_2526_3,,2025.2.4,2026-02-18 11h11.04.909311 +0100,
tilted.xlsx,The target is tilted.,117,103,7,12,1,1,1,1,0,0,0,0,0,0,0,0,0,3,4,117,space,11.115191900000013,None,0,0,1.2985940999999457,None,space,2.904543999999987,None,0,0,0,0,,,,,12,7,103,2,323.0999262,,,,,,,,,,,,,,,,,,,,,323.08465060000003,323.0999262,323.58372639999993,323.5882658999999,323.6069175,324.9172865999999,,,,,324.9174748999999,324.93272750000006,325.13285399999995,325.1165742999999,323.6069175,,,,,,,,0,0,1.2985940999999457,None,,,,,,,,801,26,M,L,2026-02-18_11h11.04.166,VisualSearch_2526_3,,2025.2.4,2026-02-18 11h11.04.909311 +0100,
tilted.xlsx,The target is tilted.,117,104,0,13,1,1,1,1,0,0,0,0,0,0,0,0,0,3,4,117,space,11.115191900000013,None,0,0,1.1518994000000475,None,space,2.904543999999987,None,0,0,0,0,,,,,13,0,104,2,325.13285399999995,,,,,,,,,,,,,,,,,,,,,325.11740839999993,325.13285399999995,325.61659029999987,325.6216769,325.6396293999999,326.80036369999993,,,,,326.80055189999985,326.81584499999985,327.0154098999999,327.00027769999997,325.6396293999999,,,,,,,,0,0,1.1518994000000475,None,,,,,,,,801,26,M,L,2026-02-18_11h11.04.166,VisualSearch_2526_3,,2025.2.4,2026-02-18 11h11.04.909311 +0100,
tilted.xlsx,The target is tilted.,117,105,1,13,1,1,1,1,1,1,1,1,0,0,0,0,0,7,8,117,space,11.115191900000013,None,1,1,1.4050171000001228,None,space,2.904543999999987,None,0,0,0,0,,,,,13,1,105,1,327.0154098999999,,,,,,,,,,,,,,,,,,,,,327.0011308999999,327.0154098999999,327.4998742,327.5050323999999,327.52361730000007,328.9332901999999,,,,,328.933528,328.9489406,329.1487222999999,329.1329587,327.52361730000007,,,,,,,,1,1,1.4050171000001228,None,,,,,,,,801,26,M,L,2026-02-18_11h11.04.166,VisualSearch_2526_3,,2025.2.4,2026-02-18 11h11.04.909311 +0100,
tilted.xlsx,The target is tilted.,117,106,2,13,0,1,1,1,0,0,0,0,0,0,0,0,1,3,4,117,space,11.115191900000013,None,0,1,1.149422100000038,None,space,2.904543999999987,None,0,0,0,0,,,,,13,2,106,6,329.1487222999999,,,,,,,,,,,,,,,,,,,,,329.1337607999999,329.1487222999999,329.6328412999999,329.63798380000003,329.65701910000007,330.8164288999999,,,,,330.81663379999986,330.83167619999995,331.03200519999996,331.0156147,329.65701910000007,,,,,,,,0,1,1.149422100000038,None,,,,,,,,801,26,M,L,2026-02-18_11h11.04.166,VisualSearch_2526_3,,2025.2.4,2026-02-18 11h11.04.909311 +0100,
tilted.xlsx,The target is tilted.,117,107,3,13,1,1,1,1,1,1,1,1,1,1,1,1,0,11,12,117,space,11.115191900000013,None,1,1,0.9602053999999498,None,space,2.904543999999987,None,0,0,0,0,,,,,13,3,107,0,331.03200519999996,,,,,,,,,,,,,,,,,,,,,331.01642019999986,331.03200519999996,331.5155857,331.5207733,331.5391903,332.5160592,,,,,332.516249,332.53166510000005,332.7318396999999,332.71548039999993,331.5391903,,,,,,,,1,1,0.9602053999999498,None,,,,,,,,801,26,M,L,2026-02-18_11h11.04.166,VisualSearch_2526_3,,2025.2.4,2026-02-18 11h11.04.909311 +0100,
tilted.xlsx,The target is tilted.,117,108,4,13,0,1,1,1,1,1,1,1,0,0,0,0,1,7,8,117,space,11.115191900000013,None,1,0,0.9402906000000257,None,space,2.904543999999987,None,0,0,0,0,,,,,13,4,108,5,332.7318396999999,,,,,,,,,,,,,,,,,,,,,332.7163217,332.7318396999999,333.21535760000006,333.220552,333.23913029999994,334.1827192999999,,,,,334.18291180000006,334.19810059999986,334.39822720000006,334.3822086,333.23913029999994,,,,,,,,1,0,0.9402906000000257,None,,,,,,,,801,26,M,L,2026-02-18_11h11.04.166,VisualSearch_2526_3,,2025.2.4,2026-02-18 11h11.04.909311 +0100,
tilted.xlsx,The target is tilted.,117,109,5,13,1,0,0,0,0,0,0,0,0,0,0,0,0,0,1,117,space,11.115191900000013,None,0,0,0.609713900000088,None,space,2.904543999999987,None,0,0,0,0,,,,,13,5,109,3,334.39822720000006,,,,,,,,,,,,,,,,,,,,,334.38302279999994,334.39822720000006,334.88215809999997,334.88736059999997,334.9064186999999,335.53246420000005,,,,,335.5326593,335.54796809999993,335.74792449999995,335.73204080000005,334.9064186999999,,,,,,,,0,0,0.609713900000088,None,,,,,,,,801,26,M,L,2026-02-18_11h11.04.166,VisualSearch_2526_3,,2025.2.4,2026-02-18 11h11.04.909311 +0100,
tilted.xlsx,The target is tilted.,117,110,6,13,0,1,1,1,1,1,1,1,1,1,1,1,1,11,12,117,space,11.115191900000013,None,0,1,3.192387399999916,None,space,2.904543999999987,None,0,0,0,0,,,,,13,6,110,4,335.74792449999995,,,,,,,,,,,,,,,,,,,,,335.7328737,335.74792449999995,336.2319751,336.2370412999999,336.2564239999999,339.4652762999999,,,,,339.4654699,339.48071789999995,339.68083090000005,339.66480120000006,336.2564239999999,,,,,,,,0,1,3.192387399999916,None,,,,,,,,801,26,M,L,2026-02-18_11h11.04.166,VisualSearch_2526_3,,2025.2.4,2026-02-18 11h11.04.909311 +0100,
tilted.xlsx,The target is tilted.,117,111,7,13,0,0,0,0,0,0,0,0,0,0,0,0,1,1,1,117,space,11.115191900000013,None,0,1,0.5968804999999975,None,space,2.904543999999987,None,0,0,0,0,,,,,13,7,111,7,339.68083090000005,,,,,,,,,,,,,,,,,,,,,339.6655937999999,339.68083090000005,340.1646808999999,340.16973559999997,340.1887509999999,340.79887940000003,,,,,340.79909509999993,340.81395769999995,341.0139554,340.9973995999999,340.1887509999999,,,,,,,,0,1,0.5968804999999975,None,,,,,,,,801,26,M,L,2026-02-18_11h11.04.166,VisualSearch_2526_3,,2025.2.4,2026-02-18 11h11.04.909311 +0100,
tilted.xlsx,The target is tilted.,117,112,0,14,0,0,0,0,0,0,0,0,0,0,0,0,1,1,1,117,space,11.115191900000013,None,0,1,0.49518590000002405,None,space,2.904543999999987,None,0,0,0,0,,,,,14,0,112,7,341.0139554,,,,,,,,,,,,,,,,,,,,,340.99815979999994,341.0139554,341.49737589999995,341.50192160000006,341.5205335999999,342.0311907999999,,,,,342.0313824,342.0470121999999,342.2468048999999,342.23112560000004,341.5205335999999,,,,,,,,0,1,0.49518590000002405,None,,,,,,,,801,26,M,L,2026-02-18_11h11.04.166,VisualSearch_2526_3,,2025.2.4,2026-02-18 11h11.04.909311 +0100,
tilted.xlsx,The target is tilted.,117,113,1,14,0,1,1,1,1,1,1,1,0,0,0,0,1,7,8,117,space,11.115191900000013,None,1,0,0.8939156999999796,None,space,2.904543999999987,None,0,0,0,0,,,,,14,1,113,5,342.2468048999999,,,,,,,,,,,,,,,,,,,,,342.2319330999999,342.2468048999999,342.7310459,342.73616130000005,342.7543002,343.6646719999999,,,,,343.66486269999996,343.68005689999995,343.88028110000005,343.8641846999999,342.7543002,,,,,,,,1,0,0.8939156999999796,None,,,,,,,,801,26,M,L,2026-02-18_11h11.04.166,VisualSearch_2526_3,,2025.2.4,2026-02-18 11h11.04.909311 +0100,
tilted.xlsx,The target is tilted.,117,114,2,14,1,0,0,0,0,0,0,0,0,0,0,0,0,0,1,117,space,11.115191900000013,None,0,0,0.6868246999999883,None,space,2.904543999999987,None,0,0,0,0,,,,,14,2,114,3,343.88028110000005,,,,,,,,,,,,,,,,,,,,,343.8650253999999,343.88028110000005,344.36409090000006,344.36928510000007,344.3878499,345.08116640000003,,,,,345.0813814999999,345.0966083999999,345.2965746,345.2806444999999,344.3878499,,,,,,,,0,0,0.6868246999999883,None,,,,,,,,801,26,M,L,2026-02-18_11h11.04.166,VisualSearch_2526_3,,2025.2.4,2026-02-18 11h11.04.909311 +0100,
tilted.xlsx,The target is tilted.,117,115,3,14,0,1,1,1,1,1,1,1,1,1,1,1,1,11,12,117,space,11.115191900000013,None,1,0,1.553151200000002,None,space,2.904543999999987,None,0,0,0,0,,,,,14,3,115,4,345.2965746,,,,,,,,,,,,,,,,,,,,,345.2814553999999,345.2965746,345.78033830000004,345.78479919999995,345.8032705999999,347.36407510000004,,,,,347.36426589999996,347.37926760000005,347.5797335,347.5636302999999,345.8032705999999,,,,,,,,1,0,1.553151200000002,None,,,,,,,,801,26,M,L,2026-02-18_11h11.04.166,VisualSearch_2526_3,,2025.2.4,2026-02-18 11h11.04.909311 +0100,
tilted.xlsx,The target is tilted.,117,116,4,14,1,1,1,1,0,0,0,0,0,0,0,0,0,3,4,117,space,11.115191900000013,None,0,0,0.8907040999999936,None,space,2.904543999999987,None,0,0,0,0,,,,,14,4,116,2,347.5797335,,,,,,,,,,,,,,,,,,,,,347.5644408999999,347.5797335,348.06323640000005,348.0678427999999,348.0864867999999,348.98055539999996,,,,,348.9807489,348.9959363999999,349.19609119999996,349.1801252,348.0864867999999,,,,,,,,0,0,0.8907040999999936,None,,,,,,,,801,26,M,L,2026-02-18_11h11.04.166,VisualSearch_2526_3,,2025.2.4,2026-02-18 11h11.04.909311 +0100,
tilted.xlsx,The target is tilted.,117,117,5,14,1,1,1,1,1,1,1,1,1,1,1,1,0,11,12,117,space,11.115191900000013,None,1,1,0.9427817999999206,None,space,2.904543999999987,None,0,0,0,0,,,,,14,5,117,0,349.19609119999996,,,,,,,,,,,,,,,,,,,,,349.1809532,349.19609119999996,349.6800100999999,349.6852693000001,349.70468729999993,350.6635707999999,,,,,350.6637624,350.6792347999999,350.8792337,350.8632012999999,349.70468729999993,,,,,,,,1,1,0.9427817999999206,None,,,,,,,,801,26,M,L,2026-02-18_11h11.04.166,VisualSearch_2526_3,,2025.2.4,2026-02-18 11h11.04.909311 +0100,
tilted.xlsx,The target is tilted.,117,118,6,14,0,1,1,1,0,0,0,0,0,0,0,0,1,3,4,117,space,11.115191900000013,None,0,1,1.3572604999999385,None,space,2.904543999999987,None,0,0,0,0,,,,,14,6,118,6,350.8792337,,,,,,,,,,,,,,,,,,,,,350.8639774999999,350.8792337,351.36305790000006,351.36824379999985,351.38696490000007,352.746533,,,,,352.74673699999994,352.76213919999987,352.96216789999994,352.94606120000003,351.38696490000007,,,,,,,,0,1,1.3572604999999385,None,,,,,,,,801,26,M,L,2026-02-18_11h11.04.166,VisualSearch_2526_3,,2025.2.4,2026-02-18 11h11.04.909311 +0100,
tilted.xlsx,The target is tilted.,117,119,7,14,1,1,1,1,1,1,1,1,0,0,0,0,0,7,8,117,space,11.115191900000013,None,1,1,1.3077546000001803,None,space,2.904543999999987,None,0,0,0,0,,,,,14,7,119,1,352.96216789999994,,,,,,,,,,,,,,,,,,,,,352.94689300000005,352.96216789999994,353.4461569,353.45122160000005,353.4697833,354.7797217,,,,,354.77992489999997,354.7949567999999,355.02080869999986,354.97929980000004,353.4697833,,,,,,,,1,1,1.3077546000001803,None,,,,,,,,801,26,M,L,2026-02-18_11h11.04.166,VisualSearch_2526_3,,2025.2.4,2026-02-18 11h11.04.909311 +0100,
tilted.xlsx,The target is tilted.,117,0,0,0,,,,,,,,,,,,,,,,,space,11.115191900000013,None,,,,,space,2.904543999999987,None,0,0,0,0,,,,,,,,,,,,,,,,,,,,,,,,,,,,,,,,,,,,,,,,,,,,,,,,,,,,,,,,,,,,,,,801,26,M,L,2026-02-18_11h11.04.166,VisualSearch_2526_3,,2025.2.4,2026-02-18 11h11.04.909311 +0100,
vertical.xlsx,The target is tilted.,135,0,0,0,0,1,1,1,1,1,1,1,0,0,0,0,1,7,8,135,space,21.16059599999994,None,0,1,1.2749108999998953,None,,,,0,1,1,1,0,0,0,5,,,,,376.2992202999999,,,,,,,,,,,,,,,355.02080869999986,355.02080869999986,355.02080869999986,space,21.16059599999994,None,376.2934651999999,376.2992202999999,376.70887059999995,376.71408829999996,376.73529859999985,378.02623689999996,0,1,1.2749108999998953,None,378.0264514999999,378.0419113999999,378.2420316,378.22557959999995,,,,,,,,,,,,,,,,,,,,801,26,M,L,2026-02-18_11h11.04.166,VisualSearch_2526_3,,2025.2.4,2026-02-18 11h11.04.909311 +0100,
vertical.xlsx,The target is tilted.,135,1,1,0,1,1,1,1,0,0,0,0,0,0,0,0,0,3,4,135,space,21.16059599999994,None,1,1,0.6858455000001413,None,,,,0,1,1,1,0,1,1,2,,,,,378.2420316,,,,,,,,,,,,,,,,,,,,,378.22634029999995,378.2420316,378.72554279999986,378.7304924,378.7494492000001,379.4428487,1,1,0.6858455000001413,None,379.44303349999996,379.45841270000005,379.6584854,379.6425363999999,378.7494492000001,,,,,,,,,,,,,,,,,,,801,26,M,L,2026-02-18_11h11.04.166,VisualSearch_2526_3,,2025.2.4,2026-02-18 11h11.04.909311 +0100,
vertical.xlsx,The target is tilted.,135,2,2,0,0,1,1,1,0,0,0,0,0,0,0,0,1,3,4,135,space,21.16059599999994,None,0,1,0.6492992000000868,None,,,,0,1,1,1,0,2,2,6,,,,,379.6584854,,,,,,,,,,,,,,,,,,,,,379.643274,379.6584854,380.14240659999996,380.14741159999994,380.16525019999995,380.82567900000004,0,1,0.6492992000000868,None,380.8258624,380.84136639999997,381.04163659999995,381.02555000000007,380.16525019999995,,,,,,,,,,,,,,,,,,,801,26,M,L,2026-02-18_11h11.04.166,VisualSearch_2526_3,,2025.2.4,2026-02-18 11h11.04.909311 +0100,
vertical.xlsx,The target is tilted.,135,3,3,0,1,1,1,1,1,1,1,1,0,0,0,0,0,7,8,135,space,21.16059599999994,None,1,1,1.0045204000000467,None,,,,0,1,1,1,0,3,3,1,,,,,381.04163659999995,,,,,,,,,,,,,,,,,,,,,381.02633650000007,381.04163659999995,381.5255098,381.53069849999997,381.54930909999985,382.5587510999999,1,1,1.0045204000000467,None,382.5589365999999,382.5742158999999,382.7747377999999,382.75808789999996,381.54930909999985,,,,,,,,,,,,,,,,,,,801,26,M,L,2026-02-18_11h11.04.166,VisualSearch_2526_3,,2025.2.4,2026-02-18 11h11.04.909311 +0100,
vertical.xlsx,The target is tilted.,135,4,4,0,0,1,1,1,1,1,1,1,1,1,1,1,1,11,12,135,space,21.16059599999994,None,0,1,1.2036836999998286,None,,,,0,1,1,1,0,4,4,4,,,,,382.7747377999999,,,,,,,,,,,,,,,,,,,,,382.75875989999986,382.7747377999999,383.25863359999994,383.26405810000006,383.28387769999995,384.4919273999999,0,1,1.2036836999998286,None,384.49211349999996,384.50750489999996,384.7078194999999,384.69175889999997,383.28387769999995,,,,,,,,,,,,,,,,,,,801,26,M,L,2026-02-18_11h11.04.166,VisualSearch_2526_3,,2025.2.4,2026-02-18 11h11.04.909311 +0100,
vertical.xlsx,The target is tilted.,135,5,5,0,1,1,1,1,1,1,1,1,1,1,1,1,0,11,12,135,space,21.16059599999994,None,0,0,1.0807070999999269,None,,,,0,1,1,1,0,5,5,0,,,,,384.7078194999999,,,,,,,,,,,,,,,,,,,,,384.69252170000004,384.7078194999999,385.1917100999999,385.19690220000007,385.21548669999993,386.3085965999999,0,0,1.0807070999999269,None,386.3087840999999,386.3241163,386.52417249999985,386.50758930000006,385.21548669999993,,,,,,,,,,,,,,,,,,,801,26,M,L,2026-02-18_11h11.04.166,VisualSearch_2526_3,,2025.2.4,2026-02-18 11h11.04.909311 +0100,
vertical.xlsx,The target is tilted.,135,6,6,0,0,0,0,0,0,0,0,0,0,0,0,0,1,1,1,135,space,21.16059599999994,None,0,1,0.5987656000002062,None,,,,0,1,1,1,0,6,6,7,,,,,386.52417249999985,,,,,,,,,,,,,,,,,,,,,386.50826770000003,386.52417249999985,387.00801980000006,387.01323809999985,387.03385159999993,387.64177159999986,0,1,0.5987656000002062,None,387.6419555,387.65712600000006,387.8570560999999,387.8409308999999,387.03385159999993,,,,,,,,,,,,,,,,,,,801,26,M,L,2026-02-18_11h11.04.166,VisualSearch_2526_3,,2025.2.4,2026-02-18 11h11.04.909311 +0100,
vertical.xlsx,The target is tilted.,135,7,7,0,1,0,0,0,0,0,0,0,0,0,0,0,0,0,1,135,space,21.16059599999994,None,1,1,0.5878291000001354,None,,,,0,1,1,1,0,7,7,3,,,,,387.8570560999999,,,,,,,,,,,,,,,,,,,,,387.8417064,387.8570560999999,388.3419291,388.34716019999996,388.3665573999999,388.95785639999986,1,1,0.5878291000001354,None,388.95806519999996,388.97361920000003,389.17349979999995,389.1578029,388.3665573999999,,,,,,,,,,,,,,,,,,,801,26,M,L,2026-02-18_11h11.04.166,VisualSearch_2526_3,,2025.2.4,2026-02-18 11h11.04.909311 +0100,
vertical.xlsx,The target is tilted.,135,0,0,0,0,1,1,1,1,1,1,1,0,0,0,0,1,7,8,135,space,21.16059599999994,None,0,1,0.9491977000000134,None,space,2.0964374000000134,None,0,1,1,1,,,,,0,0,0,5,391.31730319999997,,,,,,,,,,,,,,,,,,,,,391.3115006999999,391.31730319999997,391.79046919999996,391.79572699999994,391.8146950999999,392.77438519999987,,,,,392.77457989999994,392.7899665,392.98993240000004,392.9737938999999,,389.1663303999999,389.17349979999995,389.17349979999995,391.2742046999999,space,2.0964374000000134,None,0,1,0.9491977000000134,None,,,,,,,,801,26,M,L,2026-02-18_11h11.04.166,VisualSearch_2526_3,,2025.2.4,2026-02-18 11h11.04.909311 +0100,
vertical.xlsx,The target is tilted.,135,1,1,0,1,1,1,1,0,0,0,0,0,0,0,0,0,3,4,135,space,21.16059599999994,None,0,0,0.5057277000000795,None,space,2.0964374000000134,None,0,1,1,1,,,,,0,1,1,2,392.98993240000004,,,,,,,,,,,,,,,,,,,,,392.9746502999999,392.98993240000004,393.47375250000005,393.47832089999997,393.49696990000007,394.0074221,,,,,394.0076397,394.0228261,394.22346500000003,394.2070039,393.49696990000007,,,,,,,,0,0,0.5057277000000795,None,,,,,,,,801,26,M,L,2026-02-18_11h11.04.166,VisualSearch_2526_3,,2025.2.4,2026-02-18 11h11.04.909311 +0100,
vertical.xlsx,The target is tilted.,135,2,2,0,0,1,1,1,1,1,1,1,1,1,1,1,1,11,12,135,space,21.16059599999994,None,0,1,1.1383624999998574,None,space,2.0964374000000134,None,0,1,1,1,,,,,0,2,2,4,394.22346500000003,,,,,,,,,,,,,,,,,,,,,394.2078225999999,394.22346500000003,394.70700110000007,394.7120857,394.7305345,395.8738805999999,,,,,395.87407239999993,395.8895132,396.0894942,396.0735098,394.7305345,,,,,,,,0,1,1.1383624999998574,None,,,,,,,,801,26,M,L,2026-02-18_11h11.04.166,VisualSearch_2526_3,,2025.2.4,2026-02-18 11h11.04.909311 +0100,
vertical.xlsx,The target is tilted.,135,3,3,0,1,0,0,0,0,0,0,0,0,0,0,0,0,0,1,135,space,21.16059599999994,None,1,1,0.42328999999995176,None,space,2.0964374000000134,None,0,1,1,1,,,,,0,3,3,3,396.0894942,,,,,,,,,,,,,,,,,,,,,396.07430239999985,396.0894942,396.5734255,396.57865590000006,396.5973288,397.02380619999985,,,,,397.02399489999993,397.03888200000006,397.23927950000007,397.22313800000006,396.5973288,,,,,,,,1,1,0.42328999999995176,None,,,,,,,,801,26,M,L,2026-02-18_11h11.04.166,VisualSearch_2526_3,,2025.2.4,2026-02-18 11h11.04.909311 +0100,
vertical.xlsx,The target is tilted.,135,4,4,0,1,1,1,1,1,1,1,1,1,1,1,1,0,11,12,135,space,21.16059599999994,None,1,1,0.8807832999998482,None,space,2.0964374000000134,None,0,1,1,1,,,,,0,4,4,0,397.23927950000007,,,,,,,,,,,,,,,,,,,,,397.22389899999985,397.23927950000007,397.7227886999999,397.72729920000006,397.745946,398.6402335999999,,,,,398.6404261,398.65559540000004,398.85554279999997,398.8395361999999,397.745946,,,,,,,,1,1,0.8807832999998482,None,,,,,,,,801,26,M,L,2026-02-18_11h11.04.166,VisualSearch_2526_3,,2025.2.4,2026-02-18 11h11.04.909311 +0100,
vertical.xlsx,The target is tilted.,135,5,5,0,0,0,0,0,0,0,0,0,0,0,0,0,1,1,1,135,space,21.16059599999994,None,0,1,0.5266887999998744,None,space,2.0964374000000134,None,0,1,1,1,,,,,0,5,5,7,398.85554279999997,,,,,,,,,,,,,,,,,,,,,398.84029680000003,398.85554279999997,399.3391574,399.3437085999999,399.3622484,399.90652049999994,,,,,399.9067138999999,399.921871,400.12230699999986,400.10590290000005,399.3622484,,,,,,,,0,1,0.5266887999998744,None,,,,,,,,801,26,M,L,2026-02-18_11h11.04.166,VisualSearch_2526_3,,2025.2.4,2026-02-18 11h11.04.909311 +0100,
vertical.xlsx,The target is tilted.,135,6,6,0,0,1,1,1,0,0,0,0,0,0,0,0,1,3,4,135,space,21.16059599999994,None,0,1,0.6370386000000963,None,space,2.0964374000000134,None,0,1,1,1,,,,,0,6,6,6,400.12230699999986,,,,,,,,,,,,,,,,,,,,,400.10672810000005,400.12230699999986,400.60620589999985,400.6115863,400.6300200999999,401.27299289999996,,,,,401.27318519999994,401.2883611,401.4883236999999,401.47227759999987,400.6300200999999,,,,,,,,0,1,0.6370386000000963,None,,,,,,,,801,26,M,L,2026-02-18_11h11.04.166,VisualSearch_2526_3,,2025.2.4,2026-02-18 11h11.04.909311 +0100,
vertical.xlsx,The target is tilted.,135,7,7,0,1,1,1,1,1,1,1,1,0,0,0,0,0,7,8,135,space,21.16059599999994,None,0,0,1.0550609000001714,None,space,2.0964374000000134,None,0,1,1,1,,,,,0,7,7,1,401.4883236999999,,,,,,,,,,,,,,,,,,,,,401.47307899999987,401.4883236999999,401.97241370000006,401.97762880000005,401.99615790000007,403.05590159999997,,,,,403.0560969999999,403.07151909999993,403.27185209999993,403.25547959999994,401.99615790000007,,,,,,,,0,0,1.0550609000001714,None,,,,,,,,801,26,M,L,2026-02-18_11h11.04.166,VisualSearch_2526_3,,2025.2.4,2026-02-18 11h11.04.909311 +0100,
vertical.xlsx,The target is tilted.,135,8,0,1,1,1,1,1,1,1,1,1,0,0,0,0,0,7,8,135,space,21.16059599999994,None,1,1,1.3723367999998572,None,space,2.0964374000000134,None,0,1,1,1,,,,,1,0,8,1,403.27185209999993,,,,,,,,,,,,,,,,,,,,,403.25635569999986,403.27185209999993,403.7553209,403.7601637,403.7778957999999,405.15573960000006,,,,,405.15594469999996,405.17152379999993,405.3715566999999,405.35561800000005,403.7778957999999,,,,,,,,1,1,1.3723367999998572,None,,,,,,,,801,26,M,L,2026-02-18_11h11.04.166,VisualSearch_2526_3,,2025.2.4,2026-02-18 11h11.04.909311 +0100,
vertical.xlsx,The target is tilted.,135,9,1,1,0,0,0,0,0,0,0,0,0,0,0,0,1,1,1,135,space,21.16059599999994,None,0,1,0.6898054999999204,None,space,2.0964374000000134,None,0,1,1,1,,,,,1,1,9,7,405.3715566999999,,,,,,,,,,,,,,,,,,,,,405.35644320000006,405.3715566999999,405.85552529999995,405.8606502,405.87937020000004,406.57232580000004,,,,,406.5725187999999,406.5875616000001,406.7880375,406.7719692999999,405.87937020000004,,,,,,,,0,1,0.6898054999999204,None,,,,,,,,801,26,M,L,2026-02-18_11h11.04.166,VisualSearch_2526_3,,2025.2.4,2026-02-18 11h11.04.909311 +0100,
vertical.xlsx,The target is tilted.,135,10,2,1,0,1,1,1,1,1,1,1,1,1,1,1,1,11,12,135,space,21.16059599999994,None,0,1,1.2275528999998642,None,space,2.0964374000000134,None,0,1,1,1,,,,,1,2,10,4,406.7880375,,,,,,,,,,,,,,,,,,,,,406.77276929999994,406.7880375,407.2719190999999,407.2770404999999,407.29577560000007,408.5388464,,,,,408.5390456,408.55430709999996,408.75436850000006,408.7383540000001,407.29577560000007,,,,,,,,0,1,1.2275528999998642,None,,,,,,,,801,26,M,L,2026-02-18_11h11.04.166,VisualSearch_2526_3,,2025.2.4,2026-02-18 11h11.04.909311 +0100,
vertical.xlsx,The target is tilted.,135,11,3,1,0,1,1,1,1,1,1,1,0,0,0,0,1,7,8,135,space,21.16059599999994,None,0,1,0.7282204999999067,None,space,2.0964374000000134,None,0,1,1,1,,,,,1,3,11,5,408.75436850000006,,,,,,,,,,,,,,,,,,,,,408.73917589999996,408.75436850000006,409.23828789999993,409.243387,409.26138919999994,410.0052003999999,,,,,410.00538919999985,410.02072339999995,410.2208550999999,410.2048408999999,409.26138919999994,,,,,,,,0,1,0.7282204999999067,None,,,,,,,,801,26,M,L,2026-02-18_11h11.04.166,VisualSearch_2526_3,,2025.2.4,2026-02-18 11h11.04.909311 +0100,
vertical.xlsx,The target is tilted.,135,12,4,1,1,1,1,1,0,0,0,0,0,0,0,0,0,3,4,135,space,21.16059599999994,None,1,1,0.631725299999971,None,space,2.0964374000000134,None,0,1,1,1,,,,,1,4,12,2,410.2208550999999,,,,,,,,,,,,,,,,,,,,,410.2056313999999,410.2208550999999,410.70473089999996,410.70950070000004,410.72770249999985,411.3717666,,,,,411.37197620000006,411.38727829999993,411.58733259999985,411.57096079999997,410.72770249999985,,,,,,,,1,1,0.631725299999971,None,,,,,,,,801,26,M,L,2026-02-18_11h11.04.166,VisualSearch_2526_3,,2025.2.4,2026-02-18 11h11.04.909311 +0100,
vertical.xlsx,The target is tilted.,135,13,5,1,1,0,0,0,0,0,0,0,0,0,0,0,0,0,1,135,space,21.16059599999994,None,1,1,0.4174113999999918,None,space,2.0964374000000134,None,0,1,1,1,,,,,1,5,13,3,411.58733259999985,,,,,,,,,,,,,,,,,,,,,411.5718116999999,411.58733259999985,412.07100079999987,412.0758186999999,412.09444129999997,412.5216714999999,,,,,412.5218903,412.53691849999996,412.73669429999995,412.7206331,412.09444129999997,,,,,,,,1,1,0.4174113999999918,None,,,,,,,,801,26,M,L,2026-02-18_11h11.04.166,VisualSearch_2526_3,,2025.2.4,2026-02-18 11h11.04.909311 +0100,
vertical.xlsx,The target is tilted.,135,14,6,1,0,1,1,1,0,0,0,0,0,0,0,0,1,3,4,135,space,21.16059599999994,None,0,1,0.6718823999999586,None,space,2.0964374000000134,None,0,1,1,1,,,,,1,6,14,6,412.73669429999995,,,,,,,,,,,,,,,,,,,,,412.72136550000005,412.73669429999995,413.2209433999999,413.2255132999999,413.24474209999994,413.92099859999985,,,,,413.921202,413.93690479999987,414.1370012,414.12094060000004,413.24474209999994,,,,,,,,0,1,0.6718823999999586,None,,,,,,,,801,26,M,L,2026-02-18_11h11.04.166,VisualSearch_2526_3,,2025.2.4,2026-02-18 11h11.04.909311 +0100,
vertical.xlsx,The target is tilted.,135,15,7,1,1,1,1,1,1,1,1,1,1,1,1,1,0,11,12,135,space,21.16059599999994,None,1,1,0.7899046999998518,None,space,2.0964374000000134,None,0,1,1,1,,,,,1,7,15,0,414.1370012,,,,,,,,,,,,,,,,,,,,,414.1217325,414.1370012,414.6208962999999,414.62608239999986,414.64445950000004,415.4376471999999,,,,,415.4378331999999,415.4532268999999,415.6533712999999,415.63706249999996,414.64445950000004,,,,,,,,1,1,0.7899046999998518,None,,,,,,,,801,26,M,L,2026-02-18_11h11.04.166,VisualSearch_2526_3,,2025.2.4,2026-02-18 11h11.04.909311 +0100,
vertical.xlsx,The target is tilted.,135,16,0,2,1,1,1,1,1,1,1,1,1,1,1,1,0,11,12,135,space,21.16059599999994,None,1,1,0.8724789000000328,None,space,2.0964374000000134,None,0,1,1,1,,,,,2,0,16,0,415.6533712999999,,,,,,,,,,,,,,,,,,,,,415.63788969999996,415.6533712999999,416.13728330000004,416.14256180000007,416.16184539999995,417.0376618999999,,,,,417.0378512,417.05274889999987,417.2528388999999,417.23711230000004,416.16184539999995,,,,,,,,1,1,0.8724789000000328,None,,,,,,,,801,26,M,L,2026-02-18_11h11.04.166,VisualSearch_2526_3,,2025.2.4,2026-02-18 11h11.04.909311 +0100,
vertical.xlsx,The target is tilted.,135,17,1,2,1,0,0,0,0,0,0,0,0,0,0,0,0,0,1,135,space,21.16059599999994,None,1,1,0.3672567999999501,None,space,2.0964374000000134,None,0,1,1,1,,,,,2,1,17,3,417.2528388999999,,,,,,,,,,,,,,,,,,,,,417.2379286999999,417.2528388999999,417.7369059,417.74204080000004,417.76046169999995,418.1374661,,,,,418.13766340000006,418.1525531,418.35304139999994,418.33690849999994,417.76046169999995,,,,,,,,1,1,0.3672567999999501,None,,,,,,,,801,26,M,L,2026-02-18_11h11.04.166,VisualSearch_2526_3,,2025.2.4,2026-02-18 11h11.04.909311 +0100,
vertical.xlsx,The target is tilted.,135,18,2,2,1,1,1,1,1,1,1,1,0,0,0,0,0,7,8,135,space,21.16059599999994,None,1,1,0.5145611999998891,None,space,2.0964374000000134,None,0,1,1,1,,,,,2,2,18,1,418.35304139999994,,,,,,,,,,,,,,,,,,,,,418.33774629999994,418.35304139999994,418.83680149999986,418.8420432999999,418.86112379999986,419.38720979999994,,,,,419.3873957999999,419.40275210000004,419.60256019999997,419.58680090000007,418.86112379999986,,,,,,,,1,1,0.5145611999998891,None,,,,,,,,801,26,M,L,2026-02-18_11h11.04.166,VisualSearch_2526_3,,2025.2.4,2026-02-18 11h11.04.909311 +0100,
vertical.xlsx,The target is tilted.,135,19,3,2,0,1,1,1,0,0,0,0,0,0,0,0,1,3,4,135,space,21.16059599999994,None,0,1,0.8338366999998925,None,space,2.0964374000000134,None,0,1,1,1,,,,,2,3,19,6,419.60256019999997,,,,,,,,,,,,,,,,,,,,,419.5876166999999,419.60256019999997,420.0867091,420.09171879999985,420.10990390000006,420.95373689999997,,,,,420.95392300000003,420.9692092999999,421.1693559,421.1532663999999,420.10990390000006,,,,,,,,0,1,0.8338366999998925,None,,,,,,,,801,26,M,L,2026-02-18_11h11.04.166,VisualSearch_2526_3,,2025.2.4,2026-02-18 11h11.04.909311 +0100,
vertical.xlsx,The target is tilted.,135,20,4,2,1,1,1,1,0,0,0,0,0,0,0,0,0,3,4,135,space,21.16059599999994,None,1,1,0.5100370999998631,None,space,2.0964374000000134,None,0,1,1,1,,,,,2,4,20,2,421.1693559,,,,,,,,,,,,,,,,,,,,,421.1540857,421.1693559,421.6531961999999,421.65824739999994,421.6767083,422.20349770000007,,,,,422.20368529999996,422.2190135999999,422.41903090000005,422.40287509999985,421.6767083,,,,,,,,1,1,0.5100370999998631,None,,,,,,,,801,26,M,L,2026-02-18_11h11.04.166,VisualSearch_2526_3,,2025.2.4,2026-02-18 11h11.04.909311 +0100,
vertical.xlsx,The target is tilted.,135,21,5,2,0,0,0,0,0,0,0,0,0,0,0,0,1,1,1,135,space,21.16059599999994,None,0,1,0.5451109999999062,None,space,2.0964374000000134,None,0,1,1,1,,,,,2,5,21,7,422.41903090000005,,,,,,,,,,,,,,,,,,,,,422.403632,422.41903090000005,422.90244340000004,422.90694340000005,422.92528419999985,423.48662289999993,,,,,423.48681339999985,423.50207249999994,423.70230519999996,423.6861824,422.92528419999985,,,,,,,,0,1,0.5451109999999062,None,,,,,,,,801,26,M,L,2026-02-18_11h11.04.166,VisualSearch_2526_3,,2025.2.4,2026-02-18 11h11.04.909311 +0100,
vertical.xlsx,The target is tilted.,135,22,6,2,0,1,1,1,1,1,1,1,0,0,0,0,1,7,8,135,space,21.16059599999994,None,0,1,1.3420199999998204,None,space,2.0964374000000134,None,0,1,1,1,,,,,2,6,22,5,423.70230519999996,,,,,,,,,,,,,,,,,,,,,423.68701540000006,423.70230519999996,424.18617029999996,424.19143269999995,424.2105225999999,425.56937730000004,,,,,425.56956809999997,425.58479809999994,425.78496859999996,425.7692545,424.2105225999999,,,,,,,,0,1,1.3420199999998204,None,,,,,,,,801,26,M,L,2026-02-18_11h11.04.166,VisualSearch_2526_3,,2025.2.4,2026-02-18 11h11.04.909311 +0100,
vertical.xlsx,The target is tilted.,135,23,7,2,0,1,1,1,1,1,1,1,1,1,1,1,1,11,12,135,space,21.16059599999994,None,0,1,1.167380200000025,None,space,2.0964374000000134,None,0,1,1,1,,,,,2,7,23,4,425.78496859999996,,,,,,,,,,,,,,,,,,,,,425.7700834,425.78496859999996,426.269174,426.27412490000006,426.2924949999999,427.4694849,,,,,427.4696744999999,427.48462589999986,427.6848594999999,427.66901000000007,426.2924949999999,,,,,,,,0,1,1.167380200000025,None,,,,,,,,801,26,M,L,2026-02-18_11h11.04.166,VisualSearch_2526_3,,2025.2.4,2026-02-18 11h11.04.909311 +0100,
vertical.xlsx,The target is tilted.,135,24,0,3,0,1,1,1,1,1,1,1,1,1,1,1,1,11,12,135,space,21.16059599999994,None,0,1,1.3238763000001654,None,space,2.0964374000000134,None,0,1,1,1,,,,,3,0,24,4,427.6848594999999,,,,,,,,,,,,,,,,,,,,,427.66983349999987,427.6848594999999,428.1689300999999,428.17391410000005,428.1919378,429.5187767,,,,,429.5189682,429.5347076999999,429.7347943,429.7183421,428.1919378,,,,,,,,0,1,1.3238763000001654,None,,,,,,,,801,26,M,L,2026-02-18_11h11.04.166,VisualSearch_2526_3,,2025.2.4,2026-02-18 11h11.04.909311 +0100,
vertical.xlsx,The target is tilted.,135,25,1,3,1,1,1,1,0,0,0,0,0,0,0,0,0,3,4,135,space,21.16059599999994,None,1,1,0.7724489999998241,None,space,2.0964374000000134,None,0,1,1,1,,,,,3,1,25,2,429.7347943,,,,,,,,,,,,,,,,,,,,,429.71920449999993,429.7347943,430.21862450000003,430.223833,430.24168080000004,431.01867059999995,,,,,431.0188713,431.0341142,431.23464820000004,431.2185279,430.24168080000004,,,,,,,,1,1,0.7724489999998241,None,,,,,,,,801,26,M,L,2026-02-18_11h11.04.166,VisualSearch_2526_3,,2025.2.4,2026-02-18 11h11.04.909311 +0100,
vertical.xlsx,The target is tilted.,135,26,2,3,0,0,0,0,0,0,0,0,0,0,0,0,1,1,1,135,space,21.16059599999994,None,0,1,0.5863328999998885,None,space,2.0964374000000134,None,0,1,1,1,,,,,3,2,26,7,431.23464820000004,,,,,,,,,,,,,,,,,,,,,431.2193247,431.23464820000004,431.71835399999986,431.72350069999993,431.7417132999999,432.3354463999999,,,,,432.3356461999999,432.35094129999993,432.55093399999987,432.5344284999999,431.7417132999999,,,,,,,,0,1,0.5863328999998885,None,,,,,,,,801,26,M,L,2026-02-18_11h11.04.166,VisualSearch_2526_3,,2025.2.4,2026-02-18 11h11.04.909311 +0100,
vertical.xlsx,The target is tilted.,135,27,3,3,1,1,1,1,1,1,1,1,1,1,1,1,0,11,12,135,space,21.16059599999994,None,1,1,0.9460900999999922,None,space,2.0964374000000134,None,0,1,1,1,,,,,3,3,27,0,432.55093399999987,,,,,,,,,,,,,,,,,,,,,432.5351533999999,432.55093399999987,433.03484520000006,433.0400394999999,433.05932970000003,434.0184706,,,,,434.0186572,434.0340142,434.23413460000006,434.2180521999999,433.05932970000003,,,,,,,,1,1,0.9460900999999922,None,,,,,,,,801,26,M,L,2026-02-18_11h11.04.166,VisualSearch_2526_3,,2025.2.4,2026-02-18 11h11.04.909311 +0100,
vertical.xlsx,The target is tilted.,135,28,4,3,1,0,0,0,0,0,0,0,0,0,0,0,0,0,1,135,space,21.16059599999994,None,1,1,0.46537530000000515,None,space,2.0964374000000134,None,0,1,1,1,,,,,3,4,28,3,434.23413460000006,,,,,,,,,,,,,,,,,,,,,434.2188569,434.23413460000006,434.71793690000004,434.72257479999985,434.7406366,435.21824029999993,,,,,435.21842659999993,435.2337533,435.4339407,435.4176012999999,434.7406366,,,,,,,,1,1,0.46537530000000515,None,,,,,,,,801,26,M,L,2026-02-18_11h11.04.166,VisualSearch_2526_3,,2025.2.4,2026-02-18 11h11.04.909311 +0100,
vertical.xlsx,The target is tilted.,135,29,5,3,1,1,1,1,1,1,1,1,0,0,0,0,0,7,8,135,space,21.16059599999994,None,1,1,1.0150280000000294,None,space,2.0964374000000134,None,0,1,1,1,,,,,3,5,29,1,435.4339407,,,,,,,,,,,,,,,,,,,,,435.4184207999999,435.4339407,435.91706139999997,435.9203992,435.93424060000007,436.95129129999987,,,,,436.95149530000003,436.9669704999999,437.16701190000003,437.15100000000007,435.93424060000007,,,,,,,,1,1,1.0150280000000294,None,,,,,,,,801,26,M,L,2026-02-18_11h11.04.166,VisualSearch_2526_3,,2025.2.4,2026-02-18 11h11.04.909311 +0100,
vertical.xlsx,The target is tilted.,135,30,6,3,0,1,1,1,1,1,1,1,0,0,0,0,1,7,8,135,space,21.16059599999994,None,1,0,0.5399525000000267,None,space,2.0964374000000134,None,0,1,1,1,,,,,3,6,30,5,437.16701190000003,,,,,,,,,,,,,,,,,,,,,437.1518573999999,437.16701190000003,437.6509475999999,437.65604299999995,437.6746897999999,438.2180016,,,,,438.2181888,438.23307980000004,438.43339079999987,438.4168141,437.6746897999999,,,,,,,,1,0,0.5399525000000267,None,,,,,,,,801,26,M,L,2026-02-18_11h11.04.166,VisualSearch_2526_3,,2025.2.4,2026-02-18 11h11.04.909311 +0100,
vertical.xlsx,The target is tilted.,135,31,7,3,0,1,1,1,0,0,0,0,0,0,0,0,1,3,4,135,space,21.16059599999994,None,0,1,0.6203949000000648,None,space,2.0964374000000134,None,0,1,1,1,,,,,3,7,31,6,438.43339079999987,,,,,,,,,,,,,,,,,,,,,438.4175771,438.43339079999987,438.9173748999999,438.9226887,438.94175859999996,439.56769310000004,,,,,439.5678943999999,439.5832137,439.7832357,439.76693649999993,438.94175859999996,,,,,,,,0,1,0.6203949000000648,None,,,,,,,,801,26,M,L,2026-02-18_11h11.04.166,VisualSearch_2526_3,,2025.2.4,2026-02-18 11h11.04.909311 +0100,
vertical.xlsx,The target is tilted.,135,32,0,4,0,0,0,0,0,0,0,0,0,0,0,0,1,1,1,135,space,21.16059599999994,None,0,1,0.5507253000000674,None,space,2.0964374000000134,None,0,1,1,1,,,,,4,0,32,7,439.7832357,,,,,,,,,,,,,,,,,,,,,439.76767470000004,439.7832357,440.26717940000003,440.27243010000007,440.29044799999997,440.8509033999999,,,,,440.85108990000003,440.86621979999995,441.0664953999999,441.0504696999999,440.29044799999997,,,,,,,,0,1,0.5507253000000674,None,,,,,,,,801,26,M,L,2026-02-18_11h11.04.166,VisualSearch_2526_3,,2025.2.4,2026-02-18 11h11.04.909311 +0100,
vertical.xlsx,The target is tilted.,135,33,1,4,1,1,1,1,1,1,1,1,0,0,0,0,0,7,8,135,space,21.16059599999994,None,0,0,0.7054364000000533,None,space,2.0964374000000134,None,0,1,1,1,,,,,4,1,33,1,441.0664953999999,,,,,,,,,,,,,,,,,,,,,441.0512718,441.0664953999999,441.55039829999987,441.5554743,441.57360619999986,442.28419740000004,,,,,442.28441369999996,442.2995429,442.49964509999995,442.48359159999995,441.57360619999986,,,,,,,,0,0,0.7054364000000533,None,,,,,,,,801,26,M,L,2026-02-18_11h11.04.166,VisualSearch_2526_3,,2025.2.4,2026-02-18 11h11.04.909311 +0100,
vertical.xlsx,The target is tilted.,135,34,2,4,1,0,0,0,0,0,0,0,0,0,0,0,0,0,1,135,space,21.16059599999994,None,1,1,0.5011171999999533,None,space,2.0964374000000134,None,0,1,1,1,,,,,4,2,34,3,442.49964509999995,,,,,,,,,,,,,,,,,,,,,442.4844206,442.49964509999995,442.9834811999999,442.98867010000004,443.00799289999986,443.5171481,,,,,443.51733590000003,443.5323659999999,443.7327880999999,443.7165605,443.00799289999986,,,,,,,,1,1,0.5011171999999533,None,,,,,,,,801,26,M,L,2026-02-18_11h11.04.166,VisualSearch_2526_3,,2025.2.4,2026-02-18 11h11.04.909311 +0100,
vertical.xlsx,The target is tilted.,135,35,3,4,1,1,1,1,1,1,1,1,1,1,1,1,0,11,12,135,space,21.16059599999994,None,1,1,1.850896799999873,None,space,2.0964374000000134,None,0,1,1,1,,,,,4,3,35,0,443.7327880999999,,,,,,,,,,,,,,,,,,,,,443.7173848,443.7327880999999,444.2162979,444.2212829,444.2408963999999,446.100093,,,,,446.1002836,446.11557360000006,446.3156374,446.29972109999994,444.2408963999999,,,,,,,,1,1,1.850896799999873,None,,,,,,,,801,26,M,L,2026-02-18_11h11.04.166,VisualSearch_2526_3,,2025.2.4,2026-02-18 11h11.04.909311 +0100,
vertical.xlsx,The target is tilted.,135,36,4,4,0,1,1,1,1,1,1,1,0,0,0,0,1,7,8,135,space,21.16059599999994,None,0,1,1.8772945000000618,None,space,2.0964374000000134,None,0,1,1,1,,,,,4,4,36,5,446.3156374,,,,,,,,,,,,,,,,,,,,,446.30052,446.3156374,446.799446,446.80430380000007,446.8227322,448.7162329999999,,,,,448.71644560000004,448.7318894,448.93206080000004,448.91560849999996,446.8227322,,,,,,,,0,1,1.8772945000000618,None,,,,,,,,801,26,M,L,2026-02-18_11h11.04.166,VisualSearch_2526_3,,2025.2.4,2026-02-18 11h11.04.909311 +0100,
