file_name,block_instructions,target_example,thisN,thisTrialN,thisRepN,target_presence,opacity_1,opacity_2,opacity_3,opacity_4,opacity_5,opacity_6,opacity_7,opacity_8,opacity_9,opacity_10,opacity_11,opacity_12,n_distract,n_items,target_ori,key_resp_4.keys,key_resp_4.rt,key_resp_4.duration,key_resp.keys,key_resp.corr,key_resp.rt,key_resp.duration,key_resp_5.keys,key_resp_5.rt,key_resp_5.duration,blocks.thisRepN,blocks.thisTrialN,blocks.thisN,blocks.thisIndex,practice_trials.thisRepN,practice_trials.thisTrialN,practice_trials.thisN,practice_trials.thisIndex,trials.thisRepN,trials.thisTrialN,trials.thisN,trials.thisIndex,thisRow.t,notes,Welcome.started,WelcomeText.started,key_resp_2.started,Welcome.stopped,key_resp_2.keys,key_resp_2.rt,key_resp_2.duration,InformedConsent.started,text_4.started,InformedConsent.stopped,key_resp_6.keys,key_resp_6.rt,key_resp_6.duration,key_resp_4.started,example_target.started,text_3.started,blocks.key_resp_4.keys,blocks.key_resp_4.rt,blocks.key_resp_4.duration,FixCross.started,fixCross.started,FixCross.stopped,Stimulus.started,key_resp.started,Stimulus.stopped,practice_trials.key_resp.keys,practice_trials.key_resp.corr,practice_trials.key_resp.rt,practice_trials.key_resp.duration,BlankScreen.started,text.started,text.stopped,BlankScreen.stopped,fixCross.stopped,ExperimentStart.started,text_2.started,key_resp_5.started,ExperimentStart.stopped,blocks.key_resp_5.keys,blocks.key_resp_5.rt,blocks.key_resp_5.duration,trials.key_resp.keys,trials.key_resp.corr,trials.key_resp.rt,trials.key_resp.duration,Thanks.started,ThankYou.started,key_resp_3.started,Thanks.stopped,key_resp_3.keys,key_resp_3.rt,key_resp_3.duration,participant,leeftijd,gender,links/rechtshandig,date,expName,expVersion,psychopyVersion,expStart,
,,,,,,,,,,,,,,,,,,,,,,,,,,,,,,,,,,,,,,,,,,,,,,0.03242339999997057,0.05717839999988428,0.05717839999988428,104.86192689999984,space,104.77846950000003,None,,,,,,,,,,,,,,,,,,,,,,,,,,,,,,,,,,,,,,,,,,,,,,802,25,M,R,2026-02-18_11h27.18.852,VisualSearch_2526_3,,2025.2.4,2026-02-18 11h27.19.201301 +0100,
,,,,,,,,,,,,,,,,,,,,,,,,,,,,,,,,,,,,,,,,,,,,,,,,,,,,,104.86209669999994,104.87136699999996,116.14571860000001,y,11.266256399999975,None,,,,,,,,,,,,,,,,,,,,,,,,,,,,,,,,,,,,,,,,802,25,M,R,2026-02-18_11h27.18.852,VisualSearch_2526_3,,2025.2.4,2026-02-18 11h27.19.201301 +0100,
tilted.xlsx,The target is tilted.,117,0,0,0,0,1,1,1,1,1,1,1,0,0,0,0,1,7,8,117,space,6.776534400000173,None,1,0,2.429216600000018,None,,,,0,0,0,0,0,0,0,5,,,,,123.0355889,,,,,,,,,,,,,,,116.21397890000003,116.21397890000003,116.21397890000003,space,6.776534400000173,None,123.02712959999985,123.0355889,123.51013179999995,123.51582469999994,123.53498439999998,125.97672839999996,1,0,2.429216600000018,None,125.97692299999994,125.99233919999983,126.19231519999994,126.17659989999993,,,,,,,,,,,,,,,,,,,,802,25,M,R,2026-02-18_11h27.18.852,VisualSearch_2526_3,,2025.2.4,2026-02-18 11h27.19.201301 +0100,
tilted.xlsx,The target is tilted.,117,1,1,0,1,0,0,0,0,0,0,0,0,0,0,0,0,0,1,117,space,6.776534400000173,None,1,1,1.450063499999942,None,,,,0,0,0,0,0,1,1,3,,,,,126.19231519999994,,,,,,,,,,,,,,,,,,,,,126.17726259999995,126.19231519999994,126.6766677999999,126.68183120000003,126.70032300000003,128.1601596999999,1,1,1.450063499999942,None,128.16035190000002,128.17582500000003,128.37581099999989,128.35974229999988,126.70032300000003,,,,,,,,,,,,,,,,,,,802,25,M,R,2026-02-18_11h27.18.852,VisualSearch_2526_3,,2025.2.4,2026-02-18 11h27.19.201301 +0100,
tilted.xlsx,The target is tilted.,117,2,2,0,0,1,1,1,1,1,1,1,1,1,1,1,1,11,12,117,space,6.776534400000173,None,1,0,2.1083097000000635,None,,,,0,0,0,0,0,2,2,4,,,,,128.37581099999989,,,,,,,,,,,,,,,,,,,,,128.36048469999992,128.37581099999989,128.85932090000006,128.86455809999984,128.88330210000004,130.99316,1,0,2.1083097000000635,None,130.99338790000002,131.00814130000003,131.20858180000005,131.19269599999984,128.88330210000004,,,,,,,,,,,,,,,,,,,802,25,M,R,2026-02-18_11h27.18.852,VisualSearch_2526_3,,2025.2.4,2026-02-18 11h27.19.201301 +0100,
tilted.xlsx,The target is tilted.,117,3,3,0,0,1,1,1,0,0,0,0,0,0,0,0,1,3,4,117,space,6.776534400000173,None,0,1,1.4391018000001168,None,,,,0,0,0,0,0,3,3,6,,,,,131.20858180000005,,,,,,,,,,,,,,,,,,,,,131.19346610000002,131.20858180000005,131.6926194,131.69794079999997,131.71677869999985,133.1591891999999,0,1,1.4391018000001168,None,133.15937680000002,133.17457479999985,133.37472630000002,133.35871559999987,131.71677869999985,,,,,,,,,,,,,,,,,,,802,25,M,R,2026-02-18_11h27.18.852,VisualSearch_2526_3,,2025.2.4,2026-02-18 11h27.19.201301 +0100,
tilted.xlsx,The target is tilted.,117,4,4,0,1,1,1,1,1,1,1,1,1,1,1,1,0,11,12,117,space,6.776534400000173,None,1,1,3.2826168999999936,None,,,,0,0,0,0,0,4,4,0,,,,,133.37472630000002,,,,,,,,,,,,,,,,,,,,,133.3594043999999,133.37472630000002,133.85851260000004,133.86391759999992,133.88312919999998,137.1756112999999,1,1,3.2826168999999936,None,137.17579869999986,137.19065669999986,137.39113350000002,137.37507689999984,133.88312919999998,,,,,,,,,,,,,,,,,,,802,25,M,R,2026-02-18_11h27.18.852,VisualSearch_2526_3,,2025.2.4,2026-02-18 11h27.19.201301 +0100,
tilted.xlsx,The target is tilted.,117,5,5,0,1,1,1,1,1,1,1,1,0,0,0,0,0,7,8,117,space,6.776534400000173,None,1,1,1.749361800000088,None,,,,0,0,0,0,0,5,5,1,,,,,137.39113350000002,,,,,,,,,,,,,,,,,,,,,137.37590649999993,137.39113350000002,137.8751132,137.87989500000003,137.8980325,139.6586064999999,1,1,1.749361800000088,None,139.65879129999985,139.67364139999995,139.87414349999995,139.85817539999994,137.8980325,,,,,,,,,,,,,,,,,,,802,25,M,R,2026-02-18_11h27.18.852,VisualSearch_2526_3,,2025.2.4,2026-02-18 11h27.19.201301 +0100,
tilted.xlsx,The target is tilted.,117,6,6,0,1,1,1,1,0,0,0,0,0,0,0,0,0,3,4,117,space,6.776534400000173,None,1,1,1.528135900000052,None,,,,0,0,0,0,0,6,6,2,,,,,139.87414349999995,,,,,,,,,,,,,,,,,,,,,139.85891919999995,139.87414349999995,140.3580904999999,140.3631373999999,140.38214300000004,141.92475560000003,1,1,1.528135900000052,None,141.92497170000001,141.94001949999983,142.14044509999985,142.1243179999999,140.38214300000004,,,,,,,,,,,,,,,,,,,802,25,M,R,2026-02-18_11h27.18.852,VisualSearch_2526_3,,2025.2.4,2026-02-18 11h27.19.201301 +0100,
tilted.xlsx,The target is tilted.,117,7,7,0,0,0,0,0,0,0,0,0,0,0,0,0,1,1,1,117,space,6.776534400000173,None,0,1,1.0582451999998739,None,,,,0,0,0,0,0,7,7,7,,,,,142.14044509999985,,,,,,,,,,,,,,,,,,,,,142.12500619999992,142.14044509999985,142.62425559999997,142.62900459999992,142.64768059999983,143.70787589999986,0,1,1.0582451999998739,None,143.70806619999985,143.72304450000001,143.9230602,143.90757570000005,142.64768059999983,,,,,,,,,,,,,,,,,,,802,25,M,R,2026-02-18_11h27.18.852,VisualSearch_2526_3,,2025.2.4,2026-02-18 11h27.19.201301 +0100,
tilted.xlsx,The target is tilted.,117,0,0,0,0,1,1,1,0,0,0,0,0,0,0,0,1,3,4,117,space,6.776534400000173,None,0,1,1.7291137999998227,None,space,2.525147099999913,None,0,0,0,0,,,,,0,0,0,6,146.50098949999983,,,,,,,,,,,,,,,,,,,,,146.49543159999985,146.50098949999983,146.97342439999989,146.97821839999983,146.9970899,148.7404899999999,,,,,148.7407048,148.75566319999984,148.95621719999986,148.94004449999989,,143.91513919999989,143.9230602,143.9230602,146.45759699999985,space,2.525147099999913,None,0,1,1.7291137999998227,None,,,,,,,,802,25,M,R,2026-02-18_11h27.18.852,VisualSearch_2526_3,,2025.2.4,2026-02-18 11h27.19.201301 +0100,
tilted.xlsx,The target is tilted.,117,1,1,0,1,1,1,1,1,1,1,1,1,1,1,1,0,11,12,117,space,6.776534400000173,None,1,1,1.7953419000000395,None,space,2.525147099999913,None,0,0,0,0,,,,,0,1,1,0,148.95621719999986,,,,,,,,,,,,,,,,,,,,,148.94086059999995,148.95621719999986,149.43996259999994,149.44527459999995,149.46463999999992,151.27292279999983,,,,,151.27312729999994,151.2885503,151.489149,151.47319189999985,149.46463999999992,,,,,,,,1,1,1.7953419000000395,None,,,,,,,,802,25,M,R,2026-02-18_11h27.18.852,VisualSearch_2526_3,,2025.2.4,2026-02-18 11h27.19.201301 +0100,
tilted.xlsx,The target is tilted.,117,2,2,0,0,1,1,1,1,1,1,1,1,1,1,1,1,11,12,117,space,6.776534400000173,None,0,1,2.5213157000000592,None,space,2.525147099999913,None,0,0,0,0,,,,,0,2,2,4,151.489149,,,,,,,,,,,,,,,,,,,,,151.47400119999998,151.489149,151.9730735999999,151.97827189999998,151.99747809999985,154.52305379999984,,,,,154.5232807,154.53820729999984,154.73859049999987,154.7224988999999,151.99747809999985,,,,,,,,0,1,2.5213157000000592,None,,,,,,,,802,25,M,R,2026-02-18_11h27.18.852,VisualSearch_2526_3,,2025.2.4,2026-02-18 11h27.19.201301 +0100,
tilted.xlsx,The target is tilted.,117,3,3,0,1,1,1,1,0,0,0,0,0,0,0,0,0,3,4,117,space,6.776534400000173,None,1,1,1.1720535000001746,None,space,2.525147099999913,None,0,0,0,0,,,,,0,3,3,2,154.73859049999987,,,,,,,,,,,,,,,,,,,,,154.72332200000005,154.73859049999987,155.2226581,155.22814459999995,155.24769619999984,156.42299129999992,,,,,156.42320870000003,156.43785789999993,156.63807309999993,156.62244659999988,155.24769619999984,,,,,,,,1,1,1.1720535000001746,None,,,,,,,,802,25,M,R,2026-02-18_11h27.18.852,VisualSearch_2526_3,,2025.2.4,2026-02-18 11h27.19.201301 +0100,
tilted.xlsx,The target is tilted.,117,4,4,0,1,1,1,1,1,1,1,1,0,0,0,0,0,7,8,117,space,6.776534400000173,None,0,0,1.3382782999999563,None,space,2.525147099999913,None,0,0,0,0,,,,,0,4,4,1,156.63807309999993,,,,,,,,,,,,,,,,,,,,,156.62324799999988,156.63807309999993,157.12213339999994,157.1267553,157.14533949999986,158.4888398999999,,,,,158.4890499999999,158.50433959999987,158.7043913,158.68859479999992,157.14533949999986,,,,,,,,0,0,1.3382782999999563,None,,,,,,,,802,25,M,R,2026-02-18_11h27.18.852,VisualSearch_2526_3,,2025.2.4,2026-02-18 11h27.19.201301 +0100,
tilted.xlsx,The target is tilted.,117,5,5,0,0,0,0,0,0,0,0,0,0,0,0,0,1,1,1,117,space,6.776534400000173,None,1,0,0.7810706000000209,None,space,2.525147099999913,None,0,0,0,0,,,,,0,5,5,7,158.7043913,,,,,,,,,,,,,,,,,,,,,158.68940829999997,158.7043913,159.1886950999999,159.1940978,159.21567299999992,160.00555759999997,,,,,160.0057569999999,160.02080290000004,160.22136869999986,160.20532789999993,159.21567299999992,,,,,,,,1,0,0.7810706000000209,None,,,,,,,,802,25,M,R,2026-02-18_11h27.18.852,VisualSearch_2526_3,,2025.2.4,2026-02-18 11h27.19.201301 +0100,
tilted.xlsx,The target is tilted.,117,6,6,0,0,1,1,1,1,1,1,1,0,0,0,0,1,7,8,117,space,6.776534400000173,None,0,1,1.3421051000000261,None,space,2.525147099999913,None,0,0,0,0,,,,,0,6,6,5,160.22136869999986,,,,,,,,,,,,,,,,,,,,,160.20615479999992,160.22136869999986,160.7052197999999,160.7104038,160.72910789999992,162.08817520000002,,,,,162.08837659999995,162.10376259999998,162.30423470000005,162.2881671,160.72910789999992,,,,,,,,0,1,1.3421051000000261,None,,,,,,,,802,25,M,R,2026-02-18_11h27.18.852,VisualSearch_2526_3,,2025.2.4,2026-02-18 11h27.19.201301 +0100,
tilted.xlsx,The target is tilted.,117,7,7,0,1,0,0,0,0,0,0,0,0,0,0,0,0,0,1,117,space,6.776534400000173,None,0,0,0.5413504000000557,None,space,2.525147099999913,None,0,0,0,0,,,,,0,7,7,3,162.30423470000005,,,,,,,,,,,,,,,,,,,,,162.28897189999998,162.30423470000005,162.78828550000003,162.79363379999995,162.81267519999983,163.3553652999999,,,,,163.35561319999988,163.3702811999999,163.57076239999992,163.55456849999996,162.81267519999983,,,,,,,,0,0,0.5413504000000557,None,,,,,,,,802,25,M,R,2026-02-18_11h27.18.852,VisualSearch_2526_3,,2025.2.4,2026-02-18 11h27.19.201301 +0100,
tilted.xlsx,The target is tilted.,117,8,0,1,1,0,0,0,0,0,0,0,0,0,0,0,0,0,1,117,space,6.776534400000173,None,0,0,0.7487363000000187,None,space,2.525147099999913,None,0,0,0,0,,,,,1,0,8,3,163.57076239999992,,,,,,,,,,,,,,,,,,,,,163.55538379999984,163.57076239999992,164.05416919999993,164.05875549999996,164.07763899999986,164.83837089999997,,,,,164.83857020000005,164.85340139999994,165.0539572,165.03789469999992,164.07763899999986,,,,,,,,0,0,0.7487363000000187,None,,,,,,,,802,25,M,R,2026-02-18_11h27.18.852,VisualSearch_2526_3,,2025.2.4,2026-02-18 11h27.19.201301 +0100,
tilted.xlsx,The target is tilted.,117,9,1,1,1,1,1,1,1,1,1,1,1,1,1,1,0,11,12,117,space,6.776534400000173,None,1,1,1.2588821000001644,None,space,2.525147099999913,None,0,0,0,0,,,,,1,1,9,0,165.0539572,,,,,,,,,,,,,,,,,,,,,165.03872189999993,165.0539572,165.53767059999996,165.54299079999987,165.5620320999999,166.83746169999995,,,,,166.83768959999998,166.85312520000002,167.0537050999999,167.03766429999996,165.5620320999999,,,,,,,,1,1,1.2588821000001644,None,,,,,,,,802,25,M,R,2026-02-18_11h27.18.852,VisualSearch_2526_3,,2025.2.4,2026-02-18 11h27.19.201301 +0100,
tilted.xlsx,The target is tilted.,117,10,2,1,0,0,0,0,0,0,0,0,0,0,0,0,1,1,1,117,space,6.776534400000173,None,1,0,1.3412898999999925,None,space,2.525147099999913,None,0,0,0,0,,,,,1,2,10,7,167.0537050999999,,,,,,,,,,,,,,,,,,,,,167.03850119999993,167.0537050999999,167.5373032,167.54184220000002,167.55987830000004,168.90457849999984,,,,,168.90480159999993,168.9195049,169.12006929999984,169.10362869999994,167.55987830000004,,,,,,,,1,0,1.3412898999999925,None,,,,,,,,802,25,M,R,2026-02-18_11h27.18.852,VisualSearch_2526_3,,2025.2.4,2026-02-18 11h27.19.201301 +0100,
tilted.xlsx,The target is tilted.,117,11,3,1,0,1,1,1,0,0,0,0,0,0,0,0,1,3,4,117,space,6.776534400000173,None,1,0,0.9908764000001611,None,space,2.525147099999913,None,0,0,0,0,,,,,1,3,11,6,169.12006929999984,,,,,,,,,,,,,,,,,,,,,169.10487990000001,169.12006929999984,169.603924,169.6091325,169.62719760000004,170.62058060000004,,,,,170.62077869999985,170.63592479999988,170.83645260000003,170.82019620000005,169.62719760000004,,,,,,,,1,0,0.9908764000001611,None,,,,,,,,802,25,M,R,2026-02-18_11h27.18.852,VisualSearch_2526_3,,2025.2.4,2026-02-18 11h27.19.201301 +0100,
tilted.xlsx,The target is tilted.,117,12,4,1,1,1,1,1,0,0,0,0,0,0,0,0,0,3,4,117,space,6.776534400000173,None,0,0,0.9712509999999384,None,space,2.525147099999913,None,0,0,0,0,,,,,1,4,12,2,170.83645260000003,,,,,,,,,,,,,,,,,,,,,170.82108519999997,170.83645260000003,171.3203254,171.32558859999995,171.34368040000004,172.32061669999985,,,,,172.3208184,172.3357183999999,172.5361562999999,172.52008869999986,171.34368040000004,,,,,,,,0,0,0.9712509999999384,None,,,,,,,,802,25,M,R,2026-02-18_11h27.18.852,VisualSearch_2526_3,,2025.2.4,2026-02-18 11h27.19.201301 +0100,
tilted.xlsx,The target is tilted.,117,13,5,1,0,1,1,1,1,1,1,1,1,1,1,1,1,11,12,117,space,6.776534400000173,None,1,0,1.556535699999813,None,space,2.525147099999913,None,0,0,0,0,,,,,1,5,13,4,172.5361562999999,,,,,,,,,,,,,,,,,,,,,172.52093149999996,172.5361562999999,173.02006170000004,173.02536529999998,173.04459640000005,174.6036305,,,,,174.60391159999995,174.61870610000005,174.8192153,174.8030377,173.04459640000005,,,,,,,,1,0,1.556535699999813,None,,,,,,,,802,25,M,R,2026-02-18_11h27.18.852,VisualSearch_2526_3,,2025.2.4,2026-02-18 11h27.19.201301 +0100,
tilted.xlsx,The target is tilted.,117,14,6,1,0,1,1,1,1,1,1,1,0,0,0,0,1,7,8,117,space,6.776534400000173,None,1,0,1.0956943999999567,None,space,2.525147099999913,None,0,0,0,0,,,,,1,6,14,5,174.8192153,,,,,,,,,,,,,,,,,,,,,174.80376679999995,174.8192153,175.3026279999999,175.30729129999986,175.32617419999997,176.4361151999999,,,,,176.43632920000005,176.45221819999983,176.6522554999999,176.63620300000002,175.32617419999997,,,,,,,,1,0,1.0956943999999567,None,,,,,,,,802,25,M,R,2026-02-18_11h27.18.852,VisualSearch_2526_3,,2025.2.4,2026-02-18 11h27.19.201301 +0100,
tilted.xlsx,The target is tilted.,117,15,7,1,1,1,1,1,1,1,1,1,0,0,0,0,0,7,8,117,space,6.776534400000173,None,1,1,1.3027687000001151,None,space,2.525147099999913,None,0,0,0,0,,,,,1,7,15,1,176.6522554999999,,,,,,,,,,,,,,,,,,,,,176.6370139999999,176.6522554999999,177.13620749999995,177.14138619999994,177.15953279999985,178.4693479,,,,,178.46954899999992,178.4849443999999,178.68532759999994,178.6690776999999,177.15953279999985,,,,,,,,1,1,1.3027687000001151,None,,,,,,,,802,25,M,R,2026-02-18_11h27.18.852,VisualSearch_2526_3,,2025.2.4,2026-02-18 11h27.19.201301 +0100,
tilted.xlsx,The target is tilted.,117,16,0,2,1,1,1,1,0,0,0,0,0,0,0,0,0,3,4,117,space,6.776534400000173,None,0,0,1.152699400000074,None,space,2.525147099999913,None,0,0,0,0,,,,,2,0,16,2,178.68532759999994,,,,,,,,,,,,,,,,,,,,,178.6699334,178.68532759999994,179.16887939999992,179.17417419999992,179.19287499999996,180.3526147,,,,,180.35281229999987,180.36790199999996,180.56812839999998,180.55220929999996,179.19287499999996,,,,,,,,0,0,1.152699400000074,None,,,,,,,,802,25,M,R,2026-02-18_11h27.18.852,VisualSearch_2526_3,,2025.2.4,2026-02-18 11h27.19.201301 +0100,
tilted.xlsx,The target is tilted.,117,17,1,2,1,1,1,1,1,1,1,1,0,0,0,0,0,7,8,117,space,6.776534400000173,None,1,1,0.7326414999999997,None,space,2.525147099999913,None,0,0,0,0,,,,,2,1,17,1,180.56812839999998,,,,,,,,,,,,,,,,,,,,,180.5530174999999,180.56812839999998,181.05230149999988,181.05755649999992,181.07622330000004,181.81907569999998,,,,,181.8192704999999,181.83433820000005,182.03493490000005,182.01852710000003,181.07622330000004,,,,,,,,1,1,0.7326414999999997,None,,,,,,,,802,25,M,R,2026-02-18_11h27.18.852,VisualSearch_2526_3,,2025.2.4,2026-02-18 11h27.19.201301 +0100,
tilted.xlsx,The target is tilted.,117,18,2,2,0,0,0,0,0,0,0,0,0,0,0,0,1,1,1,117,space,6.776534400000173,None,1,0,0.6292042000000038,None,space,2.525147099999913,None,0,0,0,0,,,,,2,2,18,7,182.03493490000005,,,,,,,,,,,,,,,,,,,,,182.01934899999992,182.03493490000005,182.51842399999987,182.52383099999997,182.54316900000003,183.18547880000006,,,,,183.185786,183.20082189999994,183.40123619999986,183.3851213999999,182.54316900000003,,,,,,,,1,0,0.6292042000000038,None,,,,,,,,802,25,M,R,2026-02-18_11h27.18.852,VisualSearch_2526_3,,2025.2.4,2026-02-18 11h27.19.201301 +0100,
tilted.xlsx,The target is tilted.,117,19,3,2,1,0,0,0,0,0,0,0,0,0,0,0,0,0,1,117,space,6.776534400000173,None,0,0,0.5354889000000185,None,space,2.525147099999913,None,0,0,0,0,,,,,2,3,19,3,183.40123619999986,,,,,,,,,,,,,,,,,,,,,183.38585360000002,183.40123619999986,183.88504199999988,183.88968439999985,183.90872179999997,184.4521906,,,,,184.45288489999984,184.46729389999996,184.66756369999985,184.65153669999995,183.90872179999997,,,,,,,,0,0,0.5354889000000185,None,,,,,,,,802,25,M,R,2026-02-18_11h27.18.852,VisualSearch_2526_3,,2025.2.4,2026-02-18 11h27.19.201301 +0100,
tilted.xlsx,The target is tilted.,117,20,4,2,0,1,1,1,1,1,1,1,1,1,1,1,1,11,12,117,space,6.776534400000173,None,1,0,0.8234024000000773,None,space,2.525147099999913,None,0,0,0,0,,,,,2,4,20,4,184.66756369999985,,,,,,,,,,,,,,,,,,,,,184.65238529999988,184.66756369999985,185.1517374,185.15695340000002,185.17538949999994,186.00211869999998,,,,,186.00235239999984,186.01707969999984,186.21761879999985,186.20147539999994,185.17538949999994,,,,,,,,1,0,0.8234024000000773,None,,,,,,,,802,25,M,R,2026-02-18_11h27.18.852,VisualSearch_2526_3,,2025.2.4,2026-02-18 11h27.19.201301 +0100,
tilted.xlsx,The target is tilted.,117,21,5,2,0,1,1,1,1,1,1,1,0,0,0,0,1,7,8,117,space,6.776534400000173,None,1,0,0.9653662999999142,None,space,2.525147099999913,None,0,0,0,0,,,,,2,5,21,5,186.21761879999985,,,,,,,,,,,,,,,,,,,,,186.20222539999986,186.21761879999985,186.7015237999999,186.70656689999987,186.72502059999988,187.70178659999988,,,,,187.7019823999999,187.71684370000003,187.91735659999995,187.9014029,186.72502059999988,,,,,,,,1,0,0.9653662999999142,None,,,,,,,,802,25,M,R,2026-02-18_11h27.18.852,VisualSearch_2526_3,,2025.2.4,2026-02-18 11h27.19.201301 +0100,
tilted.xlsx,The target is tilted.,117,22,6,2,1,1,1,1,1,1,1,1,1,1,1,1,0,11,12,117,space,6.776534400000173,None,1,1,2.2968490000000656,None,space,2.525147099999913,None,0,0,0,0,,,,,2,6,22,0,187.91735659999995,,,,,,,,,,,,,,,,,,,,,187.90221029999998,187.91735659999995,188.4012851,188.40672429999995,188.4256183,190.7343446,,,,,190.7345424,190.74971019999998,190.95023739999988,190.9342228999999,188.4256183,,,,,,,,1,1,2.2968490000000656,None,,,,,,,,802,25,M,R,2026-02-18_11h27.18.852,VisualSearch_2526_3,,2025.2.4,2026-02-18 11h27.19.201301 +0100,
tilted.xlsx,The target is tilted.,117,23,7,2,0,1,1,1,0,0,0,0,0,0,0,0,1,3,4,117,space,6.776534400000173,None,0,1,1.0987206999998307,None,space,2.525147099999913,None,0,0,0,0,,,,,2,7,23,6,190.95023739999988,,,,,,,,,,,,,,,,,,,,,190.935066,190.95023739999988,191.43408850000014,191.43933460000017,191.4586730000001,192.56780990000016,,,,,192.56801159999986,192.58279719999973,192.7833356000001,192.7673264,191.4586730000001,,,,,,,,0,1,1.0987206999998307,None,,,,,,,,802,25,M,R,2026-02-18_11h27.18.852,VisualSearch_2526_3,,2025.2.4,2026-02-18 11h27.19.201301 +0100,
tilted.xlsx,The target is tilted.,117,24,0,3,0,0,0,0,0,0,0,0,0,0,0,0,1,1,1,117,space,6.776534400000173,None,1,0,0.6235993000000235,None,space,2.525147099999913,None,0,0,0,0,,,,,3,0,24,7,192.7833356000001,,,,,,,,,,,,,,,,,,,,,192.7681305000001,192.7833356000001,193.26726740000004,193.27245529999982,193.2907556,193.91765069999974,,,,,193.91788270000006,193.93262019999975,194.13315740000007,194.11675939999986,193.2907556,,,,,,,,1,0,0.6235993000000235,None,,,,,,,,802,25,M,R,2026-02-18_11h27.18.852,VisualSearch_2526_3,,2025.2.4,2026-02-18 11h27.19.201301 +0100,
tilted.xlsx,The target is tilted.,117,25,1,3,0,1,1,1,0,0,0,0,0,0,0,0,1,3,4,117,space,6.776534400000173,None,0,1,1.1065663999997923,None,space,2.525147099999913,None,0,0,0,0,,,,,3,1,25,6,194.13315740000007,,,,,,,,,,,,,,,,,,,,,194.11751409999988,194.13315740000007,194.61687940000002,194.62186729999985,194.6405638000001,195.7504530000001,,,,,195.75065240000004,195.76569389999986,195.9662831999999,195.9501405000001,194.6405638000001,,,,,,,,0,1,1.1065663999997923,None,,,,,,,,802,25,M,R,2026-02-18_11h27.18.852,VisualSearch_2526_3,,2025.2.4,2026-02-18 11h27.19.201301 +0100,
tilted.xlsx,The target is tilted.,117,26,2,3,1,0,0,0,0,0,0,0,0,0,0,0,0,0,1,117,space,6.776534400000173,None,0,0,0.8193775999998252,None,space,2.525147099999913,None,0,0,0,0,,,,,3,2,26,3,195.9662831999999,,,,,,,,,,,,,,,,,,,,,195.95096779999994,195.9662831999999,196.45006699999976,196.4551873999999,196.47359749999987,197.3002692,,,,,197.30047009999998,197.3154642999998,197.51604510000016,197.49961429999985,196.47359749999987,,,,,,,,0,0,0.8193775999998252,None,,,,,,,,802,25,M,R,2026-02-18_11h27.18.852,VisualSearch_2526_3,,2025.2.4,2026-02-18 11h27.19.201301 +0100,
tilted.xlsx,The target is tilted.,117,27,3,3,1,1,1,1,1,1,1,1,0,0,0,0,0,7,8,117,space,6.776534400000173,None,1,1,2.5563575000001038,None,space,2.525147099999913,None,0,0,0,0,,,,,3,3,27,1,197.51604510000016,,,,,,,,,,,,,,,,,,,,,197.50044879999996,197.51604510000016,197.9998157,198.0051785999999,198.02442519999977,200.58320589999994,,,,,200.5834890000001,200.59831489999988,200.79869159999998,200.78287039999987,198.02442519999977,,,,,,,,1,1,2.5563575000001038,None,,,,,,,,802,25,M,R,2026-02-18_11h27.18.852,VisualSearch_2526_3,,2025.2.4,2026-02-18 11h27.19.201301 +0100,
tilted.xlsx,The target is tilted.,117,28,4,3,1,1,1,1,0,0,0,0,0,0,0,0,0,3,4,117,space,6.776534400000173,None,0,0,0.9674562000000151,None,space,2.525147099999913,None,0,0,0,0,,,,,3,4,28,2,200.79869159999998,,,,,,,,,,,,,,,,,,,,,200.78367149999985,200.79869159999998,201.28274229999988,201.28814969999985,201.30758620000006,202.28307300000006,,,,,202.28327089999993,202.29803919999995,202.49844900000016,202.48259700000017,201.30758620000006,,,,,,,,0,0,0.9674562000000151,None,,,,,,,,802,25,M,R,2026-02-18_11h27.18.852,VisualSearch_2526_3,,2025.2.4,2026-02-18 11h27.19.201301 +0100,
tilted.xlsx,The target is tilted.,117,29,5,3,0,1,1,1,1,1,1,1,0,0,0,0,1,7,8,117,space,6.776534400000173,None,1,0,0.7264435000001868,None,space,2.525147099999913,None,0,0,0,0,,,,,3,5,29,5,202.49844900000016,,,,,,,,,,,,,,,,,,,,,202.48340019999978,202.49844900000016,202.98239299999977,202.98715549999997,203.00588319999997,203.74888409999994,,,,,203.74911299999985,203.76448519999985,203.96506139999974,203.94870790000004,203.00588319999997,,,,,,,,1,0,0.7264435000001868,None,,,,,,,,802,25,M,R,2026-02-18_11h27.18.852,VisualSearch_2526_3,,2025.2.4,2026-02-18 11h27.19.201301 +0100,
tilted.xlsx,The target is tilted.,117,30,6,3,1,1,1,1,1,1,1,1,1,1,1,1,0,11,12,117,space,6.776534400000173,None,1,1,0.9369386999997005,None,space,2.525147099999913,None,0,0,0,0,,,,,3,6,30,0,203.96506139999974,,,,,,,,,,,,,,,,,,,,,203.94957399999976,203.96506139999974,204.44853890000013,204.45335299999988,204.47213710000005,205.41594039999973,,,,,205.4161395000001,205.43094680000013,205.63154020000002,205.6154919999999,204.47213710000005,,,,,,,,1,1,0.9369386999997005,None,,,,,,,,802,25,M,R,2026-02-18_11h27.18.852,VisualSearch_2526_3,,2025.2.4,2026-02-18 11h27.19.201301 +0100,
tilted.xlsx,The target is tilted.,117,31,7,3,0,1,1,1,1,1,1,1,1,1,1,1,1,11,12,117,space,6.776534400000173,None,1,0,2.5254492000003665,None,space,2.525147099999913,None,0,0,0,0,,,,,3,7,31,4,205.63154020000002,,,,,,,,,,,,,,,,,,,,,205.61629670000002,205.63154020000002,206.11545190000015,206.12087029999975,206.14010800000005,208.68152439999994,,,,,208.68175710000014,208.69711499999994,208.89763420000008,208.88157049999973,206.14010800000005,,,,,,,,1,0,2.5254492000003665,None,,,,,,,,802,25,M,R,2026-02-18_11h27.18.852,VisualSearch_2526_3,,2025.2.4,2026-02-18 11h27.19.201301 +0100,
tilted.xlsx,The target is tilted.,117,32,0,4,1,1,1,1,1,1,1,1,1,1,1,1,0,11,12,117,space,6.776534400000173,None,1,1,0.8840476000000308,None,space,2.525147099999913,None,0,0,0,0,,,,,4,0,32,0,208.89763420000008,,,,,,,,,,,,,,,,,,,,,208.88232639999978,208.89763420000008,209.3813882999998,209.38658899999973,209.40534579999985,210.29857859999993,,,,,210.2987751999999,210.3136642999998,210.5141666999998,210.49784850000015,209.40534579999985,,,,,,,,1,1,0.8840476000000308,None,,,,,,,,802,25,M,R,2026-02-18_11h27.18.852,VisualSearch_2526_3,,2025.2.4,2026-02-18 11h27.19.201301 +0100,
tilted.xlsx,The target is tilted.,117,33,1,4,0,1,1,1,1,1,1,1,1,1,1,1,1,11,12,117,space,6.776534400000173,None,1,0,1.197321500000271,None,space,2.525147099999913,None,0,0,0,0,,,,,4,1,33,4,210.5141666999998,,,,,,,,,,,,,,,,,,,,,210.49868770000012,210.5141666999998,210.99812429999974,211.0034314999998,211.0222187999998,212.23161789999995,,,,,212.23183900000004,212.24668859999974,212.44702469999993,212.43083789999991,211.0222187999998,,,,,,,,1,0,1.197321500000271,None,,,,,,,,802,25,M,R,2026-02-18_11h27.18.852,VisualSearch_2526_3,,2025.2.4,2026-02-18 11h27.19.201301 +0100,
tilted.xlsx,The target is tilted.,117,34,2,4,1,0,0,0,0,0,0,0,0,0,0,0,0,0,1,117,space,6.776534400000173,None,0,0,0.7542342000001554,None,space,2.525147099999913,None,0,0,0,0,,,,,4,2,34,3,212.44702469999993,,,,,,,,,,,,,,,,,,,,,212.43165339999996,212.44702469999993,212.93103199999996,212.93618830000014,212.95520320000014,213.71464689999993,,,,,213.71487639999987,213.72984760000008,213.93033479999986,213.9142821999999,212.95520320000014,,,,,,,,0,0,0.7542342000001554,None,,,,,,,,802,25,M,R,2026-02-18_11h27.18.852,VisualSearch_2526_3,,2025.2.4,2026-02-18 11h27.19.201301 +0100,
tilted.xlsx,The target is tilted.,117,35,3,4,1,1,1,1,0,0,0,0,0,0,0,0,0,3,4,117,space,6.776534400000173,None,0,0,1.0864818000000014,None,space,2.525147099999913,None,0,0,0,0,,,,,4,3,35,2,213.93033479999986,,,,,,,,,,,,,,,,,,,,,213.91512860000012,213.93033479999986,214.4141211000001,214.4189676000001,214.43772790000003,215.53115930000013,,,,,215.53136140000015,215.54625299999998,215.74671919999992,215.7306524999999,214.43772790000003,,,,,,,,0,0,1.0864818000000014,None,,,,,,,,802,25,M,R,2026-02-18_11h27.18.852,VisualSearch_2526_3,,2025.2.4,2026-02-18 11h27.19.201301 +0100,
tilted.xlsx,The target is tilted.,117,36,4,4,1,1,1,1,1,1,1,1,0,0,0,0,0,7,8,117,space,6.776534400000173,None,1,1,0.9497720000003937,None,space,2.525147099999913,None,0,0,0,0,,,,,4,4,36,1,215.74671919999992,,,,,,,,,,,,,,,,,,,,,215.73148409999976,215.74671919999992,216.23027300000012,216.23514639999985,216.2538386000001,217.21426759999986,,,,,217.21446920000017,217.22935030000008,217.42986329999985,217.41384740000012,216.2538386000001,,,,,,,,1,1,0.9497720000003937,None,,,,,,,,802,25,M,R,2026-02-18_11h27.18.852,VisualSearch_2526_3,,2025.2.4,2026-02-18 11h27.19.201301 +0100,
tilted.xlsx,The target is tilted.,117,37,5,4,0,1,1,1,0,0,0,0,0,0,0,0,1,3,4,117,space,6.776534400000173,None,0,1,0.9983798000002935,None,space,2.525147099999913,None,0,0,0,0,,,,,4,5,37,6,217.42986329999985,,,,,,,,,,,,,,,,,,,,,217.4146528000001,217.42986329999985,217.91349739999987,217.91850309999973,217.9365604999998,218.9467549000001,,,,,218.94697929999984,218.96239560000004,219.1624483999999,219.14688799999976,217.9365604999998,,,,,,,,0,1,0.9983798000002935,None,,,,,,,,802,25,M,R,2026-02-18_11h27.18.852,VisualSearch_2526_3,,2025.2.4,2026-02-18 11h27.19.201301 +0100,
tilted.xlsx,The target is tilted.,117,38,6,4,0,1,1,1,1,1,1,1,0,0,0,0,1,7,8,117,space,6.776534400000173,None,1,0,2.3016553000002204,None,space,2.525147099999913,None,0,0,0,0,,,,,4,6,38,5,219.1624483999999,,,,,,,,,,,,,,,,,,,,,219.1477101999999,219.1624483999999,219.6468159000001,219.65192339999976,219.67121159999988,221.9802209999998,,,,,221.9804264999998,221.9953316000001,222.19555230000014,222.17958550000003,219.67121159999988,,,,,,,,1,0,2.3016553000002204,None,,,,,,,,802,25,M,R,2026-02-18_11h27.18.852,VisualSearch_2526_3,,2025.2.4,2026-02-18 11h27.19.201301 +0100,
tilted.xlsx,The target is tilted.,117,39,7,4,0,0,0,0,0,0,0,0,0,0,0,0,1,1,1,117,space,6.776534400000173,None,0,1,0.7209690999998202,None,space,2.525147099999913,None,0,0,0,0,,,,,4,7,39,7,222.19555230000014,,,,,,,,,,,,,,,,,,,,,222.1804634,222.19555230000014,222.67940559999988,222.68456179999976,222.70278789999975,223.43003009999984,,,,,223.4302262000001,223.44508210000004,223.64558899999975,223.62938189999977,222.70278789999975,,,,,,,,0,1,0.7209690999998202,None,,,,,,,,802,25,M,R,2026-02-18_11h27.18.852,VisualSearch_2526_3,,2025.2.4,2026-02-18 11h27.19.201301 +0100,
tilted.xlsx,The target is tilted.,117,40,0,5,1,0,0,0,0,0,0,0,0,0,0,0,0,0,1,117,space,6.776534400000173,None,0,0,0.5722469000002093,None,space,2.525147099999913,None,0,0,0,0,,,,,5,0,40,3,223.64558899999975,,,,,,,,,,,,,,,,,,,,,223.6301601,223.64558899999975,224.1294757999999,224.13469899999973,224.15333999999984,224.72959009999977,,,,,224.72978740000008,224.7449357999999,224.94544080000014,224.9293975999999,224.15333999999984,,,,,,,,0,0,0.5722469000002093,None,,,,,,,,802,25,M,R,2026-02-18_11h27.18.852,VisualSearch_2526_3,,2025.2.4,2026-02-18 11h27.19.201301 +0100,
tilted.xlsx,The target is tilted.,117,41,1,5,0,1,1,1,0,0,0,0,0,0,0,0,1,3,4,117,space,6.776534400000173,None,0,1,1.185804200000348,None,space,2.525147099999913,None,0,0,0,0,,,,,5,1,41,6,224.94544080000014,,,,,,,,,,,,,,,,,,,,,224.93022500000006,224.94544080000014,225.4288489999999,225.43352490000007,225.45215819999976,226.6462621999999,,,,,226.64646200000016,226.66134550000015,226.86180830000012,226.84551209999972,225.45215819999976,,,,,,,,0,1,1.185804200000348,None,,,,,,,,802,25,M,R,2026-02-18_11h27.18.852,VisualSearch_2526_3,,2025.2.4,2026-02-18 11h27.19.201301 +0100,
tilted.xlsx,The target is tilted.,117,42,2,5,0,1,1,1,1,1,1,1,0,0,0,0,1,7,8,117,space,6.776534400000173,None,0,1,1.5427740000000085,None,space,2.525147099999913,None,0,0,0,0,,,,,5,2,42,5,226.86180830000012,,,,,,,,,,,,,,,,,,,,,226.8463757999998,226.86180830000012,227.3457254,227.3509868000001,227.36966780000012,228.9289515999999,,,,,228.92918210000016,228.94430999999986,229.14484820000007,229.1284738999998,227.36966780000012,,,,,,,,0,1,1.5427740000000085,None,,,,,,,,802,25,M,R,2026-02-18_11h27.18.852,VisualSearch_2526_3,,2025.2.4,2026-02-18 11h27.19.201301 +0100,
tilted.xlsx,The target is tilted.,117,43,3,5,1,1,1,1,0,0,0,0,0,0,0,0,0,3,4,117,space,6.776534400000173,None,0,0,0.9243888000000879,None,space,2.525147099999913,None,0,0,0,0,,,,,5,3,43,2,229.14484820000007,,,,,,,,,,,,,,,,,,,,,229.1292942,229.14484820000007,229.62850919999983,229.63336530000015,229.65125260000013,230.57902520000016,,,,,230.5792376999998,230.59409619999997,230.7946625999998,230.77848499999982,229.65125260000013,,,,,,,,0,0,0.9243888000000879,None,,,,,,,,802,25,M,R,2026-02-18_11h27.18.852,VisualSearch_2526_3,,2025.2.4,2026-02-18 11h27.19.201301 +0100,
tilted.xlsx,The target is tilted.,117,44,4,5,1,1,1,1,1,1,1,1,1,1,1,1,0,11,12,117,space,6.776534400000173,None,1,1,2.047867000000224,None,space,2.525147099999913,None,0,0,0,0,,,,,5,4,44,0,230.7946625999998,,,,,,,,,,,,,,,,,,,,,230.77929170000016,230.7946625999998,231.27855969999973,231.2835114999998,231.3021915999998,233.36185849999993,,,,,233.3620550999999,233.3770457999999,233.57761819999996,233.56150059999982,231.3021915999998,,,,,,,,1,1,2.047867000000224,None,,,,,,,,802,25,M,R,2026-02-18_11h27.18.852,VisualSearch_2526_3,,2025.2.4,2026-02-18 11h27.19.201301 +0100,
tilted.xlsx,The target is tilted.,117,45,5,5,1,1,1,1,1,1,1,1,0,0,0,0,0,7,8,117,space,6.776534400000173,None,1,1,1.3180969999998524,None,space,2.525147099999913,None,0,0,0,0,,,,,5,5,45,1,233.57761819999996,,,,,,,,,,,,,,,,,,,,,233.56231190000017,233.57761819999996,234.06144330000006,234.06692870000006,234.08581520000007,235.4116782000001,,,,,235.41187439999976,235.42676819999997,235.62684519999993,235.61111329999994,234.08581520000007,,,,,,,,1,1,1.3180969999998524,None,,,,,,,,802,25,M,R,2026-02-18_11h27.18.852,VisualSearch_2526_3,,2025.2.4,2026-02-18 11h27.19.201301 +0100,
tilted.xlsx,The target is tilted.,117,46,6,5,0,0,0,0,0,0,0,0,0,0,0,0,1,1,1,117,space,6.776534400000173,None,0,1,0.6358410999996522,None,space,2.525147099999913,None,0,0,0,0,,,,,5,6,46,7,235.62684519999993,,,,,,,,,,,,,,,,,,,,,235.61198749999994,235.62684519999993,236.11178449999989,236.11694050000006,236.1350511999999,236.77821319999975,,,,,236.77841239999998,236.79318729999977,236.99373190000006,236.97770660000015,236.1350511999999,,,,,,,,0,1,0.6358410999996522,None,,,,,,,,802,25,M,R,2026-02-18_11h27.18.852,VisualSearch_2526_3,,2025.2.4,2026-02-18 11h27.19.201301 +0100,
tilted.xlsx,The target is tilted.,117,47,7,5,0,1,1,1,1,1,1,1,1,1,1,1,1,11,12,117,space,6.776534400000173,None,1,0,1.8008159999999407,None,space,2.525147099999913,None,0,0,0,0,,,,,5,7,47,4,236.99373190000006,,,,,,,,,,,,,,,,,,,,,236.9785152999998,236.99373190000006,237.47731599999997,237.4826822,237.50152189999972,239.31110390000003,,,,,239.31132350000007,239.32627270000012,239.52640250000013,239.5106563999998,237.50152189999972,,,,,,,,1,0,1.8008159999999407,None,,,,,,,,802,25,M,R,2026-02-18_11h27.18.852,VisualSearch_2526_3,,2025.2.4,2026-02-18 11h27.19.201301 +0100,
tilted.xlsx,The target is tilted.,117,48,0,6,1,0,0,0,0,0,0,0,0,0,0,0,0,0,1,117,space,6.776534400000173,None,0,0,0.5332909999997355,None,space,2.525147099999913,None,0,0,0,0,,,,,6,0,48,3,239.52640250000013,,,,,,,,,,,,,,,,,,,,,239.5114681,239.52640250000013,240.01063710000017,240.01575589999993,240.03389590000006,240.5778479999999,,,,,240.57808250000016,240.59292559999994,240.79320860000007,240.77705650000007,240.03389590000006,,,,,,,,0,0,0.5332909999997355,None,,,,,,,,802,25,M,R,2026-02-18_11h27.18.852,VisualSearch_2526_3,,2025.2.4,2026-02-18 11h27.19.201301 +0100,
tilted.xlsx,The target is tilted.,117,49,1,6,0,1,1,1,1,1,1,1,1,1,1,1,1,11,12,117,space,6.776534400000173,None,1,0,1.3743765000003805,None,space,2.525147099999913,None,0,0,0,0,,,,,6,1,49,4,240.79320860000007,,,,,,,,,,,,,,,,,,,,,240.7778112000001,240.79320860000007,241.2769027999998,241.28157229999988,241.30043720000003,242.6773146999999,,,,,242.67752560000008,242.69239119999975,242.8924962000001,242.87662769999997,241.30043720000003,,,,,,,,1,0,1.3743765000003805,None,,,,,,,,802,25,M,R,2026-02-18_11h27.18.852,VisualSearch_2526_3,,2025.2.4,2026-02-18 11h27.19.201301 +0100,
tilted.xlsx,The target is tilted.,117,50,2,6,1,1,1,1,1,1,1,1,1,1,1,1,0,11,12,117,space,6.776534400000173,None,1,1,2.5567439000001286,None,space,2.525147099999913,None,0,0,0,0,,,,,6,2,50,0,242.8924962000001,,,,,,,,,,,,,,,,,,,,,242.877391,242.8924962000001,243.37658740000006,243.38146229999984,243.40019589999974,245.960235,,,,,245.9604347999998,245.97523460000002,246.1757548999999,246.15940920000003,243.40019589999974,,,,,,,,1,1,2.5567439000001286,None,,,,,,,,802,25,M,R,2026-02-18_11h27.18.852,VisualSearch_2526_3,,2025.2.4,2026-02-18 11h27.19.201301 +0100,
tilted.xlsx,The target is tilted.,117,51,3,6,0,1,1,1,1,1,1,1,0,0,0,0,1,7,8,117,space,6.776534400000173,None,1,0,1.2517494000003353,None,space,2.525147099999913,None,0,0,0,0,,,,,6,3,51,5,246.1757548999999,,,,,,,,,,,,,,,,,,,,,246.16022759999987,246.1757548999999,246.6596125000001,246.66481190000013,246.6840471999999,247.94325519999984,,,,,247.9434523,247.95826780000016,248.1583839,248.1424118,246.6840471999999,,,,,,,,1,0,1.2517494000003353,None,,,,,,,,802,25,M,R,2026-02-18_11h27.18.852,VisualSearch_2526_3,,2025.2.4,2026-02-18 11h27.19.201301 +0100,
tilted.xlsx,The target is tilted.,117,52,4,6,0,1,1,1,0,0,0,0,0,0,0,0,1,3,4,117,space,6.776534400000173,None,0,1,1.1042473000002246,None,space,2.525147099999913,None,0,0,0,0,,,,,6,4,52,6,248.1583839,,,,,,,,,,,,,,,,,,,,,248.14324409999972,248.1583839,248.64270769999985,248.64803979999988,248.66672949999975,249.77627979999988,,,,,249.77647620000016,249.79138629999989,249.99183330000005,249.9756785999998,248.66672949999975,,,,,,,,0,1,1.1042473000002246,None,,,,,,,,802,25,M,R,2026-02-18_11h27.18.852,VisualSearch_2526_3,,2025.2.4,2026-02-18 11h27.19.201301 +0100,
tilted.xlsx,The target is tilted.,117,53,5,6,1,1,1,1,0,0,0,0,0,0,0,0,0,3,4,117,space,6.776534400000173,None,0,0,1.0318735999999262,None,space,2.525147099999913,None,0,0,0,0,,,,,6,5,53,2,249.99183330000005,,,,,,,,,,,,,,,,,,,,,249.97645620000003,249.99183330000005,250.47584689999985,250.48109350000004,250.50009379999983,251.54275629999984,,,,,251.5429549999999,251.5577788999999,251.75800230000004,251.74226989999988,250.50009379999983,,,,,,,,0,0,1.0318735999999262,None,,,,,,,,802,25,M,R,2026-02-18_11h27.18.852,VisualSearch_2526_3,,2025.2.4,2026-02-18 11h27.19.201301 +0100,
tilted.xlsx,The target is tilted.,117,54,6,6,1,1,1,1,1,1,1,1,0,0,0,0,0,7,8,117,space,6.776534400000173,None,1,1,0.8322996000001694,None,space,2.525147099999913,None,0,0,0,0,,,,,6,6,54,1,251.75800230000004,,,,,,,,,,,,,,,,,,,,,251.74297930000012,251.75800230000004,252.24221249999982,252.24761529999978,252.26703859999998,253.10885659999985,,,,,253.10905490000005,253.12423099999978,253.32486130000007,253.30846010000005,252.26703859999998,,,,,,,,1,1,0.8322996000001694,None,,,,,,,,802,25,M,R,2026-02-18_11h27.18.852,VisualSearch_2526_3,,2025.2.4,2026-02-18 11h27.19.201301 +0100,
tilted.xlsx,The target is tilted.,117,55,7,6,0,0,0,0,0,0,0,0,0,0,0,0,1,1,1,117,space,6.776534400000173,None,0,1,0.6310863999997309,None,space,2.525147099999913,None,0,0,0,0,,,,,6,7,55,7,253.32486130000007,,,,,,,,,,,,,,,,,,,,,253.30930200000012,253.32486130000007,253.80829459999995,253.81339019999996,253.83250869999983,254.47570599999972,,,,,254.47590209999998,254.49073139999973,254.69125609999992,254.67515439999988,253.83250869999983,,,,,,,,0,1,0.6310863999997309,None,,,,,,,,802,25,M,R,2026-02-18_11h27.18.852,VisualSearch_2526_3,,2025.2.4,2026-02-18 11h27.19.201301 +0100,
tilted.xlsx,The target is tilted.,117,56,0,7,1,1,1,1,0,0,0,0,0,0,0,0,0,3,4,117,space,6.776534400000173,None,0,0,0.999940400000014,None,space,2.525147099999913,None,0,0,0,0,,,,,7,0,56,2,254.69125609999992,,,,,,,,,,,,,,,,,,,,,254.67598249999992,254.69125609999992,255.17517199999975,255.17987189999985,255.1980478999999,256.2087438999997,,,,,256.2089397999998,256.22383869999976,256.42432400000007,256.40807559999985,255.1980478999999,,,,,,,,0,0,0.999940400000014,None,,,,,,,,802,25,M,R,2026-02-18_11h27.18.852,VisualSearch_2526_3,,2025.2.4,2026-02-18 11h27.19.201301 +0100,
tilted.xlsx,The target is tilted.,117,57,1,7,0,1,1,1,1,1,1,1,0,0,0,0,1,7,8,117,space,6.776534400000173,None,1,0,1.2774352999999792,None,space,2.525147099999913,None,0,0,0,0,,,,,7,1,57,5,256.42432400000007,,,,,,,,,,,,,,,,,,,,,256.4089306000001,256.42432400000007,256.9082825999999,256.9136131,256.93243010000015,258.22454179999977,,,,,258.22475699999995,258.24015819999977,258.4407523,258.4246054,256.93243010000015,,,,,,,,1,0,1.2774352999999792,None,,,,,,,,802,25,M,R,2026-02-18_11h27.18.852,VisualSearch_2526_3,,2025.2.4,2026-02-18 11h27.19.201301 +0100,
tilted.xlsx,The target is tilted.,117,58,2,7,1,1,1,1,1,1,1,1,0,0,0,0,0,7,8,117,space,6.776534400000173,None,1,1,0.8002314999998816,None,space,2.525147099999913,None,0,0,0,0,,,,,7,2,58,1,258.4407523,,,,,,,,,,,,,,,,,,,,,258.4254370999997,258.4407523,258.92442729999993,258.9290883999997,258.9476504999998,259.7581713999998,,,,,259.75837330000013,259.7732974999999,259.9738084999999,259.95764469999995,258.9476504999998,,,,,,,,1,1,0.8002314999998816,None,,,,,,,,802,25,M,R,2026-02-18_11h27.18.852,VisualSearch_2526_3,,2025.2.4,2026-02-18 11h27.19.201301 +0100,
tilted.xlsx,The target is tilted.,117,59,3,7,1,0,0,0,0,0,0,0,0,0,0,0,0,0,1,117,space,6.776534400000173,None,0,0,0.5990155999998024,None,space,2.525147099999913,None,0,0,0,0,,,,,7,3,59,3,259.9738084999999,,,,,,,,,,,,,,,,,,,,,259.9583779999998,259.9738084999999,260.4573482999999,260.4621348999999,260.4809814,261.09129729999995,,,,,261.09149260000004,261.1064854000001,261.30701120000003,261.2909417999999,260.4809814,,,,,,,,0,0,0.5990155999998024,None,,,,,,,,802,25,M,R,2026-02-18_11h27.18.852,VisualSearch_2526_3,,2025.2.4,2026-02-18 11h27.19.201301 +0100,
tilted.xlsx,The target is tilted.,117,60,4,7,0,1,1,1,1,1,1,1,1,1,1,1,1,11,12,117,space,6.776534400000173,None,1,0,0.804801000000225,None,space,2.525147099999913,None,0,0,0,0,,,,,7,4,60,4,261.30701120000003,,,,,,,,,,,,,,,,,,,,,261.2917437000001,261.30701120000003,261.79067299999997,261.7958739999999,261.81444520000014,262.62447459999976,,,,,262.62467100000003,262.63956039999994,262.83982719999995,262.8239979,261.81444520000014,,,,,,,,1,0,0.804801000000225,None,,,,,,,,802,25,M,R,2026-02-18_11h27.18.852,VisualSearch_2526_3,,2025.2.4,2026-02-18 11h27.19.201301 +0100,
tilted.xlsx,The target is tilted.,117,61,5,7,1,1,1,1,1,1,1,1,1,1,1,1,0,11,12,117,space,6.776534400000173,None,1,1,1.4579106999999567,None,space,2.525147099999913,None,0,0,0,0,,,,,7,5,61,0,262.83982719999995,,,,,,,,,,,,,,,,,,,,,262.8249044999998,262.83982719999995,263.3236102000001,263.32824789999995,263.34738370000014,264.80801789999987,,,,,264.80823280000004,264.8225911999998,265.0226407,265.0071143,263.34738370000014,,,,,,,,1,1,1.4579106999999567,None,,,,,,,,802,25,M,R,2026-02-18_11h27.18.852,VisualSearch_2526_3,,2025.2.4,2026-02-18 11h27.19.201301 +0100,
tilted.xlsx,The target is tilted.,117,62,6,7,0,0,0,0,0,0,0,0,0,0,0,0,1,1,1,117,space,6.776534400000173,None,0,1,0.6241246999998111,None,space,2.525147099999913,None,0,0,0,0,,,,,7,6,62,7,265.0226407,,,,,,,,,,,,,,,,,,,,,265.00791660000004,265.0226407,265.5070864999998,265.5121659000001,265.53007690000004,266.15742409999984,,,,,266.15765090000014,266.17234180000014,266.37279420000004,266.35622349999994,265.53007690000004,,,,,,,,0,1,0.6241246999998111,None,,,,,,,,802,25,M,R,2026-02-18_11h27.18.852,VisualSearch_2526_3,,2025.2.4,2026-02-18 11h27.19.201301 +0100,
tilted.xlsx,The target is tilted.,117,63,7,7,0,1,1,1,0,0,0,0,0,0,0,0,1,3,4,117,space,6.776534400000173,None,0,1,0.7720859000000928,None,space,2.525147099999913,None,0,0,0,0,,,,,7,7,63,6,266.37279420000004,,,,,,,,,,,,,,,,,,,,,266.35698360000015,266.37279420000004,266.85686179999993,266.86212449999994,266.8814919000001,267.65683910000007,,,,,267.65703699999995,267.6722230999999,267.8726815,267.8566965,266.8814919000001,,,,,,,,0,1,0.7720859000000928,None,,,,,,,,802,25,M,R,2026-02-18_11h27.18.852,VisualSearch_2526_3,,2025.2.4,2026-02-18 11h27.19.201301 +0100,
tilted.xlsx,The target is tilted.,117,64,0,8,1,1,1,1,0,0,0,0,0,0,0,0,0,3,4,117,space,6.776534400000173,None,0,0,1.3596161000000393,None,space,2.525147099999913,None,0,0,0,0,,,,,8,0,64,2,267.8726815,,,,,,,,,,,,,,,,,,,,,267.85749910000004,267.8726815,268.35664469999983,268.36184809999986,268.38074370000004,269.7562536999999,,,,,269.7564554999999,269.77189629999975,269.97245369999973,269.9564178999999,268.38074370000004,,,,,,,,0,0,1.3596161000000393,None,,,,,,,,802,25,M,R,2026-02-18_11h27.18.852,VisualSearch_2526_3,,2025.2.4,2026-02-18 11h27.19.201301 +0100,
tilted.xlsx,The target is tilted.,117,65,1,8,1,0,0,0,0,0,0,0,0,0,0,0,0,0,1,117,space,6.776534400000173,None,0,0,0.7101379999999153,None,space,2.525147099999913,None,0,0,0,0,,,,,8,1,65,3,269.97245369999973,,,,,,,,,,,,,,,,,,,,,269.9572201000001,269.97245369999973,270.4562987999998,270.4613510999998,270.47998199999984,271.205997,,,,,271.2062258000001,271.22167119999995,271.4221901000001,271.4061754999998,270.47998199999984,,,,,,,,0,0,0.7101379999999153,None,,,,,,,,802,25,M,R,2026-02-18_11h27.18.852,VisualSearch_2526_3,,2025.2.4,2026-02-18 11h27.19.201301 +0100,
tilted.xlsx,The target is tilted.,117,66,2,8,0,1,1,1,0,0,0,0,0,0,0,0,1,3,4,117,space,6.776534400000173,None,0,1,1.1369275999995807,None,space,2.525147099999913,None,0,0,0,0,,,,,8,2,66,6,271.4221901000001,,,,,,,,,,,,,,,,,,,,,271.4069792999999,271.4221901000001,271.90615590000016,271.91114990000005,271.92967850000014,273.0728696000001,,,,,273.0731090999998,273.0880788999998,273.28834700000016,273.27257469999995,271.92967850000014,,,,,,,,0,1,1.1369275999995807,None,,,,,,,,802,25,M,R,2026-02-18_11h27.18.852,VisualSearch_2526_3,,2025.2.4,2026-02-18 11h27.19.201301 +0100,
tilted.xlsx,The target is tilted.,117,67,3,8,1,1,1,1,1,1,1,1,0,0,0,0,0,7,8,117,space,6.776534400000173,None,1,1,0.8401246999997056,None,space,2.525147099999913,None,0,0,0,0,,,,,8,3,67,1,273.28834700000016,,,,,,,,,,,,,,,,,,,,,273.2734083,273.28834700000016,273.77251709999973,273.7777129000001,273.79632459999993,274.6391801,,,,,274.6393958999997,274.65453720000005,274.85515699999996,274.8387321,273.79632459999993,,,,,,,,1,1,0.8401246999997056,None,,,,,,,,802,25,M,R,2026-02-18_11h27.18.852,VisualSearch_2526_3,,2025.2.4,2026-02-18 11h27.19.201301 +0100,
tilted.xlsx,The target is tilted.,117,68,4,8,0,1,1,1,1,1,1,1,0,0,0,0,1,7,8,117,space,6.776534400000173,None,1,0,1.940216099999816,None,space,2.525147099999913,None,0,0,0,0,,,,,8,4,68,5,274.85515699999996,,,,,,,,,,,,,,,,,,,,,274.83960739999975,274.85515699999996,275.3385659999999,275.3437364000001,275.3623379999999,277.3057967999998,,,,,277.3059886000001,277.32082690000016,277.52118359999986,277.50485419999995,275.3623379999999,,,,,,,,1,0,1.940216099999816,None,,,,,,,,802,25,M,R,2026-02-18_11h27.18.852,VisualSearch_2526_3,,2025.2.4,2026-02-18 11h27.19.201301 +0100,
tilted.xlsx,The target is tilted.,117,69,5,8,1,1,1,1,1,1,1,1,1,1,1,1,0,11,12,117,space,6.776534400000173,None,0,0,1.8357038999997712,None,space,2.525147099999913,None,0,0,0,0,,,,,8,5,69,0,277.52118359999986,,,,,,,,,,,,,,,,,,,,,277.5057988999997,277.52118359999986,278.00528970000005,278.01024199999983,278.0290036000001,279.8717311999999,,,,,279.87192270000014,279.8871430999998,280.0876957999999,280.07163809999975,278.0290036000001,,,,,,,,0,0,1.8357038999997712,None,,,,,,,,802,25,M,R,2026-02-18_11h27.18.852,VisualSearch_2526_3,,2025.2.4,2026-02-18 11h27.19.201301 +0100,
tilted.xlsx,The target is tilted.,117,70,6,8,0,0,0,0,0,0,0,0,0,0,0,0,1,1,1,117,space,6.776534400000173,None,0,1,0.9323491000000104,None,space,2.525147099999913,None,0,0,0,0,,,,,8,6,70,7,280.0876957999999,,,,,,,,,,,,,,,,,,,,,280.07243900000003,280.0876957999999,280.57147699999996,280.5767901999998,280.59562559999995,281.5383582999998,,,,,281.53858290000016,281.5536053000001,281.7537766999999,281.7381943999999,280.59562559999995,,,,,,,,0,1,0.9323491000000104,None,,,,,,,,802,25,M,R,2026-02-18_11h27.18.852,VisualSearch_2526_3,,2025.2.4,2026-02-18 11h27.19.201301 +0100,
tilted.xlsx,The target is tilted.,117,71,7,8,0,1,1,1,1,1,1,1,1,1,1,1,1,11,12,117,space,6.776534400000173,None,1,0,1.1254816000000574,None,space,2.525147099999913,None,0,0,0,0,,,,,8,7,71,4,281.7537766999999,,,,,,,,,,,,,,,,,,,,,281.7390083,281.7537766999999,282.2379541999999,282.24319000000014,282.2628504999998,283.40435579999985,,,,,283.40455759999986,283.41990410000017,283.6204625999999,283.60424939999984,282.2628504999998,,,,,,,,1,0,1.1254816000000574,None,,,,,,,,802,25,M,R,2026-02-18_11h27.18.852,VisualSearch_2526_3,,2025.2.4,2026-02-18 11h27.19.201301 +0100,
tilted.xlsx,The target is tilted.,117,72,0,9,0,0,0,0,0,0,0,0,0,0,0,0,1,1,1,117,space,6.776534400000173,None,0,1,0.7567272999999659,None,space,2.525147099999913,None,0,0,0,0,,,,,9,0,72,7,283.6204625999999,,,,,,,,,,,,,,,,,,,,,283.60501840000006,283.6204625999999,284.1041562999999,284.10871689999976,284.1277163999998,284.8877907000001,,,,,284.8879839000001,284.9030346999998,285.1031078000001,285.0870596999998,284.1277163999998,,,,,,,,0,1,0.7567272999999659,None,,,,,,,,802,25,M,R,2026-02-18_11h27.18.852,VisualSearch_2526_3,,2025.2.4,2026-02-18 11h27.19.201301 +0100,
tilted.xlsx,The target is tilted.,117,73,1,9,0,1,1,1,1,1,1,1,1,1,1,1,1,11,12,117,space,6.776534400000173,None,1,0,2.1111361000002944,None,space,2.525147099999913,None,0,0,0,0,,,,,9,1,73,4,285.1031078000001,,,,,,,,,,,,,,,,,,,,,285.08781120000003,285.1031078000001,285.5875166999999,285.5922059999998,285.61018269999977,287.73696949999976,,,,,287.73721320000004,287.75261379999984,287.95324219999975,287.93707429999995,285.61018269999977,,,,,,,,1,0,2.1111361000002944,None,,,,,,,,802,25,M,R,2026-02-18_11h27.18.852,VisualSearch_2526_3,,2025.2.4,2026-02-18 11h27.19.201301 +0100,
tilted.xlsx,The target is tilted.,117,74,2,9,0,1,1,1,1,1,1,1,0,0,0,0,1,7,8,117,space,6.776534400000173,None,1,0,1.06854629999998,None,space,2.525147099999913,None,0,0,0,0,,,,,9,2,74,5,287.95324219999975,,,,,,,,,,,,,,,,,,,,,287.9379436999998,287.95324219999975,288.4368595000001,288.4418781999998,288.4604134000001,289.5374862999997,,,,,289.5377153999998,289.552408,289.75291089999973,289.7366536999998,288.4604134000001,,,,,,,,1,0,1.06854629999998,None,,,,,,,,802,25,M,R,2026-02-18_11h27.18.852,VisualSearch_2526_3,,2025.2.4,2026-02-18 11h27.19.201301 +0100,
tilted.xlsx,The target is tilted.,117,75,3,9,1,0,0,0,0,0,0,0,0,0,0,0,0,0,1,117,space,6.776534400000173,None,0,0,0.6346395000000484,None,space,2.525147099999913,None,0,0,0,0,,,,,9,3,75,3,289.75291089999973,,,,,,,,,,,,,,,,,,,,,289.7374811999998,289.75291089999973,290.2368689,290.24213329999975,290.2620342,290.9033255999998,,,,,290.9035174999999,290.91890969999986,291.11942839999983,291.10340899999983,290.2620342,,,,,,,,0,0,0.6346395000000484,None,,,,,,,,802,25,M,R,2026-02-18_11h27.18.852,VisualSearch_2526_3,,2025.2.4,2026-02-18 11h27.19.201301 +0100,
tilted.xlsx,The target is tilted.,117,76,4,9,1,1,1,1,0,0,0,0,0,0,0,0,0,3,4,117,space,6.776534400000173,None,0,0,1.3988096999996742,None,space,2.525147099999913,None,0,0,0,0,,,,,9,4,76,2,291.11942839999983,,,,,,,,,,,,,,,,,,,,,291.10422819999985,291.11942839999983,291.6031171999998,291.60833479999974,291.6268331000001,293.03686930000003,,,,,293.0370573,293.05193610000015,293.2524106000001,293.2360656000001,291.6268331000001,,,,,,,,0,0,1.3988096999996742,None,,,,,,,,802,25,M,R,2026-02-18_11h27.18.852,VisualSearch_2526_3,,2025.2.4,2026-02-18 11h27.19.201301 +0100,
tilted.xlsx,The target is tilted.,117,77,5,9,1,1,1,1,1,1,1,1,1,1,1,1,0,11,12,117,space,6.776534400000173,None,1,1,1.162078500000007,None,space,2.525147099999913,None,0,0,0,0,,,,,9,5,77,0,293.2524106000001,,,,,,,,,,,,,,,,,,,,,293.2368075999998,293.2524106000001,293.7363446999998,293.74124630000006,293.7598702999999,294.936068,,,,,294.93626289999975,294.9516343999999,295.1521186,295.1361343999997,293.7598702999999,,,,,,,,1,1,1.162078500000007,None,,,,,,,,802,25,M,R,2026-02-18_11h27.18.852,VisualSearch_2526_3,,2025.2.4,2026-02-18 11h27.19.201301 +0100,
tilted.xlsx,The target is tilted.,117,78,6,9,1,1,1,1,1,1,1,1,0,0,0,0,0,7,8,117,space,6.776534400000173,None,1,1,0.9456350000000384,None,space,2.525147099999913,None,0,0,0,0,,,,,9,6,78,1,295.1521186,,,,,,,,,,,,,,,,,,,,,295.1369586999999,295.1521186,295.6362583,295.64127229999986,295.6591466,296.61907340000016,,,,,296.61929680000003,296.6347206999999,296.8353287,296.81911869999976,295.6591466,,,,,,,,1,1,0.9456350000000384,None,,,,,,,,802,25,M,R,2026-02-18_11h27.18.852,VisualSearch_2526_3,,2025.2.4,2026-02-18 11h27.19.201301 +0100,
tilted.xlsx,The target is tilted.,117,79,7,9,0,1,1,1,0,0,0,0,0,0,0,0,1,3,4,117,space,6.776534400000173,None,0,1,1.0881604999999581,None,space,2.525147099999913,None,0,0,0,0,,,,,9,7,79,6,296.8353287,,,,,,,,,,,,,,,,,,,,,296.8199107999999,296.8353287,297.31892689999995,297.32405629999994,297.34197110000014,298.43586689999984,,,,,298.43606109999973,298.4511698000001,298.65171250000003,298.6356363,297.34197110000014,,,,,,,,0,1,1.0881604999999581,None,,,,,,,,802,25,M,R,2026-02-18_11h27.18.852,VisualSearch_2526_3,,2025.2.4,2026-02-18 11h27.19.201301 +0100,
tilted.xlsx,The target is tilted.,117,80,0,10,1,1,1,1,1,1,1,1,1,1,1,1,0,11,12,117,space,6.776534400000173,None,1,1,1.5854928000003383,None,space,2.525147099999913,None,0,0,0,0,,,,,10,0,80,0,298.65171250000003,,,,,,,,,,,,,,,,,,,,,298.63645559999986,298.65171250000003,299.1353810999999,299.14058320000004,299.1591158000001,300.7524023000001,,,,,300.75261090000004,300.76746749999984,300.9677299,300.95161069999995,299.1591158000001,,,,,,,,1,1,1.5854928000003383,None,,,,,,,,802,25,M,R,2026-02-18_11h27.18.852,VisualSearch_2526_3,,2025.2.4,2026-02-18 11h27.19.201301 +0100,
tilted.xlsx,The target is tilted.,117,81,1,10,1,1,1,1,0,0,0,0,0,0,0,0,0,3,4,117,space,6.776534400000173,None,0,0,0.8772275999999692,None,space,2.525147099999913,None,0,0,0,0,,,,,10,1,81,2,300.9677299,,,,,,,,,,,,,,,,,,,,,300.9524351,300.9677299,301.45204239999975,301.4572798999998,301.4759189000001,302.3683188,,,,,302.3685089999999,302.3839359999997,302.58420849999993,302.5683964,301.4759189000001,,,,,,,,0,0,0.8772275999999692,None,,,,,,,,802,25,M,R,2026-02-18_11h27.18.852,VisualSearch_2526_3,,2025.2.4,2026-02-18 11h27.19.201301 +0100,
tilted.xlsx,The target is tilted.,117,82,2,10,0,1,1,1,1,1,1,1,0,0,0,0,1,7,8,117,space,6.776534400000173,None,1,0,0.8299068000001171,None,space,2.525147099999913,None,0,0,0,0,,,,,10,2,82,5,302.58420849999993,,,,,,,,,,,,,,,,,,,,,302.5692061,302.58420849999993,303.0685076,303.0737288999999,303.0923235,303.9347692000001,,,,,303.93496419999974,303.9503375999998,304.15095410000004,304.1349406999998,303.0923235,,,,,,,,1,0,0.8299068000001171,None,,,,,,,,802,25,M,R,2026-02-18_11h27.18.852,VisualSearch_2526_3,,2025.2.4,2026-02-18 11h27.19.201301 +0100,
tilted.xlsx,The target is tilted.,117,83,3,10,1,0,0,0,0,0,0,0,0,0,0,0,0,0,1,117,space,6.776534400000173,None,0,0,0.5777881000003617,None,space,2.525147099999913,None,0,0,0,0,,,,,10,3,83,3,304.15095410000004,,,,,,,,,,,,,,,,,,,,,304.1357567,304.15095410000004,304.6344694999998,304.63909879999983,304.65759100000014,305.25125930000013,,,,,305.2514535999999,305.2668361000001,305.46737429999985,305.4511483000001,304.65759100000014,,,,,,,,0,0,0.5777881000003617,None,,,,,,,,802,25,M,R,2026-02-18_11h27.18.852,VisualSearch_2526_3,,2025.2.4,2026-02-18 11h27.19.201301 +0100,
tilted.xlsx,The target is tilted.,117,84,4,10,0,1,1,1,0,0,0,0,0,0,0,0,1,3,4,117,space,6.776534400000173,None,0,1,0.8489317999997184,None,space,2.525147099999913,None,0,0,0,0,,,,,10,4,84,6,305.46737429999985,,,,,,,,,,,,,,,,,,,,,305.4519138999999,305.46737429999985,305.9513532000001,305.95662429999993,305.97671309999987,306.8349297999998,,,,,306.83512280000014,306.8503258999999,307.05009500000006,307.03389830000015,305.97671309999987,,,,,,,,0,1,0.8489317999997184,None,,,,,,,,802,25,M,R,2026-02-18_11h27.18.852,VisualSearch_2526_3,,2025.2.4,2026-02-18 11h27.19.201301 +0100,
tilted.xlsx,The target is tilted.,117,85,5,10,1,1,1,1,1,1,1,1,0,0,0,0,0,7,8,117,space,6.776534400000173,None,1,1,1.5536348999999063,None,space,2.525147099999913,None,0,0,0,0,,,,,10,5,85,1,307.05009500000006,,,,,,,,,,,,,,,,,,,,,307.03463169999986,307.05009500000006,307.53444379999974,307.5395751000001,307.55764580000005,309.1178009,,,,,309.11799169999995,309.13311429999976,309.33334000000013,309.31732120000015,307.55764580000005,,,,,,,,1,1,1.5536348999999063,None,,,,,,,,802,25,M,R,2026-02-18_11h27.18.852,VisualSearch_2526_3,,2025.2.4,2026-02-18 11h27.19.201301 +0100,
tilted.xlsx,The target is tilted.,117,86,6,10,0,0,0,0,0,0,0,0,0,0,0,0,1,1,1,117,space,6.776534400000173,None,0,1,0.6791550999996616,None,space,2.525147099999913,None,0,0,0,0,,,,,10,6,86,7,309.33334000000013,,,,,,,,,,,,,,,,,,,,,309.3180741000001,309.33334000000013,309.81684940000014,309.82191109999985,309.8404523999998,310.5343918999997,,,,,310.53458520000004,310.5499141,310.74997989999974,310.73398039999984,309.8404523999998,,,,,,,,0,1,0.6791550999996616,None,,,,,,,,802,25,M,R,2026-02-18_11h27.18.852,VisualSearch_2526_3,,2025.2.4,2026-02-18 11h27.19.201301 +0100,
tilted.xlsx,The target is tilted.,117,87,7,10,0,1,1,1,1,1,1,1,1,1,1,1,1,11,12,117,space,6.776534400000173,None,1,0,1.7362809000001107,None,space,2.525147099999913,None,0,0,0,0,,,,,10,7,87,4,310.74997989999974,,,,,,,,,,,,,,,,,,,,,310.7347737,310.74997989999974,311.2339004999999,311.2390117,311.2574074999998,313.0005834999997,,,,,313.0007762,313.0162467,313.21632839999984,313.19981719999987,311.2574074999998,,,,,,,,1,0,1.7362809000001107,None,,,,,,,,802,25,M,R,2026-02-18_11h27.18.852,VisualSearch_2526_3,,2025.2.4,2026-02-18 11h27.19.201301 +0100,
tilted.xlsx,The target is tilted.,117,88,0,11,0,1,1,1,1,1,1,1,1,1,1,1,1,11,12,117,space,6.776534400000173,None,1,0,0.889842999999928,None,space,2.525147099999913,None,0,0,0,0,,,,,11,0,88,4,313.21632839999984,,,,,,,,,,,,,,,,,,,,,313.20066799999995,313.21632839999984,313.7002073999997,313.7052574999998,313.72451409999985,314.6171925999997,,,,,314.61739549999993,314.63263069999994,314.8324397000001,314.8166554999998,313.72451409999985,,,,,,,,1,0,0.889842999999928,None,,,,,,,,802,25,M,R,2026-02-18_11h27.18.852,VisualSearch_2526_3,,2025.2.4,2026-02-18 11h27.19.201301 +0100,
tilted.xlsx,The target is tilted.,117,89,1,11,0,1,1,1,0,0,0,0,0,0,0,0,1,3,4,117,space,6.776534400000173,None,0,1,0.7638913000000684,None,space,2.525147099999913,None,0,0,0,0,,,,,11,1,89,6,314.8324397000001,,,,,,,,,,,,,,,,,,,,,314.81746399999975,314.8324397000001,315.3164579999998,315.32152270000006,315.3399761999999,316.1169061999999,,,,,316.11710219999986,316.13205930000004,316.3325655999997,316.31652399999984,315.3399761999999,,,,,,,,0,1,0.7638913000000684,None,,,,,,,,802,25,M,R,2026-02-18_11h27.18.852,VisualSearch_2526_3,,2025.2.4,2026-02-18 11h27.19.201301 +0100,
tilted.xlsx,The target is tilted.,117,90,2,11,1,1,1,1,1,1,1,1,1,1,1,1,0,11,12,117,space,6.776534400000173,None,1,1,0.7600828999998157,None,space,2.525147099999913,None,0,0,0,0,,,,,11,2,90,0,316.3325655999997,,,,,,,,,,,,,,,,,,,,,316.31731919999993,316.3325655999997,316.81628850000016,316.82099289999996,316.83968079999977,317.6166819,,,,,317.61687470000015,317.6321432,317.8321213999998,317.8161863,316.83968079999977,,,,,,,,1,1,0.7600828999998157,None,,,,,,,,802,25,M,R,2026-02-18_11h27.18.852,VisualSearch_2526_3,,2025.2.4,2026-02-18 11h27.19.201301 +0100,
tilted.xlsx,The target is tilted.,117,91,3,11,1,1,1,1,0,0,0,0,0,0,0,0,0,3,4,117,space,6.776534400000173,None,0,0,1.1296477999999297,None,space,2.525147099999913,None,0,0,0,0,,,,,11,3,91,2,317.8321213999998,,,,,,,,,,,,,,,,,,,,,317.8168915000001,317.8321213999998,318.3161319999999,318.3207631,318.3398523999999,319.48311319999993,,,,,319.48330799999985,319.4985349999997,319.69859229999975,319.6827293000001,318.3398523999999,,,,,,,,0,0,1.1296477999999297,None,,,,,,,,802,25,M,R,2026-02-18_11h27.18.852,VisualSearch_2526_3,,2025.2.4,2026-02-18 11h27.19.201301 +0100,
tilted.xlsx,The target is tilted.,117,92,4,11,0,1,1,1,1,1,1,1,0,0,0,0,1,7,8,117,space,6.776534400000173,None,1,0,0.7318870999997671,None,space,2.525147099999913,None,0,0,0,0,,,,,11,4,92,5,319.69859229999975,,,,,,,,,,,,,,,,,,,,,319.6836481999999,319.69859229999975,320.1825248,320.18709690000014,320.2059214000001,320.9491772000001,,,,,320.9493715999997,320.96499399999993,321.1651950999999,321.1487576999998,320.2059214000001,,,,,,,,1,0,0.7318870999997671,None,,,,,,,,802,25,M,R,2026-02-18_11h27.18.852,VisualSearch_2526_3,,2025.2.4,2026-02-18 11h27.19.201301 +0100,
tilted.xlsx,The target is tilted.,117,93,5,11,0,0,0,0,0,0,0,0,0,0,0,0,1,1,1,117,space,6.776534400000173,None,0,1,0.6084411000001637,None,space,2.525147099999913,None,0,0,0,0,,,,,11,5,93,7,321.1651950999999,,,,,,,,,,,,,,,,,,,,,321.14960029999975,321.1651950999999,321.6486010999997,321.65316859999984,321.67185329999984,322.2827576999998,,,,,322.2829652999999,322.29803200000015,322.4978971999999,322.48202549999996,321.67185329999984,,,,,,,,0,1,0.6084411000001637,None,,,,,,,,802,25,M,R,2026-02-18_11h27.18.852,VisualSearch_2526_3,,2025.2.4,2026-02-18 11h27.19.201301 +0100,
tilted.xlsx,The target is tilted.,117,94,6,11,1,1,1,1,1,1,1,1,0,0,0,0,0,7,8,117,space,6.776534400000173,None,1,1,1.6635781999998471,None,space,2.525147099999913,None,0,0,0,0,,,,,11,6,94,1,322.4978971999999,,,,,,,,,,,,,,,,,,,,,322.4827858999997,322.4978971999999,322.98213529999975,322.98710299999993,323.00555239999994,324.68203749999975,,,,,324.68223480000006,324.69754779999994,324.8978699999998,324.88195629999973,323.00555239999994,,,,,,,,1,1,1.6635781999998471,None,,,,,,,,802,25,M,R,2026-02-18_11h27.18.852,VisualSearch_2526_3,,2025.2.4,2026-02-18 11h27.19.201301 +0100,
tilted.xlsx,The target is tilted.,117,95,7,11,1,0,0,0,0,0,0,0,0,0,0,0,0,0,1,117,space,6.776534400000173,None,0,0,0.6845635000004222,None,space,2.525147099999913,None,0,0,0,0,,,,,11,7,95,3,324.8978699999998,,,,,,,,,,,,,,,,,,,,,324.88277590000007,324.8978699999998,325.38189969999985,325.3872421000001,325.4060433999998,326.09884250000005,,,,,326.09903559999975,326.11405509999986,326.3141436000001,326.29829070000005,325.4060433999998,,,,,,,,0,0,0.6845635000004222,None,,,,,,,,802,25,M,R,2026-02-18_11h27.18.852,VisualSearch_2526_3,,2025.2.4,2026-02-18 11h27.19.201301 +0100,
tilted.xlsx,The target is tilted.,117,96,0,12,0,1,1,1,1,1,1,1,0,0,0,0,1,7,8,117,space,6.776534400000173,None,1,0,1.0214107000001604,None,space,2.525147099999913,None,0,0,0,0,,,,,12,0,96,5,326.3141436000001,,,,,,,,,,,,,,,,,,,,,326.2991492000001,326.3141436000001,326.7983841999999,326.80303619999995,326.82163189999983,327.84845080000014,,,,,327.8486447999999,327.86415149999993,328.0641535,328.04778669999996,326.82163189999983,,,,,,,,1,0,1.0214107000001604,None,,,,,,,,802,25,M,R,2026-02-18_11h27.18.852,VisualSearch_2526_3,,2025.2.4,2026-02-18 11h27.19.201301 +0100,
tilted.xlsx,The target is tilted.,117,97,1,12,1,1,1,1,0,0,0,0,0,0,0,0,0,3,4,117,space,6.776534400000173,None,0,0,0.9834580000001552,None,space,2.525147099999913,None,0,0,0,0,,,,,12,1,97,2,328.0641535,,,,,,,,,,,,,,,,,,,,,328.04861070000015,328.0641535,328.5480158999999,328.55365559999973,328.5724557999997,329.56495270000005,,,,,329.56514259999994,329.5805525999999,329.7805023000001,329.76406700000007,328.5724557999997,,,,,,,,0,0,0.9834580000001552,None,,,,,,,,802,25,M,R,2026-02-18_11h27.18.852,VisualSearch_2526_3,,2025.2.4,2026-02-18 11h27.19.201301 +0100,
tilted.xlsx,The target is tilted.,117,98,2,12,1,1,1,1,1,1,1,1,1,1,1,1,0,11,12,117,space,6.776534400000173,None,1,1,0.8205958999997165,None,space,2.525147099999913,None,0,0,0,0,,,,,12,2,98,0,329.7805023000001,,,,,,,,,,,,,,,,,,,,,329.7648242999999,329.7805023000001,330.26458779999984,330.26944109999977,330.28819209999983,331.1147783000001,,,,,331.1149712000001,331.12996369999973,331.3304413000001,331.31465990000015,330.28819209999983,,,,,,,,1,1,0.8205958999997165,None,,,,,,,,802,25,M,R,2026-02-18_11h27.18.852,VisualSearch_2526_3,,2025.2.4,2026-02-18 11h27.19.201301 +0100,
tilted.xlsx,The target is tilted.,117,99,3,12,1,0,0,0,0,0,0,0,0,0,0,0,0,0,1,117,space,6.776534400000173,None,0,0,0.47490179999977045,None,space,2.525147099999913,None,0,0,0,0,,,,,12,3,99,3,331.3304413000001,,,,,,,,,,,,,,,,,,,,,331.31548280000015,331.3304413000001,331.81430899999987,331.8192564000001,331.8379630999998,332.31451000000015,,,,,332.31470420000005,332.33015109999997,332.5302136,332.51424450000013,331.8379630999998,,,,,,,,0,0,0.47490179999977045,None,,,,,,,,802,25,M,R,2026-02-18_11h27.18.852,VisualSearch_2526_3,,2025.2.4,2026-02-18 11h27.19.201301 +0100,
tilted.xlsx,The target is tilted.,117,100,4,12,0,1,1,1,1,1,1,1,1,1,1,1,1,11,12,117,space,6.776534400000173,None,1,0,0.9831195000001571,None,space,2.525147099999913,None,0,0,0,0,,,,,12,4,100,4,332.5302136,,,,,,,,,,,,,,,,,,,,,332.51496559999987,332.5302136,333.01395409999986,333.0185572999999,333.0371055999999,334.03069099999993,,,,,334.03088549999984,334.0466323999999,334.2466537999999,334.23054049999973,333.0371055999999,,,,,,,,1,0,0.9831195000001571,None,,,,,,,,802,25,M,R,2026-02-18_11h27.18.852,VisualSearch_2526_3,,2025.2.4,2026-02-18 11h27.19.201301 +0100,
tilted.xlsx,The target is tilted.,117,101,5,12,0,0,0,0,0,0,0,0,0,0,0,0,1,1,1,117,space,6.776534400000173,None,1,0,0.9776910000000498,None,space,2.525147099999913,None,0,0,0,0,,,,,12,5,101,7,334.2466537999999,,,,,,,,,,,,,,,,,,,,,334.23137210000004,334.2466537999999,334.73053489999984,334.73519269999997,334.75310360000003,335.74746389999973,,,,,335.74766050000017,335.7629969999998,335.96300930000007,335.94637729999977,334.75310360000003,,,,,,,,1,0,0.9776910000000498,None,,,,,,,,802,25,M,R,2026-02-18_11h27.18.852,VisualSearch_2526_3,,2025.2.4,2026-02-18 11h27.19.201301 +0100,
tilted.xlsx,The target is tilted.,117,102,6,12,0,1,1,1,0,0,0,0,0,0,0,0,1,3,4,117,space,6.776534400000173,None,0,1,1.2178204000001642,None,space,2.525147099999913,None,0,0,0,0,,,,,12,6,102,6,335.96300930000007,,,,,,,,,,,,,,,,,,,,,335.94714509999994,335.96300930000007,336.44702389999975,336.4521015999999,336.47079329999997,337.69721720000007,,,,,337.69740649999994,337.71281439999984,337.9125079999999,337.8968982000001,336.47079329999997,,,,,,,,0,1,1.2178204000001642,None,,,,,,,,802,25,M,R,2026-02-18_11h27.18.852,VisualSearch_2526_3,,2025.2.4,2026-02-18 11h27.19.201301 +0100,
tilted.xlsx,The target is tilted.,117,103,7,12,1,1,1,1,1,1,1,1,0,0,0,0,0,7,8,117,space,6.776534400000173,None,1,1,0.971679000000222,None,space,2.525147099999913,None,0,0,0,0,,,,,12,7,103,1,337.9125079999999,,,,,,,,,,,,,,,,,,,,,337.89772319999975,337.9125079999999,338.3968655999997,338.4021511000001,338.42158089999975,339.39664219999986,,,,,339.3968584999998,339.41232579999996,339.6125982999997,339.59638300000006,338.42158089999975,,,,,,,,1,1,0.971679000000222,None,,,,,,,,802,25,M,R,2026-02-18_11h27.18.852,VisualSearch_2526_3,,2025.2.4,2026-02-18 11h27.19.201301 +0100,
tilted.xlsx,The target is tilted.,117,104,0,13,0,1,1,1,1,1,1,1,1,1,1,1,1,11,12,117,space,6.776534400000173,None,1,0,1.214295900000252,None,space,2.525147099999913,None,0,0,0,0,,,,,13,0,104,4,339.6125982999997,,,,,,,,,,,,,,,,,,,,,339.5972090999999,339.6125982999997,340.09615570000005,340.10101529999974,340.11898040000005,341.3467409,,,,,341.34693719999996,341.3622765,341.5622779999999,341.5462361,340.11898040000005,,,,,,,,1,0,1.214295900000252,None,,,,,,,,802,25,M,R,2026-02-18_11h27.18.852,VisualSearch_2526_3,,2025.2.4,2026-02-18 11h27.19.201301 +0100,
tilted.xlsx,The target is tilted.,117,105,1,13,0,1,1,1,0,0,0,0,0,0,0,0,1,3,4,117,space,6.776534400000173,None,0,1,1.0257235000003675,None,space,2.525147099999913,None,0,0,0,0,,,,,13,1,105,6,341.5622779999999,,,,,,,,,,,,,,,,,,,,,341.54703599999993,341.5622779999999,342.0462192,342.0514659999999,342.0701309000001,343.11259329999984,,,,,343.11279090000016,343.1281905999999,343.32798790000015,343.3115318,342.0701309000001,,,,,,,,0,1,1.0257235000003675,None,,,,,,,,802,25,M,R,2026-02-18_11h27.18.852,VisualSearch_2526_3,,2025.2.4,2026-02-18 11h27.19.201301 +0100,
tilted.xlsx,The target is tilted.,117,106,2,13,1,0,0,0,0,0,0,0,0,0,0,0,0,0,1,117,space,6.776534400000173,None,0,0,0.6624228999999104,None,space,2.525147099999913,None,0,0,0,0,,,,,13,2,106,3,343.32798790000015,,,,,,,,,,,,,,,,,,,,,343.3119593000001,343.32798790000015,343.81260810000003,343.8178085999998,343.83704929999976,344.51305520000005,,,,,344.5132930999998,344.5280533,344.72805879999987,344.7124724999999,343.83704929999976,,,,,,,,0,0,0.6624228999999104,None,,,,,,,,802,25,M,R,2026-02-18_11h27.18.852,VisualSearch_2526_3,,2025.2.4,2026-02-18 11h27.19.201301 +0100,
tilted.xlsx,The target is tilted.,117,107,3,13,0,0,0,0,0,0,0,0,0,0,0,0,1,1,1,117,space,6.776534400000173,None,0,1,0.6989189000000806,None,space,2.525147099999913,None,0,0,0,0,,,,,13,3,107,7,344.72805879999987,,,,,,,,,,,,,,,,,,,,,344.71327310000015,344.72805879999987,345.21243300000015,345.2182515999998,345.2361955000001,345.946019,,,,,345.9462266999999,345.9616652999998,346.16158110000015,346.1449730999998,345.2361955000001,,,,,,,,0,1,0.6989189000000806,None,,,,,,,,802,25,M,R,2026-02-18_11h27.18.852,VisualSearch_2526_3,,2025.2.4,2026-02-18 11h27.19.201301 +0100,
tilted.xlsx,The target is tilted.,117,108,4,13,1,1,1,1,1,1,1,1,0,0,0,0,0,7,8,117,space,6.776534400000173,None,1,1,1.295319400000153,None,space,2.525147099999913,None,0,0,0,0,,,,,13,4,108,1,346.16158110000015,,,,,,,,,,,,,,,,,,,,,346.14570079999976,346.16158110000015,346.64551649999976,346.6506466999999,346.66947889999983,347.97870569999986,,,,,347.9789136999998,347.9946553,348.19457699999975,348.1783252,346.66947889999983,,,,,,,,1,1,1.295319400000153,None,,,,,,,,802,25,M,R,2026-02-18_11h27.18.852,VisualSearch_2526_3,,2025.2.4,2026-02-18 11h27.19.201301 +0100,
tilted.xlsx,The target is tilted.,117,109,5,13,0,1,1,1,1,1,1,1,0,0,0,0,1,7,8,117,space,6.776534400000173,None,1,0,0.9373015000001033,None,space,2.525147099999913,None,0,0,0,0,,,,,13,5,109,5,348.19457699999975,,,,,,,,,,,,,,,,,,,,,348.17907460000015,348.19457699999975,348.6783003999999,348.68290720000005,348.7006686,349.64554420000013,,,,,349.6457357999998,349.66071379999994,349.86114499999985,349.84511799999973,348.7006686,,,,,,,,1,0,0.9373015000001033,None,,,,,,,,802,25,M,R,2026-02-18_11h27.18.852,VisualSearch_2526_3,,2025.2.4,2026-02-18 11h27.19.201301 +0100,
tilted.xlsx,The target is tilted.,117,110,6,13,1,1,1,1,1,1,1,1,1,1,1,1,0,11,12,117,space,6.776534400000173,None,1,1,1.4187488000002304,None,space,2.525147099999913,None,0,0,0,0,,,,,13,6,110,0,349.86114499999985,,,,,,,,,,,,,,,,,,,,,349.84592380000004,349.86114499999985,350.34471669999994,350.34990229999994,350.36824650000017,351.7952157999998,,,,,351.7954039000001,351.8107933000001,352.01055110000016,351.9945806999999,350.36824650000017,,,,,,,,1,1,1.4187488000002304,None,,,,,,,,802,25,M,R,2026-02-18_11h27.18.852,VisualSearch_2526_3,,2025.2.4,2026-02-18 11h27.19.201301 +0100,
tilted.xlsx,The target is tilted.,117,111,7,13,1,1,1,1,0,0,0,0,0,0,0,0,0,3,4,117,space,6.776534400000173,None,0,0,0.9246352999998635,None,space,2.525147099999913,None,0,0,0,0,,,,,13,7,111,2,352.01055110000016,,,,,,,,,,,,,,,,,,,,,351.9955393,352.01055110000016,352.4947569000001,352.4998218999999,352.5177696999999,353.44494859999986,,,,,353.4451666,353.4603886,353.6605590999998,353.6442545,352.5177696999999,,,,,,,,0,0,0.9246352999998635,None,,,,,,,,802,25,M,R,2026-02-18_11h27.18.852,VisualSearch_2526_3,,2025.2.4,2026-02-18 11h27.19.201301 +0100,
tilted.xlsx,The target is tilted.,117,112,0,14,0,1,1,1,1,1,1,1,0,0,0,0,1,7,8,117,space,6.776534400000173,None,0,1,1.3910562999999456,None,space,2.525147099999913,None,0,0,0,0,,,,,14,0,112,5,353.6605590999998,,,,,,,,,,,,,,,,,,,,,353.64498749999984,353.6605590999998,354.14439760000005,354.1494619,354.1681908999999,355.56136030000016,,,,,355.5615576,355.5768039999998,355.7764391999999,355.7605110999998,354.1681908999999,,,,,,,,0,1,1.3910562999999456,None,,,,,,,,802,25,M,R,2026-02-18_11h27.18.852,VisualSearch_2526_3,,2025.2.4,2026-02-18 11h27.19.201301 +0100,
tilted.xlsx,The target is tilted.,117,113,1,14,0,0,0,0,0,0,0,0,0,0,0,0,1,1,1,117,space,6.776534400000173,None,1,0,0.6853387999999541,None,space,2.525147099999913,None,0,0,0,0,,,,,14,1,113,7,355.7764391999999,,,,,,,,,,,,,,,,,,,,,355.76131639999994,355.7764391999999,356.2607887999998,356.2655169999998,356.2833093999998,356.9778409999999,,,,,356.97803250000015,356.9930119999999,357.1934519000001,357.17738139999983,356.2833093999998,,,,,,,,1,0,0.6853387999999541,None,,,,,,,,802,25,M,R,2026-02-18_11h27.18.852,VisualSearch_2526_3,,2025.2.4,2026-02-18 11h27.19.201301 +0100,
tilted.xlsx,The target is tilted.,117,114,2,14,1,0,0,0,0,0,0,0,0,0,0,0,0,0,1,117,space,6.776534400000173,None,0,0,0.6876825999997891,None,space,2.525147099999913,None,0,0,0,0,,,,,14,2,114,3,357.1934519000001,,,,,,,,,,,,,,,,,,,,,357.17818239999997,357.1934519000001,357.6773423999998,357.6823237999997,357.7004364999998,358.3942151000001,,,,,358.39440349999995,358.4097637,358.6098941,358.59386730000006,357.7004364999998,,,,,,,,0,0,0.6876825999997891,None,,,,,,,,802,25,M,R,2026-02-18_11h27.18.852,VisualSearch_2526_3,,2025.2.4,2026-02-18 11h27.19.201301 +0100,
tilted.xlsx,The target is tilted.,117,115,3,14,1,1,1,1,0,0,0,0,0,0,0,0,0,3,4,117,space,6.776534400000173,None,0,0,0.8962957999997343,None,space,2.525147099999913,None,0,0,0,0,,,,,14,3,115,2,358.6098941,,,,,,,,,,,,,,,,,,,,,358.5947763999998,358.6098941,359.09376440000005,359.09817780000003,359.1171439999998,360.0275148999999,,,,,360.0277237,360.042469,360.2430469000001,360.22701400000005,359.1171439999998,,,,,,,,0,0,0.8962957999997343,None,,,,,,,,802,25,M,R,2026-02-18_11h27.18.852,VisualSearch_2526_3,,2025.2.4,2026-02-18 11h27.19.201301 +0100,
tilted.xlsx,The target is tilted.,117,116,4,14,1,1,1,1,1,1,1,1,1,1,1,1,0,11,12,117,space,6.776534400000173,None,1,1,2.552331899999899,None,space,2.525147099999913,None,0,0,0,0,,,,,14,4,116,0,360.2430469000001,,,,,,,,,,,,,,,,,,,,,360.2278732,360.2430469000001,360.7267837999998,360.7313417999999,360.75039949999973,363.3102401000001,,,,,363.31043439999985,363.3256931000001,363.5258134999999,363.5095418000001,360.75039949999973,,,,,,,,1,1,2.552331899999899,None,,,,,,,,802,25,M,R,2026-02-18_11h27.18.852,VisualSearch_2526_3,,2025.2.4,2026-02-18 11h27.19.201301 +0100,
tilted.xlsx,The target is tilted.,117,117,5,14,0,1,1,1,1,1,1,1,1,1,1,1,1,11,12,117,space,6.776534400000173,None,1,0,1.9407598000002508,None,space,2.525147099999913,None,0,0,0,0,,,,,14,5,117,4,363.5258134999999,,,,,,,,,,,,,,,,,,,,,363.51031490000014,363.5258134999999,364.009689,364.01471649999985,364.0327573999998,365.9766347,,,,,365.9768749,365.9919955999999,366.19207890000007,366.1754519000001,364.0327573999998,,,,,,,,1,0,1.9407598000002508,None,,,,,,,,802,25,M,R,2026-02-18_11h27.18.852,VisualSearch_2526_3,,2025.2.4,2026-02-18 11h27.19.201301 +0100,
tilted.xlsx,The target is tilted.,117,118,6,14,1,1,1,1,1,1,1,1,0,0,0,0,0,7,8,117,space,6.776534400000173,None,1,1,0.9349923999998282,None,space,2.525147099999913,None,0,0,0,0,,,,,14,6,118,1,366.19207890000007,,,,,,,,,,,,,,,,,,,,,366.17619579999973,366.19207890000007,366.67608280000013,366.6810909000001,366.69898779999994,367.64294389999986,,,,,367.64313459999994,367.65850390000014,367.8584737000001,367.8424538999998,366.69898779999994,,,,,,,,1,1,0.9349923999998282,None,,,,,,,,802,25,M,R,2026-02-18_11h27.18.852,VisualSearch_2526_3,,2025.2.4,2026-02-18 11h27.19.201301 +0100,
tilted.xlsx,The target is tilted.,117,119,7,14,0,1,1,1,0,0,0,0,0,0,0,0,1,3,4,117,space,6.776534400000173,None,1,0,1.162970999999743,None,space,2.525147099999913,None,0,0,0,0,,,,,14,7,119,6,367.8584737000001,,,,,,,,,,,,,,,,,,,,,367.84328099999993,367.8584737000001,368.34229700000014,368.3469132,368.36542599999984,369.54284719999987,,,,,369.5431401999999,369.55786720000015,369.78313339999977,369.74205230000007,368.36542599999984,,,,,,,,1,0,1.162970999999743,None,,,,,,,,802,25,M,R,2026-02-18_11h27.18.852,VisualSearch_2526_3,,2025.2.4,2026-02-18 11h27.19.201301 +0100,
tilted.xlsx,The target is tilted.,117,0,0,0,,,,,,,,,,,,,,,,,space,6.776534400000173,None,,,,,space,2.525147099999913,None,0,0,0,0,,,,,,,,,,,,,,,,,,,,,,,,,,,,,,,,,,,,,,,,,,,,,,,,,,,,,,,,,,,,,,,802,25,M,R,2026-02-18_11h27.18.852,VisualSearch_2526_3,,2025.2.4,2026-02-18 11h27.19.201301 +0100,
vertical.xlsx,The target is tilted.,135,0,0,0,0,1,1,1,1,1,1,1,0,0,0,0,1,7,8,135,space,6.338832100000218,None,0,1,1.8645007000000078,None,,,,0,1,1,1,0,0,0,5,,,,,376.16356499999983,,,,,,,,,,,,,,,369.78313339999977,369.78313339999977,369.78313339999977,space,6.338832100000218,None,376.1577035,376.16356499999983,376.6409370000001,376.64599,376.6651859999997,378.54141579999987,0,1,1.8645007000000078,None,378.5416049999999,378.55704990000004,378.7571382000001,378.74080349999986,,,,,,,,,,,,,,,,,,,,802,25,M,R,2026-02-18_11h27.18.852,VisualSearch_2526_3,,2025.2.4,2026-02-18 11h27.19.201301 +0100,
vertical.xlsx,The target is tilted.,135,1,1,0,0,1,1,1,1,1,1,1,1,1,1,1,1,11,12,135,space,6.338832100000218,None,0,1,1.8454560000000129,None,,,,0,1,1,1,0,1,1,4,,,,,378.7571382000001,,,,,,,,,,,,,,,,,,,,,378.74160010000014,378.7571382000001,379.2409401,379.2457214000001,379.26537759999974,381.12434159999975,0,1,1.8454560000000129,None,381.12452840000014,381.1398200999997,381.3400115999998,381.32395180000003,379.26537759999974,,,,,,,,,,,,,,,,,,,802,25,M,R,2026-02-18_11h27.18.852,VisualSearch_2526_3,,2025.2.4,2026-02-18 11h27.19.201301 +0100,
vertical.xlsx,The target is tilted.,135,2,2,0,1,0,0,0,0,0,0,0,0,0,0,0,0,0,1,135,space,6.338832100000218,None,1,1,0.49014800000031755,None,,,,0,1,1,1,0,2,2,3,,,,,381.3400115999998,,,,,,,,,,,,,,,,,,,,,381.3247652,381.3400115999998,381.8239171,381.8289970999999,381.8473058999998,382.34059419999994,1,1,0.49014800000031755,None,382.3407778999999,382.35635939999975,382.55648059999976,382.5404008999999,381.8473058999998,,,,,,,,,,,,,,,,,,,802,25,M,R,2026-02-18_11h27.18.852,VisualSearch_2526_3,,2025.2.4,2026-02-18 11h27.19.201301 +0100,
vertical.xlsx,The target is tilted.,135,3,3,0,1,1,1,1,0,0,0,0,0,0,0,0,0,3,4,135,space,6.338832100000218,None,1,1,1.127946300000076,None,,,,0,1,1,1,0,3,3,2,,,,,382.55648059999976,,,,,,,,,,,,,,,,,,,,,382.5411392000001,382.55648059999976,383.0401695999999,383.0449337,383.06354180000017,384.20727880000004,1,1,1.127946300000076,None,384.2074649000001,384.2228070000001,384.42253459999984,384.4068573999998,383.06354180000017,,,,,,,,,,,,,,,,,,,802,25,M,R,2026-02-18_11h27.18.852,VisualSearch_2526_3,,2025.2.4,2026-02-18 11h27.19.201301 +0100,
vertical.xlsx,The target is tilted.,135,4,4,0,0,1,1,1,0,0,0,0,0,0,0,0,1,3,4,135,space,6.338832100000218,None,0,1,0.5798789000000397,None,,,,0,1,1,1,0,4,4,6,,,,,384.42253459999984,,,,,,,,,,,,,,,,,,,,,384.40761939999993,384.42253459999984,384.9066413999999,384.9113308000001,384.9298681999999,385.52373739999985,0,1,0.5798789000000397,None,385.52392550000013,385.5393233,385.73932650000006,385.72336069999983,384.9298681999999,,,,,,,,,,,,,,,,,,,802,25,M,R,2026-02-18_11h27.18.852,VisualSearch_2526_3,,2025.2.4,2026-02-18 11h27.19.201301 +0100,
vertical.xlsx,The target is tilted.,135,5,5,0,1,1,1,1,1,1,1,1,0,0,0,0,0,7,8,135,space,6.338832100000218,None,1,1,0.9568073000000368,None,,,,0,1,1,1,0,5,5,1,,,,,385.73932650000006,,,,,,,,,,,,,,,,,,,,,385.7241140000001,385.73932650000006,386.2232189000001,386.2283477000001,386.2461490999999,387.20647150000013,1,1,0.9568073000000368,None,387.2066549000001,387.22231809999994,387.4223889,387.40586810000013,386.2461490999999,,,,,,,,,,,,,,,,,,,802,25,M,R,2026-02-18_11h27.18.852,VisualSearch_2526_3,,2025.2.4,2026-02-18 11h27.19.201301 +0100,
vertical.xlsx,The target is tilted.,135,6,6,0,1,1,1,1,1,1,1,1,1,1,1,1,0,11,12,135,space,6.338832100000218,None,1,1,0.5417427000002135,None,,,,0,1,1,1,0,6,6,0,,,,,387.4223889,,,,,,,,,,,,,,,,,,,,,387.40655149999975,387.4223889,387.90646119999974,387.91149799999994,387.9300634000001,388.4729511999999,1,1,0.5417427000002135,None,388.4731388,388.4884785999998,388.68897030000016,388.67272319999984,387.9300634000001,,,,,,,,,,,,,,,,,,,802,25,M,R,2026-02-18_11h27.18.852,VisualSearch_2526_3,,2025.2.4,2026-02-18 11h27.19.201301 +0100,
vertical.xlsx,The target is tilted.,135,7,7,0,0,0,0,0,0,0,0,0,0,0,0,0,1,1,1,135,space,6.338832100000218,None,0,1,0.4960740999999871,None,,,,0,1,1,1,0,7,7,7,,,,,388.68897030000016,,,,,,,,,,,,,,,,,,,,,388.67349109999986,388.68897030000016,389.1727553999999,389.17737020000004,389.1961032999998,389.7065680999999,0,1,0.4960740999999871,None,389.7067554999999,389.72201619999987,389.9221146,389.90579339999977,389.1961032999998,,,,,,,,,,,,,,,,,,,802,25,M,R,2026-02-18_11h27.18.852,VisualSearch_2526_3,,2025.2.4,2026-02-18 11h27.19.201301 +0100,
vertical.xlsx,The target is tilted.,135,0,0,0,1,0,0,0,0,0,0,0,0,0,0,0,0,0,1,135,space,6.338832100000218,None,1,1,0.9317098999999871,None,space,7.973901900000328,None,0,1,1,1,,,,,0,0,0,3,397.94784100000015,,,,,,,,,,,,,,,,,,,,,397.94194019999986,397.94784100000015,398.42108559999997,398.42554710000013,398.44358599999987,399.38835800000015,,,,,399.3885516,399.4039548999999,399.60409290000007,399.58814859999984,,389.9126105999999,389.9221146,389.9221146,397.9053368,space,7.973901900000328,None,1,1,0.9317098999999871,None,,,,,,,,802,25,M,R,2026-02-18_11h27.18.852,VisualSearch_2526_3,,2025.2.4,2026-02-18 11h27.19.201301 +0100,
vertical.xlsx,The target is tilted.,135,1,1,0,1,1,1,1,1,1,1,1,0,0,0,0,0,7,8,135,space,6.338832100000218,None,1,1,1.046663399999943,None,space,7.973901900000328,None,0,1,1,1,,,,,0,1,1,1,399.60409290000007,,,,,,,,,,,,,,,,,,,,,399.58898020000015,399.60409290000007,400.08723039999995,400.09048870000015,400.1072742000001,401.1715269000001,,,,,401.17172010000013,401.18711410000014,401.3865292999999,401.37056040000016,400.1072742000001,,,,,,,,1,1,1.046663399999943,None,,,,,,,,802,25,M,R,2026-02-18_11h27.18.852,VisualSearch_2526_3,,2025.2.4,2026-02-18 11h27.19.201301 +0100,
vertical.xlsx,The target is tilted.,135,2,2,0,0,1,1,1,1,1,1,1,1,1,1,1,1,11,12,135,space,6.338832100000218,None,0,1,1.136649899999611,None,space,7.973901900000328,None,0,1,1,1,,,,,0,2,2,4,401.3865292999999,,,,,,,,,,,,,,,,,,,,,401.3712897999999,401.3865292999999,401.87071860000015,401.87585769999987,401.8956669999998,403.03782060000003,,,,,403.03801599999997,403.05347189999975,403.2535124000001,403.2374989,401.8956669999998,,,,,,,,0,1,1.136649899999611,None,,,,,,,,802,25,M,R,2026-02-18_11h27.18.852,VisualSearch_2526_3,,2025.2.4,2026-02-18 11h27.19.201301 +0100,
vertical.xlsx,The target is tilted.,135,3,3,0,0,1,1,1,1,1,1,1,0,0,0,0,1,7,8,135,space,6.338832100000218,None,0,1,1.145507600000201,None,space,7.973901900000328,None,0,1,1,1,,,,,0,3,3,5,403.2535124000001,,,,,,,,,,,,,,,,,,,,,403.23829810000007,403.2535124000001,403.7374802999998,403.74249580000014,403.7606059999998,404.92086740000013,,,,,404.9210588000001,404.9365339000001,405.1364868999999,405.1204195999999,403.7606059999998,,,,,,,,0,1,1.145507600000201,None,,,,,,,,802,25,M,R,2026-02-18_11h27.18.852,VisualSearch_2526_3,,2025.2.4,2026-02-18 11h27.19.201301 +0100,
vertical.xlsx,The target is tilted.,135,4,4,0,0,1,1,1,0,0,0,0,0,0,0,0,1,3,4,135,space,6.338832100000218,None,0,1,0.8590976999998929,None,space,7.973901900000328,None,0,1,1,1,,,,,0,4,4,6,405.1364868999999,,,,,,,,,,,,,,,,,,,,,405.12116049999986,405.1364868999999,405.61986909999996,405.6250620999999,405.6433161,406.5041974999999,,,,,406.50439069999993,406.51930249999987,406.71939650000013,406.7035129000001,405.6433161,,,,,,,,0,1,0.8590976999998929,None,,,,,,,,802,25,M,R,2026-02-18_11h27.18.852,VisualSearch_2526_3,,2025.2.4,2026-02-18 11h27.19.201301 +0100,
vertical.xlsx,The target is tilted.,135,5,5,0,0,0,0,0,0,0,0,0,0,0,0,0,1,1,1,135,space,6.338832100000218,None,0,1,0.5208744999999908,None,space,7.973901900000328,None,0,1,1,1,,,,,0,5,5,7,406.71939650000013,,,,,,,,,,,,,,,,,,,,,406.70424330000014,406.71939650000013,407.2032973999999,407.2085069999998,407.22829999999976,407.7535416999999,,,,,407.7537339999999,407.76934230000006,407.9695068000001,407.9535068,407.22829999999976,,,,,,,,0,1,0.5208744999999908,None,,,,,,,,802,25,M,R,2026-02-18_11h27.18.852,VisualSearch_2526_3,,2025.2.4,2026-02-18 11h27.19.201301 +0100,
vertical.xlsx,The target is tilted.,135,6,6,0,1,1,1,1,1,1,1,1,1,1,1,1,0,11,12,135,space,6.338832100000218,None,1,1,1.3073804999999084,None,space,7.973901900000328,None,0,1,1,1,,,,,0,6,6,0,407.9695068000001,,,,,,,,,,,,,,,,,,,,,407.95430720000013,407.9695068000001,408.4531965000001,408.45785750000005,408.47651229999974,409.7871276000001,,,,,409.7873375999998,409.8021871000001,410.0026491999997,409.9864404,408.47651229999974,,,,,,,,1,1,1.3073804999999084,None,,,,,,,,802,25,M,R,2026-02-18_11h27.18.852,VisualSearch_2526_3,,2025.2.4,2026-02-18 11h27.19.201301 +0100,
vertical.xlsx,The target is tilted.,135,7,7,0,1,1,1,1,0,0,0,0,0,0,0,0,0,3,4,135,space,6.338832100000218,None,1,1,0.6939144999996643,None,space,7.973901900000328,None,0,1,1,1,,,,,0,7,7,2,410.0026491999997,,,,,,,,,,,,,,,,,,,,,409.98724059999995,410.0026491999997,410.4862253000001,410.49090190000015,410.5104529,411.2200477000001,,,,,411.22024509999983,411.2356681000001,411.4357777,411.4196511,410.5104529,,,,,,,,1,1,0.6939144999996643,None,,,,,,,,802,25,M,R,2026-02-18_11h27.18.852,VisualSearch_2526_3,,2025.2.4,2026-02-18 11h27.19.201301 +0100,
vertical.xlsx,The target is tilted.,135,8,0,1,1,1,1,1,1,1,1,1,1,1,1,1,0,11,12,135,space,6.338832100000218,None,1,1,1.0466959000000315,None,space,7.973901900000328,None,0,1,1,1,,,,,1,0,8,0,411.4357777,,,,,,,,,,,,,,,,,,,,,411.4204807000001,411.4357777,411.9195761000001,411.92459389999976,411.94327209999983,413.00317399999994,,,,,413.0033647999999,413.0186399999998,413.2187411,413.20305240000016,411.94327209999983,,,,,,,,1,1,1.0466959000000315,None,,,,,,,,802,25,M,R,2026-02-18_11h27.18.852,VisualSearch_2526_3,,2025.2.4,2026-02-18 11h27.19.201301 +0100,
vertical.xlsx,The target is tilted.,135,9,1,1,1,0,0,0,0,0,0,0,0,0,0,0,0,0,1,135,space,6.338832100000218,None,1,1,0.5838054999999258,None,space,7.973901900000328,None,0,1,1,1,,,,,1,1,9,3,413.2187411,,,,,,,,,,,,,,,,,,,,,413.2038821000001,413.2187411,413.70232929999975,413.7069704999999,413.72552240000005,414.31954689999975,,,,,414.3197329999998,414.33487779999996,414.53486829999974,414.5190465999999,413.72552240000005,,,,,,,,1,1,0.5838054999999258,None,,,,,,,,802,25,M,R,2026-02-18_11h27.18.852,VisualSearch_2526_3,,2025.2.4,2026-02-18 11h27.19.201301 +0100,
vertical.xlsx,The target is tilted.,135,10,2,1,0,1,1,1,1,1,1,1,1,1,1,1,1,11,12,135,space,6.338832100000218,None,0,1,2.40134769999986,None,space,7.973901900000328,None,0,1,1,1,,,,,1,2,10,4,414.53486829999974,,,,,,,,,,,,,,,,,,,,,414.5198967000001,414.53486829999974,415.0189682,415.0236755000001,415.04232090000005,417.4525764,,,,,417.4527672999998,417.46800110000004,417.6678710000001,417.6521692000001,415.04232090000005,,,,,,,,0,1,2.40134769999986,None,,,,,,,,802,25,M,R,2026-02-18_11h27.18.852,VisualSearch_2526_3,,2025.2.4,2026-02-18 11h27.19.201301 +0100,
vertical.xlsx,The target is tilted.,135,11,3,1,0,1,1,1,0,0,0,0,0,0,0,0,1,3,4,135,space,6.338832100000218,None,0,1,0.7536850999999842,None,space,7.973901900000328,None,0,1,1,1,,,,,1,3,11,6,417.6678710000001,,,,,,,,,,,,,,,,,,,,,417.65296979999994,417.6678710000001,418.1518848999999,418.15655289999995,418.1750053999999,418.93572429999995,,,,,418.9359148999997,418.9510752000001,419.1511940999999,419.13485009999977,418.1750053999999,,,,,,,,0,1,0.7536850999999842,None,,,,,,,,802,25,M,R,2026-02-18_11h27.18.852,VisualSearch_2526_3,,2025.2.4,2026-02-18 11h27.19.201301 +0100,
vertical.xlsx,The target is tilted.,135,12,4,1,1,1,1,1,0,0,0,0,0,0,0,0,0,3,4,135,space,6.338832100000218,None,1,1,0.49320559999978286,None,space,7.973901900000328,None,0,1,1,1,,,,,1,4,12,2,419.1511940999999,,,,,,,,,,,,,,,,,,,,,419.1356464999999,419.1511940999999,419.6352849,419.6404493,419.6591395999999,420.16883740000003,,,,,420.1690303999999,420.1842615999999,420.38450299999977,420.3685326,419.6591395999999,,,,,,,,1,1,0.49320559999978286,None,,,,,,,,802,25,M,R,2026-02-18_11h27.18.852,VisualSearch_2526_3,,2025.2.4,2026-02-18 11h27.19.201301 +0100,
vertical.xlsx,The target is tilted.,135,13,5,1,1,1,1,1,1,1,1,1,0,0,0,0,0,7,8,135,space,6.338832100000218,None,1,1,0.7010566999997536,None,space,7.973901900000328,None,0,1,1,1,,,,,1,5,13,1,420.38450299999977,,,,,,,,,,,,,,,,,,,,,420.36938229999987,420.38450299999977,420.86821169999985,420.87262759999976,420.8905271999997,421.60174830000005,,,,,421.6019357,421.6173278000001,421.81716559999995,421.80139800000006,420.8905271999997,,,,,,,,1,1,0.7010566999997536,None,,,,,,,,802,25,M,R,2026-02-18_11h27.18.852,VisualSearch_2526_3,,2025.2.4,2026-02-18 11h27.19.201301 +0100,
vertical.xlsx,The target is tilted.,135,14,6,1,0,0,0,0,0,0,0,0,0,0,0,0,1,1,1,135,space,6.338832100000218,None,0,1,0.5502697000001717,None,space,7.973901900000328,None,0,1,1,1,,,,,1,6,14,7,421.81716559999995,,,,,,,,,,,,,,,,,,,,,421.80213349999985,421.81716559999995,422.30139240000017,422.30632019999985,422.32529669999985,422.8852360000001,,,,,422.8854821,422.9003733999998,423.10077490000003,423.08477089999997,422.32529669999985,,,,,,,,0,1,0.5502697000001717,None,,,,,,,,802,25,M,R,2026-02-18_11h27.18.852,VisualSearch_2526_3,,2025.2.4,2026-02-18 11h27.19.201301 +0100,
vertical.xlsx,The target is tilted.,135,15,7,1,0,1,1,1,1,1,1,1,0,0,0,0,1,7,8,135,space,6.338832100000218,None,0,1,1.2109778999997616,None,space,7.973901900000328,None,0,1,1,1,,,,,1,7,15,5,423.10077490000003,,,,,,,,,,,,,,,,,,,,,423.08557359999986,423.10077490000003,423.5842524999998,423.5894837999999,423.60809830000017,424.83498120000013,,,,,424.8352092,424.8503590999999,425.05024109999977,425.03455329999997,423.60809830000017,,,,,,,,0,1,1.2109778999997616,None,,,,,,,,802,25,M,R,2026-02-18_11h27.18.852,VisualSearch_2526_3,,2025.2.4,2026-02-18 11h27.19.201301 +0100,
vertical.xlsx,The target is tilted.,135,16,0,2,0,1,1,1,1,1,1,1,0,0,0,0,1,7,8,135,space,6.338832100000218,None,0,1,1.1308357000002616,None,space,7.973901900000328,None,0,1,1,1,,,,,2,0,16,5,425.05024109999977,,,,,,,,,,,,,,,,,,,,,425.0353885999998,425.05024109999977,425.53415829999994,425.5389052999999,425.5574765000001,426.7012870999997,,,,,426.7014828000001,426.71688489999997,426.91674650000004,426.90062119999993,425.5574765000001,,,,,,,,0,1,1.1308357000002616,None,,,,,,,,802,25,M,R,2026-02-18_11h27.18.852,VisualSearch_2526_3,,2025.2.4,2026-02-18 11h27.19.201301 +0100,
vertical.xlsx,The target is tilted.,135,17,1,2,0,1,1,1,1,1,1,1,1,1,1,1,1,11,12,135,space,6.338832100000218,None,0,1,1.9414757999998074,None,space,7.973901900000328,None,0,1,1,1,,,,,2,1,17,4,426.91674650000004,,,,,,,,,,,,,,,,,,,,,426.9013903,426.91674650000004,427.40075419999994,427.4057883999999,427.4237210000001,429.36749359999976,,,,,429.3676915000001,429.3829952000001,429.5830771000001,429.5667361999999,427.4237210000001,,,,,,,,0,1,1.9414757999998074,None,,,,,,,,802,25,M,R,2026-02-18_11h27.18.852,VisualSearch_2526_3,,2025.2.4,2026-02-18 11h27.19.201301 +0100,
vertical.xlsx,The target is tilted.,135,18,2,2,1,1,1,1,1,1,1,1,0,0,0,0,0,7,8,135,space,6.338832100000218,None,1,1,0.9373212000000422,None,space,7.973901900000328,None,0,1,1,1,,,,,2,2,18,1,429.5830771000001,,,,,,,,,,,,,,,,,,,,,429.5675817000001,429.5830771000001,430.06711459999997,430.0722136999998,430.0904805,431.0339917000001,,,,,431.0341776999999,431.0492774999998,431.24954960000014,431.23359170000003,430.0904805,,,,,,,,1,1,0.9373212000000422,None,,,,,,,,802,25,M,R,2026-02-18_11h27.18.852,VisualSearch_2526_3,,2025.2.4,2026-02-18 11h27.19.201301 +0100,
vertical.xlsx,The target is tilted.,135,19,3,2,1,0,0,0,0,0,0,0,0,0,0,0,0,0,1,135,space,6.338832100000218,None,1,1,0.7397827999998299,None,space,7.973901900000328,None,0,1,1,1,,,,,2,3,19,3,431.24954960000014,,,,,,,,,,,,,,,,,,,,,431.23440029999983,431.24954960000014,431.7334369,431.73857999999973,431.7574457999999,432.50051589999975,,,,,432.5007058000001,432.51566060000005,432.71611140000005,432.69994989999987,431.7574457999999,,,,,,,,1,1,0.7397827999998299,None,,,,,,,,802,25,M,R,2026-02-18_11h27.18.852,VisualSearch_2526_3,,2025.2.4,2026-02-18 11h27.19.201301 +0100,
vertical.xlsx,The target is tilted.,135,20,4,2,0,1,1,1,0,0,0,0,0,0,0,0,1,3,4,135,space,6.338832100000218,None,0,1,0.6938411999999516,None,space,7.973901900000328,None,0,1,1,1,,,,,2,4,20,6,432.71611140000005,,,,,,,,,,,,,,,,,,,,,432.70078520000015,432.71611140000005,433.19941419999986,433.20404259999987,433.22258509999983,433.93346410000004,,,,,433.9336533999999,433.9490261000001,434.1490638999999,434.1329197,433.22258509999983,,,,,,,,0,1,0.6938411999999516,None,,,,,,,,802,25,M,R,2026-02-18_11h27.18.852,VisualSearch_2526_3,,2025.2.4,2026-02-18 11h27.19.201301 +0100,
vertical.xlsx,The target is tilted.,135,21,5,2,1,1,1,1,1,1,1,1,1,1,1,1,0,11,12,135,space,6.338832100000218,None,1,1,0.7915571999997155,None,space,7.973901900000328,None,0,1,1,1,,,,,2,5,21,0,434.1490638999999,,,,,,,,,,,,,,,,,,,,,434.1337279999998,434.1490638999999,434.6326945999999,434.63742779999984,434.65526850000015,435.44979079999985,,,,,435.44998239999995,435.4653355999999,435.66544350000004,435.6491605000001,434.65526850000015,,,,,,,,1,1,0.7915571999997155,None,,,,,,,,802,25,M,R,2026-02-18_11h27.18.852,VisualSearch_2526_3,,2025.2.4,2026-02-18 11h27.19.201301 +0100,
vertical.xlsx,The target is tilted.,135,22,6,2,1,1,1,1,0,0,0,0,0,0,0,0,0,3,4,135,space,6.338832100000218,None,1,1,0.6002755999998044,None,space,7.973901900000328,None,0,1,1,1,,,,,2,6,22,2,435.66544350000004,,,,,,,,,,,,,,,,,,,,,435.6499104999998,435.66544350000004,436.14919929999996,436.15378980000014,436.17234340000005,436.7832121000001,,,,,436.78339959999994,436.7986826000001,436.99876029999996,436.98274360000005,436.17234340000005,,,,,,,,1,1,0.6002755999998044,None,,,,,,,,802,25,M,R,2026-02-18_11h27.18.852,VisualSearch_2526_3,,2025.2.4,2026-02-18 11h27.19.201301 +0100,
vertical.xlsx,The target is tilted.,135,23,7,2,0,0,0,0,0,0,0,0,0,0,0,0,1,1,1,135,space,6.338832100000218,None,0,1,0.7605287999999746,None,space,7.973901900000328,None,0,1,1,1,,,,,2,7,23,7,436.99876029999996,,,,,,,,,,,,,,,,,,,,,436.9835718999998,436.99876029999996,437.48241469999994,437.4874374000001,437.5061338999999,438.28296339999997,,,,,438.28315380000004,438.29838440000003,438.4985452000001,438.4825001999998,437.5061338999999,,,,,,,,0,1,0.7605287999999746,None,,,,,,,,802,25,M,R,2026-02-18_11h27.18.852,VisualSearch_2526_3,,2025.2.4,2026-02-18 11h27.19.201301 +0100,
vertical.xlsx,The target is tilted.,135,24,0,3,1,0,0,0,0,0,0,0,0,0,0,0,0,0,1,135,space,6.338832100000218,None,1,1,0.41822289999981876,None,space,7.973901900000328,None,0,1,1,1,,,,,3,0,24,3,438.4985452000001,,,,,,,,,,,,,,,,,,,,,438.48334339999974,438.4985452000001,438.98217639999984,438.9867180000001,439.0052547999999,439.4327583999998,,,,,439.4329518999998,439.44796159999987,439.64806709999993,439.6321447999999,439.0052547999999,,,,,,,,1,1,0.41822289999981876,None,,,,,,,,802,25,M,R,2026-02-18_11h27.18.852,VisualSearch_2526_3,,2025.2.4,2026-02-18 11h27.19.201301 +0100,
vertical.xlsx,The target is tilted.,135,25,1,3,0,0,0,0,0,0,0,0,0,0,0,0,1,1,1,135,space,6.338832100000218,None,0,1,0.5131059999998797,None,space,7.973901900000328,None,0,1,1,1,,,,,3,1,25,7,439.64806709999993,,,,,,,,,,,,,,,,,,,,,439.6329148,439.64806709999993,440.1323403000001,440.13734609999983,440.15540699999974,440.68232119999993,,,,,440.6825103000001,440.6978128999999,440.89797629999975,440.88220139999976,440.15540699999974,,,,,,,,0,1,0.5131059999998797,None,,,,,,,,802,25,M,R,2026-02-18_11h27.18.852,VisualSearch_2526_3,,2025.2.4,2026-02-18 11h27.19.201301 +0100,
vertical.xlsx,The target is tilted.,135,26,2,3,0,1,1,1,0,0,0,0,0,0,0,0,1,3,4,135,space,6.338832100000218,None,0,1,1.2112772000000405,None,space,7.973901900000328,None,0,1,1,1,,,,,3,2,26,6,440.89797629999975,,,,,,,,,,,,,,,,,,,,,440.8830214999998,440.89797629999975,441.3819128,441.38700089999975,441.4049759999998,442.6323625,,,,,442.6325468,442.6477937999998,442.8477779,442.8316712999999,441.4049759999998,,,,,,,,0,1,1.2112772000000405,None,,,,,,,,802,25,M,R,2026-02-18_11h27.18.852,VisualSearch_2526_3,,2025.2.4,2026-02-18 11h27.19.201301 +0100,
vertical.xlsx,The target is tilted.,135,27,3,3,1,1,1,1,1,1,1,1,1,1,1,1,0,11,12,135,space,6.338832100000218,None,1,1,0.8902987000001303,None,space,7.973901900000328,None,0,1,1,1,,,,,3,3,27,0,442.8477779,,,,,,,,,,,,,,,,,,,,,442.83255389999977,442.8477779,443.3316476,443.33625900000015,443.35492799999975,444.24853669999993,,,,,444.2487258000001,444.2642099999998,444.46436600000015,444.4482926999999,443.35492799999975,,,,,,,,1,1,0.8902987000001303,None,,,,,,,,802,25,M,R,2026-02-18_11h27.18.852,VisualSearch_2526_3,,2025.2.4,2026-02-18 11h27.19.201301 +0100,
vertical.xlsx,The target is tilted.,135,28,4,3,0,1,1,1,1,1,1,1,0,0,0,0,1,7,8,135,space,6.338832100000218,None,0,1,1.160579300000336,None,space,7.973901900000328,None,0,1,1,1,,,,,3,4,28,5,444.46436600000015,,,,,,,,,,,,,,,,,,,,,444.44901709999976,444.46436600000015,444.9482939999998,444.9528323999998,444.9713956999999,446.1485352999998,,,,,446.14872479999985,446.1640161,446.3640857999999,446.34788089999984,444.9713956999999,,,,,,,,0,1,1.160579300000336,None,,,,,,,,802,25,M,R,2026-02-18_11h27.18.852,VisualSearch_2526_3,,2025.2.4,2026-02-18 11h27.19.201301 +0100,
vertical.xlsx,The target is tilted.,135,29,5,3,1,1,1,1,0,0,0,0,0,0,0,0,0,3,4,135,space,6.338832100000218,None,1,1,0.7129042000001391,None,space,7.973901900000328,None,0,1,1,1,,,,,3,5,29,2,446.3640857999999,,,,,,,,,,,,,,,,,,,,,446.34864229999994,446.3640857999999,446.8476636999999,446.85227540000005,446.87124589999985,447.59830969999985,,,,,447.5985007999998,447.61373219999996,447.8134976000001,447.79786809999996,446.87124589999985,,,,,,,,1,1,0.7129042000001391,None,,,,,,,,802,25,M,R,2026-02-18_11h27.18.852,VisualSearch_2526_3,,2025.2.4,2026-02-18 11h27.19.201301 +0100,
vertical.xlsx,The target is tilted.,135,30,6,3,0,1,1,1,1,1,1,1,1,1,1,1,1,11,12,135,space,6.338832100000218,None,0,1,1.2894585000003644,None,space,7.973901900000328,None,0,1,1,1,,,,,3,6,30,4,447.8134976000001,,,,,,,,,,,,,,,,,,,,,447.79868810000016,447.8134976000001,448.2979242000001,448.3031089000001,448.3220243999999,449.6148051,,,,,449.6150312999998,449.6300046000001,449.83031230000006,449.8142674999999,448.3220243999999,,,,,,,,0,1,1.2894585000003644,None,,,,,,,,802,25,M,R,2026-02-18_11h27.18.852,VisualSearch_2526_3,,2025.2.4,2026-02-18 11h27.19.201301 +0100,
vertical.xlsx,The target is tilted.,135,31,7,3,1,1,1,1,1,1,1,1,0,0,0,0,0,7,8,135,space,6.338832100000218,None,1,1,0.5463302000002841,None,space,7.973901900000328,None,0,1,1,1,,,,,3,7,31,1,449.83031230000006,,,,,,,,,,,,,,,,,,,,,449.81506880000006,449.83031230000006,450.3142192999999,450.31912520000014,450.33704439999974,450.89784710000004,,,,,450.8980357999999,450.91333380000015,451.1129385999998,451.0973246999997,450.33704439999974,,,,,,,,1,1,0.5463302000002841,None,,,,,,,,802,25,M,R,2026-02-18_11h27.18.852,VisualSearch_2526_3,,2025.2.4,2026-02-18 11h27.19.201301 +0100,
vertical.xlsx,The target is tilted.,135,32,0,4,1,1,1,1,1,1,1,1,1,1,1,1,0,11,12,135,space,6.338832100000218,None,1,1,0.8160508000000846,None,space,7.973901900000328,None,0,1,1,1,,,,,4,0,32,0,451.1129385999998,,,,,,,,,,,,,,,,,,,,,451.0980363999997,451.1129385999998,451.5972646,451.6023482999999,451.6203344999999,452.4476645,,,,,452.4478546,452.4627989999999,452.6631956000001,452.64718230000017,451.6203344999999,,,,,,,,1,1,0.8160508000000846,None,,,,,,,,802,25,M,R,2026-02-18_11h27.18.852,VisualSearch_2526_3,,2025.2.4,2026-02-18 11h27.19.201301 +0100,
vertical.xlsx,The target is tilted.,135,33,1,4,0,1,1,1,1,1,1,1,1,1,1,1,1,11,12,135,space,6.338832100000218,None,0,1,1.4242844999998852,None,space,7.973901900000328,None,0,1,1,1,,,,,4,1,33,4,452.6631956000001,,,,,,,,,,,,,,,,,,,,,452.64798870000004,452.6631956000001,453.1471133,453.1516650999997,453.16956979999986,454.59708379999984,,,,,454.5972819999997,454.6127514,454.81291139999985,454.79691619999994,453.16956979999986,,,,,,,,0,1,1.4242844999998852,None,,,,,,,,802,25,M,R,2026-02-18_11h27.18.852,VisualSearch_2526_3,,2025.2.4,2026-02-18 11h27.19.201301 +0100,
vertical.xlsx,The target is tilted.,135,34,2,4,0,0,0,0,0,0,0,0,0,0,0,0,1,1,1,135,space,6.338832100000218,None,0,1,0.4868910000000142,None,space,7.973901900000328,None,0,1,1,1,,,,,4,2,34,7,454.81291139999985,,,,,,,,,,,,,,,,,,,,,454.79771219999975,454.81291139999985,455.2967675,455.30200060000016,455.3218207,455.8136506000001,,,,,455.81385450000016,455.82899540000017,456.02938570000015,456.01332479999974,455.3218207,,,,,,,,0,1,0.4868910000000142,None,,,,,,,,802,25,M,R,2026-02-18_11h27.18.852,VisualSearch_2526_3,,2025.2.4,2026-02-18 11h27.19.201301 +0100,
vertical.xlsx,The target is tilted.,135,35,3,4,1,1,1,1,1,1,1,1,0,0,0,0,0,7,8,135,space,6.338832100000218,None,1,1,0.9064450000000761,None,space,7.973901900000328,None,0,1,1,1,,,,,4,3,35,1,456.02938570000015,,,,,,,,,,,,,,,,,,,,,456.0141549,456.02938570000015,456.5130955999998,456.5176459999998,456.535441,457.44713679999995,,,,,457.44735919999994,457.4621309999998,457.66236500000014,457.6463481999999,456.535441,,,,,,,,1,1,0.9064450000000761,None,,,,,,,,802,25,M,R,2026-02-18_11h27.18.852,VisualSearch_2526_3,,2025.2.4,2026-02-18 11h27.19.201301 +0100,
