file_name,block_instructions,target_example,thisN,thisTrialN,thisRepN,target_presence,opacity_1,opacity_2,opacity_3,opacity_4,opacity_5,opacity_6,opacity_7,opacity_8,opacity_9,opacity_10,opacity_11,opacity_12,n_distract,n_items,target_ori,key_resp_4.keys,key_resp_4.rt,key_resp_4.duration,key_resp.keys,key_resp.corr,key_resp.rt,key_resp.duration,key_resp_5.keys,key_resp_5.rt,key_resp_5.duration,blocks.thisRepN,blocks.thisTrialN,blocks.thisN,blocks.thisIndex,practice_trials.thisRepN,practice_trials.thisTrialN,practice_trials.thisN,practice_trials.thisIndex,trials.thisRepN,trials.thisTrialN,trials.thisN,trials.thisIndex,thisRow.t,notes,Welcome.started,WelcomeText.started,key_resp_2.started,Welcome.stopped,key_resp_2.keys,key_resp_2.rt,key_resp_2.duration,InformedConsent.started,text_4.started,InformedConsent.stopped,key_resp_6.keys,key_resp_6.rt,key_resp_6.duration,key_resp_4.started,example_target.started,text_3.started,blocks.key_resp_4.keys,blocks.key_resp_4.rt,blocks.key_resp_4.duration,FixCross.started,fixCross.started,FixCross.stopped,Stimulus.started,key_resp.started,Stimulus.stopped,practice_trials.key_resp.keys,practice_trials.key_resp.corr,practice_trials.key_resp.rt,practice_trials.key_resp.duration,BlankScreen.started,text.started,text.stopped,BlankScreen.stopped,fixCross.stopped,ExperimentStart.started,text_2.started,key_resp_5.started,ExperimentStart.stopped,blocks.key_resp_5.keys,blocks.key_resp_5.rt,blocks.key_resp_5.duration,trials.key_resp.keys,trials.key_resp.corr,trials.key_resp.rt,trials.key_resp.duration,Thanks.started,ThankYou.started,key_resp_3.started,Thanks.stopped,key_resp_3.keys,key_resp_3.rt,key_resp_3.duration,participant,leeftijd,gender,links/rechtshandig,date,expName,expVersion,psychopyVersion,expStart,
,,,,,,,,,,,,,,,,,,,,,,,,,,,,,,,,,,,,,,,,,,,,,,0.027561599999899045,0.03736419999995633,0.03736419999995633,21.437768400000095,space,21.38306990000001,None,,,,,,,,,,,,,,,,,,,,,,,,,,,,,,,,,,,,,,,,,,,,,,804,25,M,R,2026-02-18_11h59.11.138,VisualSearch_2526_3,,2025.2.4,2026-02-18 11h59.11.343899 +0100,
,,,,,,,,,,,,,,,,,,,,,,,,,,,,,,,,,,,,,,,,,,,,,,,,,,,,,21.437872699999843,21.444796300000235,24.056590799999867,y,2.6075568000001113,None,,,,,,,,,,,,,,,,,,,,,,,,,,,,,,,,,,,,,,,,804,25,M,R,2026-02-18_11h59.11.138,VisualSearch_2526_3,,2025.2.4,2026-02-18 11h59.11.343899 +0100,
tilted.xlsx,The target is tilted.,117,0,0,0,0,1,1,1,1,1,1,1,0,0,0,0,1,7,8,117,space,3.5172904000000926,None,0,1,3.006802399999742,None,,,,0,0,0,0,0,0,0,5,,,,,27.631612499999846,,,,,,,,,,,,,,,24.081955300000118,24.081955300000118,24.081955300000118,space,3.5172904000000926,None,27.62685909999982,27.631612499999846,28.122191999999814,28.126903800000036,28.1439934,31.15578970000024,0,1,3.006802399999742,None,31.155980399999862,31.171398699999827,31.371144300000196,31.355198700000074,,,,,,,,,,,,,,,,,,,,804,25,M,R,2026-02-18_11h59.11.138,VisualSearch_2526_3,,2025.2.4,2026-02-18 11h59.11.343899 +0100,
tilted.xlsx,The target is tilted.,117,1,1,0,1,0,0,0,0,0,0,0,0,0,0,0,0,0,1,117,space,3.5172904000000926,None,1,1,0.78364079999983,None,,,,0,0,0,0,0,1,1,3,,,,,31.371144300000196,,,,,,,,,,,,,,,,,,,,,31.355866100000185,31.371144300000196,31.855433900000207,31.860780200000136,31.87580170000001,32.67202989999987,1,1,0.78364079999983,None,32.672217100000125,32.68743140000015,32.887998900000184,32.87166370000023,31.87580170000001,,,,,,,,,,,,,,,,,,,804,25,M,R,2026-02-18_11h59.11.138,VisualSearch_2526_3,,2025.2.4,2026-02-18 11h59.11.343899 +0100,
tilted.xlsx,The target is tilted.,117,2,2,0,1,1,1,1,1,1,1,1,0,0,0,0,0,7,8,117,space,3.5172904000000926,None,1,1,1.0530143999999382,None,,,,0,0,0,0,0,2,2,1,,,,,32.887998900000184,,,,,,,,,,,,,,,,,,,,,32.87232390000008,32.887998900000184,33.37162179999996,33.37617970000019,33.39416230000006,34.45478989999992,1,1,1.0530143999999382,None,34.45490100000006,34.47044820000019,34.670654099999865,34.65480320000006,33.39416230000006,,,,,,,,,,,,,,,,,,,804,25,M,R,2026-02-18_11h59.11.138,VisualSearch_2526_3,,2025.2.4,2026-02-18 11h59.11.343899 +0100,
tilted.xlsx,The target is tilted.,117,3,3,0,1,1,1,1,0,0,0,0,0,0,0,0,0,3,4,117,space,3.5172904000000926,None,1,1,1.2184618999999657,None,,,,0,0,0,0,0,3,3,2,,,,,34.670654099999865,,,,,,,,,,,,,,,,,,,,,34.65547629999992,34.670654099999865,35.15483880000011,35.15959109999994,35.17527689999997,36.40490090000003,1,1,1.2184618999999657,None,36.40507119999984,36.42018510000025,36.620529799999986,36.604773099999875,35.17527689999997,,,,,,,,,,,,,,,,,,,804,25,M,R,2026-02-18_11h59.11.138,VisualSearch_2526_3,,2025.2.4,2026-02-18 11h59.11.343899 +0100,
tilted.xlsx,The target is tilted.,117,4,4,0,0,0,0,0,0,0,0,0,0,0,0,0,1,1,1,117,space,3.5172904000000926,None,1,0,0.5088731000000735,None,,,,0,0,0,0,0,4,4,7,,,,,36.620529799999986,,,,,,,,,,,,,,,,,,,,,36.605530199999976,36.620529799999986,37.10433980000016,37.10857829999986,37.12541360000023,37.638104099999964,1,0,0.5088731000000735,None,37.6382907000002,37.653444500000205,37.85378690000016,37.83771430000024,37.12541360000023,,,,,,,,,,,,,,,,,,,804,25,M,R,2026-02-18_11h59.11.138,VisualSearch_2526_3,,2025.2.4,2026-02-18 11h59.11.343899 +0100,
tilted.xlsx,The target is tilted.,117,5,5,0,0,1,1,1,1,1,1,1,1,1,1,1,1,11,12,117,space,3.5172904000000926,None,0,1,4.639500799999951,None,,,,0,0,0,0,0,5,5,4,,,,,37.85378690000016,,,,,,,,,,,,,,,,,,,,,37.8384431999998,37.85378690000016,38.3377375,38.34251690000019,38.35885700000017,43.00423950000004,0,1,4.639500799999951,None,43.00443039999982,43.019351800000095,43.219857200000206,43.20364400000017,38.35885700000017,,,,,,,,,,,,,,,,,,,804,25,M,R,2026-02-18_11h59.11.138,VisualSearch_2526_3,,2025.2.4,2026-02-18 11h59.11.343899 +0100,
tilted.xlsx,The target is tilted.,117,6,6,0,1,1,1,1,1,1,1,1,1,1,1,1,0,11,12,117,space,3.5172904000000926,None,1,1,1.2191416000000572,None,,,,0,0,0,0,0,6,6,0,,,,,43.219857200000206,,,,,,,,,,,,,,,,,,,,,43.204399300000205,43.219857200000206,43.703555399999914,43.708244899999954,43.724728199999845,44.9534477000002,1,1,1.2191416000000572,None,44.953617900000154,44.96907169999986,45.169588300000214,45.15350020000005,43.724728199999845,,,,,,,,,,,,,,,,,,,804,25,M,R,2026-02-18_11h59.11.138,VisualSearch_2526_3,,2025.2.4,2026-02-18 11h59.11.343899 +0100,
tilted.xlsx,The target is tilted.,117,7,7,0,0,1,1,1,0,0,0,0,0,0,0,0,1,3,4,117,space,3.5172904000000926,None,0,1,0.8123160000000098,None,,,,0,0,0,0,0,7,7,6,,,,,45.169588300000214,,,,,,,,,,,,,,,,,,,,,45.154223099999854,45.169588300000214,45.65331389999983,45.657988999999816,45.66931979999981,46.48705749999999,0,1,0.8123160000000098,None,46.48727939999981,46.50218129999985,46.702362800000174,46.686823099999856,45.66931979999981,,,,,,,,,,,,,,,,,,,804,25,M,R,2026-02-18_11h59.11.138,VisualSearch_2526_3,,2025.2.4,2026-02-18 11h59.11.343899 +0100,
tilted.xlsx,The target is tilted.,117,0,0,0,1,1,1,1,1,1,1,1,1,1,1,1,0,11,12,117,space,3.5172904000000926,None,1,1,3.697591999999986,None,space,1.3028810999999223,None,0,0,0,0,,,,,0,0,0,0,48.04858550000017,,,,,,,,,,,,,,,,,,,,,48.044894900000145,48.04858550000017,48.535547399999814,48.53753080000024,48.552110300000095,52.25292480000007,,,,,52.253129199999876,52.26800000000003,52.468589800000245,52.452247499999885,,46.69419710000011,46.702362800000174,46.702362800000174,48.02012130000003,space,1.3028810999999223,None,1,1,3.697591999999986,None,,,,,,,,804,25,M,R,2026-02-18_11h59.11.138,VisualSearch_2526_3,,2025.2.4,2026-02-18 11h59.11.343899 +0100,
tilted.xlsx,The target is tilted.,117,1,1,0,1,1,1,1,1,1,1,1,0,0,0,0,0,7,8,117,space,3.5172904000000926,None,1,1,1.0303499999999985,None,space,1.3028810999999223,None,0,0,0,0,,,,,0,1,1,1,52.468589800000245,,,,,,,,,,,,,,,,,,,,,52.45299000000023,52.468589800000245,52.95186909999984,52.95833840000023,52.97513800000024,54.01912470000025,,,,,54.0193263000001,54.03449210000008,54.23492010000018,54.21845020000001,52.97513800000024,,,,,,,,1,1,1.0303499999999985,None,,,,,,,,804,25,M,R,2026-02-18_11h59.11.138,VisualSearch_2526_3,,2025.2.4,2026-02-18 11h59.11.343899 +0100,
tilted.xlsx,The target is tilted.,117,2,2,0,1,1,1,1,0,0,0,0,0,0,0,0,0,3,4,117,space,3.5172904000000926,None,1,1,1.1310189999999238,None,space,1.3028810999999223,None,0,0,0,0,,,,,0,2,2,2,54.23492010000018,,,,,,,,,,,,,,,,,,,,,54.219238399999995,54.23492010000018,54.71875709999995,54.72349630000008,54.738607799999954,55.88522000000012,,,,,55.88542240000015,55.90081629999986,56.10125500000004,56.08512759999985,54.738607799999954,,,,,,,,1,1,1.1310189999999238,None,,,,,,,,804,25,M,R,2026-02-18_11h59.11.138,VisualSearch_2526_3,,2025.2.4,2026-02-18 11h59.11.343899 +0100,
tilted.xlsx,The target is tilted.,117,3,3,0,0,1,1,1,1,1,1,1,0,0,0,0,1,7,8,117,space,3.5172904000000926,None,0,1,3.219848600000205,None,space,1.3028810999999223,None,0,0,0,0,,,,,0,3,3,5,56.10125500000004,,,,,,,,,,,,,,,,,,,,,56.085955699999886,56.10125500000004,56.58495929999981,56.59004589999995,56.607958099999905,59.83529499999986,,,,,59.835498700000244,59.84990659999994,60.050463800000216,60.03468750000002,56.607958099999905,,,,,,,,0,1,3.219848600000205,None,,,,,,,,804,25,M,R,2026-02-18_11h59.11.138,VisualSearch_2526_3,,2025.2.4,2026-02-18 11h59.11.343899 +0100,
tilted.xlsx,The target is tilted.,117,4,4,0,0,0,0,0,0,0,0,0,0,0,0,0,1,1,1,117,space,3.5172904000000926,None,0,1,0.5798518999999942,None,space,1.3028810999999223,None,0,0,0,0,,,,,0,4,4,7,60.050463800000216,,,,,,,,,,,,,,,,,,,,,60.03547040000012,60.050463800000216,60.53450359999988,60.5393568999998,60.55513659999997,61.15068079999992,,,,,61.15085649999992,61.166763000000174,61.36700310000015,61.35117769999988,60.55513659999997,,,,,,,,0,1,0.5798518999999942,None,,,,,,,,804,25,M,R,2026-02-18_11h59.11.138,VisualSearch_2526_3,,2025.2.4,2026-02-18 11h59.11.343899 +0100,
tilted.xlsx,The target is tilted.,117,5,5,0,0,1,1,1,1,1,1,1,1,1,1,1,1,11,12,117,space,3.5172904000000926,None,0,1,3.0720228000000134,None,space,1.3028810999999223,None,0,0,0,0,,,,,0,5,5,4,61.36700310000015,,,,,,,,,,,,,,,,,,,,,61.35203309999997,61.36700310000015,61.85103710000021,61.85574630000019,61.8707502000002,64.95015890000013,,,,,64.95024449999983,64.96597870000005,,65.15058820000013,61.8707502000002,,,,,,,,0,1,3.0720228000000134,None,,,,,,,,804,25,M,R,2026-02-18_11h59.11.138,VisualSearch_2526_3,,2025.2.4,2026-02-18 11h59.11.343899 +0100,
tilted.xlsx,The target is tilted.,117,6,6,0,1,0,0,0,0,0,0,0,0,0,0,0,0,0,1,117,space,3.5172904000000926,None,1,1,0.6264323000000331,None,space,1.3028810999999223,None,0,0,0,0,,,,,0,6,6,3,65.16655320000018,,,,,,,,,,,,,,,,,,,,,65.1514975,65.16655320000018,65.65040150000004,65.6554073000002,65.66653869999982,66.30087890000004,,,,,66.3010804999999,66.31606740000007,66.51651429999993,66.50045580000005,,,,,,,,,1,1,0.6264323000000331,None,,,,,,,,804,25,M,R,2026-02-18_11h59.11.138,VisualSearch_2526_3,,2025.2.4,2026-02-18 11h59.11.343899 +0100,
tilted.xlsx,The target is tilted.,117,7,7,0,0,1,1,1,0,0,0,0,0,0,0,0,1,3,4,117,space,3.5172904000000926,None,0,1,1.0237440000000788,None,space,1.3028810999999223,None,0,0,0,0,,,,,0,7,7,6,66.51651429999993,,,,,,,,,,,,,,,,,,,,,66.50119640000003,66.51651429999993,67.00026519999983,67.00498289999996,67.01967969999987,68.04999550000002,,,,,68.05014500000016,68.065474,68.26637230000006,68.25033530000019,67.01967969999987,,,,,,,,0,1,1.0237440000000788,None,,,,,,,,804,25,M,R,2026-02-18_11h59.11.138,VisualSearch_2526_3,,2025.2.4,2026-02-18 11h59.11.343899 +0100,
tilted.xlsx,The target is tilted.,117,8,0,1,0,1,1,1,1,1,1,1,0,0,0,0,1,7,8,117,space,3.5172904000000926,None,0,1,2.246430700000019,None,space,1.3028810999999223,None,0,0,0,0,,,,,1,0,8,5,68.26637230000006,,,,,,,,,,,,,,,,,,,,,68.25113959999999,68.26637230000006,68.75007520000008,68.75532509999994,68.77027029999999,71.03248040000017,,,,,71.03263079999988,71.04865599999994,,71.23284409999997,68.77027029999999,,,,,,,,0,1,2.246430700000019,None,,,,,,,,804,25,M,R,2026-02-18_11h59.11.138,VisualSearch_2526_3,,2025.2.4,2026-02-18 11h59.11.343899 +0100,
tilted.xlsx,The target is tilted.,117,9,1,1,1,0,0,0,0,0,0,0,0,0,0,0,0,0,1,117,space,3.5172904000000926,None,1,1,0.6381897000001118,None,space,1.3028810999999223,None,0,0,0,0,,,,,1,1,9,3,71.24920139999995,,,,,,,,,,,,,,,,,,,,,71.23360189999994,71.24920139999995,71.73276080000005,71.73742380000022,71.75422549999985,72.39994079999997,,,,,72.40012019999995,72.41524699999991,72.61563070000011,72.59920730000022,71.75422549999985,,,,,,,,1,1,0.6381897000001118,None,,,,,,,,804,25,M,R,2026-02-18_11h59.11.138,VisualSearch_2526_3,,2025.2.4,2026-02-18 11h59.11.343899 +0100,
tilted.xlsx,The target is tilted.,117,10,2,1,0,0,0,0,0,0,0,0,0,0,0,0,1,1,1,117,space,3.5172904000000926,None,0,1,0.5939389999998639,None,space,1.3028810999999223,None,0,0,0,0,,,,,1,2,10,7,72.61563070000011,,,,,,,,,,,,,,,,,,,,,72.59993160000022,72.61563070000011,73.09917510000014,73.1029309999999,73.11816039999985,73.71610670000018,,,,,73.71628580000015,73.73175519999995,73.93211329999986,73.9159638000001,73.11816039999985,,,,,,,,0,1,0.5939389999998639,None,,,,,,,,804,25,M,R,2026-02-18_11h59.11.138,VisualSearch_2526_3,,2025.2.4,2026-02-18 11h59.11.343899 +0100,
tilted.xlsx,The target is tilted.,117,11,3,1,0,1,1,1,1,1,1,1,1,1,1,1,1,11,12,117,space,3.5172904000000926,None,0,1,4.091399200000069,None,space,1.3028810999999223,None,0,0,0,0,,,,,1,3,11,4,73.93211329999986,,,,,,,,,,,,,,,,,,,,,73.91675780000014,73.93211329999986,74.41611049999983,74.42134979999992,74.4379527000001,78.53253399999994,,,,,78.53273489999992,78.54766019999988,78.74781840000014,78.73187450000023,74.4379527000001,,,,,,,,0,1,4.091399200000069,None,,,,,,,,804,25,M,R,2026-02-18_11h59.11.138,VisualSearch_2526_3,,2025.2.4,2026-02-18 11h59.11.343899 +0100,
tilted.xlsx,The target is tilted.,117,12,4,1,1,1,1,1,0,0,0,0,0,0,0,0,0,3,4,117,space,3.5172904000000926,None,1,1,1.2059570999999778,None,space,1.3028810999999223,None,0,0,0,0,,,,,1,4,12,2,78.74781840000014,,,,,,,,,,,,,,,,,,,,,78.73264470000004,78.74781840000014,79.23180559999992,79.2368904,79.25255819999984,80.46528110000008,,,,,80.46548329999996,80.48073310000018,80.68114419999984,80.66506280000021,79.25255819999984,,,,,,,,1,1,1.2059570999999778,None,,,,,,,,804,25,M,R,2026-02-18_11h59.11.138,VisualSearch_2526_3,,2025.2.4,2026-02-18 11h59.11.343899 +0100,
tilted.xlsx,The target is tilted.,117,13,5,1,0,1,1,1,0,0,0,0,0,0,0,0,1,3,4,117,space,3.5172904000000926,None,0,1,1.0617857999995977,None,space,1.3028810999999223,None,0,0,0,0,,,,,1,5,13,6,80.68114419999984,,,,,,,,,,,,,,,,,,,,,80.66579249999995,80.68114419999984,81.16483740000012,81.17017709999982,81.1861786999998,82.26412840000012,,,,,82.26424459999998,82.28054599999996,,82.46466379999993,81.1861786999998,,,,,,,,0,1,1.0617857999995977,None,,,,,,,,804,25,M,R,2026-02-18_11h59.11.138,VisualSearch_2526_3,,2025.2.4,2026-02-18 11h59.11.343899 +0100,
tilted.xlsx,The target is tilted.,117,14,6,1,1,1,1,1,1,1,1,1,0,0,0,0,0,7,8,117,space,3.5172904000000926,None,1,1,0.7243701999996119,None,space,1.3028810999999223,None,0,0,0,0,,,,,1,6,14,1,82.48065039999983,,,,,,,,,,,,,,,,,,,,,82.46553279999989,82.48065039999983,82.96456850000004,82.96932969999989,82.98519190000025,83.71437930000002,,,,,83.71451680000018,83.73003710000012,83.93058659999997,83.91452130000016,,,,,,,,,1,1,0.7243701999996119,None,,,,,,,,804,25,M,R,2026-02-18_11h59.11.138,VisualSearch_2526_3,,2025.2.4,2026-02-18 11h59.11.343899 +0100,
tilted.xlsx,The target is tilted.,117,15,7,1,1,1,1,1,1,1,1,1,1,1,1,1,0,11,12,117,space,3.5172904000000926,None,1,1,0.6467235999998593,None,space,1.3028810999999223,None,0,0,0,0,,,,,1,7,15,0,83.93058659999997,,,,,,,,,,,,,,,,,,,,,83.91524710000022,83.93058659999997,84.41447160000007,84.41927620000024,84.43446790000007,85.09772340000018,,,,,85.09793799999989,85.11353469999995,85.31384350000008,85.29755310000019,84.43446790000007,,,,,,,,1,1,0.6467235999998593,None,,,,,,,,804,25,M,R,2026-02-18_11h59.11.138,VisualSearch_2526_3,,2025.2.4,2026-02-18 11h59.11.343899 +0100,
tilted.xlsx,The target is tilted.,117,16,0,2,0,0,0,0,0,0,0,0,0,0,0,0,1,1,1,117,space,3.5172904000000926,None,0,1,0.5294929000001503,None,space,1.3028810999999223,None,0,0,0,0,,,,,2,0,16,7,85.31384350000008,,,,,,,,,,,,,,,,,,,,,85.29833670000016,85.31384350000008,85.79765589999988,85.8025690999998,85.81826469999987,86.36416980000013,,,,,86.36439879999989,86.37985179999987,86.5803890000002,86.56410129999995,85.81826469999987,,,,,,,,0,1,0.5294929000001503,None,,,,,,,,804,25,M,R,2026-02-18_11h59.11.138,VisualSearch_2526_3,,2025.2.4,2026-02-18 11h59.11.343899 +0100,
tilted.xlsx,The target is tilted.,117,17,1,2,1,1,1,1,0,0,0,0,0,0,0,0,0,3,4,117,space,3.5172904000000926,None,1,1,0.8056945000002997,None,space,1.3028810999999223,None,0,0,0,0,,,,,2,1,17,2,86.5803890000002,,,,,,,,,,,,,,,,,,,,,86.56486459999996,86.5803890000002,87.06374679999999,87.0659154,87.08005110000022,87.8969191000001,,,,,87.89705510000022,87.9129911,88.11304509999991,88.0969654999999,87.08005110000022,,,,,,,,1,1,0.8056945000002997,None,,,,,,,,804,25,M,R,2026-02-18_11h59.11.138,VisualSearch_2526_3,,2025.2.4,2026-02-18 11h59.11.343899 +0100,
tilted.xlsx,The target is tilted.,117,18,2,2,0,1,1,1,0,0,0,0,0,0,0,0,1,3,4,117,space,3.5172904000000926,None,0,1,1.3289056999997229,None,space,1.3028810999999223,None,0,0,0,0,,,,,2,2,18,6,88.11304509999991,,,,,,,,,,,,,,,,,,,,,88.09771670000009,88.11304509999991,88.59742099999994,88.60264869999992,88.61907100000008,89.96321239999997,,,,,89.96335069999986,89.97969360000025,,90.1634683000002,88.61907100000008,,,,,,,,0,1,1.3289056999997229,None,,,,,,,,804,25,M,R,2026-02-18_11h59.11.138,VisualSearch_2526_3,,2025.2.4,2026-02-18 11h59.11.343899 +0100,
tilted.xlsx,The target is tilted.,117,19,3,2,1,1,1,1,1,1,1,1,0,0,0,0,0,7,8,117,space,3.5172904000000926,None,1,1,2.0332464999996773,None,space,1.3028810999999223,None,0,0,0,0,,,,,2,3,19,1,90.17984370000022,,,,,,,,,,,,,,,,,,,,,90.16432900000018,90.17984370000022,90.66348169999992,90.66832010000007,90.67968680000013,92.7299621000002,,,,,92.7301907000001,92.7456258000002,92.94583779999994,92.92999259999988,,,,,,,,,1,1,2.0332464999996773,None,,,,,,,,804,25,M,R,2026-02-18_11h59.11.138,VisualSearch_2526_3,,2025.2.4,2026-02-18 11h59.11.343899 +0100,
tilted.xlsx,The target is tilted.,117,20,4,2,1,0,0,0,0,0,0,0,0,0,0,0,0,0,1,117,space,3.5172904000000926,None,1,1,0.47663620000002993,None,space,1.3028810999999223,None,0,0,0,0,,,,,2,4,20,3,92.94583779999994,,,,,,,,,,,,,,,,,,,,,92.93071490000011,92.94583779999994,93.42939160000014,93.43402019999985,93.44901440000012,93.93010030000005,,,,,93.93029680000018,93.94551450000017,94.1456518,94.12993529999994,93.44901440000012,,,,,,,,1,1,0.47663620000002993,None,,,,,,,,804,25,M,R,2026-02-18_11h59.11.138,VisualSearch_2526_3,,2025.2.4,2026-02-18 11h59.11.343899 +0100,
tilted.xlsx,The target is tilted.,117,21,5,2,0,1,1,1,1,1,1,1,1,1,1,1,1,11,12,117,space,3.5172904000000926,None,0,1,2.612525900000037,None,space,1.3028810999999223,None,0,0,0,0,,,,,2,5,21,4,94.1456518,,,,,,,,,,,,,,,,,,,,,94.13078790000009,94.1456518,94.6294555999998,94.63416060000009,94.65212060000022,97.27965200000017,,,,,97.27985350000017,97.29479480000009,97.49551830000019,97.47940740000013,94.65212060000022,,,,,,,,0,1,2.612525900000037,None,,,,,,,,804,25,M,R,2026-02-18_11h59.11.138,VisualSearch_2526_3,,2025.2.4,2026-02-18 11h59.11.343899 +0100,
tilted.xlsx,The target is tilted.,117,22,6,2,0,1,1,1,1,1,1,1,0,0,0,0,1,7,8,117,space,3.5172904000000926,None,0,1,2.2458722000001217,None,space,1.3028810999999223,None,0,0,0,0,,,,,2,6,22,5,97.49551830000019,,,,,,,,,,,,,,,,,,,,,97.48025159999997,97.49551830000019,97.97864160000017,97.9811235000002,97.99518140000009,100.24602370000002,,,,,100.24624820000008,100.26124960000016,100.46165599999995,100.44567569999981,97.99518140000009,,,,,,,,0,1,2.2458722000001217,None,,,,,,,,804,25,M,R,2026-02-18_11h59.11.138,VisualSearch_2526_3,,2025.2.4,2026-02-18 11h59.11.343899 +0100,
tilted.xlsx,The target is tilted.,117,23,7,2,1,1,1,1,1,1,1,1,1,1,1,1,0,11,12,117,space,3.5172904000000926,None,0,0,2.2766731000001528,None,space,1.3028810999999223,None,0,0,0,0,,,,,2,7,23,0,100.46165599999995,,,,,,,,,,,,,,,,,,,,,100.44639370000004,100.46165599999995,100.94552310000017,100.95026009999992,100.96544929999982,103.24512589999995,,,,,103.24531519999982,103.26078150000012,103.46120150000024,103.44493319999992,100.96544929999982,,,,,,,,0,0,2.2766731000001528,None,,,,,,,,804,25,M,R,2026-02-18_11h59.11.138,VisualSearch_2526_3,,2025.2.4,2026-02-18 11h59.11.343899 +0100,
tilted.xlsx,The target is tilted.,117,24,0,3,0,1,1,1,0,0,0,0,0,0,0,0,1,3,4,117,space,3.5172904000000926,None,0,1,1.012952800000221,None,space,1.3028810999999223,None,0,0,0,0,,,,,3,0,24,6,103.46120150000024,,,,,,,,,,,,,,,,,,,,,103.44578369999999,103.46120150000024,103.94519080000009,103.95063070000015,103.96584750000011,104.99411959999998,,,,,104.99421329999996,105.01086810000015,,105.19462849999991,103.96584750000011,,,,,,,,0,1,1.012952800000221,None,,,,,,,,804,25,M,R,2026-02-18_11h59.11.138,VisualSearch_2526_3,,2025.2.4,2026-02-18 11h59.11.343899 +0100,
tilted.xlsx,The target is tilted.,117,25,1,3,0,1,1,1,1,1,1,1,0,0,0,0,1,7,8,117,space,3.5172904000000926,None,0,1,1.6571027999998478,None,space,1.3028810999999223,None,0,0,0,0,,,,,3,1,25,5,105.2107417000002,,,,,,,,,,,,,,,,,,,,,105.19540940000024,105.2107417000002,105.69439310000007,105.69913270000006,105.71282370000017,107.37832100000014,,,,,107.37850660000004,107.3935504000001,107.59408329999997,107.57790669999986,105.71282370000017,,,,,,,,0,1,1.6571027999998478,None,,,,,,,,804,25,M,R,2026-02-18_11h59.11.138,VisualSearch_2526_3,,2025.2.4,2026-02-18 11h59.11.343899 +0100,
tilted.xlsx,The target is tilted.,117,26,2,3,0,1,1,1,1,1,1,1,1,1,1,1,1,11,12,117,space,3.5172904000000926,None,0,1,2.4057097999998405,None,space,1.3028810999999223,None,0,0,0,0,,,,,3,2,26,4,107.59408329999997,,,,,,,,,,,,,,,,,,,,,107.57869759999994,107.59408329999997,108.07749520000016,108.0803633999999,108.09387160000006,110.51069850000022,,,,,110.51084630000014,110.52624629999991,110.72698309999987,110.71067429999994,108.09387160000006,,,,,,,,0,1,2.4057097999998405,None,,,,,,,,804,25,M,R,2026-02-18_11h59.11.138,VisualSearch_2526_3,,2025.2.4,2026-02-18 11h59.11.343899 +0100,
tilted.xlsx,The target is tilted.,117,27,3,3,1,1,1,1,0,0,0,0,0,0,0,0,0,3,4,117,space,3.5172904000000926,None,1,1,0.7167652000002818,None,space,1.3028810999999223,None,0,0,0,0,,,,,3,3,27,2,110.72698309999987,,,,,,,,,,,,,,,,,,,,,110.71152089999987,110.72698309999987,111.21099580000009,111.2160159,111.23454129999982,111.96089900000015,,,,,111.9610990000001,111.97627109999985,112.17675820000022,112.16048200000023,111.23454129999982,,,,,,,,1,1,0.7167652000002818,None,,,,,,,,804,25,M,R,2026-02-18_11h59.11.138,VisualSearch_2526_3,,2025.2.4,2026-02-18 11h59.11.343899 +0100,
tilted.xlsx,The target is tilted.,117,28,4,3,0,0,0,0,0,0,0,0,0,0,0,0,1,1,1,117,space,3.5172904000000926,None,0,1,0.6272020999999768,None,space,1.3028810999999223,None,0,0,0,0,,,,,3,4,28,7,112.17675820000022,,,,,,,,,,,,,,,,,,,,,112.16126750000012,112.17675820000022,112.6605654,112.66510870000002,112.68228270000009,113.31099540000014,,,,,113.3111944000002,113.32605849999982,113.52657920000001,113.51046150000002,112.68228270000009,,,,,,,,0,1,0.6272020999999768,None,,,,,,,,804,25,M,R,2026-02-18_11h59.11.138,VisualSearch_2526_3,,2025.2.4,2026-02-18 11h59.11.343899 +0100,
tilted.xlsx,The target is tilted.,117,29,5,3,1,1,1,1,1,1,1,1,1,1,1,1,0,11,12,117,space,3.5172904000000926,None,1,1,1.81377109999994,None,space,1.3028810999999223,None,0,0,0,0,,,,,3,5,29,0,113.52657920000001,,,,,,,,,,,,,,,,,,,,,113.51116430000002,113.52657920000001,114.01041050000003,114.0151394999998,114.0302829000002,115.85959589999993,,,,,115.85973530000001,115.87599039999986,116.07575910000014,116.0595059000002,114.0302829000002,,,,,,,,1,1,1.81377109999994,None,,,,,,,,804,25,M,R,2026-02-18_11h59.11.138,VisualSearch_2526_3,,2025.2.4,2026-02-18 11h59.11.343899 +0100,
tilted.xlsx,The target is tilted.,117,30,6,3,1,0,0,0,0,0,0,0,0,0,0,0,0,0,1,117,space,3.5172904000000926,None,1,1,0.5877708000002713,None,space,1.3028810999999223,None,0,0,0,0,,,,,3,6,30,3,116.07575910000014,,,,,,,,,,,,,,,,,,,,,116.05987370000003,116.07575910000014,116.5599301000002,116.56468200000018,116.58140490000005,117.1770919999999,,,,,117.17735720000019,117.1921440000001,117.39256010000008,117.37623369999983,116.58140490000005,,,,,,,,1,1,0.5877708000002713,None,,,,,,,,804,25,M,R,2026-02-18_11h59.11.138,VisualSearch_2526_3,,2025.2.4,2026-02-18 11h59.11.343899 +0100,
tilted.xlsx,The target is tilted.,117,31,7,3,1,1,1,1,1,1,1,1,0,0,0,0,0,7,8,117,space,3.5172904000000926,None,1,1,1.5445300999999745,None,space,1.3028810999999223,None,0,0,0,0,,,,,3,7,31,1,117.39256010000008,,,,,,,,,,,,,,,,,,,,,117.37697029999981,117.39256010000008,117.87651090000008,117.88114039999982,117.8924919000001,119.44348050000008,,,,,119.44368050000003,119.45852379999997,119.65889969999989,119.64281680000022,117.8924919000001,,,,,,,,1,1,1.5445300999999745,None,,,,,,,,804,25,M,R,2026-02-18_11h59.11.138,VisualSearch_2526_3,,2025.2.4,2026-02-18 11h59.11.343899 +0100,
tilted.xlsx,The target is tilted.,117,32,0,4,0,1,1,1,1,1,1,1,0,0,0,0,1,7,8,117,space,3.5172904000000926,None,0,1,1.5985241999997015,None,space,1.3028810999999223,None,0,0,0,0,,,,,4,0,32,5,119.65889969999989,,,,,,,,,,,,,,,,,,,,,119.64356300000009,119.65889969999989,120.14254840000012,120.14675590000024,120.1614042000001,121.77623380000023,,,,,121.77641270000004,121.7915410999999,121.99200010000004,121.97600620000003,120.1614042000001,,,,,,,,0,1,1.5985241999997015,None,,,,,,,,804,25,M,R,2026-02-18_11h59.11.138,VisualSearch_2526_3,,2025.2.4,2026-02-18 11h59.11.343899 +0100,
tilted.xlsx,The target is tilted.,117,33,1,4,1,0,0,0,0,0,0,0,0,0,0,0,0,0,1,117,space,3.5172904000000926,None,1,1,0.5901051999999254,None,space,1.3028810999999223,None,0,0,0,0,,,,,4,1,33,3,121.99200010000004,,,,,,,,,,,,,,,,,,,,,121.97687059999998,121.99200010000004,122.47576750000007,122.48051840000016,122.49569980000024,123.09288169999991,,,,,123.09308030000011,123.10799910000014,123.30812680000008,123.29226759999983,122.49569980000024,,,,,,,,1,1,0.5901051999999254,None,,,,,,,,804,25,M,R,2026-02-18_11h59.11.138,VisualSearch_2526_3,,2025.2.4,2026-02-18 11h59.11.343899 +0100,
tilted.xlsx,The target is tilted.,117,34,2,4,1,1,1,1,0,0,0,0,0,0,0,0,0,3,4,117,space,3.5172904000000926,None,1,1,0.717686699999831,None,space,1.3028810999999223,None,0,0,0,0,,,,,4,2,34,2,123.30812680000008,,,,,,,,,,,,,,,,,,,,,123.29306180000003,123.30812680000008,123.79216989999986,123.79694830000017,123.81164059999992,124.54227410000021,,,,,124.5424782,124.55778569999984,124.75814679999985,124.74199240000007,123.81164059999992,,,,,,,,1,1,0.717686699999831,None,,,,,,,,804,25,M,R,2026-02-18_11h59.11.138,VisualSearch_2526_3,,2025.2.4,2026-02-18 11h59.11.343899 +0100,
tilted.xlsx,The target is tilted.,117,35,3,4,0,1,1,1,1,1,1,1,1,1,1,1,1,11,12,117,space,3.5172904000000926,None,0,1,3.3939586000001327,None,space,1.3028810999999223,None,0,0,0,0,,,,,4,3,35,4,124.75814679999985,,,,,,,,,,,,,,,,,,,,,124.7427831,124.75814679999985,125.24195700000018,125.24688530000003,125.26239990000022,128.65828439999996,,,,,128.65839460000007,128.67383070000005,128.87434900000017,128.85788760000014,125.26239990000022,,,,,,,,0,1,3.3939586000001327,None,,,,,,,,804,25,M,R,2026-02-18_11h59.11.138,VisualSearch_2526_3,,2025.2.4,2026-02-18 11h59.11.343899 +0100,
tilted.xlsx,The target is tilted.,117,36,4,4,1,1,1,1,1,1,1,1,1,1,1,1,0,11,12,117,space,3.5172904000000926,None,0,0,2.834496599999966,None,space,1.3028810999999223,None,0,0,0,0,,,,,4,4,36,0,128.87434900000017,,,,,,,,,,,,,,,,,,,,,128.8586365000001,128.87434900000017,129.3584182999998,129.36369400000012,129.38087469999982,132.2255196000001,,,,,132.22647020000022,132.24000230000001,132.4404654,132.42437870000003,129.38087469999982,,,,,,,,0,0,2.834496599999966,None,,,,,,,,804,25,M,R,2026-02-18_11h59.11.138,VisualSearch_2526_3,,2025.2.4,2026-02-18 11h59.11.343899 +0100,
tilted.xlsx,The target is tilted.,117,37,5,4,0,0,0,0,0,0,0,0,0,0,0,0,1,1,1,117,space,3.5172904000000926,None,0,1,0.5118951999997989,None,space,1.3028810999999223,None,0,0,0,0,,,,,4,5,37,7,132.4404654,,,,,,,,,,,,,,,,,,,,,132.4251122999999,132.4404654,132.92438010000023,132.92902370000002,132.9472340000002,133.47423870000011,,,,,133.4744501,133.48982569999998,133.68984369999998,133.6738218999999,132.9472340000002,,,,,,,,0,1,0.5118951999997989,None,,,,,,,,804,25,M,R,2026-02-18_11h59.11.138,VisualSearch_2526_3,,2025.2.4,2026-02-18 11h59.11.343899 +0100,
tilted.xlsx,The target is tilted.,117,38,6,4,1,1,1,1,1,1,1,1,0,0,0,0,0,7,8,117,space,3.5172904000000926,None,1,1,1.816000300000269,None,space,1.3028810999999223,None,0,0,0,0,,,,,4,6,38,1,133.68984369999998,,,,,,,,,,,,,,,,,,,,,133.67457620000005,133.68984369999998,134.1741176999999,134.17885479999995,134.1949356,136.02423839999983,,,,,136.02443549999998,136.03959480000003,136.2398920999999,136.2237368000001,134.1949356,,,,,,,,1,1,1.816000300000269,None,,,,,,,,804,25,M,R,2026-02-18_11h59.11.138,VisualSearch_2526_3,,2025.2.4,2026-02-18 11h59.11.343899 +0100,
tilted.xlsx,The target is tilted.,117,39,7,4,0,1,1,1,0,0,0,0,0,0,0,0,1,3,4,117,space,3.5172904000000926,None,0,1,1.0229738999996698,None,space,1.3028810999999223,None,0,0,0,0,,,,,4,7,39,6,136.2398920999999,,,,,,,,,,,,,,,,,,,,,136.22450059999983,136.2398920999999,136.7237312000002,136.72870869999997,136.74789069999997,137.77418560000024,,,,,137.77438489999986,137.78931169999987,137.9893649999999,137.97363640000003,136.74789069999997,,,,,,,,0,1,1.0229738999996698,None,,,,,,,,804,25,M,R,2026-02-18_11h59.11.138,VisualSearch_2526_3,,2025.2.4,2026-02-18 11h59.11.343899 +0100,
tilted.xlsx,The target is tilted.,117,40,0,5,0,1,1,1,0,0,0,0,0,0,0,0,1,3,4,117,space,3.5172904000000926,None,0,1,0.7657718999998906,None,space,1.3028810999999223,None,0,0,0,0,,,,,5,0,40,6,137.9893649999999,,,,,,,,,,,,,,,,,,,,,137.9743687,137.9893649999999,138.47361890000002,138.4788321000001,138.49526719999994,139.27320400000008,,,,,139.27338499999996,139.2889967000001,139.48960080000006,139.47353010000006,138.49526719999994,,,,,,,,0,1,0.7657718999998906,None,,,,,,,,804,25,M,R,2026-02-18_11h59.11.138,VisualSearch_2526_3,,2025.2.4,2026-02-18 11h59.11.343899 +0100,
tilted.xlsx,The target is tilted.,117,41,1,5,1,0,0,0,0,0,0,0,0,0,0,0,0,0,1,117,space,3.5172904000000926,None,1,1,0.6048546000001807,None,space,1.3028810999999223,None,0,0,0,0,,,,,5,1,41,3,139.48960080000006,,,,,,,,,,,,,,,,,,,,,139.47432350000008,139.48960080000006,139.97339479999982,139.9781078000001,139.99311679999983,140.6071419,,,,,140.60748740000008,140.62215670000023,140.82257570000002,140.80619500000012,139.99311679999983,,,,,,,,1,1,0.6048546000001807,None,,,,,,,,804,25,M,R,2026-02-18_11h59.11.138,VisualSearch_2526_3,,2025.2.4,2026-02-18 11h59.11.343899 +0100,
tilted.xlsx,The target is tilted.,117,42,2,5,1,1,1,1,1,1,1,1,1,1,1,1,0,11,12,117,space,3.5172904000000926,None,1,1,1.8776268999999957,None,space,1.3028810999999223,None,0,0,0,0,,,,,5,2,42,0,140.82257570000002,,,,,,,,,,,,,,,,,,,,,140.8069390999999,140.82257570000002,141.30692959999988,141.31177579999985,141.32235429999992,143.20656640000016,,,,,143.2067452000001,143.2218745,143.42234910000025,143.40619939999988,141.32235429999992,,,,,,,,1,1,1.8776268999999957,None,,,,,,,,804,25,M,R,2026-02-18_11h59.11.138,VisualSearch_2526_3,,2025.2.4,2026-02-18 11h59.11.343899 +0100,
tilted.xlsx,The target is tilted.,117,43,3,5,1,1,1,1,1,1,1,1,0,0,0,0,0,7,8,117,space,3.5172904000000926,None,0,0,2.4993054000001393,None,space,1.3028810999999223,None,0,0,0,0,,,,,5,3,43,1,143.42234910000025,,,,,,,,,,,,,,,,,,,,,143.40693839999994,143.42234910000025,143.90606070000013,143.91082860000006,143.92586770000025,146.43854539999984,,,,,146.43868770000017,146.45466179999994,,146.63881300000003,143.92586770000025,,,,,,,,0,0,2.4993054000001393,None,,,,,,,,804,25,M,R,2026-02-18_11h59.11.138,VisualSearch_2526_3,,2025.2.4,2026-02-18 11h59.11.343899 +0100,
tilted.xlsx,The target is tilted.,117,44,4,5,0,1,1,1,1,1,1,1,0,0,0,0,1,7,8,117,space,3.5172904000000926,None,0,1,2.6495648000000074,None,space,1.3028810999999223,None,0,0,0,0,,,,,5,4,44,5,146.65516789999992,,,,,,,,,,,,,,,,,,,,,146.63957990000017,146.65516789999992,147.1385650000002,147.1431216000001,147.15951080000013,149.82186180000008,,,,,149.82209030000013,149.83752589999995,150.03801509999994,150.02169850000018,147.15951080000013,,,,,,,,0,1,2.6495648000000074,None,,,,,,,,804,25,M,R,2026-02-18_11h59.11.138,VisualSearch_2526_3,,2025.2.4,2026-02-18 11h59.11.343899 +0100,
tilted.xlsx,The target is tilted.,117,45,5,5,0,1,1,1,1,1,1,1,1,1,1,1,1,11,12,117,space,3.5172904000000926,None,0,1,1.9544439999999668,None,space,1.3028810999999223,None,0,0,0,0,,,,,5,5,45,4,150.03801509999994,,,,,,,,,,,,,,,,,,,,,150.02243610000005,150.03801509999994,150.5216101000001,150.52632889999995,150.5410526999999,152.50545650000004,,,,,152.50566130000016,152.52047129999983,152.72072789999993,152.70502750000014,150.5410526999999,,,,,,,,0,1,1.9544439999999668,None,,,,,,,,804,25,M,R,2026-02-18_11h59.11.138,VisualSearch_2526_3,,2025.2.4,2026-02-18 11h59.11.343899 +0100,
tilted.xlsx,The target is tilted.,117,46,6,5,0,0,0,0,0,0,0,0,0,0,0,0,1,1,1,117,space,3.5172904000000926,None,0,1,0.5133906000000934,None,space,1.3028810999999223,None,0,0,0,0,,,,,5,6,46,7,152.72072789999993,,,,,,,,,,,,,,,,,,,,,152.7058360000001,152.72072789999993,153.20449229999986,153.20937490000006,153.2252724,153.75416029999997,,,,,153.75428839999995,153.77060540000002,,153.954475,153.2252724,,,,,,,,0,1,0.5133906000000934,None,,,,,,,,804,25,M,R,2026-02-18_11h59.11.138,VisualSearch_2526_3,,2025.2.4,2026-02-18 11h59.11.343899 +0100,
tilted.xlsx,The target is tilted.,117,47,7,5,1,1,1,1,0,0,0,0,0,0,0,0,0,3,4,117,space,3.5172904000000926,None,1,1,0.564266900000348,None,space,1.3028810999999223,None,0,0,0,0,,,,,5,7,47,2,153.97055249999994,,,,,,,,,,,,,,,,,,,,,153.95525290000023,153.97055249999994,154.45443669999986,154.45909519999987,154.47024460000011,155.0380914000002,,,,,155.0382897999998,155.0534848000002,155.25360180000007,155.23792390000017,,,,,,,,,1,1,0.564266900000348,None,,,,,,,,804,25,M,R,2026-02-18_11h59.11.138,VisualSearch_2526_3,,2025.2.4,2026-02-18 11h59.11.343899 +0100,
tilted.xlsx,The target is tilted.,117,48,0,6,1,1,1,1,0,0,0,0,0,0,0,0,0,3,4,117,space,3.5172904000000926,None,1,1,0.779236999999739,None,space,1.3028810999999223,None,0,0,0,0,,,,,6,0,48,2,155.25360180000007,,,,,,,,,,,,,,,,,,,,,155.23863489999985,155.25360180000007,155.7379380000002,155.74314000000004,155.75980930000014,156.55406089999997,,,,,156.55415730000004,156.56968030000007,156.77006130000018,156.75396180000007,155.75980930000014,,,,,,,,1,1,0.779236999999739,None,,,,,,,,804,25,M,R,2026-02-18_11h59.11.138,VisualSearch_2526_3,,2025.2.4,2026-02-18 11h59.11.343899 +0100,
tilted.xlsx,The target is tilted.,117,49,1,6,1,1,1,1,1,1,1,1,0,0,0,0,0,7,8,117,space,3.5172904000000926,None,1,1,2.141143700000157,None,space,1.3028810999999223,None,0,0,0,0,,,,,6,1,49,1,156.77006130000018,,,,,,,,,,,,,,,,,,,,,156.7546814000002,156.77006130000018,157.25430199999983,157.25975010000002,157.27560570000014,159.4200721000002,,,,,159.42017299999998,159.43602120000014,159.63673580000022,159.6203303000002,157.27560570000014,,,,,,,,1,1,2.141143700000157,None,,,,,,,,804,25,M,R,2026-02-18_11h59.11.138,VisualSearch_2526_3,,2025.2.4,2026-02-18 11h59.11.343899 +0100,
tilted.xlsx,The target is tilted.,117,50,2,6,0,1,1,1,1,1,1,1,1,1,1,1,1,11,12,117,space,3.5172904000000926,None,0,1,2.773302000000058,None,space,1.3028810999999223,None,0,0,0,0,,,,,6,2,50,4,159.63673580000022,,,,,,,,,,,,,,,,,,,,,159.62119250000023,159.63673580000022,160.12029059999986,160.12517750000006,160.14034230000016,162.92033219999985,,,,,162.92050000000017,162.93569849999994,163.13621310000008,163.12014880000015,,,,,,,,,0,1,2.773302000000058,None,,,,,,,,804,25,M,R,2026-02-18_11h59.11.138,VisualSearch_2526_3,,2025.2.4,2026-02-18 11h59.11.343899 +0100,
tilted.xlsx,The target is tilted.,117,51,3,6,1,0,0,0,0,0,0,0,0,0,0,0,0,0,1,117,space,3.5172904000000926,None,1,1,0.558042099999966,None,space,1.3028810999999223,None,0,0,0,0,,,,,6,3,51,3,163.13621310000008,,,,,,,,,,,,,,,,,,,,,163.12094479999996,163.13621310000008,163.62003490000006,163.62460069999997,163.64256609999984,164.2039079000001,,,,,164.20411990000002,164.2189072000001,164.41906419999987,164.40307230000008,163.64256609999984,,,,,,,,1,1,0.558042099999966,None,,,,,,,,804,25,M,R,2026-02-18_11h59.11.138,VisualSearch_2526_3,,2025.2.4,2026-02-18 11h59.11.343899 +0100,
tilted.xlsx,The target is tilted.,117,52,4,6,0,0,0,0,0,0,0,0,0,0,0,0,1,1,1,117,space,3.5172904000000926,None,0,1,0.5377644999998665,None,space,1.3028810999999223,None,0,0,0,0,,,,,6,4,52,7,164.41906419999987,,,,,,,,,,,,,,,,,,,,,164.4039370999999,164.41906419999987,164.90324229999987,164.9085116000001,164.92535469999984,165.4703042000001,,,,,165.4705044000002,165.4853078000001,165.6859072000002,165.66975920000004,164.92535469999984,,,,,,,,0,1,0.5377644999998665,None,,,,,,,,804,25,M,R,2026-02-18_11h59.11.138,VisualSearch_2526_3,,2025.2.4,2026-02-18 11h59.11.343899 +0100,
tilted.xlsx,The target is tilted.,117,53,5,6,1,1,1,1,1,1,1,1,1,1,1,1,0,11,12,117,space,3.5172904000000926,None,1,1,2.8087213999997402,None,space,1.3028810999999223,None,0,0,0,0,,,,,6,5,53,0,165.6859072000002,,,,,,,,,,,,,,,,,,,,,165.67050430000018,165.6859072000002,166.1696664000001,166.1743150000002,166.19063760000017,169.00269830000025,,,,,169.00290219999988,169.0182706999999,169.2185915,169.20240920000015,166.19063760000017,,,,,,,,1,1,2.8087213999997402,None,,,,,,,,804,25,M,R,2026-02-18_11h59.11.138,VisualSearch_2526_3,,2025.2.4,2026-02-18 11h59.11.343899 +0100,
tilted.xlsx,The target is tilted.,117,54,6,6,0,1,1,1,1,1,1,1,0,0,0,0,1,7,8,117,space,3.5172904000000926,None,0,1,1.932060200000251,None,space,1.3028810999999223,None,0,0,0,0,,,,,6,6,54,5,169.2185915,,,,,,,,,,,,,,,,,,,,,169.2031562000002,169.2185915,169.70210970000016,169.7069332000001,169.7214586,171.6688964,,,,,171.66912039999988,171.68454699999984,171.88498280000022,171.86901739999985,169.7214586,,,,,,,,0,1,1.932060200000251,None,,,,,,,,804,25,M,R,2026-02-18_11h59.11.138,VisualSearch_2526_3,,2025.2.4,2026-02-18 11h59.11.343899 +0100,
tilted.xlsx,The target is tilted.,117,55,7,6,0,1,1,1,0,0,0,0,0,0,0,0,1,3,4,117,space,3.5172904000000926,None,0,1,0.818888600000264,None,space,1.3028810999999223,None,0,0,0,0,,,,,6,7,55,6,171.88498280000022,,,,,,,,,,,,,,,,,,,,,171.86982320000016,171.88498280000022,172.36873060000016,172.37343360000023,172.38467029999993,173.21815289999995,,,,,173.21829260000004,173.2342864000002,173.43467229999987,173.41854860000012,172.38467029999993,,,,,,,,0,1,0.818888600000264,None,,,,,,,,804,25,M,R,2026-02-18_11h59.11.138,VisualSearch_2526_3,,2025.2.4,2026-02-18 11h59.11.343899 +0100,
tilted.xlsx,The target is tilted.,117,56,0,7,0,1,1,1,0,0,0,0,0,0,0,0,1,3,4,117,space,3.5172904000000926,None,0,1,1.0156541000001198,None,space,1.3028810999999223,None,0,0,0,0,,,,,7,0,56,6,173.43467229999987,,,,,,,,,,,,,,,,,,,,,173.41931250000016,173.43467229999987,173.91849589999993,173.92311640000025,173.93822090000003,174.9689140999999,,,,,174.96911379999983,174.98393579999993,175.18453439999985,175.16851709999992,173.93822090000003,,,,,,,,0,1,1.0156541000001198,None,,,,,,,,804,25,M,R,2026-02-18_11h59.11.138,VisualSearch_2526_3,,2025.2.4,2026-02-18 11h59.11.343899 +0100,
tilted.xlsx,The target is tilted.,117,57,1,7,1,0,0,0,0,0,0,0,0,0,0,0,0,0,1,117,space,3.5172904000000926,None,1,1,0.6049843000000692,None,space,1.3028810999999223,None,0,0,0,0,,,,,7,1,57,3,175.18453439999985,,,,,,,,,,,,,,,,,,,,,175.1693280999998,175.18453439999985,175.66812299999992,175.67253410000012,175.68436410000004,176.30105820000017,,,,,176.30119479999985,176.31714920000013,176.51761679999981,176.50104409999994,175.68436410000004,,,,,,,,1,1,0.6049843000000692,None,,,,,,,,804,25,M,R,2026-02-18_11h59.11.138,VisualSearch_2526_3,,2025.2.4,2026-02-18 11h59.11.343899 +0100,
tilted.xlsx,The target is tilted.,117,58,2,7,1,1,1,1,1,1,1,1,1,1,1,1,0,11,12,117,space,3.5172904000000926,None,1,1,0.7879477999999835,None,space,1.3028810999999223,None,0,0,0,0,,,,,7,2,58,0,176.51761679999981,,,,,,,,,,,,,,,,,,,,,176.50178039999992,176.51761679999981,177.00128129999985,177.00634769999988,177.02253400000018,177.81857350000018,,,,,177.8187769000001,177.8335935,178.03414950000024,178.0180988000002,177.02253400000018,,,,,,,,1,1,0.7879477999999835,None,,,,,,,,804,25,M,R,2026-02-18_11h59.11.138,VisualSearch_2526_3,,2025.2.4,2026-02-18 11h59.11.343899 +0100,
tilted.xlsx,The target is tilted.,117,59,3,7,0,1,1,1,1,1,1,1,1,1,1,1,1,11,12,117,space,3.5172904000000926,None,0,1,2.5121235000001434,None,space,1.3028810999999223,None,0,0,0,0,,,,,7,3,59,4,178.03414950000024,,,,,,,,,,,,,,,,,,,,,178.0189094000002,178.03414950000024,178.51798770000005,178.52328530000023,178.53904620000003,181.0674511000002,,,,,181.06767870000022,181.08295709999993,181.28320609999992,181.26715509999985,178.53904620000003,,,,,,,,0,1,2.5121235000001434,None,,,,,,,,804,25,M,R,2026-02-18_11h59.11.138,VisualSearch_2526_3,,2025.2.4,2026-02-18 11h59.11.343899 +0100,
tilted.xlsx,The target is tilted.,117,60,4,7,0,1,1,1,1,1,1,1,0,0,0,0,1,7,8,117,space,3.5172904000000926,None,0,1,1.6977293999998437,None,space,1.3028810999999223,None,0,0,0,0,,,,,7,4,60,5,181.28320609999992,,,,,,,,,,,,,,,,,,,,,181.26789050000025,181.28320609999992,181.76731400000017,181.77188149999984,181.7834238999999,183.48430830000007,,,,,183.48448300000018,183.4994784999999,183.6999678000002,183.68384300000025,181.7834238999999,,,,,,,,0,1,1.6977293999998437,None,,,,,,,,804,25,M,R,2026-02-18_11h59.11.138,VisualSearch_2526_3,,2025.2.4,2026-02-18 11h59.11.343899 +0100,
tilted.xlsx,The target is tilted.,117,61,5,7,1,1,1,1,1,1,1,1,0,0,0,0,0,7,8,117,space,3.5172904000000926,None,1,1,1.9223339999998643,None,space,1.3028810999999223,None,0,0,0,0,,,,,7,5,61,1,183.6999678000002,,,,,,,,,,,,,,,,,,,,,183.6845727,183.6999678000002,184.18365570000014,184.18827109999984,184.20480929999985,186.13370220000024,,,,,186.13391550000006,186.14910310000005,186.34972599999992,186.33337389999997,184.20480929999985,,,,,,,,1,1,1.9223339999998643,None,,,,,,,,804,25,M,R,2026-02-18_11h59.11.138,VisualSearch_2526_3,,2025.2.4,2026-02-18 11h59.11.343899 +0100,
tilted.xlsx,The target is tilted.,117,62,6,7,1,1,1,1,0,0,0,0,0,0,0,0,0,3,4,117,space,3.5172904000000926,None,0,0,0.6429667999996127,None,space,1.3028810999999223,None,0,0,0,0,,,,,7,6,62,2,186.34972599999992,,,,,,,,,,,,,,,,,,,,,186.33424689999993,186.34972599999992,186.83328949999986,186.83814100000018,186.85434110000006,187.50048560000005,,,,,187.5006803000001,187.51555270000017,187.71606669999983,187.69987739999988,186.85434110000006,,,,,,,,0,0,0.6429667999996127,None,,,,,,,,804,25,M,R,2026-02-18_11h59.11.138,VisualSearch_2526_3,,2025.2.4,2026-02-18 11h59.11.343899 +0100,
tilted.xlsx,The target is tilted.,117,63,7,7,0,0,0,0,0,0,0,0,0,0,0,0,1,1,1,117,space,3.5172904000000926,None,0,1,0.7253529999998136,None,space,1.3028810999999223,None,0,0,0,0,,,,,7,7,63,7,187.71606669999983,,,,,,,,,,,,,,,,,,,,,187.70061339999984,187.71606669999983,188.19967510000015,188.20434690000002,188.22021039999981,188.94973410000011,,,,,188.9499182999998,188.9653185000002,189.16587070000014,189.14956310000025,188.22021039999981,,,,,,,,0,1,0.7253529999998136,None,,,,,,,,804,25,M,R,2026-02-18_11h59.11.138,VisualSearch_2526_3,,2025.2.4,2026-02-18 11h59.11.343899 +0100,
tilted.xlsx,The target is tilted.,117,64,0,8,1,0,0,0,0,0,0,0,0,0,0,0,0,0,1,117,space,3.5172904000000926,None,1,1,0.5996626000001015,None,space,1.3028810999999223,None,0,0,0,0,,,,,8,0,64,3,189.16587070000014,,,,,,,,,,,,,,,,,,,,,189.15042029999995,189.16587070000014,189.64979390000008,189.65491770000017,189.67188739999983,190.28372780000018,,,,,190.2839266000001,190.29849830000012,190.49911840000004,190.48294549999991,189.67188739999983,,,,,,,,1,1,0.5996626000001015,None,,,,,,,,804,25,M,R,2026-02-18_11h59.11.138,VisualSearch_2526_3,,2025.2.4,2026-02-18 11h59.11.343899 +0100,
tilted.xlsx,The target is tilted.,117,65,1,8,0,0,0,0,0,0,0,0,0,0,0,0,1,1,1,117,space,3.5172904000000926,None,0,1,0.5643429000001561,None,space,1.3028810999999223,None,0,0,0,0,,,,,8,1,65,7,190.49911840000004,,,,,,,,,,,,,,,,,,,,,190.48375769999984,190.49911840000004,190.98264960000006,190.9871707000002,190.99876089999998,191.56633469999997,,,,,191.5665272000001,191.58163779999995,191.78202229999988,191.76590010000018,190.99876089999998,,,,,,,,0,1,0.5643429000001561,None,,,,,,,,804,25,M,R,2026-02-18_11h59.11.138,VisualSearch_2526_3,,2025.2.4,2026-02-18 11h59.11.343899 +0100,
tilted.xlsx,The target is tilted.,117,66,2,8,1,1,1,1,0,0,0,0,0,0,0,0,0,3,4,117,space,3.5172904000000926,None,1,1,0.8291049999997995,None,space,1.3028810999999223,None,0,0,0,0,,,,,8,2,66,2,191.78202229999988,,,,,,,,,,,,,,,,,,,,,191.7666632999999,191.78202229999988,192.26564959999996,192.2708177999998,192.2868269999999,193.13251089999994,,,,,193.13270620000003,193.14813989999993,193.3486280000002,193.3324250999999,192.2868269999999,,,,,,,,1,1,0.8291049999997995,None,,,,,,,,804,25,M,R,2026-02-18_11h59.11.138,VisualSearch_2526_3,,2025.2.4,2026-02-18 11h59.11.343899 +0100,
tilted.xlsx,The target is tilted.,117,67,3,8,1,1,1,1,1,1,1,1,0,0,0,0,0,7,8,117,space,3.5172904000000926,None,0,0,1.5790537000002587,None,space,1.3028810999999223,None,0,0,0,0,,,,,8,3,67,1,193.3486280000002,,,,,,,,,,,,,,,,,,,,,193.3332193000001,193.3486280000002,193.83221850000018,193.8374245,193.85483560000011,195.44800170000008,,,,,195.44810340000004,195.46473749999996,,195.64864050000006,193.85483560000011,,,,,,,,0,0,1.5790537000002587,None,,,,,,,,804,25,M,R,2026-02-18_11h59.11.138,VisualSearch_2526_3,,2025.2.4,2026-02-18 11h59.11.343899 +0100,
tilted.xlsx,The target is tilted.,117,68,4,8,0,1,1,1,0,0,0,0,0,0,0,0,1,3,4,117,space,3.5172904000000926,None,0,1,1.1242364999998244,None,space,1.3028810999999223,None,0,0,0,0,,,,,8,4,68,6,195.66453660000025,,,,,,,,,,,,,,,,,,,,,195.64950110000018,195.66453660000025,196.14847550000013,196.15316369999982,196.16672620000008,197.2990731,,,,,197.29928130000008,197.31416330000002,197.51445650000005,197.49867929999982,,,,,,,,,0,1,1.1242364999998244,None,,,,,,,,804,25,M,R,2026-02-18_11h59.11.138,VisualSearch_2526_3,,2025.2.4,2026-02-18 11h59.11.343899 +0100,
tilted.xlsx,The target is tilted.,117,69,5,8,0,1,1,1,1,1,1,1,1,1,1,1,1,11,12,117,space,3.5172904000000926,None,0,1,2.615984699999899,None,space,1.3028810999999223,None,0,0,0,0,,,,,8,5,69,4,197.51445650000005,,,,,,,,,,,,,,,,,,,,,197.49948540000014,197.51445650000005,197.99848629999997,198.00297929999988,198.01447030000008,200.63183320000007,,,,,200.63203019999992,200.6470316,200.84750050000002,200.8312151,198.01447030000008,,,,,,,,0,1,2.615984699999899,None,,,,,,,,804,25,M,R,2026-02-18_11h59.11.138,VisualSearch_2526_3,,2025.2.4,2026-02-18 11h59.11.343899 +0100,
tilted.xlsx,The target is tilted.,117,70,6,8,1,1,1,1,1,1,1,1,1,1,1,1,0,11,12,117,space,3.5172904000000926,None,1,1,2.14449360000026,None,space,1.3028810999999223,None,0,0,0,0,,,,,8,6,70,0,200.84750050000002,,,,,,,,,,,,,,,,,,,,,200.83211059999985,200.84750050000002,201.3309862000001,201.33560690000013,201.35022400000025,203.49794930000007,,,,,203.4981444,203.5131468999998,203.7136018000001,203.69770199999994,201.35022400000025,,,,,,,,1,1,2.14449360000026,None,,,,,,,,804,25,M,R,2026-02-18_11h59.11.138,VisualSearch_2526_3,,2025.2.4,2026-02-18 11h59.11.343899 +0100,
tilted.xlsx,The target is tilted.,117,71,7,8,0,1,1,1,1,1,1,1,0,0,0,0,1,7,8,117,space,3.5172904000000926,None,0,1,1.6870435999999245,None,space,1.3028810999999223,None,0,0,0,0,,,,,8,7,71,5,203.7136018000001,,,,,,,,,,,,,,,,,,,,,203.69855169999983,203.7136018000001,204.19685200000004,204.1999225999998,204.21348160000025,205.91382620000013,,,,,205.91393229999994,205.9293971000002,206.13006619999987,206.11369539999987,204.21348160000025,,,,,,,,0,1,1.6870435999999245,None,,,,,,,,804,25,M,R,2026-02-18_11h59.11.138,VisualSearch_2526_3,,2025.2.4,2026-02-18 11h59.11.343899 +0100,
tilted.xlsx,The target is tilted.,117,72,0,9,0,1,1,1,1,1,1,1,0,0,0,0,1,7,8,117,space,3.5172904000000926,None,0,1,2.150952999999845,None,space,1.3028810999999223,None,0,0,0,0,,,,,9,0,72,5,206.13006619999987,,,,,,,,,,,,,,,,,,,,,206.1144334999999,206.13006619999987,206.61406679999982,206.61908679999988,206.62987250000015,208.79695630000015,,,,,208.7971639000002,208.81255509999983,209.01281689999996,208.99636599999985,206.62987250000015,,,,,,,,0,1,2.150952999999845,None,,,,,,,,804,25,M,R,2026-02-18_11h59.11.138,VisualSearch_2526_3,,2025.2.4,2026-02-18 11h59.11.343899 +0100,
tilted.xlsx,The target is tilted.,117,73,1,9,0,1,1,1,0,0,0,0,0,0,0,0,1,3,4,117,space,3.5172904000000926,None,0,1,0.6736910000004173,None,space,1.3028810999999223,None,0,0,0,0,,,,,9,1,73,6,209.01281689999996,,,,,,,,,,,,,,,,,,,,,208.99673119999989,209.01281689999996,209.49705069999982,209.50232319999986,209.5173881999999,210.1971880000001,,,,,210.19738199999983,210.21242470000016,210.41253670000015,210.39628709999988,209.5173881999999,,,,,,,,0,1,0.6736910000004173,None,,,,,,,,804,25,M,R,2026-02-18_11h59.11.138,VisualSearch_2526_3,,2025.2.4,2026-02-18 11h59.11.343899 +0100,
tilted.xlsx,The target is tilted.,117,74,2,9,1,1,1,1,1,1,1,1,1,1,1,1,0,11,12,117,space,3.5172904000000926,None,0,0,2.1853188000000046,None,space,1.3028810999999223,None,0,0,0,0,,,,,9,2,74,0,210.41253670000015,,,,,,,,,,,,,,,,,,,,,210.3969920999998,210.41253670000015,210.8964847000002,210.90115909999986,210.9159568,213.11254120000012,,,,,213.11267279999993,213.1285538000002,213.32871699999987,213.31281070000023,210.9159568,,,,,,,,0,0,2.1853188000000046,None,,,,,,,,804,25,M,R,2026-02-18_11h59.11.138,VisualSearch_2526_3,,2025.2.4,2026-02-18 11h59.11.343899 +0100,
tilted.xlsx,The target is tilted.,117,75,3,9,1,1,1,1,0,0,0,0,0,0,0,0,0,3,4,117,space,3.5172904000000926,None,0,0,1.7814437000001817,None,space,1.3028810999999223,None,0,0,0,0,,,,,9,3,75,2,213.32871699999987,,,,,,,,,,,,,,,,,,,,,213.31354969999984,213.32871699999987,213.81271220000008,213.8173784999999,213.83143500000006,215.6287744000001,,,,,215.62890719999996,215.64485270000023,,215.82911890000014,213.83143500000006,,,,,,,,0,0,1.7814437000001817,None,,,,,,,,804,25,M,R,2026-02-18_11h59.11.138,VisualSearch_2526_3,,2025.2.4,2026-02-18 11h59.11.343899 +0100,
tilted.xlsx,The target is tilted.,117,76,4,9,0,1,1,1,1,1,1,1,1,1,1,1,1,11,12,117,space,3.5172904000000926,None,0,1,3.5095548999997845,None,space,1.3028810999999223,None,0,0,0,0,,,,,9,4,76,4,215.84549229999993,,,,,,,,,,,,,,,,,,,,,215.83002540000007,215.84549229999993,216.32930560000023,216.33458440000004,216.3493652000002,219.86222050000015,,,,,219.86241470000004,219.87763670000004,220.07814610000014,220.06185460000006,216.3493652000002,,,,,,,,0,1,3.5095548999997845,None,,,,,,,,804,25,M,R,2026-02-18_11h59.11.138,VisualSearch_2526_3,,2025.2.4,2026-02-18 11h59.11.343899 +0100,
tilted.xlsx,The target is tilted.,117,77,5,9,0,0,0,0,0,0,0,0,0,0,0,0,1,1,1,117,space,3.5172904000000926,None,0,1,0.5772265000000516,None,space,1.3028810999999223,None,0,0,0,0,,,,,9,5,77,7,220.07814610000014,,,,,,,,,,,,,,,,,,,,,220.06259150000005,220.07814610000014,220.56186149999985,220.56635910000023,220.58252619999985,221.1623900999998,,,,,221.16260120000015,221.17745879999984,221.37767540000004,221.3621849000001,220.58252619999985,,,,,,,,0,1,0.5772265000000516,None,,,,,,,,804,25,M,R,2026-02-18_11h59.11.138,VisualSearch_2526_3,,2025.2.4,2026-02-18 11h59.11.343899 +0100,
tilted.xlsx,The target is tilted.,117,78,6,9,1,0,0,0,0,0,0,0,0,0,0,0,0,0,1,117,space,3.5172904000000926,None,1,1,0.5682593999999881,None,space,1.3028810999999223,None,0,0,0,0,,,,,9,6,78,3,221.37767540000004,,,,,,,,,,,,,,,,,,,,,221.3629894999999,221.37767540000004,221.86152330000004,221.86666839999998,221.88259530000005,222.4618562999999,,,,,222.46204780000016,222.47726160000002,222.67778309999994,222.6612700999999,221.88259530000005,,,,,,,,1,1,0.5682593999999881,None,,,,,,,,804,25,M,R,2026-02-18_11h59.11.138,VisualSearch_2526_3,,2025.2.4,2026-02-18 11h59.11.343899 +0100,
tilted.xlsx,The target is tilted.,117,79,7,9,1,1,1,1,1,1,1,1,0,0,0,0,0,7,8,117,space,3.5172904000000926,None,1,1,0.7147270999998909,None,space,1.3028810999999223,None,0,0,0,0,,,,,9,7,79,1,222.67778309999994,,,,,,,,,,,,,,,,,,,,,222.66200979999985,222.67778309999994,223.16118270000015,223.16657669999995,223.18329059999996,223.91099669999994,,,,,223.91113039999982,223.92706050000015,224.12749680000024,224.11110700000017,223.18329059999996,,,,,,,,1,1,0.7147270999998909,None,,,,,,,,804,25,M,R,2026-02-18_11h59.11.138,VisualSearch_2526_3,,2025.2.4,2026-02-18 11h59.11.343899 +0100,
tilted.xlsx,The target is tilted.,117,80,0,10,1,1,1,1,0,0,0,0,0,0,0,0,0,3,4,117,space,3.5172904000000926,None,1,1,0.858187899999848,None,space,1.3028810999999223,None,0,0,0,0,,,,,10,0,80,2,224.12749680000024,,,,,,,,,,,,,,,,,,,,,224.11194149999983,224.12749680000024,224.6112438,224.61622450000004,224.63393610000003,225.49452740000015,,,,,225.4947533999998,225.51018669999985,225.71013679999987,225.6945541,224.63393610000003,,,,,,,,1,1,0.858187899999848,None,,,,,,,,804,25,M,R,2026-02-18_11h59.11.138,VisualSearch_2526_3,,2025.2.4,2026-02-18 11h59.11.343899 +0100,
tilted.xlsx,The target is tilted.,117,81,1,10,0,1,1,1,1,1,1,1,0,0,0,0,1,7,8,117,space,3.5172904000000926,None,0,1,1.8643839999999727,None,space,1.3028810999999223,None,0,0,0,0,,,,,10,1,81,5,225.71013679999987,,,,,,,,,,,,,,,,,,,,,225.69526129999986,225.71013679999987,226.19438679999985,226.1990992000001,226.2147946,228.09386919999997,,,,,228.09402630000022,228.11025870000003,228.31034099999988,228.2941423000002,226.2147946,,,,,,,,0,1,1.8643839999999727,None,,,,,,,,804,25,M,R,2026-02-18_11h59.11.138,VisualSearch_2526_3,,2025.2.4,2026-02-18 11h59.11.343899 +0100,
tilted.xlsx,The target is tilted.,117,82,2,10,0,0,0,0,0,0,0,0,0,0,0,0,1,1,1,117,space,3.5172904000000926,None,0,1,0.6200288,None,space,1.3028810999999223,None,0,0,0,0,,,,,10,2,82,7,228.31034099999988,,,,,,,,,,,,,,,,,,,,,228.29485169999998,228.31034099999988,228.79377209999984,228.79835589999993,228.8111088999999,229.44390490000023,,,,,229.44414330000018,229.4595632999999,229.6601297000002,229.6439879999998,228.8111088999999,,,,,,,,0,1,0.6200288,None,,,,,,,,804,25,M,R,2026-02-18_11h59.11.138,VisualSearch_2526_3,,2025.2.4,2026-02-18 11h59.11.343899 +0100,
tilted.xlsx,The target is tilted.,117,83,3,10,1,1,1,1,1,1,1,1,1,1,1,1,0,11,12,117,space,3.5172904000000926,None,1,1,1.844310200000109,None,space,1.3028810999999223,None,0,0,0,0,,,,,10,3,83,0,229.6601297000002,,,,,,,,,,,,,,,,,,,,,229.6448565999999,229.6601297000002,230.14361480000025,230.14860240000007,230.1645669999998,232.00998160000017,,,,,232.0100784000001,232.02569510000012,232.2264356999999,232.21032719999994,230.1645669999998,,,,,,,,1,1,1.844310200000109,None,,,,,,,,804,25,M,R,2026-02-18_11h59.11.138,VisualSearch_2526_3,,2025.2.4,2026-02-18 11h59.11.343899 +0100,
tilted.xlsx,The target is tilted.,117,84,4,10,0,1,1,1,1,1,1,1,1,1,1,1,1,11,12,117,space,3.5172904000000926,None,0,1,2.8886537999997017,None,space,1.3028810999999223,None,0,0,0,0,,,,,10,4,84,4,232.2264356999999,,,,,,,,,,,,,,,,,,,,,232.21104990000003,232.2264356999999,232.71019109999997,232.71473990000004,232.7295552999999,235.62587059999987,,,,,235.62598590000016,235.6422136000001,,235.8261897000002,232.7295552999999,,,,,,,,0,1,2.8886537999997017,None,,,,,,,,804,25,M,R,2026-02-18_11h59.11.138,VisualSearch_2526_3,,2025.2.4,2026-02-18 11h59.11.343899 +0100,
tilted.xlsx,The target is tilted.,117,85,5,10,1,0,0,0,0,0,0,0,0,0,0,0,0,0,1,117,space,3.5172904000000926,None,1,1,0.5436365999998998,None,space,1.3028810999999223,None,0,0,0,0,,,,,10,5,85,3,235.84251489999997,,,,,,,,,,,,,,,,,,,,,235.82703200000014,235.84251489999997,236.32639699999982,236.33143389999987,236.3467796,236.89345289999983,,,,,236.89364569999998,236.90862990000005,237.10902290000013,237.09289119999994,236.3467796,,,,,,,,1,1,0.5436365999998998,None,,,,,,,,804,25,M,R,2026-02-18_11h59.11.138,VisualSearch_2526_3,,2025.2.4,2026-02-18 11h59.11.343899 +0100,
tilted.xlsx,The target is tilted.,117,86,6,10,0,1,1,1,0,0,0,0,0,0,0,0,1,3,4,117,space,3.5172904000000926,None,0,1,1.0396341000000575,None,space,1.3028810999999223,None,0,0,0,0,,,,,10,6,86,6,237.10902290000013,,,,,,,,,,,,,,,,,,,,,237.0941072999999,237.10902290000013,237.59290539999984,237.59811619999982,237.61242089999996,238.65959209999983,,,,,238.65974890000007,238.6754307000001,238.87541999999985,238.85930589999998,237.61242089999996,,,,,,,,0,1,1.0396341000000575,None,,,,,,,,804,25,M,R,2026-02-18_11h59.11.138,VisualSearch_2526_3,,2025.2.4,2026-02-18 11h59.11.343899 +0100,
tilted.xlsx,The target is tilted.,117,87,7,10,1,1,1,1,1,1,1,1,0,0,0,0,0,7,8,117,space,3.5172904000000926,None,1,1,1.0185996999998679,None,space,1.3028810999999223,None,0,0,0,0,,,,,10,7,87,1,238.87541999999985,,,,,,,,,,,,,,,,,,,,,238.86003870000013,238.87541999999985,239.35924710000018,239.36380120000013,239.37951890000022,240.4092169999999,,,,,240.40940980000005,240.42515839999987,240.62535509999998,240.60928169999988,239.37951890000022,,,,,,,,1,1,1.0185996999998679,None,,,,,,,,804,25,M,R,2026-02-18_11h59.11.138,VisualSearch_2526_3,,2025.2.4,2026-02-18 11h59.11.343899 +0100,
tilted.xlsx,The target is tilted.,117,88,0,11,1,1,1,1,0,0,0,0,0,0,0,0,0,3,4,117,space,3.5172904000000926,None,1,1,0.9800452999998015,None,space,1.3028810999999223,None,0,0,0,0,,,,,11,0,88,2,240.62535509999998,,,,,,,,,,,,,,,,,,,,,240.61009599999988,240.62535509999998,241.10912050000024,241.11373779999985,241.1293587,242.1261211000001,,,,,242.12631349999992,242.14152120000017,242.3415289999998,242.32566859999997,241.1293587,,,,,,,,1,1,0.9800452999998015,None,,,,,,,,804,25,M,R,2026-02-18_11h59.11.138,VisualSearch_2526_3,,2025.2.4,2026-02-18 11h59.11.343899 +0100,
tilted.xlsx,The target is tilted.,117,89,1,11,0,1,1,1,0,0,0,0,0,0,0,0,1,3,4,117,space,3.5172904000000926,None,0,1,0.9780832000001283,None,space,1.3028810999999223,None,0,0,0,0,,,,,11,1,89,6,242.3415289999998,,,,,,,,,,,,,,,,,,,,,242.32647540000016,242.3415289999998,242.82553050000024,242.83132780000005,242.8480451999999,243.84235790000002,,,,,243.84254950000013,243.85790959999986,244.05805469999996,244.04175329999998,242.8480451999999,,,,,,,,0,1,0.9780832000001283,None,,,,,,,,804,25,M,R,2026-02-18_11h59.11.138,VisualSearch_2526_3,,2025.2.4,2026-02-18 11h59.11.343899 +0100,
tilted.xlsx,The target is tilted.,117,90,2,11,0,1,1,1,1,1,1,1,1,1,1,1,1,11,12,117,space,3.5172904000000926,None,0,1,3.3785373999999138,None,space,1.3028810999999223,None,0,0,0,0,,,,,11,2,90,4,244.05805469999996,,,,,,,,,,,,,,,,,,,,,244.04258459999983,244.05805469999996,244.54200179999998,244.54702240000006,244.56354680000004,247.95826940000006,,,,,247.95840750000025,247.9740486999999,248.17394869999998,248.15759149999985,244.56354680000004,,,,,,,,0,1,3.3785373999999138,None,,,,,,,,804,25,M,R,2026-02-18_11h59.11.138,VisualSearch_2526_3,,2025.2.4,2026-02-18 11h59.11.343899 +0100,
tilted.xlsx,The target is tilted.,117,91,3,11,0,0,0,0,0,0,0,0,0,0,0,0,1,1,1,117,space,3.5172904000000926,None,0,1,0.4821750000000975,None,space,1.3028810999999223,None,0,0,0,0,,,,,11,3,91,7,248.17394869999998,,,,,,,,,,,,,,,,,,,,,248.158324,248.17394869999998,248.65786720000006,248.66234889999987,248.6803215,249.17456300000003,,,,,249.17475289999993,249.1904469000001,249.39048159999993,249.3743817999998,248.6803215,,,,,,,,0,1,0.4821750000000975,None,,,,,,,,804,25,M,R,2026-02-18_11h59.11.138,VisualSearch_2526_3,,2025.2.4,2026-02-18 11h59.11.343899 +0100,
tilted.xlsx,The target is tilted.,117,92,4,11,1,0,0,0,0,0,0,0,0,0,0,0,0,0,1,117,space,3.5172904000000926,None,1,1,0.5889230000002499,None,space,1.3028810999999223,None,0,0,0,0,,,,,11,4,92,3,249.39048159999993,,,,,,,,,,,,,,,,,,,,,249.37521040000001,249.39048159999993,249.87458950000018,249.87972219999983,249.8946463000002,250.49156970000013,,,,,250.49176149999994,250.50672600000007,250.70707410000023,250.69089570000006,249.8946463000002,,,,,,,,1,1,0.5889230000002499,None,,,,,,,,804,25,M,R,2026-02-18_11h59.11.138,VisualSearch_2526_3,,2025.2.4,2026-02-18 11h59.11.343899 +0100,
tilted.xlsx,The target is tilted.,117,93,5,11,1,1,1,1,1,1,1,1,1,1,1,1,0,11,12,117,space,3.5172904000000926,None,1,1,3.384970500000236,None,space,1.3028810999999223,None,0,0,0,0,,,,,11,5,93,0,250.70707410000023,,,,,,,,,,,,,,,,,,,,,250.69165470000007,250.70707410000023,251.1903914999998,251.19566750000013,251.21312260000013,254.6076751999999,,,,,254.6078705,254.62314460000016,254.82291650000025,254.80702229999997,251.21312260000013,,,,,,,,1,1,3.384970500000236,None,,,,,,,,804,25,M,R,2026-02-18_11h59.11.138,VisualSearch_2526_3,,2025.2.4,2026-02-18 11h59.11.343899 +0100,
tilted.xlsx,The target is tilted.,117,94,6,11,0,1,1,1,1,1,1,1,0,0,0,0,1,7,8,117,space,3.5172904000000926,None,0,1,1.9724498000000494,None,space,1.3028810999999223,None,0,0,0,0,,,,,11,6,94,5,254.82291650000025,,,,,,,,,,,,,,,,,,,,,254.8077905,254.82291650000025,255.3068613999999,255.3116685,255.32263030000013,257.3072834999998,,,,,257.3074830999999,257.32280390000005,257.52284929999996,257.50684020000017,255.32263030000013,,,,,,,,0,1,1.9724498000000494,None,,,,,,,,804,25,M,R,2026-02-18_11h59.11.138,VisualSearch_2526_3,,2025.2.4,2026-02-18 11h59.11.343899 +0100,
tilted.xlsx,The target is tilted.,117,95,7,11,1,1,1,1,1,1,1,1,0,0,0,0,0,7,8,117,space,3.5172904000000926,None,1,1,1.5523091000000022,None,space,1.3028810999999223,None,0,0,0,0,,,,,11,7,95,1,257.52284929999996,,,,,,,,,,,,,,,,,,,,,257.50764260000005,257.52284929999996,258.0066649999999,258.01108179999983,258.0226118999999,259.5899924999999,,,,,259.59018730000025,259.6057996999998,259.80587590000005,259.78985809999995,258.0226118999999,,,,,,,,1,1,1.5523091000000022,None,,,,,,,,804,25,M,R,2026-02-18_11h59.11.138,VisualSearch_2526_3,,2025.2.4,2026-02-18 11h59.11.343899 +0100,
tilted.xlsx,The target is tilted.,117,96,0,12,1,1,1,1,1,1,1,1,0,0,0,0,0,7,8,117,space,3.5172904000000926,None,1,1,2.0965822999996817,None,space,1.3028810999999223,None,0,0,0,0,,,,,12,0,96,1,259.80587590000005,,,,,,,,,,,,,,,,,,,,,259.7906582999999,259.80587590000005,260.2898190000001,260.2949201000001,260.3110489999999,262.42290839999987,,,,,262.42306869999993,262.43865400000004,262.6388436000002,262.62254540000004,260.3110489999999,,,,,,,,1,1,2.0965822999996817,None,,,,,,,,804,25,M,R,2026-02-18_11h59.11.138,VisualSearch_2526_3,,2025.2.4,2026-02-18 11h59.11.343899 +0100,
tilted.xlsx,The target is tilted.,117,97,1,12,0,1,1,1,1,1,1,1,0,0,0,0,1,7,8,117,space,3.5172904000000926,None,0,1,2.0208679999996093,None,space,1.3028810999999223,None,0,0,0,0,,,,,12,1,97,5,262.6388436000002,,,,,,,,,,,,,,,,,,,,,262.62331300000005,262.6388436000002,263.1224748999998,263.12716649999993,263.1431748,265.17320470000004,,,,,265.1734099,265.188255,265.3881501000001,265.3721627,263.1431748,,,,,,,,0,1,2.0208679999996093,None,,,,,,,,804,25,M,R,2026-02-18_11h59.11.138,VisualSearch_2526_3,,2025.2.4,2026-02-18 11h59.11.343899 +0100,
tilted.xlsx,The target is tilted.,117,98,2,12,0,1,1,1,0,0,0,0,0,0,0,0,1,3,4,117,space,3.5172904000000926,None,0,1,0.8919510999999147,None,space,1.3028810999999223,None,0,0,0,0,,,,,12,2,98,6,265.3881501000001,,,,,,,,,,,,,,,,,,,,,265.3730095000001,265.3881501000001,265.8722837999999,265.8769155,265.8928366,266.7882936000001,,,,,266.7883978,266.80444690000013,267.0048747000001,266.9881670999998,265.8928366,,,,,,,,0,1,0.8919510999999147,None,,,,,,,,804,25,M,R,2026-02-18_11h59.11.138,VisualSearch_2526_3,,2025.2.4,2026-02-18 11h59.11.343899 +0100,
tilted.xlsx,The target is tilted.,117,99,3,12,1,1,1,1,0,0,0,0,0,0,0,0,0,3,4,117,space,3.5172904000000926,None,1,1,0.7452039999998306,None,space,1.3028810999999223,None,0,0,0,0,,,,,12,3,99,2,267.0048747000001,,,,,,,,,,,,,,,,,,,,,266.9889410999999,267.0048747000001,267.4883869,267.4930310999998,267.5040742000001,268.25570340000013,,,,,268.25589649999984,268.2709906,268.4712985000001,268.45531029999984,267.5040742000001,,,,,,,,1,1,0.7452039999998306,None,,,,,,,,804,25,M,R,2026-02-18_11h59.11.138,VisualSearch_2526_3,,2025.2.4,2026-02-18 11h59.11.343899 +0100,
tilted.xlsx,The target is tilted.,117,100,4,12,1,0,0,0,0,0,0,0,0,0,0,0,0,0,1,117,space,3.5172904000000926,None,1,1,0.5789723999996568,None,space,1.3028810999999223,None,0,0,0,0,,,,,12,4,100,3,268.4712985000001,,,,,,,,,,,,,,,,,,,,,268.45610350000015,268.4712985000001,268.9551233000002,268.9597592,268.97515250000015,269.55539869999984,,,,,269.55558870000004,269.570702,269.7707181999999,269.7548419999998,268.97515250000015,,,,,,,,1,1,0.5789723999996568,None,,,,,,,,804,25,M,R,2026-02-18_11h59.11.138,VisualSearch_2526_3,,2025.2.4,2026-02-18 11h59.11.343899 +0100,
tilted.xlsx,The target is tilted.,117,101,5,12,0,1,1,1,1,1,1,1,1,1,1,1,1,11,12,117,space,3.5172904000000926,None,0,1,2.7541832000001705,None,space,1.3028810999999223,None,0,0,0,0,,,,,12,5,101,4,269.7707181999999,,,,,,,,,,,,,,,,,,,,,269.7556592000001,269.7707181999999,270.2545374000001,270.25932680000005,270.2749855000002,273.03803819999985,,,,,273.0382119000001,273.0538068999999,273.25392109999984,273.2374797000002,270.2749855000002,,,,,,,,0,1,2.7541832000001705,None,,,,,,,,804,25,M,R,2026-02-18_11h59.11.138,VisualSearch_2526_3,,2025.2.4,2026-02-18 11h59.11.343899 +0100,
tilted.xlsx,The target is tilted.,117,102,6,12,0,0,0,0,0,0,0,0,0,0,0,0,1,1,1,117,space,3.5172904000000926,None,0,1,0.5995855000001029,None,space,1.3028810999999223,None,0,0,0,0,,,,,12,6,102,7,273.25392109999984,,,,,,,,,,,,,,,,,,,,,273.23819030000004,273.25392109999984,273.7377805000001,273.7423331,273.75827949999984,274.37162390000003,,,,,274.3718549,274.38714549999986,274.5871768000002,274.57097539999995,273.75827949999984,,,,,,,,0,1,0.5995855000001029,None,,,,,,,,804,25,M,R,2026-02-18_11h59.11.138,VisualSearch_2526_3,,2025.2.4,2026-02-18 11h59.11.343899 +0100,
tilted.xlsx,The target is tilted.,117,103,7,12,1,1,1,1,1,1,1,1,1,1,1,1,0,11,12,117,space,3.5172904000000926,None,1,1,2.433726100000058,None,space,1.3028810999999223,None,0,0,0,0,,,,,12,7,103,0,274.5871768000002,,,,,,,,,,,,,,,,,,,,,274.57170810000025,274.5871768000002,275.07029520000015,275.07474760000014,275.0903871999999,277.537738,,,,,277.53793159999987,277.5530540999998,277.7532704,277.7372233000001,275.0903871999999,,,,,,,,1,1,2.433726100000058,None,,,,,,,,804,25,M,R,2026-02-18_11h59.11.138,VisualSearch_2526_3,,2025.2.4,2026-02-18 11h59.11.343899 +0100,
tilted.xlsx,The target is tilted.,117,104,0,13,1,0,0,0,0,0,0,0,0,0,0,0,0,0,1,117,space,3.5172904000000926,None,1,1,0.5351662999996734,None,space,1.3028810999999223,None,0,0,0,0,,,,,13,0,104,3,277.7532704,,,,,,,,,,,,,,,,,,,,,277.7380360000002,277.7532704,278.23705400000017,278.2417174000002,278.2562710000002,278.8039193999998,,,,,278.8040767000002,278.8198462999999,279.0197409000002,279.0035690999998,278.2562710000002,,,,,,,,1,1,0.5351662999996734,None,,,,,,,,804,25,M,R,2026-02-18_11h59.11.138,VisualSearch_2526_3,,2025.2.4,2026-02-18 11h59.11.343899 +0100,
tilted.xlsx,The target is tilted.,117,105,1,13,1,1,1,1,0,0,0,0,0,0,0,0,0,3,4,117,space,3.5172904000000926,None,0,0,0.706318900000042,None,space,1.3028810999999223,None,0,0,0,0,,,,,13,1,105,2,279.0197409000002,,,,,,,,,,,,,,,,,,,,,279.00431130000015,279.0197409000002,279.50372210000023,279.50885000000017,279.5236490000002,280.2373846999999,,,,,280.2375821999999,280.25290189999987,280.4528859000002,280.4368430999998,279.5236490000002,,,,,,,,0,0,0.706318900000042,None,,,,,,,,804,25,M,R,2026-02-18_11h59.11.138,VisualSearch_2526_3,,2025.2.4,2026-02-18 11h59.11.343899 +0100,
tilted.xlsx,The target is tilted.,117,106,2,13,0,0,0,0,0,0,0,0,0,0,0,0,1,1,1,117,space,3.5172904000000926,None,0,1,0.5720078000003923,None,space,1.3028810999999223,None,0,0,0,0,,,,,13,2,106,7,280.4528859000002,,,,,,,,,,,,,,,,,,,,,280.43768690000024,280.4528859000002,280.93666489999987,280.94125840000015,280.9557112000002,281.5371983,,,,,281.53738969999995,281.5524482999999,281.7524661000002,281.73664880000024,280.9557112000002,,,,,,,,0,1,0.5720078000003923,None,,,,,,,,804,25,M,R,2026-02-18_11h59.11.138,VisualSearch_2526_3,,2025.2.4,2026-02-18 11h59.11.343899 +0100,
tilted.xlsx,The target is tilted.,117,107,3,13,0,1,1,1,1,1,1,1,1,1,1,1,1,11,12,117,space,3.5172904000000926,None,0,1,2.7805888000002597,None,space,1.3028810999999223,None,0,0,0,0,,,,,13,3,107,4,281.7524661000002,,,,,,,,,,,,,,,,,,,,,281.73750180000025,281.7524661000002,282.2366677,282.24168450000025,282.25829669999985,285.05332959999987,,,,,285.05352630000016,285.06850570000006,285.26892180000004,285.2526901000001,282.25829669999985,,,,,,,,0,1,2.7805888000002597,None,,,,,,,,804,25,M,R,2026-02-18_11h59.11.138,VisualSearch_2526_3,,2025.2.4,2026-02-18 11h59.11.343899 +0100,
tilted.xlsx,The target is tilted.,117,108,4,13,1,1,1,1,1,1,1,1,1,1,1,1,0,11,12,117,space,3.5172904000000926,None,0,0,2.493670800000018,None,space,1.3028810999999223,None,0,0,0,0,,,,,13,4,108,0,285.26892180000004,,,,,,,,,,,,,,,,,,,,,285.25349240000014,285.26892180000004,285.7526068000002,285.75719449999997,285.77354809999997,288.2696070000002,,,,,288.2698141000001,288.28472550000015,288.4851907000002,288.46892819999994,285.77354809999997,,,,,,,,0,0,2.493670800000018,None,,,,,,,,804,25,M,R,2026-02-18_11h59.11.138,VisualSearch_2526_3,,2025.2.4,2026-02-18 11h59.11.343899 +0100,
tilted.xlsx,The target is tilted.,117,109,5,13,0,1,1,1,1,1,1,1,0,0,0,0,1,7,8,117,space,3.5172904000000926,None,0,1,1.3992855000001327,None,space,1.3028810999999223,None,0,0,0,0,,,,,13,5,109,5,288.4851907000002,,,,,,,,,,,,,,,,,,,,,288.46975650000013,288.4851907000002,288.9688108,288.9734475999999,288.9892015999999,290.40254670000013,,,,,290.4027417000002,290.4177727000001,290.61817800000017,290.60182940000004,288.9892015999999,,,,,,,,0,1,1.3992855000001327,None,,,,,,,,804,25,M,R,2026-02-18_11h59.11.138,VisualSearch_2526_3,,2025.2.4,2026-02-18 11h59.11.343899 +0100,
tilted.xlsx,The target is tilted.,117,110,6,13,1,1,1,1,1,1,1,1,0,0,0,0,0,7,8,117,space,3.5172904000000926,None,0,0,1.4953406999998151,None,space,1.3028810999999223,None,0,0,0,0,,,,,13,6,110,1,290.61817800000017,,,,,,,,,,,,,,,,,,,,,290.60257920000004,290.61817800000017,291.10143130000006,291.10503990000007,291.1202207000001,292.61878830000023,,,,,292.61896179999985,292.63440249999985,292.8345650000001,292.8185053000002,291.1202207000001,,,,,,,,0,0,1.4953406999998151,None,,,,,,,,804,25,M,R,2026-02-18_11h59.11.138,VisualSearch_2526_3,,2025.2.4,2026-02-18 11h59.11.343899 +0100,
tilted.xlsx,The target is tilted.,117,111,7,13,0,1,1,1,0,0,0,0,0,0,0,0,1,3,4,117,space,3.5172904000000926,None,0,1,0.8389501000001474,None,space,1.3028810999999223,None,0,0,0,0,,,,,13,7,111,6,292.8345650000001,,,,,,,,,,,,,,,,,,,,,292.8192945999999,292.8345650000001,293.3182906000002,293.32284819999995,293.33921009999995,294.1846915000001,,,,,294.18479620000016,294.2003725999998,294.4007310000002,294.3847894999999,293.33921009999995,,,,,,,,0,1,0.8389501000001474,None,,,,,,,,804,25,M,R,2026-02-18_11h59.11.138,VisualSearch_2526_3,,2025.2.4,2026-02-18 11h59.11.343899 +0100,
tilted.xlsx,The target is tilted.,117,112,0,14,0,1,1,1,1,1,1,1,0,0,0,0,1,7,8,117,space,3.5172904000000926,None,0,1,1.7802592999996705,None,space,1.3028810999999223,None,0,0,0,0,,,,,14,0,112,5,294.4007310000002,,,,,,,,,,,,,,,,,,,,,294.38552419999996,294.4007310000002,294.8849008000002,294.8900951999999,294.9055744000002,296.7016440000002,,,,,296.7018370999999,296.7171929000001,296.91718390000005,296.9008957000001,294.9055744000002,,,,,,,,0,1,1.7802592999996705,None,,,,,,,,804,25,M,R,2026-02-18_11h59.11.138,VisualSearch_2526_3,,2025.2.4,2026-02-18 11h59.11.343899 +0100,
tilted.xlsx,The target is tilted.,117,113,1,14,1,1,1,1,1,1,1,1,0,0,0,0,0,7,8,117,space,3.5172904000000926,None,0,0,2.2226105999998254,None,space,1.3028810999999223,None,0,0,0,0,,,,,14,1,113,1,296.91718390000005,,,,,,,,,,,,,,,,,,,,,296.90163759999996,296.91718390000005,297.40091900000016,297.4054286999999,297.4170411,299.65135169999985,,,,,299.6515623999999,299.6667554999999,299.8668845000002,299.8508523999999,297.4170411,,,,,,,,0,0,2.2226105999998254,None,,,,,,,,804,25,M,R,2026-02-18_11h59.11.138,VisualSearch_2526_3,,2025.2.4,2026-02-18 11h59.11.343899 +0100,
tilted.xlsx,The target is tilted.,117,114,2,14,0,0,0,0,0,0,0,0,0,0,0,0,1,1,1,117,space,3.5172904000000926,None,0,1,0.5031905000000734,None,space,1.3028810999999223,None,0,0,0,0,,,,,14,2,114,7,299.8668845000002,,,,,,,,,,,,,,,,,,,,,299.8516518000001,299.8668845000002,300.3503230000001,300.3552923000002,300.37000560000024,300.8840928999998,,,,,300.8842337000001,300.8998838000002,301.09954930000004,301.08398560000023,300.37000560000024,,,,,,,,0,1,0.5031905000000734,None,,,,,,,,804,25,M,R,2026-02-18_11h59.11.138,VisualSearch_2526_3,,2025.2.4,2026-02-18 11h59.11.343899 +0100,
tilted.xlsx,The target is tilted.,117,115,3,14,1,1,1,1,0,0,0,0,0,0,0,0,0,3,4,117,space,3.5172904000000926,None,1,1,0.6762478000000556,None,space,1.3028810999999223,None,0,0,0,0,,,,,14,3,115,2,301.09954930000004,,,,,,,,,,,,,,,,,,,,,301.0847914000001,301.09954930000004,301.5838905999999,301.5890454999999,301.60606689999986,302.2841914999999,,,,,302.2843901000001,302.2993663000002,302.4999023999999,302.4837382999999,301.60606689999986,,,,,,,,1,1,0.6762478000000556,None,,,,,,,,804,25,M,R,2026-02-18_11h59.11.138,VisualSearch_2526_3,,2025.2.4,2026-02-18 11h59.11.343899 +0100,
tilted.xlsx,The target is tilted.,117,116,4,14,0,1,1,1,0,0,0,0,0,0,0,0,1,3,4,117,space,3.5172904000000926,None,0,1,0.6939076999997269,None,space,1.3028810999999223,None,0,0,0,0,,,,,14,4,116,6,302.4999023999999,,,,,,,,,,,,,,,,,,,,,302.4845605999999,302.4999023999999,302.9834727000002,302.98807669999997,303.00324790000013,303.7002846999999,,,,,303.7004643999999,303.71621540000024,303.91615649999994,303.90018370000007,303.00324790000013,,,,,,,,0,1,0.6939076999997269,None,,,,,,,,804,25,M,R,2026-02-18_11h59.11.138,VisualSearch_2526_3,,2025.2.4,2026-02-18 11h59.11.343899 +0100,
tilted.xlsx,The target is tilted.,117,117,5,14,1,0,0,0,0,0,0,0,0,0,0,0,0,0,1,117,space,3.5172904000000926,None,1,1,0.5603295000000799,None,space,1.3028810999999223,None,0,0,0,0,,,,,14,5,117,3,303.91615649999994,,,,,,,,,,,,,,,,,,,,,303.90104359999987,303.91615649999994,304.3999214999999,304.4045301000001,304.4197856999999,304.9828127999999,,,,,304.98291180000024,304.9990802000002,305.19909450000023,305.18310440000005,304.4197856999999,,,,,,,,1,1,0.5603295000000799,None,,,,,,,,804,25,M,R,2026-02-18_11h59.11.138,VisualSearch_2526_3,,2025.2.4,2026-02-18 11h59.11.343899 +0100,
tilted.xlsx,The target is tilted.,117,118,6,14,0,1,1,1,1,1,1,1,1,1,1,1,1,11,12,117,space,3.5172904000000926,None,0,1,2.173268200000166,None,space,1.3028810999999223,None,0,0,0,0,,,,,14,6,118,4,305.19909450000023,,,,,,,,,,,,,,,,,,,,,305.1838594000001,305.19909450000023,305.6831963999998,305.6878397999999,305.7034097999999,307.8826331,,,,,307.88272000000006,307.8987639000002,308.0989319,308.0824077000002,305.7034097999999,,,,,,,,0,1,2.173268200000166,None,,,,,,,,804,25,M,R,2026-02-18_11h59.11.138,VisualSearch_2526_3,,2025.2.4,2026-02-18 11h59.11.343899 +0100,
tilted.xlsx,The target is tilted.,117,119,7,14,1,1,1,1,1,1,1,1,1,1,1,1,0,11,12,117,space,3.5172904000000926,None,1,1,1.1168454999997266,None,space,1.3028810999999223,None,0,0,0,0,,,,,14,7,119,0,308.0989319,,,,,,,,,,,,,,,,,,,,,308.08316300000024,308.0989319,308.5828526999999,308.58805250000023,308.60749350000015,309.73310249999986,,,,,309.73330840000017,309.74865739999996,309.9638909999999,309.93276990000004,308.60749350000015,,,,,,,,1,1,1.1168454999997266,None,,,,,,,,804,25,M,R,2026-02-18_11h59.11.138,VisualSearch_2526_3,,2025.2.4,2026-02-18 11h59.11.343899 +0100,
tilted.xlsx,The target is tilted.,117,0,0,0,,,,,,,,,,,,,,,,,space,3.5172904000000926,None,,,,,space,1.3028810999999223,None,0,0,0,0,,,,,,,,,,,,,,,,,,,,,,,,,,,,,,,,,,,,,,,,,,,,,,,,,,,,,,,,,,,,,,,804,25,M,R,2026-02-18_11h59.11.138,VisualSearch_2526_3,,2025.2.4,2026-02-18 11h59.11.343899 +0100,
vertical.xlsx,The target is tilted.,135,0,0,0,1,1,1,1,1,1,1,1,0,0,0,0,0,7,8,135,space,4.127823699999681,None,1,1,1.010430599999836,None,,,,0,1,1,1,0,0,0,1,,,,,314.12636079999993,,,,,,,,,,,,,,,309.9638909999999,309.9638909999999,309.9638909999999,space,4.127823699999681,None,314.12244580000015,314.12636079999993,314.61487990000023,314.6195693999998,314.63430359999984,315.6479468000002,1,1,1.010430599999836,None,315.6480489999999,315.6643901000002,315.8641928000002,315.8483056,,,,,,,,,,,,,,,,,,,,804,25,M,R,2026-02-18_11h59.11.138,VisualSearch_2526_3,,2025.2.4,2026-02-18 11h59.11.343899 +0100,
vertical.xlsx,The target is tilted.,135,1,1,0,1,0,0,0,0,0,0,0,0,0,0,0,0,0,1,135,space,4.127823699999681,None,1,1,0.5072962999997799,None,,,,0,1,1,1,0,1,1,3,,,,,315.8641928000002,,,,,,,,,,,,,,,,,,,,,315.8489789999999,315.8641928000002,316.34822399999985,316.3534906,316.3699351999999,316.8817594000002,1,1,0.5072962999997799,None,316.8819579000001,316.8977073000001,317.0976522000001,317.08085819999997,,,,,,,,,,,,,,,,,,,,804,25,M,R,2026-02-18_11h59.11.138,VisualSearch_2526_3,,2025.2.4,2026-02-18 11h59.11.343899 +0100,
vertical.xlsx,The target is tilted.,135,2,2,0,1,1,1,1,0,0,0,0,0,0,0,0,0,3,4,135,space,4.127823699999681,None,1,1,0.6437430000000859,None,,,,0,1,1,1,0,2,2,2,,,,,317.0976522000001,,,,,,,,,,,,,,,,,,,,,317.08128540000007,317.0976522000001,317.5812384000001,317.58655709999994,317.6019292000001,318.2481966,1,1,0.6437430000000859,None,318.2483496,318.2639841,318.4642794000001,318.44815800000015,317.6019292000001,,,,,,,,,,,,,,,,,,,804,25,M,R,2026-02-18_11h59.11.138,VisualSearch_2526_3,,2025.2.4,2026-02-18 11h59.11.343899 +0100,
vertical.xlsx,The target is tilted.,135,3,3,0,0,1,1,1,1,1,1,1,1,1,1,1,1,11,12,135,space,4.127823699999681,None,0,1,1.8291251000000557,None,,,,0,1,1,1,0,3,3,4,,,,,318.4642794000001,,,,,,,,,,,,,,,,,,,,,318.44891400000006,318.4642794000001,318.9480475999999,318.95250480000004,318.9640451999999,320.79774339999994,0,1,1.8291251000000557,None,320.79788450000024,320.8139240999999,321.01388970000016,320.9977379000002,318.9640451999999,,,,,,,,,,,,,,,,,,,804,25,M,R,2026-02-18_11h59.11.138,VisualSearch_2526_3,,2025.2.4,2026-02-18 11h59.11.343899 +0100,
vertical.xlsx,The target is tilted.,135,4,4,0,0,1,1,1,0,0,0,0,0,0,0,0,1,3,4,135,space,4.127823699999681,None,0,1,0.6524197000003369,None,,,,0,1,1,1,0,4,4,6,,,,,321.01388970000016,,,,,,,,,,,,,,,,,,,,,320.9984608999998,321.01388970000016,321.4975419000002,321.5021875000002,321.5166224999998,322.1814657,0,1,0.6524197000003369,None,322.1816758,322.1968843999998,322.39708800000017,322.3807147000002,321.5166224999998,,,,,,,,,,,,,,,,,,,804,25,M,R,2026-02-18_11h59.11.138,VisualSearch_2526_3,,2025.2.4,2026-02-18 11h59.11.343899 +0100,
vertical.xlsx,The target is tilted.,135,5,5,0,0,0,0,0,0,0,0,0,0,0,0,0,1,1,1,135,space,4.127823699999681,None,0,1,0.4530531999998857,None,,,,0,1,1,1,0,5,5,7,,,,,322.39708800000017,,,,,,,,,,,,,,,,,,,,,322.38148980000005,322.39708800000017,322.8808217999999,322.8852581000001,322.90171740000005,323.36457280000013,0,1,0.4530531999998857,None,323.3647605000001,323.3798505999998,323.5798270999999,323.56393479999997,322.90171740000005,,,,,,,,,,,,,,,,,,,804,25,M,R,2026-02-18_11h59.11.138,VisualSearch_2526_3,,2025.2.4,2026-02-18 11h59.11.343899 +0100,
vertical.xlsx,The target is tilted.,135,6,6,0,0,1,1,1,1,1,1,1,0,0,0,0,1,7,8,135,space,4.127823699999681,None,0,1,1.1593161000000691,None,,,,0,1,1,1,0,6,6,5,,,,,323.5798270999999,,,,,,,,,,,,,,,,,,,,,323.5646373999998,323.5798270999999,324.06348130000015,324.0655634999998,324.0794442000001,325.24709870000015,0,1,1.1593161000000691,None,325.2472220999998,325.2630583,325.46317080000017,325.4470381000001,324.0794442000001,,,,,,,,,,,,,,,,,,,804,25,M,R,2026-02-18_11h59.11.138,VisualSearch_2526_3,,2025.2.4,2026-02-18 11h59.11.343899 +0100,
vertical.xlsx,The target is tilted.,135,7,7,0,1,1,1,1,1,1,1,1,1,1,1,1,0,11,12,135,space,4.127823699999681,None,0,0,1.5314950000001772,None,,,,0,1,1,1,0,7,7,0,,,,,325.46317080000017,,,,,,,,,,,,,,,,,,,,,325.44775260000006,325.46317080000017,325.9470557999998,325.9491281999999,325.9628889999999,327.49736310000026,0,0,1.5314950000001772,None,327.49754810000013,327.5125492999996,327.71290899999985,327.6969274000003,325.9628889999999,,,,,,,,,,,,,,,,,,,804,25,M,R,2026-02-18_11h59.11.138,VisualSearch_2526_3,,2025.2.4,2026-02-18 11h59.11.343899 +0100,
vertical.xlsx,The target is tilted.,135,0,0,0,0,1,1,1,1,1,1,1,1,1,1,1,1,11,12,135,space,4.127823699999681,None,0,1,2.078395100000307,None,space,1.7044034999998985,None,0,1,1,1,,,,,0,0,0,4,329.4586903999998,,,,,,,,,,,,,,,,,,,,,329.45481440000003,329.4586903999998,329.9458072999996,329.9504525000002,329.96612730000015,332.04674239999986,,,,,332.04695470000024,332.06185129999994,332.26222119999966,332.24615919999997,,327.70530250000047,327.71290899999985,327.71290899999985,329.43026069999996,space,1.7044034999998985,None,0,1,2.078395100000307,None,,,,,,,,804,25,M,R,2026-02-18_11h59.11.138,VisualSearch_2526_3,,2025.2.4,2026-02-18 11h59.11.343899 +0100,
vertical.xlsx,The target is tilted.,135,1,1,0,1,1,1,1,0,0,0,0,0,0,0,0,0,3,4,135,space,4.127823699999681,None,1,1,0.48616989999936777,None,space,1.7044034999998985,None,0,1,1,1,,,,,0,1,1,2,332.26222119999966,,,,,,,,,,,,,,,,,,,,,332.2469283999999,332.26222119999966,332.7460382999998,332.75059150000016,332.76570470000024,333.2629270999996,,,,,333.2631214000003,333.2787294999998,333.4787759999999,333.4627553,332.76570470000024,,,,,,,,1,1,0.48616989999936777,None,,,,,,,,804,25,M,R,2026-02-18_11h59.11.138,VisualSearch_2526_3,,2025.2.4,2026-02-18 11h59.11.343899 +0100,
vertical.xlsx,The target is tilted.,135,2,2,0,0,1,1,1,0,0,0,0,0,0,0,0,1,3,4,135,space,4.127823699999681,None,0,1,0.6650062999997317,None,space,1.7044034999998985,None,0,1,1,1,,,,,0,2,2,6,333.4787759999999,,,,,,,,,,,,,,,,,,,,,333.4635562000003,333.4787759999999,333.96243890000005,333.96702170000026,333.98169899999994,334.6629449000002,,,,,334.6631379999999,334.6784859999998,334.8786189000002,334.8625173999999,333.98169899999994,,,,,,,,0,1,0.6650062999997317,None,,,,,,,,804,25,M,R,2026-02-18_11h59.11.138,VisualSearch_2526_3,,2025.2.4,2026-02-18 11h59.11.343899 +0100,
vertical.xlsx,The target is tilted.,135,3,3,0,0,0,0,0,0,0,0,0,0,0,0,0,1,1,1,135,space,4.127823699999681,None,0,1,0.4702797999998438,None,space,1.7044034999998985,None,0,1,1,1,,,,,0,3,3,7,334.8786189000002,,,,,,,,,,,,,,,,,,,,,334.8633232000002,334.8786189000002,335.3622183999996,335.36689690000003,335.3810489999996,335.86269660000016,,,,,335.8628901000002,335.8780104999996,336.0784104000004,336.0621922999999,335.3810489999996,,,,,,,,0,1,0.4702797999998438,None,,,,,,,,804,25,M,R,2026-02-18_11h59.11.138,VisualSearch_2526_3,,2025.2.4,2026-02-18 11h59.11.343899 +0100,
vertical.xlsx,The target is tilted.,135,4,4,0,0,1,1,1,1,1,1,1,0,0,0,0,1,7,8,135,space,4.127823699999681,None,0,1,0.8287746000005427,None,space,1.7044034999998985,None,0,1,1,1,,,,,0,4,4,5,336.0784104000004,,,,,,,,,,,,,,,,,,,,,336.0629213000002,336.0784104000004,336.56224980000025,336.5679090000003,336.5826640000005,337.42923429999973,,,,,337.4294294000001,337.4447578999998,337.64483500000006,337.62874699999975,336.5826640000005,,,,,,,,0,1,0.8287746000005427,None,,,,,,,,804,25,M,R,2026-02-18_11h59.11.138,VisualSearch_2526_3,,2025.2.4,2026-02-18 11h59.11.343899 +0100,
vertical.xlsx,The target is tilted.,135,5,5,0,1,1,1,1,1,1,1,1,0,0,0,0,0,7,8,135,space,4.127823699999681,None,1,1,0.8438380999996298,None,space,1.7044034999998985,None,0,1,1,1,,,,,0,5,5,1,337.64483500000006,,,,,,,,,,,,,,,,,,,,,337.6295868999996,337.64483500000006,338.12898060000043,338.1339498999996,338.1506479999998,338.99566030000005,,,,,338.99585690000004,339.0112267000004,339.2113056999997,339.1952094999997,338.1506479999998,,,,,,,,1,1,0.8438380999996298,None,,,,,,,,804,25,M,R,2026-02-18_11h59.11.138,VisualSearch_2526_3,,2025.2.4,2026-02-18 11h59.11.343899 +0100,
vertical.xlsx,The target is tilted.,135,6,6,0,1,1,1,1,1,1,1,1,1,1,1,1,0,11,12,135,space,4.127823699999681,None,1,1,0.8913557999994737,None,space,1.7044034999998985,None,0,1,1,1,,,,,0,6,6,0,339.2113056999997,,,,,,,,,,,,,,,,,,,,,339.1960071000003,339.2113056999997,339.69498459999977,339.69959199999994,339.71538950000013,340.61128240000016,,,,,340.61139360000016,340.6274733,340.8276186000003,340.81174120000014,339.71538950000013,,,,,,,,1,1,0.8913557999994737,None,,,,,,,,804,25,M,R,2026-02-18_11h59.11.138,VisualSearch_2526_3,,2025.2.4,2026-02-18 11h59.11.343899 +0100,
vertical.xlsx,The target is tilted.,135,7,7,0,1,0,0,0,0,0,0,0,0,0,0,0,0,0,1,135,space,4.127823699999681,None,1,1,0.4696780000003855,None,space,1.7044034999998985,None,0,1,1,1,,,,,0,7,7,3,340.8276186000003,,,,,,,,,,,,,,,,,,,,,340.81246399999964,340.8276186000003,341.3111243000003,341.31583260000025,341.3304095000003,341.81162310000036,,,,,341.8118298999998,341.8271477999997,342.02747160000035,342.0112478000001,341.3304095000003,,,,,,,,1,1,0.4696780000003855,None,,,,,,,,804,25,M,R,2026-02-18_11h59.11.138,VisualSearch_2526_3,,2025.2.4,2026-02-18 11h59.11.343899 +0100,
vertical.xlsx,The target is tilted.,135,8,0,1,0,1,1,1,0,0,0,0,0,0,0,0,1,3,4,135,space,4.127823699999681,None,0,1,0.8206571000000622,None,space,1.7044034999998985,None,0,1,1,1,,,,,1,0,8,6,342.02747160000035,,,,,,,,,,,,,,,,,,,,,342.01203840000016,342.02747160000035,342.5103067,342.51199780000024,342.52721070000007,343.36158460000024,,,,,343.36177529999986,343.37693339999987,343.5774142999999,343.5610365000002,342.52721070000007,,,,,,,,0,1,0.8206571000000622,None,,,,,,,,804,25,M,R,2026-02-18_11h59.11.138,VisualSearch_2526_3,,2025.2.4,2026-02-18 11h59.11.343899 +0100,
vertical.xlsx,The target is tilted.,135,9,1,1,1,1,1,1,0,0,0,0,0,0,0,0,0,3,4,135,space,4.127823699999681,None,1,1,0.5841403999993418,None,space,1.7044034999998985,None,0,1,1,1,,,,,1,1,9,2,343.5774142999999,,,,,,,,,,,,,,,,,,,,,343.5618883999996,343.5774142999999,344.0612553000001,344.0662662000004,344.0820524999999,344.67765859999963,,,,,344.6777933000003,344.6936654000001,344.89338020000014,344.87761169999976,344.0820524999999,,,,,,,,1,1,0.5841403999993418,None,,,,,,,,804,25,M,R,2026-02-18_11h59.11.138,VisualSearch_2526_3,,2025.2.4,2026-02-18 11h59.11.343899 +0100,
vertical.xlsx,The target is tilted.,135,10,2,1,0,1,1,1,1,1,1,1,1,1,1,1,1,11,12,135,space,4.127823699999681,None,0,1,1.5915361999996094,None,space,1.7044034999998985,None,0,1,1,1,,,,,1,2,10,4,344.89338020000014,,,,,,,,,,,,,,,,,,,,,344.8784192000003,344.89338020000014,345.3770821999997,345.3816348999999,345.39580899999964,346.9940907,,,,,346.9942252999999,347.0101533999996,347.21013570000014,347.1938990999997,345.39580899999964,,,,,,,,0,1,1.5915361999996094,None,,,,,,,,804,25,M,R,2026-02-18_11h59.11.138,VisualSearch_2526_3,,2025.2.4,2026-02-18 11h59.11.343899 +0100,
vertical.xlsx,The target is tilted.,135,11,3,1,1,1,1,1,1,1,1,1,0,0,0,0,0,7,8,135,space,4.127823699999681,None,1,1,0.8437517000002117,None,space,1.7044034999998985,None,0,1,1,1,,,,,1,3,11,1,347.21013570000014,,,,,,,,,,,,,,,,,,,,,347.1946598000004,347.21013570000014,347.69383629999993,347.69834509999964,347.7098956,348.55982289999974,,,,,348.5599301000002,348.5760755000001,348.7761260999996,348.75979540000026,347.7098956,,,,,,,,1,1,0.8437517000002117,None,,,,,,,,804,25,M,R,2026-02-18_11h59.11.138,VisualSearch_2526_3,,2025.2.4,2026-02-18 11h59.11.343899 +0100,
vertical.xlsx,The target is tilted.,135,12,4,1,1,0,0,0,0,0,0,0,0,0,0,0,0,0,1,135,space,4.127823699999681,None,1,1,0.5154870000005758,None,space,1.7044034999998985,None,0,1,1,1,,,,,1,4,12,3,348.7761260999996,,,,,,,,,,,,,,,,,,,,,348.76025709999976,348.7761260999996,349.26029670000025,349.2654494999997,349.2817821999997,349.8108078000005,,,,,349.8109979999999,349.8263796000001,350.0263780000005,350.0103226000001,,,,,,,,,1,1,0.5154870000005758,None,,,,,,,,804,25,M,R,2026-02-18_11h59.11.138,VisualSearch_2526_3,,2025.2.4,2026-02-18 11h59.11.343899 +0100,
vertical.xlsx,The target is tilted.,135,13,5,1,0,1,1,1,1,1,1,1,0,0,0,0,1,7,8,135,space,4.127823699999681,None,0,1,1.049801899999693,None,space,1.7044034999998985,None,0,1,1,1,,,,,1,5,13,5,350.0263780000005,,,,,,,,,,,,,,,,,,,,,350.01107090000005,350.0263780000005,350.5099621999998,350.5145714,350.5289997,351.5936448000002,,,,,351.59383809999963,351.6091299999998,351.80951670000013,351.7930486000005,350.5289997,,,,,,,,0,1,1.049801899999693,None,,,,,,,,804,25,M,R,2026-02-18_11h59.11.138,VisualSearch_2526_3,,2025.2.4,2026-02-18 11h59.11.343899 +0100,
vertical.xlsx,The target is tilted.,135,14,6,1,0,0,0,0,0,0,0,0,0,0,0,0,1,1,1,135,space,4.127823699999681,None,0,1,0.4598860000005516,None,space,1.7044034999998985,None,0,1,1,1,,,,,1,6,14,7,351.80951670000013,,,,,,,,,,,,,,,,,,,,,351.7937020999998,351.80951670000013,352.29289960000006,352.29747060000045,352.31393110000045,352.7771104000003,,,,,352.77733119999994,352.79256780000014,352.99257899999975,352.9765397000001,352.31393110000045,,,,,,,,0,1,0.4598860000005516,None,,,,,,,,804,25,M,R,2026-02-18_11h59.11.138,VisualSearch_2526_3,,2025.2.4,2026-02-18 11h59.11.343899 +0100,
vertical.xlsx,The target is tilted.,135,15,7,1,1,1,1,1,1,1,1,1,1,1,1,1,0,11,12,135,space,4.127823699999681,None,1,1,0.8385404999999082,None,space,1.7044034999998985,None,0,1,1,1,,,,,1,7,15,0,352.99257899999975,,,,,,,,,,,,,,,,,,,,,352.9774809999999,352.99257899999975,353.4764404999996,353.4810619,353.4959951999999,354.3434385999999,,,,,354.34365100000014,354.3590997000001,354.5591938999996,354.54299869999977,353.4959951999999,,,,,,,,1,1,0.8385404999999082,None,,,,,,,,804,25,M,R,2026-02-18_11h59.11.138,VisualSearch_2526_3,,2025.2.4,2026-02-18 11h59.11.343899 +0100,
vertical.xlsx,The target is tilted.,135,16,0,2,0,1,1,1,1,1,1,1,1,1,1,1,1,11,12,135,space,4.127823699999681,None,0,1,1.8244662000006429,None,space,1.7044034999998985,None,0,1,1,1,,,,,2,0,16,4,354.5591938999996,,,,,,,,,,,,,,,,,,,,,354.5438193,354.5591938999996,355.04283510000005,355.0474207999996,355.05893689999994,356.8929275999999,,,,,356.8931187999997,356.9086877,357.1082176,357.09217830000034,355.05893689999994,,,,,,,,0,1,1.8244662000006429,None,,,,,,,,804,25,M,R,2026-02-18_11h59.11.138,VisualSearch_2526_3,,2025.2.4,2026-02-18 11h59.11.343899 +0100,
vertical.xlsx,The target is tilted.,135,17,1,2,1,1,1,1,1,1,1,1,1,1,1,1,0,11,12,135,space,4.127823699999681,None,1,1,0.8481233000002248,None,space,1.7044034999998985,None,0,1,1,1,,,,,2,1,17,0,357.1082176,,,,,,,,,,,,,,,,,,,,,357.09291010000015,357.1082176,357.59245759999976,357.59700599999996,357.6148784999996,358.4759124000002,,,,,358.47605870000007,358.49176220000027,358.69144700000015,358.6757630000002,357.6148784999996,,,,,,,,1,1,0.8481233000002248,None,,,,,,,,804,25,M,R,2026-02-18_11h59.11.138,VisualSearch_2526_3,,2025.2.4,2026-02-18 11h59.11.343899 +0100,
vertical.xlsx,The target is tilted.,135,18,2,2,0,0,0,0,0,0,0,0,0,0,0,0,1,1,1,135,space,4.127823699999681,None,0,1,0.5183391999999003,None,space,1.7044034999998985,None,0,1,1,1,,,,,2,2,18,7,358.69144700000015,,,,,,,,,,,,,,,,,,,,,358.6767354000003,358.69144700000015,359.1757362999997,359.1808536999997,359.19606620000013,359.7261846000001,,,,,359.72637490000034,359.7413679000001,359.9415901000002,359.9254047000004,359.19606620000013,,,,,,,,0,1,0.5183391999999003,None,,,,,,,,804,25,M,R,2026-02-18_11h59.11.138,VisualSearch_2526_3,,2025.2.4,2026-02-18 11h59.11.343899 +0100,
vertical.xlsx,The target is tilted.,135,19,3,2,1,1,1,1,0,0,0,0,0,0,0,0,0,3,4,135,space,4.127823699999681,None,1,1,0.9878813999994236,None,space,1.7044034999998985,None,0,1,1,1,,,,,2,3,19,2,359.9415901000002,,,,,,,,,,,,,,,,,,,,,359.9261354,359.9415901000002,360.4255112999999,360.43036930000017,360.44586419999996,361.4423995999996,,,,,361.44258939999963,361.4581582999999,361.65811680000024,361.64175499999965,360.44586419999996,,,,,,,,1,1,0.9878813999994236,None,,,,,,,,804,25,M,R,2026-02-18_11h59.11.138,VisualSearch_2526_3,,2025.2.4,2026-02-18 11h59.11.343899 +0100,
vertical.xlsx,The target is tilted.,135,20,4,2,1,0,0,0,0,0,0,0,0,0,0,0,0,0,1,135,space,4.127823699999681,None,1,1,0.5080814000002647,None,space,1.7044034999998985,None,0,1,1,1,,,,,2,4,20,3,361.65811680000024,,,,,,,,,,,,,,,,,,,,,361.64253949999966,361.65811680000024,362.14180750000014,362.1466585999997,362.16123440000047,362.67490799999996,,,,,362.6750291999997,362.6909109999997,362.89126959999976,362.8752800000002,362.16123440000047,,,,,,,,1,1,0.5080814000002647,None,,,,,,,,804,25,M,R,2026-02-18_11h59.11.138,VisualSearch_2526_3,,2025.2.4,2026-02-18 11h59.11.343899 +0100,
vertical.xlsx,The target is tilted.,135,21,5,2,0,1,1,1,1,1,1,1,0,0,0,0,1,7,8,135,space,4.127823699999681,None,0,1,1.64830880000045,None,space,1.7044034999998985,None,0,1,1,1,,,,,2,5,21,5,362.89126959999976,,,,,,,,,,,,,,,,,,,,,362.8761787000003,362.89126959999976,363.3752096999997,363.3801454000004,363.3980196000002,365.05787560000044,,,,,365.0580022000004,365.07382320000033,365.27421349999986,365.25803410000026,363.3980196000002,,,,,,,,0,1,1.64830880000045,None,,,,,,,,804,25,M,R,2026-02-18_11h59.11.138,VisualSearch_2526_3,,2025.2.4,2026-02-18 11h59.11.343899 +0100,
vertical.xlsx,The target is tilted.,135,22,6,2,0,1,1,1,0,0,0,0,0,0,0,0,1,3,4,135,space,4.127823699999681,None,0,1,0.5873064999996132,None,space,1.7044034999998985,None,0,1,1,1,,,,,2,6,22,6,365.27421349999986,,,,,,,,,,,,,,,,,,,,,365.25881839999965,365.27421349999986,365.7580914,365.76263780000045,365.7786930000002,366.37483020000036,,,,,366.3749756999996,366.39064059999964,366.5904542999997,366.5741975000001,365.7786930000002,,,,,,,,0,1,0.5873064999996132,None,,,,,,,,804,25,M,R,2026-02-18_11h59.11.138,VisualSearch_2526_3,,2025.2.4,2026-02-18 11h59.11.343899 +0100,
vertical.xlsx,The target is tilted.,135,23,7,2,1,1,1,1,1,1,1,1,0,0,0,0,0,7,8,135,space,4.127823699999681,None,0,0,1.3166928000000553,None,space,1.7044034999998985,None,0,1,1,1,,,,,2,7,23,1,366.5904542999997,,,,,,,,,,,,,,,,,,,,,366.5749888,366.5904542999997,367.07443130000047,367.0791608999998,367.0948833000002,368.42438459999994,,,,,368.42450850000023,368.44047990000035,368.64058879999993,368.6242438999998,367.0948833000002,,,,,,,,0,0,1.3166928000000553,None,,,,,,,,804,25,M,R,2026-02-18_11h59.11.138,VisualSearch_2526_3,,2025.2.4,2026-02-18 11h59.11.343899 +0100,
vertical.xlsx,The target is tilted.,135,24,0,3,1,0,0,0,0,0,0,0,0,0,0,0,0,0,1,135,space,4.127823699999681,None,1,1,0.719054000000142,None,space,1.7044034999998985,None,0,1,1,1,,,,,3,0,24,3,368.64058879999993,,,,,,,,,,,,,,,,,,,,,368.62507189999997,368.64058879999993,369.12436549999984,369.1292735999996,369.14431239999976,369.8743205999999,,,,,369.87445320000006,369.8900534000004,370.09022040000036,370.07371990000047,369.14431239999976,,,,,,,,1,1,0.719054000000142,None,,,,,,,,804,25,M,R,2026-02-18_11h59.11.138,VisualSearch_2526_3,,2025.2.4,2026-02-18 11h59.11.343899 +0100,
vertical.xlsx,The target is tilted.,135,25,1,3,1,1,1,1,0,0,0,0,0,0,0,0,0,3,4,135,space,4.127823699999681,None,1,1,0.6032878000005439,None,space,1.7044034999998985,None,0,1,1,1,,,,,3,1,25,2,370.09022040000036,,,,,,,,,,,,,,,,,,,,,370.0742516999999,370.09022040000036,370.5736516999996,370.57849780000015,370.5935218000004,371.2077833000003,,,,,371.20797140000013,371.2233046000001,371.42312349999975,371.40737460000037,370.5935218000004,,,,,,,,1,1,0.6032878000005439,None,,,,,,,,804,25,M,R,2026-02-18_11h59.11.138,VisualSearch_2526_3,,2025.2.4,2026-02-18 11h59.11.343899 +0100,
vertical.xlsx,The target is tilted.,135,26,2,3,0,1,1,1,0,0,0,0,0,0,0,0,1,3,4,135,space,4.127823699999681,None,0,1,0.5720922999998947,None,space,1.7044034999998985,None,0,1,1,1,,,,,3,2,26,6,371.42312349999975,,,,,,,,,,,,,,,,,,,,,371.40819939999983,371.42312349999975,371.90719199999967,371.91189810000014,371.9261833999999,372.5076565999998,,,,,372.50785240000005,372.5227530000002,372.72317010000006,372.7071139999998,371.9261833999999,,,,,,,,0,1,0.5720922999998947,None,,,,,,,,804,25,M,R,2026-02-18_11h59.11.138,VisualSearch_2526_3,,2025.2.4,2026-02-18 11h59.11.343899 +0100,
vertical.xlsx,The target is tilted.,135,27,3,3,0,0,0,0,0,0,0,0,0,0,0,0,1,1,1,135,space,4.127823699999681,None,0,1,0.47622599999976956,None,space,1.7044034999998985,None,0,1,1,1,,,,,3,3,27,7,372.72317010000006,,,,,,,,,,,,,,,,,,,,,372.7078282000002,372.72317010000006,373.20700810000017,373.21255680000013,373.2265828999998,373.70704790000036,,,,,373.7073369,373.72294280000006,373.9228178000003,373.9064043999997,373.2265828999998,,,,,,,,0,1,0.47622599999976956,None,,,,,,,,804,25,M,R,2026-02-18_11h59.11.138,VisualSearch_2526_3,,2025.2.4,2026-02-18 11h59.11.343899 +0100,
vertical.xlsx,The target is tilted.,135,28,4,3,1,1,1,1,1,1,1,1,1,1,1,1,0,11,12,135,space,4.127823699999681,None,1,1,1.090687799999614,None,space,1.7044034999998985,None,0,1,1,1,,,,,3,4,28,0,373.9228178000003,,,,,,,,,,,,,,,,,,,,,373.9071264000004,373.9228178000003,374.40676150000036,374.41139509999994,374.42766180000035,375.52377570000044,,,,,375.52396359999966,375.5390163000002,375.73945509999976,375.7228027000001,374.42766180000035,,,,,,,,1,1,1.090687799999614,None,,,,,,,,804,25,M,R,2026-02-18_11h59.11.138,VisualSearch_2526_3,,2025.2.4,2026-02-18 11h59.11.343899 +0100,
vertical.xlsx,The target is tilted.,135,29,5,3,0,1,1,1,1,1,1,1,0,0,0,0,1,7,8,135,space,4.127823699999681,None,0,1,2.546230700000706,None,space,1.7044034999998985,None,0,1,1,1,,,,,3,5,29,5,375.73945509999976,,,,,,,,,,,,,,,,,,,,,375.7235483000004,375.73945509999976,376.2232745000001,376.2279804,376.24338869999974,378.8060443000004,,,,,378.80614440000045,378.82195839999986,379.02222710000024,379.0061335999999,376.24338869999974,,,,,,,,0,1,2.546230700000706,None,,,,,,,,804,25,M,R,2026-02-18_11h59.11.138,VisualSearch_2526_3,,2025.2.4,2026-02-18 11h59.11.343899 +0100,
vertical.xlsx,The target is tilted.,135,30,6,3,0,1,1,1,1,1,1,1,1,1,1,1,1,11,12,135,space,4.127823699999681,None,0,1,1.8818468999998004,None,space,1.7044034999998985,None,0,1,1,1,,,,,3,6,30,4,379.02222710000024,,,,,,,,,,,,,,,,,,,,,379.00684060000003,379.02222710000024,379.5055760000005,379.51022999999986,379.5256677999996,381.42214179999974,,,,,381.4222688,381.4385507999996,381.6381561999997,381.6221996000004,379.5256677999996,,,,,,,,0,1,1.8818468999998004,None,,,,,,,,804,25,M,R,2026-02-18_11h59.11.138,VisualSearch_2526_3,,2025.2.4,2026-02-18 11h59.11.343899 +0100,
vertical.xlsx,The target is tilted.,135,31,7,3,1,1,1,1,1,1,1,1,0,0,0,0,0,7,8,135,space,4.127823699999681,None,1,1,1.034534899999926,None,space,1.7044034999998985,None,0,1,1,1,,,,,3,7,31,1,381.6381561999997,,,,,,,,,,,,,,,,,,,,,381.6229483999996,381.6381561999997,382.1219237000005,382.1264720999998,382.14252769999985,383.1893673000004,,,,,383.18955800000003,383.2049485999996,383.40495050000027,383.38890319999973,382.14252769999985,,,,,,,,1,1,1.034534899999926,None,,,,,,,,804,25,M,R,2026-02-18_11h59.11.138,VisualSearch_2526_3,,2025.2.4,2026-02-18 11h59.11.343899 +0100,
vertical.xlsx,The target is tilted.,135,32,0,4,1,1,1,1,0,0,0,0,0,0,0,0,0,3,4,135,space,4.127823699999681,None,1,1,0.5086412000000564,None,space,1.7044034999998985,None,0,1,1,1,,,,,4,0,32,2,383.40495050000027,,,,,,,,,,,,,,,,,,,,,383.3896917000002,383.40495050000027,383.88872569999967,383.89334099999996,383.90863569999965,384.42263660000026,,,,,384.42282669999986,384.4380887999996,384.63811179999993,384.6218888000003,383.90863569999965,,,,,,,,1,1,0.5086412000000564,None,,,,,,,,804,25,M,R,2026-02-18_11h59.11.138,VisualSearch_2526_3,,2025.2.4,2026-02-18 11h59.11.343899 +0100,
vertical.xlsx,The target is tilted.,135,33,1,4,0,1,1,1,1,1,1,1,0,0,0,0,1,7,8,135,space,4.127823699999681,None,0,1,1.8354802999992899,None,space,1.7044034999998985,None,0,1,1,1,,,,,4,1,33,5,384.63811179999993,,,,,,,,,,,,,,,,,,,,,384.62275370000043,384.63811179999993,385.12173970000003,385.12637129999985,385.14159930000005,386.98872779999965,,,,,386.98889729999973,387.00430549999965,387.2044986000001,387.1884221999999,385.14159930000005,,,,,,,,0,1,1.8354802999992899,None,,,,,,,,804,25,M,R,2026-02-18_11h59.11.138,VisualSearch_2526_3,,2025.2.4,2026-02-18 11h59.11.343899 +0100,
vertical.xlsx,The target is tilted.,135,34,2,4,1,1,1,1,1,1,1,1,0,0,0,0,0,7,8,135,space,4.127823699999681,None,1,1,1.1979546000002301,None,space,1.7044034999998985,None,0,1,1,1,,,,,4,2,34,1,387.2044986000001,,,,,,,,,,,,,,,,,,,,,387.1892418999996,387.2044986000001,387.6878717999998,387.6925223999997,387.70832470000005,388.9216921999996,,,,,388.9218844999996,388.9374246999996,389.1375459000001,389.1210780000001,387.70832470000005,,,,,,,,1,1,1.1979546000002301,None,,,,,,,,804,25,M,R,2026-02-18_11h59.11.138,VisualSearch_2526_3,,2025.2.4,2026-02-18 11h59.11.343899 +0100,
