file_name,block_instructions,target_example,thisN,thisTrialN,thisRepN,target_presence,opacity_1,opacity_2,opacity_3,opacity_4,opacity_5,opacity_6,opacity_7,opacity_8,opacity_9,opacity_10,opacity_11,opacity_12,n_distract,n_items,target_ori,key_resp_4.keys,key_resp_4.rt,key_resp_4.duration,key_resp.keys,key_resp.corr,key_resp.rt,key_resp.duration,key_resp_5.keys,key_resp_5.rt,key_resp_5.duration,blocks.thisRepN,blocks.thisTrialN,blocks.thisN,blocks.thisIndex,practice_trials.thisRepN,practice_trials.thisTrialN,practice_trials.thisN,practice_trials.thisIndex,trials.thisRepN,trials.thisTrialN,trials.thisN,trials.thisIndex,thisRow.t,notes,Welcome.started,WelcomeText.started,key_resp_2.started,Welcome.stopped,key_resp_2.keys,key_resp_2.rt,key_resp_2.duration,InformedConsent.started,text_4.started,InformedConsent.stopped,key_resp_6.keys,key_resp_6.rt,key_resp_6.duration,key_resp_4.started,example_target.started,text_3.started,blocks.key_resp_4.keys,blocks.key_resp_4.rt,blocks.key_resp_4.duration,FixCross.started,fixCross.started,FixCross.stopped,Stimulus.started,key_resp.started,Stimulus.stopped,practice_trials.key_resp.keys,practice_trials.key_resp.corr,practice_trials.key_resp.rt,practice_trials.key_resp.duration,BlankScreen.started,text.started,text.stopped,BlankScreen.stopped,fixCross.stopped,ExperimentStart.started,text_2.started,key_resp_5.started,ExperimentStart.stopped,blocks.key_resp_5.keys,blocks.key_resp_5.rt,blocks.key_resp_5.duration,trials.key_resp.keys,trials.key_resp.corr,trials.key_resp.rt,trials.key_resp.duration,Thanks.started,ThankYou.started,key_resp_3.started,Thanks.stopped,key_resp_3.keys,key_resp_3.rt,key_resp_3.duration,participant,leeftijd,gender,links/rechtshandig,date,expName,expVersion,psychopyVersion,expStart,
,,,,,,,,,,,,,,,,,,,,,,,,,,,,,,,,,,,,,,,,,,,,,,0.016510999999809428,0.02688540000053763,0.02688540000053763,70.05659569999989,space,70.02398820000053,None,,,,,,,,,,,,,,,,,,,,,,,,,,,,,,,,,,,,,,,,,,,,,,805,22,M,R,2026-02-18_12h13.42.712,VisualSearch_2526_3,,2025.2.4,2026-02-18 12h13.42.903195 +0100,
,,,,,,,,,,,,,,,,,,,,,,,,,,,,,,,,,,,,,,,,,,,,,,,,,,,,,70.05676870000025,70.07266870000058,75.2894965000005,y,5.218069999999898,None,,,,,,,,,,,,,,,,,,,,,,,,,,,,,,,,,,,,,,,,805,22,M,R,2026-02-18_12h13.42.712,VisualSearch_2526_3,,2025.2.4,2026-02-18 12h13.42.903195 +0100,
tilted.xlsx,The target is tilted.,117,0,0,0,0,1,1,1,1,1,1,1,1,1,1,1,1,11,12,117,space,7.870902099999512,None,0,1,4.711649099999704,None,,,,0,0,0,0,0,0,0,4,,,,,83.2302064000005,,,,,,,,,,,,,,,75.3268637000001,75.3268637000001,75.3268637000001,space,7.870902099999512,None,83.22484590000022,83.2302064000005,83.71980950000034,83.72451220000039,83.73759359999985,88.45341629999984,0,1,4.711649099999704,None,88.45360770000025,88.46897960000024,88.6694349999998,88.65322759999981,,,,,,,,,,,,,,,,,,,,805,22,M,R,2026-02-18_12h13.42.712,VisualSearch_2526_3,,2025.2.4,2026-02-18 12h13.42.903195 +0100,
tilted.xlsx,The target is tilted.,117,1,1,0,0,1,1,1,1,1,1,1,0,0,0,0,1,7,8,117,space,7.870902099999512,None,1,0,4.059854899999664,None,,,,0,0,0,0,0,1,1,5,,,,,88.6694349999998,,,,,,,,,,,,,,,,,,,,,88.65389039999991,88.6694349999998,89.15332680000029,89.15821930000038,89.17456010000024,93.23633669999981,1,0,4.059854899999664,None,93.23650400000042,93.25186170000052,93.45203750000019,93.4358616999998,89.17456010000024,,,,,,,,,,,,,,,,,,,805,22,M,R,2026-02-18_12h13.42.712,VisualSearch_2526_3,,2025.2.4,2026-02-18 12h13.42.903195 +0100,
tilted.xlsx,The target is tilted.,117,2,2,0,1,1,1,1,1,1,1,1,1,1,1,1,0,11,12,117,space,7.870902099999512,None,1,1,5.279912199999671,None,,,,0,0,0,0,0,2,2,0,,,,,93.45203750000019,,,,,,,,,,,,,,,,,,,,,93.4366885999998,93.45203750000019,93.93605019999995,93.94116819999999,93.95761540000058,99.25187809999989,1,1,5.279912199999671,None,99.25205160000041,99.26735689999987,99.46785180000006,99.45165569999972,93.95761540000058,,,,,,,,,,,,,,,,,,,805,22,M,R,2026-02-18_12h13.42.712,VisualSearch_2526_3,,2025.2.4,2026-02-18 12h13.42.903195 +0100,
tilted.xlsx,The target is tilted.,117,3,3,0,1,1,1,1,0,0,0,0,0,0,0,0,0,3,4,117,space,7.870902099999512,None,0,0,1.8019522000004145,None,,,,0,0,0,0,0,3,3,2,,,,,99.46785180000006,,,,,,,,,,,,,,,,,,,,,99.45233350000035,99.46785180000006,99.95157399999971,99.95614350000051,99.97225669999989,101.78497500000049,0,0,1.8019522000004145,None,101.78513079999993,101.80036120000022,102.00064939999993,101.98475510000026,99.97225669999989,,,,,,,,,,,,,,,,,,,805,22,M,R,2026-02-18_12h13.42.712,VisualSearch_2526_3,,2025.2.4,2026-02-18 12h13.42.903195 +0100,
tilted.xlsx,The target is tilted.,117,4,4,0,1,0,0,0,0,0,0,0,0,0,0,0,0,0,1,117,space,7.870902099999512,None,0,0,2.2773919999999634,None,,,,0,0,0,0,0,4,4,3,,,,,102.00064939999993,,,,,,,,,,,,,,,,,,,,,101.98543669999981,102.00064939999993,102.48414570000023,102.48597719999998,102.50045240000054,104.7848512999999,0,0,2.2773919999999634,None,104.78504179999982,104.7999531000005,105.00000780000028,104.9841879000005,102.50045240000054,,,,,,,,,,,,,,,,,,,805,22,M,R,2026-02-18_12h13.42.712,VisualSearch_2526_3,,2025.2.4,2026-02-18 12h13.42.903195 +0100,
tilted.xlsx,The target is tilted.,117,5,5,0,1,1,1,1,1,1,1,1,0,0,0,0,0,7,8,117,space,7.870902099999512,None,1,1,1.928709699999672,None,,,,0,0,0,0,0,5,5,1,,,,,105.00000780000028,,,,,,,,,,,,,,,,,,,,,104.98488280000038,105.00000780000028,105.48372800000016,105.48599730000024,105.49974590000056,107.43454800000018,1,1,1.928709699999672,None,107.43476530000044,107.44955470000059,107.64995439999984,107.63403170000038,105.49974590000056,,,,,,,,,,,,,,,,,,,805,22,M,R,2026-02-18_12h13.42.712,VisualSearch_2526_3,,2025.2.4,2026-02-18 12h13.42.903195 +0100,
tilted.xlsx,The target is tilted.,117,6,6,0,0,1,1,1,0,0,0,0,0,0,0,0,1,3,4,117,space,7.870902099999512,None,0,1,1.5428360999994766,None,,,,0,0,0,0,0,6,6,6,,,,,107.64995439999984,,,,,,,,,,,,,,,,,,,,,107.63478070000019,107.64995439999984,108.1338040999999,108.13853879999988,108.15437660000043,109.70033070000045,0,1,1.5428360999994766,None,109.70050309999988,109.71591410000019,109.91639290000057,109.90022649999992,108.15437660000043,,,,,,,,,,,,,,,,,,,805,22,M,R,2026-02-18_12h13.42.712,VisualSearch_2526_3,,2025.2.4,2026-02-18 12h13.42.903195 +0100,
tilted.xlsx,The target is tilted.,117,7,7,0,0,0,0,0,0,0,0,0,0,0,0,0,1,1,1,117,space,7.870902099999512,None,0,1,1.6378257999995185,None,,,,0,0,0,0,0,7,7,7,,,,,109.91639290000057,,,,,,,,,,,,,,,,,,,,,109.90088910000031,109.91639290000057,110.39998389999982,110.40464870000051,110.41969310000059,112.06713990000026,0,1,1.6378257999995185,None,112.06732900000043,112.08217210000021,112.28259059999982,112.26679400000012,110.41969310000059,,,,,,,,,,,,,,,,,,,805,22,M,R,2026-02-18_12h13.42.712,VisualSearch_2526_3,,2025.2.4,2026-02-18 12h13.42.903195 +0100,
tilted.xlsx,The target is tilted.,117,0,0,0,1,1,1,1,0,0,0,0,0,0,0,0,0,3,4,117,space,7.870902099999512,None,0,0,1.9900379999999132,None,space,3.1216622000001735,None,0,0,0,0,,,,,0,0,0,2,115.4425740000006,,,,,,,,,,,,,,,,,,,,,115.43902049999997,115.4425740000006,115.93202130000009,115.93673060000037,115.95256979999976,117.94954180000059,,,,,117.94974760000059,117.96467959999973,118.16516709999996,118.14907370000037,,112.27475260000028,112.28259059999982,112.28259059999982,115.41631440000037,space,3.1216622000001735,None,0,0,1.9900379999999132,None,,,,,,,,805,22,M,R,2026-02-18_12h13.42.712,VisualSearch_2526_3,,2025.2.4,2026-02-18 12h13.42.903195 +0100,
tilted.xlsx,The target is tilted.,117,1,1,0,1,0,0,0,0,0,0,0,0,0,0,0,0,0,1,117,space,7.870902099999512,None,0,0,1.1491244999997434,None,space,3.1216622000001735,None,0,0,0,0,,,,,0,1,1,3,118.16516709999996,,,,,,,,,,,,,,,,,,,,,118.14980190000006,118.16516709999996,118.64894210000057,118.65363070000058,118.66920329999994,119.83214550000048,,,,,119.83236060000036,119.84779510000044,120.0483419000002,120.03245530000004,118.66920329999994,,,,,,,,0,0,1.1491244999997434,None,,,,,,,,805,22,M,R,2026-02-18_12h13.42.712,VisualSearch_2526_3,,2025.2.4,2026-02-18 12h13.42.903195 +0100,
tilted.xlsx,The target is tilted.,117,2,2,0,0,1,1,1,0,0,0,0,0,0,0,0,1,3,4,117,space,7.870902099999512,None,0,1,1.1689064000001963,None,space,3.1216622000001735,None,0,0,0,0,,,,,0,2,2,6,120.0483419000002,,,,,,,,,,,,,,,,,,,,,120.0332769000006,120.0483419000002,120.53163519999998,120.53576539999995,120.55174369999986,121.73236530000031,,,,,121.73256320000019,121.7475185000003,121.94817599999988,121.93181379999987,120.55174369999986,,,,,,,,0,1,1.1689064000001963,None,,,,,,,,805,22,M,R,2026-02-18_12h13.42.712,VisualSearch_2526_3,,2025.2.4,2026-02-18 12h13.42.903195 +0100,
tilted.xlsx,The target is tilted.,117,3,3,0,0,0,0,0,0,0,0,0,0,0,0,0,1,1,1,117,space,7.870902099999512,None,0,1,0.9298422000001665,None,space,3.1216622000001735,None,0,0,0,0,,,,,0,3,3,7,121.94817599999988,,,,,,,,,,,,,,,,,,,,,121.93254820000038,121.94817599999988,122.43168830000013,122.43640510000023,122.45149450000008,123.39750660000027,,,,,123.39760920000026,123.41383420000057,,123.59814660000029,122.45149450000008,,,,,,,,0,1,0.9298422000001665,None,,,,,,,,805,22,M,R,2026-02-18_12h13.42.712,VisualSearch_2526_3,,2025.2.4,2026-02-18 12h13.42.903195 +0100,
tilted.xlsx,The target is tilted.,117,4,4,0,1,1,1,1,1,1,1,1,1,1,1,1,0,11,12,117,space,7.870902099999512,None,1,1,4.737943600000108,None,space,3.1216622000001735,None,0,0,0,0,,,,,0,4,4,0,123.61448340000061,,,,,,,,,,,,,,,,,,,,,123.59903800000029,123.61448340000061,124.0979441999998,124.10264240000015,124.11818190000031,128.86424249999982,,,,,128.86437560000013,128.87985240000035,129.08001839999997,129.06417460000011,,,,,,,,,1,1,4.737943600000108,None,,,,,,,,805,22,M,R,2026-02-18_12h13.42.712,VisualSearch_2526_3,,2025.2.4,2026-02-18 12h13.42.903195 +0100,
tilted.xlsx,The target is tilted.,117,5,5,0,0,1,1,1,1,1,1,1,1,1,1,1,1,11,12,117,space,7.870902099999512,None,0,1,3.9531238999998095,None,space,3.1216622000001735,None,0,0,0,0,,,,,0,5,5,4,129.08001839999997,,,,,,,,,,,,,,,,,,,,,129.06490360000043,129.08001839999997,129.5640641,129.56874609999977,129.58458150000024,133.54747409999982,,,,,133.54767319999974,133.56252099999983,133.76296170000023,133.7465490000004,129.58458150000024,,,,,,,,0,1,3.9531238999998095,None,,,,,,,,805,22,M,R,2026-02-18_12h13.42.712,VisualSearch_2526_3,,2025.2.4,2026-02-18 12h13.42.903195 +0100,
tilted.xlsx,The target is tilted.,117,6,6,0,1,1,1,1,1,1,1,1,0,0,0,0,0,7,8,117,space,7.870902099999512,None,1,1,1.539094099999602,None,space,3.1216622000001735,None,0,0,0,0,,,,,0,6,6,1,133.76296170000023,,,,,,,,,,,,,,,,,,,,,133.7472544000002,133.76296170000023,134.24668790000032,134.2516383000002,134.26757129999987,135.8137925000001,,,,,135.81398890000037,135.82890130000033,136.02938040000026,136.01308990000052,134.26757129999987,,,,,,,,1,1,1.539094099999602,None,,,,,,,,805,22,M,R,2026-02-18_12h13.42.712,VisualSearch_2526_3,,2025.2.4,2026-02-18 12h13.42.903195 +0100,
tilted.xlsx,The target is tilted.,117,7,7,0,0,1,1,1,1,1,1,1,0,0,0,0,1,7,8,117,space,7.870902099999512,None,1,0,1.9149028000001636,None,space,3.1216622000001735,None,0,0,0,0,,,,,0,7,7,5,136.02938040000026,,,,,,,,,,,,,,,,,,,,,136.0138437000005,136.02938040000026,136.51306720000048,136.5178620000006,136.5334014,138.46280060000026,,,,,138.46303100000023,138.47855150000032,138.67860259999998,138.6629367000005,136.5334014,,,,,,,,1,0,1.9149028000001636,None,,,,,,,,805,22,M,R,2026-02-18_12h13.42.712,VisualSearch_2526_3,,2025.2.4,2026-02-18 12h13.42.903195 +0100,
tilted.xlsx,The target is tilted.,117,8,0,1,0,0,0,0,0,0,0,0,0,0,0,0,1,1,1,117,space,7.870902099999512,None,0,1,1.4585597999994206,None,space,3.1216622000001735,None,0,0,0,0,,,,,1,0,8,7,138.67860259999998,,,,,,,,,,,,,,,,,,,,,138.66374259999975,138.67860259999998,139.16291019999971,139.16803100000016,139.18161599999985,140.64627120000023,,,,,140.64646600000015,140.66149060000043,140.86193950000052,140.84578239999973,139.18161599999985,,,,,,,,0,1,1.4585597999994206,None,,,,,,,,805,22,M,R,2026-02-18_12h13.42.712,VisualSearch_2526_3,,2025.2.4,2026-02-18 12h13.42.903195 +0100,
tilted.xlsx,The target is tilted.,117,9,1,1,0,1,1,1,1,1,1,1,0,0,0,0,1,7,8,117,space,7.870902099999512,None,1,0,2.817904199999248,None,space,3.1216622000001735,None,0,0,0,0,,,,,1,1,9,5,140.86193950000052,,,,,,,,,,,,,,,,,,,,,140.8465414000002,140.86193950000052,141.34526520000054,141.3481939000003,141.36140580000028,144.19486890000007,,,,,144.1950066999998,144.21145160000015,,144.3951530000004,141.36140580000028,,,,,,,,1,0,2.817904199999248,None,,,,,,,,805,22,M,R,2026-02-18_12h13.42.712,VisualSearch_2526_3,,2025.2.4,2026-02-18 12h13.42.903195 +0100,
tilted.xlsx,The target is tilted.,117,10,2,1,0,1,1,1,0,0,0,0,0,0,0,0,1,3,4,117,space,7.870902099999512,None,0,1,1.0493507999999565,None,space,3.1216622000001735,None,0,0,0,0,,,,,1,2,10,6,144.41107960000045,,,,,,,,,,,,,,,,,,,,,144.3960164,144.41107960000045,144.89532130000043,144.89999420000004,144.91705730000012,145.9783053000001,,,,,145.97850879999987,145.99404959999993,146.1945808999999,146.1780134999999,144.91705730000012,,,,,,,,0,1,1.0493507999999565,None,,,,,,,,805,22,M,R,2026-02-18_12h13.42.712,VisualSearch_2526_3,,2025.2.4,2026-02-18 12h13.42.903195 +0100,
tilted.xlsx,The target is tilted.,117,11,3,1,1,1,1,1,1,1,1,1,0,0,0,0,0,7,8,117,space,7.870902099999512,None,0,0,3.4363626000003933,None,space,3.1216622000001735,None,0,0,0,0,,,,,1,3,11,1,146.1945808999999,,,,,,,,,,,,,,,,,,,,,146.17874459999985,146.1945808999999,146.67820380000012,146.68319020000035,146.69966410000052,150.14435740000044,,,,,150.14445810000052,150.16001289999986,150.3606905000006,150.34466369999973,146.69966410000052,,,,,,,,0,0,3.4363626000003933,None,,,,,,,,805,22,M,R,2026-02-18_12h13.42.712,VisualSearch_2526_3,,2025.2.4,2026-02-18 12h13.42.903195 +0100,
tilted.xlsx,The target is tilted.,117,12,4,1,0,1,1,1,1,1,1,1,1,1,1,1,1,11,12,117,space,7.870902099999512,None,1,0,3.5818701999996847,None,space,3.1216622000001735,None,0,0,0,0,,,,,1,4,12,4,150.3606905000006,,,,,,,,,,,,,,,,,,,,,150.3461170999999,150.3606905000006,150.84439370000018,150.8489795000005,150.86698440000055,154.46079329999975,,,,,154.46099409999988,154.4760449000005,154.6767031999998,154.66013050000038,150.86698440000055,,,,,,,,1,0,3.5818701999996847,None,,,,,,,,805,22,M,R,2026-02-18_12h13.42.712,VisualSearch_2526_3,,2025.2.4,2026-02-18 12h13.42.903195 +0100,
tilted.xlsx,The target is tilted.,117,13,5,1,1,1,1,1,0,0,0,0,0,0,0,0,0,3,4,117,space,7.870902099999512,None,0,0,2.981030799999644,None,space,3.1216622000001735,None,0,0,0,0,,,,,1,5,13,2,154.6767031999998,,,,,,,,,,,,,,,,,,,,,154.66088029999992,154.6767031999998,155.16058539999995,155.16535879999992,155.1764890000004,158.1607466000005,,,,,158.16096160000052,158.17573249999987,158.37612700000045,158.3599495999997,155.1764890000004,,,,,,,,0,0,2.981030799999644,None,,,,,,,,805,22,M,R,2026-02-18_12h13.42.712,VisualSearch_2526_3,,2025.2.4,2026-02-18 12h13.42.903195 +0100,
tilted.xlsx,The target is tilted.,117,14,6,1,1,0,0,0,0,0,0,0,0,0,0,0,0,0,1,117,space,7.870902099999512,None,0,0,0.9080298000008042,None,space,3.1216622000001735,None,0,0,0,0,,,,,1,6,14,3,158.37612700000045,,,,,,,,,,,,,,,,,,,,,158.36068549999982,158.37612700000045,158.86023420000038,158.8647516000001,158.8759596,159.7934937,,,,,159.79367079999975,159.8086815000006,160.00897989999976,159.9931273000002,158.8759596,,,,,,,,0,0,0.9080298000008042,None,,,,,,,,805,22,M,R,2026-02-18_12h13.42.712,VisualSearch_2526_3,,2025.2.4,2026-02-18 12h13.42.903195 +0100,
tilted.xlsx,The target is tilted.,117,15,7,1,1,1,1,1,1,1,1,1,1,1,1,1,0,11,12,117,space,7.870902099999512,None,0,0,4.274572899999839,None,space,3.1216622000001735,None,0,0,0,0,,,,,1,7,15,0,160.00897989999976,,,,,,,,,,,,,,,,,,,,,159.99386210000011,160.00897989999976,160.49267039999995,160.49522799999977,160.50912210000024,164.79259600000023,,,,,164.79277700000057,164.8080942000006,165.00850880000053,164.99237670000002,160.50912210000024,,,,,,,,0,0,4.274572899999839,None,,,,,,,,805,22,M,R,2026-02-18_12h13.42.712,VisualSearch_2526_3,,2025.2.4,2026-02-18 12h13.42.903195 +0100,
tilted.xlsx,The target is tilted.,117,16,0,2,0,0,0,0,0,0,0,0,0,0,0,0,1,1,1,117,space,7.870902099999512,None,0,1,0.7063960999994379,None,space,3.1216622000001735,None,0,0,0,0,,,,,2,0,16,7,165.00850880000053,,,,,,,,,,,,,,,,,,,,,164.99313660000007,165.00850880000053,165.49167920000036,165.49388309999995,165.50827019999997,166.22549789999994,,,,,166.22569230000045,166.24122030000035,166.44165109999994,166.42574380000042,165.50827019999997,,,,,,,,0,1,0.7063960999994379,None,,,,,,,,805,22,M,R,2026-02-18_12h13.42.712,VisualSearch_2526_3,,2025.2.4,2026-02-18 12h13.42.903195 +0100,
tilted.xlsx,The target is tilted.,117,17,1,2,1,1,1,1,0,0,0,0,0,0,0,0,0,3,4,117,space,7.870902099999512,None,0,0,2.2498823999994784,None,space,3.1216622000001735,None,0,0,0,0,,,,,2,1,17,2,166.44165109999994,,,,,,,,,,,,,,,,,,,,,166.42655209999975,166.44165109999994,166.9255963000005,166.9309047000006,166.94559159999972,169.2080151,,,,,169.2081533999999,169.22425459999977,169.4246473000003,169.40842330000032,166.94559159999972,,,,,,,,0,0,2.2498823999994784,None,,,,,,,,805,22,M,R,2026-02-18_12h13.42.712,VisualSearch_2526_3,,2025.2.4,2026-02-18 12h13.42.903195 +0100,
tilted.xlsx,The target is tilted.,117,18,2,2,1,1,1,1,1,1,1,1,0,0,0,0,0,7,8,117,space,7.870902099999512,None,1,1,1.4931704999999056,None,space,3.1216622000001735,None,0,0,0,0,,,,,2,2,18,1,169.4246473000003,,,,,,,,,,,,,,,,,,,,,169.40921909999997,169.4246473000003,169.90852280000036,169.9137980000005,169.92889620000005,171.42586230000052,,,,,171.42606299999989,171.4405370000004,171.64075140000023,171.62459099999978,169.92889620000005,,,,,,,,1,1,1.4931704999999056,None,,,,,,,,805,22,M,R,2026-02-18_12h13.42.712,VisualSearch_2526_3,,2025.2.4,2026-02-18 12h13.42.903195 +0100,
tilted.xlsx,The target is tilted.,117,19,3,2,1,0,0,0,0,0,0,0,0,0,0,0,0,0,1,117,space,7.870902099999512,None,0,0,0.8286451999993005,None,space,3.1216622000001735,None,0,0,0,0,,,,,2,3,19,3,171.64075140000023,,,,,,,,,,,,,,,,,,,,,171.62541740000052,171.64075140000023,172.12469779999992,172.1295224000005,172.14440680000007,172.97468410000056,,,,,172.97482779999973,172.9902179999999,173.19075280000015,173.17427580000003,172.14440680000007,,,,,,,,0,0,0.8286451999993005,None,,,,,,,,805,22,M,R,2026-02-18_12h13.42.712,VisualSearch_2526_3,,2025.2.4,2026-02-18 12h13.42.903195 +0100,
tilted.xlsx,The target is tilted.,117,20,4,2,0,1,1,1,1,1,1,1,1,1,1,1,1,11,12,117,space,7.870902099999512,None,1,0,1.3906481000003623,None,space,3.1216622000001735,None,0,0,0,0,,,,,2,4,20,4,173.19075280000015,,,,,,,,,,,,,,,,,,,,,173.17500819999987,173.19075280000015,173.6745080999999,173.67970460000015,173.69506890000048,175.09067760000016,,,,,175.09082020000005,175.10640049999984,175.3069804000006,175.29080609999983,173.69506890000048,,,,,,,,1,0,1.3906481000003623,None,,,,,,,,805,22,M,R,2026-02-18_12h13.42.712,VisualSearch_2526_3,,2025.2.4,2026-02-18 12h13.42.903195 +0100,
tilted.xlsx,The target is tilted.,117,21,5,2,1,1,1,1,1,1,1,1,1,1,1,1,0,11,12,117,space,7.870902099999512,None,1,1,1.5388165000003937,None,space,3.1216622000001735,None,0,0,0,0,,,,,2,5,21,0,175.3069804000006,,,,,,,,,,,,,,,,,,,,,175.29155319999973,175.3069804000006,175.79054460000043,175.79528649999975,175.81182900000022,177.35793920000015,,,,,177.3581425000002,177.37293690000024,177.57343000000037,177.55731509999987,175.81182900000022,,,,,,,,1,1,1.5388165000003937,None,,,,,,,,805,22,M,R,2026-02-18_12h13.42.712,VisualSearch_2526_3,,2025.2.4,2026-02-18 12h13.42.903195 +0100,
tilted.xlsx,The target is tilted.,117,22,6,2,0,1,1,1,1,1,1,1,0,0,0,0,1,7,8,117,space,7.870902099999512,None,0,1,2.0339246000003186,None,space,3.1216622000001735,None,0,0,0,0,,,,,2,6,22,5,177.57343000000037,,,,,,,,,,,,,,,,,,,,,177.55812940000033,177.57343000000037,178.0572017000004,178.06214739999996,178.0773282,180.12318289999985,,,,,180.12332220000008,180.13927460000014,180.33920649999982,180.32296510000015,178.0773282,,,,,,,,0,1,2.0339246000003186,None,,,,,,,,805,22,M,R,2026-02-18_12h13.42.712,VisualSearch_2526_3,,2025.2.4,2026-02-18 12h13.42.903195 +0100,
tilted.xlsx,The target is tilted.,117,23,7,2,0,1,1,1,0,0,0,0,0,0,0,0,1,3,4,117,space,7.870902099999512,None,0,1,2.7952212999998665,None,space,3.1216622000001735,None,0,0,0,0,,,,,2,7,23,6,180.33920649999982,,,,,,,,,,,,,,,,,,,,,180.3233492999998,180.33920649999982,180.82331070000055,180.82835140000043,180.84155439999995,183.64004010000008,,,,,183.64023730000008,183.65541699999994,183.85590070000035,183.83975830000054,180.84155439999995,,,,,,,,0,1,2.7952212999998665,None,,,,,,,,805,22,M,R,2026-02-18_12h13.42.712,VisualSearch_2526_3,,2025.2.4,2026-02-18 12h13.42.903195 +0100,
tilted.xlsx,The target is tilted.,117,24,0,3,0,1,1,1,1,1,1,1,1,1,1,1,1,11,12,117,space,7.870902099999512,None,1,0,2.3476511999997456,None,space,3.1216622000001735,None,0,0,0,0,,,,,3,0,24,4,183.85590070000035,,,,,,,,,,,,,,,,,,,,,183.84048320000056,183.85590070000035,184.3397042000006,184.3443696000004,184.3570338999998,186.70646130000023,,,,,186.70664420000048,186.72167009999976,186.92203260000042,186.9056873999998,184.3570338999998,,,,,,,,1,0,2.3476511999997456,None,,,,,,,,805,22,M,R,2026-02-18_12h13.42.712,VisualSearch_2526_3,,2025.2.4,2026-02-18 12h13.42.903195 +0100,
tilted.xlsx,The target is tilted.,117,25,1,3,0,1,1,1,1,1,1,1,0,0,0,0,1,7,8,117,space,7.870902099999512,None,1,0,1.9244321000005584,None,space,3.1216622000001735,None,0,0,0,0,,,,,3,1,25,5,186.92203260000042,,,,,,,,,,,,,,,,,,,,,186.90641030000006,186.92203260000042,187.40606819999994,187.41126880000047,187.42585140000028,189.3555479000006,,,,,189.3557590999999,189.37125519999972,189.5714837000005,189.55550940000012,187.42585140000028,,,,,,,,1,0,1.9244321000005584,None,,,,,,,,805,22,M,R,2026-02-18_12h13.42.712,VisualSearch_2526_3,,2025.2.4,2026-02-18 12h13.42.903195 +0100,
tilted.xlsx,The target is tilted.,117,26,2,3,1,1,1,1,1,1,1,1,0,0,0,0,0,7,8,117,space,7.870902099999512,None,1,1,2.033548200000041,None,space,3.1216622000001735,None,0,0,0,0,,,,,3,2,26,1,189.5714837000005,,,,,,,,,,,,,,,,,,,,,189.55630949999977,189.5714837000005,190.05555449999974,190.0601645000006,190.07270849999986,192.12109130000044,,,,,192.12119450000046,192.13748639999994,,192.32174660000055,190.07270849999986,,,,,,,,1,1,2.033548200000041,None,,,,,,,,805,22,M,R,2026-02-18_12h13.42.712,VisualSearch_2526_3,,2025.2.4,2026-02-18 12h13.42.903195 +0100,
tilted.xlsx,The target is tilted.,117,27,3,3,1,1,1,1,1,1,1,1,1,1,1,1,0,11,12,117,space,7.870902099999512,None,0,0,3.4064534999997704,None,space,3.1216622000001735,None,0,0,0,0,,,,,3,3,27,0,192.33815080000022,,,,,,,,,,,,,,,,,,,,,192.3226222000003,192.33815080000022,192.82158729999992,192.82630789999985,192.8429184000006,196.2550138000006,,,,,196.25521730000037,196.27031840000018,196.47065320000002,196.4547647999998,,,,,,,,,0,0,3.4064534999997704,None,,,,,,,,805,22,M,R,2026-02-18_12h13.42.712,VisualSearch_2526_3,,2025.2.4,2026-02-18 12h13.42.903195 +0100,
tilted.xlsx,The target is tilted.,117,28,4,3,1,1,1,1,0,0,0,0,0,0,0,0,0,3,4,117,space,7.870902099999512,None,0,0,1.6539220999993631,None,space,3.1216622000001735,None,0,0,0,0,,,,,3,4,28,2,196.47065320000002,,,,,,,,,,,,,,,,,,,,,196.45557009999993,196.47065320000002,196.954659,196.95918950000032,196.97597039999982,198.63738130000002,,,,,198.6375195999999,198.65309940000043,198.8537526,198.83776800000032,196.97597039999982,,,,,,,,0,0,1.6539220999993631,None,,,,,,,,805,22,M,R,2026-02-18_12h13.42.712,VisualSearch_2526_3,,2025.2.4,2026-02-18 12h13.42.903195 +0100,
tilted.xlsx,The target is tilted.,117,29,5,3,0,1,1,1,0,0,0,0,0,0,0,0,1,3,4,117,space,7.870902099999512,None,0,1,2.1349234000008437,None,space,3.1216622000001735,None,0,0,0,0,,,,,3,5,29,6,198.8537526,,,,,,,,,,,,,,,,,,,,,198.83852500000012,198.8537526,199.3377220000002,199.34317139999985,199.35776859999987,201.50404160000016,,,,,201.50419000000056,201.51948020000054,201.7198623000004,201.70348699999977,199.35776859999987,,,,,,,,0,1,2.1349234000008437,None,,,,,,,,805,22,M,R,2026-02-18_12h13.42.712,VisualSearch_2526_3,,2025.2.4,2026-02-18 12h13.42.903195 +0100,
tilted.xlsx,The target is tilted.,117,30,6,3,1,0,0,0,0,0,0,0,0,0,0,0,0,0,1,117,space,7.870902099999512,None,0,0,0.924175699999978,None,space,3.1216622000001735,None,0,0,0,0,,,,,3,6,30,3,201.7198623000004,,,,,,,,,,,,,,,,,,,,,201.70421480000005,201.7198623000004,202.20366560000002,202.20840109999972,202.2243322000004,203.15411800000038,,,,,203.15431400000034,203.1693218999999,203.36944529999982,203.35331620000034,202.2243322000004,,,,,,,,0,0,0.924175699999978,None,,,,,,,,805,22,M,R,2026-02-18_12h13.42.712,VisualSearch_2526_3,,2025.2.4,2026-02-18 12h13.42.903195 +0100,
tilted.xlsx,The target is tilted.,117,31,7,3,0,0,0,0,0,0,0,0,0,0,0,0,1,1,1,117,space,7.870902099999512,None,0,1,1.2115903000003527,None,space,3.1216622000001735,None,0,0,0,0,,,,,3,7,31,7,203.36944529999982,,,,,,,,,,,,,,,,,,,,,203.35405890000038,203.36944529999982,203.85360349999974,203.85827599999993,203.8732828000002,205.08682500000032,,,,,205.0869874,205.10237849999976,205.30282480000005,205.28672030000052,203.8732828000002,,,,,,,,0,1,1.2115903000003527,None,,,,,,,,805,22,M,R,2026-02-18_12h13.42.712,VisualSearch_2526_3,,2025.2.4,2026-02-18 12h13.42.903195 +0100,
tilted.xlsx,The target is tilted.,117,32,0,4,0,1,1,1,1,1,1,1,1,1,1,1,1,11,12,117,space,7.870902099999512,None,1,0,2.7805775999995603,None,space,3.1216622000001735,None,0,0,0,0,,,,,4,0,32,4,205.30282480000005,,,,,,,,,,,,,,,,,,,,,205.28745849999996,205.30282480000005,205.78671209999993,205.79155809999975,205.8068800000001,208.60309250000046,,,,,208.60330239999985,208.61861920000047,208.8190628000002,208.80278569999973,205.8068800000001,,,,,,,,1,0,2.7805775999995603,None,,,,,,,,805,22,M,R,2026-02-18_12h13.42.712,VisualSearch_2526_3,,2025.2.4,2026-02-18 12h13.42.903195 +0100,
tilted.xlsx,The target is tilted.,117,33,1,4,0,1,1,1,1,1,1,1,0,0,0,0,1,7,8,117,space,7.870902099999512,None,1,0,2.6752017999997406,None,space,3.1216622000001735,None,0,0,0,0,,,,,4,1,33,5,208.8190628000002,,,,,,,,,,,,,,,,,,,,,208.8035292000004,208.8190628000002,209.30280910000056,209.3075026000006,209.3225564000004,212.00292760000048,,,,,212.00314979999985,212.01806300000044,212.21847650000018,212.20232469999974,209.3225564000004,,,,,,,,1,0,2.6752017999997406,None,,,,,,,,805,22,M,R,2026-02-18_12h13.42.712,VisualSearch_2526_3,,2025.2.4,2026-02-18 12h13.42.903195 +0100,
tilted.xlsx,The target is tilted.,117,34,2,4,0,0,0,0,0,0,0,0,0,0,0,0,1,1,1,117,space,7.870902099999512,None,0,1,0.5859097000002293,None,space,3.1216622000001735,None,0,0,0,0,,,,,4,2,34,7,212.21847650000018,,,,,,,,,,,,,,,,,,,,,212.20307670000057,212.21847650000018,212.70230009999977,212.7066120999998,212.71839770000042,213.31887199999983,,,,,213.31900450000012,213.33429249999972,213.53504200000043,213.51889370000026,212.71839770000042,,,,,,,,0,1,0.5859097000002293,None,,,,,,,,805,22,M,R,2026-02-18_12h13.42.712,VisualSearch_2526_3,,2025.2.4,2026-02-18 12h13.42.903195 +0100,
tilted.xlsx,The target is tilted.,117,35,3,4,1,0,0,0,0,0,0,0,0,0,0,0,0,0,1,117,space,7.870902099999512,None,0,0,0.722162500000195,None,space,3.1216622000001735,None,0,0,0,0,,,,,4,3,35,3,213.53504200000043,,,,,,,,,,,,,,,,,,,,,213.51961660000052,213.53504200000043,214.01828980000028,214.02026800000021,214.0347470000006,214.76921459999994,,,,,214.7694105999999,214.78434939999988,214.98490310000034,214.96868069999982,214.0347470000006,,,,,,,,0,0,0.722162500000195,None,,,,,,,,805,22,M,R,2026-02-18_12h13.42.712,VisualSearch_2526_3,,2025.2.4,2026-02-18 12h13.42.903195 +0100,
tilted.xlsx,The target is tilted.,117,36,4,4,1,1,1,1,1,1,1,1,1,1,1,1,0,11,12,117,space,7.870902099999512,None,1,1,6.03247040000042,None,space,3.1216622000001735,None,0,0,0,0,,,,,4,4,36,0,214.98490310000034,,,,,,,,,,,,,,,,,,,,,214.96942219999983,214.98490310000034,215.46877740000036,215.4739823,215.48896500000046,221.53437050000048,,,,,221.5346227,221.5500501000006,221.75033090000034,221.7345353999999,215.48896500000046,,,,,,,,1,1,6.03247040000042,None,,,,,,,,805,22,M,R,2026-02-18_12h13.42.712,VisualSearch_2526_3,,2025.2.4,2026-02-18 12h13.42.903195 +0100,
tilted.xlsx,The target is tilted.,117,37,5,4,1,1,1,1,0,0,0,0,0,0,0,0,0,3,4,117,space,7.870902099999512,None,0,0,3.41658869999992,None,space,3.1216622000001735,None,0,0,0,0,,,,,4,5,37,2,221.75033090000034,,,,,,,,,,,,,,,,,,,,,221.73538840000037,221.75033090000034,222.23453470000004,222.23984819999987,222.25509340000008,225.6839460000001,,,,,225.68414949999988,225.69945030000054,225.89998350000042,225.8839607,222.25509340000008,,,,,,,,0,0,3.41658869999992,None,,,,,,,,805,22,M,R,2026-02-18_12h13.42.712,VisualSearch_2526_3,,2025.2.4,2026-02-18 12h13.42.903195 +0100,
tilted.xlsx,The target is tilted.,117,38,6,4,1,1,1,1,1,1,1,1,0,0,0,0,0,7,8,117,space,7.870902099999512,None,1,1,4.8972499999999854,None,space,3.1216622000001735,None,0,0,0,0,,,,,4,6,38,1,225.89998350000042,,,,,,,,,,,,,,,,,,,,,225.8847697000001,225.89998350000042,226.38379650000024,226.38819650000005,226.3997334000005,231.30024400000002,,,,,231.30042419999972,231.31534120000015,231.5158610999997,231.49975330000052,226.3997334000005,,,,,,,,1,1,4.8972499999999854,None,,,,,,,,805,22,M,R,2026-02-18_12h13.42.712,VisualSearch_2526_3,,2025.2.4,2026-02-18 12h13.42.903195 +0100,
tilted.xlsx,The target is tilted.,117,39,7,4,0,1,1,1,0,0,0,0,0,0,0,0,1,3,4,117,space,7.870902099999512,None,0,1,2.510884899999837,None,space,3.1216622000001735,None,0,0,0,0,,,,,4,7,39,6,231.5158610999997,,,,,,,,,,,,,,,,,,,,,231.50048210000023,231.5158610999997,231.99960910000027,232.00416270000005,232.02123149999989,234.54926720000003,,,,,234.54948380000042,234.5649100999999,234.7652192000005,234.74925110000004,232.02123149999989,,,,,,,,0,1,2.510884899999837,None,,,,,,,,805,22,M,R,2026-02-18_12h13.42.712,VisualSearch_2526_3,,2025.2.4,2026-02-18 12h13.42.903195 +0100,
tilted.xlsx,The target is tilted.,117,40,0,5,0,1,1,1,0,0,0,0,0,0,0,0,1,3,4,117,space,7.870902099999512,None,0,1,1.108950800000457,None,space,3.1216622000001735,None,0,0,0,0,,,,,5,0,40,6,234.7652192000005,,,,,,,,,,,,,,,,,,,,,234.74997580000036,234.7652192000005,235.24920870000005,235.25381449999986,235.26888830000007,236.38257440000052,,,,,236.38273370000024,236.3979331999999,236.59836689999975,236.5822565999997,235.26888830000007,,,,,,,,0,1,1.108950800000457,None,,,,,,,,805,22,M,R,2026-02-18_12h13.42.712,VisualSearch_2526_3,,2025.2.4,2026-02-18 12h13.42.903195 +0100,
tilted.xlsx,The target is tilted.,117,41,1,5,0,1,1,1,1,1,1,1,0,0,0,0,1,7,8,117,space,7.870902099999512,None,0,1,3.3051181000000724,None,space,3.1216622000001735,None,0,0,0,0,,,,,5,1,41,5,236.59836689999975,,,,,,,,,,,,,,,,,,,,,236.58303090000027,236.59836689999975,237.08211630000005,237.08664730000055,237.10508519999985,240.41565739999987,,,,,240.41586869999992,240.43080499999996,240.63115190000008,240.61505600000055,237.10508519999985,,,,,,,,0,1,3.3051181000000724,None,,,,,,,,805,22,M,R,2026-02-18_12h13.42.712,VisualSearch_2526_3,,2025.2.4,2026-02-18 12h13.42.903195 +0100,
tilted.xlsx,The target is tilted.,117,42,2,5,1,1,1,1,0,0,0,0,0,0,0,0,0,3,4,117,space,7.870902099999512,None,0,0,1.8796949999996286,None,space,3.1216622000001735,None,0,0,0,0,,,,,5,2,42,2,240.63115190000008,,,,,,,,,,,,,,,,,,,,,240.61584250000033,240.63115190000008,241.1149845,241.11971770000036,241.13579630000004,243.0309087000005,,,,,243.03104900000017,243.04727040000034,243.24748950000048,243.23113410000042,241.13579630000004,,,,,,,,0,0,1.8796949999996286,None,,,,,,,,805,22,M,R,2026-02-18_12h13.42.712,VisualSearch_2526_3,,2025.2.4,2026-02-18 12h13.42.903195 +0100,
tilted.xlsx,The target is tilted.,117,43,3,5,0,1,1,1,1,1,1,1,1,1,1,1,1,11,12,117,space,7.870902099999512,None,1,0,3.2094896000007793,None,space,3.1216622000001735,None,0,0,0,0,,,,,5,3,43,4,243.24748950000048,,,,,,,,,,,,,,,,,,,,,243.2318903000005,243.24748950000048,243.73111059999974,243.73589170000014,243.75086629999987,246.96414670000013,,,,,246.96432360000017,246.9798112999997,247.17996229999972,247.16418990000057,243.75086629999987,,,,,,,,1,0,3.2094896000007793,None,,,,,,,,805,22,M,R,2026-02-18_12h13.42.712,VisualSearch_2526_3,,2025.2.4,2026-02-18 12h13.42.903195 +0100,
tilted.xlsx,The target is tilted.,117,44,4,5,1,0,0,0,0,0,0,0,0,0,0,0,0,0,1,117,space,7.870902099999512,None,0,0,2.386131299999761,None,space,3.1216622000001735,None,0,0,0,0,,,,,5,4,44,3,247.17996229999972,,,,,,,,,,,,,,,,,,,,,247.16494049999983,247.17996229999972,247.66412769999988,247.6689019000005,247.6843770000005,250.07958640000015,,,,,250.07965109999986,250.09572089999983,,250.28046470000027,247.6843770000005,,,,,,,,0,0,2.386131299999761,None,,,,,,,,805,22,M,R,2026-02-18_12h13.42.712,VisualSearch_2526_3,,2025.2.4,2026-02-18 12h13.42.903195 +0100,
tilted.xlsx,The target is tilted.,117,45,5,5,0,0,0,0,0,0,0,0,0,0,0,0,1,1,1,117,space,7.870902099999512,None,0,1,0.5511566999994102,None,space,3.1216622000001735,None,0,0,0,0,,,,,5,5,45,7,250.2966618999999,,,,,,,,,,,,,,,,,,,,,250.2813339000004,250.2966618999999,250.7800825000004,250.78480860000036,250.8000165000003,251.36351699999977,,,,,251.36372800000026,251.37909519999994,251.57924129999992,251.5630452000005,,,,,,,,,0,1,0.5511566999994102,None,,,,,,,,805,22,M,R,2026-02-18_12h13.42.712,VisualSearch_2526_3,,2025.2.4,2026-02-18 12h13.42.903195 +0100,
tilted.xlsx,The target is tilted.,117,46,6,5,1,1,1,1,1,1,1,1,1,1,1,1,0,11,12,117,space,7.870902099999512,None,0,0,5.100490300000274,None,space,3.1216622000001735,None,0,0,0,0,,,,,5,6,46,0,251.57924129999992,,,,,,,,,,,,,,,,,,,,,251.56377820000034,251.57924129999992,252.0636695000003,252.0686327000003,252.08544080000047,257.1966355000004,,,,,257.19683840000016,257.21171090000007,257.4119122000002,257.39635830000043,252.08544080000047,,,,,,,,0,0,5.100490300000274,None,,,,,,,,805,22,M,R,2026-02-18_12h13.42.712,VisualSearch_2526_3,,2025.2.4,2026-02-18 12h13.42.903195 +0100,
tilted.xlsx,The target is tilted.,117,47,7,5,1,1,1,1,1,1,1,1,0,0,0,0,0,7,8,117,space,7.870902099999512,None,1,1,4.220099000000118,None,space,3.1216622000001735,None,0,0,0,0,,,,,5,7,47,1,257.4119122000002,,,,,,,,,,,,,,,,,,,,,257.3972414,257.4119122000002,257.89606040000035,257.9006962000003,257.9118911000005,262.14535930000056,,,,,262.14557479999985,262.16101210000033,262.36117060000015,262.34524599999986,257.9118911000005,,,,,,,,1,1,4.220099000000118,None,,,,,,,,805,22,M,R,2026-02-18_12h13.42.712,VisualSearch_2526_3,,2025.2.4,2026-02-18 12h13.42.903195 +0100,
tilted.xlsx,The target is tilted.,117,48,0,6,1,1,1,1,0,0,0,0,0,0,0,0,0,3,4,117,space,7.870902099999512,None,0,0,0.8720978000001196,None,space,3.1216622000001735,None,0,0,0,0,,,,,6,0,48,2,262.36117060000015,,,,,,,,,,,,,,,,,,,,,262.3460273999999,262.36117060000015,262.84489680000024,262.84965379999994,262.8654435999997,263.7454968000002,,,,,263.74569340000016,263.7607730999998,263.9608616000005,263.9447420000006,262.8654435999997,,,,,,,,0,0,0.8720978000001196,None,,,,,,,,805,22,M,R,2026-02-18_12h13.42.712,VisualSearch_2526_3,,2025.2.4,2026-02-18 12h13.42.903195 +0100,
tilted.xlsx,The target is tilted.,117,49,1,6,0,0,0,0,0,0,0,0,0,0,0,0,1,1,1,117,space,7.870902099999512,None,0,1,0.5577284000000873,None,space,3.1216622000001735,None,0,0,0,0,,,,,6,1,49,7,263.9608616000005,,,,,,,,,,,,,,,,,,,,,263.9454783000001,263.9608616000005,264.4450695000005,264.44972400000006,264.46502190000047,265.0287545000001,,,,,265.0289474000001,265.0439253000004,265.24431300000015,265.2282494000001,264.46502190000047,,,,,,,,0,1,0.5577284000000873,None,,,,,,,,805,22,M,R,2026-02-18_12h13.42.712,VisualSearch_2526_3,,2025.2.4,2026-02-18 12h13.42.903195 +0100,
tilted.xlsx,The target is tilted.,117,50,2,6,1,1,1,1,1,1,1,1,1,1,1,1,0,11,12,117,space,7.870902099999512,None,1,1,1.8466416000001118,None,space,3.1216622000001735,None,0,0,0,0,,,,,6,2,50,0,265.24431300000015,,,,,,,,,,,,,,,,,,,,,265.22894989999986,265.24431300000015,265.72796449999987,265.73310279999987,265.74787650000053,267.61105899999984,,,,,267.6112247000001,267.62685020000026,267.8273071000003,267.8109998,265.74787650000053,,,,,,,,1,1,1.8466416000001118,None,,,,,,,,805,22,M,R,2026-02-18_12h13.42.712,VisualSearch_2526_3,,2025.2.4,2026-02-18 12h13.42.903195 +0100,
tilted.xlsx,The target is tilted.,117,51,3,6,0,1,1,1,0,0,0,0,0,0,0,0,1,3,4,117,space,7.870902099999512,None,0,1,1.0617794999998296,None,space,3.1216622000001735,None,0,0,0,0,,,,,6,3,51,6,267.8273071000003,,,,,,,,,,,,,,,,,,,,,267.8117404000004,267.8273071000003,268.31079620000037,268.3154682000004,268.32836880000013,269.3940747000006,,,,,269.39421850000053,269.4098802999997,269.6100501000001,269.5942372999998,268.32836880000013,,,,,,,,0,1,1.0617794999998296,None,,,,,,,,805,22,M,R,2026-02-18_12h13.42.712,VisualSearch_2526_3,,2025.2.4,2026-02-18 12h13.42.903195 +0100,
tilted.xlsx,The target is tilted.,117,52,4,6,1,0,0,0,0,0,0,0,0,0,0,0,0,0,1,117,space,7.870902099999512,None,0,0,0.6178571999998894,None,space,3.1216622000001735,None,0,0,0,0,,,,,6,4,52,3,269.6100501000001,,,,,,,,,,,,,,,,,,,,,269.5950356000003,269.6100501000001,270.09421010000005,270.09868819999974,270.1098206000006,270.7442523999998,,,,,270.7444556999999,270.75973799999974,270.9598510000005,270.9440446999997,270.1098206000006,,,,,,,,0,0,0.6178571999998894,None,,,,,,,,805,22,M,R,2026-02-18_12h13.42.712,VisualSearch_2526_3,,2025.2.4,2026-02-18 12h13.42.903195 +0100,
tilted.xlsx,The target is tilted.,117,53,5,6,1,1,1,1,1,1,1,1,0,0,0,0,0,7,8,117,space,7.870902099999512,None,1,1,2.290377699999226,None,space,3.1216622000001735,None,0,0,0,0,,,,,6,5,53,1,270.9598510000005,,,,,,,,,,,,,,,,,,,,,270.9448076999997,270.9598510000005,271.4440648,271.44868700000006,271.4640737,273.7609418000002,,,,,273.76114099999995,273.7759452,273.9765143000004,273.9598857000001,271.4640737,,,,,,,,1,1,2.290377699999226,None,,,,,,,,805,22,M,R,2026-02-18_12h13.42.712,VisualSearch_2526_3,,2025.2.4,2026-02-18 12h13.42.903195 +0100,
tilted.xlsx,The target is tilted.,117,54,6,6,0,1,1,1,1,1,1,1,0,0,0,0,1,7,8,117,space,7.870902099999512,None,1,0,3.48228139999992,None,space,3.1216622000001735,None,0,0,0,0,,,,,6,6,54,5,273.9765143000004,,,,,,,,,,,,,,,,,,,,,273.9606405000004,273.9765143000004,274.45990320000055,274.4645264999999,274.47740410000006,277.97630930000014,,,,,277.9765091999998,277.9920020999998,278.1921460000003,278.1760720000002,274.47740410000006,,,,,,,,1,0,3.48228139999992,None,,,,,,,,805,22,M,R,2026-02-18_12h13.42.712,VisualSearch_2526_3,,2025.2.4,2026-02-18 12h13.42.903195 +0100,
tilted.xlsx,The target is tilted.,117,55,7,6,0,1,1,1,1,1,1,1,1,1,1,1,1,11,12,117,space,7.870902099999512,None,1,0,3.8513316999997187,None,space,3.1216622000001735,None,0,0,0,0,,,,,6,7,55,4,278.1921460000003,,,,,,,,,,,,,,,,,,,,,278.1768259999999,278.1921460000003,278.6766034000002,278.68187279999984,278.6962405000004,282.5596168000002,,,,,282.55981169999995,282.57475280000017,282.7752486999998,282.7592741999997,278.6962405000004,,,,,,,,1,0,3.8513316999997187,None,,,,,,,,805,22,M,R,2026-02-18_12h13.42.712,VisualSearch_2526_3,,2025.2.4,2026-02-18 12h13.42.903195 +0100,
tilted.xlsx,The target is tilted.,117,56,0,7,0,1,1,1,1,1,1,1,1,1,1,1,1,11,12,117,space,7.870902099999512,None,0,1,5.216594399999849,None,space,3.1216622000001735,None,0,0,0,0,,,,,7,0,56,4,282.7752486999998,,,,,,,,,,,,,,,,,,,,,282.7600002999998,282.7752486999998,283.25922510000055,283.2642894999999,283.2787274000002,288.5077955000006,,,,,288.5079362000006,288.5238513000004,,288.7081747000002,283.2787274000002,,,,,,,,0,1,5.216594399999849,None,,,,,,,,805,22,M,R,2026-02-18_12h13.42.712,VisualSearch_2526_3,,2025.2.4,2026-02-18 12h13.42.903195 +0100,
tilted.xlsx,The target is tilted.,117,57,1,7,0,1,1,1,1,1,1,1,0,0,0,0,1,7,8,117,space,7.870902099999512,None,1,0,4.1374212000000625,None,space,3.1216622000001735,None,0,0,0,0,,,,,7,1,57,5,288.7240174999997,,,,,,,,,,,,,,,,,,,,,288.70899740000004,288.7240174999997,289.20776399999977,289.2097064999998,289.22413289999986,293.37420310000016,,,,,293.3744383000003,293.3899252000001,293.58998750000046,293.5737178999998,289.22413289999986,,,,,,,,1,0,4.1374212000000625,None,,,,,,,,805,22,M,R,2026-02-18_12h13.42.712,VisualSearch_2526_3,,2025.2.4,2026-02-18 12h13.42.903195 +0100,
tilted.xlsx,The target is tilted.,117,58,2,7,0,0,0,0,0,0,0,0,0,0,0,0,1,1,1,117,space,7.870902099999512,None,0,1,0.5728333999995812,None,space,3.1216622000001735,None,0,0,0,0,,,,,7,2,58,7,293.58998750000046,,,,,,,,,,,,,,,,,,,,,293.57444850000047,293.58998750000046,294.0739362000004,294.07921030000034,294.09471250000024,294.67467899999974,,,,,294.6748797,294.68958100000054,294.88973820000047,294.87372440000036,294.09471250000024,,,,,,,,0,1,0.5728333999995812,None,,,,,,,,805,22,M,R,2026-02-18_12h13.42.712,VisualSearch_2526_3,,2025.2.4,2026-02-18 12h13.42.903195 +0100,
tilted.xlsx,The target is tilted.,117,59,3,7,1,0,0,0,0,0,0,0,0,0,0,0,0,0,1,117,space,7.870902099999512,None,0,0,0.8281074000005901,None,space,3.1216622000001735,None,0,0,0,0,,,,,7,3,59,3,294.88973820000047,,,,,,,,,,,,,,,,,,,,,294.87446050000017,294.88973820000047,295.3739341999999,295.37903019999976,295.3959501999998,296.24051580000014,,,,,296.2406959,296.2561575999998,296.4566272000002,296.4404585000002,295.3959501999998,,,,,,,,0,0,0.8281074000005901,None,,,,,,,,805,22,M,R,2026-02-18_12h13.42.712,VisualSearch_2526_3,,2025.2.4,2026-02-18 12h13.42.903195 +0100,
tilted.xlsx,The target is tilted.,117,60,4,7,0,1,1,1,0,0,0,0,0,0,0,0,1,3,4,117,space,7.870902099999512,None,0,1,2.3619713999996748,None,space,3.1216622000001735,None,0,0,0,0,,,,,7,4,60,6,296.4566272000002,,,,,,,,,,,,,,,,,,,,,296.44128660000024,296.4566272000002,296.9404209000004,296.9450361999998,296.96074839999983,299.3401076,,,,,299.3403158000001,299.3557040000005,299.5563299000005,299.54031399999985,296.96074839999983,,,,,,,,0,1,2.3619713999996748,None,,,,,,,,805,22,M,R,2026-02-18_12h13.42.712,VisualSearch_2526_3,,2025.2.4,2026-02-18 12h13.42.903195 +0100,
tilted.xlsx,The target is tilted.,117,61,5,7,1,1,1,1,1,1,1,1,0,0,0,0,0,7,8,117,space,7.870902099999512,None,1,1,1.568839200000184,None,space,3.1216622000001735,None,0,0,0,0,,,,,7,5,61,1,299.5563299000005,,,,,,,,,,,,,,,,,,,,,299.5411420999999,299.5563299000005,300.03986299999997,300.0444679000002,300.0576679000005,301.6392974999999,,,,,301.6394306000002,301.6553214000005,,301.8396128000004,300.0576679000005,,,,,,,,1,1,1.568839200000184,None,,,,,,,,805,22,M,R,2026-02-18_12h13.42.712,VisualSearch_2526_3,,2025.2.4,2026-02-18 12h13.42.903195 +0100,
tilted.xlsx,The target is tilted.,117,62,6,7,1,1,1,1,1,1,1,1,1,1,1,1,0,11,12,117,space,7.870902099999512,None,0,0,3.477919099999781,None,space,3.1216622000001735,None,0,0,0,0,,,,,7,6,62,0,301.8559344000005,,,,,,,,,,,,,,,,,,,,,301.8404145000004,301.8559344000005,302.33958640000037,302.3446260999999,302.3594821000006,305.8396220000004,,,,,305.8398213999999,305.85482649999994,306.0552910000006,306.0392864000005,,,,,,,,,0,0,3.477919099999781,None,,,,,,,,805,22,M,R,2026-02-18_12h13.42.712,VisualSearch_2526_3,,2025.2.4,2026-02-18 12h13.42.903195 +0100,
tilted.xlsx,The target is tilted.,117,63,7,7,1,1,1,1,0,0,0,0,0,0,0,0,0,3,4,117,space,7.870902099999512,None,0,0,2.192793100000017,None,space,3.1216622000001735,None,0,0,0,0,,,,,7,7,63,2,306.0552910000006,,,,,,,,,,,,,,,,,,,,,306.04010000000017,306.0552910000006,306.53900799999974,306.5437644000003,306.56100940000033,308.7561751000003,,,,,308.75641929999983,308.77101779999975,308.9716301999997,308.9555371000006,306.56100940000033,,,,,,,,0,0,2.192793100000017,None,,,,,,,,805,22,M,R,2026-02-18_12h13.42.712,VisualSearch_2526_3,,2025.2.4,2026-02-18 12h13.42.903195 +0100,
tilted.xlsx,The target is tilted.,117,64,0,8,1,1,1,1,1,1,1,1,0,0,0,0,0,7,8,117,space,7.870902099999512,None,1,1,2.2652130000005855,None,space,3.1216622000001735,None,0,0,0,0,,,,,8,0,64,1,308.9716301999997,,,,,,,,,,,,,,,,,,,,,308.9567469000003,308.9716301999997,309.4554435,309.4603508,309.47368710000046,311.7548299,,,,,311.7550282000002,311.7706132000003,311.9709087000001,311.9546762,309.47368710000046,,,,,,,,1,1,2.2652130000005855,None,,,,,,,,805,22,M,R,2026-02-18_12h13.42.712,VisualSearch_2526_3,,2025.2.4,2026-02-18 12h13.42.903195 +0100,
tilted.xlsx,The target is tilted.,117,65,1,8,0,1,1,1,0,0,0,0,0,0,0,0,1,3,4,117,space,7.870902099999512,None,0,1,1.5314441999998962,None,space,3.1216622000001735,None,0,0,0,0,,,,,8,1,65,6,311.9709087000001,,,,,,,,,,,,,,,,,,,,,311.95549070000015,311.9709087000001,312.45505070000036,312.45998430000054,312.47465569999986,314.0213727999999,,,,,314.02157009999974,314.0369308999998,314.2370258000001,314.22119660000044,312.47465569999986,,,,,,,,0,1,1.5314441999998962,None,,,,,,,,805,22,M,R,2026-02-18_12h13.42.712,VisualSearch_2526_3,,2025.2.4,2026-02-18 12h13.42.903195 +0100,
tilted.xlsx,The target is tilted.,117,66,2,8,1,1,1,1,0,0,0,0,0,0,0,0,0,3,4,117,space,7.870902099999512,None,0,0,1.4099389000002702,None,space,3.1216622000001735,None,0,0,0,0,,,,,8,2,66,2,314.2370258000001,,,,,,,,,,,,,,,,,,,,,314.22201790000054,314.2370258000001,314.7207478999999,314.72343939999973,314.73727830000007,316.15491310000016,,,,,316.15510749999976,316.1699569000002,316.37047820000043,316.35404240000025,314.73727830000007,,,,,,,,0,0,1.4099389000002702,None,,,,,,,,805,22,M,R,2026-02-18_12h13.42.712,VisualSearch_2526_3,,2025.2.4,2026-02-18 12h13.42.903195 +0100,
tilted.xlsx,The target is tilted.,117,67,3,8,0,0,0,0,0,0,0,0,0,0,0,0,1,1,1,117,space,7.870902099999512,None,0,1,0.6575052999996842,None,space,3.1216622000001735,None,0,0,0,0,,,,,8,3,67,7,316.37047820000043,,,,,,,,,,,,,,,,,,,,,316.3547725999997,316.37047820000043,316.8543354000003,316.85922070000015,316.87441450000006,317.53743699999995,,,,,317.5376053,317.55296160000034,317.7531890999999,317.7370486,316.87441450000006,,,,,,,,0,1,0.6575052999996842,None,,,,,,,,805,22,M,R,2026-02-18_12h13.42.712,VisualSearch_2526_3,,2025.2.4,2026-02-18 12h13.42.903195 +0100,
tilted.xlsx,The target is tilted.,117,68,4,8,0,1,1,1,1,1,1,1,1,1,1,1,1,11,12,117,space,7.870902099999512,None,1,0,3.0219544999999925,None,space,3.1216622000001735,None,0,0,0,0,,,,,8,4,68,4,317.7531890999999,,,,,,,,,,,,,,,,,,,,,317.7377975999998,317.7531890999999,318.23736629999985,318.2420090000005,318.2553802000002,321.2875224999998,,,,,321.28771510000024,321.30261260000043,321.50306660000024,321.48689790000026,318.2553802000002,,,,,,,,1,0,3.0219544999999925,None,,,,,,,,805,22,M,R,2026-02-18_12h13.42.712,VisualSearch_2526_3,,2025.2.4,2026-02-18 12h13.42.903195 +0100,
tilted.xlsx,The target is tilted.,117,69,5,8,1,1,1,1,1,1,1,1,1,1,1,1,0,11,12,117,space,7.870902099999512,None,1,1,3.277524099999937,None,space,3.1216622000001735,None,0,0,0,0,,,,,8,5,69,0,321.50306660000024,,,,,,,,,,,,,,,,,,,,,321.4876710999997,321.50306660000024,321.9869384000003,321.99152049999975,322.00653710000006,325.2868172999997,,,,,325.28694799999994,325.3019538999997,325.5024801999998,325.4863642,322.00653710000006,,,,,,,,1,1,3.277524099999937,None,,,,,,,,805,22,M,R,2026-02-18_12h13.42.712,VisualSearch_2526_3,,2025.2.4,2026-02-18 12h13.42.903195 +0100,
tilted.xlsx,The target is tilted.,117,70,6,8,1,0,0,0,0,0,0,0,0,0,0,0,0,0,1,117,space,7.870902099999512,None,0,0,0.7568702999997186,None,space,3.1216622000001735,None,0,0,0,0,,,,,8,6,70,3,325.5024801999998,,,,,,,,,,,,,,,,,,,,,325.4871456000001,325.5024801999998,325.9862228000002,325.99066889999995,326.0078609000002,326.7697562000003,,,,,326.76991460000045,326.78516409999975,326.98535360000005,326.96917589999975,326.0078609000002,,,,,,,,0,0,0.7568702999997186,None,,,,,,,,805,22,M,R,2026-02-18_12h13.42.712,VisualSearch_2526_3,,2025.2.4,2026-02-18 12h13.42.903195 +0100,
tilted.xlsx,The target is tilted.,117,71,7,8,0,1,1,1,1,1,1,1,0,0,0,0,1,7,8,117,space,7.870902099999512,None,1,0,2.7200573999998596,None,space,3.1216622000001735,None,0,0,0,0,,,,,8,7,71,5,326.98535360000005,,,,,,,,,,,,,,,,,,,,,326.9698921999998,326.98535360000005,327.46959760000027,327.47437210000044,327.48550760000035,330.2189905000005,,,,,330.2192122000006,330.2346402000003,330.43516999999974,330.41900780000014,327.48550760000035,,,,,,,,1,0,2.7200573999998596,None,,,,,,,,805,22,M,R,2026-02-18_12h13.42.712,VisualSearch_2526_3,,2025.2.4,2026-02-18 12h13.42.903195 +0100,
tilted.xlsx,The target is tilted.,117,72,0,9,0,1,1,1,1,1,1,1,0,0,0,0,1,7,8,117,space,7.870902099999512,None,1,0,2.062022799999795,None,space,3.1216622000001735,None,0,0,0,0,,,,,9,0,72,5,330.43516999999974,,,,,,,,,,,,,,,,,,,,,330.41972910000004,330.43516999999974,330.9189414000002,330.9233180000001,330.9349286000006,333.00247149999996,,,,,333.00267630000053,333.0177754000006,333.2178571000004,333.2021970000005,330.9349286000006,,,,,,,,1,0,2.062022799999795,None,,,,,,,,805,22,M,R,2026-02-18_12h13.42.712,VisualSearch_2526_3,,2025.2.4,2026-02-18 12h13.42.903195 +0100,
tilted.xlsx,The target is tilted.,117,73,1,9,1,1,1,1,1,1,1,1,1,1,1,1,0,11,12,117,space,7.870902099999512,None,1,1,3.6678124000000025,None,space,3.1216622000001735,None,0,0,0,0,,,,,9,1,73,0,333.2178571000004,,,,,,,,,,,,,,,,,,,,,333.20309,333.2178571000004,333.7013334000003,333.7059737999998,333.71835569999985,337.40136859999984,,,,,337.4015605000004,337.4170046999998,337.61750219999976,337.6012795000006,333.71835569999985,,,,,,,,1,1,3.6678124000000025,None,,,,,,,,805,22,M,R,2026-02-18_12h13.42.712,VisualSearch_2526_3,,2025.2.4,2026-02-18 12h13.42.903195 +0100,
tilted.xlsx,The target is tilted.,117,74,2,9,0,1,1,1,1,1,1,1,1,1,1,1,1,11,12,117,space,7.870902099999512,None,0,1,3.543906999999308,None,space,3.1216622000001735,None,0,0,0,0,,,,,9,2,74,4,337.61750219999976,,,,,,,,,,,,,,,,,,,,,337.60212969999975,337.61750219999976,338.10121770000023,338.1057520000004,338.12220479999996,341.6671145999999,,,,,341.66719900000044,341.6828135000005,341.88343350000014,341.86733340000046,338.12220479999996,,,,,,,,0,1,3.543906999999308,None,,,,,,,,805,22,M,R,2026-02-18_12h13.42.712,VisualSearch_2526_3,,2025.2.4,2026-02-18 12h13.42.903195 +0100,
tilted.xlsx,The target is tilted.,117,75,3,9,0,0,0,0,0,0,0,0,0,0,0,0,1,1,1,117,space,7.870902099999512,None,0,1,0.7149216000007073,None,space,3.1216622000001735,None,0,0,0,0,,,,,9,3,75,7,341.88343350000014,,,,,,,,,,,,,,,,,,,,,341.86807450000015,341.88343350000014,342.3675467000003,342.3723553,342.3833658000003,343.10080689999995,,,,,343.1009967,343.1161936999997,343.3167891000003,343.3004901000004,342.3833658000003,,,,,,,,0,1,0.7149216000007073,None,,,,,,,,805,22,M,R,2026-02-18_12h13.42.712,VisualSearch_2526_3,,2025.2.4,2026-02-18 12h13.42.903195 +0100,
tilted.xlsx,The target is tilted.,117,76,4,9,1,1,1,1,1,1,1,1,0,0,0,0,0,7,8,117,space,7.870902099999512,None,1,1,3.6212445999999545,None,space,3.1216622000001735,None,0,0,0,0,,,,,9,4,76,1,343.3167891000003,,,,,,,,,,,,,,,,,,,,,343.30129790000046,343.3167891000003,343.80048669999996,343.80486720000044,343.81647729999986,347.4505145000003,,,,,347.4507051999999,347.46556169999985,347.6661388000002,347.650173,343.81647729999986,,,,,,,,1,1,3.6212445999999545,None,,,,,,,,805,22,M,R,2026-02-18_12h13.42.712,VisualSearch_2526_3,,2025.2.4,2026-02-18 12h13.42.903195 +0100,
tilted.xlsx,The target is tilted.,117,77,5,9,1,1,1,1,0,0,0,0,0,0,0,0,0,3,4,117,space,7.870902099999512,None,0,0,1.7057082000001174,None,space,3.1216622000001735,None,0,0,0,0,,,,,9,5,77,2,347.6661388000002,,,,,,,,,,,,,,,,,,,,,347.65100600000005,347.6661388000002,348.1498423000003,348.1543263000003,348.16991320000034,349.8831498999998,,,,,349.88334230000055,349.89855929999976,350.09865230000014,350.0825523000003,348.16991320000034,,,,,,,,0,0,1.7057082000001174,None,,,,,,,,805,22,M,R,2026-02-18_12h13.42.712,VisualSearch_2526_3,,2025.2.4,2026-02-18 12h13.42.903195 +0100,
tilted.xlsx,The target is tilted.,117,78,6,9,1,0,0,0,0,0,0,0,0,0,0,0,0,0,1,117,space,7.870902099999512,None,0,0,0.6645490000000791,None,space,3.1216622000001735,None,0,0,0,0,,,,,9,6,78,3,350.09865230000014,,,,,,,,,,,,,,,,,,,,,350.0833012000003,350.09865230000014,350.58264190000045,350.5871380999997,350.6042118000005,351.2827106000004,,,,,351.28290319999996,351.29832369999986,351.4986398000001,351.4825731000001,350.6042118000005,,,,,,,,0,0,0.6645490000000791,None,,,,,,,,805,22,M,R,2026-02-18_12h13.42.712,VisualSearch_2526_3,,2025.2.4,2026-02-18 12h13.42.903195 +0100,
tilted.xlsx,The target is tilted.,117,79,7,9,0,1,1,1,0,0,0,0,0,0,0,0,1,3,4,117,space,7.870902099999512,None,0,1,1.7649440999994113,None,space,3.1216622000001735,None,0,0,0,0,,,,,9,7,79,6,351.4986398000001,,,,,,,,,,,,,,,,,,,,,351.4835339000001,351.4986398000001,351.9827428999997,351.9874619000002,352.00437669999974,353.7822105000005,,,,,353.78241140000046,353.79799939999975,353.9985230000002,353.9823323999999,352.00437669999974,,,,,,,,0,1,1.7649440999994113,None,,,,,,,,805,22,M,R,2026-02-18_12h13.42.712,VisualSearch_2526_3,,2025.2.4,2026-02-18 12h13.42.903195 +0100,
tilted.xlsx,The target is tilted.,117,80,0,10,0,1,1,1,0,0,0,0,0,0,0,0,1,3,4,117,space,7.870902099999512,None,0,1,2.518909200000053,None,space,3.1216622000001735,None,0,0,0,0,,,,,10,0,80,6,353.9985230000002,,,,,,,,,,,,,,,,,,,,,353.9830350000002,353.9985230000002,354.4818802,354.4843458000005,354.4982377000006,357.03185459999986,,,,,357.03208110000014,357.04764720000003,357.2479107999998,357.23153360000015,354.4982377000006,,,,,,,,0,1,2.518909200000053,None,,,,,,,,805,22,M,R,2026-02-18_12h13.42.712,VisualSearch_2526_3,,2025.2.4,2026-02-18 12h13.42.903195 +0100,
tilted.xlsx,The target is tilted.,117,81,1,10,1,1,1,1,1,1,1,1,0,0,0,0,0,7,8,117,space,7.870902099999512,None,0,0,2.454955900000641,None,space,3.1216622000001735,None,0,0,0,0,,,,,10,1,81,1,357.2479107999998,,,,,,,,,,,,,,,,,,,,,357.2322777999998,357.2479107999998,357.7317224999997,357.7364094000004,357.7512222000005,360.2153908,,,,,360.21558730000015,360.23043210000014,360.4307146000001,360.4142201000004,357.7512222000005,,,,,,,,0,0,2.454955900000641,None,,,,,,,,805,22,M,R,2026-02-18_12h13.42.712,VisualSearch_2526_3,,2025.2.4,2026-02-18 12h13.42.903195 +0100,
tilted.xlsx,The target is tilted.,117,82,2,10,1,1,1,1,1,1,1,1,1,1,1,1,0,11,12,117,space,7.870902099999512,None,0,0,0.30134300000008807,None,space,3.1216622000001735,None,0,0,0,0,,,,,10,2,82,0,360.4307146000001,,,,,,,,,,,,,,,,,,,,,360.4148159000006,360.4307146000001,360.9145859,360.9193071999998,360.9345299000006,361.2485059999999,,,,,361.2486945999999,361.2635654000005,361.4640965999997,361.44801629999984,360.9345299000006,,,,,,,,0,0,0.30134300000008807,None,,,,,,,,805,22,M,R,2026-02-18_12h13.42.712,VisualSearch_2526_3,,2025.2.4,2026-02-18 12h13.42.903195 +0100,
tilted.xlsx,The target is tilted.,117,83,3,10,0,1,1,1,1,1,1,1,1,1,1,1,1,11,12,117,space,7.870902099999512,None,0,1,4.7047419999998965,None,space,3.1216622000001735,None,0,0,0,0,,,,,10,3,83,4,361.4640965999997,,,,,,,,,,,,,,,,,,,,,361.4487366000003,361.4640965999997,361.9478288,361.95242099999996,361.96735590000026,366.6810823000005,,,,,366.68127689999983,366.69656870000017,366.89669159999994,366.8804344,361.96735590000026,,,,,,,,0,1,4.7047419999998965,None,,,,,,,,805,22,M,R,2026-02-18_12h13.42.712,VisualSearch_2526_3,,2025.2.4,2026-02-18 12h13.42.903195 +0100,
tilted.xlsx,The target is tilted.,117,84,4,10,1,1,1,1,0,0,0,0,0,0,0,0,0,3,4,117,space,7.870902099999512,None,0,0,1.9424791999999798,None,space,3.1216622000001735,None,0,0,0,0,,,,,10,4,84,2,366.89669159999994,,,,,,,,,,,,,,,,,,,,,366.8812772000001,366.89669159999994,367.3803088000004,367.38484849999986,367.40016170000035,369.34653380000054,,,,,369.3466698000002,369.3627747999999,369.56299450000006,369.54716180000014,367.40016170000035,,,,,,,,0,0,1.9424791999999798,None,,,,,,,,805,22,M,R,2026-02-18_12h13.42.712,VisualSearch_2526_3,,2025.2.4,2026-02-18 12h13.42.903195 +0100,
tilted.xlsx,The target is tilted.,117,85,5,10,0,1,1,1,1,1,1,1,0,0,0,0,1,7,8,117,space,7.870902099999512,None,1,0,1.6923852999998417,None,space,3.1216622000001735,None,0,0,0,0,,,,,10,5,85,5,369.56299450000006,,,,,,,,,,,,,,,,,,,,,369.54798480000045,369.56299450000006,370.0469541000002,370.0514542000001,370.0627473000004,371.76354749999973,,,,,371.7637358000002,371.7789349000004,371.9792613999998,371.96312190000026,370.0627473000004,,,,,,,,1,0,1.6923852999998417,None,,,,,,,,805,22,M,R,2026-02-18_12h13.42.712,VisualSearch_2526_3,,2025.2.4,2026-02-18 12h13.42.903195 +0100,
tilted.xlsx,The target is tilted.,117,86,6,10,1,0,0,0,0,0,0,0,0,0,0,0,0,0,1,117,space,7.870902099999512,None,0,0,0.5825216000002911,None,space,3.1216622000001735,None,0,0,0,0,,,,,10,6,86,3,371.9792613999998,,,,,,,,,,,,,,,,,,,,,371.9639195,371.9792613999998,372.4629982000006,372.46757309999975,372.48348309999983,373.0802217999999,,,,,373.0804100000005,373.0957011999999,373.2957441999997,373.2796677000006,372.48348309999983,,,,,,,,0,0,0.5825216000002911,None,,,,,,,,805,22,M,R,2026-02-18_12h13.42.712,VisualSearch_2526_3,,2025.2.4,2026-02-18 12h13.42.903195 +0100,
tilted.xlsx,The target is tilted.,117,87,7,10,0,0,0,0,0,0,0,0,0,0,0,0,1,1,1,117,space,7.870902099999512,None,0,1,0.5956063000003269,None,space,3.1216622000001735,None,0,0,0,0,,,,,10,7,87,7,373.2957441999997,,,,,,,,,,,,,,,,,,,,,373.2804060999997,373.2957441999997,373.7795919,373.7843855000001,373.79979960000037,374.3966369999998,,,,,374.3968550999998,374.4121124000003,374.6122316000001,374.59570429999985,373.79979960000037,,,,,,,,0,1,0.5956063000003269,None,,,,,,,,805,22,M,R,2026-02-18_12h13.42.712,VisualSearch_2526_3,,2025.2.4,2026-02-18 12h13.42.903195 +0100,
tilted.xlsx,The target is tilted.,117,88,0,11,1,0,0,0,0,0,0,0,0,0,0,0,0,0,1,117,space,7.870902099999512,None,0,0,0.4163453000001027,None,space,3.1216622000001735,None,0,0,0,0,,,,,11,0,88,3,374.6122316000001,,,,,,,,,,,,,,,,,,,,,374.59648579999975,374.6122316000001,375.09618450000016,375.10110129999975,375.1179589000003,375.54654050000045,,,,,375.5467329000003,375.5620945999999,375.7620582999998,375.7458538000001,375.1179589000003,,,,,,,,0,0,0.4163453000001027,None,,,,,,,,805,22,M,R,2026-02-18_12h13.42.712,VisualSearch_2526_3,,2025.2.4,2026-02-18 12h13.42.903195 +0100,
tilted.xlsx,The target is tilted.,117,89,1,11,1,1,1,1,1,1,1,1,0,0,0,0,0,7,8,117,space,7.870902099999512,None,1,1,2.216342099999565,None,space,3.1216622000001735,None,0,0,0,0,,,,,11,1,89,1,375.7620582999998,,,,,,,,,,,,,,,,,,,,,375.74659580000025,375.7620582999998,376.2460636000005,376.2510920000004,376.26572810000016,378.4961708000001,,,,,378.49636069999997,378.5113693000003,378.7116104000006,378.6956141999999,376.26572810000016,,,,,,,,1,1,2.216342099999565,None,,,,,,,,805,22,M,R,2026-02-18_12h13.42.712,VisualSearch_2526_3,,2025.2.4,2026-02-18 12h13.42.903195 +0100,
tilted.xlsx,The target is tilted.,117,90,2,11,0,1,1,1,1,1,1,1,1,1,1,1,1,11,12,117,space,7.870902099999512,None,1,0,3.9246659000000363,None,space,3.1216622000001735,None,0,0,0,0,,,,,11,2,90,4,378.7116104000006,,,,,,,,,,,,,,,,,,,,,378.69642269999986,378.7116104000006,379.19548570000006,379.20005839999976,379.2170463000002,383.1448433000005,,,,,383.1450359999999,383.1606122000003,383.3608871000006,383.34504149999975,379.2170463000002,,,,,,,,1,0,3.9246659000000363,None,,,,,,,,805,22,M,R,2026-02-18_12h13.42.712,VisualSearch_2526_3,,2025.2.4,2026-02-18 12h13.42.903195 +0100,
tilted.xlsx,The target is tilted.,117,91,3,11,0,0,0,0,0,0,0,0,0,0,0,0,1,1,1,117,space,7.870902099999512,None,0,1,0.5761458999995739,None,space,3.1216622000001735,None,0,0,0,0,,,,,11,3,91,7,383.3608871000006,,,,,,,,,,,,,,,,,,,,,383.3458324000003,383.3608871000006,383.8447106000003,383.8492862000003,383.86428070000056,384.44481629999973,,,,,384.44500810000045,384.46039120000023,384.6607074000003,384.6445979,383.86428070000056,,,,,,,,0,1,0.5761458999995739,None,,,,,,,,805,22,M,R,2026-02-18_12h13.42.712,VisualSearch_2526_3,,2025.2.4,2026-02-18 12h13.42.903195 +0100,
tilted.xlsx,The target is tilted.,117,92,4,11,0,1,1,1,1,1,1,1,0,0,0,0,1,7,8,117,space,7.870902099999512,None,1,0,5.945858500000213,None,space,3.1216622000001735,None,0,0,0,0,,,,,11,4,92,5,384.6607074000003,,,,,,,,,,,,,,,,,,,,,384.64543820000017,384.6607074000003,385.1445459000006,385.14962600000035,385.16440169999987,391.12770850000015,,,,,391.1279067000005,391.1431269000004,391.34327269999994,391.32723570000053,385.16440169999987,,,,,,,,1,0,5.945858500000213,None,,,,,,,,805,22,M,R,2026-02-18_12h13.42.712,VisualSearch_2526_3,,2025.2.4,2026-02-18 12h13.42.903195 +0100,
tilted.xlsx,The target is tilted.,117,93,5,11,1,1,1,1,1,1,1,1,1,1,1,1,0,11,12,117,space,7.870902099999512,None,1,1,2.9320183999998335,None,space,3.1216622000001735,None,0,0,0,0,,,,,11,5,93,0,391.34327269999994,,,,,,,,,,,,,,,,,,,,,391.3280349000006,391.34327269999994,391.82697840000037,391.83190710000054,391.8476741000004,394.7937985999997,,,,,394.79400090000036,394.8092708000004,395.0089839000002,394.9932011000001,391.8476741000004,,,,,,,,1,1,2.9320183999998335,None,,,,,,,,805,22,M,R,2026-02-18_12h13.42.712,VisualSearch_2526_3,,2025.2.4,2026-02-18 12h13.42.903195 +0100,
tilted.xlsx,The target is tilted.,117,94,6,11,0,1,1,1,0,0,0,0,0,0,0,0,1,3,4,117,space,7.870902099999512,None,0,1,2.3685120999998617,None,space,3.1216622000001735,None,0,0,0,0,,,,,11,6,94,6,395.0089839000002,,,,,,,,,,,,,,,,,,,,,394.99391040000046,395.0089839000002,395.49308999999994,395.4976845000001,395.51299089999975,397.89332900000045,,,,,397.8935190000002,397.9085227000005,398.10891770000035,398.09268599999996,395.51299089999975,,,,,,,,0,1,2.3685120999998617,None,,,,,,,,805,22,M,R,2026-02-18_12h13.42.712,VisualSearch_2526_3,,2025.2.4,2026-02-18 12h13.42.903195 +0100,
tilted.xlsx,The target is tilted.,117,95,7,11,1,1,1,1,0,0,0,0,0,0,0,0,0,3,4,117,space,7.870902099999512,None,0,0,1.6974783000005118,None,space,3.1216622000001735,None,0,0,0,0,,,,,11,7,95,2,398.10891770000035,,,,,,,,,,,,,,,,,,,,,398.09346240000013,398.10891770000035,398.5923136000001,398.5970205000003,398.6110993000002,400.3258160000005,,,,,400.32598959999996,400.34168469999986,400.5418286000004,400.52569829999993,398.6110993000002,,,,,,,,0,0,1.6974783000005118,None,,,,,,,,805,22,M,R,2026-02-18_12h13.42.712,VisualSearch_2526_3,,2025.2.4,2026-02-18 12h13.42.903195 +0100,
tilted.xlsx,The target is tilted.,117,96,0,12,1,1,1,1,0,0,0,0,0,0,0,0,0,3,4,117,space,7.870902099999512,None,0,0,1.0622222000001784,None,space,3.1216622000001735,None,0,0,0,0,,,,,12,0,96,2,400.5418286000004,,,,,,,,,,,,,,,,,,,,,400.5264523000005,400.5418286000004,401.0255999000001,401.03025960000014,401.04400330000044,402.10895729999993,,,,,402.10914690000027,402.12498909999977,402.3247116000002,402.3088899000004,401.04400330000044,,,,,,,,0,0,1.0622222000001784,None,,,,,,,,805,22,M,R,2026-02-18_12h13.42.712,VisualSearch_2526_3,,2025.2.4,2026-02-18 12h13.42.903195 +0100,
tilted.xlsx,The target is tilted.,117,97,1,12,1,1,1,1,1,1,1,1,1,1,1,1,0,11,12,117,space,7.870902099999512,None,1,1,3.687972599999739,None,space,3.1216622000001735,None,0,0,0,0,,,,,12,1,97,0,402.3247116000002,,,,,,,,,,,,,,,,,,,,,402.30972070000007,402.3247116000002,402.80869059999986,402.8132912000001,402.82948300000044,406.5248134000003,,,,,406.5249451999998,406.5406081000001,406.7409569000001,406.72437400000035,402.82948300000044,,,,,,,,1,1,3.687972599999739,None,,,,,,,,805,22,M,R,2026-02-18_12h13.42.712,VisualSearch_2526_3,,2025.2.4,2026-02-18 12h13.42.903195 +0100,
tilted.xlsx,The target is tilted.,117,98,2,12,1,1,1,1,1,1,1,1,0,0,0,0,0,7,8,117,space,7.870902099999512,None,0,0,2.806910600000265,None,space,3.1216622000001735,None,0,0,0,0,,,,,12,2,98,1,406.7409569000001,,,,,,,,,,,,,,,,,,,,,406.7251304000001,406.7409569000001,407.2248748000002,407.22941809999975,407.2428209999998,410.0578357000004,,,,,410.0579652000006,410.0738788999997,410.2738096000003,410.25761150000017,407.2428209999998,,,,,,,,0,0,2.806910600000265,None,,,,,,,,805,22,M,R,2026-02-18_12h13.42.712,VisualSearch_2526_3,,2025.2.4,2026-02-18 12h13.42.903195 +0100,
tilted.xlsx,The target is tilted.,117,99,3,12,0,0,0,0,0,0,0,0,0,0,0,0,1,1,1,117,space,7.870902099999512,None,0,1,0.6570400999999038,None,space,3.1216622000001735,None,0,0,0,0,,,,,12,3,99,7,410.2738096000003,,,,,,,,,,,,,,,,,,,,,410.2583655999997,410.2738096000003,410.75780269999996,410.76299970000036,410.7786750000005,411.4402557000003,,,,,411.4403596000002,411.4567418000006,411.6570392000003,411.64049870000053,410.7786750000005,,,,,,,,0,1,0.6570400999999038,None,,,,,,,,805,22,M,R,2026-02-18_12h13.42.712,VisualSearch_2526_3,,2025.2.4,2026-02-18 12h13.42.903195 +0100,
tilted.xlsx,The target is tilted.,117,100,4,12,1,0,0,0,0,0,0,0,0,0,0,0,0,0,1,117,space,7.870902099999512,None,0,0,0.7296368999996048,None,space,3.1216622000001735,None,0,0,0,0,,,,,12,4,100,3,411.6570392000003,,,,,,,,,,,,,,,,,,,,,411.6412734000005,411.6570392000003,412.14039109999976,412.14494060000015,412.16025290000016,412.8908854000001,,,,,412.8910611000001,412.90652969999974,413.1067957000005,413.09035810000023,412.16025290000016,,,,,,,,0,0,0.7296368999996048,None,,,,,,,,805,22,M,R,2026-02-18_12h13.42.712,VisualSearch_2526_3,,2025.2.4,2026-02-18 12h13.42.903195 +0100,
tilted.xlsx,The target is tilted.,117,101,5,12,0,1,1,1,0,0,0,0,0,0,0,0,1,3,4,117,space,7.870902099999512,None,0,1,1.7538841999994474,None,space,3.1216622000001735,None,0,0,0,0,,,,,12,5,101,6,413.1067957000005,,,,,,,,,,,,,,,,,,,,,413.09111720000055,413.1067957000005,413.5902464999999,413.5948218000003,413.6108806000002,415.37334009999995,,,,,415.37347620000037,415.3897619999998,415.58988690000024,415.5737723000002,413.6108806000002,,,,,,,,0,1,1.7538841999994474,None,,,,,,,,805,22,M,R,2026-02-18_12h13.42.712,VisualSearch_2526_3,,2025.2.4,2026-02-18 12h13.42.903195 +0100,
tilted.xlsx,The target is tilted.,117,102,6,12,0,1,1,1,1,1,1,1,1,1,1,1,1,11,12,117,space,7.870902099999512,None,0,1,3.6857443999997486,None,space,3.1216622000001735,None,0,0,0,0,,,,,12,6,102,4,415.58988690000024,,,,,,,,,,,,,,,,,,,,,415.57457799999975,415.58988690000024,416.07356549999986,416.07815279999977,416.0915868000002,419.7900300000001,,,,,419.79020630000014,419.8058286000005,420.0057934000006,419.98976459999994,416.0915868000002,,,,,,,,0,1,3.6857443999997486,None,,,,,,,,805,22,M,R,2026-02-18_12h13.42.712,VisualSearch_2526_3,,2025.2.4,2026-02-18 12h13.42.903195 +0100,
tilted.xlsx,The target is tilted.,117,103,7,12,0,1,1,1,1,1,1,1,0,0,0,0,1,7,8,117,space,7.870902099999512,None,1,0,3.7876479999995354,None,space,3.1216622000001735,None,0,0,0,0,,,,,12,7,103,5,420.0057934000006,,,,,,,,,,,,,,,,,,,,,419.9904618999999,420.0057934000006,420.4886019000005,420.49076870000044,420.50555540000005,424.30609989999994,,,,,424.3063358999998,424.32147110000005,424.52163290000044,424.5052491000006,420.50555540000005,,,,,,,,1,0,3.7876479999995354,None,,,,,,,,805,22,M,R,2026-02-18_12h13.42.712,VisualSearch_2526_3,,2025.2.4,2026-02-18 12h13.42.903195 +0100,
tilted.xlsx,The target is tilted.,117,104,0,13,1,1,1,1,0,0,0,0,0,0,0,0,0,3,4,117,space,7.870902099999512,None,0,0,1.9318610000000263,None,space,3.1216622000001735,None,0,0,0,0,,,,,13,0,104,2,424.52163290000044,,,,,,,,,,,,,,,,,,,,,424.5056077999998,424.52163290000044,425.0054727000006,425.0101174000001,425.0250104000006,426.97184930000003,,,,,426.97199869999986,426.98800819999997,427.1881530999999,427.17194130000007,425.0250104000006,,,,,,,,0,0,1.9318610000000263,None,,,,,,,,805,22,M,R,2026-02-18_12h13.42.712,VisualSearch_2526_3,,2025.2.4,2026-02-18 12h13.42.903195 +0100,
tilted.xlsx,The target is tilted.,117,105,1,13,0,1,1,1,1,1,1,1,1,1,1,1,1,11,12,117,space,7.870902099999512,None,1,0,3.4523582000001625,None,space,3.1216622000001735,None,0,0,0,0,,,,,13,1,105,4,427.1881530999999,,,,,,,,,,,,,,,,,,,,,427.17266740000014,427.1881530999999,427.6718810000002,427.67641860000003,427.6918450000003,431.1551491,,,,,431.15532489999987,431.1706592999999,431.37083189999976,431.35487379999995,427.6918450000003,,,,,,,,1,0,3.4523582000001625,None,,,,,,,,805,22,M,R,2026-02-18_12h13.42.712,VisualSearch_2526_3,,2025.2.4,2026-02-18 12h13.42.903195 +0100,
tilted.xlsx,The target is tilted.,117,106,2,13,0,0,0,0,0,0,0,0,0,0,0,0,1,1,1,117,space,7.870902099999512,None,0,1,0.5942361000006713,None,space,3.1216622000001735,None,0,0,0,0,,,,,13,2,106,7,431.37083189999976,,,,,,,,,,,,,,,,,,,,,431.3556715000004,431.37083189999976,431.85482800000045,431.8598544000006,431.87760700000035,432.4877273000002,,,,,432.4877997000003,432.50364660000014,432.7037655000004,432.6879587000003,431.87760700000035,,,,,,,,0,1,0.5942361000006713,None,,,,,,,,805,22,M,R,2026-02-18_12h13.42.712,VisualSearch_2526_3,,2025.2.4,2026-02-18 12h13.42.903195 +0100,
tilted.xlsx,The target is tilted.,117,107,3,13,0,1,1,1,1,1,1,1,0,0,0,0,1,7,8,117,space,7.870902099999512,None,0,1,2.329311399999824,None,space,3.1216622000001735,None,0,0,0,0,,,,,13,3,107,5,432.7037655000004,,,,,,,,,,,,,,,,,,,,,432.6887816999997,432.7037655000004,433.1880818999998,433.19292589999986,433.2089686999998,435.5547354999999,,,,,435.5549520000004,435.5701988999999,435.7701033000003,435.7542215000003,433.2089686999998,,,,,,,,0,1,2.329311399999824,None,,,,,,,,805,22,M,R,2026-02-18_12h13.42.712,VisualSearch_2526_3,,2025.2.4,2026-02-18 12h13.42.903195 +0100,
tilted.xlsx,The target is tilted.,117,108,4,13,0,1,1,1,0,0,0,0,0,0,0,0,1,3,4,117,space,7.870902099999512,None,0,1,1.3631100000002334,None,space,3.1216622000001735,None,0,0,0,0,,,,,13,4,108,6,435.7701033000003,,,,,,,,,,,,,,,,,,,,,435.75507730000027,435.7701033000003,436.2539815,436.2585777000004,436.27440970000043,437.65425400000004,,,,,437.65438749999976,437.6697487000001,437.86984029999985,437.8537219,436.27440970000043,,,,,,,,0,1,1.3631100000002334,None,,,,,,,,805,22,M,R,2026-02-18_12h13.42.712,VisualSearch_2526_3,,2025.2.4,2026-02-18 12h13.42.903195 +0100,
tilted.xlsx,The target is tilted.,117,109,5,13,1,0,0,0,0,0,0,0,0,0,0,0,0,0,1,117,space,7.870902099999512,None,0,0,0.5954314000000522,None,space,3.1216622000001735,None,0,0,0,0,,,,,13,5,109,3,437.86984029999985,,,,,,,,,,,,,,,,,,,,,437.8544621000001,437.86984029999985,438.3537084999998,438.35822540000026,438.3740413000005,438.9708543000006,,,,,438.9710552000006,438.9862632000004,439.1862114000005,439.17028970000047,438.3740413000005,,,,,,,,0,0,0.5954314000000522,None,,,,,,,,805,22,M,R,2026-02-18_12h13.42.712,VisualSearch_2526_3,,2025.2.4,2026-02-18 12h13.42.903195 +0100,
tilted.xlsx,The target is tilted.,117,110,6,13,1,1,1,1,1,1,1,1,1,1,1,1,0,11,12,117,space,7.870902099999512,None,1,1,3.0657485000001543,None,space,3.1216622000001735,None,0,0,0,0,,,,,13,6,110,0,439.1862114000005,,,,,,,,,,,,,,,,,,,,,439.17097809999996,439.1862114000005,439.6702309000002,439.6747605999999,439.6933134000001,442.77030360000026,,,,,442.7704934000003,442.7857812000002,442.9856797000002,442.96935230000054,439.6933134000001,,,,,,,,1,1,3.0657485000001543,None,,,,,,,,805,22,M,R,2026-02-18_12h13.42.712,VisualSearch_2526_3,,2025.2.4,2026-02-18 12h13.42.903195 +0100,
tilted.xlsx,The target is tilted.,117,111,7,13,1,1,1,1,1,1,1,1,0,0,0,0,0,7,8,117,space,7.870902099999512,None,0,0,3.2266009000004487,None,space,3.1216622000001735,None,0,0,0,0,,,,,13,7,111,1,442.9856797000002,,,,,,,,,,,,,,,,,,,,,442.9700655000006,442.9856797000002,443.4697474000004,443.47446670000045,443.4913507000001,446.71954430000005,,,,,446.7197194999999,446.73498290000043,446.9351778,446.9194146,443.4913507000001,,,,,,,,0,0,3.2266009000004487,None,,,,,,,,805,22,M,R,2026-02-18_12h13.42.712,VisualSearch_2526_3,,2025.2.4,2026-02-18 12h13.42.903195 +0100,
tilted.xlsx,The target is tilted.,117,112,0,14,0,0,0,0,0,0,0,0,0,0,0,0,1,1,1,117,space,7.870902099999512,None,0,1,0.5211749000000054,None,space,3.1216622000001735,None,0,0,0,0,,,,,14,0,112,7,446.9351778,,,,,,,,,,,,,,,,,,,,,446.9202102999998,446.9351778,447.41918950000036,447.4237628000001,447.43512400000054,447.96917420000045,,,,,447.96929830000045,447.9849008000001,448.1847365000003,448.16856740000003,447.43512400000054,,,,,,,,0,1,0.5211749000000054,None,,,,,,,,805,22,M,R,2026-02-18_12h13.42.712,VisualSearch_2526_3,,2025.2.4,2026-02-18 12h13.42.903195 +0100,
tilted.xlsx,The target is tilted.,117,113,1,14,1,1,1,1,0,0,0,0,0,0,0,0,0,3,4,117,space,7.870902099999512,None,0,0,1.2746677000004638,None,space,3.1216622000001735,None,0,0,0,0,,,,,14,1,113,2,448.1847365000003,,,,,,,,,,,,,,,,,,,,,448.1692874999999,448.1847365000003,448.6689359000002,448.6736544000005,448.68888890000017,449.96927700000015,,,,,449.96946730000036,449.98481100000026,450.18485800000053,450.1686569000003,448.68888890000017,,,,,,,,0,0,1.2746677000004638,None,,,,,,,,805,22,M,R,2026-02-18_12h13.42.712,VisualSearch_2526_3,,2025.2.4,2026-02-18 12h13.42.903195 +0100,
tilted.xlsx,The target is tilted.,117,114,2,14,1,1,1,1,1,1,1,1,1,1,1,1,0,11,12,117,space,7.870902099999512,None,1,1,2.484232499999962,None,space,3.1216622000001735,None,0,0,0,0,,,,,14,2,114,0,450.18485800000053,,,,,,,,,,,,,,,,,,,,,450.1694137000004,450.18485800000053,450.6687265999999,450.6732692000005,450.68906609999976,453.1856190999997,,,,,453.185845,453.2009981000001,453.4010298000003,453.3850575000006,450.68906609999976,,,,,,,,1,1,2.484232499999962,None,,,,,,,,805,22,M,R,2026-02-18_12h13.42.712,VisualSearch_2526_3,,2025.2.4,2026-02-18 12h13.42.903195 +0100,
tilted.xlsx,The target is tilted.,117,115,3,14,1,1,1,1,1,1,1,1,0,0,0,0,0,7,8,117,space,7.870902099999512,None,1,1,2.733691700000236,None,space,3.1216622000001735,None,0,0,0,0,,,,,14,3,115,1,453.4010298000003,,,,,,,,,,,,,,,,,,,,,453.3858857000005,453.4010298000003,453.8850210999999,453.89014750000024,453.9049777,456.6512364,,,,,456.65137779999986,456.66679360000035,456.8668112000005,456.85056330000043,453.9049777,,,,,,,,1,1,2.733691700000236,None,,,,,,,,805,22,M,R,2026-02-18_12h13.42.712,VisualSearch_2526_3,,2025.2.4,2026-02-18 12h13.42.903195 +0100,
tilted.xlsx,The target is tilted.,117,116,4,14,0,1,1,1,0,0,0,0,0,0,0,0,1,3,4,117,space,7.870902099999512,None,0,1,2.546592800000326,None,space,3.1216622000001735,None,0,0,0,0,,,,,14,4,116,6,456.8668112000005,,,,,,,,,,,,,,,,,,,,,456.8512797000003,456.8668112000005,457.3507331999999,457.3553794999998,457.3701676999999,459.9345820999997,,,,,459.93477559999974,459.9500396000003,460.14963480000006,460.1339444000005,457.3701676999999,,,,,,,,0,1,2.546592800000326,None,,,,,,,,805,22,M,R,2026-02-18_12h13.42.712,VisualSearch_2526_3,,2025.2.4,2026-02-18 12h13.42.903195 +0100,
tilted.xlsx,The target is tilted.,117,117,5,14,0,1,1,1,1,1,1,1,1,1,1,1,1,11,12,117,space,7.870902099999512,None,1,0,3.150942999999643,None,space,3.1216622000001735,None,0,0,0,0,,,,,14,5,117,4,460.14963480000006,,,,,,,,,,,,,,,,,,,,,460.1346785000005,460.14963480000006,460.6339509999998,460.63859690000027,460.6542917000006,463.8173689000005,,,,,463.81756080000014,463.83274530000017,464.0324031,464.0168088999999,460.6542917000006,,,,,,,,1,0,3.150942999999643,None,,,,,,,,805,22,M,R,2026-02-18_12h13.42.712,VisualSearch_2526_3,,2025.2.4,2026-02-18 12h13.42.903195 +0100,
tilted.xlsx,The target is tilted.,117,118,6,14,1,0,0,0,0,0,0,0,0,0,0,0,0,0,1,117,space,7.870902099999512,None,0,0,0.6082974999999351,None,space,3.1216622000001735,None,0,0,0,0,,,,,14,6,118,3,464.0324031,,,,,,,,,,,,,,,,,,,,,464.0175095000004,464.0324031,464.5163011000004,464.51929500000006,464.53228469999976,465.1499326000003,,,,,465.1500673999999,465.16569189999973,465.3661007999999,465.34992200000033,464.53228469999976,,,,,,,,0,0,0.6082974999999351,None,,,,,,,,805,22,M,R,2026-02-18_12h13.42.712,VisualSearch_2526_3,,2025.2.4,2026-02-18 12h13.42.903195 +0100,
tilted.xlsx,The target is tilted.,117,119,7,14,0,1,1,1,1,1,1,1,0,0,0,0,1,7,8,117,space,7.870902099999512,None,1,0,2.46636000000035,None,space,3.1216622000001735,None,0,0,0,0,,,,,14,7,119,5,465.3661007999999,,,,,,,,,,,,,,,,,,,,,465.35067359999994,465.3661007999999,465.8498356,465.85435570000027,465.8694510000005,468.3493296000006,,,,,468.3494145000004,468.36489940000047,468.5815511999999,468.5492817000004,465.8694510000005,,,,,,,,1,0,2.46636000000035,None,,,,,,,,805,22,M,R,2026-02-18_12h13.42.712,VisualSearch_2526_3,,2025.2.4,2026-02-18 12h13.42.903195 +0100,
tilted.xlsx,The target is tilted.,117,0,0,0,,,,,,,,,,,,,,,,,space,7.870902099999512,None,,,,,space,3.1216622000001735,None,0,0,0,0,,,,,,,,,,,,,,,,,,,,,,,,,,,,,,,,,,,,,,,,,,,,,,,,,,,,,,,,,,,,,,,805,22,M,R,2026-02-18_12h13.42.712,VisualSearch_2526_3,,2025.2.4,2026-02-18 12h13.42.903195 +0100,
vertical.xlsx,The target is tilted.,135,0,0,0,1,1,1,1,1,1,1,1,1,1,1,1,0,11,12,135,space,3.168351199999961,None,1,1,2.2789590000002136,None,,,,0,1,1,1,0,0,0,0,,,,,471.79271700000027,,,,,,,,,,,,,,,468.5815511999999,468.5815511999999,468.5815511999999,space,3.168351199999961,None,471.7892074000001,471.79271700000027,472.28200190000007,472.28653490000033,472.29825400000027,474.5821971000005,1,1,2.2789590000002136,None,474.58239219999996,474.59792650000054,474.79804870000044,474.78181659999973,,,,,,,,,,,,,,,,,,,,805,22,M,R,2026-02-18_12h13.42.712,VisualSearch_2526_3,,2025.2.4,2026-02-18 12h13.42.903195 +0100,
vertical.xlsx,The target is tilted.,135,1,1,0,1,0,0,0,0,0,0,0,0,0,0,0,0,0,1,135,space,3.168351199999961,None,1,1,0.7673891000004005,None,,,,0,1,1,1,0,1,1,3,,,,,474.79804870000044,,,,,,,,,,,,,,,,,,,,,474.78251610000007,474.79804870000044,475.28147720000015,475.2859625000001,475.2977576000003,476.08225370000036,1,1,0.7673891000004005,None,476.0824386000004,476.0978611999999,476.29747300000054,476.281618,475.2977576000003,,,,,,,,,,,,,,,,,,,805,22,M,R,2026-02-18_12h13.42.712,VisualSearch_2526_3,,2025.2.4,2026-02-18 12h13.42.903195 +0100,
vertical.xlsx,The target is tilted.,135,2,2,0,1,1,1,1,0,0,0,0,0,0,0,0,0,3,4,135,space,3.168351199999961,None,1,1,0.6069350999996459,None,,,,0,1,1,1,0,2,2,2,,,,,476.29747300000054,,,,,,,,,,,,,,,,,,,,,476.2823216000006,476.29747300000054,476.78152390000014,476.7861087000001,476.8008479,477.4150457000005,1,1,0.6069350999996459,None,477.4152307000004,477.4308246999999,477.63090400000056,477.6149691999999,476.8008479,,,,,,,,,,,,,,,,,,,805,22,M,R,2026-02-18_12h13.42.712,VisualSearch_2526_3,,2025.2.4,2026-02-18 12h13.42.903195 +0100,
vertical.xlsx,The target is tilted.,135,3,3,0,1,1,1,1,1,1,1,1,0,0,0,0,0,7,8,135,space,3.168351199999961,None,1,1,0.7510408000007374,None,,,,0,1,1,1,0,3,3,1,,,,,477.63090400000056,,,,,,,,,,,,,,,,,,,,,477.61573190000036,477.63090400000056,478.1147983000001,478.1192009000006,478.1340379000003,478.8985440000006,1,1,0.7510408000007374,None,478.8987256999999,478.9141668000002,479.1140953000004,479.0979250999999,478.1340379000003,,,,,,,,,,,,,,,,,,,805,22,M,R,2026-02-18_12h13.42.712,VisualSearch_2526_3,,2025.2.4,2026-02-18 12h13.42.903195 +0100,
vertical.xlsx,The target is tilted.,135,4,4,0,0,0,0,0,0,0,0,0,0,0,0,0,1,1,1,135,space,3.168351199999961,None,0,1,0.6251180999997814,None,,,,0,1,1,1,0,4,4,7,,,,,479.1140953000004,,,,,,,,,,,,,,,,,,,,,479.0986131999998,479.1140953000004,479.59785699999975,479.6023838000001,479.61753690000023,480.24827340000047,0,1,0.6251180999997814,None,480.2484555000001,480.26392550000037,480.4639332000006,480.4478411,479.61753690000023,,,,,,,,,,,,,,,,,,,805,22,M,R,2026-02-18_12h13.42.712,VisualSearch_2526_3,,2025.2.4,2026-02-18 12h13.42.903195 +0100,
vertical.xlsx,The target is tilted.,135,5,5,0,0,1,1,1,1,1,1,1,1,1,1,1,1,11,12,135,space,3.168351199999961,None,0,1,1.6781019000000015,None,,,,0,1,1,1,0,5,5,4,,,,,480.4639332000006,,,,,,,,,,,,,,,,,,,,,480.44860040000003,480.4639332000006,480.9477893000003,480.9523294999999,480.9636433000005,482.64773289999994,0,1,1.6781019000000015,None,482.6478867000005,482.6635573000003,482.86340780000046,482.84702430000016,480.9636433000005,,,,,,,,,,,,,,,,,,,805,22,M,R,2026-02-18_12h13.42.712,VisualSearch_2526_3,,2025.2.4,2026-02-18 12h13.42.903195 +0100,
vertical.xlsx,The target is tilted.,135,6,6,0,0,1,1,1,0,0,0,0,0,0,0,0,1,3,4,135,space,3.168351199999961,None,0,1,0.6456471999999849,None,,,,0,1,1,1,0,6,6,6,,,,,482.86340780000046,,,,,,,,,,,,,,,,,,,,,482.8476743000001,482.86340780000046,483.3474121999998,483.35196950000045,483.36535280000044,484.0141497000004,0,1,0.6456471999999849,None,484.01431800000046,484.0297836,484.22990630000004,484.2138257000006,483.36535280000044,,,,,,,,,,,,,,,,,,,805,22,M,R,2026-02-18_12h13.42.712,VisualSearch_2526_3,,2025.2.4,2026-02-18 12h13.42.903195 +0100,
vertical.xlsx,The target is tilted.,135,7,7,0,0,1,1,1,1,1,1,1,0,0,0,0,1,7,8,135,space,3.168351199999961,None,0,1,0.9297191000005114,None,,,,0,1,1,1,0,7,7,5,,,,,484.22990630000004,,,,,,,,,,,,,,,,,,,,,484.21452709999994,484.22990630000004,484.7136118999997,484.71877180000047,484.73438410000017,485.68096049999986,0,1,0.9297191000005114,None,485.6811422999999,485.6964141999997,485.8964377000002,485.88042270000005,484.73438410000017,,,,,,,,,,,,,,,,,,,805,22,M,R,2026-02-18_12h13.42.712,VisualSearch_2526_3,,2025.2.4,2026-02-18 12h13.42.903195 +0100,
vertical.xlsx,The target is tilted.,135,0,0,0,0,1,1,1,1,1,1,1,0,0,0,0,1,7,8,135,space,3.168351199999961,None,0,1,2.3340485999997327,None,space,3.845971699999609,None,0,1,1,1,,,,,0,0,0,5,489.7711919000003,,,,,,,,,,,,,,,,,,,,,489.76747820000037,489.7711919000003,490.2624783000001,490.2670304000003,490.2791259000005,492.6299471000002,,,,,492.63014139999996,492.64532659999986,492.84544950000054,492.8295106000005,,485.88690250000036,485.8964377000002,485.8964377000002,489.7464170000003,space,3.845971699999609,None,0,1,2.3340485999997327,None,,,,,,,,805,22,M,R,2026-02-18_12h13.42.712,VisualSearch_2526_3,,2025.2.4,2026-02-18 12h13.42.903195 +0100,
vertical.xlsx,The target is tilted.,135,1,1,0,1,1,1,1,0,0,0,0,0,0,0,0,0,3,4,135,space,3.168351199999961,None,1,1,0.584939200000008,None,space,3.845971699999609,None,0,1,1,1,,,,,0,1,1,2,492.84544950000054,,,,,,,,,,,,,,,,,,,,,492.8302577000004,492.84544950000054,493.3294065,493.3339925999999,493.34902969999985,493.9464217000004,,,,,493.9466448000003,493.9615760000006,494.1613975,494.14501029999974,493.34902969999985,,,,,,,,1,1,0.584939200000008,None,,,,,,,,805,22,M,R,2026-02-18_12h13.42.712,VisualSearch_2526_3,,2025.2.4,2026-02-18 12h13.42.903195 +0100,
vertical.xlsx,The target is tilted.,135,2,2,0,1,0,0,0,0,0,0,0,0,0,0,0,0,0,1,135,space,3.168351199999961,None,1,1,0.5021321000003809,None,space,3.845971699999609,None,0,1,1,1,,,,,0,2,2,3,494.1613975,,,,,,,,,,,,,,,,,,,,,494.1452982999999,494.1613975,494.6457743000001,494.65031910000016,494.66523849999976,495.1793679000002,,,,,495.17954069999996,495.1950777000002,495.3950988000006,495.37903800000004,494.66523849999976,,,,,,,,1,1,0.5021321000003809,None,,,,,,,,805,22,M,R,2026-02-18_12h13.42.712,VisualSearch_2526_3,,2025.2.4,2026-02-18 12h13.42.903195 +0100,
vertical.xlsx,The target is tilted.,135,3,3,0,0,1,1,1,1,1,1,1,1,1,1,1,1,11,12,135,space,3.168351199999961,None,0,1,0.6425355000001218,None,space,3.845971699999609,None,0,1,1,1,,,,,0,3,3,4,495.3950988000006,,,,,,,,,,,,,,,,,,,,,495.3797534000005,495.3950988000006,495.87917540000035,495.88423779999994,495.8987482000002,496.54546310000023,,,,,496.54569510000056,496.56153710000035,496.76110470000003,496.74547020000045,495.8987482000002,,,,,,,,0,1,0.6425355000001218,None,,,,,,,,805,22,M,R,2026-02-18_12h13.42.712,VisualSearch_2526_3,,2025.2.4,2026-02-18 12h13.42.903195 +0100,
vertical.xlsx,The target is tilted.,135,4,4,0,0,1,1,1,0,0,0,0,0,0,0,0,1,3,4,135,space,3.168351199999961,None,0,1,0.4926648999999088,None,space,3.845971699999609,None,0,1,1,1,,,,,0,4,4,6,496.76110470000003,,,,,,,,,,,,,,,,,,,,,496.74620589999995,496.76110470000003,497.2453938999997,497.2499348000001,497.26489279999987,497.7625164000001,,,,,497.76270600000043,497.7780732000001,497.97801080000045,497.9615739000001,497.26489279999987,,,,,,,,0,1,0.4926648999999088,None,,,,,,,,805,22,M,R,2026-02-18_12h13.42.712,VisualSearch_2526_3,,2025.2.4,2026-02-18 12h13.42.903195 +0100,
vertical.xlsx,The target is tilted.,135,5,5,0,0,0,0,0,0,0,0,0,0,0,0,0,1,1,1,135,space,3.168351199999961,None,0,1,0.4810014999993655,None,space,3.845971699999609,None,0,1,1,1,,,,,0,5,5,7,497.97801080000045,,,,,,,,,,,,,,,,,,,,,497.9623492999999,497.97801080000045,498.46180280000044,498.4665081000003,498.4808148000002,498.9786068000003,,,,,498.9787508999998,498.9944789000001,499.1946201999999,499.1783867000004,498.4808148000002,,,,,,,,0,1,0.4810014999993655,None,,,,,,,,805,22,M,R,2026-02-18_12h13.42.712,VisualSearch_2526_3,,2025.2.4,2026-02-18 12h13.42.903195 +0100,
vertical.xlsx,The target is tilted.,135,6,6,0,1,1,1,1,1,1,1,1,0,0,0,0,0,7,8,135,space,3.168351199999961,None,1,1,1.769222500000069,None,space,3.845971699999609,None,0,1,1,1,,,,,0,6,6,1,499.1946201999999,,,,,,,,,,,,,,,,,,,,,499.17914569999994,499.1946201999999,499.67837560000044,499.6829445000003,499.69843000000037,501.47779770000034,,,,,501.4779386,501.4941249000003,501.6943885999999,501.6781976000002,499.69843000000037,,,,,,,,1,1,1.769222500000069,None,,,,,,,,805,22,M,R,2026-02-18_12h13.42.712,VisualSearch_2526_3,,2025.2.4,2026-02-18 12h13.42.903195 +0100,
vertical.xlsx,The target is tilted.,135,7,7,0,1,1,1,1,1,1,1,1,1,1,1,1,0,11,12,135,space,3.168351199999961,None,1,1,0.9192734000007476,None,space,3.845971699999609,None,0,1,1,1,,,,,0,7,7,0,501.6943885999999,,,,,,,,,,,,,,,,,,,,,501.6790135000001,501.6943885999999,502.1782527000005,502.18345860000045,502.19851259999996,503.12849259999984,,,,,503.1286891,503.1440451999997,503.3440414000006,503.3279306000004,502.19851259999996,,,,,,,,1,1,0.9192734000007476,None,,,,,,,,805,22,M,R,2026-02-18_12h13.42.712,VisualSearch_2526_3,,2025.2.4,2026-02-18 12h13.42.903195 +0100,
vertical.xlsx,The target is tilted.,135,8,0,1,0,1,1,1,0,0,0,0,0,0,0,0,1,3,4,135,space,3.168351199999961,None,0,1,0.6831792999992103,None,space,3.845971699999609,None,0,1,1,1,,,,,1,0,8,6,503.3440414000006,,,,,,,,,,,,,,,,,,,,,503.32876660000056,503.3440414000006,503.82794400000057,503.83311109999977,503.8461355999998,504.54492260000006,,,,,504.54511530000036,504.5601112000004,504.7601130000003,504.7443315999999,503.8461355999998,,,,,,,,0,1,0.6831792999992103,None,,,,,,,,805,22,M,R,2026-02-18_12h13.42.712,VisualSearch_2526_3,,2025.2.4,2026-02-18 12h13.42.903195 +0100,
vertical.xlsx,The target is tilted.,135,9,1,1,1,1,1,1,1,1,1,1,1,1,1,1,0,11,12,135,space,3.168351199999961,None,1,1,0.9206438000001071,None,space,3.845971699999609,None,0,1,1,1,,,,,1,1,9,0,504.7601130000003,,,,,,,,,,,,,,,,,,,,,504.74505409999983,504.7601130000003,505.2439351000003,505.24858180000047,505.26417480000055,506.1941618999999,,,,,506.1942850000005,506.2097945000005,506.40987589999986,506.39408509999976,505.26417480000055,,,,,,,,1,1,0.9206438000001071,None,,,,,,,,805,22,M,R,2026-02-18_12h13.42.712,VisualSearch_2526_3,,2025.2.4,2026-02-18 12h13.42.903195 +0100,
vertical.xlsx,The target is tilted.,135,10,2,1,0,1,1,1,1,1,1,1,1,1,1,1,1,11,12,135,space,3.168351199999961,None,0,1,1.2360311000002184,None,space,3.845971699999609,None,0,1,1,1,,,,,1,2,10,4,506.40987589999986,,,,,,,,,,,,,,,,,,,,,506.39490019999994,506.40987589999986,506.8941365999999,506.8987527999998,506.90965010000036,508.1605475000006,,,,,508.1607168999999,508.17662650000057,508.37636810000004,508.36015860000043,506.90965010000036,,,,,,,,0,1,1.2360311000002184,None,,,,,,,,805,22,M,R,2026-02-18_12h13.42.712,VisualSearch_2526_3,,2025.2.4,2026-02-18 12h13.42.903195 +0100,
vertical.xlsx,The target is tilted.,135,11,3,1,1,1,1,1,1,1,1,1,0,0,0,0,0,7,8,135,space,3.168351199999961,None,1,1,0.6371196000000054,None,space,3.845971699999609,None,0,1,1,1,,,,,1,3,11,1,508.37636810000004,,,,,,,,,,,,,,,,,,,,,508.3609522000006,508.37636810000004,508.85992540000007,508.8644383000001,508.8793639000005,509.52752880000025,,,,,509.52771759999996,509.5426120000002,509.7431440999999,509.7268991000001,508.8793639000005,,,,,,,,1,1,0.6371196000000054,None,,,,,,,,805,22,M,R,2026-02-18_12h13.42.712,VisualSearch_2526_3,,2025.2.4,2026-02-18 12h13.42.903195 +0100,
vertical.xlsx,The target is tilted.,135,12,4,1,1,1,1,1,0,0,0,0,0,0,0,0,0,3,4,135,space,3.168351199999961,None,1,1,0.6730525000002672,None,space,3.845971699999609,None,0,1,1,1,,,,,1,4,12,2,509.7431440999999,,,,,,,,,,,,,,,,,,,,,509.7276843999998,509.7431440999999,510.22705289999976,510.23213339999984,510.2462476999999,510.9273683000001,,,,,510.92755450000004,510.9429043,511.14248860000043,511.12679840000055,510.2462476999999,,,,,,,,1,1,0.6730525000002672,None,,,,,,,,805,22,M,R,2026-02-18_12h13.42.712,VisualSearch_2526_3,,2025.2.4,2026-02-18 12h13.42.903195 +0100,
vertical.xlsx,The target is tilted.,135,13,5,1,1,0,0,0,0,0,0,0,0,0,0,0,0,0,1,135,space,3.168351199999961,None,1,1,0.6862433000005694,None,space,3.845971699999609,None,0,1,1,1,,,,,1,5,13,3,511.14248860000043,,,,,,,,,,,,,,,,,,,,,511.1276104999997,511.14248860000043,511.62673689999974,511.6311160000005,511.6427432999999,512.3432358999999,,,,,512.3433756000004,512.3592549000005,512.5594253999998,512.5430881000002,511.6427432999999,,,,,,,,1,1,0.6862433000005694,None,,,,,,,,805,22,M,R,2026-02-18_12h13.42.712,VisualSearch_2526_3,,2025.2.4,2026-02-18 12h13.42.903195 +0100,
vertical.xlsx,The target is tilted.,135,14,6,1,0,1,1,1,1,1,1,1,0,0,0,0,1,7,8,135,space,3.168351199999961,None,0,1,1.0537807999999131,None,space,3.845971699999609,None,0,1,1,1,,,,,1,6,14,5,512.5594253999998,,,,,,,,,,,,,,,,,,,,,512.5439112000004,512.5594253999998,513.0433523000002,513.0486367000003,513.0631690999999,514.1267177,,,,,514.1268756999998,514.1424103999998,514.3423997999998,514.3263102000001,513.0631690999999,,,,,,,,0,1,1.0537807999999131,None,,,,,,,,805,22,M,R,2026-02-18_12h13.42.712,VisualSearch_2526_3,,2025.2.4,2026-02-18 12h13.42.903195 +0100,
vertical.xlsx,The target is tilted.,135,15,7,1,0,0,0,0,0,0,0,0,0,0,0,0,1,1,1,135,space,3.168351199999961,None,0,1,0.45362500000010186,None,space,3.845971699999609,None,0,1,1,1,,,,,1,7,15,7,514.3423997999998,,,,,,,,,,,,,,,,,,,,,514.3270105000001,514.3423997999998,514.8262530000002,514.8307995000005,514.8465531000002,515.3092923000004,,,,,515.3094024000002,515.3252534000003,515.5256277999997,515.5094186000006,514.8465531000002,,,,,,,,0,1,0.45362500000010186,None,,,,,,,,805,22,M,R,2026-02-18_12h13.42.712,VisualSearch_2526_3,,2025.2.4,2026-02-18 12h13.42.903195 +0100,
vertical.xlsx,The target is tilted.,135,16,0,2,0,1,1,1,0,0,0,0,0,0,0,0,1,3,4,135,space,3.168351199999961,None,0,1,0.4580962999998519,None,space,3.845971699999609,None,0,1,1,1,,,,,2,0,16,6,515.5256277999997,,,,,,,,,,,,,,,,,,,,,515.5101726000003,515.5256277999997,516.0095155999998,516.0144024000001,516.0292256000002,516.4921425000002,,,,,516.4922230000002,516.5085859000001,,516.6924353000004,516.0292256000002,,,,,,,,0,1,0.4580962999998519,None,,,,,,,,805,22,M,R,2026-02-18_12h13.42.712,VisualSearch_2526_3,,2025.2.4,2026-02-18 12h13.42.903195 +0100,
vertical.xlsx,The target is tilted.,135,17,1,2,1,0,0,0,0,0,0,0,0,0,0,0,0,0,1,135,space,3.168351199999961,None,1,1,0.49827430000004824,None,space,3.845971699999609,None,0,1,1,1,,,,,2,1,17,3,516.7087959,,,,,,,,,,,,,,,,,,,,,516.6931955999999,516.7087959,517.1924691000004,517.1976132999998,517.2127662000003,517.7263277000002,,,,,517.7265014000004,517.7419177000002,517.9415196999998,517.9259718000003,,,,,,,,,1,1,0.49827430000004824,None,,,,,,,,805,22,M,R,2026-02-18_12h13.42.712,VisualSearch_2526_3,,2025.2.4,2026-02-18 12h13.42.903195 +0100,
vertical.xlsx,The target is tilted.,135,18,2,2,1,1,1,1,1,1,1,1,0,0,0,0,0,7,8,135,space,3.168351199999961,None,1,1,0.5894071000002441,None,space,3.845971699999609,None,0,1,1,1,,,,,2,2,18,1,517.9415196999998,,,,,,,,,,,,,,,,,,,,,517.9267903999998,517.9415196999998,518.4258859000001,518.4311392999998,518.4451246999997,519.0421143000003,,,,,519.0422137000005,519.0582193999999,519.2585845000003,519.2424488000006,518.4451246999997,,,,,,,,1,1,0.5894071000002441,None,,,,,,,,805,22,M,R,2026-02-18_12h13.42.712,VisualSearch_2526_3,,2025.2.4,2026-02-18 12h13.42.903195 +0100,
vertical.xlsx,The target is tilted.,135,19,3,2,0,1,1,1,1,1,1,1,0,0,0,0,1,7,8,135,space,3.168351199999961,None,0,1,1.0231622999999672,None,space,3.845971699999609,None,0,1,1,1,,,,,2,3,19,5,519.2585845000003,,,,,,,,,,,,,,,,,,,,,519.2432721000005,519.2585845000003,519.7423268000002,519.7471141000005,519.7620723,520.7921350000006,,,,,520.7922894000003,520.8079738000006,521.0082829000003,520.9921144,519.7620723,,,,,,,,0,1,1.0231622999999672,None,,,,,,,,805,22,M,R,2026-02-18_12h13.42.712,VisualSearch_2526_3,,2025.2.4,2026-02-18 12h13.42.903195 +0100,
vertical.xlsx,The target is tilted.,135,20,4,2,0,1,1,1,1,1,1,1,1,1,1,1,1,11,12,135,space,3.168351199999961,None,0,1,0.9265941000003295,None,space,3.845971699999609,None,0,1,1,1,,,,,2,4,20,4,521.0082829000003,,,,,,,,,,,,,,,,,,,,,520.9929652999999,521.0082829000003,521.4915129000001,521.4935219999998,521.5080202999998,522.4421237000006,,,,,522.4422943999998,522.4578992000006,522.6579504000001,522.6416938000002,521.5080202999998,,,,,,,,0,1,0.9265941000003295,None,,,,,,,,805,22,M,R,2026-02-18_12h13.42.712,VisualSearch_2526_3,,2025.2.4,2026-02-18 12h13.42.903195 +0100,
vertical.xlsx,The target is tilted.,135,21,5,2,0,0,0,0,0,0,0,0,0,0,0,0,1,1,1,135,space,3.168351199999961,None,0,1,0.45179000000007363,None,space,3.845971699999609,None,0,1,1,1,,,,,2,5,21,7,522.6579504000001,,,,,,,,,,,,,,,,,,,,,522.6424873000005,522.6579504000001,523.1416552999999,523.1462210999998,523.1607976000005,523.6255738,,,,,523.6258187000003,523.6410452,523.8410240000003,523.8249636,523.1607976000005,,,,,,,,0,1,0.45179000000007363,None,,,,,,,,805,22,M,R,2026-02-18_12h13.42.712,VisualSearch_2526_3,,2025.2.4,2026-02-18 12h13.42.903195 +0100,
vertical.xlsx,The target is tilted.,135,22,6,2,1,1,1,1,0,0,0,0,0,0,0,0,0,3,4,135,space,3.168351199999961,None,1,1,0.5753580999999031,None,space,3.845971699999609,None,0,1,1,1,,,,,2,6,22,2,523.8410240000003,,,,,,,,,,,,,,,,,,,,,523.8257064999998,523.8410240000003,524.3244261,524.3290359000002,524.3425966000004,524.9254025,,,,,524.9255933000004,524.9408218999997,525.1408263000003,525.1248551999997,524.3425966000004,,,,,,,,1,1,0.5753580999999031,None,,,,,,,,805,22,M,R,2026-02-18_12h13.42.712,VisualSearch_2526_3,,2025.2.4,2026-02-18 12h13.42.903195 +0100,
vertical.xlsx,The target is tilted.,135,23,7,2,1,1,1,1,1,1,1,1,1,1,1,1,0,11,12,135,space,3.168351199999961,None,1,1,1.5084607999997388,None,space,3.845971699999609,None,0,1,1,1,,,,,2,7,23,0,525.1408263000003,,,,,,,,,,,,,,,,,,,,,525.1257077999999,525.1408263000003,525.6246624000005,525.6292283000002,525.6444529,527.1583333999997,,,,,527.1585253000003,527.1739023999999,527.3739953000004,527.3579352000006,525.6444529,,,,,,,,1,1,1.5084607999997388,None,,,,,,,,805,22,M,R,2026-02-18_12h13.42.712,VisualSearch_2526_3,,2025.2.4,2026-02-18 12h13.42.903195 +0100,
vertical.xlsx,The target is tilted.,135,24,0,3,1,1,1,1,1,1,1,1,0,0,0,0,0,7,8,135,space,3.168351199999961,None,1,1,1.3081640000000334,None,space,3.845971699999609,None,0,1,1,1,,,,,3,0,24,1,527.3739953000004,,,,,,,,,,,,,,,,,,,,,527.3587568000003,527.3739953000004,527.857508,527.8621147000003,527.8806436000004,529.1910268000001,,,,,529.1912309999998,529.2069258000001,529.4070615,529.3906446000001,527.8806436000004,,,,,,,,1,1,1.3081640000000334,None,,,,,,,,805,22,M,R,2026-02-18_12h13.42.712,VisualSearch_2526_3,,2025.2.4,2026-02-18 12h13.42.903195 +0100,
vertical.xlsx,The target is tilted.,135,25,1,3,0,1,1,1,1,1,1,1,1,1,1,1,1,11,12,135,space,3.168351199999961,None,0,1,1.4711936000003334,None,space,3.845971699999609,None,0,1,1,1,,,,,3,1,25,4,529.4070615,,,,,,,,,,,,,,,,,,,,,529.3914804000005,529.4070615,529.8904327999999,529.8950300000006,529.9092892999997,531.3905168000001,,,,,531.3906961000002,531.4065553999999,531.6066232000003,531.5904443,529.9092892999997,,,,,,,,0,1,1.4711936000003334,None,,,,,,,,805,22,M,R,2026-02-18_12h13.42.712,VisualSearch_2526_3,,2025.2.4,2026-02-18 12h13.42.903195 +0100,
vertical.xlsx,The target is tilted.,135,26,2,3,0,0,0,0,0,0,0,0,0,0,0,0,1,1,1,135,space,3.168351199999961,None,0,1,0.4425277999998798,None,space,3.845971699999609,None,0,1,1,1,,,,,3,2,26,7,531.6066232000003,,,,,,,,,,,,,,,,,,,,,531.5911967000002,531.6066232000003,532.0904535,532.0951380000006,532.1119979000005,532.5578124000003,,,,,532.5580513000004,532.5729394999998,532.7730872000002,532.7569760000006,532.1119979000005,,,,,,,,0,1,0.4425277999998798,None,,,,,,,,805,22,M,R,2026-02-18_12h13.42.712,VisualSearch_2526_3,,2025.2.4,2026-02-18 12h13.42.903195 +0100,
vertical.xlsx,The target is tilted.,135,27,3,3,1,1,1,1,0,0,0,0,0,0,0,0,0,3,4,135,space,3.168351199999961,None,1,1,0.6407250000002023,None,space,3.845971699999609,None,0,1,1,1,,,,,3,3,27,2,532.7730872000002,,,,,,,,,,,,,,,,,,,,,532.7578291999998,532.7730872000002,533.2570200999999,533.2615744000004,533.2775898999998,533.9232665999998,,,,,533.9234146999997,533.9392119000004,534.1397373999998,534.1234985000001,533.2775898999998,,,,,,,,1,1,0.6407250000002023,None,,,,,,,,805,22,M,R,2026-02-18_12h13.42.712,VisualSearch_2526_3,,2025.2.4,2026-02-18 12h13.42.903195 +0100,
vertical.xlsx,The target is tilted.,135,28,4,3,0,1,1,1,0,0,0,0,0,0,0,0,1,3,4,135,space,3.168351199999961,None,0,1,0.5377925000002506,None,space,3.845971699999609,None,0,1,1,1,,,,,3,4,28,6,534.1397373999998,,,,,,,,,,,,,,,,,,,,,534.1242204,534.1397373999998,534.6231334000004,534.6276875000003,534.6413690999998,535.1906287000002,,,,,535.1908156999998,535.2057703999999,535.4060801000005,535.3897894000002,534.6413690999998,,,,,,,,0,1,0.5377925000002506,None,,,,,,,,805,22,M,R,2026-02-18_12h13.42.712,VisualSearch_2526_3,,2025.2.4,2026-02-18 12h13.42.903195 +0100,
vertical.xlsx,The target is tilted.,135,29,5,3,0,1,1,1,1,1,1,1,0,0,0,0,1,7,8,135,space,3.168351199999961,None,0,1,1.5358482000001459,None,space,3.845971699999609,None,0,1,1,1,,,,,3,5,29,5,535.4060801000005,,,,,,,,,,,,,,,,,,,,,535.3905205000001,535.4060801000005,535.8895951000004,535.8941827999997,535.9084911999998,537.4562320000005,,,,,537.4563189999999,537.4720791999998,537.6724019000003,537.6558331000006,535.9084911999998,,,,,,,,0,1,1.5358482000001459,None,,,,,,,,805,22,M,R,2026-02-18_12h13.42.712,VisualSearch_2526_3,,2025.2.4,2026-02-18 12h13.42.903195 +0100,
vertical.xlsx,The target is tilted.,135,30,6,3,1,0,0,0,0,0,0,0,0,0,0,0,0,0,1,135,space,3.168351199999961,None,1,1,0.5678657999997085,None,space,3.845971699999609,None,0,1,1,1,,,,,3,6,30,3,537.6724019000003,,,,,,,,,,,,,,,,,,,,,537.6565846000003,537.6724019000003,538.1563592000002,538.1608096,538.1769140000006,538.7563737999999,,,,,538.7565088000001,538.7722377,538.9720888000002,538.9557681000006,538.1769140000006,,,,,,,,1,1,0.5678657999997085,None,,,,,,,,805,22,M,R,2026-02-18_12h13.42.712,VisualSearch_2526_3,,2025.2.4,2026-02-18 12h13.42.903195 +0100,
vertical.xlsx,The target is tilted.,135,31,7,3,1,1,1,1,1,1,1,1,1,1,1,1,0,11,12,135,space,3.168351199999961,None,1,1,0.7141121999993629,None,space,3.845971699999609,None,0,1,1,1,,,,,3,7,31,0,538.9720888000002,,,,,,,,,,,,,,,,,,,,,538.9565192,538.9720888000002,539.4559441000001,539.4608511000006,539.4756097,540.2065849,,,,,540.2067778999999,540.2220568000002,540.4220574000001,540.4058071999998,539.4756097,,,,,,,,1,1,0.7141121999993629,None,,,,,,,,805,22,M,R,2026-02-18_12h13.42.712,VisualSearch_2526_3,,2025.2.4,2026-02-18 12h13.42.903195 +0100,
vertical.xlsx,The target is tilted.,135,32,0,4,0,1,1,1,1,1,1,1,1,1,1,1,1,11,12,135,space,3.168351199999961,None,0,1,1.5713781999993444,None,space,3.845971699999609,None,0,1,1,1,,,,,4,0,32,4,540.4220574000001,,,,,,,,,,,,,,,,,,,,,540.4066259000001,540.4220574000001,540.9055972000006,540.9101381999999,540.9254331000002,542.5062790000002,,,,,542.5065107999999,542.5214891000005,542.7217117,542.705774,540.9254331000002,,,,,,,,0,1,1.5713781999993444,None,,,,,,,,805,22,M,R,2026-02-18_12h13.42.712,VisualSearch_2526_3,,2025.2.4,2026-02-18 12h13.42.903195 +0100,
vertical.xlsx,The target is tilted.,135,33,1,4,0,1,1,1,1,1,1,1,0,0,0,0,1,7,8,135,space,3.168351199999961,None,0,1,1.169401299999663,None,space,3.845971699999609,None,0,1,1,1,,,,,4,1,33,5,542.7217117,,,,,,,,,,,,,,,,,,,,,542.7065996000001,542.7217117,543.2054766000001,543.2100334000006,543.2245327999999,544.4053485000004,,,,,544.4055447999999,544.4213950000003,544.6214218000005,544.6049591000001,543.2245327999999,,,,,,,,0,1,1.169401299999663,None,,,,,,,,805,22,M,R,2026-02-18_12h13.42.712,VisualSearch_2526_3,,2025.2.4,2026-02-18 12h13.42.903195 +0100,
vertical.xlsx,The target is tilted.,135,34,2,4,1,0,0,0,0,0,0,0,0,0,0,0,0,0,1,135,space,3.168351199999961,None,1,1,0.5378725000000486,None,space,3.845971699999609,None,0,1,1,1,,,,,4,2,34,3,544.6214218000005,,,,,,,,,,,,,,,,,,,,,544.6057693000002,544.6214218000005,545.1053588000004,545.1099037000004,545.1251417000003,545.6724716999997,,,,,545.6727247999997,545.6878101000002,545.8879996000005,545.8719381999999,545.1251417000003,,,,,,,,1,1,0.5378725000000486,None,,,,,,,,805,22,M,R,2026-02-18_12h13.42.712,VisualSearch_2526_3,,2025.2.4,2026-02-18 12h13.42.903195 +0100,
