file_name,block_instructions,target_example,thisN,thisTrialN,thisRepN,target_presence,opacity_1,opacity_2,opacity_3,opacity_4,opacity_5,opacity_6,opacity_7,opacity_8,opacity_9,opacity_10,opacity_11,opacity_12,n_distract,n_items,target_ori,key_resp_4.keys,key_resp_4.rt,key_resp_4.duration,key_resp.keys,key_resp.corr,key_resp.rt,key_resp.duration,key_resp_5.keys,key_resp_5.rt,key_resp_5.duration,blocks.thisRepN,blocks.thisTrialN,blocks.thisN,blocks.thisIndex,practice_trials.thisRepN,practice_trials.thisTrialN,practice_trials.thisN,practice_trials.thisIndex,trials.thisRepN,trials.thisTrialN,trials.thisN,trials.thisIndex,thisRow.t,notes,Welcome.started,WelcomeText.started,key_resp_2.started,Welcome.stopped,key_resp_2.keys,key_resp_2.rt,key_resp_2.duration,InformedConsent.started,text_4.started,InformedConsent.stopped,key_resp_6.keys,key_resp_6.rt,key_resp_6.duration,key_resp_4.started,example_target.started,text_3.started,blocks.key_resp_4.keys,blocks.key_resp_4.rt,blocks.key_resp_4.duration,FixCross.started,fixCross.started,FixCross.stopped,Stimulus.started,key_resp.started,Stimulus.stopped,practice_trials.key_resp.keys,practice_trials.key_resp.corr,practice_trials.key_resp.rt,practice_trials.key_resp.duration,BlankScreen.started,text.started,text.stopped,BlankScreen.stopped,fixCross.stopped,ExperimentStart.started,text_2.started,key_resp_5.started,ExperimentStart.stopped,blocks.key_resp_5.keys,blocks.key_resp_5.rt,blocks.key_resp_5.duration,trials.key_resp.keys,trials.key_resp.corr,trials.key_resp.rt,trials.key_resp.duration,Thanks.started,ThankYou.started,key_resp_3.started,Thanks.stopped,key_resp_3.keys,key_resp_3.rt,key_resp_3.duration,participant,leeftijd,gender,links/rechtshandig,date,expName,expVersion,psychopyVersion,expStart,
,,,,,,,,,,,,,,,,,,,,,,,,,,,,,,,,,,,,,,,,,,,,,,0.021862000000510307,0.03328909999981988,0.03328909999981988,14.350580500000433,space,14.289410800000041,None,,,,,,,,,,,,,,,,,,,,,,,,,,,,,,,,,,,,,,,,,,,,,,806,21,V,L,2026-02-18_12h28.45.914,VisualSearch_2526_3,,2025.2.4,2026-02-18 12h28.46.109008 +0100,
,,,,,,,,,,,,,,,,,,,,,,,,,,,,,,,,,,,,,,,,,,,,,,,,,,,,,14.350736899999902,14.359960800000408,26.50080489999982,y,12.142246600000362,None,,,,,,,,,,,,,,,,,,,,,,,,,,,,,,,,,,,,,,,,806,21,V,L,2026-02-18_12h28.45.914,VisualSearch_2526_3,,2025.2.4,2026-02-18 12h28.46.109008 +0100,
tilted.xlsx,The target is tilted.,117,0,0,0,1,1,1,1,0,0,0,0,0,0,0,0,0,3,4,117,space,7.552268700000241,None,1,1,1.6097574000004897,None,,,,0,0,0,0,0,0,0,2,,,,,34.12411930000053,,,,,,,,,,,,,,,26.538395700000365,26.538395700000365,26.538395700000365,space,7.552268700000241,None,34.11934040000051,34.12411930000053,34.615682200000265,34.62060930000007,34.63509040000008,36.24899970000024,1,1,1.6097574000004897,None,36.24917389999973,36.265057000000525,36.46509630000037,36.44899499999974,,,,,,,,,,,,,,,,,,,,806,21,V,L,2026-02-18_12h28.45.914,VisualSearch_2526_3,,2025.2.4,2026-02-18 12h28.46.109008 +0100,
tilted.xlsx,The target is tilted.,117,1,1,0,0,1,1,1,0,0,0,0,0,0,0,0,1,3,4,117,space,7.552268700000241,None,0,1,1.281525999999758,None,,,,0,0,0,0,0,1,1,6,,,,,36.46509630000037,,,,,,,,,,,,,,,,,,,,,36.449656499999946,36.46509630000037,36.94864359999974,36.95373000000018,36.97094920000018,38.265339000000495,0,1,1.281525999999758,None,38.26553200000035,38.281013599999824,38.481066700000156,38.46530400000029,36.97094920000018,,,,,,,,,,,,,,,,,,,806,21,V,L,2026-02-18_12h28.45.914,VisualSearch_2526_3,,2025.2.4,2026-02-18 12h28.46.109008 +0100,
tilted.xlsx,The target is tilted.,117,2,2,0,0,1,1,1,1,1,1,1,0,0,0,0,1,7,8,117,space,7.552268700000241,None,0,1,2.608144199999515,None,,,,0,0,0,0,0,2,2,5,,,,,38.481066700000156,,,,,,,,,,,,,,,,,,,,,38.46597509999992,38.481066700000156,38.9655316999997,38.97069830000055,38.987292900000284,41.59871999999996,0,1,2.608144199999515,None,41.59890640000049,41.61382930000036,41.81441150000046,41.798379699999714,38.987292900000284,,,,,,,,,,,,,,,,,,,806,21,V,L,2026-02-18_12h28.45.914,VisualSearch_2526_3,,2025.2.4,2026-02-18 12h28.46.109008 +0100,
tilted.xlsx,The target is tilted.,117,3,3,0,1,0,0,0,0,0,0,0,0,0,0,0,0,0,1,117,space,7.552268700000241,None,1,1,0.7370441000002756,None,,,,0,0,0,0,0,3,3,3,,,,,41.81441150000046,,,,,,,,,,,,,,,,,,,,,41.799139300000206,41.81441150000046,42.29766050000035,42.29960469999969,42.31412319999981,43.06462499999998,1,1,0.7370441000002756,None,43.06486000000041,43.08030680000047,43.280724700000064,43.26479139999992,42.31412319999981,,,,,,,,,,,,,,,,,,,806,21,V,L,2026-02-18_12h28.45.914,VisualSearch_2526_3,,2025.2.4,2026-02-18 12h28.46.109008 +0100,
tilted.xlsx,The target is tilted.,117,4,4,0,0,1,1,1,1,1,1,1,1,1,1,1,1,11,12,117,space,7.552268700000241,None,0,1,3.1389392999999473,None,,,,0,0,0,0,0,4,4,4,,,,,43.280724700000064,,,,,,,,,,,,,,,,,,,,,43.26554899999974,43.280724700000064,43.76477249999971,43.769668699999784,43.780515399999786,46.931270199999744,0,1,3.1389392999999473,None,46.93146720000004,46.94642920000024,47.147069000000556,47.13096610000048,43.780515399999786,,,,,,,,,,,,,,,,,,,806,21,V,L,2026-02-18_12h28.45.914,VisualSearch_2526_3,,2025.2.4,2026-02-18 12h28.46.109008 +0100,
tilted.xlsx,The target is tilted.,117,5,5,0,0,0,0,0,0,0,0,0,0,0,0,0,1,1,1,117,space,7.552268700000241,None,0,1,0.6808495999994193,None,,,,0,0,0,0,0,5,5,7,,,,,47.147069000000556,,,,,,,,,,,,,,,,,,,,,47.13171640000019,47.147069000000556,47.630555800000366,47.635361999999986,47.64993250000043,48.347365399999944,0,1,0.6808495999994193,None,48.347554500000115,48.362886800000524,48.5633942000004,48.54738199999974,47.64993250000043,,,,,,,,,,,,,,,,,,,806,21,V,L,2026-02-18_12h28.45.914,VisualSearch_2526_3,,2025.2.4,2026-02-18 12h28.46.109008 +0100,
tilted.xlsx,The target is tilted.,117,6,6,0,1,1,1,1,1,1,1,1,0,0,0,0,0,7,8,117,space,7.552268700000241,None,1,1,2.567261000000144,None,,,,0,0,0,0,0,6,6,1,,,,,48.5633942000004,,,,,,,,,,,,,,,,,,,,,48.548138899999685,48.5633942000004,49.04683610000029,49.052250200000344,49.07087469999988,51.64733350000006,1,1,2.567261000000144,None,51.64752150000004,51.66242109999985,51.86282310000024,51.846669499999734,49.07087469999988,,,,,,,,,,,,,,,,,,,806,21,V,L,2026-02-18_12h28.45.914,VisualSearch_2526_3,,2025.2.4,2026-02-18 12h28.46.109008 +0100,
tilted.xlsx,The target is tilted.,117,7,7,0,1,1,1,1,1,1,1,1,1,1,1,1,0,11,12,117,space,7.552268700000241,None,1,1,4.164207499999975,None,,,,0,0,0,0,0,7,7,0,,,,,51.86282310000024,,,,,,,,,,,,,,,,,,,,,51.847395900000265,51.86282310000024,52.346709000000374,52.35142199999973,52.3686330999999,56.546556500000406,1,1,4.164207499999975,None,56.54672769999979,56.561748900000566,56.76178439999967,56.74604290000025,52.3686330999999,,,,,,,,,,,,,,,,,,,806,21,V,L,2026-02-18_12h28.45.914,VisualSearch_2526_3,,2025.2.4,2026-02-18 12h28.46.109008 +0100,
tilted.xlsx,The target is tilted.,117,0,0,0,0,0,0,0,0,0,0,0,0,0,0,0,1,1,1,117,space,7.552268700000241,None,0,1,0.6735540999998193,None,space,3.3645706999996037,None,0,0,0,0,,,,,0,0,0,7,60.15761889999976,,,,,,,,,,,,,,,,,,,,,60.153843699999925,60.15761889999976,60.64521659999991,60.64997560000029,60.66574310000033,61.34594900000047,,,,,61.34626959999969,61.36109190000025,61.56140390000019,61.54528389999996,,56.753529399999934,56.76178439999967,56.76178439999967,60.12937609999972,space,3.3645706999996037,None,0,1,0.6735540999998193,None,,,,,,,,806,21,V,L,2026-02-18_12h28.45.914,VisualSearch_2526_3,,2025.2.4,2026-02-18 12h28.46.109008 +0100,
tilted.xlsx,The target is tilted.,117,1,1,0,1,1,1,1,1,1,1,1,0,0,0,0,0,7,8,117,space,7.552268700000241,None,1,1,1.3251079000001482,None,space,3.3645706999996037,None,0,0,0,0,,,,,0,1,1,1,61.56140390000019,,,,,,,,,,,,,,,,,,,,,61.54604569999992,61.56140390000019,62.04545529999996,62.050007099999675,62.061341800000264,63.395550500000354,,,,,63.39568950000012,63.410664900000484,63.61119659999986,63.59501309999996,62.061341800000264,,,,,,,,1,1,1.3251079000001482,None,,,,,,,,806,21,V,L,2026-02-18_12h28.45.914,VisualSearch_2526_3,,2025.2.4,2026-02-18 12h28.46.109008 +0100,
tilted.xlsx,The target is tilted.,117,2,2,0,1,0,0,0,0,0,0,0,0,0,0,0,0,0,1,117,space,7.552268700000241,None,1,1,0.6307333999993716,None,space,3.3645706999996037,None,0,0,0,0,,,,,0,2,2,3,63.61119659999986,,,,,,,,,,,,,,,,,,,,,63.59582500000033,63.61119659999986,64.09513229999993,64.09969660000024,64.11105920000045,64.74511580000035,,,,,64.74531190000016,64.76058400000056,64.96112989999983,64.94513619999998,64.11105920000045,,,,,,,,1,1,0.6307333999993716,None,,,,,,,,806,21,V,L,2026-02-18_12h28.45.914,VisualSearch_2526_3,,2025.2.4,2026-02-18 12h28.46.109008 +0100,
tilted.xlsx,The target is tilted.,117,3,3,0,1,1,1,1,0,0,0,0,0,0,0,0,0,3,4,117,space,7.552268700000241,None,1,1,0.6683877999994365,None,space,3.3645706999996037,None,0,0,0,0,,,,,0,3,3,2,64.96112989999983,,,,,,,,,,,,,,,,,,,,,64.94594500000039,64.96112989999983,65.44489260000046,65.4502978999999,65.46408109999993,66.14526680000017,,,,,66.14546400000017,66.1603567000002,66.36073800000031,66.34448990000055,65.46408109999993,,,,,,,,1,1,0.6683877999994365,None,,,,,,,,806,21,V,L,2026-02-18_12h28.45.914,VisualSearch_2526_3,,2025.2.4,2026-02-18 12h28.46.109008 +0100,
tilted.xlsx,The target is tilted.,117,4,4,0,0,1,1,1,0,0,0,0,0,0,0,0,1,3,4,117,space,7.552268700000241,None,0,1,0.7671390000004976,None,space,3.3645706999996037,None,0,0,0,0,,,,,0,4,4,6,66.36073800000031,,,,,,,,,,,,,,,,,,,,,66.34512410000025,66.36073800000031,66.84479740000006,66.85028729999976,66.86492770000041,67.6440134000004,,,,,67.64415300000019,67.66016670000045,,67.84427669999968,66.86492770000041,,,,,,,,0,1,0.7671390000004976,None,,,,,,,,806,21,V,L,2026-02-18_12h28.45.914,VisualSearch_2526_3,,2025.2.4,2026-02-18 12h28.46.109008 +0100,
tilted.xlsx,The target is tilted.,117,5,5,0,1,1,1,1,1,1,1,1,1,1,1,1,0,11,12,117,space,7.552268700000241,None,1,1,1.5549433000005592,None,space,3.3645706999996037,None,0,0,0,0,,,,,0,5,5,0,67.86047150000013,,,,,,,,,,,,,,,,,,,,,67.84506640000018,67.86047150000013,68.34437090000029,68.3496998999999,68.3674689999998,69.92761450000035,,,,,69.92776800000047,69.94318530000055,70.14324099999976,70.12708230000044,,,,,,,,,1,1,1.5549433000005592,None,,,,,,,,806,21,V,L,2026-02-18_12h28.45.914,VisualSearch_2526_3,,2025.2.4,2026-02-18 12h28.46.109008 +0100,
tilted.xlsx,The target is tilted.,117,6,6,0,0,1,1,1,1,1,1,1,1,1,1,1,1,11,12,117,space,7.552268700000241,None,1,0,2.53083450000031,None,space,3.3645706999996037,None,0,0,0,0,,,,,0,6,6,4,70.14324099999976,,,,,,,,,,,,,,,,,,,,,70.12782299999981,70.14324099999976,70.62742950000029,70.63206710000031,70.64722239999992,73.19355270000051,,,,,73.19369300000017,73.20944390000022,73.40944949999994,73.39366059999975,70.64722239999992,,,,,,,,1,0,2.53083450000031,None,,,,,,,,806,21,V,L,2026-02-18_12h28.45.914,VisualSearch_2526_3,,2025.2.4,2026-02-18 12h28.46.109008 +0100,
tilted.xlsx,The target is tilted.,117,7,7,0,0,1,1,1,1,1,1,1,0,0,0,0,1,7,8,117,space,7.552268700000241,None,1,0,0.9821670999999697,None,space,3.3645706999996037,None,0,0,0,0,,,,,0,7,7,5,73.40944949999994,,,,,,,,,,,,,,,,,,,,,73.39442959999997,73.40944949999994,73.89358549999997,73.89827810000043,73.91405420000046,74.91022909999992,,,,,74.91037010000036,74.92566110000007,75.12628339999992,75.10979839999982,73.91405420000046,,,,,,,,1,0,0.9821670999999697,None,,,,,,,,806,21,V,L,2026-02-18_12h28.45.914,VisualSearch_2526_3,,2025.2.4,2026-02-18 12h28.46.109008 +0100,
tilted.xlsx,The target is tilted.,117,8,0,1,1,1,1,1,0,0,0,0,0,0,0,0,0,3,4,117,space,7.552268700000241,None,0,0,1.376601799999662,None,space,3.3645706999996037,None,0,0,0,0,,,,,1,0,8,2,75.12628339999992,,,,,,,,,,,,,,,,,,,,,75.11053569999967,75.12628339999992,75.60994740000024,75.61503319999974,75.62976170000002,77.01001830000041,,,,,77.01021709999986,77.02555579999989,77.22598629999993,77.20997960000022,75.62976170000002,,,,,,,,0,0,1.376601799999662,None,,,,,,,,806,21,V,L,2026-02-18_12h28.45.914,VisualSearch_2526_3,,2025.2.4,2026-02-18 12h28.46.109008 +0100,
tilted.xlsx,The target is tilted.,117,9,1,1,1,1,1,1,1,1,1,1,0,0,0,0,0,7,8,117,space,7.552268700000241,None,1,1,2.581424599999991,None,space,3.3645706999996037,None,0,0,0,0,,,,,1,1,9,1,77.22598629999993,,,,,,,,,,,,,,,,,,,,,77.21082209999986,77.22598629999993,77.70977670000048,77.71442759999991,77.7307563000004,80.32561580000038,,,,,80.3257580999998,80.34159330000057,,80.5258687000005,77.7307563000004,,,,,,,,1,1,2.581424599999991,None,,,,,,,,806,21,V,L,2026-02-18_12h28.45.914,VisualSearch_2526_3,,2025.2.4,2026-02-18 12h28.46.109008 +0100,
tilted.xlsx,The target is tilted.,117,10,2,1,1,0,0,0,0,0,0,0,0,0,0,0,0,0,1,117,space,7.552268700000241,None,1,1,0.5877060999991954,None,space,3.3645706999996037,None,0,0,0,0,,,,,1,2,10,3,80.54225010000027,,,,,,,,,,,,,,,,,,,,,80.52661360000002,80.54225010000027,81.0259059,81.03084349999972,81.04552690000037,81.64266980000048,,,,,81.64282230000026,81.65817650000008,81.8587207999999,81.8420887000002,,,,,,,,,1,1,0.5877060999991954,None,,,,,,,,806,21,V,L,2026-02-18_12h28.45.914,VisualSearch_2526_3,,2025.2.4,2026-02-18 12h28.46.109008 +0100,
tilted.xlsx,The target is tilted.,117,11,3,1,1,1,1,1,1,1,1,1,1,1,1,1,0,11,12,117,space,7.552268700000241,None,1,1,2.2421705000006114,None,space,3.3645706999996037,None,0,0,0,0,,,,,1,3,11,0,81.8587207999999,,,,,,,,,,,,,,,,,,,,,81.84283479999976,81.8587207999999,82.34237380000013,82.3471225000003,82.3643447000004,84.6094678999998,,,,,84.60969980000027,84.6244228000005,84.82492610000008,84.80870469999991,82.3643447000004,,,,,,,,1,1,2.2421705000006114,None,,,,,,,,806,21,V,L,2026-02-18_12h28.45.914,VisualSearch_2526_3,,2025.2.4,2026-02-18 12h28.46.109008 +0100,
tilted.xlsx,The target is tilted.,117,12,4,1,0,0,0,0,0,0,0,0,0,0,0,0,1,1,1,117,space,7.552268700000241,None,0,1,0.7259955999998056,None,space,3.3645706999996037,None,0,0,0,0,,,,,1,4,12,7,84.82492610000008,,,,,,,,,,,,,,,,,,,,,84.8094871000003,84.82492610000008,85.30877310000051,85.31351540000014,85.32859149999967,86.0584858000002,,,,,86.05866909999986,86.0742521000002,86.27463410000018,86.25857499999984,85.32859149999967,,,,,,,,0,1,0.7259955999998056,None,,,,,,,,806,21,V,L,2026-02-18_12h28.45.914,VisualSearch_2526_3,,2025.2.4,2026-02-18 12h28.46.109008 +0100,
tilted.xlsx,The target is tilted.,117,13,5,1,0,1,1,1,0,0,0,0,0,0,0,0,1,3,4,117,space,7.552268700000241,None,0,1,0.6843635999994149,None,space,3.3645706999996037,None,0,0,0,0,,,,,1,5,13,6,86.27463410000018,,,,,,,,,,,,,,,,,,,,,86.25929999999971,86.27463410000018,86.75845159999972,86.763191,86.77820690000044,87.47509420000006,,,,,87.47529779999968,87.49067019999984,87.69077319999997,87.67471159999968,86.77820690000044,,,,,,,,0,1,0.6843635999994149,None,,,,,,,,806,21,V,L,2026-02-18_12h28.45.914,VisualSearch_2526_3,,2025.2.4,2026-02-18 12h28.46.109008 +0100,
tilted.xlsx,The target is tilted.,117,14,6,1,0,1,1,1,1,1,1,1,1,1,1,1,1,11,12,117,space,7.552268700000241,None,1,0,1.6421560999997382,None,space,3.3645706999996037,None,0,0,0,0,,,,,1,6,14,4,87.69077319999997,,,,,,,,,,,,,,,,,,,,,87.67543569999998,87.69077319999997,88.1750578000001,88.18039920000047,88.19502120000016,89.84119180000016,,,,,89.84136560000024,89.85701849999987,90.05712790000052,90.04122939999979,88.19502120000016,,,,,,,,1,0,1.6421560999997382,None,,,,,,,,806,21,V,L,2026-02-18_12h28.45.914,VisualSearch_2526_3,,2025.2.4,2026-02-18 12h28.46.109008 +0100,
tilted.xlsx,The target is tilted.,117,15,7,1,0,1,1,1,1,1,1,1,0,0,0,0,1,7,8,117,space,7.552268700000241,None,1,0,2.0777442000007795,None,space,3.3645706999996037,None,0,0,0,0,,,,,1,7,15,5,90.05712790000052,,,,,,,,,,,,,,,,,,,,,90.04198270000052,90.05712790000052,90.54119559999981,90.54592349999984,90.56025229999977,92.64128249999976,,,,,92.64150539999991,92.65666789999977,92.85717970000042,92.84087189999991,90.56025229999977,,,,,,,,1,0,2.0777442000007795,None,,,,,,,,806,21,V,L,2026-02-18_12h28.45.914,VisualSearch_2526_3,,2025.2.4,2026-02-18 12h28.46.109008 +0100,
tilted.xlsx,The target is tilted.,117,16,0,2,0,0,0,0,0,0,0,0,0,0,0,0,1,1,1,117,space,7.552268700000241,None,0,1,0.592655299999933,None,space,3.3645706999996037,None,0,0,0,0,,,,,2,0,16,7,92.85717970000042,,,,,,,,,,,,,,,,,,,,,92.84161719999975,92.85717970000042,93.34078580000005,93.34551980000015,93.36052180000024,93.95779099999982,,,,,93.9580390000001,93.97309880000012,94.17329429999972,94.15716500000053,93.36052180000024,,,,,,,,0,1,0.592655299999933,None,,,,,,,,806,21,V,L,2026-02-18_12h28.45.914,VisualSearch_2526_3,,2025.2.4,2026-02-18 12h28.46.109008 +0100,
tilted.xlsx,The target is tilted.,117,17,1,2,1,1,1,1,1,1,1,1,0,0,0,0,0,7,8,117,space,7.552268700000241,None,1,1,1.1023887000001196,None,space,3.3645706999996037,None,0,0,0,0,,,,,2,1,17,1,94.17329429999972,,,,,,,,,,,,,,,,,,,,,94.15843630000018,94.17329429999972,94.65751249999994,94.66226410000036,94.67780959999982,95.7908524000004,,,,,95.79103200000009,95.80619990000014,96.00664340000003,95.9902333,94.67780959999982,,,,,,,,1,1,1.1023887000001196,None,,,,,,,,806,21,V,L,2026-02-18_12h28.45.914,VisualSearch_2526_3,,2025.2.4,2026-02-18 12h28.46.109008 +0100,
tilted.xlsx,The target is tilted.,117,18,2,2,1,1,1,1,0,0,0,0,0,0,0,0,0,3,4,117,space,7.552268700000241,None,0,0,0.8757465999997294,None,space,3.3645706999996037,None,0,0,0,0,,,,,2,2,18,2,96.00664340000003,,,,,,,,,,,,,,,,,,,,,95.99095519999992,96.00664340000003,96.49014270000043,96.4948271000003,96.51136430000042,97.38985849999972,,,,,97.38997160000054,97.4058869999999,97.60639790000005,97.59028560000024,96.51136430000042,,,,,,,,0,0,0.8757465999997294,None,,,,,,,,806,21,V,L,2026-02-18_12h28.45.914,VisualSearch_2526_3,,2025.2.4,2026-02-18 12h28.46.109008 +0100,
tilted.xlsx,The target is tilted.,117,19,3,2,0,1,1,1,1,1,1,1,0,0,0,0,1,7,8,117,space,7.552268700000241,None,1,0,0.612611200000174,None,space,3.3645706999996037,None,0,0,0,0,,,,,2,3,19,5,97.60639790000005,,,,,,,,,,,,,,,,,,,,,97.59112449999975,97.60639790000005,98.08987690000049,98.09456399999999,98.10968969999976,98.72399700000005,,,,,98.72419170000012,98.73911000000044,98.93938489999982,98.92338590000054,98.10968969999976,,,,,,,,1,0,0.612611200000174,None,,,,,,,,806,21,V,L,2026-02-18_12h28.45.914,VisualSearch_2526_3,,2025.2.4,2026-02-18 12h28.46.109008 +0100,
tilted.xlsx,The target is tilted.,117,20,4,2,1,0,0,0,0,0,0,0,0,0,0,0,0,0,1,117,space,7.552268700000241,None,1,1,0.5281049999994138,None,space,3.3645706999996037,None,0,0,0,0,,,,,2,4,20,3,98.93938489999982,,,,,,,,,,,,,,,,,,,,,98.92414740000004,98.93938489999982,99.42343739999978,99.42816670000047,99.4434226000003,99.97379530000035,,,,,99.97400410000046,99.98897000000034,100.18930270000055,100.17324989999997,99.4434226000003,,,,,,,,1,1,0.5281049999994138,None,,,,,,,,806,21,V,L,2026-02-18_12h28.45.914,VisualSearch_2526_3,,2025.2.4,2026-02-18 12h28.46.109008 +0100,
tilted.xlsx,The target is tilted.,117,21,5,2,0,1,1,1,1,1,1,1,1,1,1,1,1,11,12,117,space,7.552268700000241,None,1,0,1.6082919000000402,None,space,3.3645706999996037,None,0,0,0,0,,,,,2,5,21,4,100.18930270000055,,,,,,,,,,,,,,,,,,,,,100.17398659999981,100.18930270000055,100.67316449999998,100.67798409999978,100.69396909999978,102.3065228000005,,,,,102.30674799999997,102.32192680000026,102.52245779999976,102.50651430000016,100.69396909999978,,,,,,,,1,0,1.6082919000000402,None,,,,,,,,806,21,V,L,2026-02-18_12h28.45.914,VisualSearch_2526_3,,2025.2.4,2026-02-18 12h28.46.109008 +0100,
tilted.xlsx,The target is tilted.,117,22,6,2,0,1,1,1,0,0,0,0,0,0,0,0,1,3,4,117,space,7.552268700000241,None,0,1,0.8869674999996278,None,space,3.3645706999996037,None,0,0,0,0,,,,,2,6,22,6,102.52245779999976,,,,,,,,,,,,,,,,,,,,,102.50735600000007,102.52245779999976,103.00624049999988,103.01093889999993,103.02686799999992,103.92256170000019,,,,,103.9226647000005,103.9381212999997,104.13846879999983,104.12235070000042,103.02686799999992,,,,,,,,0,1,0.8869674999996278,None,,,,,,,,806,21,V,L,2026-02-18_12h28.45.914,VisualSearch_2526_3,,2025.2.4,2026-02-18 12h28.46.109008 +0100,
tilted.xlsx,The target is tilted.,117,23,7,2,1,1,1,1,1,1,1,1,1,1,1,1,0,11,12,117,space,7.552268700000241,None,1,1,0.8484719999996742,None,space,3.3645706999996037,None,0,0,0,0,,,,,2,7,23,0,104.13846879999983,,,,,,,,,,,,,,,,,,,,,104.12308759999996,104.13846879999983,104.62258130000009,104.62747690000015,104.64109619999999,105.50583590000042,,,,,105.50605059999998,105.52151599999979,105.72158409999975,105.70544340000015,104.64109619999999,,,,,,,,1,1,0.8484719999996742,None,,,,,,,,806,21,V,L,2026-02-18_12h28.45.914,VisualSearch_2526_3,,2025.2.4,2026-02-18 12h28.46.109008 +0100,
tilted.xlsx,The target is tilted.,117,24,0,3,0,1,1,1,1,1,1,1,0,0,0,0,1,7,8,117,space,7.552268700000241,None,1,0,0.5349964999995791,None,space,3.3645706999996037,None,0,0,0,0,,,,,3,0,24,5,105.72158409999975,,,,,,,,,,,,,,,,,,,,,105.70621420000043,105.72158409999975,106.2057947000003,106.2105373000004,106.22510330000023,106.77234279999993,,,,,106.7724946999997,106.7879210000001,106.98846980000053,106.97228780000023,106.22510330000023,,,,,,,,1,0,0.5349964999995791,None,,,,,,,,806,21,V,L,2026-02-18_12h28.45.914,VisualSearch_2526_3,,2025.2.4,2026-02-18 12h28.46.109008 +0100,
tilted.xlsx,The target is tilted.,117,25,1,3,1,0,0,0,0,0,0,0,0,0,0,0,0,0,1,117,space,7.552268700000241,None,1,1,0.469568800000161,None,space,3.3645706999996037,None,0,0,0,0,,,,,3,1,25,3,106.98846980000053,,,,,,,,,,,,,,,,,,,,,106.97301779999998,106.98846980000053,107.47226200000023,107.47681910000028,107.48796560000028,107.97205829999984,,,,,107.97224939999978,107.98765189999995,108.18828409999969,108.17205960000047,107.48796560000028,,,,,,,,1,1,0.469568800000161,None,,,,,,,,806,21,V,L,2026-02-18_12h28.45.914,VisualSearch_2526_3,,2025.2.4,2026-02-18 12h28.46.109008 +0100,
tilted.xlsx,The target is tilted.,117,26,2,3,1,1,1,1,1,1,1,1,1,1,1,1,0,11,12,117,space,7.552268700000241,None,1,1,0.9617466999998214,None,space,3.3645706999996037,None,0,0,0,0,,,,,3,2,26,0,108.18828409999969,,,,,,,,,,,,,,,,,,,,,108.17285189999984,108.18828409999969,108.67179970000052,108.67708380000022,108.69299289999981,109.65579100000014,,,,,109.65596900000037,109.67083430000002,109.87130810000053,109.85527379999985,108.69299289999981,,,,,,,,1,1,0.9617466999998214,None,,,,,,,,806,21,V,L,2026-02-18_12h28.45.914,VisualSearch_2526_3,,2025.2.4,2026-02-18 12h28.46.109008 +0100,
tilted.xlsx,The target is tilted.,117,27,3,3,0,0,0,0,0,0,0,0,0,0,0,0,1,1,1,117,space,7.552268700000241,None,0,1,0.6131412000004275,None,space,3.3645706999996037,None,0,0,0,0,,,,,3,3,27,7,109.87130810000053,,,,,,,,,,,,,,,,,,,,,109.85610610000003,109.87130810000053,110.35544050000044,110.36062500000025,110.37764609999977,111.00513760000013,,,,,111.00533760000053,111.02081780000026,111.22094449999986,111.2052321000001,110.37764609999977,,,,,,,,0,1,0.6131412000004275,None,,,,,,,,806,21,V,L,2026-02-18_12h28.45.914,VisualSearch_2526_3,,2025.2.4,2026-02-18 12h28.46.109008 +0100,
tilted.xlsx,The target is tilted.,117,28,4,3,1,1,1,1,0,0,0,0,0,0,0,0,0,3,4,117,space,7.552268700000241,None,0,0,0.7951689000001352,None,space,3.3645706999996037,None,0,0,0,0,,,,,3,4,28,2,111.22094449999986,,,,,,,,,,,,,,,,,,,,,111.20612510000046,111.22094449999986,111.70495290000054,111.70965510000042,111.7246524000002,112.52204809999967,,,,,112.52224840000054,112.53718310000022,112.73764889999984,112.72132169999986,111.7246524000002,,,,,,,,0,0,0.7951689000001352,None,,,,,,,,806,21,V,L,2026-02-18_12h28.45.914,VisualSearch_2526_3,,2025.2.4,2026-02-18 12h28.46.109008 +0100,
tilted.xlsx,The target is tilted.,117,29,5,3,0,1,1,1,1,1,1,1,1,1,1,1,1,11,12,117,space,7.552268700000241,None,1,0,0.6334428000000116,None,space,3.3645706999996037,None,0,0,0,0,,,,,3,5,29,4,112.73764889999984,,,,,,,,,,,,,,,,,,,,,112.72208049999972,112.73764889999984,113.22133480000048,113.22604620000038,113.24177659999987,113.88799259999996,,,,,113.88820440000018,113.90359420000004,114.10390559999996,114.0877375,113.24177659999987,,,,,,,,1,0,0.6334428000000116,None,,,,,,,,806,21,V,L,2026-02-18_12h28.45.914,VisualSearch_2526_3,,2025.2.4,2026-02-18 12h28.46.109008 +0100,
tilted.xlsx,The target is tilted.,117,30,6,3,0,1,1,1,0,0,0,0,0,0,0,0,1,3,4,117,space,7.552268700000241,None,0,1,0.5885413999994853,None,space,3.3645706999996037,None,0,0,0,0,,,,,3,6,30,6,114.10390559999996,,,,,,,,,,,,,,,,,,,,,114.08847609999975,114.10390559999996,114.58793349999996,114.5925631,114.61021559999972,115.20453629999975,,,,,115.2046750999998,115.22009919999982,115.4203964999997,115.40443950000008,114.61021559999972,,,,,,,,0,1,0.5885413999994853,None,,,,,,,,806,21,V,L,2026-02-18_12h28.45.914,VisualSearch_2526_3,,2025.2.4,2026-02-18 12h28.46.109008 +0100,
tilted.xlsx,The target is tilted.,117,31,7,3,1,1,1,1,1,1,1,1,0,0,0,0,0,7,8,117,space,7.552268700000241,None,1,1,0.5522275999992416,None,space,3.3645706999996037,None,0,0,0,0,,,,,3,7,31,1,115.4203964999997,,,,,,,,,,,,,,,,,,,,,115.40522330000022,115.4203964999997,115.90447190000032,115.90916220000054,115.92430119999972,116.48817280000003,,,,,116.48837300000014,116.50319349999972,116.70367650000026,116.68769330000032,115.92430119999972,,,,,,,,1,1,0.5522275999992416,None,,,,,,,,806,21,V,L,2026-02-18_12h28.45.914,VisualSearch_2526_3,,2025.2.4,2026-02-18 12h28.46.109008 +0100,
tilted.xlsx,The target is tilted.,117,32,0,4,1,1,1,1,1,1,1,1,0,0,0,0,0,7,8,117,space,7.552268700000241,None,1,1,0.569734800000333,None,space,3.3645706999996037,None,0,0,0,0,,,,,4,0,32,1,116.70367650000026,,,,,,,,,,,,,,,,,,,,,116.68841249999969,116.70367650000026,117.18750400000044,117.19213380000019,117.20826920000036,117.78802040000028,,,,,117.78821900000003,117.80308479999985,118.00350669999989,117.9871946000003,117.20826920000036,,,,,,,,1,1,0.569734800000333,None,,,,,,,,806,21,V,L,2026-02-18_12h28.45.914,VisualSearch_2526_3,,2025.2.4,2026-02-18 12h28.46.109008 +0100,
tilted.xlsx,The target is tilted.,117,33,1,4,1,1,1,1,0,0,0,0,0,0,0,0,0,3,4,117,space,7.552268700000241,None,1,1,0.8344430999995893,None,space,3.3645706999996037,None,0,0,0,0,,,,,4,1,33,2,118.00350669999989,,,,,,,,,,,,,,,,,,,,,117.9878574000004,118.00350669999989,118.48699959999976,118.49165470000025,118.50619300000017,119.35299320000013,,,,,119.35312280000016,119.36947719999989,,119.55324230000042,118.50619300000017,,,,,,,,1,1,0.8344430999995893,None,,,,,,,,806,21,V,L,2026-02-18_12h28.45.914,VisualSearch_2526_3,,2025.2.4,2026-02-18 12h28.46.109008 +0100,
tilted.xlsx,The target is tilted.,117,34,2,4,1,1,1,1,1,1,1,1,1,1,1,1,0,11,12,117,space,7.552268700000241,None,1,1,0.9511595000003581,None,space,3.3645706999996037,None,0,0,0,0,,,,,4,2,34,0,119.56955999999991,,,,,,,,,,,,,,,,,,,,,119.55397950000042,119.56955999999991,120.0534233999997,120.05823740000051,120.07343140000012,121.03753589999997,,,,,121.0377526000002,121.05256759999975,121.25287899999967,121.23693360000016,120.07343140000012,,,,,,,,1,1,0.9511595000003581,None,,,,,,,,806,21,V,L,2026-02-18_12h28.45.914,VisualSearch_2526_3,,2025.2.4,2026-02-18 12h28.46.109008 +0100,
tilted.xlsx,The target is tilted.,117,35,3,4,0,0,0,0,0,0,0,0,0,0,0,0,1,1,1,117,space,7.552268700000241,None,0,1,0.5314141999997446,None,space,3.3645706999996037,None,0,0,0,0,,,,,4,3,35,7,121.25287899999967,,,,,,,,,,,,,,,,,,,,,121.23767529999986,121.25287899999967,121.73696670000027,121.74161790000016,121.7577769999998,122.30326380000042,,,,,122.30335530000048,122.31879800000024,122.51947269999982,122.5036239000001,121.7577769999998,,,,,,,,0,1,0.5314141999997446,None,,,,,,,,806,21,V,L,2026-02-18_12h28.45.914,VisualSearch_2526_3,,2025.2.4,2026-02-18 12h28.46.109008 +0100,
tilted.xlsx,The target is tilted.,117,36,4,4,0,1,1,1,1,1,1,1,1,1,1,1,1,11,12,117,space,7.552268700000241,None,1,0,0.47057779999977356,None,space,3.3645706999996037,None,0,0,0,0,,,,,4,4,36,4,122.51947269999982,,,,,,,,,,,,,,,,,,,,,122.50442620000013,122.51947269999982,123.00336059999972,123.00799989999996,123.0238105999997,123.50388010000006,,,,,123.50407919999998,123.51898660000006,123.71945800000049,123.70291400000042,123.0238105999997,,,,,,,,1,0,0.47057779999977356,None,,,,,,,,806,21,V,L,2026-02-18_12h28.45.914,VisualSearch_2526_3,,2025.2.4,2026-02-18 12h28.46.109008 +0100,
tilted.xlsx,The target is tilted.,117,37,5,4,0,1,1,1,1,1,1,1,0,0,0,0,1,7,8,117,space,7.552268700000241,None,1,0,1.325843999999961,None,space,3.3645706999996037,None,0,0,0,0,,,,,4,5,37,5,123.71945800000049,,,,,,,,,,,,,,,,,,,,,123.70366759999979,123.71945800000049,124.2031893000003,124.20773160000044,124.21886160000031,125.55342800000017,,,,,125.5536075,125.5686340000002,125.76910490000046,125.75255800000014,124.21886160000031,,,,,,,,1,0,1.325843999999961,None,,,,,,,,806,21,V,L,2026-02-18_12h28.45.914,VisualSearch_2526_3,,2025.2.4,2026-02-18 12h28.46.109008 +0100,
tilted.xlsx,The target is tilted.,117,38,6,4,0,1,1,1,0,0,0,0,0,0,0,0,1,3,4,117,space,7.552268700000241,None,0,1,0.7417866000005233,None,space,3.3645706999996037,None,0,0,0,0,,,,,4,6,38,6,125.76910490000046,,,,,,,,,,,,,,,,,,,,,125.75329030000012,125.76910490000046,126.2530525000002,126.25812760000008,126.27394660000027,127.02069829999982,,,,,127.02090730000054,127.03513010000006,127.23556319999989,127.21937350000007,126.27394660000027,,,,,,,,0,1,0.7417866000005233,None,,,,,,,,806,21,V,L,2026-02-18_12h28.45.914,VisualSearch_2526_3,,2025.2.4,2026-02-18 12h28.46.109008 +0100,
tilted.xlsx,The target is tilted.,117,39,7,4,1,0,0,0,0,0,0,0,0,0,0,0,0,0,1,117,space,7.552268700000241,None,1,1,0.4935974999998507,None,space,3.3645706999996037,None,0,0,0,0,,,,,4,7,39,3,127.23556319999989,,,,,,,,,,,,,,,,,,,,,127.22013969999989,127.23556319999989,127.71945020000021,127.72405619999972,127.73926940000001,128.23615830000017,,,,,128.23635999999988,128.25159030000032,128.45197110000026,128.43587949999983,127.73926940000001,,,,,,,,1,1,0.4935974999998507,None,,,,,,,,806,21,V,L,2026-02-18_12h28.45.914,VisualSearch_2526_3,,2025.2.4,2026-02-18 12h28.46.109008 +0100,
tilted.xlsx,The target is tilted.,117,40,0,5,0,1,1,1,1,1,1,1,1,1,1,1,1,11,12,117,space,7.552268700000241,None,1,0,0.8016216999994867,None,space,3.3645706999996037,None,0,0,0,0,,,,,5,0,40,4,128.45197110000026,,,,,,,,,,,,,,,,,,,,,128.43669229999978,128.45197110000026,128.9357001999997,128.9404771999998,128.95512899999994,129.76864149999983,,,,,129.7687808999999,129.7846771000004,,129.96892279999975,128.95512899999994,,,,,,,,1,0,0.8016216999994867,None,,,,,,,,806,21,V,L,2026-02-18_12h28.45.914,VisualSearch_2526_3,,2025.2.4,2026-02-18 12h28.46.109008 +0100,
tilted.xlsx,The target is tilted.,117,41,1,5,0,1,1,1,0,0,0,0,0,0,0,0,1,3,4,117,space,7.552268700000241,None,0,1,0.7632336999995459,None,space,3.3645706999996037,None,0,0,0,0,,,,,5,1,41,6,129.9851832000004,,,,,,,,,,,,,,,,,,,,,129.9696898000002,129.9851832000004,130.46896019999986,130.4736585999999,130.48849249999967,131.2688530000005,,,,,131.2691047999997,131.284584,131.48447990000022,131.46839460000047,130.48849249999967,,,,,,,,0,1,0.7632336999995459,None,,,,,,,,806,21,V,L,2026-02-18_12h28.45.914,VisualSearch_2526_3,,2025.2.4,2026-02-18 12h28.46.109008 +0100,
tilted.xlsx,The target is tilted.,117,42,2,5,1,1,1,1,1,1,1,1,1,1,1,1,0,11,12,117,space,7.552268700000241,None,1,1,0.5230626000002303,None,space,3.3645706999996037,None,0,0,0,0,,,,,5,2,42,0,131.48447990000022,,,,,,,,,,,,,,,,,,,,,131.46913909999967,131.48447990000022,131.96880510000028,131.97343660000024,131.98883840000053,132.51867420000053,,,,,132.5187949000001,132.53425909999987,132.73479190000035,132.7186432999997,131.98883840000053,,,,,,,,1,1,0.5230626000002303,None,,,,,,,,806,21,V,L,2026-02-18_12h28.45.914,VisualSearch_2526_3,,2025.2.4,2026-02-18 12h28.46.109008 +0100,
tilted.xlsx,The target is tilted.,117,43,3,5,1,0,0,0,0,0,0,0,0,0,0,0,0,0,1,117,space,7.552268700000241,None,1,1,0.5030845000001136,None,space,3.3645706999996037,None,0,0,0,0,,,,,5,3,43,3,132.73479190000035,,,,,,,,,,,,,,,,,,,,,132.71937660000003,132.73479190000035,133.21860809999998,133.2231302,133.23965680000038,133.75233620000017,,,,,133.75253900000007,133.76747299999988,133.96785790000013,133.9517338000005,133.23965680000038,,,,,,,,1,1,0.5030845000001136,None,,,,,,,,806,21,V,L,2026-02-18_12h28.45.914,VisualSearch_2526_3,,2025.2.4,2026-02-18 12h28.46.109008 +0100,
tilted.xlsx,The target is tilted.,117,44,4,5,0,1,1,1,1,1,1,1,0,0,0,0,1,7,8,117,space,7.552268700000241,None,1,0,0.870429100000365,None,space,3.3645706999996037,None,0,0,0,0,,,,,5,4,44,5,133.96785790000013,,,,,,,,,,,,,,,,,,,,,133.95252700000037,133.96785790000013,134.45185450000008,134.45696839999982,134.46989759999997,135.35135549999995,,,,,135.35146299999997,135.3671417000005,135.5677673,135.5514493999999,134.46989759999997,,,,,,,,1,0,0.870429100000365,None,,,,,,,,806,21,V,L,2026-02-18_12h28.45.914,VisualSearch_2526_3,,2025.2.4,2026-02-18 12h28.46.109008 +0100,
tilted.xlsx,The target is tilted.,117,45,5,5,1,1,1,1,1,1,1,1,0,0,0,0,0,7,8,117,space,7.552268700000241,None,1,1,0.6065369000007195,None,space,3.3645706999996037,None,0,0,0,0,,,,,5,5,45,1,135.5677673,,,,,,,,,,,,,,,,,,,,,135.5521791000001,135.5677673,136.05141090000052,136.05615130000024,136.07102060000034,136.68493970000054,,,,,136.68514060000052,136.7004753000001,136.90077740000015,136.8847536000003,136.07102060000034,,,,,,,,1,1,0.6065369000007195,None,,,,,,,,806,21,V,L,2026-02-18_12h28.45.914,VisualSearch_2526_3,,2025.2.4,2026-02-18 12h28.46.109008 +0100,
tilted.xlsx,The target is tilted.,117,46,6,5,1,1,1,1,0,0,0,0,0,0,0,0,0,3,4,117,space,7.552268700000241,None,1,1,0.4364389999991545,None,space,3.3645706999996037,None,0,0,0,0,,,,,5,6,46,2,136.90077740000015,,,,,,,,,,,,,,,,,,,,,136.8855179000002,136.90077740000015,137.38464149999982,137.3892074000005,137.40028369999982,137.85121590000017,,,,,137.8514599,137.86686460000055,138.06736749999982,138.05113470000015,137.40028369999982,,,,,,,,1,1,0.4364389999991545,None,,,,,,,,806,21,V,L,2026-02-18_12h28.45.914,VisualSearch_2526_3,,2025.2.4,2026-02-18 12h28.46.109008 +0100,
tilted.xlsx,The target is tilted.,117,47,7,5,0,0,0,0,0,0,0,0,0,0,0,0,1,1,1,117,space,7.552268700000241,None,0,1,0.48991900000055466,None,space,3.3645706999996037,None,0,0,0,0,,,,,5,7,47,7,138.06736749999982,,,,,,,,,,,,,,,,,,,,,138.0518873000001,138.06736749999982,138.5509248999997,138.55609470000036,138.57545290000053,139.06842940000024,,,,,139.06863609999982,139.08338999999978,139.28386310000042,139.26791000000048,138.57545290000053,,,,,,,,0,1,0.48991900000055466,None,,,,,,,,806,21,V,L,2026-02-18_12h28.45.914,VisualSearch_2526_3,,2025.2.4,2026-02-18 12h28.46.109008 +0100,
tilted.xlsx,The target is tilted.,117,48,0,6,1,0,0,0,0,0,0,0,0,0,0,0,0,0,1,117,space,7.552268700000241,None,1,1,0.5193903999997929,None,space,3.3645706999996037,None,0,0,0,0,,,,,6,0,48,3,139.28386310000042,,,,,,,,,,,,,,,,,,,,,139.2687281999997,139.28386310000042,139.7678575,139.77285370000027,139.78757479999967,140.31802380000045,,,,,140.3182071000001,140.33322800000042,140.5336481000004,140.51753579999968,139.78757479999967,,,,,,,,1,1,0.5193903999997929,None,,,,,,,,806,21,V,L,2026-02-18_12h28.45.914,VisualSearch_2526_3,,2025.2.4,2026-02-18 12h28.46.109008 +0100,
tilted.xlsx,The target is tilted.,117,49,1,6,0,1,1,1,1,1,1,1,0,0,0,0,1,7,8,117,space,7.552268700000241,None,1,0,1.7265762000006362,None,space,3.3645706999996037,None,0,0,0,0,,,,,6,1,49,5,140.5336481000004,,,,,,,,,,,,,,,,,,,,,140.51827279999998,140.5336481000004,141.01742190000004,141.0220489000003,141.03526150000016,142.7682160000004,,,,,142.76842719999968,142.78286279999975,142.98336139999992,142.9670489,141.03526150000016,,,,,,,,1,0,1.7265762000006362,None,,,,,,,,806,21,V,L,2026-02-18_12h28.45.914,VisualSearch_2526_3,,2025.2.4,2026-02-18 12h28.46.109008 +0100,
tilted.xlsx,The target is tilted.,117,50,2,6,1,1,1,1,0,0,0,0,0,0,0,0,0,3,4,117,space,7.552268700000241,None,1,1,0.4239459000000352,None,space,3.3645706999996037,None,0,0,0,0,,,,,6,2,50,2,142.98336139999992,,,,,,,,,,,,,,,,,,,,,142.96778240000003,142.98336139999992,143.46675700000014,143.4714614000004,143.48635639999975,143.91755759999978,,,,,143.91775490000055,143.93269979999968,144.1327412999999,144.1166075000001,143.48635639999975,,,,,,,,1,1,0.4239459000000352,None,,,,,,,,806,21,V,L,2026-02-18_12h28.45.914,VisualSearch_2526_3,,2025.2.4,2026-02-18 12h28.46.109008 +0100,
tilted.xlsx,The target is tilted.,117,51,3,6,1,1,1,1,1,1,1,1,1,1,1,1,0,11,12,117,space,7.552268700000241,None,1,1,1.4274175000000469,None,space,3.3645706999996037,None,0,0,0,0,,,,,6,3,51,0,144.1327412999999,,,,,,,,,,,,,,,,,,,,,144.1173488000004,144.1327412999999,144.6170976000003,144.6224000000002,144.6361310000002,146.06693610000002,,,,,146.06713620000028,146.08237139999983,146.28281349999997,146.26670209999975,144.6361310000002,,,,,,,,1,1,1.4274175000000469,None,,,,,,,,806,21,V,L,2026-02-18_12h28.45.914,VisualSearch_2526_3,,2025.2.4,2026-02-18 12h28.46.109008 +0100,
tilted.xlsx,The target is tilted.,117,52,4,6,0,1,1,1,0,0,0,0,0,0,0,0,1,3,4,117,space,7.552268700000241,None,0,1,0.8231662999996843,None,space,3.3645706999996037,None,0,0,0,0,,,,,6,4,52,6,146.28281349999997,,,,,,,,,,,,,,,,,,,,,146.26742980000017,146.28281349999997,146.76665520000006,146.77143140000044,146.7859752000004,147.61711670000022,,,,,147.61731469999995,147.63224009999976,147.83224940000036,147.8162881999997,146.7859752000004,,,,,,,,0,1,0.8231662999996843,None,,,,,,,,806,21,V,L,2026-02-18_12h28.45.914,VisualSearch_2526_3,,2025.2.4,2026-02-18 12h28.46.109008 +0100,
tilted.xlsx,The target is tilted.,117,53,5,6,1,1,1,1,1,1,1,1,0,0,0,0,0,7,8,117,space,7.552268700000241,None,0,0,0.5855714999997872,None,space,3.3645706999996037,None,0,0,0,0,,,,,6,5,53,1,147.83224940000036,,,,,,,,,,,,,,,,,,,,,147.81699840000056,147.83224940000036,148.31599180000012,148.31906299999991,148.33209970000007,148.9330719999998,,,,,148.93327300000055,148.9486268999999,149.1492960000005,149.13328170000023,148.33209970000007,,,,,,,,0,0,0.5855714999997872,None,,,,,,,,806,21,V,L,2026-02-18_12h28.45.914,VisualSearch_2526_3,,2025.2.4,2026-02-18 12h28.46.109008 +0100,
tilted.xlsx,The target is tilted.,117,54,6,6,0,0,0,0,0,0,0,0,0,0,0,0,1,1,1,117,space,7.552268700000241,None,0,1,0.639307700000245,None,space,3.3645706999996037,None,0,0,0,0,,,,,6,6,54,7,149.1492960000005,,,,,,,,,,,,,,,,,,,,,149.1341534000003,149.1492960000005,149.6329936000002,149.63760679999996,149.64895950000027,150.30017020000014,,,,,150.30039300000044,150.31513859999995,150.51560729999983,150.49913079999988,149.64895950000027,,,,,,,,0,1,0.639307700000245,None,,,,,,,,806,21,V,L,2026-02-18_12h28.45.914,VisualSearch_2526_3,,2025.2.4,2026-02-18 12h28.46.109008 +0100,
tilted.xlsx,The target is tilted.,117,55,7,6,0,1,1,1,1,1,1,1,1,1,1,1,1,11,12,117,space,7.552268700000241,None,1,0,1.1967586999999185,None,space,3.3645706999996037,None,0,0,0,0,,,,,6,7,55,4,150.51560729999983,,,,,,,,,,,,,,,,,,,,,150.49986470000022,150.51560729999983,150.9995202,151.00412630000028,151.01993719999973,152.23244090000026,,,,,152.23262369999975,152.24817880000046,152.4485083999998,152.43236290000004,151.01993719999973,,,,,,,,1,0,1.1967586999999185,None,,,,,,,,806,21,V,L,2026-02-18_12h28.45.914,VisualSearch_2526_3,,2025.2.4,2026-02-18 12h28.46.109008 +0100,
tilted.xlsx,The target is tilted.,117,56,0,7,0,1,1,1,1,1,1,1,0,0,0,0,1,7,8,117,space,7.552268700000241,None,1,0,0.8476905999996234,None,space,3.3645706999996037,None,0,0,0,0,,,,,7,0,56,5,152.4485083999998,,,,,,,,,,,,,,,,,,,,,152.43323800000053,152.4485083999998,152.93235559999994,152.93708760000027,152.95228719999977,153.81523319999997,,,,,153.81537050000043,153.83128110000052,,154.01546810000036,152.95228719999977,,,,,,,,1,0,0.8476905999996234,None,,,,,,,,806,21,V,L,2026-02-18_12h28.45.914,VisualSearch_2526_3,,2025.2.4,2026-02-18 12h28.46.109008 +0100,
tilted.xlsx,The target is tilted.,117,57,1,7,0,1,1,1,1,1,1,1,1,1,1,1,1,11,12,117,space,7.552268700000241,None,0,1,1.0259806000003664,None,space,3.3645706999996037,None,0,0,0,0,,,,,7,1,57,4,154.0317401000002,,,,,,,,,,,,,,,,,,,,,154.01632789999985,154.0317401000002,154.5156465,154.52015949999986,154.53733360000024,155.56532719999996,,,,,155.56545209999967,155.58097700000053,155.78144840000004,155.76558920000025,154.53733360000024,,,,,,,,0,1,1.0259806000003664,None,,,,,,,,806,21,V,L,2026-02-18_12h28.45.914,VisualSearch_2526_3,,2025.2.4,2026-02-18 12h28.46.109008 +0100,
tilted.xlsx,The target is tilted.,117,58,2,7,0,1,1,1,0,0,0,0,0,0,0,0,1,3,4,117,space,7.552268700000241,None,0,1,0.6720751000002565,None,space,3.3645706999996037,None,0,0,0,0,,,,,7,2,58,6,155.78144840000004,,,,,,,,,,,,,,,,,,,,,155.76644130000022,155.78144840000004,156.26542690000042,156.27034920000006,156.2850951999999,156.96569240000008,,,,,156.96589510000013,156.9808998999997,157.18128979999983,157.16520500000024,156.2850951999999,,,,,,,,0,1,0.6720751000002565,None,,,,,,,,806,21,V,L,2026-02-18_12h28.45.914,VisualSearch_2526_3,,2025.2.4,2026-02-18 12h28.46.109008 +0100,
tilted.xlsx,The target is tilted.,117,59,3,7,1,1,1,1,0,0,0,0,0,0,0,0,0,3,4,117,space,7.552268700000241,None,1,1,0.4475951999993413,None,space,3.3645706999996037,None,0,0,0,0,,,,,7,3,59,2,157.18128979999983,,,,,,,,,,,,,,,,,,,,,157.16597439999987,157.18128979999983,157.66513860000032,157.6698518000003,157.68485229999987,158.14843070000006,,,,,158.14862960000028,158.1640182000001,158.36445040000035,158.34831790000044,157.68485229999987,,,,,,,,1,1,0.4475951999993413,None,,,,,,,,806,21,V,L,2026-02-18_12h28.45.914,VisualSearch_2526_3,,2025.2.4,2026-02-18 12h28.46.109008 +0100,
tilted.xlsx,The target is tilted.,117,60,4,7,1,1,1,1,1,1,1,1,1,1,1,1,0,11,12,117,space,7.552268700000241,None,0,0,0.8813186999996105,None,space,3.3645706999996037,None,0,0,0,0,,,,,7,4,60,0,158.36445040000035,,,,,,,,,,,,,,,,,,,,,158.34904350000033,158.36445040000035,158.84849899999972,158.8536254999999,158.86844100000053,159.76481169999988,,,,,159.76501050000024,159.7804441999997,159.98089530000016,159.96467420000045,158.86844100000053,,,,,,,,0,0,0.8813186999996105,None,,,,,,,,806,21,V,L,2026-02-18_12h28.45.914,VisualSearch_2526_3,,2025.2.4,2026-02-18 12h28.46.109008 +0100,
tilted.xlsx,The target is tilted.,117,61,5,7,1,1,1,1,1,1,1,1,0,0,0,0,0,7,8,117,space,7.552268700000241,None,1,1,0.4882880000004661,None,space,3.3645706999996037,None,0,0,0,0,,,,,7,5,61,1,159.98089530000016,,,,,,,,,,,,,,,,,,,,,159.96540710000045,159.98089530000016,160.46471759999986,160.4693526000001,160.48650069999985,160.9817447000005,,,,,160.98193999999967,160.99696930000027,161.19743290000042,161.18118649999997,160.48650069999985,,,,,,,,1,1,0.4882880000004661,None,,,,,,,,806,21,V,L,2026-02-18_12h28.45.914,VisualSearch_2526_3,,2025.2.4,2026-02-18 12h28.46.109008 +0100,
tilted.xlsx,The target is tilted.,117,62,6,7,1,0,0,0,0,0,0,0,0,0,0,0,0,0,1,117,space,7.552268700000241,None,1,1,0.6273479999999836,None,space,3.3645706999996037,None,0,0,0,0,,,,,7,6,62,3,161.19743290000042,,,,,,,,,,,,,,,,,,,,,161.18194420000054,161.19743290000042,161.68082349999986,161.68539770000007,161.70265860000018,162.3315794,,,,,162.33177309999974,162.34676300000046,162.5472494000005,162.53077209999992,161.70265860000018,,,,,,,,1,1,0.6273479999999836,None,,,,,,,,806,21,V,L,2026-02-18_12h28.45.914,VisualSearch_2526_3,,2025.2.4,2026-02-18 12h28.46.109008 +0100,
tilted.xlsx,The target is tilted.,117,63,7,7,0,0,0,0,0,0,0,0,0,0,0,0,1,1,1,117,space,7.552268700000241,None,0,1,0.50417170000037,None,space,3.3645706999996037,None,0,0,0,0,,,,,7,7,63,7,162.5472494000005,,,,,,,,,,,,,,,,,,,,,162.53152219999993,162.5472494000005,163.0309643999999,163.0363470000002,163.0507021000003,163.56485410000005,,,,,163.5650482000001,163.57988600000044,163.7804154000005,163.76441870000053,163.0507021000003,,,,,,,,0,1,0.50417170000037,None,,,,,,,,806,21,V,L,2026-02-18_12h28.45.914,VisualSearch_2526_3,,2025.2.4,2026-02-18 12h28.46.109008 +0100,
tilted.xlsx,The target is tilted.,117,64,0,8,0,1,1,1,0,0,0,0,0,0,0,0,1,3,4,117,space,7.552268700000241,None,0,1,0.7176828000001478,None,space,3.3645706999996037,None,0,0,0,0,,,,,8,0,64,6,163.7804154000005,,,,,,,,,,,,,,,,,,,,,163.7652119000004,163.7804154000005,164.26420580000013,164.26875560000008,164.28403619999972,165.01406980000047,,,,,165.0142777000001,165.02970360000018,165.2301354000001,165.21373380000023,164.28403619999972,,,,,,,,0,1,0.7176828000001478,None,,,,,,,,806,21,V,L,2026-02-18_12h28.45.914,VisualSearch_2526_3,,2025.2.4,2026-02-18 12h28.46.109008 +0100,
tilted.xlsx,The target is tilted.,117,65,1,8,0,0,0,0,0,0,0,0,0,0,0,0,1,1,1,117,space,7.552268700000241,None,0,1,0.5030294000007416,None,space,3.3645706999996037,None,0,0,0,0,,,,,8,1,65,7,165.2301354000001,,,,,,,,,,,,,,,,,,,,,165.21445510000012,165.2301354000001,165.71399199999996,165.71893180000006,165.73445170000014,166.24779579999995,,,,,166.24799020000046,166.26287000000048,166.46296100000018,166.44694030000028,165.73445170000014,,,,,,,,0,1,0.5030294000007416,None,,,,,,,,806,21,V,L,2026-02-18_12h28.45.914,VisualSearch_2526_3,,2025.2.4,2026-02-18 12h28.46.109008 +0100,
tilted.xlsx,The target is tilted.,117,66,2,8,1,1,1,1,0,0,0,0,0,0,0,0,0,3,4,117,space,7.552268700000241,None,1,1,0.7638689999994313,None,space,3.3645706999996037,None,0,0,0,0,,,,,8,2,66,2,166.46296100000018,,,,,,,,,,,,,,,,,,,,,166.44764959999975,166.46296100000018,166.9470996,166.95175240000026,166.9670057000003,167.74658679999993,,,,,167.74672360000022,167.76266970000052,167.9631414000005,167.94695190000039,166.9670057000003,,,,,,,,1,1,0.7638689999994313,None,,,,,,,,806,21,V,L,2026-02-18_12h28.45.914,VisualSearch_2526_3,,2025.2.4,2026-02-18 12h28.46.109008 +0100,
tilted.xlsx,The target is tilted.,117,67,3,8,0,1,1,1,1,1,1,1,1,1,1,1,1,11,12,117,space,7.552268700000241,None,0,1,0.5340461999994659,None,space,3.3645706999996037,None,0,0,0,0,,,,,8,3,67,4,167.9631414000005,,,,,,,,,,,,,,,,,,,,,167.94771020000007,167.9631414000005,168.44686770000044,168.45189260000006,168.46878949999973,169.01389519999975,,,,,169.01406889999998,169.02915440000015,169.22949309999967,169.2133855000002,,,,,,,,,0,1,0.5340461999994659,None,,,,,,,,806,21,V,L,2026-02-18_12h28.45.914,VisualSearch_2526_3,,2025.2.4,2026-02-18 12h28.46.109008 +0100,
tilted.xlsx,The target is tilted.,117,68,4,8,0,1,1,1,1,1,1,1,0,0,0,0,1,7,8,117,space,7.552268700000241,None,0,1,0.7395657000006395,None,space,3.3645706999996037,None,0,0,0,0,,,,,8,4,68,5,169.22949309999967,,,,,,,,,,,,,,,,,,,,,169.2141400999999,169.22949309999967,169.71331460000056,169.7179802999999,169.73292110000057,170.48007750000033,,,,,170.4802150000005,170.49562349999997,170.69611890000033,170.68012129999988,169.73292110000057,,,,,,,,0,1,0.7395657000006395,None,,,,,,,,806,21,V,L,2026-02-18_12h28.45.914,VisualSearch_2526_3,,2025.2.4,2026-02-18 12h28.46.109008 +0100,
tilted.xlsx,The target is tilted.,117,69,5,8,1,1,1,1,1,1,1,1,0,0,0,0,0,7,8,117,space,7.552268700000241,None,1,1,0.5688172999998642,None,space,3.3645706999996037,None,0,0,0,0,,,,,8,5,69,1,170.69611890000033,,,,,,,,,,,,,,,,,,,,,170.68091980000008,170.69611890000033,171.1798858000002,171.1843901000002,171.20179449999978,171.77980300000036,,,,,171.7799930000001,171.79544150000038,171.99577279999994,171.97969879999982,171.20179449999978,,,,,,,,1,1,0.5688172999998642,None,,,,,,,,806,21,V,L,2026-02-18_12h28.45.914,VisualSearch_2526_3,,2025.2.4,2026-02-18 12h28.46.109008 +0100,
tilted.xlsx,The target is tilted.,117,70,6,8,1,1,1,1,1,1,1,1,1,1,1,1,0,11,12,117,space,7.552268700000241,None,1,1,0.42340299999978015,None,space,3.3645706999996037,None,0,0,0,0,,,,,8,6,70,0,171.99577279999994,,,,,,,,,,,,,,,,,,,,,171.98045309999998,171.99577279999994,172.47974410000006,172.48443060000045,172.4994125000003,172.9294050999997,,,,,172.92954650000047,172.9452836999999,173.1456248000004,173.12933179999982,172.4994125000003,,,,,,,,1,1,0.42340299999978015,None,,,,,,,,806,21,V,L,2026-02-18_12h28.45.914,VisualSearch_2526_3,,2025.2.4,2026-02-18 12h28.46.109008 +0100,
tilted.xlsx,The target is tilted.,117,71,7,8,1,0,0,0,0,0,0,0,0,0,0,0,0,0,1,117,space,7.552268700000241,None,1,1,0.42471279999972467,None,space,3.3645706999996037,None,0,0,0,0,,,,,8,7,71,3,173.1456248000004,,,,,,,,,,,,,,,,,,,,,173.13005900000007,173.1456248000004,173.6296309999998,173.63424099999975,173.64909739999985,174.07989720000023,,,,,174.08008570000038,174.09510789999968,174.2956804000005,174.27970679999999,173.64909739999985,,,,,,,,1,1,0.42471279999972467,None,,,,,,,,806,21,V,L,2026-02-18_12h28.45.914,VisualSearch_2526_3,,2025.2.4,2026-02-18 12h28.46.109008 +0100,
tilted.xlsx,The target is tilted.,117,72,0,9,0,1,1,1,1,1,1,1,1,1,1,1,1,11,12,117,space,7.552268700000241,None,0,1,0.4991985000006025,None,space,3.3645706999996037,None,0,0,0,0,,,,,9,0,72,4,174.2956804000005,,,,,,,,,,,,,,,,,,,,,174.28054520000023,174.2956804000005,174.77941120000014,174.7839683000002,174.79892780000046,175.3126242999997,,,,,175.31281940000008,175.32827129999987,175.5285001000002,175.51234329999988,174.79892780000046,,,,,,,,0,1,0.4991985000006025,None,,,,,,,,806,21,V,L,2026-02-18_12h28.45.914,VisualSearch_2526_3,,2025.2.4,2026-02-18 12h28.46.109008 +0100,
tilted.xlsx,The target is tilted.,117,73,1,9,1,1,1,1,1,1,1,1,0,0,0,0,0,7,8,117,space,7.552268700000241,None,1,1,0.6943338999999469,None,space,3.3645706999996037,None,0,0,0,0,,,,,9,1,73,1,175.5285001000002,,,,,,,,,,,,,,,,,,,,,175.5135521000002,175.5285001000002,176.01253859999997,176.01715250000052,176.0353057000002,176.74579259999973,,,,,176.7459858000002,176.76139719999992,176.96173180000005,176.94560920000004,176.0353057000002,,,,,,,,1,1,0.6943338999999469,None,,,,,,,,806,21,V,L,2026-02-18_12h28.45.914,VisualSearch_2526_3,,2025.2.4,2026-02-18 12h28.46.109008 +0100,
tilted.xlsx,The target is tilted.,117,74,2,9,0,1,1,1,1,1,1,1,0,0,0,0,1,7,8,117,space,7.552268700000241,None,0,1,1.6125553000001673,None,space,3.3645706999996037,None,0,0,0,0,,,,,9,2,74,5,176.96173180000005,,,,,,,,,,,,,,,,,,,,,176.94636979999996,176.96173180000005,177.4455949000003,177.45028189999994,177.46365940000032,179.07942980000007,,,,,179.07964549999997,179.09443139999985,179.29481000000033,179.27838880000036,177.46365940000032,,,,,,,,0,1,1.6125553000001673,None,,,,,,,,806,21,V,L,2026-02-18_12h28.45.914,VisualSearch_2526_3,,2025.2.4,2026-02-18 12h28.46.109008 +0100,
tilted.xlsx,The target is tilted.,117,75,3,9,1,1,1,1,1,1,1,1,1,1,1,1,0,11,12,117,space,7.552268700000241,None,1,1,1.0149266999997053,None,space,3.3645706999996037,None,0,0,0,0,,,,,9,3,75,0,179.29481000000033,,,,,,,,,,,,,,,,,,,,,179.27913590000026,179.29481000000033,179.7782072,179.7827729999999,179.79734550000012,180.8286466999998,,,,,180.8288696999998,180.84405470000002,181.0445824999997,181.02847470000052,179.79734550000012,,,,,,,,1,1,1.0149266999997053,None,,,,,,,,806,21,V,L,2026-02-18_12h28.45.914,VisualSearch_2526_3,,2025.2.4,2026-02-18 12h28.46.109008 +0100,
tilted.xlsx,The target is tilted.,117,76,4,9,1,1,1,1,0,0,0,0,0,0,0,0,0,3,4,117,space,7.552268700000241,None,1,1,1.0531010000004244,None,space,3.3645706999996037,None,0,0,0,0,,,,,9,4,76,2,181.0445824999997,,,,,,,,,,,,,,,,,,,,,181.0291868000004,181.0445824999997,181.5283486999997,181.5328715000005,181.54780399999981,182.61206910000055,,,,,182.61226090000036,182.6272160999997,182.82747279999967,182.81130440000015,181.54780399999981,,,,,,,,1,1,1.0531010000004244,None,,,,,,,,806,21,V,L,2026-02-18_12h28.45.914,VisualSearch_2526_3,,2025.2.4,2026-02-18 12h28.46.109008 +0100,
tilted.xlsx,The target is tilted.,117,77,5,9,1,0,0,0,0,0,0,0,0,0,0,0,0,0,1,117,space,7.552268700000241,None,1,1,0.6970509000002494,None,space,3.3645706999996037,None,0,0,0,0,,,,,9,5,77,3,182.82747279999967,,,,,,,,,,,,,,,,,,,,,182.8120461999997,182.82747279999967,183.31108980000045,183.31375509999998,183.32755700000052,184.02892450000036,,,,,184.02920679999988,184.04381680000006,184.24421559999973,184.2280265999998,183.32755700000052,,,,,,,,1,1,0.6970509000002494,None,,,,,,,,806,21,V,L,2026-02-18_12h28.45.914,VisualSearch_2526_3,,2025.2.4,2026-02-18 12h28.46.109008 +0100,
tilted.xlsx,The target is tilted.,117,78,6,9,0,0,0,0,0,0,0,0,0,0,0,0,1,1,1,117,space,7.552268700000241,None,0,1,0.511128699999972,None,space,3.3645706999996037,None,0,0,0,0,,,,,9,6,78,7,184.24421559999973,,,,,,,,,,,,,,,,,,,,,184.2287223000003,184.24421559999973,184.72788349999973,184.73242000000027,184.74839470000006,185.26173339999968,,,,,185.2619365999999,185.2768348999998,185.47726030000013,185.46096190000026,184.74839470000006,,,,,,,,0,1,0.511128699999972,None,,,,,,,,806,21,V,L,2026-02-18_12h28.45.914,VisualSearch_2526_3,,2025.2.4,2026-02-18 12h28.46.109008 +0100,
tilted.xlsx,The target is tilted.,117,79,7,9,0,1,1,1,0,0,0,0,0,0,0,0,1,3,4,117,space,7.552268700000241,None,0,1,1.0445112999996127,None,space,3.3645706999996037,None,0,0,0,0,,,,,9,7,79,6,185.47726030000013,,,,,,,,,,,,,,,,,,,,,185.46170110000003,185.47726030000013,185.96103010000024,185.96574919999966,185.98011810000025,187.02788489999966,,,,,187.02807570000004,187.04325380000046,187.24339860000055,187.22780390000025,185.98011810000025,,,,,,,,0,1,1.0445112999996127,None,,,,,,,,806,21,V,L,2026-02-18_12h28.45.914,VisualSearch_2526_3,,2025.2.4,2026-02-18 12h28.46.109008 +0100,
tilted.xlsx,The target is tilted.,117,80,0,10,0,1,1,1,1,1,1,1,0,0,0,0,1,7,8,117,space,7.552268700000241,None,0,1,1.3191262999998798,None,space,3.3645706999996037,None,0,0,0,0,,,,,10,0,80,5,187.24339860000055,,,,,,,,,,,,,,,,,,,,,187.22859890000018,187.24339860000055,187.7275768999998,187.73207189999994,187.7471129000005,189.0774621999999,,,,,189.07764719999977,189.09300150000036,189.29324999999972,189.2775345,187.7471129000005,,,,,,,,0,1,1.3191262999998798,None,,,,,,,,806,21,V,L,2026-02-18_12h28.45.914,VisualSearch_2526_3,,2025.2.4,2026-02-18 12h28.46.109008 +0100,
tilted.xlsx,The target is tilted.,117,81,1,10,0,0,0,0,0,0,0,0,0,0,0,0,1,1,1,117,space,7.552268700000241,None,1,0,0.6185563999997612,None,space,3.3645706999996037,None,0,0,0,0,,,,,10,1,81,7,189.29324999999972,,,,,,,,,,,,,,,,,,,,,189.27838789999987,189.29324999999972,189.7772385999997,189.78174200000012,189.79587999999967,190.42668130000038,,,,,190.4268179999999,190.44277090000014,190.6432663000005,190.62703820000024,189.79587999999967,,,,,,,,1,0,0.6185563999997612,None,,,,,,,,806,21,V,L,2026-02-18_12h28.45.914,VisualSearch_2526_3,,2025.2.4,2026-02-18 12h28.46.109008 +0100,
tilted.xlsx,The target is tilted.,117,82,2,10,0,1,1,1,1,1,1,1,1,1,1,1,1,11,12,117,space,7.552268700000241,None,0,1,2.5120065000000977,None,space,3.3645706999996037,None,0,0,0,0,,,,,10,2,82,4,190.6432663000005,,,,,,,,,,,,,,,,,,,,,190.62788530000034,190.6432663000005,191.12626180000007,191.12842079999973,191.14247700000033,193.66033400000015,,,,,193.66058840000005,193.67568670000037,193.87608910000017,193.85984759999974,191.14247700000033,,,,,,,,0,1,2.5120065000000977,None,,,,,,,,806,21,V,L,2026-02-18_12h28.45.914,VisualSearch_2526_3,,2025.2.4,2026-02-18 12h28.46.109008 +0100,
tilted.xlsx,The target is tilted.,117,83,3,10,1,1,1,1,1,1,1,1,0,0,0,0,0,7,8,117,space,7.552268700000241,None,1,1,1.3030750000007174,None,space,3.3645706999996037,None,0,0,0,0,,,,,10,3,83,1,193.87608910000017,,,,,,,,,,,,,,,,,,,,,193.86059019999993,193.87608910000017,194.35971059999974,194.36421280000013,194.38131710000016,195.69357870000022,,,,,195.69379339999978,195.70888509999986,195.90921640000033,195.8930175000005,194.38131710000016,,,,,,,,1,1,1.3030750000007174,None,,,,,,,,806,21,V,L,2026-02-18_12h28.45.914,VisualSearch_2526_3,,2025.2.4,2026-02-18 12h28.46.109008 +0100,
tilted.xlsx,The target is tilted.,117,84,4,10,1,1,1,1,0,0,0,0,0,0,0,0,0,3,4,117,space,7.552268700000241,None,1,1,0.8041526999995767,None,space,3.3645706999996037,None,0,0,0,0,,,,,10,4,84,2,195.90921640000033,,,,,,,,,,,,,,,,,,,,,195.8937575,195.90921640000033,196.39294229999996,196.39747809999972,196.4129979999998,197.2267678999997,,,,,197.22695850000036,197.24190910000016,197.44220289999976,197.42570989999967,196.4129979999998,,,,,,,,1,1,0.8041526999995767,None,,,,,,,,806,21,V,L,2026-02-18_12h28.45.914,VisualSearch_2526_3,,2025.2.4,2026-02-18 12h28.46.109008 +0100,
tilted.xlsx,The target is tilted.,117,85,5,10,1,1,1,1,1,1,1,1,1,1,1,1,0,11,12,117,space,7.552268700000241,None,1,1,0.797215600000527,None,space,3.3645706999996037,None,0,0,0,0,,,,,10,5,85,0,197.44220289999976,,,,,,,,,,,,,,,,,,,,,197.42643860000044,197.44220289999976,197.9259763,197.9305505000002,197.9450127,198.75980640000034,,,,,198.76000320000003,198.77535700000044,198.97530689999985,198.95902149999984,197.9450127,,,,,,,,1,1,0.797215600000527,None,,,,,,,,806,21,V,L,2026-02-18_12h28.45.914,VisualSearch_2526_3,,2025.2.4,2026-02-18 12h28.46.109008 +0100,
tilted.xlsx,The target is tilted.,117,86,6,10,0,1,1,1,0,0,0,0,0,0,0,0,1,3,4,117,space,7.552268700000241,None,0,1,0.8795629000005647,None,space,3.3645706999996037,None,0,0,0,0,,,,,10,6,86,6,198.97530689999985,,,,,,,,,,,,,,,,,,,,,198.9597474000002,198.97530689999985,199.4592886999999,199.46399759999986,199.47885880000013,200.3595519999999,,,,,200.35975940000026,200.3752830000003,200.57519030000003,200.55905499999972,199.47885880000013,,,,,,,,0,1,0.8795629000005647,None,,,,,,,,806,21,V,L,2026-02-18_12h28.45.914,VisualSearch_2526_3,,2025.2.4,2026-02-18 12h28.46.109008 +0100,
tilted.xlsx,The target is tilted.,117,87,7,10,1,0,0,0,0,0,0,0,0,0,0,0,0,0,1,117,space,7.552268700000241,None,1,1,0.5460570999994161,None,space,3.3645706999996037,None,0,0,0,0,,,,,10,7,87,3,200.57519030000003,,,,,,,,,,,,,,,,,,,,,200.55977340000027,200.57519030000003,201.05898810000053,201.06350639999982,201.07824729999993,201.6257397999998,,,,,201.62589469999966,201.64156699999967,201.84139789999972,201.82576510000035,201.07824729999993,,,,,,,,1,1,0.5460570999994161,None,,,,,,,,806,21,V,L,2026-02-18_12h28.45.914,VisualSearch_2526_3,,2025.2.4,2026-02-18 12h28.46.109008 +0100,
tilted.xlsx,The target is tilted.,117,88,0,11,0,1,1,1,0,0,0,0,0,0,0,0,1,3,4,117,space,7.552268700000241,None,0,1,0.6639199999999619,None,space,3.3645706999996037,None,0,0,0,0,,,,,11,0,88,6,201.84139789999972,,,,,,,,,,,,,,,,,,,,,201.8266254,201.84139789999972,202.3252680000005,202.32896789999995,202.34138200000052,203.0089035000001,,,,,203.00909630000024,203.02474520000032,203.2246584000004,203.20884320000005,202.34138200000052,,,,,,,,0,1,0.6639199999999619,None,,,,,,,,806,21,V,L,2026-02-18_12h28.45.914,VisualSearch_2526_3,,2025.2.4,2026-02-18 12h28.46.109008 +0100,
tilted.xlsx,The target is tilted.,117,89,1,11,0,1,1,1,1,1,1,1,0,0,0,0,1,7,8,117,space,7.552268700000241,None,1,0,0.8475695999995878,None,space,3.3645706999996037,None,0,0,0,0,,,,,11,1,89,5,203.2246584000004,,,,,,,,,,,,,,,,,,,,,203.20965650000016,203.2246584000004,203.70860530000027,203.71324490000006,203.72829580000052,204.59206760000052,,,,,204.59226229999967,204.60789190000014,204.80799190000016,204.79181309999967,203.72829580000052,,,,,,,,1,0,0.8475695999995878,None,,,,,,,,806,21,V,L,2026-02-18_12h28.45.914,VisualSearch_2526_3,,2025.2.4,2026-02-18 12h28.46.109008 +0100,
tilted.xlsx,The target is tilted.,117,90,2,11,1,0,0,0,0,0,0,0,0,0,0,0,0,0,1,117,space,7.552268700000241,None,1,1,0.5738896000002569,None,space,3.3645706999996037,None,0,0,0,0,,,,,11,2,90,3,204.80799190000016,,,,,,,,,,,,,,,,,,,,,204.79252989999986,204.80799190000016,205.2911777999998,205.2931391000002,205.30764259999978,205.8916820000004,,,,,205.89181650000046,205.90737009999975,206.10773620000055,206.09098859999995,205.30764259999978,,,,,,,,1,1,0.5738896000002569,None,,,,,,,,806,21,V,L,2026-02-18_12h28.45.914,VisualSearch_2526_3,,2025.2.4,2026-02-18 12h28.46.109008 +0100,
tilted.xlsx,The target is tilted.,117,91,3,11,1,1,1,1,0,0,0,0,0,0,0,0,0,3,4,117,space,7.552268700000241,None,1,1,0.5946412000002965,None,space,3.3645706999996037,None,0,0,0,0,,,,,11,3,91,2,206.10773620000055,,,,,,,,,,,,,,,,,,,,,206.09173180000016,206.10773620000055,206.5914582000005,206.59607490000053,206.6118988999997,207.20821309999974,,,,,207.20834939999986,207.22413330000018,207.42419289999998,207.4080801,206.6118988999997,,,,,,,,1,1,0.5946412000002965,None,,,,,,,,806,21,V,L,2026-02-18_12h28.45.914,VisualSearch_2526_3,,2025.2.4,2026-02-18 12h28.46.109008 +0100,
tilted.xlsx,The target is tilted.,117,92,4,11,1,1,1,1,1,1,1,1,1,1,1,1,0,11,12,117,space,7.552268700000241,None,1,1,0.560787700000219,None,space,3.3645706999996037,None,0,0,0,0,,,,,11,4,92,0,207.42419289999998,,,,,,,,,,,,,,,,,,,,,207.40879810000024,207.42419289999998,207.9076525999999,207.9122514999999,207.92779830000018,208.49188959999992,,,,,208.4920873000001,208.5069795999998,208.70747720000054,208.69110139999975,207.92779830000018,,,,,,,,1,1,0.560787700000219,None,,,,,,,,806,21,V,L,2026-02-18_12h28.45.914,VisualSearch_2526_3,,2025.2.4,2026-02-18 12h28.46.109008 +0100,
tilted.xlsx,The target is tilted.,117,93,5,11,1,1,1,1,1,1,1,1,0,0,0,0,0,7,8,117,space,7.552268700000241,None,1,1,0.6729119999999966,None,space,3.3645706999996037,None,0,0,0,0,,,,,11,5,93,1,208.70747720000054,,,,,,,,,,,,,,,,,,,,,208.69184829999995,208.70747720000054,209.19109190000017,209.19573420000052,209.21083210000052,209.8912564000002,,,,,209.89146119999987,209.90698640000028,210.1071810000003,210.09088109999993,209.21083210000052,,,,,,,,1,1,0.6729119999999966,None,,,,,,,,806,21,V,L,2026-02-18_12h28.45.914,VisualSearch_2526_3,,2025.2.4,2026-02-18 12h28.46.109008 +0100,
tilted.xlsx,The target is tilted.,117,94,6,11,0,1,1,1,1,1,1,1,1,1,1,1,1,11,12,117,space,7.552268700000241,None,1,0,0.9433509999998932,None,space,3.3645706999996037,None,0,0,0,0,,,,,11,6,94,4,210.1071810000003,,,,,,,,,,,,,,,,,,,,,210.09163259999968,210.1071810000003,210.59084690000054,210.5954609999999,210.61135190000005,211.55776630000037,,,,,211.5578998000001,211.57348410000031,211.77355100000023,211.75741800000014,210.61135190000005,,,,,,,,1,0,0.9433509999998932,None,,,,,,,,806,21,V,L,2026-02-18_12h28.45.914,VisualSearch_2526_3,,2025.2.4,2026-02-18 12h28.46.109008 +0100,
tilted.xlsx,The target is tilted.,117,95,7,11,0,0,0,0,0,0,0,0,0,0,0,0,1,1,1,117,space,7.552268700000241,None,0,1,0.5989829999998619,None,space,3.3645706999996037,None,0,0,0,0,,,,,11,7,95,7,211.77355100000023,,,,,,,,,,,,,,,,,,,,,211.75813769999968,211.77355100000023,212.2575895,212.2622081999998,212.27735080000002,212.89023830000042,,,,,212.89032730000054,212.9060853000001,213.10680180000054,213.09035330000006,212.27735080000002,,,,,,,,0,1,0.5989829999998619,None,,,,,,,,806,21,V,L,2026-02-18_12h28.45.914,VisualSearch_2526_3,,2025.2.4,2026-02-18 12h28.46.109008 +0100,
tilted.xlsx,The target is tilted.,117,96,0,12,1,0,0,0,0,0,0,0,0,0,0,0,0,0,1,117,space,7.552268700000241,None,1,1,0.44115229999988514,None,space,3.3645706999996037,None,0,0,0,0,,,,,12,0,96,3,213.10680180000054,,,,,,,,,,,,,,,,,,,,,213.09118480000052,213.10680180000054,213.59050819999993,213.59517479999977,213.61023509999995,214.05768540000008,,,,,214.0578747999998,214.0728697000004,214.27285980000033,214.2571852000001,213.61023509999995,,,,,,,,1,1,0.44115229999988514,None,,,,,,,,806,21,V,L,2026-02-18_12h28.45.914,VisualSearch_2526_3,,2025.2.4,2026-02-18 12h28.46.109008 +0100,
tilted.xlsx,The target is tilted.,117,97,1,12,0,0,0,0,0,0,0,0,0,0,0,0,1,1,1,117,space,7.552268700000241,None,0,1,0.4625510000005306,None,space,3.3645706999996037,None,0,0,0,0,,,,,12,1,97,7,214.27285980000033,,,,,,,,,,,,,,,,,,,,,214.25800309999977,214.27285980000033,214.75694019999992,214.76146380000046,214.7775615999999,215.25668250000035,,,,,215.25681189999978,215.2725029000003,215.47310190000007,215.45704159999968,214.7775615999999,,,,,,,,0,1,0.4625510000005306,None,,,,,,,,806,21,V,L,2026-02-18_12h28.45.914,VisualSearch_2526_3,,2025.2.4,2026-02-18 12h28.46.109008 +0100,
tilted.xlsx,The target is tilted.,117,98,2,12,1,1,1,1,1,1,1,1,1,1,1,1,0,11,12,117,space,7.552268700000241,None,1,1,1.8138374000000113,None,space,3.3645706999996037,None,0,0,0,0,,,,,12,2,98,0,215.47310190000007,,,,,,,,,,,,,,,,,,,,,215.45776269999988,215.47310190000007,215.95681930000046,215.96135920000052,215.9770897999997,217.8071742000002,,,,,217.80736460000026,217.82261459999972,218.02247420000003,218.00676790000034,215.9770897999997,,,,,,,,1,1,1.8138374000000113,None,,,,,,,,806,21,V,L,2026-02-18_12h28.45.914,VisualSearch_2526_3,,2025.2.4,2026-02-18 12h28.46.109008 +0100,
tilted.xlsx,The target is tilted.,117,99,3,12,1,1,1,1,1,1,1,1,0,0,0,0,0,7,8,117,space,7.552268700000241,None,1,1,0.5811674999995375,None,space,3.3645706999996037,None,0,0,0,0,,,,,12,3,99,1,218.02247420000003,,,,,,,,,,,,,,,,,,,,,218.00758880000012,218.02247420000003,218.50643970000056,218.51116400000046,218.52529419999973,219.12419229999978,,,,,219.12438740000016,219.1392053999998,219.3388788000002,219.322854,218.52529419999973,,,,,,,,1,1,0.5811674999995375,None,,,,,,,,806,21,V,L,2026-02-18_12h28.45.914,VisualSearch_2526_3,,2025.2.4,2026-02-18 12h28.46.109008 +0100,
tilted.xlsx,The target is tilted.,117,100,4,12,1,1,1,1,0,0,0,0,0,0,0,0,0,3,4,117,space,7.552268700000241,None,1,1,0.6032058999999208,None,space,3.3645706999996037,None,0,0,0,0,,,,,12,4,100,2,219.3388788000002,,,,,,,,,,,,,,,,,,,,,219.3236035,219.3388788000002,219.8231827999998,219.82842830000027,219.8439360000002,220.45675860000028,,,,,220.45694999999978,220.47227310000017,220.6723847000003,220.65641320000032,219.8439360000002,,,,,,,,1,1,0.6032058999999208,None,,,,,,,,806,21,V,L,2026-02-18_12h28.45.914,VisualSearch_2526_3,,2025.2.4,2026-02-18 12h28.46.109008 +0100,
tilted.xlsx,The target is tilted.,117,101,5,12,0,1,1,1,1,1,1,1,1,1,1,1,1,11,12,117,space,7.552268700000241,None,1,0,1.2422999000000345,None,space,3.3645706999996037,None,0,0,0,0,,,,,12,5,101,4,220.6723847000003,,,,,,,,,,,,,,,,,,,,,220.6572111000005,220.6723847000003,221.15632069999992,221.16140890000042,221.1753008000005,222.42322609999974,,,,,222.42341560000023,222.43838980000055,222.63877180000054,222.62257180000051,221.1753008000005,,,,,,,,1,0,1.2422999000000345,None,,,,,,,,806,21,V,L,2026-02-18_12h28.45.914,VisualSearch_2526_3,,2025.2.4,2026-02-18 12h28.46.109008 +0100,
tilted.xlsx,The target is tilted.,117,102,6,12,0,1,1,1,0,0,0,0,0,0,0,0,1,3,4,117,space,7.552268700000241,None,0,1,0.8078293999997186,None,space,3.3645706999996037,None,0,0,0,0,,,,,12,6,102,6,222.63877180000054,,,,,,,,,,,,,,,,,,,,,222.6233054000004,222.63877180000054,223.1223584999998,223.1268471000003,223.14283799999976,223.95627990000048,,,,,223.95652100000007,223.97186239999974,224.1716763000004,224.15550350000012,223.14283799999976,,,,,,,,0,1,0.8078293999997186,None,,,,,,,,806,21,V,L,2026-02-18_12h28.45.914,VisualSearch_2526_3,,2025.2.4,2026-02-18 12h28.46.109008 +0100,
tilted.xlsx,The target is tilted.,117,103,7,12,0,1,1,1,1,1,1,1,0,0,0,0,1,7,8,117,space,7.552268700000241,None,1,0,0.6485438999998223,None,space,3.3645706999996037,None,0,0,0,0,,,,,12,7,103,5,224.1716763000004,,,,,,,,,,,,,,,,,,,,,224.1563102,224.1716763000004,224.6557082999998,224.6602941000001,224.67533960000037,225.3393775000004,,,,,225.3395704000004,225.35461719999967,225.55503469999985,225.53825740000048,224.67533960000037,,,,,,,,1,0,0.6485438999998223,None,,,,,,,,806,21,V,L,2026-02-18_12h28.45.914,VisualSearch_2526_3,,2025.2.4,2026-02-18 12h28.46.109008 +0100,
tilted.xlsx,The target is tilted.,117,104,0,13,1,1,1,1,0,0,0,0,0,0,0,0,0,3,4,117,space,7.552268700000241,None,1,1,0.5845613000001322,None,space,3.3645706999996037,None,0,0,0,0,,,,,13,0,104,2,225.55503469999985,,,,,,,,,,,,,,,,,,,,,225.53899550000006,225.55503469999985,226.03902430000016,226.04383039999993,226.0548243000003,226.65604760000042,,,,,226.65625069999987,226.67118430000028,226.87145690000034,226.85543419999976,226.0548243000003,,,,,,,,1,1,0.5845613000001322,None,,,,,,,,806,21,V,L,2026-02-18_12h28.45.914,VisualSearch_2526_3,,2025.2.4,2026-02-18 12h28.46.109008 +0100,
tilted.xlsx,The target is tilted.,117,105,1,13,0,0,0,0,0,0,0,0,0,0,0,0,1,1,1,117,space,7.552268700000241,None,0,1,0.4808931000006851,None,space,3.3645706999996037,None,0,0,0,0,,,,,13,1,105,7,226.87145690000034,,,,,,,,,,,,,,,,,,,,,226.85624220000045,226.87145690000034,227.35488189999978,227.35942650000015,227.3748496999997,227.87245100000018,,,,,227.87264589999995,227.8878562,228.0880029,228.07177049999973,227.3748496999997,,,,,,,,0,1,0.4808931000006851,None,,,,,,,,806,21,V,L,2026-02-18_12h28.45.914,VisualSearch_2526_3,,2025.2.4,2026-02-18 12h28.46.109008 +0100,
tilted.xlsx,The target is tilted.,117,106,2,13,1,1,1,1,1,1,1,1,1,1,1,1,0,11,12,117,space,7.552268700000241,None,1,1,0.5919204000001628,None,space,3.3645706999996037,None,0,0,0,0,,,,,13,2,106,0,228.0880029,,,,,,,,,,,,,,,,,,,,,228.07262809999975,228.0880029,228.57184419999976,228.5769210999997,228.59311750000052,229.18865520000054,,,,,229.1888501000003,229.2042879999999,229.40437900000052,229.38778720000028,228.59311750000052,,,,,,,,1,1,0.5919204000001628,None,,,,,,,,806,21,V,L,2026-02-18_12h28.45.914,VisualSearch_2526_3,,2025.2.4,2026-02-18 12h28.46.109008 +0100,
tilted.xlsx,The target is tilted.,117,107,3,13,1,1,1,1,1,1,1,1,0,0,0,0,0,7,8,117,space,7.552268700000241,None,1,1,0.6376599999994141,None,space,3.3645706999996037,None,0,0,0,0,,,,,13,3,107,1,229.40437900000052,,,,,,,,,,,,,,,,,,,,,229.38853780000045,229.40437900000052,229.8883692999998,229.89310449999994,229.9078980000004,230.55504740000015,,,,,230.55523989999983,230.57073540000056,230.77092809999976,230.75481130000026,229.9078980000004,,,,,,,,1,1,0.6376599999994141,None,,,,,,,,806,21,V,L,2026-02-18_12h28.45.914,VisualSearch_2526_3,,2025.2.4,2026-02-18 12h28.46.109008 +0100,
tilted.xlsx,The target is tilted.,117,108,4,13,0,1,1,1,1,1,1,1,1,1,1,1,1,11,12,117,space,7.552268700000241,None,1,0,0.7575458000001163,None,space,3.3645706999996037,None,0,0,0,0,,,,,13,4,108,4,230.77092809999976,,,,,,,,,,,,,,,,,,,,,230.75556440000037,230.77092809999976,231.25472809999974,231.25914170000033,231.27072560000033,232.0381266000004,,,,,232.03825899999993,232.05386230000022,232.25395449999996,232.23789600000055,231.27072560000033,,,,,,,,1,0,0.7575458000001163,None,,,,,,,,806,21,V,L,2026-02-18_12h28.45.914,VisualSearch_2526_3,,2025.2.4,2026-02-18 12h28.46.109008 +0100,
tilted.xlsx,The target is tilted.,117,109,5,13,0,1,1,1,1,1,1,1,0,0,0,0,1,7,8,117,space,7.552268700000241,None,1,0,0.9000238999997237,None,space,3.3645706999996037,None,0,0,0,0,,,,,13,5,109,5,232.25395449999996,,,,,,,,,,,,,,,,,,,,,232.23863940000047,232.25395449999996,232.73790950000057,232.74244850000014,232.75747950000004,233.67131270000027,,,,,233.67150800000036,233.68687359999967,233.88716459999978,233.87063000000035,232.75747950000004,,,,,,,,1,0,0.9000238999997237,None,,,,,,,,806,21,V,L,2026-02-18_12h28.45.914,VisualSearch_2526_3,,2025.2.4,2026-02-18 12h28.46.109008 +0100,
tilted.xlsx,The target is tilted.,117,110,6,13,1,0,0,0,0,0,0,0,0,0,0,0,0,0,1,117,space,7.552268700000241,None,1,1,0.5365959999999177,None,space,3.3645706999996037,None,0,0,0,0,,,,,13,6,110,3,233.88716459999978,,,,,,,,,,,,,,,,,,,,,233.87138270000014,233.88716459999978,234.3709303000005,234.37540050000007,234.39133860000038,234.93846750000012,,,,,234.93867190000037,234.95361310000044,235.15364860000045,235.13768160000018,234.39133860000038,,,,,,,,1,1,0.5365959999999177,None,,,,,,,,806,21,V,L,2026-02-18_12h28.45.914,VisualSearch_2526_3,,2025.2.4,2026-02-18 12h28.46.109008 +0100,
tilted.xlsx,The target is tilted.,117,111,7,13,0,1,1,1,0,0,0,0,0,0,0,0,1,3,4,117,space,7.552268700000241,None,0,1,0.8983595999998215,None,space,3.3645706999996037,None,0,0,0,0,,,,,13,7,111,6,235.15364860000045,,,,,,,,,,,,,,,,,,,,,235.13839670000016,235.15364860000045,235.6375724999998,235.64281420000043,235.65756930000043,236.57050530000015,,,,,236.57067970000026,236.58656659999997,236.78672759999972,236.77052830000048,235.65756930000043,,,,,,,,0,1,0.8983595999998215,None,,,,,,,,806,21,V,L,2026-02-18_12h28.45.914,VisualSearch_2526_3,,2025.2.4,2026-02-18 12h28.46.109008 +0100,
tilted.xlsx,The target is tilted.,117,112,0,14,0,1,1,1,1,1,1,1,0,0,0,0,1,7,8,117,space,7.552268700000241,None,0,1,1.0196882000000187,None,space,3.3645706999996037,None,0,0,0,0,,,,,14,0,112,5,236.78672759999972,,,,,,,,,,,,,,,,,,,,,236.77128300000004,236.78672759999972,237.2705103999997,237.27513960000033,237.28651340000033,238.32055540000056,,,,,238.3207493,238.33638789999986,238.53652409999995,238.51994680000007,237.28651340000033,,,,,,,,0,1,1.0196882000000187,None,,,,,,,,806,21,V,L,2026-02-18_12h28.45.914,VisualSearch_2526_3,,2025.2.4,2026-02-18 12h28.46.109008 +0100,
tilted.xlsx,The target is tilted.,117,113,1,14,0,1,1,1,1,1,1,1,1,1,1,1,1,11,12,117,space,7.552268700000241,None,0,1,1.0998913000003085,None,space,3.3645706999996037,None,0,0,0,0,,,,,14,1,113,4,238.53652409999995,,,,,,,,,,,,,,,,,,,,,238.52068299999974,238.53652409999995,239.0199080000002,239.02446130000044,239.03922039999998,240.1532769000005,,,,,240.15337290000025,240.1690636000003,240.36926930000027,240.35316919999968,239.03922039999998,,,,,,,,0,1,1.0998913000003085,None,,,,,,,,806,21,V,L,2026-02-18_12h28.45.914,VisualSearch_2526_3,,2025.2.4,2026-02-18 12h28.46.109008 +0100,
tilted.xlsx,The target is tilted.,117,114,2,14,1,0,0,0,0,0,0,0,0,0,0,0,0,0,1,117,space,7.552268700000241,None,1,1,0.42093219999969733,None,space,3.3645706999996037,None,0,0,0,0,,,,,14,2,114,3,240.36926930000027,,,,,,,,,,,,,,,,,,,,,240.3538980000003,240.36926930000027,240.8532464,240.85784289999992,240.87358270000004,241.3035646999997,,,,,241.30372200000056,241.3193129000001,241.51930280000033,241.50267129999975,240.87358270000004,,,,,,,,1,1,0.42093219999969733,None,,,,,,,,806,21,V,L,2026-02-18_12h28.45.914,VisualSearch_2526_3,,2025.2.4,2026-02-18 12h28.46.109008 +0100,
tilted.xlsx,The target is tilted.,117,115,3,14,1,1,1,1,0,0,0,0,0,0,0,0,0,3,4,117,space,7.552268700000241,None,0,0,0.7973018000002412,None,space,3.3645706999996037,None,0,0,0,0,,,,,14,3,115,2,241.51930280000033,,,,,,,,,,,,,,,,,,,,,241.50337320000017,241.51930280000033,242.00317890000042,242.0078097000005,242.0230220000003,242.83694670000023,,,,,242.8371390000002,242.85240109999995,243.05247320000035,243.03636449999976,242.0230220000003,,,,,,,,0,0,0.7973018000002412,None,,,,,,,,806,21,V,L,2026-02-18_12h28.45.914,VisualSearch_2526_3,,2025.2.4,2026-02-18 12h28.46.109008 +0100,
tilted.xlsx,The target is tilted.,117,116,4,14,1,1,1,1,1,1,1,1,0,0,0,0,0,7,8,117,space,7.552268700000241,None,1,1,0.8690320999994583,None,space,3.3645706999996037,None,0,0,0,0,,,,,14,4,116,1,243.05247320000035,,,,,,,,,,,,,,,,,,,,,243.03710640000008,243.05247320000035,243.53628769999978,243.54084779999994,243.55518219999976,244.4368482,,,,,244.43706370000018,244.45230979999997,244.65231949999998,244.63626740000018,243.55518219999976,,,,,,,,1,1,0.8690320999994583,None,,,,,,,,806,21,V,L,2026-02-18_12h28.45.914,VisualSearch_2526_3,,2025.2.4,2026-02-18 12h28.46.109008 +0100,
tilted.xlsx,The target is tilted.,117,117,5,14,1,1,1,1,1,1,1,1,1,1,1,1,0,11,12,117,space,7.552268700000241,None,1,1,0.5566256000001886,None,space,3.3645706999996037,None,0,0,0,0,,,,,14,5,117,0,244.65231949999998,,,,,,,,,,,,,,,,,,,,,244.6370981,244.65231949999998,245.13605879999977,245.1406033000003,245.15508500000033,245.71992640000008,,,,,245.7201181999999,245.73545970000032,245.93547880000006,245.91919620000044,245.15508500000033,,,,,,,,1,1,0.5566256000001886,None,,,,,,,,806,21,V,L,2026-02-18_12h28.45.914,VisualSearch_2526_3,,2025.2.4,2026-02-18 12h28.46.109008 +0100,
tilted.xlsx,The target is tilted.,117,118,6,14,0,0,0,0,0,0,0,0,0,0,0,0,1,1,1,117,space,7.552268700000241,None,0,1,0.5434068000004117,None,space,3.3645706999996037,None,0,0,0,0,,,,,14,6,118,7,245.93547880000006,,,,,,,,,,,,,,,,,,,,,245.91996730000028,245.93547880000006,246.4191937000005,246.42370370000026,246.43878459999996,246.9856877000002,,,,,246.98586200000045,247.00183920000018,247.2018164000001,247.18583000000035,246.43878459999996,,,,,,,,0,1,0.5434068000004117,None,,,,,,,,806,21,V,L,2026-02-18_12h28.45.914,VisualSearch_2526_3,,2025.2.4,2026-02-18 12h28.46.109008 +0100,
tilted.xlsx,The target is tilted.,117,119,7,14,0,1,1,1,0,0,0,0,0,0,0,0,1,3,4,117,space,7.552268700000241,None,0,1,0.863968699999532,None,space,3.3645706999996037,None,0,0,0,0,,,,,14,7,119,6,247.2018164000001,,,,,,,,,,,,,,,,,,,,,247.18659610000032,247.2018164000001,247.68569690000004,247.69022959999984,247.70479160000014,248.5854999000003,,,,,248.5856162,248.6014782000002,248.81966530000045,248.78562860000056,247.70479160000014,,,,,,,,0,1,0.863968699999532,None,,,,,,,,806,21,V,L,2026-02-18_12h28.45.914,VisualSearch_2526_3,,2025.2.4,2026-02-18 12h28.46.109008 +0100,
tilted.xlsx,The target is tilted.,117,0,0,0,,,,,,,,,,,,,,,,,space,7.552268700000241,None,,,,,space,3.3645706999996037,None,0,0,0,0,,,,,,,,,,,,,,,,,,,,,,,,,,,,,,,,,,,,,,,,,,,,,,,,,,,,,,,,,,,,,,,806,21,V,L,2026-02-18_12h28.45.914,VisualSearch_2526_3,,2025.2.4,2026-02-18 12h28.46.109008 +0100,
vertical.xlsx,The target is tilted.,135,0,0,0,1,1,1,1,1,1,1,1,1,1,1,1,0,11,12,135,space,3.3660728999993808,None,1,1,0.7746215000006487,None,,,,0,1,1,1,0,0,0,0,,,,,252.2247851000002,,,,,,,,,,,,,,,248.81966530000045,248.81966530000045,248.81966530000045,space,3.3660728999993808,None,252.22126209999988,252.2247851000002,252.71810920000007,252.72272619999967,252.73853229999986,253.51873710000018,1,1,0.7746215000006487,None,253.5189264999999,253.5342767000002,253.7343533000003,253.7181829000001,,,,,,,,,,,,,,,,,,,,806,21,V,L,2026-02-18_12h28.45.914,VisualSearch_2526_3,,2025.2.4,2026-02-18 12h28.46.109008 +0100,
vertical.xlsx,The target is tilted.,135,1,1,0,0,1,1,1,1,1,1,1,0,0,0,0,1,7,8,135,space,3.3660728999993808,None,0,1,1.1830625000002328,None,,,,0,1,1,1,0,1,1,5,,,,,253.7343533000003,,,,,,,,,,,,,,,,,,,,,253.71884510000018,253.7343533000003,254.21812080000018,254.2226644000002,254.23850289999973,255.43500089999998,0,1,1.1830625000002328,None,255.4351714000004,255.45037560000037,255.65069519999997,255.6347894999999,254.23850289999973,,,,,,,,,,,,,,,,,,,806,21,V,L,2026-02-18_12h28.45.914,VisualSearch_2526_3,,2025.2.4,2026-02-18 12h28.46.109008 +0100,
vertical.xlsx,The target is tilted.,135,2,2,0,1,0,0,0,0,0,0,0,0,0,0,0,0,0,1,135,space,3.3660728999993808,None,1,1,0.38644209999984014,None,,,,0,1,1,1,0,2,2,3,,,,,255.65069519999997,,,,,,,,,,,,,,,,,,,,,255.6355308000002,255.65069519999997,256.13341649999984,256.13609689999976,256.1499401000001,256.5514282000004,1,1,0.38644209999984014,None,256.55159509999976,256.5671560999999,256.7672614000003,256.75121190000027,256.1499401000001,,,,,,,,,,,,,,,,,,,806,21,V,L,2026-02-18_12h28.45.914,VisualSearch_2526_3,,2025.2.4,2026-02-18 12h28.46.109008 +0100,
vertical.xlsx,The target is tilted.,135,3,3,0,0,0,0,0,0,0,0,0,0,0,0,0,1,1,1,135,space,3.3660728999993808,None,0,1,0.43688810000003286,None,,,,0,1,1,1,0,3,3,7,,,,,256.7672614000003,,,,,,,,,,,,,,,,,,,,,256.75198420000015,256.7672614000003,257.2509511999997,257.25548270000036,257.27210449999984,257.7182141000003,0,1,0.43688810000003286,None,257.7183995000005,257.73369790000015,257.9338305000001,257.9175731000005,257.27210449999984,,,,,,,,,,,,,,,,,,,806,21,V,L,2026-02-18_12h28.45.914,VisualSearch_2526_3,,2025.2.4,2026-02-18 12h28.46.109008 +0100,
vertical.xlsx,The target is tilted.,135,4,4,0,1,1,1,1,0,0,0,0,0,0,0,0,0,3,4,135,space,3.3660728999993808,None,1,1,0.4431717999996181,None,,,,0,1,1,1,0,4,4,2,,,,,257.9338305000001,,,,,,,,,,,,,,,,,,,,,257.9183141000003,257.9338305000001,258.4175227000005,258.4220193000001,258.43506530000013,258.8847131000002,1,1,0.4431717999996181,None,258.88489840000057,258.9001153999998,259.1000627000003,259.08423370000037,258.43506530000013,,,,,,,,,,,,,,,,,,,806,21,V,L,2026-02-18_12h28.45.914,VisualSearch_2526_3,,2025.2.4,2026-02-18 12h28.46.109008 +0100,
vertical.xlsx,The target is tilted.,135,5,5,0,1,1,1,1,1,1,1,1,0,0,0,0,0,7,8,135,space,3.3660728999993808,None,1,1,1.8087988999996014,None,,,,0,1,1,1,0,5,5,1,,,,,259.1000627000003,,,,,,,,,,,,,,,,,,,,,259.0850231000004,259.1000627000003,259.5842315,259.58908859999974,259.6042226999998,261.41681380000045,1,1,1.8087988999996014,None,261.41694220000045,261.4332188999997,261.6332204,261.6169129,259.6042226999998,,,,,,,,,,,,,,,,,,,806,21,V,L,2026-02-18_12h28.45.914,VisualSearch_2526_3,,2025.2.4,2026-02-18 12h28.46.109008 +0100,
vertical.xlsx,The target is tilted.,135,6,6,0,0,1,1,1,0,0,0,0,0,0,0,0,1,3,4,135,space,3.3660728999993808,None,0,1,0.6152211999997235,None,,,,0,1,1,1,0,6,6,6,,,,,261.6332204,,,,,,,,,,,,,,,,,,,,,261.6176228000004,261.6332204,262.11672309999994,262.1212304999999,262.13760790000015,262.76665219999995,0,1,0.6152211999997235,None,262.7667529999999,262.7826334000001,262.9830264000002,262.96693030000006,262.13760790000015,,,,,,,,,,,,,,,,,,,806,21,V,L,2026-02-18_12h28.45.914,VisualSearch_2526_3,,2025.2.4,2026-02-18 12h28.46.109008 +0100,
vertical.xlsx,The target is tilted.,135,7,7,0,0,1,1,1,1,1,1,1,1,1,1,1,1,11,12,135,space,3.3660728999993808,None,0,1,1.090433800000028,None,,,,0,1,1,1,0,7,7,4,,,,,262.9830264000002,,,,,,,,,,,,,,,,,,,,,262.96760150000046,262.9830264000002,263.4668203000001,263.4713549999997,263.4865087999997,264.5838031000003,0,1,1.090433800000028,None,264.58399180000015,264.59905810000055,264.7994537000004,264.78313590000016,263.4865087999997,,,,,,,,,,,,,,,,,,,806,21,V,L,2026-02-18_12h28.45.914,VisualSearch_2526_3,,2025.2.4,2026-02-18 12h28.46.109008 +0100,
vertical.xlsx,The target is tilted.,135,0,0,0,1,0,0,0,0,0,0,0,0,0,0,0,0,0,1,135,space,3.3660728999993808,None,1,1,0.6641441000001578,None,space,4.071700100000271,None,0,1,1,1,,,,,0,0,0,3,268.90132170000015,,,,,,,,,,,,,,,,,,,,,268.8975860999999,268.90132170000015,269.39908540000033,269.40373139999974,269.41896460000044,270.09977530000015,,,,,270.0999695999999,270.1153737000004,270.31500609999966,270.2986098000001,,264.7907544999998,264.7994537000004,264.7994537000004,268.8827613000003,space,4.071700100000271,None,1,1,0.6641441000001578,None,,,,,,,,806,21,V,L,2026-02-18_12h28.45.914,VisualSearch_2526_3,,2025.2.4,2026-02-18 12h28.46.109008 +0100,
vertical.xlsx,The target is tilted.,135,1,1,0,0,1,1,1,1,1,1,1,1,1,1,1,1,11,12,135,space,3.3660728999993808,None,0,1,0.9270535999994536,None,space,4.071700100000271,None,0,1,1,1,,,,,0,1,1,4,270.31500609999966,,,,,,,,,,,,,,,,,,,,,270.2989964999997,270.31500609999966,270.7991817000002,270.80379319999975,270.81872900000053,271.7490475000004,,,,,271.7492506999997,271.76504810000006,271.96523929999967,271.94916569999987,270.81872900000053,,,,,,,,0,1,0.9270535999994536,None,,,,,,,,806,21,V,L,2026-02-18_12h28.45.914,VisualSearch_2526_3,,2025.2.4,2026-02-18 12h28.46.109008 +0100,
vertical.xlsx,The target is tilted.,135,2,2,0,0,0,0,0,0,0,0,0,0,0,0,0,1,1,1,135,space,3.3660728999993808,None,0,1,0.42007420000027196,None,space,4.071700100000271,None,0,1,1,1,,,,,0,2,2,7,271.96523929999967,,,,,,,,,,,,,,,,,,,,,271.95001310000043,271.96523929999967,272.44894699999986,272.45351720000053,272.4685958,272.89888770000016,,,,,272.8990303999999,272.9145129999997,273.11494270000003,273.0988392999998,272.4685958,,,,,,,,0,1,0.42007420000027196,None,,,,,,,,806,21,V,L,2026-02-18_12h28.45.914,VisualSearch_2526_3,,2025.2.4,2026-02-18 12h28.46.109008 +0100,
vertical.xlsx,The target is tilted.,135,3,3,0,0,1,1,1,0,0,0,0,0,0,0,0,1,3,4,135,space,3.3660728999993808,None,0,1,0.4259535000001051,None,space,4.071700100000271,None,0,1,1,1,,,,,0,3,3,6,273.11494270000003,,,,,,,,,,,,,,,,,,,,,273.0995472000004,273.11494270000003,273.59829590000027,273.60287659999995,273.6159829999997,274.0488371000001,,,,,274.0490307,274.06466790000013,274.26436319999993,274.24830310000016,273.6159829999997,,,,,,,,0,1,0.4259535000001051,None,,,,,,,,806,21,V,L,2026-02-18_12h28.45.914,VisualSearch_2526_3,,2025.2.4,2026-02-18 12h28.46.109008 +0100,
vertical.xlsx,The target is tilted.,135,4,4,0,1,1,1,1,1,1,1,1,1,1,1,1,0,11,12,135,space,3.3660728999993808,None,1,1,1.2684313999998267,None,space,4.071700100000271,None,0,1,1,1,,,,,0,4,4,0,274.26436319999993,,,,,,,,,,,,,,,,,,,,,274.2490287999999,274.26436319999993,274.74861130000045,274.75300179999977,274.76924119999967,276.0487898000001,,,,,276.0489656,276.0645052,276.2640710000005,276.24855470000057,274.76924119999967,,,,,,,,1,1,1.2684313999998267,None,,,,,,,,806,21,V,L,2026-02-18_12h28.45.914,VisualSearch_2526_3,,2025.2.4,2026-02-18 12h28.46.109008 +0100,
vertical.xlsx,The target is tilted.,135,5,5,0,1,1,1,1,1,1,1,1,0,0,0,0,0,7,8,135,space,3.3660728999993808,None,1,1,0.4381796999996368,None,space,4.071700100000271,None,0,1,1,1,,,,,0,5,5,1,276.2640710000005,,,,,,,,,,,,,,,,,,,,,276.2494150000002,276.2640710000005,276.74828460000026,276.7528819999998,276.7684773000001,277.2147132,,,,,277.21481740000036,277.2306414000004,277.4305638000005,277.4144548000004,276.7684773000001,,,,,,,,1,1,0.4381796999996368,None,,,,,,,,806,21,V,L,2026-02-18_12h28.45.914,VisualSearch_2526_3,,2025.2.4,2026-02-18 12h28.46.109008 +0100,
vertical.xlsx,The target is tilted.,135,6,6,0,0,1,1,1,1,1,1,1,0,0,0,0,1,7,8,135,space,3.3660728999993808,None,0,1,0.9808149999998932,None,space,4.071700100000271,None,0,1,1,1,,,,,0,6,6,5,277.4305638000005,,,,,,,,,,,,,,,,,,,,,277.4152055000004,277.4305638000005,277.9148906999999,277.9193184000005,277.9306711999998,278.9147789999997,,,,,278.91496800000004,278.93036780000057,279.13078889999997,279.1147976000002,277.9306711999998,,,,,,,,0,1,0.9808149999998932,None,,,,,,,,806,21,V,L,2026-02-18_12h28.45.914,VisualSearch_2526_3,,2025.2.4,2026-02-18 12h28.46.109008 +0100,
vertical.xlsx,The target is tilted.,135,7,7,0,1,1,1,1,0,0,0,0,0,0,0,0,0,3,4,135,space,3.3660728999993808,None,1,1,0.4426428999995551,None,space,4.071700100000271,None,0,1,1,1,,,,,0,7,7,2,279.13078889999997,,,,,,,,,,,,,,,,,,,,,279.1157228000002,279.13078889999997,279.61457990000054,279.6191719999997,279.6341027999997,280.0812812000004,,,,,280.08148809999966,280.09723570000006,280.2967813000005,280.28045139999995,279.6341027999997,,,,,,,,1,1,0.4426428999995551,None,,,,,,,,806,21,V,L,2026-02-18_12h28.45.914,VisualSearch_2526_3,,2025.2.4,2026-02-18 12h28.46.109008 +0100,
vertical.xlsx,The target is tilted.,135,8,0,1,1,1,1,1,0,0,0,0,0,0,0,0,0,3,4,135,space,3.3660728999993808,None,1,1,0.5699862999999823,None,space,4.071700100000271,None,0,1,1,1,,,,,1,0,8,2,280.2967813000005,,,,,,,,,,,,,,,,,,,,,280.2807136000001,280.2967813000005,280.7808772999997,280.78550580000046,280.8000497000003,281.38135990000046,,,,,281.38156570000046,281.39695120000033,281.5965814000001,281.5806198,280.8000497000003,,,,,,,,1,1,0.5699862999999823,None,,,,,,,,806,21,V,L,2026-02-18_12h28.45.914,VisualSearch_2526_3,,2025.2.4,2026-02-18 12h28.46.109008 +0100,
vertical.xlsx,The target is tilted.,135,9,1,1,0,1,1,1,1,1,1,1,0,0,0,0,1,7,8,135,space,3.3660728999993808,None,0,1,0.8466677000005802,None,space,4.071700100000271,None,0,1,1,1,,,,,1,1,9,5,281.5965814000001,,,,,,,,,,,,,,,,,,,,,281.58137590000024,281.5965814000001,282.08082269999977,282.0853323000001,282.10153249999985,282.9646708999999,,,,,282.9648440000001,282.97992710000017,283.17983470000036,283.16369920000034,282.10153249999985,,,,,,,,0,1,0.8466677000005802,None,,,,,,,,806,21,V,L,2026-02-18_12h28.45.914,VisualSearch_2526_3,,2025.2.4,2026-02-18 12h28.46.109008 +0100,
vertical.xlsx,The target is tilted.,135,10,2,1,0,0,0,0,0,0,0,0,0,0,0,0,1,1,1,135,space,3.3660728999993808,None,0,1,0.5165935999993962,None,space,4.071700100000271,None,0,1,1,1,,,,,1,2,10,7,283.17983470000036,,,,,,,,,,,,,,,,,,,,,283.1645430999997,283.17983470000036,283.66391470000053,283.6691123999999,283.6853695,284.2145104000001,,,,,284.21470390000013,284.22994670000026,284.42969300000004,284.41358630000013,283.6853695,,,,,,,,0,1,0.5165935999993962,None,,,,,,,,806,21,V,L,2026-02-18_12h28.45.914,VisualSearch_2526_3,,2025.2.4,2026-02-18 12h28.46.109008 +0100,
vertical.xlsx,The target is tilted.,135,11,3,1,0,1,1,1,0,0,0,0,0,0,0,0,1,3,4,135,space,3.3660728999993808,None,0,1,0.4604985999994824,None,space,4.071700100000271,None,0,1,1,1,,,,,1,3,11,6,284.42969300000004,,,,,,,,,,,,,,,,,,,,,284.41447340000013,284.42969300000004,284.91390649999994,284.9189357000005,284.9338893000004,285.39767610000035,,,,,285.3978795000003,285.41276629999993,285.6132434000001,285.5972160000001,284.9338893000004,,,,,,,,0,1,0.4604985999994824,None,,,,,,,,806,21,V,L,2026-02-18_12h28.45.914,VisualSearch_2526_3,,2025.2.4,2026-02-18 12h28.46.109008 +0100,
vertical.xlsx,The target is tilted.,135,12,4,1,1,0,0,0,0,0,0,0,0,0,0,0,0,0,1,135,space,3.3660728999993808,None,1,1,0.35862839999936114,None,space,4.071700100000271,None,0,1,1,1,,,,,1,4,12,3,285.6132434000001,,,,,,,,,,,,,,,,,,,,,285.5980361000002,285.6132434000001,286.09693590000006,286.10152910000033,286.11873170000035,286.48053400000026,,,,,286.4807228999998,286.49620479999976,286.6964164000001,286.68005059999996,286.11873170000035,,,,,,,,1,1,0.35862839999936114,None,,,,,,,,806,21,V,L,2026-02-18_12h28.45.914,VisualSearch_2526_3,,2025.2.4,2026-02-18 12h28.46.109008 +0100,
vertical.xlsx,The target is tilted.,135,13,5,1,0,1,1,1,1,1,1,1,1,1,1,1,1,11,12,135,space,3.3660728999993808,None,0,1,0.870975400000134,None,space,4.071700100000271,None,0,1,1,1,,,,,1,5,13,4,286.6964164000001,,,,,,,,,,,,,,,,,,,,,286.6808996999998,286.6964164000001,287.1798534999998,287.18451389999973,287.1993988000004,288.0804317000002,,,,,288.0806259000001,288.0960930000001,288.29619730000013,288.27970280000045,287.1993988000004,,,,,,,,0,1,0.870975400000134,None,,,,,,,,806,21,V,L,2026-02-18_12h28.45.914,VisualSearch_2526_3,,2025.2.4,2026-02-18 12h28.46.109008 +0100,
vertical.xlsx,The target is tilted.,135,14,6,1,1,1,1,1,1,1,1,1,0,0,0,0,0,7,8,135,space,3.3660728999993808,None,0,0,0.9002846999992471,None,space,4.071700100000271,None,0,1,1,1,,,,,1,6,14,1,288.29619730000013,,,,,,,,,,,,,,,,,,,,,288.2805201000001,288.29619730000013,288.7797860999999,288.78448089999983,288.8023067000004,289.7136437999998,,,,,289.7138431000003,289.72924390000026,289.9292366999998,289.9130654999999,288.8023067000004,,,,,,,,0,0,0.9002846999992471,None,,,,,,,,806,21,V,L,2026-02-18_12h28.45.914,VisualSearch_2526_3,,2025.2.4,2026-02-18 12h28.46.109008 +0100,
vertical.xlsx,The target is tilted.,135,15,7,1,1,1,1,1,1,1,1,1,1,1,1,1,0,11,12,135,space,3.3660728999993808,None,1,1,0.8012245999998413,None,space,4.071700100000271,None,0,1,1,1,,,,,1,7,15,0,289.9292366999998,,,,,,,,,,,,,,,,,,,,,289.91377939999984,289.9292366999998,290.4134451,290.4192573,290.43501410000044,291.24665639999967,,,,,291.2468465000002,291.26233969999976,291.4623942999997,291.44633090000025,290.43501410000044,,,,,,,,1,1,0.8012245999998413,None,,,,,,,,806,21,V,L,2026-02-18_12h28.45.914,VisualSearch_2526_3,,2025.2.4,2026-02-18 12h28.46.109008 +0100,
vertical.xlsx,The target is tilted.,135,16,0,2,0,1,1,1,0,0,0,0,0,0,0,0,1,3,4,135,space,3.3660728999993808,None,0,1,0.5130306000000928,None,space,4.071700100000271,None,0,1,1,1,,,,,2,0,16,6,291.4623942999997,,,,,,,,,,,,,,,,,,,,,291.44724399999996,291.4623942999997,291.9459824000005,291.9505814000004,291.9651117000003,292.47973249999995,,,,,292.47992179999983,292.4953066999997,292.6955147999997,292.67939990000013,291.9651117000003,,,,,,,,0,1,0.5130306000000928,None,,,,,,,,806,21,V,L,2026-02-18_12h28.45.914,VisualSearch_2526_3,,2025.2.4,2026-02-18 12h28.46.109008 +0100,
vertical.xlsx,The target is tilted.,135,17,1,2,1,1,1,1,1,1,1,1,0,0,0,0,0,7,8,135,space,3.3660728999993808,None,1,1,0.8186986000000616,None,space,4.071700100000271,None,0,1,1,1,,,,,2,1,17,1,292.6955147999997,,,,,,,,,,,,,,,,,,,,,292.68023710000034,292.6955147999997,293.17928159999974,293.18405729999995,293.19897390000006,294.02954090000003,,,,,294.0297099999998,294.04519600000003,294.2452957000005,294.2291922000004,293.19897390000006,,,,,,,,1,1,0.8186986000000616,None,,,,,,,,806,21,V,L,2026-02-18_12h28.45.914,VisualSearch_2526_3,,2025.2.4,2026-02-18 12h28.46.109008 +0100,
vertical.xlsx,The target is tilted.,135,18,2,2,1,0,0,0,0,0,0,0,0,0,0,0,0,0,1,135,space,3.3660728999993808,None,1,1,0.43121440000049915,None,space,4.071700100000271,None,0,1,1,1,,,,,2,2,18,3,294.2452957000005,,,,,,,,,,,,,,,,,,,,,294.22991569999976,294.2452957000005,294.7293102000003,294.73405790000015,294.7489201999997,295.19577430000027,,,,,295.1959084,295.21157700000003,295.4116881,295.3953400999999,294.7489201999997,,,,,,,,1,1,0.43121440000049915,None,,,,,,,,806,21,V,L,2026-02-18_12h28.45.914,VisualSearch_2526_3,,2025.2.4,2026-02-18 12h28.46.109008 +0100,
vertical.xlsx,The target is tilted.,135,19,3,2,1,1,1,1,1,1,1,1,1,1,1,1,0,11,12,135,space,3.3660728999993808,None,0,0,1.0776780000005601,None,space,4.071700100000271,None,0,1,1,1,,,,,2,3,19,0,295.4116881,,,,,,,,,,,,,,,,,,,,,295.39618640000026,295.4116881,295.89573480000035,295.9004136000003,295.9111396999997,296.99561880000056,,,,,296.99581039999975,297.01152619999993,297.21160710000004,297.19547520000015,295.9111396999997,,,,,,,,0,0,1.0776780000005601,None,,,,,,,,806,21,V,L,2026-02-18_12h28.45.914,VisualSearch_2526_3,,2025.2.4,2026-02-18 12h28.46.109008 +0100,
vertical.xlsx,The target is tilted.,135,20,4,2,0,1,1,1,1,1,1,1,0,0,0,0,1,7,8,135,space,3.3660728999993808,None,0,1,1.2914280999993935,None,space,4.071700100000271,None,0,1,1,1,,,,,2,4,20,5,297.21160710000004,,,,,,,,,,,,,,,,,,,,,297.1963069000003,297.21160710000004,297.6951482000004,297.6996723000002,297.7144238000001,299.01235780000025,,,,,299.01254750000044,299.02790749999986,299.22788089999995,299.2112597000005,297.7144238000001,,,,,,,,0,1,1.2914280999993935,None,,,,,,,,806,21,V,L,2026-02-18_12h28.45.914,VisualSearch_2526_3,,2025.2.4,2026-02-18 12h28.46.109008 +0100,
vertical.xlsx,The target is tilted.,135,21,5,2,1,1,1,1,0,0,0,0,0,0,0,0,0,3,4,135,space,3.3660728999993808,None,1,1,0.631649699999798,None,space,4.071700100000271,None,0,1,1,1,,,,,2,5,21,2,299.22788089999995,,,,,,,,,,,,,,,,,,,,,299.2120098000005,299.22788089999995,299.7114067000002,299.71607140000015,299.7303824999999,300.3780329000001,,,,,300.3781203999997,300.39417800000047,300.5944005000001,300.57843589999993,299.7303824999999,,,,,,,,1,1,0.631649699999798,None,,,,,,,,806,21,V,L,2026-02-18_12h28.45.914,VisualSearch_2526_3,,2025.2.4,2026-02-18 12h28.46.109008 +0100,
vertical.xlsx,The target is tilted.,135,22,6,2,0,1,1,1,1,1,1,1,1,1,1,1,1,11,12,135,space,3.3660728999993808,None,0,1,0.8599277000002985,None,space,4.071700100000271,None,0,1,1,1,,,,,2,6,22,4,300.5944005000001,,,,,,,,,,,,,,,,,,,,,300.57926620000035,300.5944005000001,301.07784249999986,301.08280600000035,301.0941898000001,301.96165870000004,,,,,301.96183089999977,301.97746950000055,302.1774217000002,302.16080820000025,301.0941898000001,,,,,,,,0,1,0.8599277000002985,None,,,,,,,,806,21,V,L,2026-02-18_12h28.45.914,VisualSearch_2526_3,,2025.2.4,2026-02-18 12h28.46.109008 +0100,
vertical.xlsx,The target is tilted.,135,23,7,2,0,0,0,0,0,0,0,0,0,0,0,0,1,1,1,135,space,3.3660728999993808,None,0,1,0.5117633999998361,None,space,4.071700100000271,None,0,1,1,1,,,,,2,7,23,7,302.1774217000002,,,,,,,,,,,,,,,,,,,,,302.1615651000002,302.1774217000002,302.66134650000004,302.6665376000001,302.6831602000002,303.2117158000001,,,,,303.2119066000005,303.22748709999996,303.4274111000004,303.4112421,302.6831602000002,,,,,,,,0,1,0.5117633999998361,None,,,,,,,,806,21,V,L,2026-02-18_12h28.45.914,VisualSearch_2526_3,,2025.2.4,2026-02-18 12h28.46.109008 +0100,
vertical.xlsx,The target is tilted.,135,24,0,3,0,1,1,1,0,0,0,0,0,0,0,0,1,3,4,135,space,3.3660728999993808,None,0,1,0.6281465000001845,None,space,4.071700100000271,None,0,1,1,1,,,,,3,0,24,6,303.4274111000004,,,,,,,,,,,,,,,,,,,,,303.4120746999997,303.4274111000004,303.9108323999999,303.9156942999998,303.93200479999996,304.56126630000017,,,,,304.56142329999966,304.5770487,304.77715100000023,304.760765,303.93200479999996,,,,,,,,0,1,0.6281465000001845,None,,,,,,,,806,21,V,L,2026-02-18_12h28.45.914,VisualSearch_2526_3,,2025.2.4,2026-02-18 12h28.46.109008 +0100,
vertical.xlsx,The target is tilted.,135,25,1,3,1,1,1,1,1,1,1,1,0,0,0,0,0,7,8,135,space,3.3660728999993808,None,1,1,0.6348735999999917,None,space,4.071700100000271,None,0,1,1,1,,,,,3,1,25,1,304.77715100000023,,,,,,,,,,,,,,,,,,,,,304.7616014000005,304.77715100000023,305.26074979999976,305.2653154999998,305.28056970000034,305.92782910000005,,,,,305.9280031999997,305.9433847999999,306.1436580999998,306.12738530000024,305.28056970000034,,,,,,,,1,1,0.6348735999999917,None,,,,,,,,806,21,V,L,2026-02-18_12h28.45.914,VisualSearch_2526_3,,2025.2.4,2026-02-18 12h28.46.109008 +0100,
vertical.xlsx,The target is tilted.,135,26,2,3,0,1,1,1,1,1,1,1,0,0,0,0,1,7,8,135,space,3.3660728999993808,None,0,1,1.7175078000000212,None,space,4.071700100000271,None,0,1,1,1,,,,,3,2,26,5,306.1436580999998,,,,,,,,,,,,,,,,,,,,,306.1281594000002,306.1436580999998,306.62759090000054,306.63279909999983,306.64830919999986,308.3777605000005,,,,,308.3779566000003,308.3932543000001,308.59299009999995,308.5767370000003,306.64830919999986,,,,,,,,0,1,1.7175078000000212,None,,,,,,,,806,21,V,L,2026-02-18_12h28.45.914,VisualSearch_2526_3,,2025.2.4,2026-02-18 12h28.46.109008 +0100,
vertical.xlsx,The target is tilted.,135,27,3,3,1,0,0,0,0,0,0,0,0,0,0,0,0,0,1,135,space,3.3660728999993808,None,1,1,0.44109839999964606,None,space,4.071700100000271,None,0,1,1,1,,,,,3,3,27,3,308.59299009999995,,,,,,,,,,,,,,,,,,,,,308.57754879999993,308.59299009999995,309.0771141000005,309.0815800999999,309.09777230000054,309.54410259999986,,,,,309.5443072999997,309.5596789000001,309.75953670000035,309.7437781999997,309.09777230000054,,,,,,,,1,1,0.44109839999964606,None,,,,,,,,806,21,V,L,2026-02-18_12h28.45.914,VisualSearch_2526_3,,2025.2.4,2026-02-18 12h28.46.109008 +0100,
vertical.xlsx,The target is tilted.,135,28,4,3,1,1,1,1,0,0,0,0,0,0,0,0,0,3,4,135,space,3.3660728999993808,None,1,1,0.5964509999994334,None,space,4.071700100000271,None,0,1,1,1,,,,,3,4,28,2,309.75953670000035,,,,,,,,,,,,,,,,,,,,,309.74460009999984,309.75953670000035,310.2435317999998,310.24812740000016,310.26196230000005,310.8602639999999,,,,,310.86043620000055,310.87610719999975,311.0763781000005,311.05990530000054,310.26196230000005,,,,,,,,1,1,0.5964509999994334,None,,,,,,,,806,21,V,L,2026-02-18_12h28.45.914,VisualSearch_2526_3,,2025.2.4,2026-02-18 12h28.46.109008 +0100,
vertical.xlsx,The target is tilted.,135,29,5,3,0,1,1,1,1,1,1,1,1,1,1,1,1,11,12,135,space,3.3660728999993808,None,0,1,1.1705167999998594,None,space,4.071700100000271,None,0,1,1,1,,,,,3,5,29,4,311.0763781000005,,,,,,,,,,,,,,,,,,,,,311.0606723000001,311.0763781000005,311.55984929999977,311.5643885999998,311.5805406999998,312.76049049999983,,,,,312.7607207000001,312.7755876000001,312.9756299999999,312.9596392000003,311.5805406999998,,,,,,,,0,1,1.1705167999998594,None,,,,,,,,806,21,V,L,2026-02-18_12h28.45.914,VisualSearch_2526_3,,2025.2.4,2026-02-18 12h28.46.109008 +0100,
vertical.xlsx,The target is tilted.,135,30,6,3,1,1,1,1,1,1,1,1,1,1,1,1,0,11,12,135,space,3.3660728999993808,None,0,0,0.916339400000652,None,space,4.071700100000271,None,0,1,1,1,,,,,3,6,30,0,312.9756299999999,,,,,,,,,,,,,,,,,,,,,312.9604048000001,312.9756299999999,313.45985650000057,313.4644463000004,313.48055509999995,314.40947510000024,,,,,314.40956410000035,314.42506930000036,314.62528999999995,314.60927640000045,313.48055509999995,,,,,,,,0,0,0.916339400000652,None,,,,,,,,806,21,V,L,2026-02-18_12h28.45.914,VisualSearch_2526_3,,2025.2.4,2026-02-18 12h28.46.109008 +0100,
vertical.xlsx,The target is tilted.,135,31,7,3,0,0,0,0,0,0,0,0,0,0,0,0,1,1,1,135,space,3.3660728999993808,None,0,1,0.5429121999995914,None,space,4.071700100000271,None,0,1,1,1,,,,,3,7,31,7,314.62528999999995,,,,,,,,,,,,,,,,,,,,,314.61002970000027,314.62528999999995,315.1100631999998,315.11464239999987,315.1293291000002,315.6763071000005,,,,,315.67652610000005,315.69185089999974,315.89229539999997,315.87617839999984,315.1293291000002,,,,,,,,0,1,0.5429121999995914,None,,,,,,,,806,21,V,L,2026-02-18_12h28.45.914,VisualSearch_2526_3,,2025.2.4,2026-02-18 12h28.46.109008 +0100,
vertical.xlsx,The target is tilted.,135,32,0,4,1,0,0,0,0,0,0,0,0,0,0,0,0,0,1,135,space,3.3660728999993808,None,1,1,0.4116783999998006,None,space,4.071700100000271,None,0,1,1,1,,,,,4,0,32,3,315.89229539999997,,,,,,,,,,,,,,,,,,,,,315.87701220000054,315.89229539999997,316.3758803999999,316.38045169999987,316.3950311999997,316.8099594000005,,,,,316.8101674999998,316.82502980000027,317.0254395000002,317.0093714000004,316.3950311999997,,,,,,,,1,1,0.4116783999998006,None,,,,,,,,806,21,V,L,2026-02-18_12h28.45.914,VisualSearch_2526_3,,2025.2.4,2026-02-18 12h28.46.109008 +0100,
vertical.xlsx,The target is tilted.,135,33,1,4,0,1,1,1,1,1,1,1,0,0,0,0,1,7,8,135,space,3.3660728999993808,None,0,1,1.2667790999994395,None,space,4.071700100000271,None,0,1,1,1,,,,,4,1,33,5,317.0254395000002,,,,,,,,,,,,,,,,,,,,,317.01021279999986,317.0254395000002,317.50905760000023,317.5136253999999,317.5283975000002,318.8095462000001,,,,,318.80973950000043,318.8251200000004,319.0251238999999,319.0088931999999,317.5283975000002,,,,,,,,0,1,1.2667790999994395,None,,,,,,,,806,21,V,L,2026-02-18_12h28.45.914,VisualSearch_2526_3,,2025.2.4,2026-02-18 12h28.46.109008 +0100,
