file_name,block_instructions,target_example,thisN,thisTrialN,thisRepN,target_presence,opacity_1,opacity_2,opacity_3,opacity_4,opacity_5,opacity_6,opacity_7,opacity_8,opacity_9,opacity_10,opacity_11,opacity_12,n_distract,n_items,target_ori,key_resp_4.keys,key_resp_4.rt,key_resp_4.duration,key_resp.keys,key_resp.corr,key_resp.rt,key_resp.duration,key_resp_5.keys,key_resp_5.rt,key_resp_5.duration,blocks.thisRepN,blocks.thisTrialN,blocks.thisN,blocks.thisIndex,practice_trials.thisRepN,practice_trials.thisTrialN,practice_trials.thisN,practice_trials.thisIndex,trials.thisRepN,trials.thisTrialN,trials.thisN,trials.thisIndex,thisRow.t,notes,Welcome.started,WelcomeText.started,key_resp_2.started,Welcome.stopped,key_resp_2.keys,key_resp_2.rt,key_resp_2.duration,InformedConsent.started,text_4.started,InformedConsent.stopped,key_resp_6.keys,key_resp_6.rt,key_resp_6.duration,key_resp_4.started,example_target.started,text_3.started,blocks.key_resp_4.keys,blocks.key_resp_4.rt,blocks.key_resp_4.duration,FixCross.started,fixCross.started,FixCross.stopped,Stimulus.started,key_resp.started,Stimulus.stopped,practice_trials.key_resp.keys,practice_trials.key_resp.corr,practice_trials.key_resp.rt,practice_trials.key_resp.duration,BlankScreen.started,text.started,text.stopped,BlankScreen.stopped,fixCross.stopped,ExperimentStart.started,text_2.started,key_resp_5.started,ExperimentStart.stopped,blocks.key_resp_5.keys,blocks.key_resp_5.rt,blocks.key_resp_5.duration,trials.key_resp.keys,trials.key_resp.corr,trials.key_resp.rt,trials.key_resp.duration,Thanks.started,ThankYou.started,key_resp_3.started,Thanks.stopped,key_resp_3.keys,key_resp_3.rt,key_resp_3.duration,participant,leeftijd,gender,links/rechtshandig,date,expName,expVersion,psychopyVersion,expStart,
,,,,,,,,,,,,,,,,,,,,,,,,,,,,,,,,,,,,,,,,,,,,,,0.019123000000035972,0.0309133999999176,0.0309133999999176,26.159638000000086,space,26.10199840000041,None,,,,,,,,,,,,,,,,,,,,,,,,,,,,,,,,,,,,,,,,,,,,,,807,22,M,R,2026-02-18_12h39.13.926,VisualSearch_2526_3,,2025.2.4,2026-02-18 12h39.14.119896 +0100,
,,,,,,,,,,,,,,,,,,,,,,,,,,,,,,,,,,,,,,,,,,,,,,,,,,,,,26.159690200000114,26.16474130000006,32.3137614999996,y,6.142241399999875,None,,,,,,,,,,,,,,,,,,,,,,,,,,,,,,,,,,,,,,,,807,22,M,R,2026-02-18_12h39.13.926,VisualSearch_2526_3,,2025.2.4,2026-02-18 12h39.14.119896 +0100,
vertical.xlsx,The target is tilted.,135,0,0,0,1,1,1,1,1,1,1,1,1,1,1,1,0,11,12,135,space,7.537362199999734,None,1,1,1.3717850000002727,None,,,,0,0,0,1,0,0,0,0,,,,,39.903604500000256,,,,,,,,,,,,,,,32.33908280000014,32.33908280000014,32.33908280000014,space,7.537362199999734,None,39.89867959999992,39.903604500000256,40.3955619999997,40.40035069999976,40.41552739999952,41.79614130000027,1,1,1.3717850000002727,None,41.79633439999998,41.8116342000003,42.011730799999896,41.995677899999464,,,,,,,,,,,,,,,,,,,,807,22,M,R,2026-02-18_12h39.13.926,VisualSearch_2526_3,,2025.2.4,2026-02-18 12h39.14.119896 +0100,
vertical.xlsx,The target is tilted.,135,1,1,0,0,0,0,0,0,0,0,0,0,0,0,0,1,1,1,135,space,7.537362199999734,None,0,1,1.2855466000000888,None,,,,0,0,0,1,0,1,1,7,,,,,42.011730799999896,,,,,,,,,,,,,,,,,,,,,41.99634140000035,42.011730799999896,42.49536970000008,42.499704900000324,42.51150659999985,43.81250980000004,0,1,1.2855466000000888,None,43.81270080000013,43.82796419999977,44.02794119999999,44.0118265000001,42.51150659999985,,,,,,,,,,,,,,,,,,,807,22,M,R,2026-02-18_12h39.13.926,VisualSearch_2526_3,,2025.2.4,2026-02-18 12h39.14.119896 +0100,
vertical.xlsx,The target is tilted.,135,2,2,0,0,1,1,1,0,0,0,0,0,0,0,0,1,3,4,135,space,7.537362199999734,None,0,1,0.8450256000005538,None,,,,0,0,0,1,0,2,2,6,,,,,44.02794119999999,,,,,,,,,,,,,,,,,,,,,44.012601299999915,44.02794119999999,44.5119093000003,44.51660650000031,44.53412969999954,45.39524939999956,0,1,0.8450256000005538,None,45.39543969999977,45.41070109999964,45.61074540000027,45.594667299999855,44.53412969999954,,,,,,,,,,,,,,,,,,,807,22,M,R,2026-02-18_12h39.13.926,VisualSearch_2526_3,,2025.2.4,2026-02-18 12h39.14.119896 +0100,
vertical.xlsx,The target is tilted.,135,3,3,0,1,1,1,1,1,1,1,1,0,0,0,0,0,7,8,135,space,7.537362199999734,None,1,1,0.9302008000004207,None,,,,0,0,0,1,0,3,3,1,,,,,45.61074540000027,,,,,,,,,,,,,,,,,,,,,45.59533459999966,45.61074540000027,46.095000999999684,46.10011620000023,46.11570449999999,47.06098759999986,1,1,0.9302008000004207,None,47.061120800000026,47.07705910000004,47.277237700000114,47.261255399999754,46.11570449999999,,,,,,,,,,,,,,,,,,,807,22,M,R,2026-02-18_12h39.13.926,VisualSearch_2526_3,,2025.2.4,2026-02-18 12h39.14.119896 +0100,
vertical.xlsx,The target is tilted.,135,4,4,0,0,1,1,1,1,1,1,1,0,0,0,0,1,7,8,135,space,7.537362199999734,None,0,1,1.5403123000005507,None,,,,0,0,0,1,0,4,4,5,,,,,47.277237700000114,,,,,,,,,,,,,,,,,,,,,47.26194579999992,47.277237700000114,47.76103460000013,47.765701600000284,47.78134399999999,49.32766360000005,0,1,1.5403123000005507,None,49.32775899999979,49.34323630000017,49.54398239999955,49.52776199999971,47.78134399999999,,,,,,,,,,,,,,,,,,,807,22,M,R,2026-02-18_12h39.13.926,VisualSearch_2526_3,,2025.2.4,2026-02-18 12h39.14.119896 +0100,
vertical.xlsx,The target is tilted.,135,5,5,0,1,0,0,0,0,0,0,0,0,0,0,0,0,0,1,135,space,7.537362199999734,None,1,1,0.7166950000000725,None,,,,0,0,0,1,0,5,5,3,,,,,49.54398239999955,,,,,,,,,,,,,,,,,,,,,49.5284614000002,49.54398239999955,50.027678399999786,50.03231810000034,50.0473307000002,50.77772999999979,1,1,0.7166950000000725,None,50.77793320000001,50.7932651000001,50.993561899999804,50.977620800000295,50.0473307000002,,,,,,,,,,,,,,,,,,,807,22,M,R,2026-02-18_12h39.13.926,VisualSearch_2526_3,,2025.2.4,2026-02-18 12h39.14.119896 +0100,
vertical.xlsx,The target is tilted.,135,6,6,0,0,1,1,1,1,1,1,1,1,1,1,1,1,11,12,135,space,7.537362199999734,None,0,1,1.7572876000003816,None,,,,0,0,0,1,0,6,6,4,,,,,50.993561899999804,,,,,,,,,,,,,,,,,,,,,50.97828049999953,50.993561899999804,51.47753809999995,51.482219200000145,51.49784869999985,53.26090060000024,0,1,1.7572876000003816,None,53.26110419999986,53.276108699999895,53.476605500000005,53.46058970000013,51.49784869999985,,,,,,,,,,,,,,,,,,,807,22,M,R,2026-02-18_12h39.13.926,VisualSearch_2526_3,,2025.2.4,2026-02-18 12h39.14.119896 +0100,
vertical.xlsx,The target is tilted.,135,7,7,0,1,1,1,1,0,0,0,0,0,0,0,0,0,3,4,135,space,7.537362199999734,None,1,1,0.6303697000003012,None,,,,0,0,0,1,0,7,7,2,,,,,53.476605500000005,,,,,,,,,,,,,,,,,,,,,53.46133839999948,53.476605500000005,53.96053440000014,53.96511920000012,53.98088999999982,54.62730409999949,1,1,0.6303697000003012,None,54.62749840000015,54.64280690000032,54.843113099999755,54.82693889999973,53.98088999999982,,,,,,,,,,,,,,,,,,,807,22,M,R,2026-02-18_12h39.13.926,VisualSearch_2526_3,,2025.2.4,2026-02-18 12h39.14.119896 +0100,
vertical.xlsx,The target is tilted.,135,0,0,0,0,1,1,1,1,1,1,1,0,0,0,0,1,7,8,135,space,7.537362199999734,None,0,1,1.9661559999995006,None,space,2.1355515000004743,None,0,0,0,1,,,,,0,0,0,5,57.022154899999805,,,,,,,,,,,,,,,,,,,,,57.018351200000325,57.022154899999805,57.50980030000028,57.51464179999948,57.53027810000003,59.5097851999999,,,,,59.509988099999646,59.52543549999973,59.72556850000001,59.70937580000009,,54.83440429999973,54.843113099999755,54.843113099999755,56.99407929999961,space,2.1355515000004743,None,0,1,1.9661559999995006,None,,,,,,,,807,22,M,R,2026-02-18_12h39.13.926,VisualSearch_2526_3,,2025.2.4,2026-02-18 12h39.14.119896 +0100,
vertical.xlsx,The target is tilted.,135,1,1,0,1,1,1,1,0,0,0,0,0,0,0,0,0,3,4,135,space,7.537362199999734,None,1,1,0.6680707000004986,None,space,2.1355515000004743,None,0,0,0,1,,,,,0,1,1,2,59.72556850000001,,,,,,,,,,,,,,,,,,,,,59.710125399999924,59.72556850000001,60.20957350000026,60.21433329999945,60.230557699999736,60.90936189999957,,,,,60.90949889999956,60.92519770000035,61.12567229999968,61.109523799999806,60.230557699999736,,,,,,,,1,1,0.6680707000004986,None,,,,,,,,807,22,M,R,2026-02-18_12h39.13.926,VisualSearch_2526_3,,2025.2.4,2026-02-18 12h39.14.119896 +0100,
vertical.xlsx,The target is tilted.,135,2,2,0,1,1,1,1,1,1,1,1,0,0,0,0,0,7,8,135,space,7.537362199999734,None,1,1,1.2710243999999875,None,space,2.1355515000004743,None,0,0,0,1,,,,,0,2,2,1,61.12567229999968,,,,,,,,,,,,,,,,,,,,,61.11024709999947,61.12567229999968,61.6094465999995,61.6140706999995,61.626292199999625,62.90974879999976,,,,,62.90994570000021,62.92489699999987,63.12557130000005,63.10954070000025,61.626292199999625,,,,,,,,1,1,1.2710243999999875,None,,,,,,,,807,22,M,R,2026-02-18_12h39.13.926,VisualSearch_2526_3,,2025.2.4,2026-02-18 12h39.14.119896 +0100,
vertical.xlsx,The target is tilted.,135,3,3,0,0,1,1,1,1,1,1,1,1,1,1,1,1,11,12,135,space,7.537362199999734,None,0,1,1.1940791999995781,None,space,2.1355515000004743,None,0,0,0,1,,,,,0,3,3,4,63.12557130000005,,,,,,,,,,,,,,,,,,,,,63.11062109999966,63.12557130000005,63.609047899999496,63.61368169999969,63.62967370000024,64.82547989999966,,,,,64.82555649999995,64.84104800000023,65.04178899999988,65.02557979999983,63.62967370000024,,,,,,,,0,1,1.1940791999995781,None,,,,,,,,807,22,M,R,2026-02-18_12h39.13.926,VisualSearch_2526_3,,2025.2.4,2026-02-18 12h39.14.119896 +0100,
vertical.xlsx,The target is tilted.,135,4,4,0,0,1,1,1,0,0,0,0,0,0,0,0,1,3,4,135,space,7.537362199999734,None,0,1,0.5697786000000633,None,space,2.1355515000004743,None,0,0,0,1,,,,,0,4,4,6,65.04178899999988,,,,,,,,,,,,,,,,,,,,,65.02638209999986,65.04178899999988,65.52555109999957,65.53017720000025,65.54522850000012,66.1260844999997,,,,,66.12627789999988,66.14111140000023,66.34153189999961,66.32542060000014,65.54522850000012,,,,,,,,0,1,0.5697786000000633,None,,,,,,,,807,22,M,R,2026-02-18_12h39.13.926,VisualSearch_2526_3,,2025.2.4,2026-02-18 12h39.14.119896 +0100,
vertical.xlsx,The target is tilted.,135,5,5,0,1,1,1,1,1,1,1,1,1,1,1,1,0,11,12,135,space,7.537362199999734,None,1,1,0.6371308999996472,None,space,2.1355515000004743,None,0,0,0,1,,,,,0,5,5,0,66.34153189999961,,,,,,,,,,,,,,,,,,,,,66.32615840000017,66.34153189999961,66.82531899999958,66.82992990000002,66.8434427000002,67.4925033999998,,,,,67.4927061999997,67.50757739999972,67.70801239999946,67.69186009999976,66.8434427000002,,,,,,,,1,1,0.6371308999996472,None,,,,,,,,807,22,M,R,2026-02-18_12h39.13.926,VisualSearch_2526_3,,2025.2.4,2026-02-18 12h39.14.119896 +0100,
vertical.xlsx,The target is tilted.,135,6,6,0,0,0,0,0,0,0,0,0,0,0,0,0,1,1,1,135,space,7.537362199999734,None,0,1,0.6128955000003771,None,space,2.1355515000004743,None,0,0,0,1,,,,,0,6,6,7,67.70801239999946,,,,,,,,,,,,,,,,,,,,,67.69265149999956,67.70801239999946,68.19185579999976,68.19651499999964,68.2112218000002,68.82559390000006,,,,,68.82580280000002,68.84069009999985,69.04094359999999,69.0247287000002,68.2112218000002,,,,,,,,0,1,0.6128955000003771,None,,,,,,,,807,22,M,R,2026-02-18_12h39.13.926,VisualSearch_2526_3,,2025.2.4,2026-02-18 12h39.14.119896 +0100,
vertical.xlsx,The target is tilted.,135,7,7,0,1,0,0,0,0,0,0,0,0,0,0,0,0,0,1,135,space,7.537362199999734,None,1,1,0.6160998000004838,None,space,2.1355515000004743,None,0,0,0,1,,,,,0,7,7,3,69.04094359999999,,,,,,,,,,,,,,,,,,,,,69.02546100000018,69.04094359999999,69.52518140000029,69.53050059999987,69.54530710000017,70.17494329999954,,,,,70.17513839999992,70.19052469999951,70.39103129999967,70.37506800000028,69.54530710000017,,,,,,,,1,1,0.6160998000004838,None,,,,,,,,807,22,M,R,2026-02-18_12h39.13.926,VisualSearch_2526_3,,2025.2.4,2026-02-18 12h39.14.119896 +0100,
vertical.xlsx,The target is tilted.,135,8,0,1,0,1,1,1,0,0,0,0,0,0,0,0,1,3,4,135,space,7.537362199999734,None,0,1,1.024424100000033,None,space,2.1355515000004743,None,0,0,0,1,,,,,1,0,8,6,70.39103129999967,,,,,,,,,,,,,,,,,,,,,70.37588469999992,70.39103129999967,70.87484839999979,70.8794699,70.89519370000016,71.92489300000034,,,,,71.92505669999991,71.94026819999999,72.14080339999964,72.12501049999992,70.89519370000016,,,,,,,,0,1,1.024424100000033,None,,,,,,,,807,22,M,R,2026-02-18_12h39.13.926,VisualSearch_2526_3,,2025.2.4,2026-02-18 12h39.14.119896 +0100,
vertical.xlsx,The target is tilted.,135,9,1,1,1,1,1,1,1,1,1,1,0,0,0,0,0,7,8,135,space,7.537362199999734,None,0,0,1.541552600000614,None,space,2.1355515000004743,None,0,0,0,1,,,,,1,1,9,1,72.14080339999964,,,,,,,,,,,,,,,,,,,,,72.12581709999995,72.14080339999964,72.62453790000018,72.6294767999998,72.64451240000017,74.19142980000015,,,,,74.19159330000002,74.20652309999969,74.40693360000023,74.39072539999961,72.64451240000017,,,,,,,,0,0,1.541552600000614,None,,,,,,,,807,22,M,R,2026-02-18_12h39.13.926,VisualSearch_2526_3,,2025.2.4,2026-02-18 12h39.14.119896 +0100,
vertical.xlsx,The target is tilted.,135,10,2,1,1,1,1,1,1,1,1,1,1,1,1,1,0,11,12,135,space,7.537362199999734,None,1,1,0.7233185000004596,None,space,2.1355515000004743,None,0,0,0,1,,,,,1,2,10,0,74.40693360000023,,,,,,,,,,,,,,,,,,,,,74.39130740000019,74.40693360000023,74.89052300000003,74.89520670000002,74.91012570000021,75.64117139999962,,,,,75.64136640000015,75.65643689999979,75.85691039999983,75.84089469999981,74.91012570000021,,,,,,,,1,1,0.7233185000004596,None,,,,,,,,807,22,M,R,2026-02-18_12h39.13.926,VisualSearch_2526_3,,2025.2.4,2026-02-18 12h39.14.119896 +0100,
vertical.xlsx,The target is tilted.,135,11,3,1,1,0,0,0,0,0,0,0,0,0,0,0,0,0,1,135,space,7.537362199999734,None,1,1,0.7511961999998675,None,space,2.1355515000004743,None,0,0,0,1,,,,,1,3,11,3,75.85691039999983,,,,,,,,,,,,,,,,,,,,,75.84174819999953,75.85691039999983,76.34086560000014,76.34622330000002,76.36342369999966,77.1244684000003,,,,,77.12466419999964,77.13951889999953,77.3400314999999,77.32364359999974,76.36342369999966,,,,,,,,1,1,0.7511961999998675,None,,,,,,,,807,22,M,R,2026-02-18_12h39.13.926,VisualSearch_2526_3,,2025.2.4,2026-02-18 12h39.14.119896 +0100,
vertical.xlsx,The target is tilted.,135,12,4,1,0,0,0,0,0,0,0,0,0,0,0,0,1,1,1,135,space,7.537362199999734,None,0,1,0.7205055999993419,None,space,2.1355515000004743,None,0,0,0,1,,,,,1,4,12,7,77.3400314999999,,,,,,,,,,,,,,,,,,,,,77.3244681999995,77.3400314999999,77.82382169999983,77.82839590000003,77.8441313000003,78.57402869999987,,,,,78.57422589999987,78.58934979999958,78.78988299999946,78.77372709999963,77.8441313000003,,,,,,,,0,1,0.7205055999993419,None,,,,,,,,807,22,M,R,2026-02-18_12h39.13.926,VisualSearch_2526_3,,2025.2.4,2026-02-18 12h39.14.119896 +0100,
vertical.xlsx,The target is tilted.,135,13,5,1,0,1,1,1,1,1,1,1,1,1,1,1,1,11,12,135,space,7.537362199999734,None,0,1,2.3832821000005424,None,space,2.1355515000004743,None,0,0,0,1,,,,,1,5,13,4,78.78988299999946,,,,,,,,,,,,,,,,,,,,,78.77444680000008,78.78988299999946,79.27354050000031,79.27816639999946,79.29212290000032,81.6901912000003,,,,,81.69047810000029,81.7055749000001,81.90585929999997,81.8899752999996,79.29212290000032,,,,,,,,0,1,2.3832821000005424,None,,,,,,,,807,22,M,R,2026-02-18_12h39.13.926,VisualSearch_2526_3,,2025.2.4,2026-02-18 12h39.14.119896 +0100,
vertical.xlsx,The target is tilted.,135,14,6,1,0,1,1,1,1,1,1,1,0,0,0,0,1,7,8,135,space,7.537362199999734,None,0,1,1.8388568000000305,None,space,2.1355515000004743,None,0,0,0,1,,,,,1,6,14,5,81.90585929999997,,,,,,,,,,,,,,,,,,,,,81.89135290000013,81.90585929999997,82.38986560000012,82.39434770000025,82.40554199999951,84.25678379999954,,,,,84.2569996000002,84.27188949999982,84.47195300000021,84.45584140000028,82.40554199999951,,,,,,,,0,1,1.8388568000000305,None,,,,,,,,807,22,M,R,2026-02-18_12h39.13.926,VisualSearch_2526_3,,2025.2.4,2026-02-18 12h39.14.119896 +0100,
vertical.xlsx,The target is tilted.,135,15,7,1,1,1,1,1,0,0,0,0,0,0,0,0,0,3,4,135,space,7.537362199999734,None,1,1,0.7869921000001341,None,space,2.1355515000004743,None,0,0,0,1,,,,,1,7,15,2,84.47195300000021,,,,,,,,,,,,,,,,,,,,,84.45658579999963,84.47195300000021,84.95616470000004,84.96075310000015,84.97658649999994,85.77328880000005,,,,,85.77348439999969,85.7882856999995,85.98833819999982,85.97273769999993,84.97658649999994,,,,,,,,1,1,0.7869921000001341,None,,,,,,,,807,22,M,R,2026-02-18_12h39.13.926,VisualSearch_2526_3,,2025.2.4,2026-02-18 12h39.14.119896 +0100,
vertical.xlsx,The target is tilted.,135,16,0,2,1,1,1,1,0,0,0,0,0,0,0,0,0,3,4,135,space,7.537362199999734,None,1,1,0.6459331999994902,None,space,2.1355515000004743,None,0,0,0,1,,,,,2,0,16,2,85.98833819999982,,,,,,,,,,,,,,,,,,,,,85.97345669999959,85.98833819999982,86.47263870000006,86.47720610000033,86.49318210000001,87.1549914999996,,,,,87.15508119999959,87.17146690000027,,87.35565570000017,86.49318210000001,,,,,,,,1,1,0.6459331999994902,None,,,,,,,,807,22,M,R,2026-02-18_12h39.13.926,VisualSearch_2526_3,,2025.2.4,2026-02-18 12h39.14.119896 +0100,
vertical.xlsx,The target is tilted.,135,17,1,2,1,1,1,1,1,1,1,1,0,0,0,0,0,7,8,135,space,7.537362199999734,None,1,1,0.7737260000003516,None,space,2.1355515000004743,None,0,0,0,1,,,,,2,1,17,1,87.37192320000031,,,,,,,,,,,,,,,,,,,,,87.35641899999973,87.37192320000031,87.85547510000015,87.86012019999998,87.87740589999976,88.65579119999984,,,,,88.65598599999976,88.6712706999997,88.87133339999946,88.85540459999993,,,,,,,,,1,1,0.7737260000003516,None,,,,,,,,807,22,M,R,2026-02-18_12h39.13.926,VisualSearch_2526_3,,2025.2.4,2026-02-18 12h39.14.119896 +0100,
vertical.xlsx,The target is tilted.,135,18,2,2,0,1,1,1,0,0,0,0,0,0,0,0,1,3,4,135,space,7.537362199999734,None,0,1,0.9598250999997617,None,space,2.1355515000004743,None,0,0,0,1,,,,,2,2,18,6,88.87133339999946,,,,,,,,,,,,,,,,,,,,,88.8561480999997,88.87133339999946,89.35547150000002,89.36007590000008,89.37620160000006,90.33871129999989,,,,,90.33881229999952,90.35423579999951,90.55486680000013,90.5386712999998,89.37620160000006,,,,,,,,0,1,0.9598250999997617,None,,,,,,,,807,22,M,R,2026-02-18_12h39.13.926,VisualSearch_2526_3,,2025.2.4,2026-02-18 12h39.14.119896 +0100,
vertical.xlsx,The target is tilted.,135,19,3,2,0,0,0,0,0,0,0,0,0,0,0,0,1,1,1,135,space,7.537362199999734,None,0,1,1.326796700000159,None,space,2.1355515000004743,None,0,0,0,1,,,,,2,3,19,7,90.55486680000013,,,,,,,,,,,,,,,,,,,,,90.53939809999974,90.55486680000013,91.03860090000035,91.0430338999995,91.05459900000005,92.38947980000012,,,,,92.38969110000016,92.40424950000033,92.60459739999988,92.58814019999954,91.05459900000005,,,,,,,,0,1,1.326796700000159,None,,,,,,,,807,22,M,R,2026-02-18_12h39.13.926,VisualSearch_2526_3,,2025.2.4,2026-02-18 12h39.14.119896 +0100,
vertical.xlsx,The target is tilted.,135,20,4,2,0,1,1,1,1,1,1,1,1,1,1,1,1,11,12,135,space,7.537362199999734,None,0,1,2.0041503000002194,None,space,2.1355515000004743,None,0,0,0,1,,,,,2,4,20,4,92.60459739999988,,,,,,,,,,,,,,,,,,,,,92.58889850000014,92.60459739999988,93.08789569999954,93.09267339999951,93.10686280000027,95.12146099999973,,,,,95.12160640000002,95.13699470000029,95.33744419999948,95.32122729999992,93.10686280000027,,,,,,,,0,1,2.0041503000002194,None,,,,,,,,807,22,M,R,2026-02-18_12h39.13.926,VisualSearch_2526_3,,2025.2.4,2026-02-18 12h39.14.119896 +0100,
vertical.xlsx,The target is tilted.,135,21,5,2,0,1,1,1,1,1,1,1,0,0,0,0,1,7,8,135,space,7.537362199999734,None,0,1,1.731141000000207,None,space,2.1355515000004743,None,0,0,0,1,,,,,2,5,21,5,95.33744419999948,,,,,,,,,,,,,,,,,,,,,95.32198189999963,95.33744419999948,95.82133919999978,95.8262949,95.84104529999968,97.58823120000034,,,,,97.58848289999969,97.60331859999951,97.80383069999971,97.78730689999975,95.84104529999968,,,,,,,,0,1,1.731141000000207,None,,,,,,,,807,22,M,R,2026-02-18_12h39.13.926,VisualSearch_2526_3,,2025.2.4,2026-02-18 12h39.14.119896 +0100,
vertical.xlsx,The target is tilted.,135,22,6,2,1,1,1,1,1,1,1,1,1,1,1,1,0,11,12,135,space,7.537362199999734,None,1,1,1.689530100000411,None,space,2.1355515000004743,None,0,0,0,1,,,,,2,6,22,0,97.80383069999971,,,,,,,,,,,,,,,,,,,,,97.78807349999988,97.80383069999971,98.28693779999958,98.28994890000013,98.30366349999986,100.00462739999966,,,,,100.00482480000028,100.0196347000001,100.22006189999956,100.20402449999983,98.30366349999986,,,,,,,,1,1,1.689530100000411,None,,,,,,,,807,22,M,R,2026-02-18_12h39.13.926,VisualSearch_2526_3,,2025.2.4,2026-02-18 12h39.14.119896 +0100,
vertical.xlsx,The target is tilted.,135,23,7,2,1,0,0,0,0,0,0,0,0,0,0,0,0,0,1,135,space,7.537362199999734,None,1,1,0.5426606000000902,None,space,2.1355515000004743,None,0,0,0,1,,,,,2,7,23,3,100.22006189999956,,,,,,,,,,,,,,,,,,,,,100.20474829999966,100.22006189999956,100.70385850000002,100.70846040000015,100.72251779999988,101.27059430000008,,,,,101.27077269999972,101.28609099999994,101.48662849999982,101.47000490000028,100.72251779999988,,,,,,,,1,1,0.5426606000000902,None,,,,,,,,807,22,M,R,2026-02-18_12h39.13.926,VisualSearch_2526_3,,2025.2.4,2026-02-18 12h39.14.119896 +0100,
vertical.xlsx,The target is tilted.,135,24,0,3,0,1,1,1,1,1,1,1,1,1,1,1,1,11,12,135,space,7.537362199999734,None,0,1,2.3910187999999835,None,space,2.1355515000004743,None,0,0,0,1,,,,,3,0,24,4,101.48662849999982,,,,,,,,,,,,,,,,,,,,,101.4707499999995,101.48662849999982,101.9705385999996,101.97602839999945,101.99148989999958,104.38682429999972,,,,,104.38696139999956,104.40229259999978,104.6027683000002,104.58636250000018,101.99148989999958,,,,,,,,0,1,2.3910187999999835,None,,,,,,,,807,22,M,R,2026-02-18_12h39.13.926,VisualSearch_2526_3,,2025.2.4,2026-02-18 12h39.14.119896 +0100,
vertical.xlsx,The target is tilted.,135,25,1,3,1,0,0,0,0,0,0,0,0,0,0,0,0,0,1,135,space,7.537362199999734,None,1,1,0.5115839000000051,None,space,2.1355515000004743,None,0,0,0,1,,,,,3,1,25,3,104.6027683000002,,,,,,,,,,,,,,,,,,,,,104.5871090999999,104.6027683000002,105.08624369999961,105.09082000000035,105.10617420000017,105.61999509999987,,,,,105.62012989999948,105.63549400000011,105.83582949999982,105.8196283999996,105.10617420000017,,,,,,,,1,1,0.5115839000000051,None,,,,,,,,807,22,M,R,2026-02-18_12h39.13.926,VisualSearch_2526_3,,2025.2.4,2026-02-18 12h39.14.119896 +0100,
vertical.xlsx,The target is tilted.,135,26,2,3,0,1,1,1,1,1,1,1,0,0,0,0,1,7,8,135,space,7.537362199999734,None,0,1,6.463070700000571,None,space,2.1355515000004743,None,0,0,0,1,,,,,3,2,26,5,105.83582949999982,,,,,,,,,,,,,,,,,,,,,105.82038190000003,105.83582949999982,106.31978590000017,106.32449619999988,106.34023689999958,112.81901610000023,,,,,112.81922589999976,112.83450029999949,113.03506509999988,113.01877530000002,106.34023689999958,,,,,,,,0,1,6.463070700000571,None,,,,,,,,807,22,M,R,2026-02-18_12h39.13.926,VisualSearch_2526_3,,2025.2.4,2026-02-18 12h39.14.119896 +0100,
vertical.xlsx,The target is tilted.,135,27,3,3,0,1,1,1,0,0,0,0,0,0,0,0,1,3,4,135,space,7.537362199999734,None,0,1,2.8803179999995336,None,space,2.1355515000004743,None,0,0,0,1,,,,,3,3,27,6,113.03506509999988,,,,,,,,,,,,,,,,,,,,,113.0196734000001,113.03506509999988,113.51863700000013,113.52341590000015,113.5382012,116.43479560000014,,,,,116.43496520000008,116.45069270000022,116.6507187999996,116.63505749999968,113.5382012,,,,,,,,0,1,2.8803179999995336,None,,,,,,,,807,22,M,R,2026-02-18_12h39.13.926,VisualSearch_2526_3,,2025.2.4,2026-02-18 12h39.14.119896 +0100,
vertical.xlsx,The target is tilted.,135,28,4,3,1,1,1,1,1,1,1,1,0,0,0,0,0,7,8,135,space,7.537362199999734,None,1,1,1.4782620000005409,None,space,2.1355515000004743,None,0,0,0,1,,,,,3,4,28,1,116.6507187999996,,,,,,,,,,,,,,,,,,,,,116.6357822,116.6507187999996,117.13496789999954,117.13999669999976,117.15498750000006,118.63444160000017,,,,,118.63458679999985,118.6502658999998,118.85081590000027,118.83463690000008,117.15498750000006,,,,,,,,1,1,1.4782620000005409,None,,,,,,,,807,22,M,R,2026-02-18_12h39.13.926,VisualSearch_2526_3,,2025.2.4,2026-02-18 12h39.14.119896 +0100,
vertical.xlsx,The target is tilted.,135,29,5,3,1,1,1,1,0,0,0,0,0,0,0,0,0,3,4,135,space,7.537362199999734,None,1,1,0.6195441999998366,None,space,2.1355515000004743,None,0,0,0,1,,,,,3,5,29,2,118.85081590000027,,,,,,,,,,,,,,,,,,,,,118.83538649999991,118.85081590000027,119.33453379999992,119.33918040000026,119.35655739999947,119.98506689999977,,,,,119.98526649999985,120.00012679999963,120.20064079999975,120.18449359999977,119.35655739999947,,,,,,,,1,1,0.6195441999998366,None,,,,,,,,807,22,M,R,2026-02-18_12h39.13.926,VisualSearch_2526_3,,2025.2.4,2026-02-18 12h39.14.119896 +0100,
vertical.xlsx,The target is tilted.,135,30,6,3,0,0,0,0,0,0,0,0,0,0,0,0,1,1,1,135,space,7.537362199999734,None,0,1,0.6403138999994553,None,space,2.1355515000004743,None,0,0,0,1,,,,,3,6,30,7,120.20064079999975,,,,,,,,,,,,,,,,,,,,,120.18521479999981,120.20064079999975,120.68402439999954,120.6886284000002,120.7032350999998,121.35157429999981,,,,,121.3517724000003,121.36658110000008,121.56710469999962,121.55116429999998,120.7032350999998,,,,,,,,0,1,0.6403138999994553,None,,,,,,,,807,22,M,R,2026-02-18_12h39.13.926,VisualSearch_2526_3,,2025.2.4,2026-02-18 12h39.14.119896 +0100,
vertical.xlsx,The target is tilted.,135,31,7,3,1,1,1,1,1,1,1,1,1,1,1,1,0,11,12,135,space,7.537362199999734,None,1,1,1.5448495999999068,None,space,2.1355515000004743,None,0,0,0,1,,,,,3,7,31,0,121.56710469999962,,,,,,,,,,,,,,,,,,,,,121.55196350000006,121.56710469999962,122.05080949999956,122.05544980000013,122.07058049999978,123.61792080000032,,,,,123.61811510000007,123.63301870000032,123.8330575,123.81740300000001,122.07058049999978,,,,,,,,1,1,1.5448495999999068,None,,,,,,,,807,22,M,R,2026-02-18_12h39.13.926,VisualSearch_2526_3,,2025.2.4,2026-02-18 12h39.14.119896 +0100,
vertical.xlsx,The target is tilted.,135,32,0,4,0,0,0,0,0,0,0,0,0,0,0,0,1,1,1,135,space,7.537362199999734,None,0,1,0.8603241000000708,None,space,2.1355515000004743,None,0,0,0,1,,,,,4,0,32,7,123.8330575,,,,,,,,,,,,,,,,,,,,,123.818217,123.8330575,124.31741319999946,124.32202260000031,124.3332760000003,125.20081279999977,,,,,125.20100790000015,125.21608259999994,125.41608929999984,125.40022390000013,124.3332760000003,,,,,,,,0,1,0.8603241000000708,None,,,,,,,,807,22,M,R,2026-02-18_12h39.13.926,VisualSearch_2526_3,,2025.2.4,2026-02-18 12h39.14.119896 +0100,
vertical.xlsx,The target is tilted.,135,33,1,4,0,1,1,1,0,0,0,0,0,0,0,0,1,3,4,135,space,7.537362199999734,None,1,0,0.8906170000000202,None,space,2.1355515000004743,None,0,0,0,1,,,,,4,1,33,6,125.41608929999984,,,,,,,,,,,,,,,,,,,,,125.40104100000008,125.41608929999984,125.90025539999988,125.90489650000018,125.92322039999999,126.81709719999981,,,,,126.81729650000034,126.83254919999945,127.03302129999975,127.01652959999956,125.92322039999999,,,,,,,,1,0,0.8906170000000202,None,,,,,,,,807,22,M,R,2026-02-18_12h39.13.926,VisualSearch_2526_3,,2025.2.4,2026-02-18 12h39.14.119896 +0100,
vertical.xlsx,The target is tilted.,135,34,2,4,1,1,1,1,1,1,1,1,0,0,0,0,0,7,8,135,space,7.537362199999734,None,1,1,1.5559688000003007,None,space,2.1355515000004743,None,0,0,0,1,,,,,4,2,34,1,127.03302129999975,,,,,,,,,,,,,,,,,,,,,127.01726379999945,127.03302129999975,127.51647260000027,127.52102079999986,127.53271239999958,129.09897459999956,,,,,129.0990624999995,129.11538719999953,,129.29940970000007,127.53271239999958,,,,,,,,1,1,1.5559688000003007,None,,,,,,,,807,22,M,R,2026-02-18_12h39.13.926,VisualSearch_2526_3,,2025.2.4,2026-02-18 12h39.14.119896 +0100,
vertical.xlsx,The target is tilted.,135,35,3,4,1,0,0,0,0,0,0,0,0,0,0,0,0,0,1,135,space,7.537362199999734,None,1,1,0.5581200000005992,None,space,2.1355515000004743,None,0,0,0,1,,,,,4,3,35,3,129.31564139999955,,,,,,,,,,,,,,,,,,,,,129.30019079999965,129.31564139999955,129.79926559999967,129.80383970000003,129.81959970000025,130.38316510000004,,,,,130.38332900000023,130.3986735999997,130.59907939999994,130.58296700000028,,,,,,,,,1,1,0.5581200000005992,None,,,,,,,,807,22,M,R,2026-02-18_12h39.13.926,VisualSearch_2526_3,,2025.2.4,2026-02-18 12h39.14.119896 +0100,
vertical.xlsx,The target is tilted.,135,36,4,4,1,1,1,1,1,1,1,1,1,1,1,1,0,11,12,135,space,7.537362199999734,None,1,1,1.9603746000002502,None,space,2.1355515000004743,None,0,0,0,1,,,,,4,4,36,0,130.59907939999994,,,,,,,,,,,,,,,,,,,,,130.5837044,130.59907939999994,131.08298600000035,131.08755240000028,131.10444689999986,133.06662529999994,,,,,133.06682530000035,133.08164940000006,133.2821143000001,133.26558000000023,131.10444689999986,,,,,,,,1,1,1.9603746000002502,None,,,,,,,,807,22,M,R,2026-02-18_12h39.13.926,VisualSearch_2526_3,,2025.2.4,2026-02-18 12h39.14.119896 +0100,
vertical.xlsx,The target is tilted.,135,37,5,4,0,1,1,1,1,1,1,1,1,1,1,1,1,11,12,135,space,7.537362199999734,None,0,1,2.1743813000002774,None,space,2.1355515000004743,None,0,0,0,1,,,,,4,5,37,4,133.2821143000001,,,,,,,,,,,,,,,,,,,,,133.26628489999985,133.2821143000001,133.76599890000034,133.77059000000008,133.7862894,135.9653688999997,,,,,135.96551920000002,135.98126189999948,136.18173789999946,136.16558470000018,133.7862894,,,,,,,,0,1,2.1743813000002774,None,,,,,,,,807,22,M,R,2026-02-18_12h39.13.926,VisualSearch_2526_3,,2025.2.4,2026-02-18 12h39.14.119896 +0100,
vertical.xlsx,The target is tilted.,135,38,6,4,1,1,1,1,0,0,0,0,0,0,0,0,0,3,4,135,space,7.537362199999734,None,1,1,0.7050091000000975,None,space,2.1355515000004743,None,0,0,0,1,,,,,4,6,38,2,136.18173789999946,,,,,,,,,,,,,,,,,,,,,136.16630239999995,136.18173789999946,136.66568610000013,136.6706462000002,136.68554519999998,137.39877559999968,,,,,137.3989120999995,137.41437020000012,137.6144363000003,137.59846639999978,136.68554519999998,,,,,,,,1,1,0.7050091000000975,None,,,,,,,,807,22,M,R,2026-02-18_12h39.13.926,VisualSearch_2526_3,,2025.2.4,2026-02-18 12h39.14.119896 +0100,
vertical.xlsx,The target is tilted.,135,39,7,4,0,1,1,1,1,1,1,1,0,0,0,0,1,7,8,135,space,7.537362199999734,None,0,1,1.648149900000135,None,space,2.1355515000004743,None,0,0,0,1,,,,,4,7,39,5,137.6144363000003,,,,,,,,,,,,,,,,,,,,,137.59921719999966,137.6144363000003,138.09855940000034,138.10321029999977,138.1170092000002,139.78128130000005,,,,,139.7814188000002,139.79763739999999,139.9977702999995,139.98173729999962,138.1170092000002,,,,,,,,0,1,1.648149900000135,None,,,,,,,,807,22,M,R,2026-02-18_12h39.13.926,VisualSearch_2526_3,,2025.2.4,2026-02-18 12h39.14.119896 +0100,
vertical.xlsx,The target is tilted.,135,40,0,5,1,1,1,1,1,1,1,1,0,0,0,0,0,7,8,135,space,7.537362199999734,None,1,1,0.9644109999999273,None,space,2.1355515000004743,None,0,0,0,1,,,,,5,0,40,1,139.9977702999995,,,,,,,,,,,,,,,,,,,,,139.9825705000003,139.9977702999995,140.48165640000025,140.4862266,140.50131909999982,141.48103829999945,,,,,141.48117720000027,141.49718229999962,141.69752580000022,141.68143640000017,140.50131909999982,,,,,,,,1,1,0.9644109999999273,None,,,,,,,,807,22,M,R,2026-02-18_12h39.13.926,VisualSearch_2526_3,,2025.2.4,2026-02-18 12h39.14.119896 +0100,
vertical.xlsx,The target is tilted.,135,41,1,5,0,1,1,1,0,0,0,0,0,0,0,0,1,3,4,135,space,7.537362199999734,None,0,1,0.8378147000003082,None,space,2.1355515000004743,None,0,0,0,1,,,,,5,1,41,6,141.69752580000022,,,,,,,,,,,,,,,,,,,,,141.68216969999958,141.69752580000022,142.18129239999962,142.18593880000026,142.20099750000008,143.04848369999945,,,,,143.0486824999998,143.06354289999945,143.2640468999998,143.2477818999996,142.20099750000008,,,,,,,,0,1,0.8378147000003082,None,,,,,,,,807,22,M,R,2026-02-18_12h39.13.926,VisualSearch_2526_3,,2025.2.4,2026-02-18 12h39.14.119896 +0100,
vertical.xlsx,The target is tilted.,135,42,2,5,0,1,1,1,1,1,1,1,1,1,1,1,1,11,12,135,space,7.537362199999734,None,0,1,2.3382681000002776,None,space,2.1355515000004743,None,0,0,0,1,,,,,5,2,42,4,143.2640468999998,,,,,,,,,,,,,,,,,,,,,143.24853900000016,143.2640468999998,143.74770660000013,143.7522958999998,143.7694123000001,146.11417489999985,,,,,146.11431209999955,146.1297039000001,146.33019969999987,146.31378779999977,143.7694123000001,,,,,,,,0,1,2.3382681000002776,None,,,,,,,,807,22,M,R,2026-02-18_12h39.13.926,VisualSearch_2526_3,,2025.2.4,2026-02-18 12h39.14.119896 +0100,
vertical.xlsx,The target is tilted.,135,43,3,5,1,1,1,1,0,0,0,0,0,0,0,0,0,3,4,135,space,7.537362199999734,None,1,1,0.8845656000003146,None,space,2.1355515000004743,None,0,0,0,1,,,,,5,3,43,2,146.33019969999987,,,,,,,,,,,,,,,,,,,,,146.31453039999997,146.33019969999987,146.81403750000027,146.81863929999963,146.8348501999999,147.7303850999997,,,,,147.7304656999995,147.74590079999962,147.9465666999995,147.9305859999995,146.8348501999999,,,,,,,,1,1,0.8845656000003146,None,,,,,,,,807,22,M,R,2026-02-18_12h39.13.926,VisualSearch_2526_3,,2025.2.4,2026-02-18 12h39.14.119896 +0100,
vertical.xlsx,The target is tilted.,135,44,4,5,0,1,1,1,1,1,1,1,0,0,0,0,1,7,8,135,space,7.537362199999734,None,0,1,2.1051619999998366,None,space,2.1355515000004743,None,0,0,0,1,,,,,5,4,44,5,147.9465666999995,,,,,,,,,,,,,,,,,,,,,147.93130479999945,147.9465666999995,148.43040370000017,148.4350056000003,148.45205720000013,150.56401430000005,,,,,150.5642244999999,150.57915580000008,150.77964809999958,150.7634761999998,148.45205720000013,,,,,,,,0,1,2.1051619999998366,None,,,,,,,,807,22,M,R,2026-02-18_12h39.13.926,VisualSearch_2526_3,,2025.2.4,2026-02-18 12h39.14.119896 +0100,
vertical.xlsx,The target is tilted.,135,45,5,5,1,0,0,0,0,0,0,0,0,0,0,0,0,0,1,135,space,7.537362199999734,None,1,1,0.497352200000023,None,space,2.1355515000004743,None,0,0,0,1,,,,,5,5,45,3,150.77964809999958,,,,,,,,,,,,,,,,,,,,,150.76422569999977,150.77964809999958,151.26305669999965,151.2675978999996,151.27942809999968,151.77972539999973,,,,,151.77985249999983,151.79554910000024,151.99575829999958,151.9799740999997,151.27942809999968,,,,,,,,1,1,0.497352200000023,None,,,,,,,,807,22,M,R,2026-02-18_12h39.13.926,VisualSearch_2526_3,,2025.2.4,2026-02-18 12h39.14.119896 +0100,
vertical.xlsx,The target is tilted.,135,46,6,5,1,1,1,1,1,1,1,1,1,1,1,1,0,11,12,135,space,7.537362199999734,None,1,1,1.170753600000353,None,space,2.1355515000004743,None,0,0,0,1,,,,,5,6,46,0,151.99575829999958,,,,,,,,,,,,,,,,,,,,,151.98069829999986,151.99575829999958,152.47992879999947,152.4847308999997,152.50056200000017,153.68032969999967,,,,,153.68052830000033,153.69539149999946,153.8957921000001,153.87962789999983,152.50056200000017,,,,,,,,1,1,1.170753600000353,None,,,,,,,,807,22,M,R,2026-02-18_12h39.13.926,VisualSearch_2526_3,,2025.2.4,2026-02-18 12h39.14.119896 +0100,
vertical.xlsx,The target is tilted.,135,47,7,5,0,0,0,0,0,0,0,0,0,0,0,0,1,1,1,135,space,7.537362199999734,None,0,1,1.0047953000002963,None,space,2.1355515000004743,None,0,0,0,1,,,,,5,7,47,7,153.8957921000001,,,,,,,,,,,,,,,,,,,,,153.88039370000024,153.8957921000001,154.37979819999964,154.38491499999964,154.40051109999968,155.41325309999957,,,,,155.4134482999998,155.4284730999998,155.62890220000008,155.61262129999977,154.40051109999968,,,,,,,,0,1,1.0047953000002963,None,,,,,,,,807,22,M,R,2026-02-18_12h39.13.926,VisualSearch_2526_3,,2025.2.4,2026-02-18 12h39.14.119896 +0100,
vertical.xlsx,The target is tilted.,135,48,0,6,1,1,1,1,1,1,1,1,0,0,0,0,0,7,8,135,space,7.537362199999734,None,1,1,0.8100252999993245,None,space,2.1355515000004743,None,0,0,0,1,,,,,6,0,48,1,155.62890220000008,,,,,,,,,,,,,,,,,,,,,155.6134575999995,155.62890220000008,156.11268310000014,156.11723249999977,156.12987749999957,156.9457695000001,,,,,156.9459042999997,156.9616145,157.16200449999997,157.14594000000034,156.12987749999957,,,,,,,,1,1,0.8100252999993245,None,,,,,,,,807,22,M,R,2026-02-18_12h39.13.926,VisualSearch_2526_3,,2025.2.4,2026-02-18 12h39.14.119896 +0100,
vertical.xlsx,The target is tilted.,135,49,1,6,1,1,1,1,1,1,1,1,1,1,1,1,0,11,12,135,space,7.537362199999734,None,1,1,2.535079300000689,None,space,2.1355515000004743,None,0,0,0,1,,,,,6,1,49,0,157.16200449999997,,,,,,,,,,,,,,,,,,,,,157.1466873999998,157.16200449999997,157.64598399999977,157.65056929999992,157.6655498,160.21272409999983,,,,,160.21291819999988,160.22777529999985,160.4282002,160.41197730000022,157.6655498,,,,,,,,1,1,2.535079300000689,None,,,,,,,,807,22,M,R,2026-02-18_12h39.13.926,VisualSearch_2526_3,,2025.2.4,2026-02-18 12h39.14.119896 +0100,
vertical.xlsx,The target is tilted.,135,50,2,6,0,0,0,0,0,0,0,0,0,0,0,0,1,1,1,135,space,7.537362199999734,None,0,1,0.6396824000003107,None,space,2.1355515000004743,None,0,0,0,1,,,,,6,2,50,7,160.4282002,,,,,,,,,,,,,,,,,,,,,160.41272279999976,160.4282002,160.91200449999997,160.9166825000002,160.9305859999995,161.57883579999998,,,,,161.57903110000007,161.59429369999998,161.79465759999948,161.7783886999996,160.9305859999995,,,,,,,,0,1,0.6396824000003107,None,,,,,,,,807,22,M,R,2026-02-18_12h39.13.926,VisualSearch_2526_3,,2025.2.4,2026-02-18 12h39.14.119896 +0100,
vertical.xlsx,The target is tilted.,135,51,3,6,1,1,1,1,0,0,0,0,0,0,0,0,0,3,4,135,space,7.537362199999734,None,1,1,0.592316799999935,None,space,2.1355515000004743,None,0,0,0,1,,,,,6,3,51,2,161.79465759999948,,,,,,,,,,,,,,,,,,,,,161.77913079999962,161.79465759999948,162.27799210000012,162.2800140999998,162.29451450000033,162.8958130000001,,,,,162.89603579999948,162.9107627000003,163.1107952000002,163.09501660000024,162.29451450000033,,,,,,,,1,1,0.592316799999935,None,,,,,,,,807,22,M,R,2026-02-18_12h39.13.926,VisualSearch_2526_3,,2025.2.4,2026-02-18 12h39.14.119896 +0100,
vertical.xlsx,The target is tilted.,135,52,4,6,0,1,1,1,1,1,1,1,1,1,1,1,1,11,12,135,space,7.537362199999734,None,0,1,2.156833699999879,None,space,2.1355515000004743,None,0,0,0,1,,,,,6,4,52,4,163.1107952000002,,,,,,,,,,,,,,,,,,,,,163.09578510000028,163.1107952000002,163.5949902000002,163.59950690000005,163.6152517999999,165.7785869999998,,,,,165.77878539999983,165.79365189999953,165.99388519999957,165.97763920000034,163.6152517999999,,,,,,,,0,1,2.156833699999879,None,,,,,,,,807,22,M,R,2026-02-18_12h39.13.926,VisualSearch_2526_3,,2025.2.4,2026-02-18 12h39.14.119896 +0100,
vertical.xlsx,The target is tilted.,135,53,5,6,0,1,1,1,0,0,0,0,0,0,0,0,1,3,4,135,space,7.537362199999734,None,0,1,0.7603255999993053,None,space,2.1355515000004743,None,0,0,0,1,,,,,6,5,53,6,165.99388519999957,,,,,,,,,,,,,,,,,,,,,165.97842130000026,165.99388519999957,166.47789749999993,166.48246910000034,166.49886799999967,167.2612753000003,,,,,167.26140880000003,167.27660899999955,167.4771920000003,167.4610359999997,166.49886799999967,,,,,,,,0,1,0.7603255999993053,None,,,,,,,,807,22,M,R,2026-02-18_12h39.13.926,VisualSearch_2526_3,,2025.2.4,2026-02-18 12h39.14.119896 +0100,
vertical.xlsx,The target is tilted.,135,54,6,6,1,0,0,0,0,0,0,0,0,0,0,0,0,0,1,135,space,7.537362199999734,None,1,1,0.5424455000002126,None,space,2.1355515000004743,None,0,0,0,1,,,,,6,6,54,3,167.4771920000003,,,,,,,,,,,,,,,,,,,,,167.46182990000034,167.4771920000003,167.96082130000013,167.96538229999987,167.9770708999995,168.528139,,,,,168.52833159999955,168.54334730000028,168.74374309999985,168.72755450000022,167.9770708999995,,,,,,,,1,1,0.5424455000002126,None,,,,,,,,807,22,M,R,2026-02-18_12h39.13.926,VisualSearch_2526_3,,2025.2.4,2026-02-18 12h39.14.119896 +0100,
vertical.xlsx,The target is tilted.,135,55,7,6,0,1,1,1,1,1,1,1,0,0,0,0,1,7,8,135,space,7.537362199999734,None,0,1,2.4581398000000263,None,space,2.1355515000004743,None,0,0,0,1,,,,,6,7,55,5,168.74374309999985,,,,,,,,,,,,,,,,,,,,,168.72830969999995,168.74374309999985,169.22750590000032,169.23274409999976,169.2461940000003,171.7104472000001,,,,,171.71060690000013,171.72616199999993,171.92655319999994,171.91010410000035,169.2461940000003,,,,,,,,0,1,2.4581398000000263,None,,,,,,,,807,22,M,R,2026-02-18_12h39.13.926,VisualSearch_2526_3,,2025.2.4,2026-02-18 12h39.14.119896 +0100,
vertical.xlsx,The target is tilted.,135,56,0,7,0,1,1,1,0,0,0,0,0,0,0,0,1,3,4,135,space,7.537362199999734,None,0,1,0.9864487000004374,None,space,2.1355515000004743,None,0,0,0,1,,,,,7,0,56,6,171.92655319999994,,,,,,,,,,,,,,,,,,,,,171.91086910000013,171.92655319999994,172.41057269999965,172.41558900000018,172.43082609999965,173.42667549999987,,,,,173.42678090000027,173.4425444999997,173.64305299999978,173.62681799999973,172.43082609999965,,,,,,,,0,1,0.9864487000004374,None,,,,,,,,807,22,M,R,2026-02-18_12h39.13.926,VisualSearch_2526_3,,2025.2.4,2026-02-18 12h39.14.119896 +0100,
vertical.xlsx,The target is tilted.,135,57,1,7,1,0,0,0,0,0,0,0,0,0,0,0,0,0,1,135,space,7.537362199999734,None,1,1,0.7625015000003259,None,space,2.1355515000004743,None,0,0,0,1,,,,,7,1,57,3,173.64305299999978,,,,,,,,,,,,,,,,,,,,,173.62756809999973,173.64305299999978,174.12694600000032,174.13186190000033,174.14551539999957,174.90985249999994,,,,,174.90999099999954,174.9256906999999,175.12572610000007,175.1099422999996,174.14551539999957,,,,,,,,1,1,0.7625015000003259,None,,,,,,,,807,22,M,R,2026-02-18_12h39.13.926,VisualSearch_2526_3,,2025.2.4,2026-02-18 12h39.14.119896 +0100,
vertical.xlsx,The target is tilted.,135,58,2,7,0,0,0,0,0,0,0,0,0,0,0,0,1,1,1,135,space,7.537362199999734,None,0,1,1.42897129999983,None,space,2.1355515000004743,None,0,0,0,1,,,,,7,2,58,7,175.12572610000007,,,,,,,,,,,,,,,,,,,,,175.11064019999958,175.12572610000007,175.60995989999992,175.61457419999988,175.6302751000003,177.07557850000012,,,,,177.07568170000013,177.0923875999997,,177.27586150000025,175.6302751000003,,,,,,,,0,1,1.42897129999983,None,,,,,,,,807,22,M,R,2026-02-18_12h39.13.926,VisualSearch_2526_3,,2025.2.4,2026-02-18 12h39.14.119896 +0100,
vertical.xlsx,The target is tilted.,135,59,3,7,1,1,1,1,1,1,1,1,1,1,1,1,0,11,12,135,space,7.537362199999734,None,1,1,0.7457840999995824,None,space,2.1355515000004743,None,0,0,0,1,,,,,7,3,59,0,177.29237959999955,,,,,,,,,,,,,,,,,,,,,177.27662109999983,177.29237959999955,177.77598990000024,177.78058299999975,177.79584969999996,178.54355060000034,,,,,178.5437783999996,178.55833470000016,178.7589694999997,178.7428672999995,,,,,,,,,1,1,0.7457840999995824,None,,,,,,,,807,22,M,R,2026-02-18_12h39.13.926,VisualSearch_2526_3,,2025.2.4,2026-02-18 12h39.14.119896 +0100,
vertical.xlsx,The target is tilted.,135,60,4,7,1,1,1,1,0,0,0,0,0,0,0,0,0,3,4,135,space,7.537362199999734,None,1,1,0.808822599999985,None,space,2.1355515000004743,None,0,0,0,1,,,,,7,4,60,2,178.7589694999997,,,,,,,,,,,,,,,,,,,,,178.74364479999986,178.7589694999997,179.24263640000026,179.24725370000033,179.26419290000013,180.07683420000012,,,,,180.07704920000015,180.09172500000022,180.2917583999997,180.27558369999952,179.26419290000013,,,,,,,,1,1,0.808822599999985,None,,,,,,,,807,22,M,R,2026-02-18_12h39.13.926,VisualSearch_2526_3,,2025.2.4,2026-02-18 12h39.14.119896 +0100,
vertical.xlsx,The target is tilted.,135,61,5,7,1,1,1,1,1,1,1,1,0,0,0,0,0,7,8,135,space,7.537362199999734,None,1,1,0.6806229000003441,None,space,2.1355515000004743,None,0,0,0,1,,,,,7,5,61,1,180.2917583999997,,,,,,,,,,,,,,,,,,,,,180.27629210000032,180.2917583999997,180.77608650000002,180.7806467999999,180.7958781999996,181.4924375999999,,,,,181.4926491999995,181.50811539999995,181.7081562000003,181.69233030000032,180.7958781999996,,,,,,,,1,1,0.6806229000003441,None,,,,,,,,807,22,M,R,2026-02-18_12h39.13.926,VisualSearch_2526_3,,2025.2.4,2026-02-18 12h39.14.119896 +0100,
vertical.xlsx,The target is tilted.,135,62,6,7,0,1,1,1,1,1,1,1,1,1,1,1,1,11,12,135,space,7.537362199999734,None,0,1,2.196366900000612,None,space,2.1355515000004743,None,0,0,0,1,,,,,7,6,62,4,181.7081562000003,,,,,,,,,,,,,,,,,,,,,181.69312170000012,181.7081562000003,182.19232199999988,182.1970283999999,182.21163679999972,184.40929400000005,,,,,184.40949249999994,184.42438169999969,184.6248372,184.60863319999953,182.21163679999972,,,,,,,,0,1,2.196366900000612,None,,,,,,,,807,22,M,R,2026-02-18_12h39.13.926,VisualSearch_2526_3,,2025.2.4,2026-02-18 12h39.14.119896 +0100,
vertical.xlsx,The target is tilted.,135,63,7,7,0,1,1,1,1,1,1,1,0,0,0,0,1,7,8,135,space,7.537362199999734,None,0,1,1.187627400000565,None,space,2.1355515000004743,None,0,0,0,1,,,,,7,7,63,5,184.6248372,,,,,,,,,,,,,,,,,,,,,184.6093949999995,184.6248372,185.10870669999986,185.1131733000002,185.12888399999974,186.3247695,,,,,186.3248881999998,186.34067719999985,186.54136870000002,186.5252215999999,185.12888399999974,,,,,,,,0,1,1.187627400000565,None,,,,,,,,807,22,M,R,2026-02-18_12h39.13.926,VisualSearch_2526_3,,2025.2.4,2026-02-18 12h39.14.119896 +0100,
vertical.xlsx,The target is tilted.,135,64,0,8,1,1,1,1,1,1,1,1,0,0,0,0,0,7,8,135,space,7.537362199999734,None,1,1,0.49931199999991804,None,space,2.1355515000004743,None,0,0,0,1,,,,,8,0,64,1,186.54136870000002,,,,,,,,,,,,,,,,,,,,,186.52603790000012,186.54136870000002,187.02526709999984,187.03056019999985,187.04556279999997,187.5578631999997,,,,,187.55799800000023,187.57390599999962,187.77439649999997,187.75824490000014,187.04556279999997,,,,,,,,1,1,0.49931199999991804,None,,,,,,,,807,22,M,R,2026-02-18_12h39.13.926,VisualSearch_2526_3,,2025.2.4,2026-02-18 12h39.14.119896 +0100,
vertical.xlsx,The target is tilted.,135,65,1,8,1,0,0,0,0,0,0,0,0,0,0,0,0,0,1,135,space,7.537362199999734,None,1,1,0.5046879000001354,None,space,2.1355515000004743,None,0,0,0,1,,,,,8,1,65,3,187.77439649999997,,,,,,,,,,,,,,,,,,,,,187.75896469999952,187.77439649999997,188.25808020000022,188.26183609999953,188.27404699999988,188.7915221000003,,,,,188.79174450000028,188.80708460000005,189.00745189999998,188.99133319999964,188.27404699999988,,,,,,,,1,1,0.5046879000001354,None,,,,,,,,807,22,M,R,2026-02-18_12h39.13.926,VisualSearch_2526_3,,2025.2.4,2026-02-18 12h39.14.119896 +0100,
vertical.xlsx,The target is tilted.,135,66,2,8,0,1,1,1,1,1,1,1,0,0,0,0,1,7,8,135,space,7.537362199999734,None,0,1,1.2595509000002494,None,space,2.1355515000004743,None,0,0,0,1,,,,,8,2,66,5,189.00745189999998,,,,,,,,,,,,,,,,,,,,,188.99208799999997,189.00745189999998,189.4913386999997,189.49594069999966,189.5130879999997,190.77503049999996,,,,,190.7752263000002,190.7901423000003,190.9906093999998,190.97442870000032,189.5130879999997,,,,,,,,0,1,1.2595509000002494,None,,,,,,,,807,22,M,R,2026-02-18_12h39.13.926,VisualSearch_2526_3,,2025.2.4,2026-02-18 12h39.14.119896 +0100,
vertical.xlsx,The target is tilted.,135,67,3,8,0,1,1,1,0,0,0,0,0,0,0,0,1,3,4,135,space,7.537362199999734,None,1,0,0.682153599999765,None,space,2.1355515000004743,None,0,0,0,1,,,,,8,3,67,6,190.9906093999998,,,,,,,,,,,,,,,,,,,,,190.97520179999992,190.9906093999998,191.4739582000002,191.47840929999984,191.49030930000026,192.17476929999975,,,,,192.17496759999995,192.18997560000025,192.3904192,192.3742500999997,191.49030930000026,,,,,,,,1,0,0.682153599999765,None,,,,,,,,807,22,M,R,2026-02-18_12h39.13.926,VisualSearch_2526_3,,2025.2.4,2026-02-18 12h39.14.119896 +0100,
vertical.xlsx,The target is tilted.,135,68,4,8,1,1,1,1,1,1,1,1,1,1,1,1,0,11,12,135,space,7.537362199999734,None,1,1,2.2090628999994806,None,space,2.1355515000004743,None,0,0,0,1,,,,,8,4,68,0,192.3904192,,,,,,,,,,,,,,,,,,,,,192.3749846999999,192.3904192,192.87413579999975,192.87865109999984,192.89373590000014,195.10707379999985,,,,,195.1072309000001,195.1227275000001,195.3233180999996,195.30699529999947,192.89373590000014,,,,,,,,1,1,2.2090628999994806,None,,,,,,,,807,22,M,R,2026-02-18_12h39.13.926,VisualSearch_2526_3,,2025.2.4,2026-02-18 12h39.14.119896 +0100,
vertical.xlsx,The target is tilted.,135,69,5,8,0,0,0,0,0,0,0,0,0,0,0,0,1,1,1,135,space,7.537362199999734,None,0,1,0.5727778999998918,None,space,2.1355515000004743,None,0,0,0,1,,,,,8,5,69,7,195.3233180999996,,,,,,,,,,,,,,,,,,,,,195.30785540000034,195.3233180999996,195.8069790999998,195.81172049999986,195.8257824000002,196.40729069999998,,,,,196.40746020000006,196.4225891999995,196.62317189999976,196.60654749999958,195.8257824000002,,,,,,,,0,1,0.5727778999998918,None,,,,,,,,807,22,M,R,2026-02-18_12h39.13.926,VisualSearch_2526_3,,2025.2.4,2026-02-18 12h39.14.119896 +0100,
vertical.xlsx,The target is tilted.,135,70,6,8,0,1,1,1,1,1,1,1,1,1,1,1,1,11,12,135,space,7.537362199999734,None,0,1,2.0616118999996615,None,space,2.1355515000004743,None,0,0,0,1,,,,,8,6,70,4,196.62317189999976,,,,,,,,,,,,,,,,,,,,,196.60729739999988,196.62317189999976,197.10659639999994,197.11117449999983,197.1260285999997,199.19067129999985,,,,,199.19087729999956,199.20544040000004,199.40564919999997,199.3899081999998,197.1260285999997,,,,,,,,0,1,2.0616118999996615,None,,,,,,,,807,22,M,R,2026-02-18_12h39.13.926,VisualSearch_2526_3,,2025.2.4,2026-02-18 12h39.14.119896 +0100,
vertical.xlsx,The target is tilted.,135,71,7,8,1,1,1,1,0,0,0,0,0,0,0,0,0,3,4,135,space,7.537362199999734,None,1,1,0.8531505000000834,None,space,2.1355515000004743,None,0,0,0,1,,,,,8,7,71,2,199.40564919999997,,,,,,,,,,,,,,,,,,,,,199.3907677999996,199.40564919999997,199.89004920000025,199.89533980000033,199.91041760000007,200.77346560000024,,,,,200.77363809999952,200.7886509,200.9888106999997,200.97318579999956,199.91041760000007,,,,,,,,1,1,0.8531505000000834,None,,,,,,,,807,22,M,R,2026-02-18_12h39.13.926,VisualSearch_2526_3,,2025.2.4,2026-02-18 12h39.14.119896 +0100,
vertical.xlsx,The target is tilted.,135,72,0,9,1,0,0,0,0,0,0,0,0,0,0,0,0,0,1,135,space,7.537362199999734,None,1,1,0.9637950999995155,None,space,2.1355515000004743,None,0,0,0,1,,,,,9,0,72,3,200.9888106999997,,,,,,,,,,,,,,,,,,,,,200.97398609999982,200.9888106999997,201.4730942999995,201.4780383999996,201.49246239999957,202.45731999999953,,,,,202.45750979999957,202.47181619999992,202.67219250000016,202.65593790000003,201.49246239999957,,,,,,,,1,1,0.9637950999995155,None,,,,,,,,807,22,M,R,2026-02-18_12h39.13.926,VisualSearch_2526_3,,2025.2.4,2026-02-18 12h39.14.119896 +0100,
vertical.xlsx,The target is tilted.,135,73,1,9,0,1,1,1,1,1,1,1,0,0,0,0,1,7,8,135,space,7.537362199999734,None,0,1,1.2204111000000921,None,space,2.1355515000004743,None,0,0,0,1,,,,,9,1,73,5,202.67219250000016,,,,,,,,,,,,,,,,,,,,,202.65669340000022,202.67219250000016,203.1555588000001,203.15826899999956,203.17193899999984,204.40608340000017,,,,,204.40627179999956,204.42143620000024,204.62162110000008,204.60566759999983,203.17193899999984,,,,,,,,0,1,1.2204111000000921,None,,,,,,,,807,22,M,R,2026-02-18_12h39.13.926,VisualSearch_2526_3,,2025.2.4,2026-02-18 12h39.14.119896 +0100,
vertical.xlsx,The target is tilted.,135,74,2,9,1,1,1,1,0,0,0,0,0,0,0,0,0,3,4,135,space,7.537362199999734,None,1,1,0.6058044999999765,None,space,2.1355515000004743,None,0,0,0,1,,,,,9,2,74,2,204.62162110000008,,,,,,,,,,,,,,,,,,,,,204.6064034000001,204.62162110000008,205.10588139999982,205.11038389999976,205.12600370000018,205.73963730000014,,,,,205.73984719999953,205.75447040000017,205.95520469999974,205.93893920000028,205.12600370000018,,,,,,,,1,1,0.6058044999999765,None,,,,,,,,807,22,M,R,2026-02-18_12h39.13.926,VisualSearch_2526_3,,2025.2.4,2026-02-18 12h39.14.119896 +0100,
vertical.xlsx,The target is tilted.,135,75,3,9,0,1,1,1,0,0,0,0,0,0,0,0,1,3,4,135,space,7.537362199999734,None,0,1,0.6109268999998676,None,space,2.1355515000004743,None,0,0,0,1,,,,,9,3,75,6,205.95520469999974,,,,,,,,,,,,,,,,,,,,,205.9396899000003,205.95520469999974,206.43888119999974,206.44344180000007,206.45845399999962,207.07239370000025,,,,,207.07252919999974,207.08779219999997,207.28807940000024,207.27167399999962,206.45845399999962,,,,,,,,0,1,0.6109268999998676,None,,,,,,,,807,22,M,R,2026-02-18_12h39.13.926,VisualSearch_2526_3,,2025.2.4,2026-02-18 12h39.14.119896 +0100,
vertical.xlsx,The target is tilted.,135,76,4,9,0,0,0,0,0,0,0,0,0,0,0,0,1,1,1,135,space,7.537362199999734,None,0,1,0.8320775000001959,None,space,2.1355515000004743,None,0,0,0,1,,,,,9,4,76,7,207.28807940000024,,,,,,,,,,,,,,,,,,,,,207.2719907999999,207.28807940000024,207.7721878000002,207.7768659000003,207.7930808000001,208.63822590000018,,,,,208.6383248000002,208.65411109999968,208.85490339999978,208.8386128000002,207.7930808000001,,,,,,,,0,1,0.8320775000001959,None,,,,,,,,807,22,M,R,2026-02-18_12h39.13.926,VisualSearch_2526_3,,2025.2.4,2026-02-18 12h39.14.119896 +0100,
vertical.xlsx,The target is tilted.,135,77,5,9,1,1,1,1,1,1,1,1,0,0,0,0,0,7,8,135,space,7.537362199999734,None,1,1,0.5734798999992563,None,space,2.1355515000004743,None,0,0,0,1,,,,,9,5,77,1,208.85490339999978,,,,,,,,,,,,,,,,,,,,,208.83945109999968,208.85490339999978,209.33845109999947,209.3431085000002,209.3582008000003,209.9379702999995,,,,,209.93805429999975,209.95379159999993,210.15456540000014,210.13832550000006,209.3582008000003,,,,,,,,1,1,0.5734798999992563,None,,,,,,,,807,22,M,R,2026-02-18_12h39.13.926,VisualSearch_2526_3,,2025.2.4,2026-02-18 12h39.14.119896 +0100,
vertical.xlsx,The target is tilted.,135,78,6,9,0,1,1,1,1,1,1,1,1,1,1,1,1,11,12,135,space,7.537362199999734,None,0,1,2.2276466000002983,None,space,2.1355515000004743,None,0,0,0,1,,,,,9,6,78,4,210.15456540000014,,,,,,,,,,,,,,,,,,,,,210.13907469999958,210.15456540000014,210.63819460000013,210.64275530000032,210.65637330000027,212.8882193999998,,,,,212.88840919999984,212.9036619999997,213.10396219999984,213.08753929999966,210.65637330000027,,,,,,,,0,1,2.2276466000002983,None,,,,,,,,807,22,M,R,2026-02-18_12h39.13.926,VisualSearch_2526_3,,2025.2.4,2026-02-18 12h39.14.119896 +0100,
vertical.xlsx,The target is tilted.,135,79,7,9,1,1,1,1,1,1,1,1,1,1,1,1,0,11,12,135,space,7.537362199999734,None,1,1,1.0945566999998846,None,space,2.1355515000004743,None,0,0,0,1,,,,,9,7,79,0,213.10396219999984,,,,,,,,,,,,,,,,,,,,,213.08791790000032,213.10396219999984,213.58788550000008,213.59228319999966,213.61026409999977,214.72051509999983,,,,,214.7206516999995,214.73673340000005,,214.9208738999996,213.61026409999977,,,,,,,,1,1,1.0945566999998846,None,,,,,,,,807,22,M,R,2026-02-18_12h39.13.926,VisualSearch_2526_3,,2025.2.4,2026-02-18 12h39.14.119896 +0100,
vertical.xlsx,The target is tilted.,135,80,0,10,1,1,1,1,1,1,1,1,1,1,1,1,0,11,12,135,space,7.537362199999734,None,1,1,1.5099567999995998,None,space,2.1355515000004743,None,0,0,0,1,,,,,10,0,80,0,214.93722439999965,,,,,,,,,,,,,,,,,,,,,214.92168779999975,214.93722439999965,215.4206334999999,215.4257078999999,215.4379945999999,216.95431259999987,,,,,216.9544447999997,216.96976600000016,217.17016749999948,217.15407649999997,215.4379945999999,,,,,,,,1,1,1.5099567999995998,None,,,,,,,,807,22,M,R,2026-02-18_12h39.13.926,VisualSearch_2526_3,,2025.2.4,2026-02-18 12h39.14.119896 +0100,
vertical.xlsx,The target is tilted.,135,81,1,10,1,0,0,0,0,0,0,0,0,0,0,0,0,0,1,135,space,7.537362199999734,None,1,1,0.5161863000002995,None,space,2.1355515000004743,None,0,0,0,1,,,,,10,1,81,3,217.17016749999948,,,,,,,,,,,,,,,,,,,,,217.15479539999978,217.17016749999948,217.65407289999985,217.65855420000025,217.67420429999947,218.20391169999948,,,,,218.20411460000014,218.2195515000003,218.42001019999952,218.4040659000002,217.67420429999947,,,,,,,,1,1,0.5161863000002995,None,,,,,,,,807,22,M,R,2026-02-18_12h39.13.926,VisualSearch_2526_3,,2025.2.4,2026-02-18 12h39.14.119896 +0100,
vertical.xlsx,The target is tilted.,135,82,2,10,0,1,1,1,1,1,1,1,1,1,1,1,1,11,12,135,space,7.537362199999734,None,0,1,1.5259193000001687,None,space,2.1355515000004743,None,0,0,0,1,,,,,10,2,82,4,218.42001019999952,,,,,,,,,,,,,,,,,,,,,218.4048961999997,218.42001019999952,218.9035904000002,218.9074939000002,218.92395339999985,220.45348809999996,,,,,220.4536565999997,220.46918629999982,220.66967909999948,220.65326430000005,218.92395339999985,,,,,,,,0,1,1.5259193000001687,None,,,,,,,,807,22,M,R,2026-02-18_12h39.13.926,VisualSearch_2526_3,,2025.2.4,2026-02-18 12h39.14.119896 +0100,
vertical.xlsx,The target is tilted.,135,83,3,10,0,0,0,0,0,0,0,0,0,0,0,0,1,1,1,135,space,7.537362199999734,None,0,1,0.6409326999992118,None,space,2.1355515000004743,None,0,0,0,1,,,,,10,3,83,7,220.66967909999948,,,,,,,,,,,,,,,,,,,,,220.65399329999946,220.66967909999948,221.15315499999997,221.15763890000017,221.1731523999997,221.82026119999955,,,,,221.8204353000001,221.8357477999998,222.03580369999963,222.02008019999994,221.1731523999997,,,,,,,,0,1,0.6409326999992118,None,,,,,,,,807,22,M,R,2026-02-18_12h39.13.926,VisualSearch_2526_3,,2025.2.4,2026-02-18 12h39.14.119896 +0100,
vertical.xlsx,The target is tilted.,135,84,4,10,1,1,1,1,1,1,1,1,0,0,0,0,0,7,8,135,space,7.537362199999734,None,1,1,1.2848684999999023,None,space,2.1355515000004743,None,0,0,0,1,,,,,10,4,84,1,222.03580369999963,,,,,,,,,,,,,,,,,,,,,222.02090829999997,222.03580369999963,222.52005839999947,222.52455240000018,222.5400569000003,223.8369204999999,,,,,223.83711820000008,223.85241450000012,224.05264590000024,224.0363427000002,222.5400569000003,,,,,,,,1,1,1.2848684999999023,None,,,,,,,,807,22,M,R,2026-02-18_12h39.13.926,VisualSearch_2526_3,,2025.2.4,2026-02-18 12h39.14.119896 +0100,
vertical.xlsx,The target is tilted.,135,85,5,10,1,1,1,1,0,0,0,0,0,0,0,0,0,3,4,135,space,7.537362199999734,None,1,1,0.5604616000000533,None,space,2.1355515000004743,None,0,0,0,1,,,,,10,5,85,2,224.05264590000024,,,,,,,,,,,,,,,,,,,,,224.0371838000001,224.05264590000024,224.5362726000003,224.5407527999996,224.5564228000003,225.12012950000008,,,,,225.1203198000003,225.13546210000004,225.33579970000028,225.31952610000008,224.5564228000003,,,,,,,,1,1,0.5604616000000533,None,,,,,,,,807,22,M,R,2026-02-18_12h39.13.926,VisualSearch_2526_3,,2025.2.4,2026-02-18 12h39.14.119896 +0100,
vertical.xlsx,The target is tilted.,135,86,6,10,0,1,1,1,0,0,0,0,0,0,0,0,1,3,4,135,space,7.537362199999734,None,0,1,0.5706858000003194,None,space,2.1355515000004743,None,0,0,0,1,,,,,10,6,86,6,225.33579970000028,,,,,,,,,,,,,,,,,,,,,225.32028249999985,225.33579970000028,225.8195685999999,225.82443559999956,225.83889079999972,226.419981,,,,,226.42017119999946,226.43521169999985,226.63557130000027,226.61935129999983,225.83889079999972,,,,,,,,0,1,0.5706858000003194,None,,,,,,,,807,22,M,R,2026-02-18_12h39.13.926,VisualSearch_2526_3,,2025.2.4,2026-02-18 12h39.14.119896 +0100,
vertical.xlsx,The target is tilted.,135,87,7,10,0,1,1,1,1,1,1,1,0,0,0,0,1,7,8,135,space,7.537362199999734,None,0,1,1.5749089999999342,None,space,2.1355515000004743,None,0,0,0,1,,,,,10,7,87,5,226.63557130000027,,,,,,,,,,,,,,,,,,,,,226.62010069999997,226.63557130000027,227.11902670000018,227.12347799999952,227.13526360000014,228.71868919999997,,,,,228.71881440000016,228.7351907000002,,228.9189311,227.13526360000014,,,,,,,,0,1,1.5749089999999342,None,,,,,,,,807,22,M,R,2026-02-18_12h39.13.926,VisualSearch_2526_3,,2025.2.4,2026-02-18 12h39.14.119896 +0100,
vertical.xlsx,The target is tilted.,135,88,0,11,1,0,0,0,0,0,0,0,0,0,0,0,0,0,1,135,space,7.537362199999734,None,1,1,0.534461199999896,None,space,2.1355515000004743,None,0,0,0,1,,,,,11,0,88,3,228.93533060000027,,,,,,,,,,,,,,,,,,,,,228.91980460000013,228.93533060000027,229.41891620000024,229.42341639999995,229.4395655999997,229.9859993,,,,,229.98617130000002,230.00129800000013,230.2017509999996,230.18573769999966,229.4395655999997,,,,,,,,1,1,0.534461199999896,None,,,,,,,,807,22,M,R,2026-02-18_12h39.13.926,VisualSearch_2526_3,,2025.2.4,2026-02-18 12h39.14.119896 +0100,
vertical.xlsx,The target is tilted.,135,89,1,11,1,1,1,1,1,1,1,1,0,0,0,0,0,7,8,135,space,7.537362199999734,None,1,1,0.7782091999997647,None,space,2.1355515000004743,None,0,0,0,1,,,,,11,1,89,1,230.2017509999996,,,,,,,,,,,,,,,,,,,,,230.18653110000014,230.2017509999996,230.68560259999958,230.6899711999995,230.70151970000006,231.4859196999996,,,,,231.4861062,231.50149940000028,231.70119179999983,231.6852283999997,230.70151970000006,,,,,,,,1,1,0.7782091999997647,None,,,,,,,,807,22,M,R,2026-02-18_12h39.13.926,VisualSearch_2526_3,,2025.2.4,2026-02-18 12h39.14.119896 +0100,
vertical.xlsx,The target is tilted.,135,90,2,11,0,1,1,1,1,1,1,1,0,0,0,0,1,7,8,135,space,7.537362199999734,None,0,1,2.506950599999982,None,space,2.1355515000004743,None,0,0,0,1,,,,,11,2,90,5,231.70119179999983,,,,,,,,,,,,,,,,,,,,,231.68600080000033,231.70119179999983,232.1852345999996,232.1901270999997,232.20455990000028,234.71882519999963,,,,,234.7190187999995,234.73439150000013,234.93439579999995,234.91822150000007,232.20455990000028,,,,,,,,0,1,2.506950599999982,None,,,,,,,,807,22,M,R,2026-02-18_12h39.13.926,VisualSearch_2526_3,,2025.2.4,2026-02-18 12h39.14.119896 +0100,
vertical.xlsx,The target is tilted.,135,91,3,11,1,1,1,1,0,0,0,0,0,0,0,0,0,3,4,135,space,7.537362199999734,None,1,1,0.5612037999999302,None,space,2.1355515000004743,None,0,0,0,1,,,,,11,3,91,2,234.93439579999995,,,,,,,,,,,,,,,,,,,,,234.91898039999978,234.93439579999995,235.41793750000033,235.42294419999962,235.43418199999996,236.00108089999958,,,,,236.0012154999995,236.01740270000028,236.21711330000016,236.2013539999998,235.43418199999996,,,,,,,,1,1,0.5612037999999302,None,,,,,,,,807,22,M,R,2026-02-18_12h39.13.926,VisualSearch_2526_3,,2025.2.4,2026-02-18 12h39.14.119896 +0100,
vertical.xlsx,The target is tilted.,135,92,4,11,0,1,1,1,0,0,0,0,0,0,0,0,1,3,4,135,space,7.537362199999734,None,0,1,0.6713561000005939,None,space,2.1355515000004743,None,0,0,0,1,,,,,11,4,92,6,236.21711330000016,,,,,,,,,,,,,,,,,,,,,236.20209270000032,236.21711330000016,236.7010694999999,236.70613830000002,236.72165609999956,237.40189439999995,,,,,237.4021141000003,237.41707010000027,237.61727509999946,237.60117929999979,236.72165609999956,,,,,,,,0,1,0.6713561000005939,None,,,,,,,,807,22,M,R,2026-02-18_12h39.13.926,VisualSearch_2526_3,,2025.2.4,2026-02-18 12h39.14.119896 +0100,
vertical.xlsx,The target is tilted.,135,93,5,11,1,1,1,1,1,1,1,1,1,1,1,1,0,11,12,135,space,7.537362199999734,None,1,1,0.7622428999993645,None,space,2.1355515000004743,None,0,0,0,1,,,,,11,5,93,0,237.61727509999946,,,,,,,,,,,,,,,,,,,,,237.6019550000001,237.61727509999946,238.10107049999988,238.10558039999978,238.12066210000012,238.88495189999958,,,,,238.8851421999998,238.90034839999953,239.1004866000003,239.08440419999988,238.12066210000012,,,,,,,,1,1,0.7622428999993645,None,,,,,,,,807,22,M,R,2026-02-18_12h39.13.926,VisualSearch_2526_3,,2025.2.4,2026-02-18 12h39.14.119896 +0100,
vertical.xlsx,The target is tilted.,135,94,6,11,0,0,0,0,0,0,0,0,0,0,0,0,1,1,1,135,space,7.537362199999734,None,0,1,0.6673446000004333,None,space,2.1355515000004743,None,0,0,0,1,,,,,11,6,94,7,239.1004866000003,,,,,,,,,,,,,,,,,,,,,239.0851058999997,239.1004866000003,239.58424719999948,239.58869570000024,239.60203660000025,240.2841781999996,,,,,240.28428900000017,240.2997790999998,240.50026660000003,240.4841034000001,239.60203660000025,,,,,,,,0,1,0.6673446000004333,None,,,,,,,,807,22,M,R,2026-02-18_12h39.13.926,VisualSearch_2526_3,,2025.2.4,2026-02-18 12h39.14.119896 +0100,
vertical.xlsx,The target is tilted.,135,95,7,11,0,1,1,1,1,1,1,1,1,1,1,1,1,11,12,135,space,7.537362199999734,None,0,1,2.1729232999996384,None,space,2.1355515000004743,None,0,0,0,1,,,,,11,7,95,4,240.50026660000003,,,,,,,,,,,,,,,,,,,,,240.48483339999984,240.50026660000003,240.9836396999999,240.98809530000017,241.00008499999967,243.18427220000012,,,,,243.1844645000001,243.19948360000035,243.39992470000016,243.3838065,241.00008499999967,,,,,,,,0,1,2.1729232999996384,None,,,,,,,,807,22,M,R,2026-02-18_12h39.13.926,VisualSearch_2526_3,,2025.2.4,2026-02-18 12h39.14.119896 +0100,
vertical.xlsx,The target is tilted.,135,96,0,12,1,1,1,1,1,1,1,1,1,1,1,1,0,11,12,135,space,7.537362199999734,None,1,1,0.5632894999998825,None,space,2.1355515000004743,None,0,0,0,1,,,,,12,0,96,0,243.39992470000016,,,,,,,,,,,,,,,,,,,,,243.3846069000001,243.39992470000016,243.88384039999983,243.8886665,243.90485780000017,244.48404690000007,,,,,244.48423439999988,244.49952889999986,244.69929020000018,244.6837075000003,243.90485780000017,,,,,,,,1,1,0.5632894999998825,None,,,,,,,,807,22,M,R,2026-02-18_12h39.13.926,VisualSearch_2526_3,,2025.2.4,2026-02-18 12h39.14.119896 +0100,
vertical.xlsx,The target is tilted.,135,97,1,12,1,0,0,0,0,0,0,0,0,0,0,0,0,0,1,135,space,7.537362199999734,None,1,1,0.5622419999999693,None,space,2.1355515000004743,None,0,0,0,1,,,,,12,1,97,3,244.69929020000018,,,,,,,,,,,,,,,,,,,,,244.6849033999997,244.69929020000018,245.18345560000034,245.1880203999999,245.20303950000016,245.76668470000004,,,,,245.76686400000017,245.78246190000027,245.9827497999995,245.9662602999997,245.20303950000016,,,,,,,,1,1,0.5622419999999693,None,,,,,,,,807,22,M,R,2026-02-18_12h39.13.926,VisualSearch_2526_3,,2025.2.4,2026-02-18 12h39.14.119896 +0100,
vertical.xlsx,The target is tilted.,135,98,2,12,0,1,1,1,0,0,0,0,0,0,0,0,1,3,4,135,space,7.537362199999734,None,0,1,0.6045512000000599,None,space,2.1355515000004743,None,0,0,0,1,,,,,12,2,98,6,245.9827497999995,,,,,,,,,,,,,,,,,,,,,245.9669888999997,245.9827497999995,246.46625719999975,246.47074129999964,246.4845038000003,247.09997380000004,,,,,247.10010729999976,247.11549550000018,247.31568189999962,247.2999490000002,246.4845038000003,,,,,,,,0,1,0.6045512000000599,None,,,,,,,,807,22,M,R,2026-02-18_12h39.13.926,VisualSearch_2526_3,,2025.2.4,2026-02-18 12h39.14.119896 +0100,
vertical.xlsx,The target is tilted.,135,99,3,12,0,1,1,1,1,1,1,1,1,1,1,1,1,11,12,135,space,7.537362199999734,None,0,1,2.5058704999992187,None,space,2.1355515000004743,None,0,0,0,1,,,,,12,3,99,4,247.31568189999962,,,,,,,,,,,,,,,,,,,,,247.30075159999978,247.31568189999962,247.7997193000001,247.80459770000016,247.8202621999999,250.33331269999962,,,,,250.33350239999982,250.34864930000003,250.54843170000004,250.5325068000002,247.8202621999999,,,,,,,,0,1,2.5058704999992187,None,,,,,,,,807,22,M,R,2026-02-18_12h39.13.926,VisualSearch_2526_3,,2025.2.4,2026-02-18 12h39.14.119896 +0100,
vertical.xlsx,The target is tilted.,135,100,4,12,1,1,1,1,0,0,0,0,0,0,0,0,0,3,4,135,space,7.537362199999734,None,1,1,0.5431084000001647,None,space,2.1355515000004743,None,0,0,0,1,,,,,12,4,100,2,250.54843170000004,,,,,,,,,,,,,,,,,,,,,250.5332527999999,250.54843170000004,251.03276619999997,251.03790930000014,251.05213989999993,251.59980389999964,,,,,251.60007200000018,251.61508429999958,251.81525559999955,251.7989818999995,251.05213989999993,,,,,,,,1,1,0.5431084000001647,None,,,,,,,,807,22,M,R,2026-02-18_12h39.13.926,VisualSearch_2526_3,,2025.2.4,2026-02-18 12h39.14.119896 +0100,
vertical.xlsx,The target is tilted.,135,101,5,12,0,0,0,0,0,0,0,0,0,0,0,0,1,1,1,135,space,7.537362199999734,None,0,1,0.6263969000001453,None,space,2.1355515000004743,None,0,0,0,1,,,,,12,5,101,7,251.81525559999955,,,,,,,,,,,,,,,,,,,,,251.79980259999957,251.81525559999955,252.29858869999953,252.3016365000003,252.31474759999946,252.9495882000001,,,,,252.94977889999973,252.96500809999998,253.1652352000001,253.14882880000005,252.31474759999946,,,,,,,,0,1,0.6263969000001453,None,,,,,,,,807,22,M,R,2026-02-18_12h39.13.926,VisualSearch_2526_3,,2025.2.4,2026-02-18 12h39.14.119896 +0100,
vertical.xlsx,The target is tilted.,135,102,6,12,0,1,1,1,1,1,1,1,0,0,0,0,1,7,8,135,space,7.537362199999734,None,0,1,1.6961418999999296,None,space,2.1355515000004743,None,0,0,0,1,,,,,12,6,102,5,253.1652352000001,,,,,,,,,,,,,,,,,,,,,253.1496575000001,253.1652352000001,253.64905569999974,253.65413689999968,253.66988539999966,255.3823357000001,,,,,255.38250890000018,255.39810239999952,255.5978968999998,255.58203700000013,253.66988539999966,,,,,,,,0,1,1.6961418999999296,None,,,,,,,,807,22,M,R,2026-02-18_12h39.13.926,VisualSearch_2526_3,,2025.2.4,2026-02-18 12h39.14.119896 +0100,
vertical.xlsx,The target is tilted.,135,103,7,12,1,1,1,1,1,1,1,1,0,0,0,0,0,7,8,135,space,7.537362199999734,None,1,1,1.5814267999994627,None,space,2.1355515000004743,None,0,0,0,1,,,,,12,7,103,1,255.5978968999998,,,,,,,,,,,,,,,,,,,,,255.58276719999958,255.5978968999998,256.08191220000026,256.08646599999975,256.10159829999975,257.69844209999974,,,,,257.6986197999995,257.7144201000001,257.9144970999996,257.8979829,256.10159829999975,,,,,,,,1,1,1.5814267999994627,None,,,,,,,,807,22,M,R,2026-02-18_12h39.13.926,VisualSearch_2526_3,,2025.2.4,2026-02-18 12h39.14.119896 +0100,
vertical.xlsx,The target is tilted.,135,104,0,13,1,1,1,1,0,0,0,0,0,0,0,0,0,3,4,135,space,7.537362199999734,None,1,1,1.007320300000174,None,space,2.1355515000004743,None,0,0,0,1,,,,,13,0,104,2,257.9144970999996,,,,,,,,,,,,,,,,,,,,,257.89871700000003,257.9144970999996,258.39813289999984,258.4025971000001,258.4185865999998,259.43181259999983,,,,,259.43199989999994,259.44725370000015,259.6474212000003,259.6312724999998,258.4185865999998,,,,,,,,1,1,1.007320300000174,None,,,,,,,,807,22,M,R,2026-02-18_12h39.13.926,VisualSearch_2526_3,,2025.2.4,2026-02-18 12h39.14.119896 +0100,
vertical.xlsx,The target is tilted.,135,105,1,13,0,1,1,1,1,1,1,1,0,0,0,0,1,7,8,135,space,7.537362199999734,None,0,1,1.8956550000002608,None,space,2.1355515000004743,None,0,0,0,1,,,,,13,1,105,5,259.6474212000003,,,,,,,,,,,,,,,,,,,,,259.6319745999999,259.6474212000003,260.1309517999998,260.1353755,260.14941050000016,262.0483320000003,,,,,262.04852349999965,262.06346399999984,262.2633989999995,262.2472809000001,260.14941050000016,,,,,,,,0,1,1.8956550000002608,None,,,,,,,,807,22,M,R,2026-02-18_12h39.13.926,VisualSearch_2526_3,,2025.2.4,2026-02-18 12h39.14.119896 +0100,
vertical.xlsx,The target is tilted.,135,106,2,13,1,0,0,0,0,0,0,0,0,0,0,0,0,0,1,135,space,7.537362199999734,None,1,1,0.5755704000002879,None,space,2.1355515000004743,None,0,0,0,1,,,,,13,2,106,3,262.2633989999995,,,,,,,,,,,,,,,,,,,,,262.2480157,262.2633989999995,262.74773749999986,262.75275539999984,262.7662012999999,263.3478011999996,,,,,263.3479933999997,263.36348949999956,263.5637023999998,263.5473038,262.7662012999999,,,,,,,,1,1,0.5755704000002879,None,,,,,,,,807,22,M,R,2026-02-18_12h39.13.926,VisualSearch_2526_3,,2025.2.4,2026-02-18 12h39.14.119896 +0100,
vertical.xlsx,The target is tilted.,135,107,3,13,1,1,1,1,1,1,1,1,1,1,1,1,0,11,12,135,space,7.537362199999734,None,1,1,0.6074635000004491,None,space,2.1355515000004743,None,0,0,0,1,,,,,13,3,107,0,263.5637023999998,,,,,,,,,,,,,,,,,,,,,263.5480443999995,263.5637023999998,264.0470514999997,264.0514659999999,264.0634762999998,264.6810011999996,,,,,264.68117230000007,264.6965659999996,264.89640789999976,264.8803631999999,264.0634762999998,,,,,,,,1,1,0.6074635000004491,None,,,,,,,,807,22,M,R,2026-02-18_12h39.13.926,VisualSearch_2526_3,,2025.2.4,2026-02-18 12h39.14.119896 +0100,
vertical.xlsx,The target is tilted.,135,108,4,13,1,1,1,1,1,1,1,1,0,0,0,0,0,7,8,135,space,7.537362199999734,None,1,1,0.5946972000001551,None,space,2.1355515000004743,None,0,0,0,1,,,,,13,4,108,1,264.89640789999976,,,,,,,,,,,,,,,,,,,,,264.8810893,264.89640789999976,265.3805833999995,265.38516640000034,265.40204559999984,266.01402510000025,,,,,266.0141672,266.0298573,266.2299548000001,266.21368470000016,265.40204559999984,,,,,,,,1,1,0.5946972000001551,None,,,,,,,,807,22,M,R,2026-02-18_12h39.13.926,VisualSearch_2526_3,,2025.2.4,2026-02-18 12h39.14.119896 +0100,
vertical.xlsx,The target is tilted.,135,109,5,13,0,1,1,1,1,1,1,1,1,1,1,1,1,11,12,135,space,7.537362199999734,None,0,1,1.798967800000355,None,space,2.1355515000004743,None,0,0,0,1,,,,,13,5,109,4,266.2299548000001,,,,,,,,,,,,,,,,,,,,,266.2144275999999,266.2299548000001,266.7139863000002,266.7189714999995,266.7323451000002,268.54682630000025,,,,,268.54700179999963,268.5628121999998,268.7629773999997,268.74655540000003,266.7323451000002,,,,,,,,0,1,1.798967800000355,None,,,,,,,,807,22,M,R,2026-02-18_12h39.13.926,VisualSearch_2526_3,,2025.2.4,2026-02-18 12h39.14.119896 +0100,
vertical.xlsx,The target is tilted.,135,110,6,13,0,1,1,1,0,0,0,0,0,0,0,0,1,3,4,135,space,7.537362199999734,None,0,1,0.6710503000003882,None,space,2.1355515000004743,None,0,0,0,1,,,,,13,6,110,6,268.7629773999997,,,,,,,,,,,,,,,,,,,,,268.7473854,268.7629773999997,269.24632649999967,269.2508238999999,269.26466999999957,269.9460571999998,,,,,269.94613430000027,269.9625987999998,270.1627257,270.1461884,269.26466999999957,,,,,,,,0,1,0.6710503000003882,None,,,,,,,,807,22,M,R,2026-02-18_12h39.13.926,VisualSearch_2526_3,,2025.2.4,2026-02-18 12h39.14.119896 +0100,
vertical.xlsx,The target is tilted.,135,111,7,13,0,0,0,0,0,0,0,0,0,0,0,0,1,1,1,135,space,7.537362199999734,None,0,1,0.8087670000004437,None,space,2.1355515000004743,None,0,0,0,1,,,,,13,7,111,7,270.1627257,,,,,,,,,,,,,,,,,,,,,270.1469073999997,270.1627257,270.64616019999994,270.65063459999965,270.66565439999977,271.4802295999998,,,,,271.4804401000001,271.4954065000002,271.6957147000003,271.6796002000001,270.66565439999977,,,,,,,,0,1,0.8087670000004437,None,,,,,,,,807,22,M,R,2026-02-18_12h39.13.926,VisualSearch_2526_3,,2025.2.4,2026-02-18 12h39.14.119896 +0100,
vertical.xlsx,The target is tilted.,135,112,0,14,1,1,1,1,1,1,1,1,1,1,1,1,0,11,12,135,space,7.537362199999734,None,1,1,0.8715290999998615,None,space,2.1355515000004743,None,0,0,0,1,,,,,14,0,112,0,271.6957147000003,,,,,,,,,,,,,,,,,,,,,271.68035280000004,271.6957147000003,272.1797667999999,272.18494999999984,272.1980692999996,273.0800532000003,,,,,273.0802438999999,273.0952179999995,273.29534760000024,273.2795189999997,272.1980692999996,,,,,,,,1,1,0.8715290999998615,None,,,,,,,,807,22,M,R,2026-02-18_12h39.13.926,VisualSearch_2526_3,,2025.2.4,2026-02-18 12h39.14.119896 +0100,
vertical.xlsx,The target is tilted.,135,113,1,14,0,0,0,0,0,0,0,0,0,0,0,0,1,1,1,135,space,7.537362199999734,None,0,1,0.6081799999992654,None,space,2.1355515000004743,None,0,0,0,1,,,,,14,1,113,7,273.29534760000024,,,,,,,,,,,,,,,,,,,,,273.2802571000002,273.29534760000024,273.7794463,273.7851407999997,273.7979226999996,274.4132579999996,,,,,274.4134478999995,274.42868369999997,274.62876739999956,274.6126039999999,273.7979226999996,,,,,,,,0,1,0.6081799999992654,None,,,,,,,,807,22,M,R,2026-02-18_12h39.13.926,VisualSearch_2526_3,,2025.2.4,2026-02-18 12h39.14.119896 +0100,
vertical.xlsx,The target is tilted.,135,114,2,14,0,1,1,1,1,1,1,1,0,0,0,0,1,7,8,135,space,7.537362199999734,None,0,1,1.3517297999997027,None,space,2.1355515000004743,None,0,0,0,1,,,,,14,2,114,5,274.62876739999956,,,,,,,,,,,,,,,,,,,,,274.61335210000016,274.62876739999956,275.1125511,275.1170280999995,275.13141650000034,276.4961065999996,,,,,276.49628159999975,276.5117739999996,276.71183120000023,276.6952817000001,275.13141650000034,,,,,,,,0,1,1.3517297999997027,None,,,,,,,,807,22,M,R,2026-02-18_12h39.13.926,VisualSearch_2526_3,,2025.2.4,2026-02-18 12h39.14.119896 +0100,
vertical.xlsx,The target is tilted.,135,115,3,14,1,1,1,1,1,1,1,1,0,0,0,0,0,7,8,135,space,7.537362199999734,None,1,1,0.9480467000003046,None,space,2.1355515000004743,None,0,0,0,1,,,,,14,3,115,1,276.71183120000023,,,,,,,,,,,,,,,,,,,,,276.69604160000017,276.71183120000023,277.19555409999975,277.20011669999985,277.21699739999985,278.17889560000003,,,,,278.1790885999999,278.1947871000002,278.3949831,278.37869299999966,277.21699739999985,,,,,,,,1,1,0.9480467000003046,None,,,,,,,,807,22,M,R,2026-02-18_12h39.13.926,VisualSearch_2526_3,,2025.2.4,2026-02-18 12h39.14.119896 +0100,
vertical.xlsx,The target is tilted.,135,116,4,14,0,1,1,1,0,0,0,0,0,0,0,0,1,3,4,135,space,7.537362199999734,None,0,1,0.6094401000000289,None,space,2.1355515000004743,None,0,0,0,1,,,,,14,4,116,6,278.3949831,,,,,,,,,,,,,,,,,,,,,278.3794501000002,278.3949831,278.8788249999998,278.88407110000026,278.8975316999995,279.51254789999984,,,,,279.5127405000003,279.5279131999996,279.7279874999995,279.7118897999999,278.8975316999995,,,,,,,,0,1,0.6094401000000289,None,,,,,,,,807,22,M,R,2026-02-18_12h39.13.926,VisualSearch_2526_3,,2025.2.4,2026-02-18 12h39.14.119896 +0100,
vertical.xlsx,The target is tilted.,135,117,5,14,1,0,0,0,0,0,0,0,0,0,0,0,0,0,1,135,space,7.537362199999734,None,1,1,0.5858816999998453,None,space,2.1355515000004743,None,0,0,0,1,,,,,14,5,117,3,279.7279874999995,,,,,,,,,,,,,,,,,,,,,279.7126505999995,279.7279874999995,280.21166040000026,280.21619029999965,280.23099470000034,280.8289026000002,,,,,280.82909409999957,280.8445042000003,281.04447470000014,281.02816209999946,280.23099470000034,,,,,,,,1,1,0.5858816999998453,None,,,,,,,,807,22,M,R,2026-02-18_12h39.13.926,VisualSearch_2526_3,,2025.2.4,2026-02-18 12h39.14.119896 +0100,
vertical.xlsx,The target is tilted.,135,118,6,14,0,1,1,1,1,1,1,1,1,1,1,1,1,11,12,135,space,7.537362199999734,None,0,1,2.3490818999998737,None,space,2.1355515000004743,None,0,0,0,1,,,,,14,6,118,4,281.04447470000014,,,,,,,,,,,,,,,,,,,,,281.0289107999997,281.04447470000014,281.5278460999998,281.5323744999996,281.5470151999998,283.91083869999966,,,,,283.91092839999965,283.9269978000002,,284.11106109999946,281.5470151999998,,,,,,,,0,1,2.3490818999998737,None,,,,,,,,807,22,M,R,2026-02-18_12h39.13.926,VisualSearch_2526_3,,2025.2.4,2026-02-18 12h39.14.119896 +0100,
vertical.xlsx,The target is tilted.,135,119,7,14,1,1,1,1,0,0,0,0,0,0,0,0,0,3,4,135,space,7.537362199999734,None,1,1,0.6603251999995337,None,space,2.1355515000004743,None,0,0,0,1,,,,,14,7,119,2,284.1273566,,,,,,,,,,,,,,,,,,,,,284.11183729999993,284.1273566,284.6107414999997,284.61524800000007,284.6315844999999,285.29428910000024,,,,,285.29437099999996,285.3103885999999,285.52354809999997,285.4945375999996,284.6315844999999,,,,,,,,1,1,0.6603251999995337,None,,,,,,,,807,22,M,R,2026-02-18_12h39.13.926,VisualSearch_2526_3,,2025.2.4,2026-02-18 12h39.14.119896 +0100,
vertical.xlsx,The target is tilted.,135,0,0,0,,,,,,,,,,,,,,,,,space,7.537362199999734,None,,,,,space,2.1355515000004743,None,0,0,0,1,,,,,,,,,,,,,,,,,,,,,,,,,,,,,,,,,,,,,,,,,,,,,,,,,,,,,,,,,,,,,,,807,22,M,R,2026-02-18_12h39.13.926,VisualSearch_2526_3,,2025.2.4,2026-02-18 12h39.14.119896 +0100,
tilted.xlsx,The target is tilted.,117,0,0,0,1,1,1,1,1,1,1,1,1,1,1,1,0,11,12,117,space,11.53325059999952,None,1,1,3.2287568000001556,None,,,,0,1,1,0,0,0,0,0,,,,,297.0840171,,,,,,,,,,,,,,,285.52354809999997,285.52354809999997,285.52354809999997,space,11.53325059999952,None,297.0801183000003,297.0840171,297.57592659999955,297.5805055999999,297.59571249999954,300.8258495,1,1,3.2287568000001556,None,300.82602229999975,300.8416454999997,301.0415045999998,301.02531590000035,,,,,,,,,,,,,,,,,,,,807,22,M,R,2026-02-18_12h39.13.926,VisualSearch_2526_3,,2025.2.4,2026-02-18 12h39.14.119896 +0100,
tilted.xlsx,The target is tilted.,117,1,1,0,0,1,1,1,0,0,0,0,0,0,0,0,1,3,4,117,space,11.53325059999952,None,0,1,1.29549919999954,None,,,,0,1,1,0,0,1,1,6,,,,,301.0415045999998,,,,,,,,,,,,,,,,,,,,,301.0259847999996,301.0415045999998,301.525482,301.53001810000023,301.5451339000001,302.8421056999996,0,1,1.29549919999954,None,302.8423075999999,302.85769770000024,303.0580665999996,303.0418872,301.5451339000001,,,,,,,,,,,,,,,,,,,807,22,M,R,2026-02-18_12h39.13.926,VisualSearch_2526_3,,2025.2.4,2026-02-18 12h39.14.119896 +0100,
tilted.xlsx,The target is tilted.,117,2,2,0,1,1,1,1,0,0,0,0,0,0,0,0,0,3,4,117,space,11.53325059999952,None,1,1,0.8725742000005994,None,,,,0,1,1,0,0,2,2,2,,,,,303.0580665999996,,,,,,,,,,,,,,,,,,,,,303.0425962999998,303.0580665999996,303.5418424999998,303.5464171000003,303.56135769999946,304.4420776999996,1,1,0.8725742000005994,None,304.44224310000027,304.45778509999946,304.65777009999965,304.64171110000007,303.56135769999946,,,,,,,,,,,,,,,,,,,807,22,M,R,2026-02-18_12h39.13.926,VisualSearch_2526_3,,2025.2.4,2026-02-18 12h39.14.119896 +0100,
tilted.xlsx,The target is tilted.,117,3,3,0,0,0,0,0,0,0,0,0,0,0,0,0,1,1,1,117,space,11.53325059999952,None,0,1,0.6197542999998404,None,,,,0,1,1,0,0,3,3,7,,,,,304.65777009999965,,,,,,,,,,,,,,,,,,,,,304.6423937999998,304.65777009999965,305.1416142999997,305.14611330000025,305.16189119999945,305.7921645999995,0,1,0.6197542999998404,None,305.79234759999963,305.8075616999995,306.00746340000023,305.99140009999974,305.16189119999945,,,,,,,,,,,,,,,,,,,807,22,M,R,2026-02-18_12h39.13.926,VisualSearch_2526_3,,2025.2.4,2026-02-18 12h39.14.119896 +0100,
tilted.xlsx,The target is tilted.,117,4,4,0,1,0,0,0,0,0,0,0,0,0,0,0,0,0,1,117,space,11.53325059999952,None,1,1,0.5954172000001563,None,,,,0,1,1,0,0,4,4,3,,,,,306.00746340000023,,,,,,,,,,,,,,,,,,,,,305.9921053999997,306.00746340000023,306.4910801999995,306.4955467,306.50710720000006,307.1085092000003,1,1,0.5954172000001563,None,307.1087064000003,307.1240565999997,307.3242358999996,307.30806630000006,306.50710720000006,,,,,,,,,,,,,,,,,,,807,22,M,R,2026-02-18_12h39.13.926,VisualSearch_2526_3,,2025.2.4,2026-02-18 12h39.14.119896 +0100,
tilted.xlsx,The target is tilted.,117,5,5,0,1,1,1,1,1,1,1,1,0,0,0,0,0,7,8,117,space,11.53325059999952,None,1,1,0.7981134000001475,None,,,,0,1,1,0,0,5,5,1,,,,,307.3242358999996,,,,,,,,,,,,,,,,,,,,,307.30882329999986,307.3242358999996,307.8078746000001,307.81239949999963,307.82923819999996,308.6412723000003,1,1,0.7981134000001475,None,308.6414599999998,308.6571981999996,308.8570528,308.8408569000003,307.82923819999996,,,,,,,,,,,,,,,,,,,807,22,M,R,2026-02-18_12h39.13.926,VisualSearch_2526_3,,2025.2.4,2026-02-18 12h39.14.119896 +0100,
tilted.xlsx,The target is tilted.,117,6,6,0,0,1,1,1,1,1,1,1,0,0,0,0,1,7,8,117,space,11.53325059999952,None,0,1,4.312057200000709,None,,,,0,1,1,0,0,6,6,5,,,,,308.8570528,,,,,,,,,,,,,,,,,,,,,308.8415769000003,308.8570528,309.34122469999966,309.34622299999955,309.3637214999999,313.69084740000017,0,1,4.312057200000709,None,313.6910227999997,313.70635010000024,313.9063825000003,313.8902172999997,309.3637214999999,,,,,,,,,,,,,,,,,,,807,22,M,R,2026-02-18_12h39.13.926,VisualSearch_2526_3,,2025.2.4,2026-02-18 12h39.14.119896 +0100,
tilted.xlsx,The target is tilted.,117,7,7,0,0,1,1,1,1,1,1,1,1,1,1,1,1,11,12,117,space,11.53325059999952,None,0,1,2.946197899999788,None,,,,0,1,1,0,0,7,7,4,,,,,313.9063825000003,,,,,,,,,,,,,,,,,,,,,313.8909623999998,313.9063825000003,314.39051109999946,314.39549290000014,314.4134567000001,317.3739347999999,0,1,2.946197899999788,None,317.3741279999995,317.3891077999997,317.58937270000024,317.5732957,314.4134567000001,,,,,,,,,,,,,,,,,,,807,22,M,R,2026-02-18_12h39.13.926,VisualSearch_2526_3,,2025.2.4,2026-02-18 12h39.14.119896 +0100,
tilted.xlsx,The target is tilted.,117,0,0,0,0,0,0,0,0,0,0,0,0,0,0,0,1,1,1,117,space,11.53325059999952,None,0,1,1.1185473000005004,None,space,4.1855811000004906,None,0,1,1,0,,,,,0,0,0,7,321.82097069999963,,,,,,,,,,,,,,,,,,,,,321.8167838999998,321.82097069999963,322.30569769999966,322.31020199999966,322.3218993999999,323.4563324999999,,,,,323.45652900000005,323.47190369999953,323.6718484000003,323.6553266000001,,317.58014060000005,317.58937270000024,317.58937270000024,321.7898256999997,space,4.1855811000004906,None,0,1,1.1185473000005004,None,,,,,,,,807,22,M,R,2026-02-18_12h39.13.926,VisualSearch_2526_3,,2025.2.4,2026-02-18 12h39.14.119896 +0100,
tilted.xlsx,The target is tilted.,117,1,1,0,1,0,0,0,0,0,0,0,0,0,0,0,0,0,1,117,space,11.53325059999952,None,1,1,0.7043469000000186,None,space,4.1855811000004906,None,0,1,1,0,,,,,0,1,1,3,323.6718484000003,,,,,,,,,,,,,,,,,,,,,323.6560731999998,323.6718484000003,324.1552912999996,324.15980429999945,324.1745695999998,324.8886443000001,,,,,324.88877649999995,324.9049425000003,325.10506090000035,325.08893759999955,324.1745695999998,,,,,,,,1,1,0.7043469000000186,None,,,,,,,,807,22,M,R,2026-02-18_12h39.13.926,VisualSearch_2526_3,,2025.2.4,2026-02-18 12h39.14.119896 +0100,
tilted.xlsx,The target is tilted.,117,2,2,0,1,1,1,1,1,1,1,1,0,0,0,0,0,7,8,117,space,11.53325059999952,None,0,0,3.261572000000342,None,space,4.1855811000004906,None,0,1,1,0,,,,,0,2,2,1,325.10506090000035,,,,,,,,,,,,,,,,,,,,,325.08973460000016,325.10506090000035,325.58874039999955,325.59323570000015,325.6110355999999,328.8886759999996,,,,,328.8888557,328.90436969999973,329.10432969999965,329.08829739999965,325.6110355999999,,,,,,,,0,0,3.261572000000342,None,,,,,,,,807,22,M,R,2026-02-18_12h39.13.926,VisualSearch_2526_3,,2025.2.4,2026-02-18 12h39.14.119896 +0100,
tilted.xlsx,The target is tilted.,117,3,3,0,0,1,1,1,1,1,1,1,1,1,1,1,1,11,12,117,space,11.53325059999952,None,0,1,4.3990452999996705,None,space,4.1855811000004906,None,0,1,1,0,,,,,0,3,3,4,329.10432969999965,,,,,,,,,,,,,,,,,,,,,329.0890766000002,329.10432969999965,329.58784099999957,329.5923442000003,329.60666239999955,334.02140450000024,,,,,334.02160040000035,334.03697680000005,334.2369103000001,334.2207519000003,329.60666239999955,,,,,,,,0,1,4.3990452999996705,None,,,,,,,,807,22,M,R,2026-02-18_12h39.13.926,VisualSearch_2526_3,,2025.2.4,2026-02-18 12h39.14.119896 +0100,
tilted.xlsx,The target is tilted.,117,4,4,0,1,1,1,1,0,0,0,0,0,0,0,0,0,3,4,117,space,11.53325059999952,None,1,1,1.4646009000007325,None,space,4.1855811000004906,None,0,1,1,0,,,,,0,4,4,2,334.2369103000001,,,,,,,,,,,,,,,,,,,,,334.22148469999956,334.2369103000001,334.7203606000003,334.72476860000006,334.7405939,336.22046919999957,,,,,336.2205839999997,336.2363870999998,336.4365084000001,336.42046500000015,334.7405939,,,,,,,,1,1,1.4646009000007325,None,,,,,,,,807,22,M,R,2026-02-18_12h39.13.926,VisualSearch_2526_3,,2025.2.4,2026-02-18 12h39.14.119896 +0100,
tilted.xlsx,The target is tilted.,117,5,5,0,1,1,1,1,1,1,1,1,1,1,1,1,0,11,12,117,space,11.53325059999952,None,1,1,3.5406310999997004,None,space,4.1855811000004906,None,0,1,1,0,,,,,0,5,5,0,336.4365084000001,,,,,,,,,,,,,,,,,,,,,336.4212249000002,336.4365084000001,336.92046990000017,336.9249434000003,336.94033750000017,340.4868325999996,,,,,340.4870211999996,340.5025620999995,340.70230639999954,340.6863056000002,336.94033750000017,,,,,,,,1,1,3.5406310999997004,None,,,,,,,,807,22,M,R,2026-02-18_12h39.13.926,VisualSearch_2526_3,,2025.2.4,2026-02-18 12h39.14.119896 +0100,
tilted.xlsx,The target is tilted.,117,6,6,0,0,1,1,1,0,0,0,0,0,0,0,0,1,3,4,117,space,11.53325059999952,None,0,1,1.8607255999995687,None,space,4.1855811000004906,None,0,1,1,0,,,,,0,6,6,6,340.70230639999954,,,,,,,,,,,,,,,,,,,,,340.6870465000002,340.70230639999954,341.1862805999999,341.1907355000003,341.2057728,343.0698000000002,,,,,343.0699889999996,343.08556769999996,343.28555609999967,343.2692267000002,341.2057728,,,,,,,,0,1,1.8607255999995687,None,,,,,,,,807,22,M,R,2026-02-18_12h39.13.926,VisualSearch_2526_3,,2025.2.4,2026-02-18 12h39.14.119896 +0100,
tilted.xlsx,The target is tilted.,117,7,7,0,0,1,1,1,1,1,1,1,0,0,0,0,1,7,8,117,space,11.53325059999952,None,0,1,3.19628560000001,None,space,4.1855811000004906,None,0,1,1,0,,,,,0,7,7,5,343.28555609999967,,,,,,,,,,,,,,,,,,,,,343.2699378999996,343.28555609999967,343.76910320000025,343.7735729999995,343.7855907000003,346.98557299999993,,,,,346.9857449000001,347.0017042999998,347.20192940000015,347.18575260000034,343.7855907000003,,,,,,,,0,1,3.19628560000001,None,,,,,,,,807,22,M,R,2026-02-18_12h39.13.926,VisualSearch_2526_3,,2025.2.4,2026-02-18 12h39.14.119896 +0100,
tilted.xlsx,The target is tilted.,117,8,0,1,0,1,1,1,1,1,1,1,0,0,0,0,1,7,8,117,space,11.53325059999952,None,0,1,3.0436798999999155,None,space,4.1855811000004906,None,0,1,1,0,,,,,1,0,8,5,347.20192940000015,,,,,,,,,,,,,,,,,,,,,347.1864776000002,347.20192940000015,347.6856597999995,347.69012229999953,347.7058043999996,350.7530936000003,,,,,350.7533121999995,350.76796379999996,350.96758450000016,350.95176489999994,347.7058043999996,,,,,,,,0,1,3.0436798999999155,None,,,,,,,,807,22,M,R,2026-02-18_12h39.13.926,VisualSearch_2526_3,,2025.2.4,2026-02-18 12h39.14.119896 +0100,
tilted.xlsx,The target is tilted.,117,9,1,1,0,0,0,0,0,0,0,0,0,0,0,0,1,1,1,117,space,11.53325059999952,None,0,1,0.757377699999779,None,space,4.1855811000004906,None,0,1,1,0,,,,,1,1,9,7,350.96758450000016,,,,,,,,,,,,,,,,,,,,,350.9525598,350.96758450000016,351.4518304000003,351.45629290000034,351.46775679999973,352.2355096000001,,,,,352.23569829999997,352.2506685999997,352.4510299000003,352.4347889999999,351.46775679999973,,,,,,,,0,1,0.757377699999779,None,,,,,,,,807,22,M,R,2026-02-18_12h39.13.926,VisualSearch_2526_3,,2025.2.4,2026-02-18 12h39.14.119896 +0100,
tilted.xlsx,The target is tilted.,117,10,2,1,1,0,0,0,0,0,0,0,0,0,0,0,0,0,1,117,space,11.53325059999952,None,1,1,0.5367875000001732,None,space,4.1855811000004906,None,0,1,1,0,,,,,1,2,10,3,352.4510299000003,,,,,,,,,,,,,,,,,,,,,352.4355476999999,352.4510299000003,352.93486120000034,352.9395548000002,352.9552404999995,353.5019941999999,,,,,353.50218330000007,353.51717869999993,353.71748969999953,353.70148880000033,352.9552404999995,,,,,,,,1,1,0.5367875000001732,None,,,,,,,,807,22,M,R,2026-02-18_12h39.13.926,VisualSearch_2526_3,,2025.2.4,2026-02-18 12h39.14.119896 +0100,
tilted.xlsx,The target is tilted.,117,11,3,1,1,1,1,1,1,1,1,1,0,0,0,0,0,7,8,117,space,11.53325059999952,None,1,1,1.570689800000764,None,space,4.1855811000004906,None,0,1,1,0,,,,,1,3,11,1,353.71748969999953,,,,,,,,,,,,,,,,,,,,,353.7022791999998,353.71748969999953,354.2011832999997,354.2057441999996,354.2227849000001,355.80174309999984,,,,,355.80193080000026,355.8171755000003,356.0171657000001,356.0011437000003,354.2227849000001,,,,,,,,1,1,1.570689800000764,None,,,,,,,,807,22,M,R,2026-02-18_12h39.13.926,VisualSearch_2526_3,,2025.2.4,2026-02-18 12h39.14.119896 +0100,
tilted.xlsx,The target is tilted.,117,12,4,1,0,1,1,1,0,0,0,0,0,0,0,0,1,3,4,117,space,11.53325059999952,None,0,1,1.561712400000033,None,space,4.1855811000004906,None,0,1,1,0,,,,,1,4,12,6,356.0171657000001,,,,,,,,,,,,,,,,,,,,,356.00188309999976,356.0171657000001,356.5011758999999,356.5063461,356.5213997000001,358.08468280000034,,,,,358.08490319999964,358.1001838000002,358.29985250000027,358.28421290000006,356.5213997000001,,,,,,,,0,1,1.561712400000033,None,,,,,,,,807,22,M,R,2026-02-18_12h39.13.926,VisualSearch_2526_3,,2025.2.4,2026-02-18 12h39.14.119896 +0100,
tilted.xlsx,The target is tilted.,117,13,5,1,1,1,1,1,0,0,0,0,0,0,0,0,0,3,4,117,space,11.53325059999952,None,1,1,0.8279068000001644,None,space,4.1855811000004906,None,0,1,1,0,,,,,1,5,13,2,358.29985250000027,,,,,,,,,,,,,,,,,,,,,358.2849325999996,358.29985250000027,358.78381569999965,358.7883949999996,358.8040046999995,359.63404420000006,,,,,359.6341781000001,359.64990039999975,359.8499519999996,359.8338033,358.8040046999995,,,,,,,,1,1,0.8279068000001644,None,,,,,,,,807,22,M,R,2026-02-18_12h39.13.926,VisualSearch_2526_3,,2025.2.4,2026-02-18 12h39.14.119896 +0100,
tilted.xlsx,The target is tilted.,117,14,6,1,0,1,1,1,1,1,1,1,1,1,1,1,1,11,12,117,space,11.53325059999952,None,0,1,3.9957954000001337,None,space,4.1855811000004906,None,0,1,1,0,,,,,1,6,14,4,359.8499519999996,,,,,,,,,,,,,,,,,,,,,359.83455929999946,359.8499519999996,360.33345389999977,360.33792730000005,360.3545874000001,364.3662624999997,,,,,364.36636590000035,364.38223670000025,364.58254829999987,364.56610829999954,360.3545874000001,,,,,,,,0,1,3.9957954000001337,None,,,,,,,,807,22,M,R,2026-02-18_12h39.13.926,VisualSearch_2526_3,,2025.2.4,2026-02-18 12h39.14.119896 +0100,
tilted.xlsx,The target is tilted.,117,15,7,1,1,1,1,1,1,1,1,1,1,1,1,1,0,11,12,117,space,11.53325059999952,None,1,1,1.147305200000119,None,space,4.1855811000004906,None,0,1,1,0,,,,,1,7,15,0,364.58254829999987,,,,,,,,,,,,,,,,,,,,,364.56683559999965,364.58254829999987,365.0661414999995,365.0705975000001,365.0857347000001,366.2493139999997,,,,,366.2494071000001,366.26524900000004,366.4656266000002,366.4495244,365.0857347000001,,,,,,,,1,1,1.147305200000119,None,,,,,,,,807,22,M,R,2026-02-18_12h39.13.926,VisualSearch_2526_3,,2025.2.4,2026-02-18 12h39.14.119896 +0100,
tilted.xlsx,The target is tilted.,117,16,0,2,1,0,0,0,0,0,0,0,0,0,0,0,0,0,1,117,space,11.53325059999952,None,1,1,0.7299567000000025,None,space,4.1855811000004906,None,0,1,1,0,,,,,2,0,16,3,366.4656266000002,,,,,,,,,,,,,,,,,,,,,366.45027560000017,366.4656266000002,366.94963819999975,366.95410470000024,366.97000839999964,367.71678820000034,,,,,367.717001,367.7317837999999,367.93221900000026,367.9161175999998,366.97000839999964,,,,,,,,1,1,0.7299567000000025,None,,,,,,,,807,22,M,R,2026-02-18_12h39.13.926,VisualSearch_2526_3,,2025.2.4,2026-02-18 12h39.14.119896 +0100,
tilted.xlsx,The target is tilted.,117,17,1,2,0,1,1,1,1,1,1,1,0,0,0,0,1,7,8,117,space,11.53325059999952,None,0,1,2.0891850000007253,None,space,4.1855811000004906,None,0,1,1,0,,,,,2,1,17,5,367.93221900000026,,,,,,,,,,,,,,,,,,,,,367.91684859999987,367.93221900000026,368.4158717999999,368.4203238,368.4341647000001,370.5330063000001,,,,,370.5332277999996,370.54841659999965,370.7485679000001,370.73235039999963,368.4341647000001,,,,,,,,0,1,2.0891850000007253,None,,,,,,,,807,22,M,R,2026-02-18_12h39.13.926,VisualSearch_2526_3,,2025.2.4,2026-02-18 12h39.14.119896 +0100,
tilted.xlsx,The target is tilted.,117,18,2,2,1,1,1,1,1,1,1,1,0,0,0,0,0,7,8,117,space,11.53325059999952,None,0,0,2.6720050999992964,None,space,4.1855811000004906,None,0,1,1,0,,,,,2,2,18,1,370.7485679000001,,,,,,,,,,,,,,,,,,,,,370.7332372000001,370.7485679000001,371.23234890000003,371.2368183999997,371.2513448999998,373.9322360999995,,,,,373.93243319999965,373.94790250000005,374.1476196000003,374.1319467000003,371.2513448999998,,,,,,,,0,0,2.6720050999992964,None,,,,,,,,807,22,M,R,2026-02-18_12h39.13.926,VisualSearch_2526_3,,2025.2.4,2026-02-18 12h39.14.119896 +0100,
tilted.xlsx,The target is tilted.,117,19,3,2,0,1,1,1,1,1,1,1,1,1,1,1,1,11,12,117,space,11.53325059999952,None,0,1,3.3951794000004156,None,space,4.1855811000004906,None,0,1,1,0,,,,,2,3,19,4,374.1476196000003,,,,,,,,,,,,,,,,,,,,,374.13270439999997,374.1476196000003,374.6317921,374.6363437,374.6513009,378.0484470000001,,,,,378.04865319999953,378.0639822000003,378.26369239999985,378.24782589999995,374.6513009,,,,,,,,0,1,3.3951794000004156,None,,,,,,,,807,22,M,R,2026-02-18_12h39.13.926,VisualSearch_2526_3,,2025.2.4,2026-02-18 12h39.14.119896 +0100,
tilted.xlsx,The target is tilted.,117,20,4,2,1,1,1,1,0,0,0,0,0,0,0,0,0,3,4,117,space,11.53325059999952,None,1,1,0.9501426000006177,None,space,4.1855811000004906,None,0,1,1,0,,,,,2,4,20,2,378.26369239999985,,,,,,,,,,,,,,,,,,,,,378.24859259999994,378.26369239999985,378.74776999999995,378.7523492999999,378.76896149999993,379.7312455000001,,,,,379.73140129999956,379.74712929999987,379.94725279999966,379.93075299999964,378.76896149999993,,,,,,,,1,1,0.9501426000006177,None,,,,,,,,807,22,M,R,2026-02-18_12h39.13.926,VisualSearch_2526_3,,2025.2.4,2026-02-18 12h39.14.119896 +0100,
tilted.xlsx,The target is tilted.,117,21,5,2,0,1,1,1,0,0,0,0,0,0,0,0,1,3,4,117,space,11.53325059999952,None,0,1,1.051971500000036,None,space,4.1855811000004906,None,0,1,1,0,,,,,2,5,21,6,379.94725279999966,,,,,,,,,,,,,,,,,,,,,379.93154030000005,379.94725279999966,380.4312404000002,380.4361911999995,380.45076960000006,381.51472600000034,,,,,381.51492059999964,381.53014710000025,381.7300654999999,381.7139138000002,380.45076960000006,,,,,,,,0,1,1.051971500000036,None,,,,,,,,807,22,M,R,2026-02-18_12h39.13.926,VisualSearch_2526_3,,2025.2.4,2026-02-18 12h39.14.119896 +0100,
tilted.xlsx,The target is tilted.,117,22,6,2,0,0,0,0,0,0,0,0,0,0,0,0,1,1,1,117,space,11.53325059999952,None,0,1,0.6621226000006573,None,space,4.1855811000004906,None,0,1,1,0,,,,,2,6,22,7,381.7300654999999,,,,,,,,,,,,,,,,,,,,,381.71467870000015,381.7300654999999,382.2139965999995,382.21856539999953,382.23351619999994,382.89760639999986,,,,,382.89779649999946,382.91328969999995,383.1133552000001,383.0970889,382.23351619999994,,,,,,,,0,1,0.6621226000006573,None,,,,,,,,807,22,M,R,2026-02-18_12h39.13.926,VisualSearch_2526_3,,2025.2.4,2026-02-18 12h39.14.119896 +0100,
tilted.xlsx,The target is tilted.,117,23,7,2,1,1,1,1,1,1,1,1,1,1,1,1,0,11,12,117,space,11.53325059999952,None,1,1,3.370782699999836,None,space,4.1855811000004906,None,0,1,1,0,,,,,2,7,23,0,383.1133552000001,,,,,,,,,,,,,,,,,,,,,383.0978706999995,383.1133552000001,383.59709269999985,383.6016060000002,383.61665189999985,386.99701579999964,,,,,386.9972078999999,387.0125607,387.2128977000002,387.1962659999999,383.61665189999985,,,,,,,,1,1,3.370782699999836,None,,,,,,,,807,22,M,R,2026-02-18_12h39.13.926,VisualSearch_2526_3,,2025.2.4,2026-02-18 12h39.14.119896 +0100,
tilted.xlsx,The target is tilted.,117,24,0,3,0,0,0,0,0,0,0,0,0,0,0,0,1,1,1,117,space,11.53325059999952,None,0,1,0.6300851999994848,None,space,4.1855811000004906,None,0,1,1,0,,,,,3,0,24,7,387.2128977000002,,,,,,,,,,,,,,,,,,,,,387.1970771999995,387.2128977000002,387.69625989999986,387.70075540000016,387.7147884999995,388.34678579999945,,,,,388.34699029999956,388.3626882999997,388.5626481999998,388.54613659999995,387.7147884999995,,,,,,,,0,1,0.6300851999994848,None,,,,,,,,807,22,M,R,2026-02-18_12h39.13.926,VisualSearch_2526_3,,2025.2.4,2026-02-18 12h39.14.119896 +0100,
tilted.xlsx,The target is tilted.,117,25,1,3,1,0,0,0,0,0,0,0,0,0,0,0,0,0,1,117,space,11.53325059999952,None,1,1,0.544073600000047,None,space,4.1855811000004906,None,0,1,1,0,,,,,3,1,25,3,388.5626481999998,,,,,,,,,,,,,,,,,,,,,388.5468939000002,388.5626481999998,389.0463305000003,389.05089940000016,389.0660146,389.6134473000002,,,,,389.61376889999974,389.6289363999995,389.8291099999997,389.8129762999997,389.0660146,,,,,,,,1,1,0.544073600000047,None,,,,,,,,807,22,M,R,2026-02-18_12h39.13.926,VisualSearch_2526_3,,2025.2.4,2026-02-18 12h39.14.119896 +0100,
tilted.xlsx,The target is tilted.,117,26,2,3,0,1,1,1,1,1,1,1,1,1,1,1,1,11,12,117,space,11.53325059999952,None,0,1,4.172558699999172,None,space,4.1855811000004906,None,0,1,1,0,,,,,3,2,26,4,389.8291099999997,,,,,,,,,,,,,,,,,,,,,389.8137111999995,389.8291099999997,390.31286980000004,390.31738719999976,390.334613,394.51269649999995,,,,,394.5129195999998,394.5280522000003,394.72848859999976,394.71231549999993,390.334613,,,,,,,,0,1,4.172558699999172,None,,,,,,,,807,22,M,R,2026-02-18_12h39.13.926,VisualSearch_2526_3,,2025.2.4,2026-02-18 12h39.14.119896 +0100,
tilted.xlsx,The target is tilted.,117,27,3,3,0,1,1,1,0,0,0,0,0,0,0,0,1,3,4,117,space,11.53325059999952,None,0,1,0.8342174999997951,None,space,4.1855811000004906,None,0,1,1,0,,,,,3,3,27,6,394.72848859999976,,,,,,,,,,,,,,,,,,,,,394.71302790000027,394.72848859999976,395.2124088999999,395.2175484999998,395.2317786000003,396.07911969999986,,,,,396.07938449999983,396.0946678,396.2948895999998,396.2785187999998,395.2317786000003,,,,,,,,0,1,0.8342174999997951,None,,,,,,,,807,22,M,R,2026-02-18_12h39.13.926,VisualSearch_2526_3,,2025.2.4,2026-02-18 12h39.14.119896 +0100,
tilted.xlsx,The target is tilted.,117,28,4,3,0,1,1,1,1,1,1,1,0,0,0,0,1,7,8,117,space,11.53325059999952,None,0,1,2.521235200000774,None,space,4.1855811000004906,None,0,1,1,0,,,,,3,4,28,5,396.2948895999998,,,,,,,,,,,,,,,,,,,,,396.27925869999945,396.2948895999998,396.77862060000007,396.7832324000001,396.79818760000035,399.32877439999993,,,,,399.3289678000001,399.34437909999997,399.54417490000014,399.52838280000014,396.79818760000035,,,,,,,,0,1,2.521235200000774,None,,,,,,,,807,22,M,R,2026-02-18_12h39.13.926,VisualSearch_2526_3,,2025.2.4,2026-02-18 12h39.14.119896 +0100,
tilted.xlsx,The target is tilted.,117,29,5,3,1,1,1,1,1,1,1,1,0,0,0,0,0,7,8,117,space,11.53325059999952,None,1,1,2.680270599999858,None,space,4.1855811000004906,None,0,1,1,0,,,,,3,5,29,1,399.54417490000014,,,,,,,,,,,,,,,,,,,,,399.5291866999996,399.54417490000014,400.0281334000001,400.0329522000002,400.04416630000014,402.72812280000016,,,,,402.72831659999974,402.7439837000002,402.9438290999997,402.9272820999995,400.04416630000014,,,,,,,,1,1,2.680270599999858,None,,,,,,,,807,22,M,R,2026-02-18_12h39.13.926,VisualSearch_2526_3,,2025.2.4,2026-02-18 12h39.14.119896 +0100,
tilted.xlsx,The target is tilted.,117,30,6,3,1,1,1,1,1,1,1,1,1,1,1,1,0,11,12,117,space,11.53325059999952,None,1,1,2.2706381999996665,None,space,4.1855811000004906,None,0,1,1,0,,,,,3,6,30,0,402.9438290999997,,,,,,,,,,,,,,,,,,,,,402.9280474999996,402.9438290999997,403.4278111000003,403.43332480000026,403.44702869999946,405.7277137000001,,,,,405.72788949999995,405.7433424999999,405.9435394000002,405.92716949999976,403.44702869999946,,,,,,,,1,1,2.2706381999996665,None,,,,,,,,807,22,M,R,2026-02-18_12h39.13.926,VisualSearch_2526_3,,2025.2.4,2026-02-18 12h39.14.119896 +0100,
tilted.xlsx,The target is tilted.,117,31,7,3,1,1,1,1,0,0,0,0,0,0,0,0,0,3,4,117,space,11.53325059999952,None,1,1,1.0883589000004577,None,space,4.1855811000004906,None,0,1,1,0,,,,,3,7,31,2,405.9435394000002,,,,,,,,,,,,,,,,,,,,,405.9281142,405.9435394000002,406.42738589999954,406.4322073000003,406.44676419999996,407.54415919999974,,,,,407.54435079999985,407.5598865000002,407.7598748999999,407.7436845000002,406.44676419999996,,,,,,,,1,1,1.0883589000004577,None,,,,,,,,807,22,M,R,2026-02-18_12h39.13.926,VisualSearch_2526_3,,2025.2.4,2026-02-18 12h39.14.119896 +0100,
tilted.xlsx,The target is tilted.,117,32,0,4,1,1,1,1,1,1,1,1,0,0,0,0,0,7,8,117,space,11.53325059999952,None,1,1,0.9784331999999267,None,space,4.1855811000004906,None,0,1,1,0,,,,,4,0,32,1,407.7598748999999,,,,,,,,,,,,,,,,,,,,,407.7444386999996,407.7598748999999,408.24333019999995,408.24777819999963,408.26323179999963,409.24343729999964,,,,,409.24352069999986,409.25936589999947,409.4596881999996,409.44353500000034,408.26323179999963,,,,,,,,1,1,0.9784331999999267,None,,,,,,,,807,22,M,R,2026-02-18_12h39.13.926,VisualSearch_2526_3,,2025.2.4,2026-02-18 12h39.14.119896 +0100,
tilted.xlsx,The target is tilted.,117,33,1,4,0,1,1,1,1,1,1,1,1,1,1,1,1,11,12,117,space,11.53325059999952,None,0,1,2.478174500000023,None,space,4.1855811000004906,None,0,1,1,0,,,,,4,1,33,4,409.4596881999996,,,,,,,,,,,,,,,,,,,,,409.4442505999996,409.4596881999996,409.9434616999997,409.94795280000017,409.9631268000003,412.4436671000003,,,,,412.44386029999987,412.4590624000002,412.6587880999996,412.6425927999999,409.9631268000003,,,,,,,,0,1,2.478174500000023,None,,,,,,,,807,22,M,R,2026-02-18_12h39.13.926,VisualSearch_2526_3,,2025.2.4,2026-02-18 12h39.14.119896 +0100,
