file_name,block_instructions,target_example,thisN,thisTrialN,thisRepN,target_presence,opacity_1,opacity_2,opacity_3,opacity_4,opacity_5,opacity_6,opacity_7,opacity_8,opacity_9,opacity_10,opacity_11,opacity_12,n_distract,n_items,target_ori,key_resp_4.keys,key_resp_4.rt,key_resp_4.duration,key_resp.keys,key_resp.corr,key_resp.rt,key_resp.duration,key_resp_5.keys,key_resp_5.rt,key_resp_5.duration,blocks.thisRepN,blocks.thisTrialN,blocks.thisN,blocks.thisIndex,practice_trials.thisRepN,practice_trials.thisTrialN,practice_trials.thisN,practice_trials.thisIndex,trials.thisRepN,trials.thisTrialN,trials.thisN,trials.thisIndex,thisRow.t,notes,Welcome.started,WelcomeText.started,key_resp_2.started,Welcome.stopped,key_resp_2.keys,key_resp_2.rt,key_resp_2.duration,InformedConsent.started,text_4.started,InformedConsent.stopped,key_resp_6.keys,key_resp_6.rt,key_resp_6.duration,key_resp_4.started,example_target.started,text_3.started,blocks.key_resp_4.keys,blocks.key_resp_4.rt,blocks.key_resp_4.duration,FixCross.started,fixCross.started,fixCross.stopped,FixCross.stopped,Stimulus.started,key_resp.started,Stimulus.stopped,practice_trials.key_resp.keys,practice_trials.key_resp.corr,practice_trials.key_resp.rt,practice_trials.key_resp.duration,BlankScreen.started,text.started,text.stopped,BlankScreen.stopped,ExperimentStart.started,text_2.started,key_resp_5.started,ExperimentStart.stopped,blocks.key_resp_5.keys,blocks.key_resp_5.rt,blocks.key_resp_5.duration,trials.key_resp.keys,trials.key_resp.corr,trials.key_resp.rt,trials.key_resp.duration,Thanks.started,ThankYou.started,key_resp_3.started,Thanks.stopped,key_resp_3.keys,key_resp_3.rt,key_resp_3.duration,participant,leeftijd,gender,links/rechtshandig,date,expName,expVersion,psychopyVersion,expStart,
,,,,,,,,,,,,,,,,,,,,,,,,,,,,,,,,,,,,,,,,,,,,,,0.012600900000052206,0.02486969999995381,0.02486969999995381,39.24046479999993,space,39.194640400000026,None,,,,,,,,,,,,,,,,,,,,,,,,,,,,,,,,,,,,,,,,,,,,,,809,21,M,R,2026-02-23_11h27.54.658,VisualSearch_2526_3,,2025.2.4,2026-02-23 11h27.54.862378 +0100,
,,,,,,,,,,,,,,,,,,,,,,,,,,,,,,,,,,,,,,,,,,,,,,,,,,,,,39.24051280000003,39.25208509999993,48.88459949999992,y,9.64294760000007,None,,,,,,,,,,,,,,,,,,,,,,,,,,,,,,,,,,,,,,,,809,21,M,R,2026-02-23_11h27.54.658,VisualSearch_2526_3,,2025.2.4,2026-02-23 11h27.54.862378 +0100,
vertical.xlsx,The target is tilted.,135,0,0,0,0,0,0,0,0,0,0,0,0,0,0,0,1,1,1,135,space,9.594497200000205,None,0,1,0.6144573000001401,None,,,,0,0,0,1,0,0,0,7,,,,,58.53219300000001,,,,,,,,,,,,,,,48.90740699999992,48.90740699999992,48.90740699999992,space,9.594497200000205,None,58.525654999999915,58.53219300000001,59.03222419999997,59.01573690000009,59.01745619999997,59.03222419999997,59.65042850000009,0,1,0.6144573000001401,None,59.65064989999996,59.66546160000007,59.865324699999974,59.84882270000003,,,,,,,,,,,,,,,,,,,809,21,M,R,2026-02-23_11h27.54.658,VisualSearch_2526_3,,2025.2.4,2026-02-23 11h27.54.862378 +0100,
vertical.xlsx,The target is tilted.,135,1,1,0,1,0,0,0,0,0,0,0,0,0,0,0,0,0,1,135,space,9.594497200000205,None,1,1,0.5406129000000419,None,,,,0,0,0,1,0,1,1,3,,,,,59.865324699999974,,,,,,,,,,,,,,,,,,,,,59.84913350000011,59.865324699999974,60.36524120000013,60.34867170000007,60.35034900000005,60.36524120000013,60.915658399999984,1,1,0.5406129000000419,None,60.91575080000007,60.931859999999915,61.13202300000012,61.1157412,,,,,,,,,,,,,,,,,,,809,21,M,R,2026-02-23_11h27.54.658,VisualSearch_2526_3,,2025.2.4,2026-02-23 11h27.54.862378 +0100,
vertical.xlsx,The target is tilted.,135,2,2,0,0,1,1,1,0,0,0,0,0,0,0,0,1,3,4,135,space,9.594497200000205,None,0,1,0.7623779000000468,None,,,,0,0,0,1,0,2,2,6,,,,,61.13202300000012,,,,,,,,,,,,,,,,,,,,,61.11623359999999,61.13202300000012,61.63183789999994,61.61531960000002,61.617000799999914,61.63183789999994,62.39881270000001,0,1,0.7623779000000468,None,62.39888999999994,62.41486039999995,62.614948899999945,62.598481600000014,,,,,,,,,,,,,,,,,,,809,21,M,R,2026-02-23_11h27.54.658,VisualSearch_2526_3,,2025.2.4,2026-02-23 11h27.54.862378 +0100,
vertical.xlsx,The target is tilted.,135,3,3,0,1,1,1,1,0,0,0,0,0,0,0,0,0,3,4,135,space,9.594497200000205,None,1,1,0.7054089999999178,None,,,,0,0,0,1,0,3,3,2,,,,,62.614948899999945,,,,,,,,,,,,,,,,,,,,,62.598747499999945,62.614948899999945,63.11488910000003,63.09837970000012,63.100080800000114,63.11488910000003,63.83195670000009,1,1,0.7054089999999178,None,63.83203660000004,63.848081600000114,64.04810449999991,64.0315786000001,,,,,,,,,,,,,,,,,,,809,21,M,R,2026-02-23_11h27.54.658,VisualSearch_2526_3,,2025.2.4,2026-02-23 11h27.54.862378 +0100,
vertical.xlsx,The target is tilted.,135,4,4,0,0,1,1,1,1,1,1,1,0,0,0,0,1,7,8,135,space,9.594497200000205,None,0,1,1.4214022999999543,None,,,,0,0,0,1,0,4,4,5,,,,,64.04810449999991,,,,,,,,,,,,,,,,,,,,,64.03187470000012,64.04810449999991,64.54803530000004,64.5315172999999,64.53322819999994,64.54803530000004,65.98163890000001,0,1,1.4214022999999543,None,65.98172150000005,65.99773909999999,66.19771130000004,66.18124869999997,,,,,,,,,,,,,,,,,,,809,21,M,R,2026-02-23_11h27.54.658,VisualSearch_2526_3,,2025.2.4,2026-02-23 11h27.54.862378 +0100,
vertical.xlsx,The target is tilted.,135,5,5,0,1,1,1,1,1,1,1,1,1,1,1,1,0,11,12,135,space,9.594497200000205,None,1,1,3.0179688000000624,None,,,,0,0,0,1,0,5,5,0,,,,,66.19771130000004,,,,,,,,,,,,,,,,,,,,,66.18153439999992,66.19771130000004,66.69772269999999,66.6812597999999,66.68298860000004,66.69772269999999,69.7310867000001,1,1,3.0179688000000624,None,69.7311681000001,69.74725089999993,69.94717500000002,69.93068919999996,,,,,,,,,,,,,,,,,,,809,21,M,R,2026-02-23_11h27.54.658,VisualSearch_2526_3,,2025.2.4,2026-02-23 11h27.54.862378 +0100,
vertical.xlsx,The target is tilted.,135,6,6,0,0,1,1,1,1,1,1,1,1,1,1,1,1,11,12,135,space,9.594497200000205,None,0,1,2.465019099999836,None,,,,0,0,0,1,0,6,6,4,,,,,69.94717500000002,,,,,,,,,,,,,,,,,,,,,69.93100249999998,69.94717500000002,70.44730440000012,70.43077979999998,70.43236789999992,70.44730440000012,72.913771,0,1,2.465019099999836,None,72.91382620000013,72.93005210000001,73.13008020000007,73.11362469999995,,,,,,,,,,,,,,,,,,,809,21,M,R,2026-02-23_11h27.54.658,VisualSearch_2526_3,,2025.2.4,2026-02-23 11h27.54.862378 +0100,
vertical.xlsx,The target is tilted.,135,7,7,0,1,1,1,1,1,1,1,1,0,0,0,0,0,7,8,135,space,9.594497200000205,None,1,1,1.034942000000001,None,,,,0,0,0,1,0,7,7,1,,,,,73.13008020000007,,,,,,,,,,,,,,,,,,,,,73.11390230000006,73.13008020000007,73.6300397,73.61350659999994,73.61523269999998,73.6300397,74.68080200000009,1,1,1.034942000000001,None,74.68092849999994,74.69652199999996,,74.88106540000013,,,,,,,,,,,,,,,,,,,809,21,M,R,2026-02-23_11h27.54.658,VisualSearch_2526_3,,2025.2.4,2026-02-23 11h27.54.862378 +0100,
vertical.xlsx,The target is tilted.,135,0,0,0,0,1,1,1,1,1,1,1,0,0,0,0,1,7,8,135,space,9.594497200000205,None,0,1,1.4638630999997986,None,space,1.5204785000000811,None,0,0,0,1,,,,,0,0,0,5,76.45856320000007,,,,,,,,,,,,,,,,,,,,,76.4548314000001,76.45856320000007,,76.94723369999997,76.95195050000007,76.96369340000001,78.43089680000003,,,,,78.43110079999997,78.44628809999995,78.6467795000001,78.63066140000001,74.8898091000001,74.89673799999991,74.89673799999991,76.43134050000003,space,1.5204785000000811,None,0,1,1.4638630999997986,None,,,,,,,,809,21,M,R,2026-02-23_11h27.54.658,VisualSearch_2526_3,,2025.2.4,2026-02-23 11h27.54.862378 +0100,
vertical.xlsx,The target is tilted.,135,1,1,0,0,1,1,1,1,1,1,1,1,1,1,1,1,11,12,135,space,9.594497200000205,None,0,1,1.682399499999974,None,space,1.5204785000000811,None,0,0,0,1,,,,,0,1,1,4,78.6467795000001,,,,,,,,,,,,,,,,,,,,,78.63137269999993,78.6467795000001,79.15094160000012,79.13060969999992,79.13553049999996,79.15094160000012,80.84648659999993,,,,,80.846634,80.86255230000006,81.06316970000012,81.0469306,,,,,,,,0,1,1.682399499999974,None,,,,,,,,809,21,M,R,2026-02-23_11h27.54.658,VisualSearch_2526_3,,2025.2.4,2026-02-23 11h27.54.862378 +0100,
vertical.xlsx,The target is tilted.,135,2,2,0,1,0,0,0,0,0,0,0,0,0,0,0,0,0,1,135,space,9.594497200000205,None,1,1,0.6334689999998773,None,space,1.5204785000000811,None,0,0,0,1,,,,,0,2,2,3,81.06316970000012,,,,,,,,,,,,,,,,,,,,,81.04769839999994,81.06316970000012,81.56592449999994,81.54663189999997,81.55142920000003,81.56592449999994,82.2124417,,,,,82.21249770000009,82.2291795000001,,82.41261809999992,,,,,,,,1,1,0.6334689999998773,None,,,,,,,,809,21,M,R,2026-02-23_11h27.54.658,VisualSearch_2526_3,,2025.2.4,2026-02-23 11h27.54.862378 +0100,
vertical.xlsx,The target is tilted.,135,3,3,0,1,1,1,1,1,1,1,1,1,1,1,1,0,11,12,135,space,9.594497200000205,None,1,1,1.1351301999998213,None,space,1.5204785000000811,None,0,0,0,1,,,,,0,3,3,0,82.4290598,,,,,,,,,,,,,,,,,,,,,82.41287570000009,82.4290598,82.92881310000007,82.91208800000004,82.9131491999999,82.92881310000007,84.07934720000003,,,,,84.0794813,84.09552350000013,,84.27958340000009,,,,,,,,1,1,1.1351301999998213,None,,,,,,,,809,21,M,R,2026-02-23_11h27.54.658,VisualSearch_2526_3,,2025.2.4,2026-02-23 11h27.54.862378 +0100,
vertical.xlsx,The target is tilted.,135,4,4,0,1,1,1,1,1,1,1,1,0,0,0,0,0,7,8,135,space,9.594497200000205,None,1,1,1.0835511999998744,None,space,1.5204785000000811,None,0,0,0,1,,,,,0,4,4,1,84.2959436000001,,,,,,,,,,,,,,,,,,,,,84.28044019999993,84.2959436000001,84.80238329999997,84.77984089999995,84.78514160000009,84.80238329999997,85.89639069999998,,,,,85.89658340000005,85.91195620000008,86.11244910000005,86.09605390000002,,,,,,,,1,1,1.0835511999998744,None,,,,,,,,809,21,M,R,2026-02-23_11h27.54.658,VisualSearch_2526_3,,2025.2.4,2026-02-23 11h27.54.862378 +0100,
vertical.xlsx,The target is tilted.,135,5,5,0,0,1,1,1,0,0,0,0,0,0,0,0,1,3,4,135,space,9.594497200000205,None,0,1,0.8226696000001539,None,space,1.5204785000000811,None,0,0,0,1,,,,,0,5,5,6,86.11244910000005,,,,,,,,,,,,,,,,,,,,,86.09691190000012,86.11244910000005,86.61846689999993,86.5959772000001,86.60081590000004,86.61846689999993,87.44599740000012,,,,,87.44612890000008,87.46160349999991,87.66226690000008,87.64605000000006,,,,,,,,0,1,0.8226696000001539,None,,,,,,,,809,21,M,R,2026-02-23_11h27.54.658,VisualSearch_2526_3,,2025.2.4,2026-02-23 11h27.54.862378 +0100,
vertical.xlsx,The target is tilted.,135,6,6,0,0,0,0,0,0,0,0,0,0,0,0,0,1,1,1,135,space,9.594497200000205,None,0,1,0.580488399999922,None,space,1.5204785000000811,None,0,0,0,1,,,,,0,6,6,7,87.66226690000008,,,,,,,,,,,,,,,,,,,,,87.64678580000009,87.66226690000008,88.16195289999996,88.14556119999997,88.14749350000011,88.16195289999996,88.7459116,,,,,88.74607919999994,88.76146999999992,88.96201700000006,88.9457483000001,,,,,,,,0,1,0.580488399999922,None,,,,,,,,809,21,M,R,2026-02-23_11h27.54.658,VisualSearch_2526_3,,2025.2.4,2026-02-23 11h27.54.862378 +0100,
vertical.xlsx,The target is tilted.,135,7,7,0,1,1,1,1,0,0,0,0,0,0,0,0,0,3,4,135,space,9.594497200000205,None,1,1,0.7351069000001189,None,space,1.5204785000000811,None,0,0,0,1,,,,,0,7,7,2,88.96201700000006,,,,,,,,,,,,,,,,,,,,,88.94651049999993,88.96201700000006,89.46310740000013,89.44543999999996,89.45023399999991,89.46310740000013,90.21236090000002,,,,,90.21256480000011,90.22795339999993,90.4283289,90.41255810000007,,,,,,,,1,1,0.7351069000001189,None,,,,,,,,809,21,M,R,2026-02-23_11h27.54.658,VisualSearch_2526_3,,2025.2.4,2026-02-23 11h27.54.862378 +0100,
vertical.xlsx,The target is tilted.,135,8,0,1,1,1,1,1,1,1,1,1,0,0,0,0,0,7,8,135,space,9.594497200000205,None,0,0,2.35527379999985,None,space,1.5204785000000811,None,0,0,0,1,,,,,1,0,8,1,90.4283289,,,,,,,,,,,,,,,,,,,,,90.41351239999995,90.4283289,90.9335364000001,90.91227219999996,90.91715320000003,90.9335364000001,93.2950350000001,,,,,93.29513190000011,93.31052649999992,93.51106959999993,93.49471010000002,,,,,,,,0,0,2.35527379999985,None,,,,,,,,809,21,M,R,2026-02-23_11h27.54.658,VisualSearch_2526_3,,2025.2.4,2026-02-23 11h27.54.862378 +0100,
vertical.xlsx,The target is tilted.,135,9,1,1,0,1,1,1,1,1,1,1,1,1,1,1,1,11,12,135,space,9.594497200000205,None,0,1,2.3491911000000982,None,space,1.5204785000000811,None,0,0,0,1,,,,,1,1,9,4,93.51106959999993,,,,,,,,,,,,,,,,,,,,,93.49545719999992,93.51106959999993,94.0153464,93.99512759999993,93.99995650000005,94.0153464,96.37818919999995,,,,,96.37839650000001,96.39376760000005,96.5942563000001,96.57797669999991,,,,,,,,0,1,2.3491911000000982,None,,,,,,,,809,21,M,R,2026-02-23_11h27.54.658,VisualSearch_2526_3,,2025.2.4,2026-02-23 11h27.54.862378 +0100,
vertical.xlsx,The target is tilted.,135,10,2,1,1,0,0,0,0,0,0,0,0,0,0,0,0,0,1,135,space,9.594497200000205,None,1,1,0.4886189999999715,None,space,1.5204785000000811,None,0,0,0,1,,,,,1,2,10,3,96.5942563000001,,,,,,,,,,,,,,,,,,,,,96.57879789999993,96.5942563000001,97.09805559999995,97.0775443,97.08228609999992,97.09805559999995,97.59485250000012,,,,,97.59505970000009,97.61024330000009,97.81056880000006,97.79446129999997,,,,,,,,1,1,0.4886189999999715,None,,,,,,,,809,21,M,R,2026-02-23_11h27.54.658,VisualSearch_2526_3,,2025.2.4,2026-02-23 11h27.54.862378 +0100,
vertical.xlsx,The target is tilted.,135,11,3,1,1,1,1,1,0,0,0,0,0,0,0,0,0,3,4,135,space,9.594497200000205,None,1,1,0.6671453999999812,None,space,1.5204785000000811,None,0,0,0,1,,,,,1,3,11,2,97.81056880000006,,,,,,,,,,,,,,,,,,,,,97.7952302000001,97.81056880000006,98.31465099999991,98.29446260000009,98.29924570000003,98.31465099999991,98.99395890000005,,,,,98.99409889999993,99.00993050000011,99.21036929999991,99.19398730000012,,,,,,,,1,1,0.6671453999999812,None,,,,,,,,809,21,M,R,2026-02-23_11h27.54.658,VisualSearch_2526_3,,2025.2.4,2026-02-23 11h27.54.862378 +0100,
vertical.xlsx,The target is tilted.,135,12,4,1,1,1,1,1,1,1,1,1,1,1,1,1,0,11,12,135,space,9.594497200000205,None,1,1,0.8361045999999988,None,space,1.5204785000000811,None,0,0,0,1,,,,,1,4,12,0,99.21036929999991,,,,,,,,,,,,,,,,,,,,,99.19473169999992,99.21036929999991,99.71514890000003,99.6942838,99.69903999999997,99.71514890000003,100.56024309999998,,,,,100.56032340000002,100.57623779999994,,100.76070679999998,,,,,,,,1,1,0.8361045999999988,None,,,,,,,,809,21,M,R,2026-02-23_11h27.54.658,VisualSearch_2526_3,,2025.2.4,2026-02-23 11h27.54.862378 +0100,
vertical.xlsx,The target is tilted.,135,13,5,1,0,1,1,1,1,1,1,1,0,0,0,0,1,7,8,135,space,9.594497200000205,None,0,1,1.4839570999999978,None,space,1.5204785000000811,None,0,0,0,1,,,,,1,5,13,5,100.77672959999995,,,,,,,,,,,,,,,,,,,,,100.76169260000006,100.77672959999995,,101.26048259999993,101.26536910000004,101.28064880000011,102.77686130000006,,,,,102.77695549999999,102.79251799999997,102.99328480000008,102.97712520000005,,,,,,,,0,1,1.4839570999999978,None,,,,,,,,809,21,M,R,2026-02-23_11h27.54.658,VisualSearch_2526_3,,2025.2.4,2026-02-23 11h27.54.862378 +0100,
vertical.xlsx,The target is tilted.,135,14,6,1,0,1,1,1,0,0,0,0,0,0,0,0,1,3,4,135,space,9.594497200000205,None,0,1,0.8195130000001427,None,space,1.5204785000000811,None,0,0,0,1,,,,,1,6,14,6,102.99328480000008,,,,,,,,,,,,,,,,,,,,,102.9778976,102.99328480000008,103.49642530000006,103.47704820000013,103.48190909999994,103.49642530000006,104.32735709999997,,,,,104.32754049999994,104.34256619999996,104.54275299999995,104.52659659999995,,,,,,,,0,1,0.8195130000001427,None,,,,,,,,809,21,M,R,2026-02-23_11h27.54.658,VisualSearch_2526_3,,2025.2.4,2026-02-23 11h27.54.862378 +0100,
vertical.xlsx,The target is tilted.,135,15,7,1,0,0,0,0,0,0,0,0,0,0,0,0,1,1,1,135,space,9.594497200000205,None,0,1,0.46147560000008525,None,space,1.5204785000000811,None,0,0,0,1,,,,,1,7,15,7,104.54275299999995,,,,,,,,,,,,,,,,,,,,,104.52731119999999,104.54275299999995,105.04637049999997,105.02634899999998,105.03106200000002,105.04637049999997,105.51071980000006,,,,,105.51097010000012,105.52571480000006,105.72614670000007,105.70972140000003,,,,,,,,0,1,0.46147560000008525,None,,,,,,,,809,21,M,R,2026-02-23_11h27.54.658,VisualSearch_2526_3,,2025.2.4,2026-02-23 11h27.54.862378 +0100,
vertical.xlsx,The target is tilted.,135,16,0,2,0,1,1,1,1,1,1,1,1,1,1,1,1,11,12,135,space,9.594497200000205,None,0,1,2.3476848999998765,None,space,1.5204785000000811,None,0,0,0,1,,,,,2,0,16,4,105.72614670000007,,,,,,,,,,,,,,,,,,,,,105.71046260000003,105.72614670000007,106.23065079999992,106.21011229999999,106.21523679999996,106.23065079999992,108.59306300000003,,,,,108.59326970000006,108.60860430000002,108.80908290000002,108.79286879999995,,,,,,,,0,1,2.3476848999998765,None,,,,,,,,809,21,M,R,2026-02-23_11h27.54.658,VisualSearch_2526_3,,2025.2.4,2026-02-23 11h27.54.862378 +0100,
vertical.xlsx,The target is tilted.,135,17,1,2,1,0,0,0,0,0,0,0,0,0,0,0,0,0,1,135,space,9.594497200000205,None,1,1,0.5204942000000301,None,space,1.5204785000000811,None,0,0,0,1,,,,,2,1,17,3,108.80908290000002,,,,,,,,,,,,,,,,,,,,,108.79364510000005,108.80908290000002,109.30981840000004,109.29269980000004,109.29708619999997,109.30981840000004,109.84290899999996,,,,,109.84304980000002,109.85839060000012,110.05883339999991,110.04271339999991,,,,,,,,1,1,0.5204942000000301,None,,,,,,,,809,21,M,R,2026-02-23_11h27.54.658,VisualSearch_2526_3,,2025.2.4,2026-02-23 11h27.54.862378 +0100,
vertical.xlsx,The target is tilted.,135,18,2,2,0,1,1,1,1,1,1,1,0,0,0,0,1,7,8,135,space,9.594497200000205,None,0,1,1.2306594999997742,None,space,1.5204785000000811,None,0,0,0,1,,,,,2,2,18,5,110.05883339999991,,,,,,,,,,,,,,,,,,,,,110.04347460000008,110.05883339999991,110.56333309999991,110.54273760000001,110.54748380000001,110.56333309999991,111.8087779,,,,,111.80892420000009,111.82471549999991,112.02493400000003,112.00905979999993,,,,,,,,0,1,1.2306594999997742,None,,,,,,,,809,21,M,R,2026-02-23_11h27.54.658,VisualSearch_2526_3,,2025.2.4,2026-02-23 11h27.54.862378 +0100,
vertical.xlsx,The target is tilted.,135,19,3,2,0,0,0,0,0,0,0,0,0,0,0,0,1,1,1,135,space,9.594497200000205,None,0,1,0.5656062000000475,None,space,1.5204785000000811,None,0,0,0,1,,,,,2,3,19,7,112.02493400000003,,,,,,,,,,,,,,,,,,,,,112.00983210000004,112.02493400000003,112.52864520000003,112.50909660000002,112.5138437999999,112.52864520000003,113.10905070000013,,,,,113.10925100000009,113.12465939999993,113.32505859999992,113.30861469999991,,,,,,,,0,1,0.5656062000000475,None,,,,,,,,809,21,M,R,2026-02-23_11h27.54.658,VisualSearch_2526_3,,2025.2.4,2026-02-23 11h27.54.862378 +0100,
vertical.xlsx,The target is tilted.,135,20,4,2,1,1,1,1,0,0,0,0,0,0,0,0,0,3,4,135,space,9.594497200000205,None,1,1,0.7846720000000005,None,space,1.5204785000000811,None,0,0,0,1,,,,,2,4,20,2,113.32505859999992,,,,,,,,,,,,,,,,,,,,,113.30935849999992,113.32505859999992,113.82712190000007,113.80889090000005,113.81374959999994,113.82712190000007,114.62565169999993,,,,,114.62585319999994,114.64112440000008,114.84128460000011,114.82528789999992,,,,,,,,1,1,0.7846720000000005,None,,,,,,,,809,21,M,R,2026-02-23_11h27.54.658,VisualSearch_2526_3,,2025.2.4,2026-02-23 11h27.54.862378 +0100,
vertical.xlsx,The target is tilted.,135,21,5,2,1,1,1,1,1,1,1,1,0,0,0,0,0,7,8,135,space,9.594497200000205,None,1,1,0.9463915999999699,None,space,1.5204785000000811,None,0,0,0,1,,,,,2,5,21,1,114.84128460000011,,,,,,,,,,,,,,,,,,,,,114.82602870000005,114.84128460000011,115.3457284000001,115.32529619999991,115.33017519999999,115.3457284000001,116.30893579999997,,,,,116.30915240000013,116.32407160000002,116.52451420000011,116.50851949999992,,,,,,,,1,1,0.9463915999999699,None,,,,,,,,809,21,M,R,2026-02-23_11h27.54.658,VisualSearch_2526_3,,2025.2.4,2026-02-23 11h27.54.862378 +0100,
vertical.xlsx,The target is tilted.,135,22,6,2,0,1,1,1,0,0,0,0,0,0,0,0,1,3,4,135,space,9.594497200000205,None,0,1,0.9599137000000155,None,space,1.5204785000000811,None,0,0,0,1,,,,,2,6,22,6,116.52451420000011,,,,,,,,,,,,,,,,,,,,,116.50924809999992,116.52451420000011,117.02958230000013,117.00839719999999,117.01344930000005,117.02958230000013,117.99156149999999,,,,,117.99166609999997,118.00695050000013,118.20777249999992,118.19155969999997,,,,,,,,0,1,0.9599137000000155,None,,,,,,,,809,21,M,R,2026-02-23_11h27.54.658,VisualSearch_2526_3,,2025.2.4,2026-02-23 11h27.54.862378 +0100,
vertical.xlsx,The target is tilted.,135,23,7,2,1,1,1,1,1,1,1,1,1,1,1,1,0,11,12,135,space,9.594497200000205,None,1,1,0.9454796999998507,None,space,1.5204785000000811,None,0,0,0,1,,,,,2,7,23,0,118.20777249999992,,,,,,,,,,,,,,,,,,,,,118.19236210000008,118.20777249999992,118.71077570000011,118.6911755000001,118.69595640000011,118.71077570000011,119.65807229999996,,,,,119.65821110000002,119.67367839999997,119.87389510000003,119.85770969999999,,,,,,,,1,1,0.9454796999998507,None,,,,,,,,809,21,M,R,2026-02-23_11h27.54.658,VisualSearch_2526_3,,2025.2.4,2026-02-23 11h27.54.862378 +0100,
vertical.xlsx,The target is tilted.,135,24,0,3,1,1,1,1,0,0,0,0,0,0,0,0,0,3,4,135,space,9.594497200000205,None,1,1,0.6415037000001576,None,space,1.5204785000000811,None,0,0,0,1,,,,,3,0,24,2,119.87389510000003,,,,,,,,,,,,,,,,,,,,,119.85848099999998,119.87389510000003,120.38031290000004,120.35792540000011,120.36273359999996,120.38031290000004,121.02475520000007,,,,,121.02494840000008,121.04007230000002,121.24075999999991,121.22449630000006,,,,,,,,1,1,0.6415037000001576,None,,,,,,,,809,21,M,R,2026-02-23_11h27.54.658,VisualSearch_2526_3,,2025.2.4,2026-02-23 11h27.54.862378 +0100,
vertical.xlsx,The target is tilted.,135,25,1,3,0,1,1,1,1,1,1,1,0,0,0,0,1,7,8,135,space,9.594497200000205,None,0,1,1.5801137000000836,None,space,1.5204785000000811,None,0,0,0,1,,,,,3,1,25,5,121.24075999999991,,,,,,,,,,,,,,,,,,,,,121.22521290000009,121.24075999999991,121.74784249999993,121.72448430000009,121.72939240000005,121.74784249999993,123.34092280000004,,,,,123.34107339999991,123.35648480000009,123.5568816,123.54047700000001,,,,,,,,0,1,1.5801137000000836,None,,,,,,,,809,21,M,R,2026-02-23_11h27.54.658,VisualSearch_2526_3,,2025.2.4,2026-02-23 11h27.54.862378 +0100,
vertical.xlsx,The target is tilted.,135,26,2,3,1,0,0,0,0,0,0,0,0,0,0,0,0,0,1,135,space,9.594497200000205,None,1,1,0.5142623000001549,None,space,1.5204785000000811,None,0,0,0,1,,,,,3,2,26,3,123.5568816,,,,,,,,,,,,,,,,,,,,,123.54090010000004,123.5568816,124.05674679999993,124.04038880000007,124.04504210000005,124.05674679999993,124.5737739000001,,,,,124.57386969999993,124.5894032000001,124.79013069999996,124.77406369999994,,,,,,,,1,1,0.5142623000001549,None,,,,,,,,809,21,M,R,2026-02-23_11h27.54.658,VisualSearch_2526_3,,2025.2.4,2026-02-23 11h27.54.862378 +0100,
vertical.xlsx,The target is tilted.,135,27,3,3,1,1,1,1,1,1,1,1,1,1,1,1,0,11,12,135,space,9.594497200000205,None,1,1,0.9488893999998709,None,space,1.5204785000000811,None,0,0,0,1,,,,,3,3,27,0,124.79013069999996,,,,,,,,,,,,,,,,,,,,,124.77479629999993,124.79013069999996,125.29376049999996,125.27374490000011,125.2785057000001,125.29376049999996,126.25712790000011,,,,,126.25733319999995,126.2727774,126.47316589999991,126.45675619999997,,,,,,,,1,1,0.9488893999998709,None,,,,,,,,809,21,M,R,2026-02-23_11h27.54.658,VisualSearch_2526_3,,2025.2.4,2026-02-23 11h27.54.862378 +0100,
vertical.xlsx,The target is tilted.,135,28,4,3,0,1,1,1,0,0,0,0,0,0,0,0,1,3,4,135,space,9.594497200000205,None,0,1,0.9452058000001671,None,space,1.5204785000000811,None,0,0,0,1,,,,,3,4,28,6,126.47316589999991,,,,,,,,,,,,,,,,,,,,,126.45749619999992,126.47316589999991,126.97927630000004,126.95698160000006,126.96181939999997,126.97927630000004,127.93984010000008,,,,,127.93998450000004,127.95604000000003,128.15608120000002,128.1401522000001,,,,,,,,0,1,0.9452058000001671,None,,,,,,,,809,21,M,R,2026-02-23_11h27.54.658,VisualSearch_2526_3,,2025.2.4,2026-02-23 11h27.54.862378 +0100,
vertical.xlsx,The target is tilted.,135,29,5,3,0,0,0,0,0,0,0,0,0,0,0,0,1,1,1,135,space,9.594497200000205,None,0,1,0.6073484999999437,None,space,1.5204785000000811,None,0,0,0,1,,,,,3,5,29,7,128.15608120000002,,,,,,,,,,,,,,,,,,,,,128.14086769999994,128.15608120000002,128.66113459999997,128.64011030000006,128.6449130000001,128.66113459999997,129.27388610000003,,,,,129.27408650000007,129.28878129999998,129.48942740000007,129.47353569999996,,,,,,,,0,1,0.6073484999999437,None,,,,,,,,809,21,M,R,2026-02-23_11h27.54.658,VisualSearch_2526_3,,2025.2.4,2026-02-23 11h27.54.862378 +0100,
vertical.xlsx,The target is tilted.,135,30,6,3,0,1,1,1,1,1,1,1,1,1,1,1,1,11,12,135,space,9.594497200000205,None,0,1,1.638965300000109,None,space,1.5204785000000811,None,0,0,0,1,,,,,3,6,30,4,129.48942740000007,,,,,,,,,,,,,,,,,,,,,129.47425040000007,129.48942740000007,129.99375110000005,129.97294269999998,129.97769949999997,129.99375110000005,131.6400238000001,,,,,131.64022909999994,131.65535849999992,131.8556433000001,131.83959890000006,,,,,,,,0,1,1.638965300000109,None,,,,,,,,809,21,M,R,2026-02-23_11h27.54.658,VisualSearch_2526_3,,2025.2.4,2026-02-23 11h27.54.862378 +0100,
vertical.xlsx,The target is tilted.,135,31,7,3,1,1,1,1,1,1,1,1,0,0,0,0,0,7,8,135,space,9.594497200000205,None,1,1,0.7636377999999695,None,space,1.5204785000000811,None,0,0,0,1,,,,,3,7,31,1,131.8556433000001,,,,,,,,,,,,,,,,,,,,,131.84041520000005,131.8556433000001,132.35936809999998,132.33948310000005,132.3443150999999,132.35936809999998,133.13930019999998,,,,,133.13951580000003,133.1549339999999,133.35518700000011,133.33933810000008,,,,,,,,1,1,0.7636377999999695,None,,,,,,,,809,21,M,R,2026-02-23_11h27.54.658,VisualSearch_2526_3,,2025.2.4,2026-02-23 11h27.54.862378 +0100,
vertical.xlsx,The target is tilted.,135,32,0,4,1,1,1,1,1,1,1,1,1,1,1,1,0,11,12,135,space,9.594497200000205,None,1,1,0.7766377000000375,None,space,1.5204785000000811,None,0,0,0,1,,,,,4,0,32,0,133.35518700000011,,,,,,,,,,,,,,,,,,,,,133.34012299999995,133.35518700000011,133.85995219999995,133.83943539999996,133.844243,133.85995219999995,134.63939630000004,,,,,134.63955929999997,134.6546639999999,134.8549571000001,134.83896219999997,,,,,,,,1,1,0.7766377000000375,None,,,,,,,,809,21,M,R,2026-02-23_11h27.54.658,VisualSearch_2526_3,,2025.2.4,2026-02-23 11h27.54.862378 +0100,
vertical.xlsx,The target is tilted.,135,33,1,4,0,1,1,1,0,0,0,0,0,0,0,0,1,3,4,135,space,9.594497200000205,None,0,1,0.7540445999998155,None,space,1.5204785000000811,None,0,0,0,1,,,,,4,1,33,6,134.8549571000001,,,,,,,,,,,,,,,,,,,,,134.83971459999998,134.8549571000001,135.3592225,135.3391415000001,135.34399630000007,135.3592225,136.12307280000005,,,,,136.1232672000001,136.13788180000006,136.3383796999999,136.3219841,,,,,,,,0,1,0.7540445999998155,None,,,,,,,,809,21,M,R,2026-02-23_11h27.54.658,VisualSearch_2526_3,,2025.2.4,2026-02-23 11h27.54.862378 +0100,
vertical.xlsx,The target is tilted.,135,34,2,4,1,1,1,1,0,0,0,0,0,0,0,0,0,3,4,135,space,9.594497200000205,None,1,1,0.9365267999999105,None,space,1.5204785000000811,None,0,0,0,1,,,,,4,2,34,2,136.3383796999999,,,,,,,,,,,,,,,,,,,,,136.3227306000001,136.3383796999999,136.83796340000004,136.82219110000005,136.82690690000004,136.83796340000004,137.78815559999998,,,,,137.78828709999993,137.80463559999998,,137.98865490000003,,,,,,,,1,1,0.9365267999999105,None,,,,,,,,809,21,M,R,2026-02-23_11h27.54.658,VisualSearch_2526_3,,2025.2.4,2026-02-23 11h27.54.862378 +0100,
vertical.xlsx,The target is tilted.,135,35,3,4,1,0,0,0,0,0,0,0,0,0,0,0,0,0,1,135,space,9.594497200000205,None,1,1,0.5505910999997923,None,space,1.5204785000000811,None,0,0,0,1,,,,,4,3,35,3,138.0046135,,,,,,,,,,,,,,,,,,,,,137.98947550000003,138.0046135,,138.48846589999994,138.4933734000001,138.50919820000013,139.07200379999995,,,,,139.07220499999994,139.0876128,139.28797370000007,139.2717834,,,,,,,,1,1,0.5505910999997923,None,,,,,,,,809,21,M,R,2026-02-23_11h27.54.658,VisualSearch_2526_3,,2025.2.4,2026-02-23 11h27.54.862378 +0100,
vertical.xlsx,The target is tilted.,135,36,4,4,0,0,0,0,0,0,0,0,0,0,0,0,1,1,1,135,space,9.594497200000205,None,0,1,0.5147646999998869,None,space,1.5204785000000811,None,0,0,0,1,,,,,4,4,36,7,139.28797370000007,,,,,,,,,,,,,,,,,,,,,139.27257140000006,139.28797370000007,139.79057590000002,139.77174730000002,139.7765918,139.79057590000002,140.32112060000009,,,,,140.32123460000003,140.33773859999997,,140.5215415,,,,,,,,0,1,0.5147646999998869,None,,,,,,,,809,21,M,R,2026-02-23_11h27.54.658,VisualSearch_2526_3,,2025.2.4,2026-02-23 11h27.54.862378 +0100,
vertical.xlsx,The target is tilted.,135,37,5,4,0,1,1,1,1,1,1,1,0,0,0,0,1,7,8,135,space,9.594497200000205,None,0,1,1.3266449000000193,None,space,1.5204785000000811,None,0,0,0,1,,,,,4,5,37,5,140.5377370000001,,,,,,,,,,,,,,,,,,,,,140.52232589999994,140.5377370000001,,141.021477,141.02633500000002,141.0434798000001,142.37205130000007,,,,,142.3722805,142.3870406000001,142.58741140000006,142.57084170000007,,,,,,,,0,1,1.3266449000000193,None,,,,,,,,809,21,M,R,2026-02-23_11h27.54.658,VisualSearch_2526_3,,2025.2.4,2026-02-23 11h27.54.862378 +0100,
vertical.xlsx,The target is tilted.,135,38,6,4,0,1,1,1,1,1,1,1,1,1,1,1,1,11,12,135,space,9.594497200000205,None,0,1,1.551367300000038,None,space,1.5204785000000811,None,0,0,0,1,,,,,4,6,38,4,142.58741140000006,,,,,,,,,,,,,,,,,,,,,142.5713985,142.58741140000006,143.09181430000012,143.07143259999998,143.0762549000001,143.09181430000012,144.65517950000003,,,,,144.65539609999996,144.67013100000008,144.8706059000001,144.85441300000002,,,,,,,,0,1,1.551367300000038,None,,,,,,,,809,21,M,R,2026-02-23_11h27.54.658,VisualSearch_2526_3,,2025.2.4,2026-02-23 11h27.54.862378 +0100,
vertical.xlsx,The target is tilted.,135,39,7,4,1,1,1,1,1,1,1,1,0,0,0,0,0,7,8,135,space,9.594497200000205,None,1,1,1.2438280000001214,None,space,1.5204785000000811,None,0,0,0,1,,,,,4,7,39,1,144.8706059000001,,,,,,,,,,,,,,,,,,,,,144.8551777,144.8706059000001,145.37403569999992,145.3544440999999,145.35925220000013,145.37403569999992,146.62082140000007,,,,,146.62097730000005,146.63623669999993,146.83694519999995,146.8208466000001,,,,,,,,1,1,1.2438280000001214,None,,,,,,,,809,21,M,R,2026-02-23_11h27.54.658,VisualSearch_2526_3,,2025.2.4,2026-02-23 11h27.54.862378 +0100,
vertical.xlsx,The target is tilted.,135,40,0,5,1,0,0,0,0,0,0,0,0,0,0,0,0,0,1,135,space,9.594497200000205,None,1,1,0.49900189999993927,None,space,1.5204785000000811,None,0,0,0,1,,,,,5,0,40,3,146.83694519999995,,,,,,,,,,,,,,,,,,,,,146.82160019999992,146.83694519999995,147.34048959999996,147.32077290000007,147.32560630000012,147.34048959999996,147.85360360000004,,,,,147.8537457,147.86957030000008,148.06976710000004,148.0536626999999,,,,,,,,1,1,0.49900189999993927,None,,,,,,,,809,21,M,R,2026-02-23_11h27.54.658,VisualSearch_2526_3,,2025.2.4,2026-02-23 11h27.54.862378 +0100,
vertical.xlsx,The target is tilted.,135,41,1,5,0,0,0,0,0,0,0,0,0,0,0,0,1,1,1,135,space,9.594497200000205,None,0,1,0.5757039999998597,None,space,1.5204785000000811,None,0,0,0,1,,,,,5,1,41,7,148.06976710000004,,,,,,,,,,,,,,,,,,,,,148.0544218,148.06976710000004,148.5742932999999,148.55412589999992,148.55955289999997,148.5742932999999,149.1537734000001,,,,,149.15397559999997,149.16945959999998,149.36999070000002,149.35381499999994,,,,,,,,0,1,0.5757039999998597,None,,,,,,,,809,21,M,R,2026-02-23_11h27.54.658,VisualSearch_2526_3,,2025.2.4,2026-02-23 11h27.54.862378 +0100,
vertical.xlsx,The target is tilted.,135,42,2,5,0,1,1,1,1,1,1,1,0,0,0,0,1,7,8,135,space,9.594497200000205,None,0,1,1.3997911999999815,None,space,1.5204785000000811,None,0,0,0,1,,,,,5,2,42,5,149.36999070000002,,,,,,,,,,,,,,,,,,,,,149.35455070000012,149.36999070000002,149.87276300000008,149.8538036,149.85874190000004,149.87276300000008,151.28695040000002,,,,,151.28715349999993,151.3026949,151.50286400000005,151.48689020000006,,,,,,,,0,1,1.3997911999999815,None,,,,,,,,809,21,M,R,2026-02-23_11h27.54.658,VisualSearch_2526_3,,2025.2.4,2026-02-23 11h27.54.862378 +0100,
vertical.xlsx,The target is tilted.,135,43,3,5,1,1,1,1,1,1,1,1,1,1,1,1,0,11,12,135,space,9.594497200000205,None,1,1,0.9451229000001149,None,space,1.5204785000000811,None,0,0,0,1,,,,,5,3,43,0,151.50286400000005,,,,,,,,,,,,,,,,,,,,,151.4876124,151.50286400000005,152.0073440000001,151.9867283000001,151.99162320000005,152.0073440000001,152.9540141,,,,,152.9542282,152.9688576000001,153.16937940000003,153.1533426000001,,,,,,,,1,1,0.9451229000001149,None,,,,,,,,809,21,M,R,2026-02-23_11h27.54.658,VisualSearch_2526_3,,2025.2.4,2026-02-23 11h27.54.862378 +0100,
vertical.xlsx,The target is tilted.,135,44,4,5,1,1,1,1,1,1,1,1,0,0,0,0,0,7,8,135,space,9.594497200000205,None,1,1,0.7796064000001479,None,space,1.5204785000000811,None,0,0,0,1,,,,,5,4,44,1,153.16937940000003,,,,,,,,,,,,,,,,,,,,,153.15408120000006,153.16937940000003,153.67375029999994,153.65288650000002,153.65778060000002,153.67375029999994,154.4690339000001,,,,,154.4691279000001,154.48558159999993,,154.66947320000008,,,,,,,,1,1,0.7796064000001479,None,,,,,,,,809,21,M,R,2026-02-23_11h27.54.658,VisualSearch_2526_3,,2025.2.4,2026-02-23 11h27.54.862378 +0100,
vertical.xlsx,The target is tilted.,135,45,5,5,1,1,1,1,0,0,0,0,0,0,0,0,0,3,4,135,space,9.594497200000205,None,1,1,0.7210504999998193,None,space,1.5204785000000811,None,0,0,0,1,,,,,5,5,45,2,154.68571180000004,,,,,,,,,,,,,,,,,,,,,154.67028759999994,154.68571180000004,,155.16937110000003,155.1742346000001,155.18961059999992,155.92019219999997,,,,,155.9204368999999,155.9352182,156.1355473000001,156.11911250000003,,,,,,,,1,1,0.7210504999998193,None,,,,,,,,809,21,M,R,2026-02-23_11h27.54.658,VisualSearch_2526_3,,2025.2.4,2026-02-23 11h27.54.862378 +0100,
vertical.xlsx,The target is tilted.,135,46,6,5,0,1,1,1,1,1,1,1,1,1,1,1,1,11,12,135,space,9.594497200000205,None,0,1,1.7605958999999984,None,space,1.5204785000000811,None,0,0,0,1,,,,,5,6,46,4,156.1355473000001,,,,,,,,,,,,,,,,,,,,,156.11985010000012,156.1355473000001,156.6374753,156.61942999999997,156.62422800000013,156.6374753,158.40266599999995,,,,,158.4028303,158.41808760000004,158.61863080000012,158.60234760000003,,,,,,,,0,1,1.7605958999999984,None,,,,,,,,809,21,M,R,2026-02-23_11h27.54.658,VisualSearch_2526_3,,2025.2.4,2026-02-23 11h27.54.862378 +0100,
vertical.xlsx,The target is tilted.,135,47,7,5,0,1,1,1,0,0,0,0,0,0,0,0,1,3,4,135,space,9.594497200000205,None,0,1,0.7138944999999239,None,space,1.5204785000000811,None,0,0,0,1,,,,,5,7,47,6,158.61863080000012,,,,,,,,,,,,,,,,,,,,,158.6030892000001,158.61863080000012,159.12259050000011,159.1021499000001,159.10683799999993,159.12259050000011,159.85164179999992,,,,,159.85175879999997,159.8682126000001,,160.0521071999999,,,,,,,,0,1,0.7138944999999239,None,,,,,,,,809,21,M,R,2026-02-23_11h27.54.658,VisualSearch_2526_3,,2025.2.4,2026-02-23 11h27.54.862378 +0100,
vertical.xlsx,The target is tilted.,135,48,0,6,0,1,1,1,0,0,0,0,0,0,0,0,1,3,4,135,space,9.594497200000205,None,0,1,0.6790502999999717,None,space,1.5204785000000811,None,0,0,0,1,,,,,6,0,48,6,160.06845750000002,,,,,,,,,,,,,,,,,,,,,160.05286760000013,160.06845750000002,160.56811919999996,160.5517033000001,160.55386010000007,160.56811919999996,161.25267170000006,,,,,161.25287400000002,161.26777130000005,161.4680902,161.45199000000002,,,,,,,,0,1,0.6790502999999717,None,,,,,,,,809,21,M,R,2026-02-23_11h27.54.658,VisualSearch_2526_3,,2025.2.4,2026-02-23 11h27.54.862378 +0100,
vertical.xlsx,The target is tilted.,135,49,1,6,0,1,1,1,1,1,1,1,0,0,0,0,1,7,8,135,space,9.594497200000205,None,0,1,1.087495600000011,None,space,1.5204785000000811,None,0,0,0,1,,,,,6,1,49,5,161.4680902,,,,,,,,,,,,,,,,,,,,,161.452767,161.4680902,161.96799600000008,161.9515249000001,161.95331349999992,161.96799600000008,163.06836309999994,,,,,163.06849510000006,163.08406560000003,163.2844768,163.26821870000003,,,,,,,,0,1,1.087495600000011,None,,,,,,,,809,21,M,R,2026-02-23_11h27.54.658,VisualSearch_2526_3,,2025.2.4,2026-02-23 11h27.54.862378 +0100,
vertical.xlsx,The target is tilted.,135,50,2,6,1,1,1,1,0,0,0,0,0,0,0,0,0,3,4,135,space,9.594497200000205,None,1,1,1.0053453000000445,None,space,1.5204785000000811,None,0,0,0,1,,,,,6,2,50,2,163.2844768,,,,,,,,,,,,,,,,,,,,,163.26900939999996,163.2844768,163.78958390000003,163.7684263000001,163.77345990000003,163.78958390000003,164.80215240000007,,,,,164.80235420000008,164.81719369999996,165.01769149999996,165.0013993,,,,,,,,1,1,1.0053453000000445,None,,,,,,,,809,21,M,R,2026-02-23_11h27.54.658,VisualSearch_2526_3,,2025.2.4,2026-02-23 11h27.54.862378 +0100,
vertical.xlsx,The target is tilted.,135,51,3,6,0,1,1,1,1,1,1,1,1,1,1,1,1,11,12,135,space,9.594497200000205,None,0,1,2.231657000000041,None,space,1.5204785000000811,None,0,0,0,1,,,,,6,3,51,4,165.01769149999996,,,,,,,,,,,,,,,,,,,,,165.0021749,165.01769149999996,165.52072190000013,165.50108649999993,165.50586629999998,165.52072190000013,167.76789400000007,,,,,167.76810030000001,167.78348030000006,167.98397520000003,167.96776339999997,,,,,,,,0,1,2.231657000000041,None,,,,,,,,809,21,M,R,2026-02-23_11h27.54.658,VisualSearch_2526_3,,2025.2.4,2026-02-23 11h27.54.862378 +0100,
vertical.xlsx,The target is tilted.,135,52,4,6,1,0,0,0,0,0,0,0,0,0,0,0,0,0,1,135,space,9.594497200000205,None,1,1,0.5448288999998567,None,space,1.5204785000000811,None,0,0,0,1,,,,,6,4,52,3,167.98397520000003,,,,,,,,,,,,,,,,,,,,,167.96853060000012,167.98397520000003,168.488738,168.46755129999997,168.47235960000012,168.488738,169.03482710000003,,,,,169.0350284000001,169.0499248000001,169.2504457,169.23437630000012,,,,,,,,1,1,0.5448288999998567,None,,,,,,,,809,21,M,R,2026-02-23_11h27.54.658,VisualSearch_2526_3,,2025.2.4,2026-02-23 11h27.54.862378 +0100,
vertical.xlsx,The target is tilted.,135,53,5,6,1,1,1,1,1,1,1,1,1,1,1,1,0,11,12,135,space,9.594497200000205,None,1,1,1.3322430999999142,None,space,1.5204785000000811,None,0,0,0,1,,,,,6,5,53,0,169.2504457,,,,,,,,,,,,,,,,,,,,,169.23519699999997,169.2504457,169.7568093,169.73447880000003,169.74007110000002,169.7568093,171.10084499999994,,,,,171.1009841,171.11617720000004,171.31678420000003,171.30088840000008,,,,,,,,1,1,1.3322430999999142,None,,,,,,,,809,21,M,R,2026-02-23_11h27.54.658,VisualSearch_2526_3,,2025.2.4,2026-02-23 11h27.54.862378 +0100,
vertical.xlsx,The target is tilted.,135,54,6,6,0,0,0,0,0,0,0,0,0,0,0,0,1,1,1,135,space,9.594497200000205,None,0,1,0.5782332000001134,None,space,1.5204785000000811,None,0,0,0,1,,,,,6,6,54,7,171.31678420000003,,,,,,,,,,,,,,,,,,,,,171.30205890000002,171.31678420000003,171.81955659999994,171.80072029999997,171.80625239999995,171.81955659999994,172.40100510000002,,,,,172.4012259000001,172.41615750000005,172.616262,172.60055609999995,,,,,,,,0,1,0.5782332000001134,None,,,,,,,,809,21,M,R,2026-02-23_11h27.54.658,VisualSearch_2526_3,,2025.2.4,2026-02-23 11h27.54.862378 +0100,
vertical.xlsx,The target is tilted.,135,55,7,6,1,1,1,1,1,1,1,1,0,0,0,0,0,7,8,135,space,9.594497200000205,None,1,1,0.5810412000000724,None,space,1.5204785000000811,None,0,0,0,1,,,,,6,7,55,1,172.616262,,,,,,,,,,,,,,,,,,,,,172.6013723000001,172.616262,173.1222189,173.10055160000002,173.10804080000003,173.1222189,173.71690130000002,,,,,173.71712909999997,173.73251679999998,173.93312500000002,173.91689870000005,,,,,,,,1,1,0.5810412000000724,None,,,,,,,,809,21,M,R,2026-02-23_11h27.54.658,VisualSearch_2526_3,,2025.2.4,2026-02-23 11h27.54.862378 +0100,
vertical.xlsx,The target is tilted.,135,56,0,7,0,1,1,1,1,1,1,1,1,1,1,1,1,11,12,135,space,9.594497200000205,None,0,1,1.927015800000163,None,space,1.5204785000000811,None,0,0,0,1,,,,,7,0,56,4,173.93312500000002,,,,,,,,,,,,,,,,,,,,,173.9177148000001,173.93312500000002,174.4400955000001,174.41677200000004,174.4213987999999,174.4400955000001,176.3838149999999,,,,,176.38403100000005,176.39891850000004,176.59925799999996,176.58294520000004,,,,,,,,0,1,1.927015800000163,None,,,,,,,,809,21,M,R,2026-02-23_11h27.54.658,VisualSearch_2526_3,,2025.2.4,2026-02-23 11h27.54.862378 +0100,
vertical.xlsx,The target is tilted.,135,57,1,7,1,1,1,1,1,1,1,1,0,0,0,0,0,7,8,135,space,9.594497200000205,None,1,1,0.5256213999998636,None,space,1.5204785000000811,None,0,0,0,1,,,,,7,1,57,1,176.59925799999996,,,,,,,,,,,,,,,,,,,,,176.58365690000005,176.59925799999996,177.10395859999994,177.08332309999992,177.0881577,177.10395859999994,177.6334276,,,,,177.63362789999996,177.64873390000002,177.84911910000005,177.8331373000001,,,,,,,,1,1,0.5256213999998636,None,,,,,,,,809,21,M,R,2026-02-23_11h27.54.658,VisualSearch_2526_3,,2025.2.4,2026-02-23 11h27.54.862378 +0100,
vertical.xlsx,The target is tilted.,135,58,2,7,0,1,1,1,0,0,0,0,0,0,0,0,1,3,4,135,space,9.594497200000205,None,0,1,0.920908400000144,None,space,1.5204785000000811,None,0,0,0,1,,,,,7,2,58,6,177.84911910000005,,,,,,,,,,,,,,,,,,,,,177.83387119999998,177.84911910000005,178.3549660000001,178.33306470000002,178.33779120000008,178.3549660000001,179.28299770000012,,,,,179.2831403,179.29827879999993,179.4989554000001,179.4824696999999,,,,,,,,0,1,0.920908400000144,None,,,,,,,,809,21,M,R,2026-02-23_11h27.54.658,VisualSearch_2526_3,,2025.2.4,2026-02-23 11h27.54.862378 +0100,
vertical.xlsx,The target is tilted.,135,59,3,7,0,1,1,1,1,1,1,1,0,0,0,0,1,7,8,135,space,9.594497200000205,None,0,1,1.291881099999955,None,space,1.5204785000000811,None,0,0,0,1,,,,,7,3,59,5,179.4989554000001,,,,,,,,,,,,,,,,,,,,,179.48321650000003,179.4989554000001,180.00329920000013,179.98283519999995,179.9875892,180.00329920000013,181.2995522000001,,,,,181.29976490000013,181.31489979999992,181.51461410000002,181.4983039000001,,,,,,,,0,1,1.291881099999955,None,,,,,,,,809,21,M,R,2026-02-23_11h27.54.658,VisualSearch_2526_3,,2025.2.4,2026-02-23 11h27.54.862378 +0100,
vertical.xlsx,The target is tilted.,135,60,4,7,1,1,1,1,0,0,0,0,0,0,0,0,0,3,4,135,space,9.594497200000205,None,1,1,0.5658139000001938,None,space,1.5204785000000811,None,0,0,0,1,,,,,7,4,60,2,181.51461410000002,,,,,,,,,,,,,,,,,,,,,181.49877880000008,181.51461410000002,182.01982390000012,181.99915540000006,182.00392490000013,182.01982390000012,182.59909659999994,,,,,182.59922359999996,182.6146865999999,182.8148103000001,182.79903130000002,,,,,,,,1,1,0.5658139000001938,None,,,,,,,,809,21,M,R,2026-02-23_11h27.54.658,VisualSearch_2526_3,,2025.2.4,2026-02-23 11h27.54.862378 +0100,
vertical.xlsx,The target is tilted.,135,61,5,7,0,0,0,0,0,0,0,0,0,0,0,0,1,1,1,135,space,9.594497200000205,None,0,1,0.5272654999998849,None,space,1.5204785000000811,None,0,0,0,1,,,,,7,5,61,7,182.8148103000001,,,,,,,,,,,,,,,,,,,,,182.79980969999997,182.8148103000001,183.31480899999997,183.2992357999999,183.3032773,183.31480899999997,183.84907900000007,,,,,183.8492933,183.86439450000012,184.06471570000008,184.04876710000008,,,,,,,,0,1,0.5272654999998849,None,,,,,,,,809,21,M,R,2026-02-23_11h27.54.658,VisualSearch_2526_3,,2025.2.4,2026-02-23 11h27.54.862378 +0100,
vertical.xlsx,The target is tilted.,135,62,6,7,1,0,0,0,0,0,0,0,0,0,0,0,0,0,1,135,space,9.594497200000205,None,1,1,0.6009339999998247,None,space,1.5204785000000811,None,0,0,0,1,,,,,7,6,62,3,184.06471570000008,,,,,,,,,,,,,,,,,,,,,184.04950559999997,184.06471570000008,184.56456460000004,184.54832639999995,184.55066549999992,184.56456460000004,185.18111939999994,,,,,185.1812354000001,185.1979586,,185.38175090000004,,,,,,,,1,1,0.6009339999998247,None,,,,,,,,809,21,M,R,2026-02-23_11h27.54.658,VisualSearch_2526_3,,2025.2.4,2026-02-23 11h27.54.862378 +0100,
vertical.xlsx,The target is tilted.,135,63,7,7,1,1,1,1,1,1,1,1,1,1,1,1,0,11,12,135,space,9.594497200000205,None,1,1,0.5048202000000401,None,space,1.5204785000000811,None,0,0,0,1,,,,,7,7,63,0,185.39809209999999,,,,,,,,,,,,,,,,,,,,,185.38257520000002,185.39809209999999,185.90207110000006,185.88148320000005,185.88645709999992,185.90207110000006,186.41503880000005,,,,,186.41513540000005,186.43053480000003,186.63131410000005,186.6151686999999,,,,,,,,1,1,0.5048202000000401,None,,,,,,,,809,21,M,R,2026-02-23_11h27.54.658,VisualSearch_2526_3,,2025.2.4,2026-02-23 11h27.54.862378 +0100,
vertical.xlsx,The target is tilted.,135,64,0,8,0,0,0,0,0,0,0,0,0,0,0,0,1,1,1,135,space,9.594497200000205,None,0,1,0.5401706999998623,None,space,1.5204785000000811,None,0,0,0,1,,,,,8,0,64,7,186.63131410000005,,,,,,,,,,,,,,,,,,,,,186.61590490000003,186.63131410000005,187.13488929999994,187.11473619999992,187.1196503000001,187.13488929999994,187.6822732999999,,,,,187.68247139999994,187.69730260000006,187.8977665,187.8816217000001,,,,,,,,0,1,0.5401706999998623,None,,,,,,,,809,21,M,R,2026-02-23_11h27.54.658,VisualSearch_2526_3,,2025.2.4,2026-02-23 11h27.54.862378 +0100,
vertical.xlsx,The target is tilted.,135,65,1,8,1,1,1,1,0,0,0,0,0,0,0,0,0,3,4,135,space,9.594497200000205,None,1,1,0.540190100000018,None,space,1.5204785000000811,None,0,0,0,1,,,,,8,1,65,2,187.8977665,,,,,,,,,,,,,,,,,,,,,187.8823414000001,187.8977665,188.40118000000007,188.38133620000008,188.38678849999997,188.40118000000007,188.94824319999998,,,,,188.94841539999993,188.96378249999998,189.16401670000005,189.14802400000008,,,,,,,,1,1,0.540190100000018,None,,,,,,,,809,21,M,R,2026-02-23_11h27.54.658,VisualSearch_2526_3,,2025.2.4,2026-02-23 11h27.54.862378 +0100,
vertical.xlsx,The target is tilted.,135,66,2,8,0,1,1,1,0,0,0,0,0,0,0,0,1,3,4,135,space,9.594497200000205,None,0,1,0.5663060999997924,None,space,1.5204785000000811,None,0,0,0,1,,,,,8,2,66,6,189.16401670000005,,,,,,,,,,,,,,,,,,,,,189.14876329999993,189.16401670000005,189.66926979999994,189.6479885000001,189.65287669999998,189.66926979999994,190.24749880000013,,,,,190.24763499999995,190.26348430000007,190.4637841000001,190.4478749,,,,,,,,0,1,0.5663060999997924,None,,,,,,,,809,21,M,R,2026-02-23_11h27.54.658,VisualSearch_2526_3,,2025.2.4,2026-02-23 11h27.54.862378 +0100,
vertical.xlsx,The target is tilted.,135,67,3,8,1,0,0,0,0,0,0,0,0,0,0,0,0,0,1,135,space,9.594497200000205,None,1,1,0.4776518000001033,None,space,1.5204785000000811,None,0,0,0,1,,,,,8,3,67,3,190.4637841000001,,,,,,,,,,,,,,,,,,,,,190.4487062999999,190.4637841000001,190.96387230000005,190.9478183000001,190.95223669999996,190.96387230000005,191.4482703000001,,,,,191.44846810000013,191.4633957000001,191.66387839999993,191.6477597999999,,,,,,,,1,1,0.4776518000001033,None,,,,,,,,809,21,M,R,2026-02-23_11h27.54.658,VisualSearch_2526_3,,2025.2.4,2026-02-23 11h27.54.862378 +0100,
vertical.xlsx,The target is tilted.,135,68,4,8,1,1,1,1,1,1,1,1,0,0,0,0,0,7,8,135,space,9.594497200000205,None,1,1,0.7895324000000983,None,space,1.5204785000000811,None,0,0,0,1,,,,,8,4,68,1,191.66387839999993,,,,,,,,,,,,,,,,,,,,,191.64854590000004,191.66387839999993,192.16843160000008,192.14779249999992,192.15250519999995,192.16843160000008,192.96426399999996,,,,,192.96439480000004,192.97983210000007,193.18038709999996,193.16412960000002,,,,,,,,1,1,0.7895324000000983,None,,,,,,,,809,21,M,R,2026-02-23_11h27.54.658,VisualSearch_2526_3,,2025.2.4,2026-02-23 11h27.54.862378 +0100,
vertical.xlsx,The target is tilted.,135,69,5,8,0,1,1,1,1,1,1,1,0,0,0,0,1,7,8,135,space,9.594497200000205,None,0,1,1.385135099999843,None,space,1.5204785000000811,None,0,0,0,1,,,,,8,5,69,5,193.18038709999996,,,,,,,,,,,,,,,,,,,,,193.16492119999998,193.18038709999996,193.68357800000013,193.6640178,193.66879280000012,193.68357800000013,195.08126429999993,,,,,195.0814974,195.09627799999998,195.29665790000013,195.28060690000007,,,,,,,,0,1,1.385135099999843,None,,,,,,,,809,21,M,R,2026-02-23_11h27.54.658,VisualSearch_2526_3,,2025.2.4,2026-02-23 11h27.54.862378 +0100,
vertical.xlsx,The target is tilted.,135,70,6,8,0,1,1,1,1,1,1,1,1,1,1,1,1,11,12,135,space,9.594497200000205,None,0,1,1.7928832000000057,None,space,1.5204785000000811,None,0,0,0,1,,,,,8,6,70,4,195.29665790000013,,,,,,,,,,,,,,,,,,,,,195.28137489999995,195.29665790000013,195.8004401999999,195.78045300000008,195.78536400000007,195.8004401999999,197.59684549999997,,,,,197.59700410000005,197.6124666999999,197.81317749999994,197.79705850000005,,,,,,,,0,1,1.7928832000000057,None,,,,,,,,809,21,M,R,2026-02-23_11h27.54.658,VisualSearch_2526_3,,2025.2.4,2026-02-23 11h27.54.862378 +0100,
vertical.xlsx,The target is tilted.,135,71,7,8,1,1,1,1,1,1,1,1,1,1,1,1,0,11,12,135,space,9.594497200000205,None,1,1,2.0899455999999645,None,space,1.5204785000000811,None,0,0,0,1,,,,,8,7,71,0,197.81317749999994,,,,,,,,,,,,,,,,,,,,,197.79784790000008,197.81317749999994,198.31601139999998,198.29673460000004,198.3014323,198.31601139999998,200.4132353,,,,,200.41341179999995,200.42872080000006,200.62928480000005,200.6130685999999,,,,,,,,1,1,2.0899455999999645,None,,,,,,,,809,21,M,R,2026-02-23_11h27.54.658,VisualSearch_2526_3,,2025.2.4,2026-02-23 11h27.54.862378 +0100,
vertical.xlsx,The target is tilted.,135,72,0,9,0,1,1,1,0,0,0,0,0,0,0,0,1,3,4,135,space,9.594497200000205,None,0,1,0.7089753000000201,None,space,1.5204785000000811,None,0,0,0,1,,,,,9,0,72,6,200.62928480000005,,,,,,,,,,,,,,,,,,,,,200.61384969999995,200.62928480000005,201.13315609999995,201.11270919999993,201.1174257,201.13315609999995,201.84688410000012,,,,,201.84719480000012,201.8618633000001,202.0623806000001,202.0461553,,,,,,,,0,1,0.7089753000000201,None,,,,,,,,809,21,M,R,2026-02-23_11h27.54.658,VisualSearch_2526_3,,2025.2.4,2026-02-23 11h27.54.862378 +0100,
vertical.xlsx,The target is tilted.,135,73,1,9,0,1,1,1,1,1,1,1,1,1,1,1,1,11,12,135,space,9.594497200000205,None,0,1,1.8065661999999065,None,space,1.5204785000000811,None,0,0,0,1,,,,,9,1,73,4,202.0623806000001,,,,,,,,,,,,,,,,,,,,,202.04692130000012,202.0623806000001,202.5623799,202.54562149999992,202.54776530000004,202.5623799,204.37985920000006,,,,,204.3800650999999,204.39495890000012,204.5949098000001,204.57862130000012,,,,,,,,0,1,1.8065661999999065,None,,,,,,,,809,21,M,R,2026-02-23_11h27.54.658,VisualSearch_2526_3,,2025.2.4,2026-02-23 11h27.54.862378 +0100,
vertical.xlsx,The target is tilted.,135,74,2,9,1,1,1,1,0,0,0,0,0,0,0,0,0,3,4,135,space,9.594497200000205,None,1,1,0.8058682999999291,None,space,1.5204785000000811,None,0,0,0,1,,,,,9,2,74,2,204.5949098000001,,,,,,,,,,,,,,,,,,,,,204.57900530000006,204.5949098000001,205.09924260000003,205.07917010000006,205.08403799999996,205.09924260000003,205.91287590000002,,,,,205.91308449999997,205.92801099999997,206.12805780000008,206.1120100999999,,,,,,,,1,1,0.8058682999999291,None,,,,,,,,809,21,M,R,2026-02-23_11h27.54.658,VisualSearch_2526_3,,2025.2.4,2026-02-23 11h27.54.862378 +0100,
vertical.xlsx,The target is tilted.,135,75,3,9,1,1,1,1,1,1,1,1,0,0,0,0,0,7,8,135,space,9.594497200000205,None,1,1,0.8101712000000134,None,space,1.5204785000000811,None,0,0,0,1,,,,,9,3,75,1,206.12805780000008,,,,,,,,,,,,,,,,,,,,,206.11274490000005,206.12805780000008,206.63345240000012,206.6122147000001,206.61696269999993,206.63345240000012,207.4457692000001,,,,,207.4459612999999,207.4611665,207.66164879999997,207.6451548,,,,,,,,1,1,0.8101712000000134,None,,,,,,,,809,21,M,R,2026-02-23_11h27.54.658,VisualSearch_2526_3,,2025.2.4,2026-02-23 11h27.54.862378 +0100,
vertical.xlsx,The target is tilted.,135,76,4,9,1,0,0,0,0,0,0,0,0,0,0,0,0,0,1,135,space,9.594497200000205,None,1,1,0.47104399999989255,None,space,1.5204785000000811,None,0,0,0,1,,,,,9,4,76,3,207.66164879999997,,,,,,,,,,,,,,,,,,,,,207.64588419999995,207.66164879999997,208.16531830000008,208.14554470000007,208.1505583999999,208.16531830000008,208.6459155,,,,,208.64611170000012,208.66097020000007,208.86108259999992,208.84519060000002,,,,,,,,1,1,0.47104399999989255,None,,,,,,,,809,21,M,R,2026-02-23_11h27.54.658,VisualSearch_2526_3,,2025.2.4,2026-02-23 11h27.54.862378 +0100,
vertical.xlsx,The target is tilted.,135,77,5,9,0,1,1,1,1,1,1,1,0,0,0,0,1,7,8,135,space,9.594497200000205,None,0,1,1.6301786999999877,None,space,1.5204785000000811,None,0,0,0,1,,,,,9,5,77,5,208.86108259999992,,,,,,,,,,,,,,,,,,,,,208.84595650000006,208.86108259999992,209.3654844,209.34517180000012,209.34986959999992,209.3654844,211.0116668999999,,,,,211.0118612000001,211.0271889999999,211.22777930000007,211.21177430000012,,,,,,,,0,1,1.6301786999999877,None,,,,,,,,809,21,M,R,2026-02-23_11h27.54.658,VisualSearch_2526_3,,2025.2.4,2026-02-23 11h27.54.862378 +0100,
vertical.xlsx,The target is tilted.,135,78,6,9,1,1,1,1,1,1,1,1,1,1,1,1,0,11,12,135,space,9.594497200000205,None,1,1,2.201394500000106,None,space,1.5204785000000811,None,0,0,0,1,,,,,9,6,78,0,211.22777930000007,,,,,,,,,,,,,,,,,,,,,211.21268499999996,211.22777930000007,211.73285370000008,211.71174270000006,211.7171684,211.73285370000008,213.94571459999997,,,,,213.9459091000001,213.96025600000007,214.16059610000002,214.14433099999997,,,,,,,,1,1,2.201394500000106,None,,,,,,,,809,21,M,R,2026-02-23_11h27.54.658,VisualSearch_2526_3,,2025.2.4,2026-02-23 11h27.54.862378 +0100,
vertical.xlsx,The target is tilted.,135,79,7,9,0,0,0,0,0,0,0,0,0,0,0,0,1,1,1,135,space,9.594497200000205,None,0,1,0.6994633000001613,None,space,1.5204785000000811,None,0,0,0,1,,,,,9,7,79,7,214.16059610000002,,,,,,,,,,,,,,,,,,,,,214.14511590000006,214.16059610000002,214.6667084999999,214.64435400000002,214.64900310000007,214.6667084999999,215.3783515,,,,,215.37858540000002,215.39327879999996,215.59370390000004,215.57723779999992,,,,,,,,0,1,0.6994633000001613,None,,,,,,,,809,21,M,R,2026-02-23_11h27.54.658,VisualSearch_2526_3,,2025.2.4,2026-02-23 11h27.54.862378 +0100,
vertical.xlsx,The target is tilted.,135,80,0,10,1,1,1,1,1,1,1,1,1,1,1,1,0,11,12,135,space,9.594497200000205,None,1,1,0.6401287999999568,None,space,1.5204785000000811,None,0,0,0,1,,,,,10,0,80,0,215.59370390000004,,,,,,,,,,,,,,,,,,,,,215.5777263,215.59370390000004,216.09927659999994,216.0776125,216.08233810000002,216.09927659999994,216.74468000000002,,,,,216.74487509999994,216.7597499000001,216.96007340000006,216.9443381000001,,,,,,,,1,1,0.6401287999999568,None,,,,,,,,809,21,M,R,2026-02-23_11h27.54.658,VisualSearch_2526_3,,2025.2.4,2026-02-23 11h27.54.862378 +0100,
vertical.xlsx,The target is tilted.,135,81,1,10,0,1,1,1,0,0,0,0,0,0,0,0,1,3,4,135,space,9.594497200000205,None,0,1,0.7329379999998764,None,space,1.5204785000000811,None,0,0,0,1,,,,,10,1,81,6,216.96007340000006,,,,,,,,,,,,,,,,,,,,,216.94517059999998,216.96007340000006,217.46613120000006,217.44407750000005,217.44879889999993,217.46613120000006,218.21123020000005,,,,,218.21142329999998,218.22627030000012,218.42668359999993,218.41023960000007,,,,,,,,0,1,0.7329379999998764,None,,,,,,,,809,21,M,R,2026-02-23_11h27.54.658,VisualSearch_2526_3,,2025.2.4,2026-02-23 11h27.54.862378 +0100,
vertical.xlsx,The target is tilted.,135,82,2,10,0,1,1,1,1,1,1,1,1,1,1,1,1,11,12,135,space,9.594497200000205,None,0,1,1.6983675000001313,None,space,1.5204785000000811,None,0,0,0,1,,,,,10,2,82,4,218.42668359999993,,,,,,,,,,,,,,,,,,,,,218.4110008,218.42668359999993,218.92595299999994,218.9102401,218.9137857999999,218.92595299999994,220.62760709999998,,,,,220.6278347,220.64262099999996,220.84306330000004,220.8265824,,,,,,,,0,1,1.6983675000001313,None,,,,,,,,809,21,M,R,2026-02-23_11h27.54.658,VisualSearch_2526_3,,2025.2.4,2026-02-23 11h27.54.862378 +0100,
vertical.xlsx,The target is tilted.,135,83,3,10,1,1,1,1,1,1,1,1,0,0,0,0,0,7,8,135,space,9.594497200000205,None,0,0,1.155818199999885,None,space,1.5204785000000811,None,0,0,0,1,,,,,10,3,83,1,220.84306330000004,,,,,,,,,,,,,,,,,,,,,220.82732899999996,220.84306330000004,221.3461476,221.32652299999995,221.33137669999996,221.3461476,222.5107356000001,,,,,222.5114834000001,222.5256382,222.72604279999996,222.7100342000001,,,,,,,,0,0,1.155818199999885,None,,,,,,,,809,21,M,R,2026-02-23_11h27.54.658,VisualSearch_2526_3,,2025.2.4,2026-02-23 11h27.54.862378 +0100,
vertical.xlsx,The target is tilted.,135,84,4,10,0,1,1,1,1,1,1,1,0,0,0,0,1,7,8,135,space,9.594497200000205,None,0,1,1.6673542999999427,None,space,1.5204785000000811,None,0,0,0,1,,,,,10,4,84,5,222.72604279999996,,,,,,,,,,,,,,,,,,,,,222.71078390000002,222.72604279999996,223.2297228,223.20986519999997,223.2146424,223.2297228,224.91010039999992,,,,,224.91027630000008,224.92552330000012,225.1257389,225.10991839999997,,,,,,,,0,1,1.6673542999999427,None,,,,,,,,809,21,M,R,2026-02-23_11h27.54.658,VisualSearch_2526_3,,2025.2.4,2026-02-23 11h27.54.862378 +0100,
vertical.xlsx,The target is tilted.,135,85,5,10,1,1,1,1,0,0,0,0,0,0,0,0,0,3,4,135,space,9.594497200000205,None,1,1,0.6660985000000892,None,space,1.5204785000000811,None,0,0,0,1,,,,,10,5,85,2,225.1257389,,,,,,,,,,,,,,,,,,,,,225.11074550000012,225.1257389,225.629821,225.6095061000001,225.61420399999997,225.629821,226.30948990000002,,,,,226.30960920000007,226.32529909999994,226.5254233999999,226.50949349999996,,,,,,,,1,1,0.6660985000000892,None,,,,,,,,809,21,M,R,2026-02-23_11h27.54.658,VisualSearch_2526_3,,2025.2.4,2026-02-23 11h27.54.862378 +0100,
vertical.xlsx,The target is tilted.,135,86,6,10,1,0,0,0,0,0,0,0,0,0,0,0,0,0,1,135,space,9.594497200000205,None,1,1,0.582076299999926,None,space,1.5204785000000811,None,0,0,0,1,,,,,10,6,86,3,226.5254233999999,,,,,,,,,,,,,,,,,,,,,226.51020300000005,226.5254233999999,227.03026939999995,227.00937339999996,227.01405139999997,227.03026939999995,227.62635790000013,,,,,227.62653550000005,227.64205199999992,227.84181990000002,227.82561959999998,,,,,,,,1,1,0.582076299999926,None,,,,,,,,809,21,M,R,2026-02-23_11h27.54.658,VisualSearch_2526_3,,2025.2.4,2026-02-23 11h27.54.862378 +0100,
vertical.xlsx,The target is tilted.,135,87,7,10,0,0,0,0,0,0,0,0,0,0,0,0,1,1,1,135,space,9.594497200000205,None,0,1,0.6436442000001534,None,space,1.5204785000000811,None,0,0,0,1,,,,,10,7,87,7,227.84181990000002,,,,,,,,,,,,,,,,,,,,,227.82640360000005,227.84181990000002,228.34639459999994,228.3255173,228.33029480000005,228.34639459999994,228.99357020000002,,,,,228.99378509999997,229.00817239999992,229.20862269999998,229.19252840000013,,,,,,,,0,1,0.6436442000001534,None,,,,,,,,809,21,M,R,2026-02-23_11h27.54.658,VisualSearch_2526_3,,2025.2.4,2026-02-23 11h27.54.862378 +0100,
vertical.xlsx,The target is tilted.,135,88,0,11,0,1,1,1,1,1,1,1,0,0,0,0,1,7,8,135,space,9.594497200000205,None,0,1,1.3774936999998317,None,space,1.5204785000000811,None,0,0,0,1,,,,,11,0,88,5,229.20862269999998,,,,,,,,,,,,,,,,,,,,,229.19335530000012,229.20862269999998,229.71083769999996,229.69233280000003,229.69744779999996,229.71083769999996,231.0924397000001,,,,,231.09263680000004,231.10816509999995,231.30817849999994,231.29213129999994,,,,,,,,0,1,1.3774936999998317,None,,,,,,,,809,21,M,R,2026-02-23_11h27.54.658,VisualSearch_2526_3,,2025.2.4,2026-02-23 11h27.54.862378 +0100,
vertical.xlsx,The target is tilted.,135,89,1,11,1,1,1,1,0,0,0,0,0,0,0,0,0,3,4,135,space,9.594497200000205,None,1,1,0.5434537000001001,None,space,1.5204785000000811,None,0,0,0,1,,,,,11,1,89,2,231.30817849999994,,,,,,,,,,,,,,,,,,,,,231.2928781999999,231.30817849999994,231.8126122000001,231.79171859999997,231.79638440000008,231.8126122000001,232.35930299999995,,,,,232.35954859999993,232.37447509999993,232.57465270000012,232.55797340000004,,,,,,,,1,1,0.5434537000001001,None,,,,,,,,809,21,M,R,2026-02-23_11h27.54.658,VisualSearch_2526_3,,2025.2.4,2026-02-23 11h27.54.862378 +0100,
vertical.xlsx,The target is tilted.,135,90,2,11,1,1,1,1,1,1,1,1,1,1,1,1,0,11,12,135,space,9.594497200000205,None,1,1,0.9289469000000281,None,space,1.5204785000000811,None,0,0,0,1,,,,,11,2,90,0,232.57465270000012,,,,,,,,,,,,,,,,,,,,,232.5583583,232.57465270000012,233.0784117999999,233.0584715,233.06317220000005,233.0784117999999,234.0089832000001,,,,,234.0091812999999,234.02454319999993,234.22449460000007,234.2083599,,,,,,,,1,1,0.9289469000000281,None,,,,,,,,809,21,M,R,2026-02-23_11h27.54.658,VisualSearch_2526_3,,2025.2.4,2026-02-23 11h27.54.862378 +0100,
vertical.xlsx,The target is tilted.,135,91,3,11,0,0,0,0,0,0,0,0,0,0,0,0,1,1,1,135,space,9.594497200000205,None,0,1,0.48708990000000085,None,space,1.5204785000000811,None,0,0,0,1,,,,,11,3,91,7,234.22449460000007,,,,,,,,,,,,,,,,,,,,,234.20906800000012,234.22449460000007,234.7283175,234.70837129999995,234.71313510000004,234.7283175,235.22476329999995,,,,,235.2249329000001,235.24096400000008,235.44091019999996,235.42498279999995,,,,,,,,0,1,0.48708990000000085,None,,,,,,,,809,21,M,R,2026-02-23_11h27.54.658,VisualSearch_2526_3,,2025.2.4,2026-02-23 11h27.54.862378 +0100,
vertical.xlsx,The target is tilted.,135,92,4,11,1,1,1,1,1,1,1,1,0,0,0,0,0,7,8,135,space,9.594497200000205,None,1,1,0.8797148999997262,None,space,1.5204785000000811,None,0,0,0,1,,,,,11,4,92,1,235.44091019999996,,,,,,,,,,,,,,,,,,,,,235.4257963,235.44091019999996,235.94465800000012,235.92488329999992,235.9304434999999,235.94465800000012,236.84189570000012,,,,,236.8420936,236.85731039999996,237.05699049999998,237.04146839999999,,,,,,,,1,1,0.8797148999997262,None,,,,,,,,809,21,M,R,2026-02-23_11h27.54.658,VisualSearch_2526_3,,2025.2.4,2026-02-23 11h27.54.862378 +0100,
vertical.xlsx,The target is tilted.,135,93,5,11,0,1,1,1,1,1,1,1,1,1,1,1,1,11,12,135,space,9.594497200000205,None,0,1,1.4207768000001124,None,space,1.5204785000000811,None,0,0,0,1,,,,,11,5,93,4,237.05699049999998,,,,,,,,,,,,,,,,,,,,,237.04231219999997,237.05699049999998,237.55722870000022,237.54075519999992,237.54271089999997,237.55722870000022,238.99098290000006,,,,,238.9910956000001,239.00696660000017,239.2070468999998,239.19054630000005,,,,,,,,0,1,1.4207768000001124,None,,,,,,,,809,21,M,R,2026-02-23_11h27.54.658,VisualSearch_2526_3,,2025.2.4,2026-02-23 11h27.54.862378 +0100,
vertical.xlsx,The target is tilted.,135,94,6,11,1,0,0,0,0,0,0,0,0,0,0,0,0,0,1,135,space,9.594497200000205,None,1,1,0.4618018999999549,None,space,1.5204785000000811,None,0,0,0,1,,,,,11,6,94,3,239.2070468999998,,,,,,,,,,,,,,,,,,,,,239.19127989999993,239.2070468999998,239.7068327999998,239.69107150000013,239.69588290000024,239.7068327999998,240.1745140999999,,,,,240.1746885,240.19024000000013,240.39038110000024,240.37423009999998,,,,,,,,1,1,0.4618018999999549,None,,,,,,,,809,21,M,R,2026-02-23_11h27.54.658,VisualSearch_2526_3,,2025.2.4,2026-02-23 11h27.54.862378 +0100,
vertical.xlsx,The target is tilted.,135,95,7,11,0,1,1,1,0,0,0,0,0,0,0,0,1,3,4,135,space,9.594497200000205,None,0,1,0.7549751999999899,None,space,1.5204785000000811,None,0,0,0,1,,,,,11,7,95,6,240.39038110000024,,,,,,,,,,,,,,,,,,,,,240.3750533,240.39038110000024,240.89246079999998,240.8741991999998,240.87959220000016,240.89246079999998,241.65788270000007,,,,,241.65807740000014,241.6730396999999,241.87339320000024,241.8568859999998,,,,,,,,0,1,0.7549751999999899,None,,,,,,,,809,21,M,R,2026-02-23_11h27.54.658,VisualSearch_2526_3,,2025.2.4,2026-02-23 11h27.54.862378 +0100,
vertical.xlsx,The target is tilted.,135,96,0,12,1,0,0,0,0,0,0,0,0,0,0,0,0,0,1,135,space,9.594497200000205,None,1,1,0.46146669999961887,None,space,1.5204785000000811,None,0,0,0,1,,,,,12,0,96,3,241.87339320000024,,,,,,,,,,,,,,,,,,,,,241.85763539999994,241.87339320000024,242.37255269999991,242.3565990999998,242.3579342999999,242.37255269999991,242.8396325000001,,,,,242.83971580000002,242.85576160000005,243.05574439999987,243.0392991000001,,,,,,,,1,1,0.46146669999961887,None,,,,,,,,809,21,M,R,2026-02-23_11h27.54.658,VisualSearch_2526_3,,2025.2.4,2026-02-23 11h27.54.862378 +0100,
vertical.xlsx,The target is tilted.,135,97,1,12,1,1,1,1,1,1,1,1,0,0,0,0,0,7,8,135,space,9.594497200000205,None,1,1,0.6013028000002123,None,space,1.5204785000000811,None,0,0,0,1,,,,,12,1,97,1,243.05574439999987,,,,,,,,,,,,,,,,,,,,,243.03961540000023,243.05574439999987,,243.5402287999998,243.5457927,243.56255540000006,244.17381360000013,,,,,244.17397589999996,244.18961969999987,244.38973580000015,244.37378060000015,,,,,,,,1,1,0.6013028000002123,None,,,,,,,,809,21,M,R,2026-02-23_11h27.54.658,VisualSearch_2526_3,,2025.2.4,2026-02-23 11h27.54.862378 +0100,
vertical.xlsx,The target is tilted.,135,98,2,12,0,1,1,1,0,0,0,0,0,0,0,0,1,3,4,135,space,9.594497200000205,None,0,1,0.7564335000001847,None,space,1.5204785000000811,None,0,0,0,1,,,,,12,2,98,6,244.38973580000015,,,,,,,,,,,,,,,,,,,,,244.37458040000024,244.38973580000015,244.8894259000001,244.87296720000018,244.87542989999997,244.8894259000001,245.6568109000002,,,,,245.65694740000004,245.6726973000002,245.87242200000014,245.856497,,,,,,,,0,1,0.7564335000001847,None,,,,,,,,809,21,M,R,2026-02-23_11h27.54.658,VisualSearch_2526_3,,2025.2.4,2026-02-23 11h27.54.862378 +0100,
vertical.xlsx,The target is tilted.,135,99,3,12,1,1,1,1,1,1,1,1,1,1,1,1,0,11,12,135,space,9.594497200000205,None,1,1,1.2809820000002219,None,space,1.5204785000000811,None,0,0,0,1,,,,,12,3,99,0,245.87242200000014,,,,,,,,,,,,,,,,,,,,,245.85739910000007,245.87242200000014,246.37723119999987,246.35680220000017,246.36217190000002,246.37723119999987,247.6727453000001,,,,,247.67285520000019,247.68870420000007,247.88923880000016,247.8732182000001,,,,,,,,1,1,1.2809820000002219,None,,,,,,,,809,21,M,R,2026-02-23_11h27.54.658,VisualSearch_2526_3,,2025.2.4,2026-02-23 11h27.54.862378 +0100,
vertical.xlsx,The target is tilted.,135,100,4,12,1,1,1,1,0,0,0,0,0,0,0,0,0,3,4,135,space,9.594497200000205,None,1,1,0.8150791999996727,None,space,1.5204785000000811,None,0,0,0,1,,,,,12,4,100,2,247.88923880000016,,,,,,,,,,,,,,,,,,,,,247.87402110000016,247.88923880000016,248.3950298000002,248.37274779999984,248.3781535999999,248.3950298000002,249.22343579999983,,,,,249.2236304999999,249.23862609999992,249.4390492,249.4229813999998,,,,,,,,1,1,0.8150791999996727,None,,,,,,,,809,21,M,R,2026-02-23_11h27.54.658,VisualSearch_2526_3,,2025.2.4,2026-02-23 11h27.54.862378 +0100,
vertical.xlsx,The target is tilted.,135,101,5,12,0,1,1,1,1,1,1,1,0,0,0,0,1,7,8,135,space,9.594497200000205,None,0,1,1.5419692999998915,None,space,1.5204785000000811,None,0,0,0,1,,,,,12,5,101,5,249.4390492,,,,,,,,,,,,,,,,,,,,,249.42380079999998,249.4390492,249.94401679999987,249.92292900000007,249.92804390000015,249.94401679999987,251.48940079999988,,,,,251.48960999999986,251.50525489999995,251.70491509999988,251.6891075000001,,,,,,,,0,1,1.5419692999998915,None,,,,,,,,809,21,M,R,2026-02-23_11h27.54.658,VisualSearch_2526_3,,2025.2.4,2026-02-23 11h27.54.862378 +0100,
vertical.xlsx,The target is tilted.,135,102,6,12,0,1,1,1,1,1,1,1,1,1,1,1,1,11,12,135,space,9.594497200000205,None,0,1,1.934665799999948,None,space,1.5204785000000811,None,0,0,0,1,,,,,12,6,102,4,251.70491509999988,,,,,,,,,,,,,,,,,,,,,251.68987129999982,251.70491509999988,252.20935669999994,252.18878419999987,252.1934604999999,252.20935669999994,254.1553077000001,,,,,254.1554534999998,254.17149110000014,254.37163480000004,254.35528200000022,,,,,,,,0,1,1.934665799999948,None,,,,,,,,809,21,M,R,2026-02-23_11h27.54.658,VisualSearch_2526_3,,2025.2.4,2026-02-23 11h27.54.862378 +0100,
vertical.xlsx,The target is tilted.,135,103,7,12,0,0,0,0,0,0,0,0,0,0,0,0,1,1,1,135,space,9.594497200000205,None,0,1,0.7642197999998643,None,space,1.5204785000000811,None,0,0,0,1,,,,,12,7,103,7,254.37163480000004,,,,,,,,,,,,,,,,,,,,,254.35602510000012,254.37163480000004,254.8714268000001,254.85514690000014,254.8595587000002,254.8714268000001,255.63867950000008,,,,,255.63880910000012,255.65435030000003,255.8546961999998,255.83857969999985,,,,,,,,0,1,0.7642197999998643,None,,,,,,,,809,21,M,R,2026-02-23_11h27.54.658,VisualSearch_2526_3,,2025.2.4,2026-02-23 11h27.54.862378 +0100,
vertical.xlsx,The target is tilted.,135,104,0,13,1,0,0,0,0,0,0,0,0,0,0,0,0,0,1,135,space,9.594497200000205,None,1,1,0.5268197000000328,None,space,1.5204785000000811,None,0,0,0,1,,,,,13,0,104,3,255.8546961999998,,,,,,,,,,,,,,,,,,,,,255.8393438999999,255.8546961999998,256.3586667000002,256.3386300999998,256.34372989999997,256.3586667000002,256.88854890000016,,,,,256.88868479999996,256.90435920000004,257.10452069999997,257.08832830000006,,,,,,,,1,1,0.5268197000000328,None,,,,,,,,809,21,M,R,2026-02-23_11h27.54.658,VisualSearch_2526_3,,2025.2.4,2026-02-23 11h27.54.862378 +0100,
vertical.xlsx,The target is tilted.,135,105,1,13,0,1,1,1,1,1,1,1,0,0,0,0,1,7,8,135,space,9.594497200000205,None,0,1,1.9230751000000055,None,space,1.5204785000000811,None,0,0,0,1,,,,,13,1,105,5,257.10452069999997,,,,,,,,,,,,,,,,,,,,,257.0891548000002,257.10452069999997,257.6093318999999,257.58833819999995,257.5930572,257.6093318999999,259.5386992000001,,,,,259.5389284999999,259.5538339000002,259.7538041,259.73797089999994,,,,,,,,0,1,1.9230751000000055,None,,,,,,,,809,21,M,R,2026-02-23_11h27.54.658,VisualSearch_2526_3,,2025.2.4,2026-02-23 11h27.54.862378 +0100,
vertical.xlsx,The target is tilted.,135,106,2,13,1,1,1,1,1,1,1,1,1,1,1,1,0,11,12,135,space,9.594497200000205,None,1,1,0.8039254000000255,None,space,1.5204785000000811,None,0,0,0,1,,,,,13,2,106,0,259.7538041,,,,,,,,,,,,,,,,,,,,,259.7387556000001,259.7538041,260.2578949000001,260.2379354000002,260.24245780000024,260.2578949000001,261.0718045000001,,,,,261.07199849999984,261.08727250000015,261.28730169999994,261.2713071999999,,,,,,,,1,1,0.8039254000000255,None,,,,,,,,809,21,M,R,2026-02-23_11h27.54.658,VisualSearch_2526_3,,2025.2.4,2026-02-23 11h27.54.862378 +0100,
vertical.xlsx,The target is tilted.,135,107,3,13,0,0,0,0,0,0,0,0,0,0,0,0,1,1,1,135,space,9.594497200000205,None,0,1,0.6578769000002467,None,space,1.5204785000000811,None,0,0,0,1,,,,,13,3,107,7,261.28730169999994,,,,,,,,,,,,,,,,,,,,,261.2721067,261.28730169999994,261.7888986999999,261.7711299,261.77595399999996,261.7888986999999,262.4548443000001,,,,,262.45503510000003,262.4700424,262.67046110000024,262.65434070000015,,,,,,,,0,1,0.6578769000002467,None,,,,,,,,809,21,M,R,2026-02-23_11h27.54.658,VisualSearch_2526_3,,2025.2.4,2026-02-23 11h27.54.862378 +0100,
vertical.xlsx,The target is tilted.,135,108,4,13,1,1,1,1,0,0,0,0,0,0,0,0,0,3,4,135,space,9.594497200000205,None,1,1,0.8819880000000921,None,space,1.5204785000000811,None,0,0,0,1,,,,,13,4,108,2,262.67046110000024,,,,,,,,,,,,,,,,,,,,,262.65510789999985,262.67046110000024,263.1735375999999,263.1541199999999,263.1588300000001,263.1735375999999,264.07133309999995,,,,,264.07153129999983,264.08656769999993,264.2868004999998,264.2706547999999,,,,,,,,1,1,0.8819880000000921,None,,,,,,,,809,21,M,R,2026-02-23_11h27.54.658,VisualSearch_2526_3,,2025.2.4,2026-02-23 11h27.54.862378 +0100,
vertical.xlsx,The target is tilted.,135,109,5,13,0,1,1,1,1,1,1,1,1,1,1,1,1,11,12,135,space,9.594497200000205,None,0,1,1.7606628999997156,None,space,1.5204785000000811,None,0,0,0,1,,,,,13,5,109,4,264.2868004999998,,,,,,,,,,,,,,,,,,,,,264.2714217,264.2868004999998,264.79042300000015,264.7704430000001,264.77518940000004,264.79042300000015,266.5544074000002,,,,,266.5546224000002,266.5694968999999,266.7698776,266.75373430000013,,,,,,,,0,1,1.7606628999997156,None,,,,,,,,809,21,M,R,2026-02-23_11h27.54.658,VisualSearch_2526_3,,2025.2.4,2026-02-23 11h27.54.862378 +0100,
vertical.xlsx,The target is tilted.,135,110,6,13,1,1,1,1,1,1,1,1,0,0,0,0,0,7,8,135,space,9.594497200000205,None,1,1,0.7466254999999364,None,space,1.5204785000000811,None,0,0,0,1,,,,,13,6,110,1,266.7698776,,,,,,,,,,,,,,,,,,,,,266.75446339999985,266.7698776,267.27296709999996,267.2533876,267.2585250999998,267.27296709999996,268.02058090000014,,,,,268.02076360000024,268.0362698000001,268.23617690000015,268.2202187999999,,,,,,,,1,1,0.7466254999999364,None,,,,,,,,809,21,M,R,2026-02-23_11h27.54.658,VisualSearch_2526_3,,2025.2.4,2026-02-23 11h27.54.862378 +0100,
vertical.xlsx,The target is tilted.,135,111,7,13,0,1,1,1,0,0,0,0,0,0,0,0,1,3,4,135,space,9.594497200000205,None,0,1,0.7427741999999853,None,space,1.5204785000000811,None,0,0,0,1,,,,,13,7,111,6,268.23617690000015,,,,,,,,,,,,,,,,,,,,,268.2210381000002,268.23617690000015,268.7359850999999,268.7202614,268.7250666000002,268.7359850999999,269.48690439999996,,,,,269.48709870000016,269.5023945999999,269.70268980000014,269.6865199000001,,,,,,,,0,1,0.7427741999999853,None,,,,,,,,809,21,M,R,2026-02-23_11h27.54.658,VisualSearch_2526_3,,2025.2.4,2026-02-23 11h27.54.862378 +0100,
vertical.xlsx,The target is tilted.,135,112,0,14,1,1,1,1,1,1,1,1,0,0,0,0,0,7,8,135,space,9.594497200000205,None,1,1,0.7827346999997644,None,space,1.5204785000000811,None,0,0,0,1,,,,,14,0,112,1,269.70268980000014,,,,,,,,,,,,,,,,,,,,,269.6872913999998,269.70268980000014,270.2054347999999,270.18620590000023,270.19084580000003,270.2054347999999,271.0036370999999,,,,,271.00383750000015,271.0192048000001,271.2191561000002,271.2030591,,,,,,,,1,1,0.7827346999997644,None,,,,,,,,809,21,M,R,2026-02-23_11h27.54.658,VisualSearch_2526_3,,2025.2.4,2026-02-23 11h27.54.862378 +0100,
vertical.xlsx,The target is tilted.,135,113,1,14,1,1,1,1,1,1,1,1,1,1,1,1,0,11,12,135,space,9.594497200000205,None,1,1,0.7090461000002506,None,space,1.5204785000000811,None,0,0,0,1,,,,,14,1,113,0,271.2191561000002,,,,,,,,,,,,,,,,,,,,,271.20379019999996,271.2191561000002,271.7238424999998,271.7028297999998,271.7075566000001,271.7238424999998,272.4363863000001,,,,,272.4365644000002,272.45229889999996,272.65237709999997,272.6360274000001,,,,,,,,1,1,0.7090461000002506,None,,,,,,,,809,21,M,R,2026-02-23_11h27.54.658,VisualSearch_2526_3,,2025.2.4,2026-02-23 11h27.54.862378 +0100,
vertical.xlsx,The target is tilted.,135,114,2,14,0,1,1,1,1,1,1,1,0,0,0,0,1,7,8,135,space,9.594497200000205,None,0,1,1.3114626999999928,None,space,1.5204785000000811,None,0,0,0,1,,,,,14,2,114,5,272.65237709999997,,,,,,,,,,,,,,,,,,,,,272.6367864000001,272.65237709999997,273.15839870000013,273.1361952999998,273.1407307000002,273.15839870000013,274.4857878,,,,,274.4859525999998,274.5019936000001,274.7020092,274.6855638999998,,,,,,,,0,1,1.3114626999999928,None,,,,,,,,809,21,M,R,2026-02-23_11h27.54.658,VisualSearch_2526_3,,2025.2.4,2026-02-23 11h27.54.862378 +0100,
vertical.xlsx,The target is tilted.,135,115,3,14,0,1,1,1,0,0,0,0,0,0,0,0,1,3,4,135,space,9.594497200000205,None,0,1,0.7999651999998605,None,space,1.5204785000000811,None,0,0,0,1,,,,,14,3,115,6,274.7020092,,,,,,,,,,,,,,,,,,,,,274.6863688000001,274.7020092,275.20550370000024,275.1857462999999,275.19044469999994,275.20550370000024,276.01877179999997,,,,,276.01892169999996,276.0346840999998,276.2348006999998,276.2189955000001,,,,,,,,0,1,0.7999651999998605,None,,,,,,,,809,21,M,R,2026-02-23_11h27.54.658,VisualSearch_2526_3,,2025.2.4,2026-02-23 11h27.54.862378 +0100,
vertical.xlsx,The target is tilted.,135,116,4,14,1,1,1,1,0,0,0,0,0,0,0,0,0,3,4,135,space,9.594497200000205,None,1,1,0.5004263000000719,None,space,1.5204785000000811,None,0,0,0,1,,,,,14,4,116,2,276.2348006999998,,,,,,,,,,,,,,,,,,,,,276.2197696999999,276.2348006999998,276.73875599999997,276.7185556000002,276.7232701999999,276.73875599999997,277.25247890000014,,,,,277.25267659999986,277.2680939999998,277.46834839999997,277.4523879000001,,,,,,,,1,1,0.5004263000000719,None,,,,,,,,809,21,M,R,2026-02-23_11h27.54.658,VisualSearch_2526_3,,2025.2.4,2026-02-23 11h27.54.862378 +0100,
vertical.xlsx,The target is tilted.,135,117,5,14,0,0,0,0,0,0,0,0,0,0,0,0,1,1,1,135,space,9.594497200000205,None,0,1,0.5904660999999578,None,space,1.5204785000000811,None,0,0,0,1,,,,,14,5,117,7,277.46834839999997,,,,,,,,,,,,,,,,,,,,,277.45325530000014,277.46834839999997,277.97330239999997,277.9518793,277.95727939999983,277.97330239999997,278.5684383,,,,,278.568583,278.58428130000016,278.7848596000001,278.7686728000001,,,,,,,,0,1,0.5904660999999578,None,,,,,,,,809,21,M,R,2026-02-23_11h27.54.658,VisualSearch_2526_3,,2025.2.4,2026-02-23 11h27.54.862378 +0100,
vertical.xlsx,The target is tilted.,135,118,6,14,1,0,0,0,0,0,0,0,0,0,0,0,0,0,1,135,space,9.594497200000205,None,0,0,0.4298815000001923,None,space,1.5204785000000811,None,0,0,0,1,,,,,14,6,118,3,278.7848596000001,,,,,,,,,,,,,,,,,,,,,278.7695127999998,278.7848596000001,279.2894265000002,279.2685405,279.2733049000001,279.2894265000002,279.7349574000002,,,,,279.7350947000002,279.7510666999999,279.95137180000006,279.93543699999987,,,,,,,,0,0,0.4298815000001923,None,,,,,,,,809,21,M,R,2026-02-23_11h27.54.658,VisualSearch_2526_3,,2025.2.4,2026-02-23 11h27.54.862378 +0100,
vertical.xlsx,The target is tilted.,135,119,7,14,0,1,1,1,1,1,1,1,1,1,1,1,1,11,12,135,space,9.594497200000205,None,0,1,2.0665156000000025,None,space,1.5204785000000811,None,0,0,0,1,,,,,14,7,119,4,279.95137180000006,,,,,,,,,,,,,,,,,,,,,279.93627649999985,279.95137180000006,280.4546376999999,280.43474119999996,280.4393947000001,280.4546376999999,282.5346185000001,,,,,282.5347242999999,282.5506548999999,282.7523746999998,282.7340052000002,,,,,,,,0,1,2.0665156000000025,None,,,,,,,,809,21,M,R,2026-02-23_11h27.54.658,VisualSearch_2526_3,,2025.2.4,2026-02-23 11h27.54.862378 +0100,
vertical.xlsx,The target is tilted.,135,0,0,0,,,,,,,,,,,,,,,,,space,9.594497200000205,None,,,,,space,1.5204785000000811,None,0,0,0,1,,,,,,,,,,,,,,,,,,,,,,,,,,,,,,,,,,,,,,,,,,,,,,,,,,,,,,,,,,,,,,,809,21,M,R,2026-02-23_11h27.54.658,VisualSearch_2526_3,,2025.2.4,2026-02-23 11h27.54.862378 +0100,
tilted.xlsx,The target is tilted.,117,0,0,0,1,1,1,1,0,0,0,0,0,0,0,0,0,3,4,117,space,4.785207200000059,None,1,1,1.023752400000376,None,,,,0,1,1,0,0,0,0,2,,,,,287.5718413000002,,,,,,,,,,,,,,,282.7523746999998,282.7523746999998,282.7523746999998,space,4.785207200000059,None,287.5682809000002,287.5718413000002,,288.0670455000002,288.0722871999999,288.0873600000002,289.1177475000002,1,1,1.023752400000376,None,289.1179416000002,289.13287990000003,289.33339219999993,289.3170183,,,,,,,,,,,,,,,,,,,809,21,M,R,2026-02-23_11h27.54.658,VisualSearch_2526_3,,2025.2.4,2026-02-23 11h27.54.862378 +0100,
tilted.xlsx,The target is tilted.,117,1,1,0,0,1,1,1,1,1,1,1,0,0,0,0,1,7,8,117,space,4.785207200000059,None,1,0,2.156188800000109,None,,,,0,1,1,0,0,1,1,5,,,,,289.33339219999993,,,,,,,,,,,,,,,,,,,,,289.3177355999999,289.33339219999993,289.8371276999999,289.8171125000001,289.82174439999994,289.8371276999999,292.0004867,1,0,2.156188800000109,None,292.00065819999986,292.01608150000015,292.21611929999995,292.2003210999999,,,,,,,,,,,,,,,,,,,809,21,M,R,2026-02-23_11h27.54.658,VisualSearch_2526_3,,2025.2.4,2026-02-23 11h27.54.862378 +0100,
tilted.xlsx,The target is tilted.,117,2,2,0,0,1,1,1,0,0,0,0,0,0,0,0,1,3,4,117,space,4.785207200000059,None,0,1,0.8416352999997798,None,,,,0,1,1,0,0,2,2,6,,,,,292.21611929999995,,,,,,,,,,,,,,,,,,,,,292.20114639999997,292.21611929999995,292.7202292999998,292.69994269999984,292.70468760000017,292.7202292999998,293.5659782,0,1,0.8416352999997798,None,293.5660544,293.5822276000001,,293.7662028000002,,,,,,,,,,,,,,,,,,,809,21,M,R,2026-02-23_11h27.54.658,VisualSearch_2526_3,,2025.2.4,2026-02-23 11h27.54.862378 +0100,
tilted.xlsx,The target is tilted.,117,3,3,0,0,1,1,1,1,1,1,1,1,1,1,1,1,11,12,117,space,4.785207200000059,None,1,0,1.1919749999997293,None,,,,0,1,1,0,0,3,3,4,,,,,293.7825577000001,,,,,,,,,,,,,,,,,,,,,293.7668861999998,293.7825577000001,294.2879734999999,294.2662020999999,294.2709037000002,294.2879734999999,295.4833841000002,1,0,1.1919749999997293,None,295.48357250000004,295.49890549999986,295.6988253000002,295.6819509999998,,,,,,,,,,,,,,,,,,,809,21,M,R,2026-02-23_11h27.54.658,VisualSearch_2526_3,,2025.2.4,2026-02-23 11h27.54.862378 +0100,
tilted.xlsx,The target is tilted.,117,4,4,0,1,1,1,1,1,1,1,1,1,1,1,1,0,11,12,117,space,4.785207200000059,None,1,1,0.7672655999999733,None,,,,0,1,1,0,0,4,4,0,,,,,295.6988253000002,,,,,,,,,,,,,,,,,,,,,295.68228139999997,295.6988253000002,296.20267720000015,296.1825916999999,296.18788040000004,296.20267720000015,296.98358140000005,1,1,0.7672655999999733,None,296.9837783999999,296.9984575000001,297.1988758,297.18294040000023,,,,,,,,,,,,,,,,,,,809,21,M,R,2026-02-23_11h27.54.658,VisualSearch_2526_3,,2025.2.4,2026-02-23 11h27.54.862378 +0100,
tilted.xlsx,The target is tilted.,117,5,5,0,0,0,0,0,0,0,0,0,0,0,0,0,1,1,1,117,space,4.785207200000059,None,0,1,0.585755799999788,None,,,,0,1,1,0,0,5,5,7,,,,,297.1988758,,,,,,,,,,,,,,,,,,,,,297.18368050000004,297.1988758,297.70473430000015,297.68271059999984,297.6875290999999,297.70473430000015,298.29928700000005,0,1,0.585755799999788,None,298.29947370000014,298.3148198000001,298.5148821,298.4991898999999,,,,,,,,,,,,,,,,,,,809,21,M,R,2026-02-23_11h27.54.658,VisualSearch_2526_3,,2025.2.4,2026-02-23 11h27.54.862378 +0100,
tilted.xlsx,The target is tilted.,117,6,6,0,1,1,1,1,1,1,1,1,0,0,0,0,0,7,8,117,space,4.785207200000059,None,1,1,1.3777075999996669,None,,,,0,1,1,0,0,6,6,1,,,,,298.5148821,,,,,,,,,,,,,,,,,,,,,298.4998882000002,298.5148821,299.0193569999999,298.99908059999984,299.00379069999985,299.0193569999999,300.40018140000006,1,1,1.3777075999996669,None,300.40040729999987,300.4148487,300.6146931999999,300.5987891000002,,,,,,,,,,,,,,,,,,,809,21,M,R,2026-02-23_11h27.54.658,VisualSearch_2526_3,,2025.2.4,2026-02-23 11h27.54.862378 +0100,
tilted.xlsx,The target is tilted.,117,7,7,0,1,0,0,0,0,0,0,0,0,0,0,0,0,0,1,117,space,4.785207200000059,None,1,1,0.6450709999999162,None,,,,0,1,1,0,0,7,7,3,,,,,300.6146931999999,,,,,,,,,,,,,,,,,,,,,300.59950030000005,300.6146931999999,301.1194157000002,301.09840099999997,301.1031400999998,301.1194157000002,301.7816230000001,1,1,0.6450709999999162,None,301.78172580000023,301.7976600999998,301.99807609999993,301.9817893000002,,,,,,,,,,,,,,,,,,,809,21,M,R,2026-02-23_11h27.54.658,VisualSearch_2526_3,,2025.2.4,2026-02-23 11h27.54.862378 +0100,
tilted.xlsx,The target is tilted.,117,0,0,0,1,0,0,0,0,0,0,0,0,0,0,0,0,0,1,117,space,4.785207200000059,None,1,1,0.6092029999999795,None,space,1.3805520999999317,None,0,1,1,0,,,,,0,0,0,3,303.4098873999999,,,,,,,,,,,,,,,,,,,,,303.4059107999999,303.4098873999999,,303.89779909999993,303.9025561000001,303.91787249999993,304.5310833000001,,,,,304.53114690000007,304.54758400000014,304.7477369999999,304.7315013,301.98901020000017,301.99807609999993,301.99807609999993,303.38187230000017,space,1.3805520999999317,None,1,1,0.6092029999999795,None,,,,,,,,809,21,M,R,2026-02-23_11h27.54.658,VisualSearch_2526_3,,2025.2.4,2026-02-23 11h27.54.862378 +0100,
tilted.xlsx,The target is tilted.,117,1,1,0,1,1,1,1,1,1,1,1,1,1,1,1,0,11,12,117,space,4.785207200000059,None,1,1,1.7564134000003833,None,space,1.3805520999999317,None,0,1,1,0,,,,,0,1,1,0,304.7477369999999,,,,,,,,,,,,,,,,,,,,,304.73227109999993,304.7477369999999,,305.23133440000015,305.23674619999997,305.2492728999998,307.0147155000002,,,,,307.01487440000005,307.03066479999984,307.2308279000001,307.21485199999984,,,,,,,,1,1,1.7564134000003833,None,,,,,,,,809,21,M,R,2026-02-23_11h27.54.658,VisualSearch_2526_3,,2025.2.4,2026-02-23 11h27.54.862378 +0100,
tilted.xlsx,The target is tilted.,117,2,2,0,0,0,0,0,0,0,0,0,0,0,0,0,1,1,1,117,space,4.785207200000059,None,0,1,0.5835624999999709,None,space,1.3805520999999317,None,0,1,1,0,,,,,0,2,2,7,307.2308279000001,,,,,,,,,,,,,,,,,,,,,307.21567389999996,307.2308279000001,307.73701700000015,307.7145653,307.7192679000002,307.73701700000015,308.3311454000002,,,,,308.3313111,308.3469993000001,308.54718949999983,308.5306926999999,,,,,,,,0,1,0.5835624999999709,None,,,,,,,,809,21,M,R,2026-02-23_11h27.54.658,VisualSearch_2526_3,,2025.2.4,2026-02-23 11h27.54.862378 +0100,
tilted.xlsx,The target is tilted.,117,3,3,0,1,1,1,1,1,1,1,1,0,0,0,0,0,7,8,117,space,4.785207200000059,None,1,1,0.7906826999997065,None,space,1.3805520999999317,None,0,1,1,0,,,,,0,3,3,1,308.54718949999983,,,,,,,,,,,,,,,,,,,,,308.53145599999993,308.54718949999983,309.05016439999986,309.0308615000001,309.03568789999986,309.05016439999986,309.84813580000014,,,,,309.8483318000001,309.86334980000015,310.06327110000007,310.0474829000002,,,,,,,,1,1,0.7906826999997065,None,,,,,,,,809,21,M,R,2026-02-23_11h27.54.658,VisualSearch_2526_3,,2025.2.4,2026-02-23 11h27.54.862378 +0100,
tilted.xlsx,The target is tilted.,117,4,4,0,0,1,1,1,1,1,1,1,0,0,0,0,1,7,8,117,space,4.785207200000059,None,0,1,1.8913551999999072,None,space,1.3805520999999317,None,0,1,1,0,,,,,0,4,4,5,310.06327110000007,,,,,,,,,,,,,,,,,,,,,310.0482460999999,310.06327110000007,310.56793519999997,310.5472769999999,310.55230860000006,310.56793519999997,312.46440480000024,,,,,312.4646005000002,312.47974739999995,312.6798921000002,312.66378139999983,,,,,,,,0,1,1.8913551999999072,None,,,,,,,,809,21,M,R,2026-02-23_11h27.54.658,VisualSearch_2526_3,,2025.2.4,2026-02-23 11h27.54.862378 +0100,
tilted.xlsx,The target is tilted.,117,5,5,0,0,1,1,1,0,0,0,0,0,0,0,0,1,3,4,117,space,4.785207200000059,None,0,1,0.7808202999999594,None,space,1.3805520999999317,None,0,1,1,0,,,,,0,5,5,6,312.6798921000002,,,,,,,,,,,,,,,,,,,,,312.6645353000001,312.6798921000002,313.1836071,313.1636172000001,313.16838759999996,313.1836071,313.98088470000016,,,,,313.98108320000006,313.99639820000016,314.1962980999999,314.18024219999984,,,,,,,,0,1,0.7808202999999594,None,,,,,,,,809,21,M,R,2026-02-23_11h27.54.658,VisualSearch_2526_3,,2025.2.4,2026-02-23 11h27.54.862378 +0100,
tilted.xlsx,The target is tilted.,117,6,6,0,0,1,1,1,1,1,1,1,1,1,1,1,1,11,12,117,space,4.785207200000059,None,0,1,2.1065409000002546,None,space,1.3805520999999317,None,0,1,1,0,,,,,0,6,6,4,314.1962980999999,,,,,,,,,,,,,,,,,,,,,314.1809691000001,314.1962980999999,314.69583290000014,314.6801748999999,314.6848063,314.69583290000014,316.81384330000014,,,,,316.8140755000002,316.82895870000016,317.02934630000004,317.0127587999998,,,,,,,,0,1,2.1065409000002546,None,,,,,,,,809,21,M,R,2026-02-23_11h27.54.658,VisualSearch_2526_3,,2025.2.4,2026-02-23 11h27.54.862378 +0100,
tilted.xlsx,The target is tilted.,117,7,7,0,1,1,1,1,0,0,0,0,0,0,0,0,0,3,4,117,space,4.785207200000059,None,1,1,0.7678003999999419,None,space,1.3805520999999317,None,0,1,1,0,,,,,0,7,7,2,317.02934630000004,,,,,,,,,,,,,,,,,,,,,317.0134913999998,317.02934630000004,317.5285716000001,317.5130737000002,317.5176321000001,317.5285716000001,318.31273399999986,,,,,318.3128310999998,318.32886600000006,318.52915670000016,318.513111,,,,,,,,1,1,0.7678003999999419,None,,,,,,,,809,21,M,R,2026-02-23_11h27.54.658,VisualSearch_2526_3,,2025.2.4,2026-02-23 11h27.54.862378 +0100,
tilted.xlsx,The target is tilted.,117,8,0,1,1,0,0,0,0,0,0,0,0,0,0,0,0,0,1,117,space,4.785207200000059,None,1,1,0.5629792999998244,None,space,1.3805520999999317,None,0,1,1,0,,,,,1,0,8,3,318.52915670000016,,,,,,,,,,,,,,,,,,,,,318.51393810000013,318.52915670000016,319.0349342000002,319.0130677999998,319.0182317000001,319.0349342000002,319.6129936,,,,,319.6131490999999,319.62855289999993,319.8288602,319.8127361999998,,,,,,,,1,1,0.5629792999998244,None,,,,,,,,809,21,M,R,2026-02-23_11h27.54.658,VisualSearch_2526_3,,2025.2.4,2026-02-23 11h27.54.862378 +0100,
tilted.xlsx,The target is tilted.,117,9,1,1,0,1,1,1,1,1,1,1,0,0,0,0,1,7,8,117,space,4.785207200000059,None,0,1,1.1928947000001244,None,space,1.3805520999999317,None,0,1,1,0,,,,,1,1,9,5,319.8288602,,,,,,,,,,,,,,,,,,,,,319.81348349999985,319.8288602,320.3310991999999,320.3126699000002,320.31741609999995,320.3310991999999,321.52947229999995,,,,,321.5296879,321.54488749999996,321.7449226000001,321.7291415000002,,,,,,,,0,1,1.1928947000001244,None,,,,,,,,809,21,M,R,2026-02-23_11h27.54.658,VisualSearch_2526_3,,2025.2.4,2026-02-23 11h27.54.862378 +0100,
tilted.xlsx,The target is tilted.,117,10,2,1,1,1,1,1,1,1,1,1,1,1,1,1,0,11,12,117,space,4.785207200000059,None,1,1,2.061025999999856,None,space,1.3805520999999317,None,0,1,1,0,,,,,1,2,10,0,321.7449226000001,,,,,,,,,,,,,,,,,,,,,321.72999189999996,321.7449226000001,322.2530244000002,322.2292404000002,322.2344598000002,322.2530244000002,324.32934180000007,,,,,324.3295344999999,324.3447933,324.5447468,324.52876170000013,,,,,,,,1,1,2.061025999999856,None,,,,,,,,809,21,M,R,2026-02-23_11h27.54.658,VisualSearch_2526_3,,2025.2.4,2026-02-23 11h27.54.862378 +0100,
tilted.xlsx,The target is tilted.,117,11,3,1,1,1,1,1,1,1,1,1,0,0,0,0,0,7,8,117,space,4.785207200000059,None,0,0,1.3968641999999818,None,space,1.3805520999999317,None,0,1,1,0,,,,,1,3,11,1,324.5447468,,,,,,,,,,,,,,,,,,,,,324.52952949999985,324.5447468,325.05023719999986,325.02835130000017,325.03315150000003,325.05023719999986,326.4620815999999,,,,,326.4622138000002,326.47780080000007,326.67793659999984,326.66193610000005,,,,,,,,0,0,1.3968641999999818,None,,,,,,,,809,21,M,R,2026-02-23_11h27.54.658,VisualSearch_2526_3,,2025.2.4,2026-02-23 11h27.54.862378 +0100,
tilted.xlsx,The target is tilted.,117,12,4,1,0,1,1,1,1,1,1,1,1,1,1,1,1,11,12,117,space,4.785207200000059,None,1,0,2.8829907999997886,None,space,1.3805520999999317,None,0,1,1,0,,,,,1,4,12,4,326.67793659999984,,,,,,,,,,,,,,,,,,,,,326.6627979000002,326.67793659999984,327.18279640000014,327.1616013999999,327.16615579999984,327.18279640000014,330.07856670000024,,,,,330.0787622,330.09369790000005,330.29415700000004,330.2780811,,,,,,,,1,0,2.8829907999997886,None,,,,,,,,809,21,M,R,2026-02-23_11h27.54.658,VisualSearch_2526_3,,2025.2.4,2026-02-23 11h27.54.862378 +0100,
tilted.xlsx,The target is tilted.,117,13,5,1,0,1,1,1,0,0,0,0,0,0,0,0,1,3,4,117,space,4.785207200000059,None,0,1,0.964175399999931,None,space,1.3805520999999317,None,0,1,1,0,,,,,1,5,13,6,330.29415700000004,,,,,,,,,,,,,,,,,,,,,330.2790560000001,330.29415700000004,330.7983531000002,330.7779552999998,330.7832780000001,330.7983531000002,331.77767610000024,,,,,331.77781389999996,331.7936516000002,331.99385700000016,331.9776933999999,,,,,,,,0,1,0.964175399999931,None,,,,,,,,809,21,M,R,2026-02-23_11h27.54.658,VisualSearch_2526_3,,2025.2.4,2026-02-23 11h27.54.862378 +0100,
tilted.xlsx,The target is tilted.,117,14,6,1,0,0,0,0,0,0,0,0,0,0,0,0,1,1,1,117,space,4.785207200000059,None,0,1,0.5544224999998733,None,space,1.3805520999999317,None,0,1,1,0,,,,,1,6,14,7,331.99385700000016,,,,,,,,,,,,,,,,,,,,,331.9784265999999,331.99385700000016,332.4981574000001,332.4771011999999,332.48173109999993,332.4981574000001,333.06147160000023,,,,,333.0616631999999,333.0768458,333.27692379999985,333.2607983999999,,,,,,,,0,1,0.5544224999998733,None,,,,,,,,809,21,M,R,2026-02-23_11h27.54.658,VisualSearch_2526_3,,2025.2.4,2026-02-23 11h27.54.862378 +0100,
tilted.xlsx,The target is tilted.,117,15,7,1,1,1,1,1,0,0,0,0,0,0,0,0,0,3,4,117,space,4.785207200000059,None,0,0,0.7207383999998456,None,space,1.3805520999999317,None,0,1,1,0,,,,,1,7,15,2,333.27692379999985,,,,,,,,,,,,,,,,,,,,,333.26158610000016,333.27692379999985,333.7814528000001,333.7609688,333.7664271000001,333.7814528000001,334.5111039000001,,,,,334.5112735,334.52627559999996,334.72674930000017,334.7108197,,,,,,,,0,0,0.7207383999998456,None,,,,,,,,809,21,M,R,2026-02-23_11h27.54.658,VisualSearch_2526_3,,2025.2.4,2026-02-23 11h27.54.862378 +0100,
tilted.xlsx,The target is tilted.,117,16,0,2,1,1,1,1,1,1,1,1,1,1,1,1,0,11,12,117,space,4.785207200000059,None,1,1,1.3656096999998226,None,space,1.3805520999999317,None,0,1,1,0,,,,,2,0,16,0,334.72674930000017,,,,,,,,,,,,,,,,,,,,,334.7117002000002,334.72674930000017,335.2338127999999,335.21072200000003,335.21594740000023,335.2338127999999,336.61097989999985,,,,,336.61118280000005,336.62608609999984,336.82637980000004,336.8102689,,,,,,,,1,1,1.3656096999998226,None,,,,,,,,809,21,M,R,2026-02-23_11h27.54.658,VisualSearch_2526_3,,2025.2.4,2026-02-23 11h27.54.862378 +0100,
tilted.xlsx,The target is tilted.,117,17,1,2,1,1,1,1,1,1,1,1,0,0,0,0,0,7,8,117,space,4.785207200000059,None,1,1,1.1318062999998801,None,space,1.3805520999999317,None,0,1,1,0,,,,,2,1,17,1,336.82637980000004,,,,,,,,,,,,,,,,,,,,,336.8111467000001,336.82637980000004,337.3297503000001,337.3099100000002,337.3146184,337.3297503000001,338.4768618999999,,,,,338.4769963000001,338.49285220000024,338.69280189999995,338.67628320000017,,,,,,,,1,1,1.1318062999998801,None,,,,,,,,809,21,M,R,2026-02-23_11h27.54.658,VisualSearch_2526_3,,2025.2.4,2026-02-23 11h27.54.862378 +0100,
tilted.xlsx,The target is tilted.,117,18,2,2,0,1,1,1,1,1,1,1,1,1,1,1,1,11,12,117,space,4.785207200000059,None,0,1,1.6990255000000616,None,space,1.3805520999999317,None,0,1,1,0,,,,,2,2,18,4,338.69280189999995,,,,,,,,,,,,,,,,,,,,,338.6770514000002,338.69280189999995,339.1927112999999,339.17660420000016,339.18119189999993,339.1927112999999,340.8938829000001,,,,,340.8940951000002,340.9091684000002,341.1091924,341.09300450000023,,,,,,,,0,1,1.6990255000000616,None,,,,,,,,809,21,M,R,2026-02-23_11h27.54.658,VisualSearch_2526_3,,2025.2.4,2026-02-23 11h27.54.862378 +0100,
tilted.xlsx,The target is tilted.,117,19,3,2,1,0,0,0,0,0,0,0,0,0,0,0,0,0,1,117,space,4.785207200000059,None,1,1,0.5531943000000865,None,space,1.3805520999999317,None,0,1,1,0,,,,,2,3,19,3,341.1091924,,,,,,,,,,,,,,,,,,,,,341.0937839999999,341.1091924,341.6102180999999,341.59240449999993,341.59717939999996,341.6102180999999,342.1763586999998,,,,,342.1765183,342.1921573000002,342.3923277000001,342.3761892,,,,,,,,1,1,0.5531943000000865,None,,,,,,,,809,21,M,R,2026-02-23_11h27.54.658,VisualSearch_2526_3,,2025.2.4,2026-02-23 11h27.54.862378 +0100,
tilted.xlsx,The target is tilted.,117,20,4,2,0,0,0,0,0,0,0,0,0,0,0,0,1,1,1,117,space,4.785207200000059,None,0,1,0.5317205999999715,None,space,1.3805520999999317,None,0,1,1,0,,,,,2,4,20,7,342.3923277000001,,,,,,,,,,,,,,,,,,,,,342.3770215000002,342.3923277000001,342.8967623000001,342.8759808000002,342.88127280000003,342.8967623000001,343.4432954000001,,,,,343.4434907000002,343.45874260000005,343.6584430999999,343.64263370000003,,,,,,,,0,1,0.5317205999999715,None,,,,,,,,809,21,M,R,2026-02-23_11h27.54.658,VisualSearch_2526_3,,2025.2.4,2026-02-23 11h27.54.862378 +0100,
tilted.xlsx,The target is tilted.,117,21,5,2,1,1,1,1,0,0,0,0,0,0,0,0,0,3,4,117,space,4.785207200000059,None,1,1,0.7000170000001162,None,space,1.3805520999999317,None,0,1,1,0,,,,,2,5,21,2,343.6584430999999,,,,,,,,,,,,,,,,,,,,,343.6435291,343.6584430999999,344.1645420000002,344.14249510000013,344.1475349,344.1645420000002,344.8762819000001,,,,,344.8764739999999,344.8915795999999,345.0920365999998,345.0756162,,,,,,,,1,1,0.7000170000001162,None,,,,,,,,809,21,M,R,2026-02-23_11h27.54.658,VisualSearch_2526_3,,2025.2.4,2026-02-23 11h27.54.862378 +0100,
tilted.xlsx,The target is tilted.,117,22,6,2,0,1,1,1,1,1,1,1,0,0,0,0,1,7,8,117,space,4.785207200000059,None,1,0,0.736987599999793,None,space,1.3805520999999317,None,0,1,1,0,,,,,2,6,22,5,345.0920365999998,,,,,,,,,,,,,,,,,,,,,345.0764621000001,345.0920365999998,345.59186220000015,345.5750501,345.57818250000014,345.59186220000015,346.34291740000003,,,,,346.3431118000001,346.3582816999999,346.5581580999999,346.5418299999999,,,,,,,,1,0,0.736987599999793,None,,,,,,,,809,21,M,R,2026-02-23_11h27.54.658,VisualSearch_2526_3,,2025.2.4,2026-02-23 11h27.54.862378 +0100,
tilted.xlsx,The target is tilted.,117,23,7,2,0,1,1,1,0,0,0,0,0,0,0,0,1,3,4,117,space,4.785207200000059,None,0,1,0.757534499999565,None,space,1.3805520999999317,None,0,1,1,0,,,,,2,7,23,6,346.5581580999999,,,,,,,,,,,,,,,,,,,,,346.5421727999999,346.5581580999999,347.0633461,347.0422729999998,347.0470149999999,347.0633461,347.8258910000002,,,,,347.82608529999993,347.841494,348.04145630000016,348.02530279999996,,,,,,,,0,1,0.757534499999565,None,,,,,,,,809,21,M,R,2026-02-23_11h27.54.658,VisualSearch_2526_3,,2025.2.4,2026-02-23 11h27.54.862378 +0100,
tilted.xlsx,The target is tilted.,117,24,0,3,0,0,0,0,0,0,0,0,0,0,0,0,1,1,1,117,space,4.785207200000059,None,0,1,0.49526190000005954,None,space,1.3805520999999317,None,0,1,1,0,,,,,3,0,24,7,348.04145630000016,,,,,,,,,,,,,,,,,,,,,348.0260701999998,348.04145630000016,348.54473010000015,348.52490620000003,348.5296434999998,348.54473010000015,349.0426202000001,,,,,349.04282639999997,349.0579144999999,349.2580811999999,349.24210590000007,,,,,,,,0,1,0.49526190000005954,None,,,,,,,,809,21,M,R,2026-02-23_11h27.54.658,VisualSearch_2526_3,,2025.2.4,2026-02-23 11h27.54.862378 +0100,
tilted.xlsx,The target is tilted.,117,25,1,3,0,1,1,1,0,0,0,0,0,0,0,0,1,3,4,117,space,4.785207200000059,None,0,1,0.6054384999997637,None,space,1.3805520999999317,None,0,1,1,0,,,,,3,1,25,6,349.2580811999999,,,,,,,,,,,,,,,,,,,,,349.2430516000002,349.2580811999999,349.7638648999998,349.7418700999999,349.7465427999998,349.7638648999998,350.3756903000001,,,,,350.37588359999995,350.39078300000006,350.5908053999999,350.5746117000001,,,,,,,,0,1,0.6054384999997637,None,,,,,,,,809,21,M,R,2026-02-23_11h27.54.658,VisualSearch_2526_3,,2025.2.4,2026-02-23 11h27.54.862378 +0100,
tilted.xlsx,The target is tilted.,117,26,2,3,1,0,0,0,0,0,0,0,0,0,0,0,0,0,1,117,space,4.785207200000059,None,1,1,0.5802539000001161,None,space,1.3805520999999317,None,0,1,1,0,,,,,3,2,26,3,350.5908053999999,,,,,,,,,,,,,,,,,,,,,350.57535440000015,350.5908053999999,351.09710070000006,351.0752027000001,351.0803536000001,351.09710070000006,351.69213809999997,,,,,351.69233069999996,351.7076101,351.9076275,351.8911900999999,,,,,,,,1,1,0.5802539000001161,None,,,,,,,,809,21,M,R,2026-02-23_11h27.54.658,VisualSearch_2526_3,,2025.2.4,2026-02-23 11h27.54.862378 +0100,
tilted.xlsx,The target is tilted.,117,27,3,3,0,1,1,1,1,1,1,1,0,0,0,0,1,7,8,117,space,4.785207200000059,None,1,0,0.6950925000001007,None,space,1.3805520999999317,None,0,1,1,0,,,,,3,3,27,5,351.9076275,,,,,,,,,,,,,,,,,,,,,351.8919179000002,351.9076275,352.41247309999994,352.39171610000017,352.3967444000002,352.41247309999994,353.12452830000007,,,,,353.12460910000004,353.1405471999999,353.34036059999994,353.32419619999996,,,,,,,,1,0,0.6950925000001007,None,,,,,,,,809,21,M,R,2026-02-23_11h27.54.658,VisualSearch_2526_3,,2025.2.4,2026-02-23 11h27.54.862378 +0100,
tilted.xlsx,The target is tilted.,117,28,4,3,1,1,1,1,1,1,1,1,0,0,0,0,0,7,8,117,space,4.785207200000059,None,1,1,1.1341063999998369,None,space,1.3805520999999317,None,0,1,1,0,,,,,3,4,28,1,353.34036059999994,,,,,,,,,,,,,,,,,,,,,353.32495240000003,353.34036059999994,353.844734,353.82457679999993,353.82930280000005,353.844734,354.99142589999997,,,,,354.9915824000002,355.0069326,355.2071908999999,355.19116340000005,,,,,,,,1,1,1.1341063999998369,None,,,,,,,,809,21,M,R,2026-02-23_11h27.54.658,VisualSearch_2526_3,,2025.2.4,2026-02-23 11h27.54.862378 +0100,
tilted.xlsx,The target is tilted.,117,29,5,3,0,1,1,1,1,1,1,1,1,1,1,1,1,11,12,117,space,4.785207200000059,None,0,1,1.7599067000001014,None,space,1.3805520999999317,None,0,1,1,0,,,,,3,5,29,4,355.2071908999999,,,,,,,,,,,,,,,,,,,,,355.19199920000005,355.2071908999999,355.7114653000001,355.69051060000015,355.6952213000002,355.7114653000001,357.474692,,,,,357.47492290000014,357.4899241999999,357.69026629999985,357.6738278,,,,,,,,0,1,1.7599067000001014,None,,,,,,,,809,21,M,R,2026-02-23_11h27.54.658,VisualSearch_2526_3,,2025.2.4,2026-02-23 11h27.54.862378 +0100,
tilted.xlsx,The target is tilted.,117,30,6,3,1,1,1,1,1,1,1,1,1,1,1,1,0,11,12,117,space,4.785207200000059,None,0,0,2.431010199999946,None,space,1.3805520999999317,None,0,1,1,0,,,,,3,6,30,0,357.69026629999985,,,,,,,,,,,,,,,,,,,,,357.67467539999984,357.69026629999985,358.19436040000005,358.1737939000002,358.1789941999998,358.19436040000005,360.6404513,,,,,360.6406015,360.6561823999998,360.85629959999983,360.8401725000001,,,,,,,,0,0,2.431010199999946,None,,,,,,,,809,21,M,R,2026-02-23_11h27.54.658,VisualSearch_2526_3,,2025.2.4,2026-02-23 11h27.54.862378 +0100,
tilted.xlsx,The target is tilted.,117,31,7,3,1,1,1,1,0,0,0,0,0,0,0,0,0,3,4,117,space,4.785207200000059,None,1,1,0.9328491000001122,None,space,1.3805520999999317,None,0,1,1,0,,,,,3,7,31,2,360.85629959999983,,,,,,,,,,,,,,,,,,,,,360.8409337999999,360.85629959999983,361.36015669999983,361.3402331,361.3449191000002,361.36015669999983,362.3070418,,,,,362.3072153999999,362.3224336999999,362.5228453000002,362.5068137999999,,,,,,,,1,1,0.9328491000001122,None,,,,,,,,809,21,M,R,2026-02-23_11h27.54.658,VisualSearch_2526_3,,2025.2.4,2026-02-23 11h27.54.862378 +0100,
tilted.xlsx,The target is tilted.,117,32,0,4,0,1,1,1,0,0,0,0,0,0,0,0,1,3,4,117,space,4.785207200000059,None,0,1,0.8144936999997299,None,space,1.3805520999999317,None,0,1,1,0,,,,,4,0,32,6,362.5228453000002,,,,,,,,,,,,,,,,,,,,,362.5076459999998,362.5228453000002,363.02844310000023,363.0065212000002,363.0112276000002,363.02844310000023,363.85701110000014,,,,,363.8572032999998,363.8724914000002,364.07267190000016,364.05659660000015,,,,,,,,0,1,0.8144936999997299,None,,,,,,,,809,21,M,R,2026-02-23_11h27.54.658,VisualSearch_2526_3,,2025.2.4,2026-02-23 11h27.54.862378 +0100,
tilted.xlsx,The target is tilted.,117,33,1,4,0,0,0,0,0,0,0,0,0,0,0,0,1,1,1,117,space,4.785207200000059,None,0,1,1.0206976000004033,None,space,1.3805520999999317,None,0,1,1,0,,,,,4,1,33,7,364.07267190000016,,,,,,,,,,,,,,,,,,,,,364.0574147,364.07267190000016,364.5723902000002,364.55583779999984,364.55810270000006,364.5723902000002,365.60666670000023,,,,,365.6068456999999,365.62198779999994,365.8223510999999,365.80612910000013,,,,,,,,0,1,1.0206976000004033,None,,,,,,,,809,21,M,R,2026-02-23_11h27.54.658,VisualSearch_2526_3,,2025.2.4,2026-02-23 11h27.54.862378 +0100,
tilted.xlsx,The target is tilted.,117,34,2,4,1,1,1,1,0,0,0,0,0,0,0,0,0,3,4,117,space,4.785207200000059,None,1,1,0.7630410000001575,None,space,1.3805520999999317,None,0,1,1,0,,,,,4,2,34,2,365.8223510999999,,,,,,,,,,,,,,,,,,,,,365.8070030000001,365.8223510999999,366.3277092000001,366.3060760999999,366.3112214999999,366.3277092000001,367.10634330000016,,,,,367.10653320000006,367.12175980000006,367.3221888999999,367.3057660000002,,,,,,,,1,1,0.7630410000001575,None,,,,,,,,809,21,M,R,2026-02-23_11h27.54.658,VisualSearch_2526_3,,2025.2.4,2026-02-23 11h27.54.862378 +0100,
