file_name,block_instructions,target_example,thisN,thisTrialN,thisRepN,target_presence,opacity_1,opacity_2,opacity_3,opacity_4,opacity_5,opacity_6,opacity_7,opacity_8,opacity_9,opacity_10,opacity_11,opacity_12,n_distract,n_items,target_ori,key_resp_4.keys,key_resp_4.rt,key_resp_4.duration,key_resp.keys,key_resp.corr,key_resp.rt,key_resp.duration,key_resp_5.keys,key_resp_5.rt,key_resp_5.duration,blocks.thisRepN,blocks.thisTrialN,blocks.thisN,blocks.thisIndex,practice_trials.thisRepN,practice_trials.thisTrialN,practice_trials.thisN,practice_trials.thisIndex,trials.thisRepN,trials.thisTrialN,trials.thisN,trials.thisIndex,thisRow.t,notes,Welcome.started,WelcomeText.started,key_resp_2.started,Welcome.stopped,key_resp_2.keys,key_resp_2.rt,key_resp_2.duration,InformedConsent.started,text_4.started,InformedConsent.stopped,key_resp_6.keys,key_resp_6.rt,key_resp_6.duration,key_resp_4.started,example_target.started,text_3.started,blocks.key_resp_4.keys,blocks.key_resp_4.rt,blocks.key_resp_4.duration,FixCross.started,fixCross.started,FixCross.stopped,Stimulus.started,key_resp.started,Stimulus.stopped,practice_trials.key_resp.keys,practice_trials.key_resp.corr,practice_trials.key_resp.rt,practice_trials.key_resp.duration,BlankScreen.started,text.started,text.stopped,BlankScreen.stopped,fixCross.stopped,ExperimentStart.started,text_2.started,key_resp_5.started,ExperimentStart.stopped,blocks.key_resp_5.keys,blocks.key_resp_5.rt,blocks.key_resp_5.duration,trials.key_resp.keys,trials.key_resp.corr,trials.key_resp.rt,trials.key_resp.duration,Thanks.started,ThankYou.started,key_resp_3.started,Thanks.stopped,key_resp_3.keys,key_resp_3.rt,key_resp_3.duration,participant,leeftijd,gender,links/rechtshandig,date,expName,expVersion,psychopyVersion,expStart,
,,,,,,,,,,,,,,,,,,,,,,,,,,,,,,,,,,,,,,,,,,,,,,0.029824100000041653,0.040869500000098924,0.040869500000098924,70.01550250000037,space,69.95697880000034,None,,,,,,,,,,,,,,,,,,,,,,,,,,,,,,,,,,,,,,,,,,,,,,810,22,V,R,2026-02-23_11h44.01.371,VisualSearch_2526_3,,2025.2.4,2026-02-23 11h44.01.588044 +0100,
,,,,,,,,,,,,,,,,,,,,,,,,,,,,,,,,,,,,,,,,,,,,,,,,,,,,,70.0156750000001,70.02343340000016,76.31870849999996,y,6.290223500000138,None,,,,,,,,,,,,,,,,,,,,,,,,,,,,,,,,,,,,,,,,810,22,V,R,2026-02-23_11h44.01.371,VisualSearch_2526_3,,2025.2.4,2026-02-23 11h44.01.588044 +0100,
tilted.xlsx,The target is tilted.,117,0,0,0,0,0,0,0,0,0,0,0,0,0,0,0,1,1,1,117,space,8.845383800000036,None,0,1,1.929145300000073,None,,,,0,0,0,0,0,0,0,7,,,,,85.24779130000024,,,,,,,,,,,,,,,76.3644806000002,76.3644806000002,76.3644806000002,space,8.845383800000036,None,85.24189410000008,85.24779130000024,85.73288219999995,85.73769930000026,85.75552180000022,87.70003560000032,0,1,1.929145300000073,None,87.70023149999997,87.71561890000021,87.91572940000015,87.89946520000012,,,,,,,,,,,,,,,,,,,,810,22,V,R,2026-02-23_11h44.01.371,VisualSearch_2526_3,,2025.2.4,2026-02-23 11h44.01.588044 +0100,
tilted.xlsx,The target is tilted.,117,1,1,0,1,0,0,0,0,0,0,0,0,0,0,0,0,0,1,117,space,8.845383800000036,None,1,1,1.0894344999996974,None,,,,0,0,0,0,0,1,1,3,,,,,87.91572940000015,,,,,,,,,,,,,,,,,,,,,87.90011679999998,87.91572940000015,88.3994018000003,88.40409910000017,88.42166730000008,89.51647690000027,1,1,1.0894344999996974,None,89.51666680000017,89.53199500000028,89.73204620000024,89.71556220000002,88.42166730000008,,,,,,,,,,,,,,,,,,,810,22,V,R,2026-02-23_11h44.01.371,VisualSearch_2526_3,,2025.2.4,2026-02-23 11h44.01.588044 +0100,
tilted.xlsx,The target is tilted.,117,2,2,0,1,1,1,1,0,0,0,0,0,0,0,0,0,3,4,117,space,8.845383800000036,None,1,1,1.286563600000136,None,,,,0,0,0,0,0,2,2,2,,,,,89.73204620000024,,,,,,,,,,,,,,,,,,,,,89.71623020000015,89.73204620000024,90.21555460000036,90.22019309999996,90.23750470000004,91.53286690000004,1,1,1.286563600000136,None,91.53305560000035,91.54775830000017,91.74831170000016,91.73228689999996,90.23750470000004,,,,,,,,,,,,,,,,,,,810,22,V,R,2026-02-23_11h44.01.371,VisualSearch_2526_3,,2025.2.4,2026-02-23 11h44.01.588044 +0100,
tilted.xlsx,The target is tilted.,117,3,3,0,0,1,1,1,1,1,1,1,1,1,1,1,1,11,12,117,space,8.845383800000036,None,1,0,2.3873333999999886,None,,,,0,0,0,0,0,3,3,4,,,,,91.74831170000016,,,,,,,,,,,,,,,,,,,,,91.73300020000033,91.74831170000016,92.23221730000023,92.2367948000001,92.25369219999993,94.64901020000025,1,0,2.3873333999999886,None,94.64919839999993,94.66408369999999,94.86432150000019,94.84806960000014,92.25369219999993,,,,,,,,,,,,,,,,,,,810,22,V,R,2026-02-23_11h44.01.371,VisualSearch_2526_3,,2025.2.4,2026-02-23 11h44.01.588044 +0100,
tilted.xlsx,The target is tilted.,117,4,4,0,1,1,1,1,1,1,1,1,1,1,1,1,0,11,12,117,space,8.845383800000036,None,1,1,2.9136524999998983,None,,,,0,0,0,0,0,4,4,0,,,,,94.86432150000019,,,,,,,,,,,,,,,,,,,,,94.84871640000028,94.86432150000019,95.34820200000013,95.35313059999999,95.37056200000006,98.29796570000008,1,1,2.9136524999998983,None,98.29809999999998,98.31347400000004,98.51414950000026,98.49777250000034,95.37056200000006,,,,,,,,,,,,,,,,,,,810,22,V,R,2026-02-23_11h44.01.371,VisualSearch_2526_3,,2025.2.4,2026-02-23 11h44.01.588044 +0100,
tilted.xlsx,The target is tilted.,117,5,5,0,0,1,1,1,0,0,0,0,0,0,0,0,1,3,4,117,space,8.845383800000036,None,0,1,1.9465386000001672,None,,,,0,0,0,0,0,5,5,6,,,,,98.51414950000026,,,,,,,,,,,,,,,,,,,,,98.49843420000025,98.51414950000026,98.9976216,99.00221409999995,99.01865889999999,100.9807106000003,0,1,1.9465386000001672,None,100.98088550000011,100.99644900000021,101.19672840000021,101.18076390000033,99.01865889999999,,,,,,,,,,,,,,,,,,,810,22,V,R,2026-02-23_11h44.01.371,VisualSearch_2526_3,,2025.2.4,2026-02-23 11h44.01.588044 +0100,
tilted.xlsx,The target is tilted.,117,6,6,0,1,1,1,1,1,1,1,1,0,0,0,0,0,7,8,117,space,8.845383800000036,None,1,1,1.384087400000226,None,,,,0,0,0,0,0,6,6,1,,,,,101.19672840000021,,,,,,,,,,,,,,,,,,,,,101.18142990000024,101.19672840000021,101.6808930000002,101.68554220000033,101.70109120000006,103.09732639999993,1,1,1.384087400000226,None,103.09753660000024,103.11294799999996,103.31327280000005,103.29725090000011,101.70109120000006,,,,,,,,,,,,,,,,,,,810,22,V,R,2026-02-23_11h44.01.371,VisualSearch_2526_3,,2025.2.4,2026-02-23 11h44.01.588044 +0100,
tilted.xlsx,The target is tilted.,117,7,7,0,0,1,1,1,1,1,1,1,0,0,0,0,1,7,8,117,space,8.845383800000036,None,1,0,5.4813985000000685,None,,,,0,0,0,0,0,7,7,5,,,,,103.31327280000005,,,,,,,,,,,,,,,,,,,,,103.2978948,103.31327280000005,103.79733460000034,103.80259019999994,103.81949609999992,109.31295470000032,1,0,5.4813985000000685,None,109.31314250000014,109.32860200000005,109.52882100000033,109.51305540000021,103.81949609999992,,,,,,,,,,,,,,,,,,,810,22,V,R,2026-02-23_11h44.01.371,VisualSearch_2526_3,,2025.2.4,2026-02-23 11h44.01.588044 +0100,
tilted.xlsx,The target is tilted.,117,0,0,0,1,1,1,1,1,1,1,1,1,1,1,1,0,11,12,117,space,8.845383800000036,None,1,1,9.250652799999898,None,space,3.869676000000254,None,0,0,0,0,,,,,0,0,0,0,113.44382029999997,,,,,,,,,,,,,,,,,,,,,113.43971760000022,113.44382029999997,113.92883299999994,113.93363160000035,113.95082660000025,123.21140820000028,,,,,123.21159830000033,123.22667570000021,123.42688440000029,123.41111530000035,,109.5200017000002,109.52882100000033,109.52882100000033,113.41273080000019,space,3.869676000000254,None,1,1,9.250652799999898,None,,,,,,,,810,22,V,R,2026-02-23_11h44.01.371,VisualSearch_2526_3,,2025.2.4,2026-02-23 11h44.01.588044 +0100,
tilted.xlsx,The target is tilted.,117,1,1,0,1,1,1,1,0,0,0,0,0,0,0,0,0,3,4,117,space,8.845383800000036,None,1,1,2.603345399999853,None,space,3.869676000000254,None,0,0,0,0,,,,,0,1,1,2,123.42688440000029,,,,,,,,,,,,,,,,,,,,,123.41193680000015,123.42688440000029,123.91081609999992,123.91547209999999,123.93169800000032,126.54452850000007,,,,,126.54472860000033,126.55949009999995,126.75991969999995,126.74353070000006,123.93169800000032,,,,,,,,1,1,2.603345399999853,None,,,,,,,,810,22,V,R,2026-02-23_11h44.01.371,VisualSearch_2526_3,,2025.2.4,2026-02-23 11h44.01.588044 +0100,
tilted.xlsx,The target is tilted.,117,2,2,0,1,0,0,0,0,0,0,0,0,0,0,0,0,0,1,117,space,8.845383800000036,None,1,1,1.135463399999935,None,space,3.869676000000254,None,0,0,0,0,,,,,0,2,2,3,126.75991969999995,,,,,,,,,,,,,,,,,,,,,126.74410960000023,126.75991969999995,127.24393080000027,127.24887480000007,127.26455680000026,128.41090510000004,,,,,128.41110830000025,128.42583530000002,128.6261488,128.61033700000007,127.26455680000026,,,,,,,,1,1,1.135463399999935,None,,,,,,,,810,22,V,R,2026-02-23_11h44.01.371,VisualSearch_2526_3,,2025.2.4,2026-02-23 11h44.01.588044 +0100,
tilted.xlsx,The target is tilted.,117,3,3,0,1,1,1,1,1,1,1,1,0,0,0,0,0,7,8,117,space,8.845383800000036,None,1,1,1.6203840000002856,None,space,3.869676000000254,None,0,0,0,0,,,,,0,3,3,1,128.6261488,,,,,,,,,,,,,,,,,,,,,128.61106020000034,128.6261488,129.11014980000027,129.11482350000006,129.13058960000035,130.76065289999997,,,,,130.76088400000026,130.77558980000003,130.9762509000002,130.96007110000028,129.13058960000035,,,,,,,,1,1,1.6203840000002856,None,,,,,,,,810,22,V,R,2026-02-23_11h44.01.371,VisualSearch_2526_3,,2025.2.4,2026-02-23 11h44.01.588044 +0100,
tilted.xlsx,The target is tilted.,117,4,4,0,0,1,1,1,1,1,1,1,1,1,1,1,1,11,12,117,space,8.845383800000036,None,0,1,4.242702800000188,None,space,3.869676000000254,None,0,0,0,0,,,,,0,4,4,4,130.9762509000002,,,,,,,,,,,,,,,,,,,,,130.96088420000024,130.9762509000002,131.45973970000023,131.46477870000035,131.4802612000003,135.72626830000036,,,,,135.7264722,135.74152099999992,135.9417800000001,135.92570250000017,131.4802612000003,,,,,,,,0,1,4.242702800000188,None,,,,,,,,810,22,V,R,2026-02-23_11h44.01.371,VisualSearch_2526_3,,2025.2.4,2026-02-23 11h44.01.588044 +0100,
tilted.xlsx,The target is tilted.,117,5,5,0,0,1,1,1,1,1,1,1,0,0,0,0,1,7,8,117,space,8.845383800000036,None,1,0,5.444240300000274,None,space,3.869676000000254,None,0,0,0,0,,,,,0,5,5,5,135.9417800000001,,,,,,,,,,,,,,,,,,,,,135.92652429999998,135.9417800000001,136.4259105000001,136.43064630000026,136.44661020000012,141.89200310000024,,,,,141.8922080000002,141.90738800000008,142.10788739999998,142.09202170000026,136.44661020000012,,,,,,,,1,0,5.444240300000274,None,,,,,,,,810,22,V,R,2026-02-23_11h44.01.371,VisualSearch_2526_3,,2025.2.4,2026-02-23 11h44.01.588044 +0100,
tilted.xlsx,The target is tilted.,117,6,6,0,0,0,0,0,0,0,0,0,0,0,0,0,1,1,1,117,space,8.845383800000036,None,0,1,1.2047676000001957,None,space,3.869676000000254,None,0,0,0,0,,,,,0,6,6,7,142.10788739999998,,,,,,,,,,,,,,,,,,,,,142.09282639999992,142.10788739999998,142.59180400000014,142.59692190000032,142.6148016000002,143.82449480000014,,,,,143.82457969999996,143.8401057000001,144.04095400000006,144.02496440000004,142.6148016000002,,,,,,,,0,1,1.2047676000001957,None,,,,,,,,810,22,V,R,2026-02-23_11h44.01.371,VisualSearch_2526_3,,2025.2.4,2026-02-23 11h44.01.588044 +0100,
tilted.xlsx,The target is tilted.,117,7,7,0,0,1,1,1,0,0,0,0,0,0,0,0,1,3,4,117,space,8.845383800000036,None,0,1,2.200027500000033,None,space,3.869676000000254,None,0,0,0,0,,,,,0,7,7,6,144.04095400000006,,,,,,,,,,,,,,,,,,,,,144.02578500000027,144.04095400000006,144.52480490000016,144.52949630000012,144.54511430000002,146.7569821000002,,,,,146.75706089999994,146.77362140000014,146.9738583000003,146.95742470000005,144.54511430000002,,,,,,,,0,1,2.200027500000033,None,,,,,,,,810,22,V,R,2026-02-23_11h44.01.371,VisualSearch_2526_3,,2025.2.4,2026-02-23 11h44.01.588044 +0100,
tilted.xlsx,The target is tilted.,117,8,0,1,1,1,1,1,1,1,1,1,1,1,1,1,0,11,12,117,space,8.845383800000036,None,1,1,1.4667500999998992,None,space,3.869676000000254,None,0,0,0,0,,,,,1,0,8,0,146.9738583000003,,,,,,,,,,,,,,,,,,,,,146.9581618000002,146.9738583000003,147.4571688000001,147.46226260000003,147.4810867000001,148.95770290000019,,,,,148.9579044000002,148.97292740000012,149.17318950000026,149.15707120000025,,,,,,,,,1,1,1.4667500999998992,None,,,,,,,,810,22,V,R,2026-02-23_11h44.01.371,VisualSearch_2526_3,,2025.2.4,2026-02-23 11h44.01.588044 +0100,
tilted.xlsx,The target is tilted.,117,9,1,1,1,1,1,1,1,1,1,1,0,0,0,0,0,7,8,117,space,8.845383800000036,None,1,1,2.7429987000000438,None,space,3.869676000000254,None,0,0,0,0,,,,,1,1,9,1,149.17318950000026,,,,,,,,,,,,,,,,,,,,,149.15777750000007,149.17318950000026,149.65718940000033,149.6618080000003,149.67869180000025,152.4235209000003,,,,,152.42374340000015,152.43929180000032,152.63976720000028,152.62373270000035,149.67869180000025,,,,,,,,1,1,2.7429987000000438,None,,,,,,,,810,22,V,R,2026-02-23_11h44.01.371,VisualSearch_2526_3,,2025.2.4,2026-02-23 11h44.01.588044 +0100,
tilted.xlsx,The target is tilted.,117,10,2,1,1,1,1,1,0,0,0,0,0,0,0,0,0,3,4,117,space,8.845383800000036,None,1,1,0.9381588999999622,None,space,3.869676000000254,None,0,0,0,0,,,,,1,2,10,2,152.63976720000028,,,,,,,,,,,,,,,,,,,,,152.62453129999994,152.63976720000028,153.12352790000023,153.12817220000034,153.14569110000002,154.0903717000001,,,,,154.0905484,154.10546560000012,154.30616690000033,154.29002430000037,153.14569110000002,,,,,,,,1,1,0.9381588999999622,None,,,,,,,,810,22,V,R,2026-02-23_11h44.01.371,VisualSearch_2526_3,,2025.2.4,2026-02-23 11h44.01.588044 +0100,
tilted.xlsx,The target is tilted.,117,11,3,1,1,0,0,0,0,0,0,0,0,0,0,0,0,0,1,117,space,8.845383800000036,None,1,1,1.0013592000000244,None,space,3.869676000000254,None,0,0,0,0,,,,,1,3,11,3,154.30616690000033,,,,,,,,,,,,,,,,,,,,,154.2907269000002,154.30616690000033,154.7901036000003,154.79515340000034,154.81318660000034,155.82264120000036,,,,,155.82274600000028,155.8384328000002,,156.02297580000004,154.81318660000034,,,,,,,,1,1,1.0013592000000244,None,,,,,,,,810,22,V,R,2026-02-23_11h44.01.371,VisualSearch_2526_3,,2025.2.4,2026-02-23 11h44.01.588044 +0100,
tilted.xlsx,The target is tilted.,117,12,4,1,0,1,1,1,1,1,1,1,0,0,0,0,1,7,8,117,space,8.845383800000036,None,1,0,1.4351941999998417,None,space,3.869676000000254,None,0,0,0,0,,,,,1,4,12,5,156.03914320000013,,,,,,,,,,,,,,,,,,,,,156.02425080000012,156.03914320000013,156.52288790000011,156.52804650000007,156.54515919999994,157.99001420000013,,,,,157.99021370000037,158.0049782000001,158.20523100000037,158.1893731,,,,,,,,,1,0,1.4351941999998417,None,,,,,,,,810,22,V,R,2026-02-23_11h44.01.371,VisualSearch_2526_3,,2025.2.4,2026-02-23 11h44.01.588044 +0100,
tilted.xlsx,The target is tilted.,117,13,5,1,0,0,0,0,0,0,0,0,0,0,0,0,1,1,1,117,space,8.845383800000036,None,0,1,0.6711942000001727,None,space,3.869676000000254,None,0,0,0,0,,,,,1,5,13,7,158.20523100000037,,,,,,,,,,,,,,,,,,,,,158.19010100000014,158.20523100000037,158.6893653000002,158.69404140000006,158.71117390000018,159.38930690000007,,,,,159.38939310000023,159.40468439999995,159.60507619999998,159.58926950000023,158.71117390000018,,,,,,,,0,1,0.6711942000001727,None,,,,,,,,810,22,V,R,2026-02-23_11h44.01.371,VisualSearch_2526_3,,2025.2.4,2026-02-23 11h44.01.588044 +0100,
tilted.xlsx,The target is tilted.,117,14,6,1,0,1,1,1,1,1,1,1,1,1,1,1,1,11,12,117,space,8.845383800000036,None,1,0,2.6290407000001323,None,space,3.869676000000254,None,0,0,0,0,,,,,1,6,14,4,159.60507619999998,,,,,,,,,,,,,,,,,,,,,159.59009360000027,159.60507619999998,160.08911880000005,160.09375550000004,160.10935599999993,162.7553393000003,,,,,162.75557340000023,162.77096930000016,162.97164599999996,162.9556104000003,160.10935599999993,,,,,,,,1,0,2.6290407000001323,None,,,,,,,,810,22,V,R,2026-02-23_11h44.01.371,VisualSearch_2526_3,,2025.2.4,2026-02-23 11h44.01.588044 +0100,
tilted.xlsx,The target is tilted.,117,15,7,1,0,1,1,1,0,0,0,0,0,0,0,0,1,3,4,117,space,8.845383800000036,None,0,1,1.532081400000152,None,space,3.869676000000254,None,0,0,0,0,,,,,1,7,15,6,162.97164599999996,,,,,,,,,,,,,,,,,,,,,162.95640690000027,162.97164599999996,163.45540269999992,163.46012710000014,163.4772151000002,165.02155549999998,,,,,165.0217358,165.03740180000023,165.23748030000024,165.22191479999992,163.4772151000002,,,,,,,,0,1,1.532081400000152,None,,,,,,,,810,22,V,R,2026-02-23_11h44.01.371,VisualSearch_2526_3,,2025.2.4,2026-02-23 11h44.01.588044 +0100,
tilted.xlsx,The target is tilted.,117,16,0,2,1,1,1,1,1,1,1,1,1,1,1,1,0,11,12,117,space,8.845383800000036,None,1,1,1.050587099999575,None,space,3.869676000000254,None,0,0,0,0,,,,,2,0,16,0,165.23748030000024,,,,,,,,,,,,,,,,,,,,,165.2227098000003,165.23748030000024,165.7217799,165.7272237000002,165.7422776000003,166.80440390000012,,,,,166.80454520000012,166.82050590000017,167.02092850000008,167.00479760000007,165.7422776000003,,,,,,,,1,1,1.050587099999575,None,,,,,,,,810,22,V,R,2026-02-23_11h44.01.371,VisualSearch_2526_3,,2025.2.4,2026-02-23 11h44.01.588044 +0100,
tilted.xlsx,The target is tilted.,117,17,1,2,0,0,0,0,0,0,0,0,0,0,0,0,1,1,1,117,space,8.845383800000036,None,0,1,0.8215205999999853,None,space,3.869676000000254,None,0,0,0,0,,,,,2,1,17,7,167.02092850000008,,,,,,,,,,,,,,,,,,,,,167.00550680000015,167.02092850000008,167.50481790000003,167.50953400000026,167.5267847,168.35533560000022,,,,,168.35555120000026,168.37019039999996,168.57077270000036,168.55466990000014,167.5267847,,,,,,,,0,1,0.8215205999999853,None,,,,,,,,810,22,V,R,2026-02-23_11h44.01.371,VisualSearch_2526_3,,2025.2.4,2026-02-23 11h44.01.588044 +0100,
tilted.xlsx,The target is tilted.,117,18,2,2,1,1,1,1,1,1,1,1,0,0,0,0,0,7,8,117,space,8.845383800000036,None,1,1,1.8876381000000038,None,space,3.869676000000254,None,0,0,0,0,,,,,2,2,18,1,168.57077270000036,,,,,,,,,,,,,,,,,,,,,168.55537330000016,168.57077270000036,169.05459700000029,169.05920970000034,169.07685029999993,170.9711798000003,,,,,170.97136980000005,170.98647680000022,171.18681000000015,171.17057980000027,169.07685029999993,,,,,,,,1,1,1.8876381000000038,None,,,,,,,,810,22,V,R,2026-02-23_11h44.01.371,VisualSearch_2526_3,,2025.2.4,2026-02-23 11h44.01.588044 +0100,
tilted.xlsx,The target is tilted.,117,19,3,2,1,0,0,0,0,0,0,0,0,0,0,0,0,0,1,117,space,8.845383800000036,None,1,1,0.8847894000000451,None,space,3.869676000000254,None,0,0,0,0,,,,,2,3,19,3,171.18681000000015,,,,,,,,,,,,,,,,,,,,,171.17128230000026,171.18681000000015,171.6710078000001,171.67620579999993,171.6927796,172.5877174000002,,,,,172.58791770000016,172.60287900000003,172.80343429999994,172.7871943,171.6927796,,,,,,,,1,1,0.8847894000000451,None,,,,,,,,810,22,V,R,2026-02-23_11h44.01.371,VisualSearch_2526_3,,2025.2.4,2026-02-23 11h44.01.588044 +0100,
tilted.xlsx,The target is tilted.,117,20,4,2,0,1,1,1,0,0,0,0,0,0,0,0,1,3,4,117,space,8.845383800000036,None,0,1,1.7007673999996769,None,space,3.869676000000254,None,0,0,0,0,,,,,2,4,20,6,172.80343429999994,,,,,,,,,,,,,,,,,,,,,172.78799470000013,172.80343429999994,173.28712020000012,173.29182919999994,173.3032962000002,175.0194732,,,,,175.0195573000001,175.03604010000026,,175.22014179999996,173.3032962000002,,,,,,,,0,1,1.7007673999996769,None,,,,,,,,810,22,V,R,2026-02-23_11h44.01.371,VisualSearch_2526_3,,2025.2.4,2026-02-23 11h44.01.588044 +0100,
tilted.xlsx,The target is tilted.,117,21,5,2,0,1,1,1,1,1,1,1,1,1,1,1,1,11,12,117,space,8.845383800000036,None,0,1,3.546406299999944,None,space,3.869676000000254,None,0,0,0,0,,,,,2,5,21,4,175.23651770000015,,,,,,,,,,,,,,,,,,,,,175.22099860000026,175.23651770000015,175.71999950000009,175.72472319999997,175.74046980000003,179.30285500000036,,,,,179.3030364000001,179.31855080000014,179.51916840000013,179.50265179999997,,,,,,,,,0,1,3.546406299999944,None,,,,,,,,810,22,V,R,2026-02-23_11h44.01.371,VisualSearch_2526_3,,2025.2.4,2026-02-23 11h44.01.588044 +0100,
tilted.xlsx,The target is tilted.,117,22,6,2,1,1,1,1,0,0,0,0,0,0,0,0,0,3,4,117,space,8.845383800000036,None,1,1,0.8252457999997205,None,space,3.869676000000254,None,0,0,0,0,,,,,2,6,22,2,179.51916840000013,,,,,,,,,,,,,,,,,,,,,179.5033923000001,179.51916840000013,180.00314170000001,180.00821580000002,180.02476449999995,180.85336770000004,,,,,180.85356660000025,180.86840200000006,181.06926520000025,181.0529775,180.02476449999995,,,,,,,,1,1,0.8252457999997205,None,,,,,,,,810,22,V,R,2026-02-23_11h44.01.371,VisualSearch_2526_3,,2025.2.4,2026-02-23 11h44.01.588044 +0100,
tilted.xlsx,The target is tilted.,117,23,7,2,0,1,1,1,1,1,1,1,0,0,0,0,1,7,8,117,space,8.845383800000036,None,1,0,1.7091190000001006,None,space,3.869676000000254,None,0,0,0,0,,,,,2,7,23,5,181.06926520000025,,,,,,,,,,,,,,,,,,,,,181.05380650000006,181.06926520000025,181.5528008000001,181.55742250000003,181.57300179999993,183.2861041000001,,,,,183.28630300000032,183.30138090000037,183.50185800000008,183.48534240000026,181.57300179999993,,,,,,,,1,0,1.7091190000001006,None,,,,,,,,810,22,V,R,2026-02-23_11h44.01.371,VisualSearch_2526_3,,2025.2.4,2026-02-23 11h44.01.588044 +0100,
tilted.xlsx,The target is tilted.,117,24,0,3,1,1,1,1,0,0,0,0,0,0,0,0,0,3,4,117,space,8.845383800000036,None,1,1,0.9028104000003623,None,space,3.869676000000254,None,0,0,0,0,,,,,3,0,24,2,183.50185800000008,,,,,,,,,,,,,,,,,,,,,183.48614300000008,183.50185800000008,183.9859878000002,183.99123510000027,184.00782600000002,184.91911580000033,,,,,184.9193164000003,184.93456590000005,185.1350867000001,185.11888480000016,184.00782600000002,,,,,,,,1,1,0.9028104000003623,None,,,,,,,,810,22,V,R,2026-02-23_11h44.01.371,VisualSearch_2526_3,,2025.2.4,2026-02-23 11h44.01.588044 +0100,
tilted.xlsx,The target is tilted.,117,25,1,3,1,1,1,1,1,1,1,1,0,0,0,0,0,7,8,117,space,8.845383800000036,None,1,1,1.0559502000000975,None,space,3.869676000000254,None,0,0,0,0,,,,,3,1,25,1,185.1350867000001,,,,,,,,,,,,,,,,,,,,,185.11958589999995,185.1350867000001,185.61871090000022,185.62315940000008,185.63480389999995,186.7023747000003,,,,,186.7025547000003,186.71756670000013,186.91804920000004,186.90205319999995,185.63480389999995,,,,,,,,1,1,1.0559502000000975,None,,,,,,,,810,22,V,R,2026-02-23_11h44.01.371,VisualSearch_2526_3,,2025.2.4,2026-02-23 11h44.01.588044 +0100,
tilted.xlsx,The target is tilted.,117,26,2,3,1,1,1,1,1,1,1,1,1,1,1,1,0,11,12,117,space,8.845383800000036,None,1,1,1.0388926999999057,None,space,3.869676000000254,None,0,0,0,0,,,,,3,2,26,0,186.91804920000004,,,,,,,,,,,,,,,,,,,,,186.90275969999993,186.91804920000004,187.40187620000006,187.4064983000003,187.42366250000032,188.4689857000003,,,,,188.4691874,188.48401950000016,188.68412990000024,188.66795270000011,187.42366250000032,,,,,,,,1,1,1.0388926999999057,None,,,,,,,,810,22,V,R,2026-02-23_11h44.01.371,VisualSearch_2526_3,,2025.2.4,2026-02-23 11h44.01.588044 +0100,
tilted.xlsx,The target is tilted.,117,27,3,3,0,1,1,1,1,1,1,1,1,1,1,1,1,11,12,117,space,8.845383800000036,None,1,0,1.396333599999707,None,space,3.869676000000254,None,0,0,0,0,,,,,3,3,27,4,188.68412990000024,,,,,,,,,,,,,,,,,,,,,188.66868980000027,188.68412990000024,189.16841150000027,189.17371330000014,189.1904211000001,190.6013326000002,,,,,190.60146050000003,190.61679810000032,190.81716870000037,190.8010859000001,189.1904211000001,,,,,,,,1,0,1.396333599999707,None,,,,,,,,810,22,V,R,2026-02-23_11h44.01.371,VisualSearch_2526_3,,2025.2.4,2026-02-23 11h44.01.588044 +0100,
tilted.xlsx,The target is tilted.,117,28,4,3,0,1,1,1,0,0,0,0,0,0,0,0,1,3,4,117,space,8.845383800000036,None,0,1,1.8906850000003033,None,space,3.869676000000254,None,0,0,0,0,,,,,3,4,28,6,190.81716870000037,,,,,,,,,,,,,,,,,,,,,190.8018221000002,190.81716870000037,191.30141820000017,191.3061885000002,191.3249221000001,193.21809620000022,,,,,193.21830279999995,193.23331009999993,193.43383680000034,193.41755039999998,191.3249221000001,,,,,,,,0,1,1.8906850000003033,None,,,,,,,,810,22,V,R,2026-02-23_11h44.01.371,VisualSearch_2526_3,,2025.2.4,2026-02-23 11h44.01.588044 +0100,
tilted.xlsx,The target is tilted.,117,29,5,3,1,0,0,0,0,0,0,0,0,0,0,0,0,0,1,117,space,8.845383800000036,None,1,1,1.1100864000000001,None,space,3.869676000000254,None,0,0,0,0,,,,,3,5,29,3,193.43383680000034,,,,,,,,,,,,,,,,,,,,,193.41837329999998,193.43383680000034,193.91743560000032,193.9222721000001,193.93332980000014,195.05104520000032,,,,,195.05124400000022,195.0662970000003,195.26671440000018,195.25074710000035,193.93332980000014,,,,,,,,1,1,1.1100864000000001,None,,,,,,,,810,22,V,R,2026-02-23_11h44.01.371,VisualSearch_2526_3,,2025.2.4,2026-02-23 11h44.01.588044 +0100,
tilted.xlsx,The target is tilted.,117,30,6,3,0,0,0,0,0,0,0,0,0,0,0,0,1,1,1,117,space,8.845383800000036,None,0,1,0.8965624000002208,None,space,3.869676000000254,None,0,0,0,0,,,,,3,6,30,7,195.26671440000018,,,,,,,,,,,,,,,,,,,,,195.25156270000025,195.26671440000018,195.75085290000015,195.75572250000005,195.7743091000002,196.68312719999994,,,,,196.6832104,196.69983430000002,,196.88365730000032,195.7743091000002,,,,,,,,0,1,0.8965624000002208,None,,,,,,,,810,22,V,R,2026-02-23_11h44.01.371,VisualSearch_2526_3,,2025.2.4,2026-02-23 11h44.01.588044 +0100,
tilted.xlsx,The target is tilted.,117,31,7,3,0,1,1,1,1,1,1,1,0,0,0,0,1,7,8,117,space,8.845383800000036,None,1,0,4.009086000000025,None,space,3.869676000000254,None,0,0,0,0,,,,,3,7,31,5,196.89998550000018,,,,,,,,,,,,,,,,,,,,,196.88441360000024,196.89998550000018,197.38366450000012,197.38900790000025,197.40616930000033,201.4171352000003,,,,,201.41734270000006,201.43211250000013,201.63269990000026,201.61628910000036,,,,,,,,,1,0,4.009086000000025,None,,,,,,,,810,22,V,R,2026-02-23_11h44.01.371,VisualSearch_2526_3,,2025.2.4,2026-02-23 11h44.01.588044 +0100,
tilted.xlsx,The target is tilted.,117,32,0,4,1,1,1,1,1,1,1,1,1,1,1,1,0,11,12,117,space,8.845383800000036,None,1,1,2.9716631999999663,None,space,3.869676000000254,None,0,0,0,0,,,,,4,0,32,0,201.63269990000026,,,,,,,,,,,,,,,,,,,,,201.6171058,201.63269990000026,202.11652129999993,202.12115200000017,202.13788010000007,205.11649820000002,,,,,205.11668240000017,205.13153250000005,205.3321887000002,205.31606820000025,202.13788010000007,,,,,,,,1,1,2.9716631999999663,None,,,,,,,,810,22,V,R,2026-02-23_11h44.01.371,VisualSearch_2526_3,,2025.2.4,2026-02-23 11h44.01.588044 +0100,
tilted.xlsx,The target is tilted.,117,33,1,4,0,1,1,1,1,1,1,1,0,0,0,0,1,7,8,117,space,8.845383800000036,None,1,0,4.077632499999709,None,space,3.869676000000254,None,0,0,0,0,,,,,4,1,33,5,205.3321887000002,,,,,,,,,,,,,,,,,,,,,205.31681079999998,205.3321887000002,205.81586199999992,205.8207322000003,205.8318363000003,209.91584590000002,,,,,209.91604870000037,209.93092410000008,210.13149810000004,210.11523680000028,205.8318363000003,,,,,,,,1,0,4.077632499999709,None,,,,,,,,810,22,V,R,2026-02-23_11h44.01.371,VisualSearch_2526_3,,2025.2.4,2026-02-23 11h44.01.588044 +0100,
tilted.xlsx,The target is tilted.,117,34,2,4,1,1,1,1,0,0,0,0,0,0,0,0,0,3,4,117,space,8.845383800000036,None,1,1,2.317542499999945,None,space,3.869676000000254,None,0,0,0,0,,,,,4,2,34,2,210.13149810000004,,,,,,,,,,,,,,,,,,,,,210.1159872000003,210.13149810000004,210.61506710000003,210.61985330000016,210.63700510000035,212.96534250000013,,,,,212.96552539999993,212.98048850000032,213.18071180000015,213.16478370000004,210.63700510000035,,,,,,,,1,1,2.317542499999945,None,,,,,,,,810,22,V,R,2026-02-23_11h44.01.371,VisualSearch_2526_3,,2025.2.4,2026-02-23 11h44.01.588044 +0100,
tilted.xlsx,The target is tilted.,117,35,3,4,1,0,0,0,0,0,0,0,0,0,0,0,0,0,1,117,space,8.845383800000036,None,1,1,0.685660199999802,None,space,3.869676000000254,None,0,0,0,0,,,,,4,3,35,3,213.18071180000015,,,,,,,,,,,,,,,,,,,,,213.16560960000015,213.18071180000015,213.66503520000015,213.67011700000012,213.68682519999993,214.38250199999993,,,,,214.38270340000008,214.39702880000004,214.5973637000002,214.5812721000002,213.68682519999993,,,,,,,,1,1,0.685660199999802,None,,,,,,,,810,22,V,R,2026-02-23_11h44.01.371,VisualSearch_2526_3,,2025.2.4,2026-02-23 11h44.01.588044 +0100,
tilted.xlsx,The target is tilted.,117,36,4,4,0,1,1,1,1,1,1,1,1,1,1,1,1,11,12,117,space,8.845383800000036,None,1,0,6.6551250000002256,None,space,3.869676000000254,None,0,0,0,0,,,,,4,4,36,4,214.5973637000002,,,,,,,,,,,,,,,,,,,,,214.58201720000034,214.5973637000002,215.08131070000036,215.08588660000032,215.10138589999997,221.76384300000018,,,,,221.76406720000023,221.77921970000034,221.97975380000025,221.96379969999998,215.10138589999997,,,,,,,,1,0,6.6551250000002256,None,,,,,,,,810,22,V,R,2026-02-23_11h44.01.371,VisualSearch_2526_3,,2025.2.4,2026-02-23 11h44.01.588044 +0100,
tilted.xlsx,The target is tilted.,117,37,5,4,0,1,1,1,0,0,0,0,0,0,0,0,1,3,4,117,space,8.845383800000036,None,0,1,0.9280712999998286,None,space,3.869676000000254,None,0,0,0,0,,,,,4,5,37,6,221.97975380000025,,,,,,,,,,,,,,,,,,,,,221.9647070000001,221.97975380000025,222.46375340000031,222.4691917,222.48574880000024,223.42995880000035,,,,,223.43018340000026,223.44557410000016,223.64605100000017,223.62996169999997,222.48574880000024,,,,,,,,0,1,0.9280712999998286,None,,,,,,,,810,22,V,R,2026-02-23_11h44.01.371,VisualSearch_2526_3,,2025.2.4,2026-02-23 11h44.01.588044 +0100,
tilted.xlsx,The target is tilted.,117,38,6,4,0,0,0,0,0,0,0,0,0,0,0,0,1,1,1,117,space,8.845383800000036,None,0,1,0.9904160999999476,None,space,3.869676000000254,None,0,0,0,0,,,,,4,6,38,7,223.64605100000017,,,,,,,,,,,,,,,,,,,,,223.63071030000037,223.64605100000017,224.1301281000001,224.13537459999998,224.152916,225.14659419999998,,,,,225.14677840000013,225.16206779999993,225.36232540000037,225.34676780000018,224.152916,,,,,,,,0,1,0.9904160999999476,None,,,,,,,,810,22,V,R,2026-02-23_11h44.01.371,VisualSearch_2526_3,,2025.2.4,2026-02-23 11h44.01.588044 +0100,
tilted.xlsx,The target is tilted.,117,39,7,4,1,1,1,1,1,1,1,1,0,0,0,0,0,7,8,117,space,8.845383800000036,None,1,1,0.9634142999998403,None,space,3.869676000000254,None,0,0,0,0,,,,,4,7,39,1,225.36232540000037,,,,,,,,,,,,,,,,,,,,,225.34754599999997,225.36232540000037,225.8463495000001,225.85099960000025,225.86801830000013,226.84626860000026,,,,,226.8463673000001,226.8615694,227.06239830000004,227.04620980000027,225.86801830000013,,,,,,,,1,1,0.9634142999998403,None,,,,,,,,810,22,V,R,2026-02-23_11h44.01.371,VisualSearch_2526_3,,2025.2.4,2026-02-23 11h44.01.588044 +0100,
tilted.xlsx,The target is tilted.,117,40,0,5,0,1,1,1,1,1,1,1,0,0,0,0,1,7,8,117,space,8.845383800000036,None,1,0,3.3215291999999863,None,space,3.869676000000254,None,0,0,0,0,,,,,5,0,40,5,227.06239830000004,,,,,,,,,,,,,,,,,,,,,227.04692260000002,227.06239830000004,227.5451049000003,227.54737550000027,227.56210520000013,230.89577480000025,,,,,230.89598079999996,230.91134300000022,231.1118689,231.0957982,227.56210520000013,,,,,,,,1,0,3.3215291999999863,None,,,,,,,,810,22,V,R,2026-02-23_11h44.01.371,VisualSearch_2526_3,,2025.2.4,2026-02-23 11h44.01.588044 +0100,
tilted.xlsx,The target is tilted.,117,41,1,5,1,1,1,1,0,0,0,0,0,0,0,0,0,3,4,117,space,8.845383800000036,None,1,1,0.9443062999998801,None,space,3.869676000000254,None,0,0,0,0,,,,,5,1,41,2,231.1118689,,,,,,,,,,,,,,,,,,,,,231.09667320000017,231.1118689,231.59575620000032,231.60090949999994,231.61816080000017,232.57848990000002,,,,,232.5786846000001,232.59425480000027,232.79480030000013,232.77880189999996,231.61816080000017,,,,,,,,1,1,0.9443062999998801,None,,,,,,,,810,22,V,R,2026-02-23_11h44.01.371,VisualSearch_2526_3,,2025.2.4,2026-02-23 11h44.01.588044 +0100,
tilted.xlsx,The target is tilted.,117,42,2,5,1,0,0,0,0,0,0,0,0,0,0,0,0,0,1,117,space,8.845383800000036,None,1,1,0.7464385000002949,None,space,3.869676000000254,None,0,0,0,0,,,,,5,2,42,3,232.79480030000013,,,,,,,,,,,,,,,,,,,,,232.77962760000037,232.79480030000013,233.27881240000033,233.2841129000003,233.30020890000014,234.06187480000017,,,,,234.06207700000004,234.07750400000032,234.27802370000018,234.2620111000001,233.30020890000014,,,,,,,,1,1,0.7464385000002949,None,,,,,,,,810,22,V,R,2026-02-23_11h44.01.371,VisualSearch_2526_3,,2025.2.4,2026-02-23 11h44.01.588044 +0100,
tilted.xlsx,The target is tilted.,117,43,3,5,0,1,1,1,0,0,0,0,0,0,0,0,1,3,4,117,space,8.845383800000036,None,0,1,1.9973269000001892,None,space,3.869676000000254,None,0,0,0,0,,,,,5,3,43,6,234.27802370000018,,,,,,,,,,,,,,,,,,,,,234.2628863,234.27802370000018,234.76070299999992,234.76192059999994,234.77765320000026,236.77840719999995,,,,,236.77858540000034,236.79371830000036,236.99433150000004,236.9782468000003,234.77765320000026,,,,,,,,0,1,1.9973269000001892,None,,,,,,,,810,22,V,R,2026-02-23_11h44.01.371,VisualSearch_2526_3,,2025.2.4,2026-02-23 11h44.01.588044 +0100,
tilted.xlsx,The target is tilted.,117,44,4,5,0,0,0,0,0,0,0,0,0,0,0,0,1,1,1,117,space,8.845383800000036,None,0,1,0.7165989999998601,None,space,3.869676000000254,None,0,0,0,0,,,,,5,4,44,7,236.99433150000004,,,,,,,,,,,,,,,,,,,,,236.97907490000034,236.99433150000004,237.4778341000001,237.48312480000004,237.49950190000027,238.22793960000035,,,,,238.22814210000024,238.24356290000014,238.44344189999993,238.42751510000016,237.49950190000027,,,,,,,,0,1,0.7165989999998601,None,,,,,,,,810,22,V,R,2026-02-23_11h44.01.371,VisualSearch_2526_3,,2025.2.4,2026-02-23 11h44.01.588044 +0100,
tilted.xlsx,The target is tilted.,117,45,5,5,1,1,1,1,1,1,1,1,0,0,0,0,0,7,8,117,space,8.845383800000036,None,1,1,2.244916699999976,None,space,3.869676000000254,None,0,0,0,0,,,,,5,5,45,1,238.44344189999993,,,,,,,,,,,,,,,,,,,,,238.42821970000023,238.44344189999993,238.92760540000017,238.93229310000015,238.94792050000024,241.1948636000002,,,,,241.1950855,241.20982890000005,241.41035390000025,241.39415420000023,238.94792050000024,,,,,,,,1,1,2.244916699999976,None,,,,,,,,810,22,V,R,2026-02-23_11h44.01.371,VisualSearch_2526_3,,2025.2.4,2026-02-23 11h44.01.588044 +0100,
tilted.xlsx,The target is tilted.,117,46,6,5,0,1,1,1,1,1,1,1,1,1,1,1,1,11,12,117,space,8.845383800000036,None,1,0,1.2544066999998904,None,space,3.869676000000254,None,0,0,0,0,,,,,5,6,46,4,241.41035390000025,,,,,,,,,,,,,,,,,,,,,241.39487020000024,241.41035390000025,241.89371389999997,241.89831129999993,241.91020860000026,243.17724410000028,,,,,243.17747510000027,243.19282880000037,243.39342940000006,243.37713209999993,241.91020860000026,,,,,,,,1,0,1.2544066999998904,None,,,,,,,,810,22,V,R,2026-02-23_11h44.01.371,VisualSearch_2526_3,,2025.2.4,2026-02-23 11h44.01.588044 +0100,
tilted.xlsx,The target is tilted.,117,47,7,5,1,1,1,1,1,1,1,1,1,1,1,1,0,11,12,117,space,8.845383800000036,None,1,1,3.0286823999999797,None,space,3.869676000000254,None,0,0,0,0,,,,,5,7,47,0,243.39342940000006,,,,,,,,,,,,,,,,,,,,,243.37804910000023,243.39342940000006,243.87722150000036,243.88223540000035,243.8985944000001,246.94310029999997,,,,,246.94328440000027,246.95893720000004,247.15919680000025,247.14319390000037,243.8985944000001,,,,,,,,1,1,3.0286823999999797,None,,,,,,,,810,22,V,R,2026-02-23_11h44.01.371,VisualSearch_2526_3,,2025.2.4,2026-02-23 11h44.01.588044 +0100,
tilted.xlsx,The target is tilted.,117,48,0,6,1,0,0,0,0,0,0,0,0,0,0,0,0,0,1,117,space,8.845383800000036,None,1,1,0.6529661000004126,None,space,3.869676000000254,None,0,0,0,0,,,,,6,0,48,3,247.15919680000025,,,,,,,,,,,,,,,,,,,,,247.1439435000002,247.15919680000025,247.64297620000025,247.64759120000008,247.66523330000018,248.32666560000007,,,,,248.32686560000002,248.34192050000001,248.54257210000014,248.52656730000035,247.66523330000018,,,,,,,,1,1,0.6529661000004126,None,,,,,,,,810,22,V,R,2026-02-23_11h44.01.371,VisualSearch_2526_3,,2025.2.4,2026-02-23 11h44.01.588044 +0100,
tilted.xlsx,The target is tilted.,117,49,1,6,1,1,1,1,1,1,1,1,0,0,0,0,0,7,8,117,space,8.845383800000036,None,1,1,1.8339037000000644,None,space,3.869676000000254,None,0,0,0,0,,,,,6,1,49,1,248.54257210000014,,,,,,,,,,,,,,,,,,,,,248.52730569999994,248.54257210000014,249.0264930000003,249.03203610000037,249.04824850000023,250.89276139999993,,,,,250.8929390000003,250.90840490000028,251.10898620000034,251.09276279999995,249.04824850000023,,,,,,,,1,1,1.8339037000000644,None,,,,,,,,810,22,V,R,2026-02-23_11h44.01.371,VisualSearch_2526_3,,2025.2.4,2026-02-23 11h44.01.588044 +0100,
tilted.xlsx,The target is tilted.,117,50,2,6,0,1,1,1,1,1,1,1,0,0,0,0,1,7,8,117,space,8.845383800000036,None,1,0,1.3187477000001309,None,space,3.869676000000254,None,0,0,0,0,,,,,6,2,50,5,251.10898620000034,,,,,,,,,,,,,,,,,,,,,251.09348520000003,251.10898620000034,251.59278240000003,251.59748040000022,251.61563280000018,252.94312820000005,,,,,252.94333159999996,252.95779600000014,253.15859090000004,253.14257300000008,251.61563280000018,,,,,,,,1,0,1.3187477000001309,None,,,,,,,,810,22,V,R,2026-02-23_11h44.01.371,VisualSearch_2526_3,,2025.2.4,2026-02-23 11h44.01.588044 +0100,
tilted.xlsx,The target is tilted.,117,51,3,6,0,1,1,1,1,1,1,1,1,1,1,1,1,11,12,117,space,8.845383800000036,None,1,0,5.08466879999969,None,space,3.869676000000254,None,0,0,0,0,,,,,6,3,51,4,253.15859090000004,,,,,,,,,,,,,,,,,,,,,253.1433102000001,253.15859090000004,253.64238879999994,253.6470357000003,253.66386980000016,258.75888910000003,,,,,258.7591715000003,258.77390760000026,258.97433880000017,258.95800080000026,253.66386980000016,,,,,,,,1,0,5.08466879999969,None,,,,,,,,810,22,V,R,2026-02-23_11h44.01.371,VisualSearch_2526_3,,2025.2.4,2026-02-23 11h44.01.588044 +0100,
tilted.xlsx,The target is tilted.,117,52,4,6,1,1,1,1,1,1,1,1,1,1,1,1,0,11,12,117,space,8.845383800000036,None,1,1,6.802985299999818,None,space,3.869676000000254,None,0,0,0,0,,,,,6,4,52,0,258.97433880000017,,,,,,,,,,,,,,,,,,,,,258.95872150000014,258.97433880000017,259.4579278000001,259.4626204000001,259.4796133,266.2911882000003,,,,,266.29139110000006,266.30618589999995,266.5066028000001,266.4901172,259.4796133,,,,,,,,1,1,6.802985299999818,None,,,,,,,,810,22,V,R,2026-02-23_11h44.01.371,VisualSearch_2526_3,,2025.2.4,2026-02-23 11h44.01.588044 +0100,
tilted.xlsx,The target is tilted.,117,53,5,6,1,1,1,1,0,0,0,0,0,0,0,0,0,3,4,117,space,8.845383800000036,None,1,1,1.6191648000003624,None,space,3.869676000000254,None,0,0,0,0,,,,,6,5,53,2,266.5066028000001,,,,,,,,,,,,,,,,,,,,,266.49085660000037,266.5066028000001,266.9905555,266.99517749999995,267.0115979000002,268.6410513000001,,,,,268.6412856000002,268.6557917,268.85638910000034,268.8402252000001,267.0115979000002,,,,,,,,1,1,1.6191648000003624,None,,,,,,,,810,22,V,R,2026-02-23_11h44.01.371,VisualSearch_2526_3,,2025.2.4,2026-02-23 11h44.01.588044 +0100,
tilted.xlsx,The target is tilted.,117,54,6,6,0,1,1,1,0,0,0,0,0,0,0,0,1,3,4,117,space,8.845383800000036,None,0,1,1.6185754999996789,None,space,3.869676000000254,None,0,0,0,0,,,,,6,6,54,6,268.85638910000034,,,,,,,,,,,,,,,,,,,,,268.8409703000002,268.85638910000034,269.34030970000003,269.34550790000003,269.3608755,270.99053760000015,,,,,270.9912548000002,271.00546350000013,271.2061109000001,271.18990699999995,269.3608755,,,,,,,,0,1,1.6185754999996789,None,,,,,,,,810,22,V,R,2026-02-23_11h44.01.371,VisualSearch_2526_3,,2025.2.4,2026-02-23 11h44.01.588044 +0100,
tilted.xlsx,The target is tilted.,117,55,7,6,0,0,0,0,0,0,0,0,0,0,0,0,1,1,1,117,space,8.845383800000036,None,0,1,0.8740450000000237,None,space,3.869676000000254,None,0,0,0,0,,,,,6,7,55,7,271.2061109000001,,,,,,,,,,,,,,,,,,,,,271.190701,271.2061109000001,271.6894500000003,271.6940466000001,271.7058575000001,272.5903258000003,,,,,272.59053440000025,272.60530040000003,272.80586300000004,272.78968010000017,271.7058575000001,,,,,,,,0,1,0.8740450000000237,None,,,,,,,,810,22,V,R,2026-02-23_11h44.01.371,VisualSearch_2526_3,,2025.2.4,2026-02-23 11h44.01.588044 +0100,
tilted.xlsx,The target is tilted.,117,56,0,7,0,1,1,1,0,0,0,0,0,0,0,0,1,3,4,117,space,8.845383800000036,None,0,1,1.9140474999999242,None,space,3.869676000000254,None,0,0,0,0,,,,,7,0,56,6,272.80586300000004,,,,,,,,,,,,,,,,,,,,,272.79039250000005,272.80586300000004,273.28917490000003,273.29392310000003,273.3110220000003,275.2392049,,,,,275.2394072000002,275.2547692000003,275.4554172000003,275.43918180000037,273.3110220000003,,,,,,,,0,1,1.9140474999999242,None,,,,,,,,810,22,V,R,2026-02-23_11h44.01.371,VisualSearch_2526_3,,2025.2.4,2026-02-23 11h44.01.588044 +0100,
tilted.xlsx,The target is tilted.,117,57,1,7,0,0,0,0,0,0,0,0,0,0,0,0,1,1,1,117,space,8.845383800000036,None,0,1,0.6446568999999727,None,space,3.869676000000254,None,0,0,0,0,,,,,7,1,57,7,275.4554172000003,,,,,,,,,,,,,,,,,,,,,275.4399214,275.4554172000003,275.9392866000003,275.94431010000017,275.95507640000005,276.6060775000001,,,,,276.6062588,276.62131480000016,276.82168090000005,276.8056095000002,275.95507640000005,,,,,,,,0,1,0.6446568999999727,None,,,,,,,,810,22,V,R,2026-02-23_11h44.01.371,VisualSearch_2526_3,,2025.2.4,2026-02-23 11h44.01.588044 +0100,
tilted.xlsx,The target is tilted.,117,58,2,7,1,1,1,1,1,1,1,1,0,0,0,0,0,7,8,117,space,8.845383800000036,None,1,1,1.6179402000002483,None,space,3.869676000000254,None,0,0,0,0,,,,,7,2,58,1,276.82168090000005,,,,,,,,,,,,,,,,,,,,,276.8064379000002,276.82168090000005,277.3055763000002,277.31019670000023,277.32173390000025,278.95535500000005,,,,,278.95548210000015,278.9708335,279.17162180000014,279.1549522,277.32173390000025,,,,,,,,1,1,1.6179402000002483,None,,,,,,,,810,22,V,R,2026-02-23_11h44.01.371,VisualSearch_2526_3,,2025.2.4,2026-02-23 11h44.01.588044 +0100,
tilted.xlsx,The target is tilted.,117,59,3,7,1,0,0,0,0,0,0,0,0,0,0,0,0,0,1,117,space,8.845383800000036,None,1,1,0.5624053000001368,None,space,3.869676000000254,None,0,0,0,0,,,,,7,3,59,3,279.17162180000014,,,,,,,,,,,,,,,,,,,,,279.1556853000002,279.17162180000014,279.6554749000002,279.6603604000002,279.6776457000001,280.2547562,,,,,280.2548960000004,280.27083340000036,,280.45500489999995,279.6776457000001,,,,,,,,1,1,0.5624053000001368,None,,,,,,,,810,22,V,R,2026-02-23_11h44.01.371,VisualSearch_2526_3,,2025.2.4,2026-02-23 11h44.01.588044 +0100,
tilted.xlsx,The target is tilted.,117,60,4,7,0,1,1,1,1,1,1,1,1,1,1,1,1,11,12,117,space,8.845383800000036,None,1,0,1.0350413999999546,None,space,3.869676000000254,None,0,0,0,0,,,,,7,4,60,4,280.4712400000003,,,,,,,,,,,,,,,,,,,,,280.45576819999997,280.4712400000003,280.9551537000002,280.9602967999999,280.97710940000024,282.0221977000001,,,,,282.02239260000033,282.03723949999994,282.23770060000015,282.2217174000002,280.97710940000024,,,,,,,,1,0,1.0350413999999546,None,,,,,,,,810,22,V,R,2026-02-23_11h44.01.371,VisualSearch_2526_3,,2025.2.4,2026-02-23 11h44.01.588044 +0100,
tilted.xlsx,The target is tilted.,117,61,5,7,0,1,1,1,1,1,1,1,0,0,0,0,1,7,8,117,space,8.845383800000036,None,0,1,2.1745817999999417,None,space,3.869676000000254,None,0,0,0,0,,,,,7,5,61,5,282.23770060000015,,,,,,,,,,,,,,,,,,,,,282.222452,282.23770060000015,282.7217820000001,282.7268618000003,282.74335139999994,284.92156410000007,,,,,284.92176259999997,284.93683480000027,285.1371750000003,285.1209619000001,282.74335139999994,,,,,,,,0,1,2.1745817999999417,None,,,,,,,,810,22,V,R,2026-02-23_11h44.01.371,VisualSearch_2526_3,,2025.2.4,2026-02-23 11h44.01.588044 +0100,
tilted.xlsx,The target is tilted.,117,62,6,7,1,1,1,1,1,1,1,1,1,1,1,1,0,11,12,117,space,8.845383800000036,None,1,1,3.0781550000001516,None,space,3.869676000000254,None,0,0,0,0,,,,,7,6,62,0,285.1371750000003,,,,,,,,,,,,,,,,,,,,,285.12167450000015,285.1371750000003,285.6207948000001,285.62546880000036,285.6429651000003,288.7378549,,,,,288.73805790000006,288.75305000000026,288.9531999999999,288.93727579999995,285.6429651000003,,,,,,,,1,1,3.0781550000001516,None,,,,,,,,810,22,V,R,2026-02-23_11h44.01.371,VisualSearch_2526_3,,2025.2.4,2026-02-23 11h44.01.588044 +0100,
tilted.xlsx,The target is tilted.,117,63,7,7,1,1,1,1,0,0,0,0,0,0,0,0,0,3,4,117,space,8.845383800000036,None,1,1,0.8096715000001495,None,space,3.869676000000254,None,0,0,0,0,,,,,7,7,63,2,288.9531999999999,,,,,,,,,,,,,,,,,,,,,288.9381370000001,288.9531999999999,289.43709910000007,289.44198080000024,289.4582029000003,290.27121090000037,,,,,290.2714258000001,290.28606000000036,290.4864748,290.47054789999993,289.4582029000003,,,,,,,,1,1,0.8096715000001495,None,,,,,,,,810,22,V,R,2026-02-23_11h44.01.371,VisualSearch_2526_3,,2025.2.4,2026-02-23 11h44.01.588044 +0100,
tilted.xlsx,The target is tilted.,117,64,0,8,0,1,1,1,1,1,1,1,1,1,1,1,1,11,12,117,space,8.845383800000036,None,0,1,3.7223785000001044,None,space,3.869676000000254,None,0,0,0,0,,,,,8,0,64,4,290.4864748,,,,,,,,,,,,,,,,,,,,,290.4712608,290.4864748,290.9705282,290.9758074000001,290.9926846000003,294.7194118000002,,,,,294.71948790000033,294.73518650000005,,294.9196571000002,290.9926846000003,,,,,,,,0,1,3.7223785000001044,None,,,,,,,,810,22,V,R,2026-02-23_11h44.01.371,VisualSearch_2526_3,,2025.2.4,2026-02-23 11h44.01.588044 +0100,
tilted.xlsx,The target is tilted.,117,65,1,8,0,1,1,1,1,1,1,1,0,0,0,0,1,7,8,117,space,8.845383800000036,None,1,0,3.92921350000006,None,space,3.869676000000254,None,0,0,0,0,,,,,8,1,65,5,294.9360412000001,,,,,,,,,,,,,,,,,,,,,294.9204828000002,294.9360412000001,295.4197757000002,295.4243690000003,295.4412500000003,299.38539919999994,,,,,299.38554950000025,299.4020152000003,,299.58565650000037,295.4412500000003,,,,,,,,1,0,3.92921350000006,None,,,,,,,,810,22,V,R,2026-02-23_11h44.01.371,VisualSearch_2526_3,,2025.2.4,2026-02-23 11h44.01.588044 +0100,
tilted.xlsx,The target is tilted.,117,66,2,8,1,1,1,1,1,1,1,1,0,0,0,0,0,7,8,117,space,8.845383800000036,None,1,1,4.4294703999999,None,space,3.869676000000254,None,0,0,0,0,,,,,8,2,66,1,299.6020360000002,,,,,,,,,,,,,,,,,,,,,299.5864168000003,299.6020360000002,300.0858889000001,300.09115180000026,300.10760759999994,304.55168790000016,,,,,304.55191630000036,304.56730500000003,304.76784910000015,304.7518636,300.10760759999994,,,,,,,,1,1,4.4294703999999,None,,,,,,,,810,22,V,R,2026-02-23_11h44.01.371,VisualSearch_2526_3,,2025.2.4,2026-02-23 11h44.01.588044 +0100,
tilted.xlsx,The target is tilted.,117,67,3,8,0,0,0,0,0,0,0,0,0,0,0,0,1,1,1,117,space,8.845383800000036,None,0,1,0.8385301000002983,None,space,3.869676000000254,None,0,0,0,0,,,,,8,3,67,7,304.76784910000015,,,,,,,,,,,,,,,,,,,,,304.75257690000035,304.76784910000015,305.2517691000003,305.2564104000003,305.27309809999997,306.1187514000003,,,,,306.1189535000003,306.1338356000001,306.3343950000003,306.3180497000003,305.27309809999997,,,,,,,,0,1,0.8385301000002983,None,,,,,,,,810,22,V,R,2026-02-23_11h44.01.371,VisualSearch_2526_3,,2025.2.4,2026-02-23 11h44.01.588044 +0100,
tilted.xlsx,The target is tilted.,117,68,4,8,0,1,1,1,0,0,0,0,0,0,0,0,1,3,4,117,space,8.845383800000036,None,0,1,5.8161104999999225,None,space,3.869676000000254,None,0,0,0,0,,,,,8,4,68,6,306.3343950000003,,,,,,,,,,,,,,,,,,,,,306.31877310000027,306.3343950000003,306.8175645000001,306.8195135000001,306.8341719,312.6671958000002,,,,,312.6674124000001,312.6827926000001,312.88339810000025,312.86708750000025,306.8341719,,,,,,,,0,1,5.8161104999999225,None,,,,,,,,810,22,V,R,2026-02-23_11h44.01.371,VisualSearch_2526_3,,2025.2.4,2026-02-23 11h44.01.588044 +0100,
tilted.xlsx,The target is tilted.,117,69,5,8,1,1,1,1,0,0,0,0,0,0,0,0,0,3,4,117,space,8.845383800000036,None,1,1,1.4994409999999334,None,space,3.869676000000254,None,0,0,0,0,,,,,8,5,69,2,312.88339810000025,,,,,,,,,,,,,,,,,,,,,312.8678444000002,312.88339810000025,313.36731120000013,313.3725251999999,313.38958279999997,314.9003702,,,,,314.9005325000003,314.91587759999993,315.1164966000001,315.10033850000036,313.38958279999997,,,,,,,,1,1,1.4994409999999334,None,,,,,,,,810,22,V,R,2026-02-23_11h44.01.371,VisualSearch_2526_3,,2025.2.4,2026-02-23 11h44.01.588044 +0100,
tilted.xlsx,The target is tilted.,117,70,6,8,1,0,0,0,0,0,0,0,0,0,0,0,0,0,1,117,space,8.845383800000036,None,1,1,0.9544439000001148,None,space,3.869676000000254,None,0,0,0,0,,,,,8,6,70,3,315.1164966000001,,,,,,,,,,,,,,,,,,,,,315.10104470000033,315.1164966000001,315.60027579999996,315.60491850000017,315.6206252000002,316.58402079999996,,,,,316.58421190000035,316.5989614,316.7995298000001,316.78354020000006,315.6206252000002,,,,,,,,1,1,0.9544439000001148,None,,,,,,,,810,22,V,R,2026-02-23_11h44.01.371,VisualSearch_2526_3,,2025.2.4,2026-02-23 11h44.01.588044 +0100,
tilted.xlsx,The target is tilted.,117,71,7,8,1,1,1,1,1,1,1,1,1,1,1,1,0,11,12,117,space,8.845383800000036,None,1,1,5.440265599999748,None,space,3.869676000000254,None,0,0,0,0,,,,,8,7,71,0,316.7995298000001,,,,,,,,,,,,,,,,,,,,,316.7843382000001,316.7995298000001,317.28340860000026,317.28823420000026,317.3052292000002,322.7494749000002,,,,,322.7496666000002,322.76474099999996,322.96536140000035,322.94927970000026,317.3052292000002,,,,,,,,1,1,5.440265599999748,None,,,,,,,,810,22,V,R,2026-02-23_11h44.01.371,VisualSearch_2526_3,,2025.2.4,2026-02-23 11h44.01.588044 +0100,
tilted.xlsx,The target is tilted.,117,72,0,9,0,1,1,1,0,0,0,0,0,0,0,0,1,3,4,117,space,8.845383800000036,None,0,1,1.0965943000001062,None,space,3.869676000000254,None,0,0,0,0,,,,,9,0,72,6,322.96536140000035,,,,,,,,,,,,,,,,,,,,,322.9501073000001,322.96536140000035,323.44908950000035,323.4537128000002,323.4703050000003,324.5822069999999,,,,,324.58243029999994,324.59764369999994,324.7981328000001,324.7823134,323.4703050000003,,,,,,,,0,1,1.0965943000001062,None,,,,,,,,810,22,V,R,2026-02-23_11h44.01.371,VisualSearch_2526_3,,2025.2.4,2026-02-23 11h44.01.588044 +0100,
tilted.xlsx,The target is tilted.,117,73,1,9,1,1,1,1,0,0,0,0,0,0,0,0,0,3,4,117,space,8.845383800000036,None,1,1,1.3737024000001838,None,space,3.869676000000254,None,0,0,0,0,,,,,9,1,73,2,324.7981328000001,,,,,,,,,,,,,,,,,,,,,324.78313290000006,324.7981328000001,325.2823456000001,325.2875842000003,325.3034874,326.68237369999997,,,,,326.6825667000003,326.6975843,326.8980353000002,326.8820112000003,325.3034874,,,,,,,,1,1,1.3737024000001838,None,,,,,,,,810,22,V,R,2026-02-23_11h44.01.371,VisualSearch_2526_3,,2025.2.4,2026-02-23 11h44.01.588044 +0100,
tilted.xlsx,The target is tilted.,117,74,2,9,0,1,1,1,1,1,1,1,1,1,1,1,1,11,12,117,space,8.845383800000036,None,1,0,1.7840132999999696,None,space,3.869676000000254,None,0,0,0,0,,,,,9,2,74,4,326.8980353000002,,,,,,,,,,,,,,,,,,,,,326.88271299999997,326.8980353000002,327.38194190000013,327.38654280000037,327.40413119999994,329.19831509999995,,,,,329.1984386000004,329.21376260000034,329.41448100000025,329.39822570000024,327.40413119999994,,,,,,,,1,0,1.7840132999999696,None,,,,,,,,810,22,V,R,2026-02-23_11h44.01.371,VisualSearch_2526_3,,2025.2.4,2026-02-23 11h44.01.588044 +0100,
tilted.xlsx,The target is tilted.,117,75,3,9,0,0,0,0,0,0,0,0,0,0,0,0,1,1,1,117,space,8.845383800000036,None,0,1,0.733741099999861,None,space,3.869676000000254,None,0,0,0,0,,,,,9,3,75,7,329.41448100000025,,,,,,,,,,,,,,,,,,,,,329.3990254,329.41448100000025,329.89816710000014,329.9034306000003,329.9207223000003,330.6644596000001,,,,,330.66456960000005,330.6802762000002,330.88057990000016,330.8647731000001,329.9207223000003,,,,,,,,0,1,0.733741099999861,None,,,,,,,,810,22,V,R,2026-02-23_11h44.01.371,VisualSearch_2526_3,,2025.2.4,2026-02-23 11h44.01.588044 +0100,
tilted.xlsx,The target is tilted.,117,76,4,9,1,1,1,1,1,1,1,1,0,0,0,0,0,7,8,117,space,8.845383800000036,None,1,1,2.906113099999857,None,space,3.869676000000254,None,0,0,0,0,,,,,9,4,76,1,330.88057990000016,,,,,,,,,,,,,,,,,,,,,330.8654660000002,330.88057990000016,331.3647229000003,331.36952180000026,331.38665230000015,334.2979825000002,,,,,334.2981721000001,334.31309820000024,334.51369049999994,334.49718540000003,331.38665230000015,,,,,,,,1,1,2.906113099999857,None,,,,,,,,810,22,V,R,2026-02-23_11h44.01.371,VisualSearch_2526_3,,2025.2.4,2026-02-23 11h44.01.588044 +0100,
tilted.xlsx,The target is tilted.,117,77,5,9,1,0,0,0,0,0,0,0,0,0,0,0,0,0,1,117,space,8.845383800000036,None,1,1,0.9950594000001729,None,space,3.869676000000254,None,0,0,0,0,,,,,9,5,77,3,334.51369049999994,,,,,,,,,,,,,,,,,,,,,334.4979151000002,334.51369049999994,334.99698490000037,335.00110510000013,335.01353740000013,336.0140031000001,,,,,336.01417900000024,336.02962830000024,336.22994540000036,336.2135344000003,335.01353740000013,,,,,,,,1,1,0.9950594000001729,None,,,,,,,,810,22,V,R,2026-02-23_11h44.01.371,VisualSearch_2526_3,,2025.2.4,2026-02-23 11h44.01.588044 +0100,
tilted.xlsx,The target is tilted.,117,78,6,9,0,1,1,1,1,1,1,1,0,0,0,0,1,7,8,117,space,8.845383800000036,None,1,0,2.9159640999996554,None,space,3.869676000000254,None,0,0,0,0,,,,,9,6,78,5,336.22994540000036,,,,,,,,,,,,,,,,,,,,,336.21411820000003,336.22994540000036,336.71392719999994,336.7185509000001,336.7338910000003,339.6624122000003,,,,,339.66248170000017,339.67935060000036,,339.86288289999993,336.7338910000003,,,,,,,,1,0,2.9159640999996554,None,,,,,,,,810,22,V,R,2026-02-23_11h44.01.371,VisualSearch_2526_3,,2025.2.4,2026-02-23 11h44.01.588044 +0100,
tilted.xlsx,The target is tilted.,117,79,7,9,1,1,1,1,1,1,1,1,1,1,1,1,0,11,12,117,space,8.845383800000036,None,1,1,2.8250160000002325,None,space,3.869676000000254,None,0,0,0,0,,,,,9,7,79,0,339.8794216000001,,,,,,,,,,,,,,,,,,,,,339.8636352000003,339.8794216000001,340.3631250000003,340.36790370000017,340.38470080000025,343.2132475000003,,,,,343.21344290000025,343.2284899000001,343.42914880000035,343.41308640000034,,,,,,,,,1,1,2.8250160000002325,None,,,,,,,,810,22,V,R,2026-02-23_11h44.01.371,VisualSearch_2526_3,,2025.2.4,2026-02-23 11h44.01.588044 +0100,
tilted.xlsx,The target is tilted.,117,80,0,10,1,1,1,1,1,1,1,1,0,0,0,0,0,7,8,117,space,8.845383800000036,None,1,1,1.600194399999964,None,space,3.869676000000254,None,0,0,0,0,,,,,10,0,80,1,343.42914880000035,,,,,,,,,,,,,,,,,,,,,343.41388380000035,343.42914880000035,343.9129901000001,343.9180647000003,343.93206390000023,345.54497660000015,,,,,345.54506500000025,345.56183550000014,,345.74572920000037,343.93206390000023,,,,,,,,1,1,1.600194399999964,None,,,,,,,,810,22,V,R,2026-02-23_11h44.01.371,VisualSearch_2526_3,,2025.2.4,2026-02-23 11h44.01.588044 +0100,
tilted.xlsx,The target is tilted.,117,81,1,10,0,1,1,1,1,1,1,1,0,0,0,0,1,7,8,117,space,8.845383800000036,None,1,0,1.0039526000000478,None,space,3.869676000000254,None,0,0,0,0,,,,,10,1,81,5,345.76203940000005,,,,,,,,,,,,,,,,,,,,,345.7464952,345.76203940000005,346.2454550000002,346.2501516000002,346.2669198000003,347.2795807000002,,,,,347.2797733000002,347.2945741000003,347.4948365,347.4789837000003,,,,,,,,,1,0,1.0039526000000478,None,,,,,,,,810,22,V,R,2026-02-23_11h44.01.371,VisualSearch_2526_3,,2025.2.4,2026-02-23 11h44.01.588044 +0100,
tilted.xlsx,The target is tilted.,117,82,2,10,1,1,1,1,0,0,0,0,0,0,0,0,0,3,4,117,space,8.845383800000036,None,1,1,1.8742538000001332,None,space,3.869676000000254,None,0,0,0,0,,,,,10,2,82,2,347.4948365,,,,,,,,,,,,,,,,,,,,,347.47966859999997,347.4948365,347.97888379999995,347.98342279999997,347.9987226000003,349.8785118999999,,,,,349.8786728,349.89419650000036,350.0947917000003,350.0785393000001,347.9987226000003,,,,,,,,1,1,1.8742538000001332,None,,,,,,,,810,22,V,R,2026-02-23_11h44.01.371,VisualSearch_2526_3,,2025.2.4,2026-02-23 11h44.01.588044 +0100,
tilted.xlsx,The target is tilted.,117,83,3,10,0,0,0,0,0,0,0,0,0,0,0,0,1,1,1,117,space,8.845383800000036,None,0,1,0.8599659999999858,None,space,3.869676000000254,None,0,0,0,0,,,,,10,3,83,7,350.0947917000003,,,,,,,,,,,,,,,,,,,,,350.0792822000003,350.0947917000003,350.57850310000003,350.5830323,350.59909560000006,351.4623442000002,,,,,351.46251900000016,351.47781490000034,351.67779040000005,351.6617357,350.59909560000006,,,,,,,,0,1,0.8599659999999858,None,,,,,,,,810,22,V,R,2026-02-23_11h44.01.371,VisualSearch_2526_3,,2025.2.4,2026-02-23 11h44.01.588044 +0100,
tilted.xlsx,The target is tilted.,117,84,4,10,1,0,0,0,0,0,0,0,0,0,0,0,0,0,1,117,space,8.845383800000036,None,1,1,0.7764517999999043,None,space,3.869676000000254,None,0,0,0,0,,,,,10,4,84,3,351.67779040000005,,,,,,,,,,,,,,,,,,,,,351.66244370000004,351.67779040000005,352.16174309999997,352.1665713000002,352.1823429000001,352.96199509999997,,,,,352.9621698000001,352.97745840000016,353.17757870000014,353.16157139999996,352.1823429000001,,,,,,,,1,1,0.7764517999999043,None,,,,,,,,810,22,V,R,2026-02-23_11h44.01.371,VisualSearch_2526_3,,2025.2.4,2026-02-23 11h44.01.588044 +0100,
tilted.xlsx,The target is tilted.,117,85,5,10,1,1,1,1,1,1,1,1,1,1,1,1,0,11,12,117,space,8.845383800000036,None,1,1,3.6093112999997174,None,space,3.869676000000254,None,0,0,0,0,,,,,10,5,85,0,353.17757870000014,,,,,,,,,,,,,,,,,,,,,353.16239570000016,353.17757870000014,353.66143360000024,353.6660515000003,353.68264820000013,357.2947405,,,,,357.2949546,357.3100929000002,357.5104120000001,357.49434450000035,353.68264820000013,,,,,,,,1,1,3.6093112999997174,None,,,,,,,,810,22,V,R,2026-02-23_11h44.01.371,VisualSearch_2526_3,,2025.2.4,2026-02-23 11h44.01.588044 +0100,
tilted.xlsx,The target is tilted.,117,86,6,10,0,1,1,1,0,0,0,0,0,0,0,0,1,3,4,117,space,8.845383800000036,None,0,1,1.9165481,None,space,3.869676000000254,None,0,0,0,0,,,,,10,6,86,6,357.5104120000001,,,,,,,,,,,,,,,,,,,,,357.49514279999994,357.5104120000001,357.9943281000001,357.9993846000002,358.01777070000026,359.94352210000034,,,,,359.94363150000027,359.95946470000035,360.1600846000001,360.1439868000002,358.01777070000026,,,,,,,,0,1,1.9165481,None,,,,,,,,810,22,V,R,2026-02-23_11h44.01.371,VisualSearch_2526_3,,2025.2.4,2026-02-23 11h44.01.588044 +0100,
tilted.xlsx,The target is tilted.,117,87,7,10,0,1,1,1,1,1,1,1,1,1,1,1,1,11,12,117,space,8.845383800000036,None,1,0,1.5420897000003606,None,space,3.869676000000254,None,0,0,0,0,,,,,10,7,87,4,360.1600846000001,,,,,,,,,,,,,,,,,,,,,360.1447926999999,360.1600846000001,360.64395060000015,360.6489690000003,360.66410840000026,362.2097510000003,,,,,362.2100561000002,362.2261432,362.4265588000003,362.40996540000015,360.66410840000026,,,,,,,,1,0,1.5420897000003606,None,,,,,,,,810,22,V,R,2026-02-23_11h44.01.371,VisualSearch_2526_3,,2025.2.4,2026-02-23 11h44.01.588044 +0100,
tilted.xlsx,The target is tilted.,117,88,0,11,1,1,1,1,0,0,0,0,0,0,0,0,0,3,4,117,space,8.845383800000036,None,1,1,1.211456200000157,None,space,3.869676000000254,None,0,0,0,0,,,,,11,0,88,2,362.4265588000003,,,,,,,,,,,,,,,,,,,,,362.4108162000002,362.4265588000003,362.91025750000017,362.9151856000003,362.93059889999995,364.14349889999994,,,,,364.14367310000034,364.1594567000002,364.3593823000001,364.34331180000027,362.93059889999995,,,,,,,,1,1,1.211456200000157,None,,,,,,,,810,22,V,R,2026-02-23_11h44.01.371,VisualSearch_2526_3,,2025.2.4,2026-02-23 11h44.01.588044 +0100,
tilted.xlsx,The target is tilted.,117,89,1,11,0,1,1,1,1,1,1,1,0,0,0,0,1,7,8,117,space,8.845383800000036,None,1,0,1.7501176999999188,None,space,3.869676000000254,None,0,0,0,0,,,,,11,1,89,5,364.3593823000001,,,,,,,,,,,,,,,,,,,,,364.3441334000004,364.3593823000001,364.84327900000017,364.8478758000001,364.8653064,366.6265843000001,,,,,366.62678030000006,366.64244210000015,366.8421390000003,366.82643910000024,364.8653064,,,,,,,,1,0,1.7501176999999188,None,,,,,,,,810,22,V,R,2026-02-23_11h44.01.371,VisualSearch_2526_3,,2025.2.4,2026-02-23 11h44.01.588044 +0100,
tilted.xlsx,The target is tilted.,117,90,2,11,1,1,1,1,1,1,1,1,1,1,1,1,0,11,12,117,space,8.845383800000036,None,1,1,1.755475099999785,None,space,3.869676000000254,None,0,0,0,0,,,,,11,2,90,0,366.8421390000003,,,,,,,,,,,,,,,,,,,,,366.8274027000002,366.8421390000003,367.3263485000002,367.3315187000003,367.34807690000025,369.1096179000001,,,,,369.1098098000002,369.12537950000024,369.32537690000026,369.3091926000002,367.34807690000025,,,,,,,,1,1,1.755475099999785,None,,,,,,,,810,22,V,R,2026-02-23_11h44.01.371,VisualSearch_2526_3,,2025.2.4,2026-02-23 11h44.01.588044 +0100,
tilted.xlsx,The target is tilted.,117,91,3,11,0,1,1,1,1,1,1,1,1,1,1,1,1,11,12,117,space,8.845383800000036,None,1,0,2.641356799999812,None,space,3.869676000000254,None,0,0,0,0,,,,,11,3,91,4,369.32537690000026,,,,,,,,,,,,,,,,,,,,,369.31002050000006,369.32537690000026,369.8088958000003,369.81391090000034,369.82609500000035,372.4755309000002,,,,,372.47570680000035,372.49138660000017,372.69158930000003,372.67542200000025,369.82609500000035,,,,,,,,1,0,2.641356799999812,None,,,,,,,,810,22,V,R,2026-02-23_11h44.01.371,VisualSearch_2526_3,,2025.2.4,2026-02-23 11h44.01.588044 +0100,
tilted.xlsx,The target is tilted.,117,92,4,11,1,1,1,1,1,1,1,1,0,0,0,0,0,7,8,117,space,8.845383800000036,None,1,1,2.168982700000015,None,space,3.869676000000254,None,0,0,0,0,,,,,11,4,92,1,372.69158930000003,,,,,,,,,,,,,,,,,,,,,372.67615320000004,372.69158930000003,373.17523440000014,373.1799906000001,373.19687909999993,375.3751946000002,,,,,375.37538440000026,375.3909029000001,375.59114590000036,375.5750997,373.19687909999993,,,,,,,,1,1,2.168982700000015,None,,,,,,,,810,22,V,R,2026-02-23_11h44.01.371,VisualSearch_2526_3,,2025.2.4,2026-02-23 11h44.01.588044 +0100,
tilted.xlsx,The target is tilted.,117,93,5,11,1,0,0,0,0,0,0,0,0,0,0,0,0,0,1,117,space,8.845383800000036,None,1,1,0.678172700000232,None,space,3.869676000000254,None,0,0,0,0,,,,,11,5,93,3,375.59114590000036,,,,,,,,,,,,,,,,,,,,,375.57590310000023,375.59114590000036,376.0751733000002,376.0803254000002,376.09698389999994,376.79183550000016,,,,,376.7920114000003,376.80724499999997,377.00741970000036,376.9914210000002,376.09698389999994,,,,,,,,1,1,0.678172700000232,None,,,,,,,,810,22,V,R,2026-02-23_11h44.01.371,VisualSearch_2526_3,,2025.2.4,2026-02-23 11h44.01.588044 +0100,
tilted.xlsx,The target is tilted.,117,94,6,11,0,0,0,0,0,0,0,0,0,0,0,0,1,1,1,117,space,8.845383800000036,None,0,1,0.6245708999999806,None,space,3.869676000000254,None,0,0,0,0,,,,,11,6,94,7,377.00741970000036,,,,,,,,,,,,,,,,,,,,,376.99212780000016,377.00741970000036,377.4911637,377.49606840000024,377.5134952000003,378.1414874000002,,,,,378.1416787000003,378.15711839999994,378.35754590000033,378.34141990000035,377.5134952000003,,,,,,,,0,1,0.6245708999999806,None,,,,,,,,810,22,V,R,2026-02-23_11h44.01.371,VisualSearch_2526_3,,2025.2.4,2026-02-23 11h44.01.588044 +0100,
tilted.xlsx,The target is tilted.,117,95,7,11,0,1,1,1,0,0,0,0,0,0,0,0,1,3,4,117,space,8.845383800000036,None,0,1,1.7981620000000476,None,space,3.869676000000254,None,0,0,0,0,,,,,11,7,95,6,378.35754590000033,,,,,,,,,,,,,,,,,,,,,378.3422095000001,378.35754590000033,378.8412436000003,378.84572320000007,378.8609964000002,380.6747583000001,,,,,380.6749513,380.68990840000015,380.8902559000003,380.8739195000003,378.8609964000002,,,,,,,,0,1,1.7981620000000476,None,,,,,,,,810,22,V,R,2026-02-23_11h44.01.371,VisualSearch_2526_3,,2025.2.4,2026-02-23 11h44.01.588044 +0100,
tilted.xlsx,The target is tilted.,117,96,0,12,0,1,1,1,1,1,1,1,1,1,1,1,1,11,12,117,space,8.845383800000036,None,0,1,4.258200000000215,None,space,3.869676000000254,None,0,0,0,0,,,,,12,0,96,4,380.8902559000003,,,,,,,,,,,,,,,,,,,,,380.8746209000001,380.8902559000003,381.3737312000003,381.37813189999997,381.3894918000001,385.65716010000006,,,,,385.6573760000001,385.6730027000003,385.87304429999995,385.8571476000002,381.3894918000001,,,,,,,,0,1,4.258200000000215,None,,,,,,,,810,22,V,R,2026-02-23_11h44.01.371,VisualSearch_2526_3,,2025.2.4,2026-02-23 11h44.01.588044 +0100,
tilted.xlsx,The target is tilted.,117,97,1,12,1,0,0,0,0,0,0,0,0,0,0,0,0,0,1,117,space,8.845383800000036,None,1,1,1.0681257000001096,None,space,3.869676000000254,None,0,0,0,0,,,,,12,1,97,3,385.87304429999995,,,,,,,,,,,,,,,,,,,,,385.85799240000006,385.87304429999995,386.35700970000016,386.3623109,386.3791561000003,387.45725740000034,,,,,387.4574867000001,387.4723707000003,387.67245890000004,387.6564182000002,386.3791561000003,,,,,,,,1,1,1.0681257000001096,None,,,,,,,,810,22,V,R,2026-02-23_11h44.01.371,VisualSearch_2526_3,,2025.2.4,2026-02-23 11h44.01.588044 +0100,
tilted.xlsx,The target is tilted.,117,98,2,12,0,1,1,1,0,0,0,0,0,0,0,0,1,3,4,117,space,8.845383800000036,None,0,1,1.1325245999996696,None,space,3.869676000000254,None,0,0,0,0,,,,,12,2,98,6,387.67245890000004,,,,,,,,,,,,,,,,,,,,,387.65714049999997,387.67245890000004,388.15616550000004,388.1609596000003,388.17762300000004,389.3236079000003,,,,,389.32380170000033,389.3389863000002,389.53911229999994,389.5229571,388.17762300000004,,,,,,,,0,1,1.1325245999996696,None,,,,,,,,810,22,V,R,2026-02-23_11h44.01.371,VisualSearch_2526_3,,2025.2.4,2026-02-23 11h44.01.588044 +0100,
tilted.xlsx,The target is tilted.,117,99,3,12,0,1,1,1,1,1,1,1,0,0,0,0,1,7,8,117,space,8.845383800000036,None,1,0,1.9569837000003645,None,space,3.869676000000254,None,0,0,0,0,,,,,12,3,99,5,389.53911229999994,,,,,,,,,,,,,,,,,,,,,389.52376920000006,389.53911229999994,390.02315450000015,390.02796149999995,390.0389145000004,392.00657219999994,,,,,392.00677029999997,392.0221451000002,392.22199990000036,392.2057855000003,390.0389145000004,,,,,,,,1,0,1.9569837000003645,None,,,,,,,,810,22,V,R,2026-02-23_11h44.01.371,VisualSearch_2526_3,,2025.2.4,2026-02-23 11h44.01.588044 +0100,
tilted.xlsx,The target is tilted.,117,100,4,12,1,1,1,1,1,1,1,1,0,0,0,0,0,7,8,117,space,8.845383800000036,None,0,0,5.926738699999987,None,space,3.869676000000254,None,0,0,0,0,,,,,12,4,100,1,392.22199990000036,,,,,,,,,,,,,,,,,,,,,392.20658760000015,392.22199990000036,392.7060180000003,392.71093310000015,392.7219256000003,398.65480190000017,,,,,398.654951,398.67075820000036,398.8711636000003,398.85503880000033,392.7219256000003,,,,,,,,0,0,5.926738699999987,None,,,,,,,,810,22,V,R,2026-02-23_11h44.01.371,VisualSearch_2526_3,,2025.2.4,2026-02-23 11h44.01.588044 +0100,
tilted.xlsx,The target is tilted.,117,101,5,12,1,1,1,1,1,1,1,1,1,1,1,1,0,11,12,117,space,8.845383800000036,None,1,1,3.9321906000000126,None,space,3.869676000000254,None,0,0,0,0,,,,,12,5,101,0,398.8711636000003,,,,,,,,,,,,,,,,,,,,,398.8557446,398.8711636000003,399.3550024000001,399.3595757000003,399.3761658000003,403.32110660000035,,,,,403.32131759999993,403.3369968000002,403.5368390000003,403.52114770000026,399.3761658000003,,,,,,,,1,1,3.9321906000000126,None,,,,,,,,810,22,V,R,2026-02-23_11h44.01.371,VisualSearch_2526_3,,2025.2.4,2026-02-23 11h44.01.588044 +0100,
tilted.xlsx,The target is tilted.,117,102,6,12,0,0,0,0,0,0,0,0,0,0,0,0,1,1,1,117,space,8.845383800000036,None,0,1,1.8263129000001754,None,space,3.869676000000254,None,0,0,0,0,,,,,12,6,102,7,403.5368390000003,,,,,,,,,,,,,,,,,,,,,403.5220929000002,403.5368390000003,404.02083600000014,404.0260347000003,404.0450191,405.8876258,,,,,405.8878009,405.9033658000003,406.1033190000003,406.08723610000015,404.0450191,,,,,,,,0,1,1.8263129000001754,None,,,,,,,,810,22,V,R,2026-02-23_11h44.01.371,VisualSearch_2526_3,,2025.2.4,2026-02-23 11h44.01.588044 +0100,
tilted.xlsx,The target is tilted.,117,103,7,12,1,1,1,1,0,0,0,0,0,0,0,0,0,3,4,117,space,8.845383800000036,None,1,1,1.215702599999986,None,space,3.869676000000254,None,0,0,0,0,,,,,12,7,103,2,406.1033190000003,,,,,,,,,,,,,,,,,,,,,406.0880559000002,406.1033190000003,406.5872967,406.59242429999995,406.60914890000004,407.8373606,,,,,407.83757360000027,407.85304610000003,408.05320470000015,408.03712570000016,406.60914890000004,,,,,,,,1,1,1.215702599999986,None,,,,,,,,810,22,V,R,2026-02-23_11h44.01.371,VisualSearch_2526_3,,2025.2.4,2026-02-23 11h44.01.588044 +0100,
tilted.xlsx,The target is tilted.,117,104,0,13,1,0,0,0,0,0,0,0,0,0,0,0,0,0,1,117,space,8.845383800000036,None,1,1,0.9978071999998974,None,space,3.869676000000254,None,0,0,0,0,,,,,13,0,104,3,408.05320470000015,,,,,,,,,,,,,,,,,,,,,408.0379293000001,408.05320470000015,408.53696070000024,408.54150000000027,408.5575120000003,409.5708244000002,,,,,409.57104849999996,409.58609909999996,409.78626639999993,409.77025440000034,408.5575120000003,,,,,,,,1,1,0.9978071999998974,None,,,,,,,,810,22,V,R,2026-02-23_11h44.01.371,VisualSearch_2526_3,,2025.2.4,2026-02-23 11h44.01.588044 +0100,
tilted.xlsx,The target is tilted.,117,105,1,13,1,1,1,1,1,1,1,1,0,0,0,0,0,7,8,117,space,8.845383800000036,None,1,1,1.4387047999998686,None,space,3.869676000000254,None,0,0,0,0,,,,,13,1,105,1,409.78626639999993,,,,,,,,,,,,,,,,,,,,,409.77104770000005,409.78626639999993,410.2699563000001,410.27516590000005,410.29383210000015,411.73671170000034,,,,,411.7378066000001,411.75229560000025,411.95262820000016,411.93663110000034,410.29383210000015,,,,,,,,1,1,1.4387047999998686,None,,,,,,,,810,22,V,R,2026-02-23_11h44.01.371,VisualSearch_2526_3,,2025.2.4,2026-02-23 11h44.01.588044 +0100,
tilted.xlsx,The target is tilted.,117,106,2,13,1,1,1,1,0,0,0,0,0,0,0,0,0,3,4,117,space,8.845383800000036,None,1,1,1.8034999999999854,None,space,3.869676000000254,None,0,0,0,0,,,,,13,2,106,2,411.95262820000016,,,,,,,,,,,,,,,,,,,,,411.93747580000036,411.95262820000016,412.43655910000007,412.44152220000024,412.45826780000016,414.27000510000016,,,,,414.2701984,414.28548920000003,414.48540159999993,414.4686501000001,412.45826780000016,,,,,,,,1,1,1.8034999999999854,None,,,,,,,,810,22,V,R,2026-02-23_11h44.01.371,VisualSearch_2526_3,,2025.2.4,2026-02-23 11h44.01.588044 +0100,
tilted.xlsx,The target is tilted.,117,107,3,13,0,1,1,1,0,0,0,0,0,0,0,0,1,3,4,117,space,8.845383800000036,None,0,1,1.2690293999999085,None,space,3.869676000000254,None,0,0,0,0,,,,,13,3,107,6,414.48540159999993,,,,,,,,,,,,,,,,,,,,,414.46902990000035,414.48540159999993,414.9695136,414.97477300000037,414.9853143,416.2697314000002,,,,,416.2699270000003,416.2852277000002,416.4853310000003,416.4689453000001,414.9853143,,,,,,,,0,1,1.2690293999999085,None,,,,,,,,810,22,V,R,2026-02-23_11h44.01.371,VisualSearch_2526_3,,2025.2.4,2026-02-23 11h44.01.588044 +0100,
tilted.xlsx,The target is tilted.,117,108,4,13,1,1,1,1,1,1,1,1,1,1,1,1,0,11,12,117,space,8.845383800000036,None,1,1,2.2951083999996627,None,space,3.869676000000254,None,0,0,0,0,,,,,13,4,108,0,416.4853310000003,,,,,,,,,,,,,,,,,,,,,416.46975850000035,416.4853310000003,416.9692030000001,416.9742183000003,416.99259200000006,419.30243510000037,,,,,419.3026089,419.31811130000006,419.5177397000002,419.50183000000015,416.99259200000006,,,,,,,,1,1,2.2951083999996627,None,,,,,,,,810,22,V,R,2026-02-23_11h44.01.371,VisualSearch_2526_3,,2025.2.4,2026-02-23 11h44.01.588044 +0100,
tilted.xlsx,The target is tilted.,117,109,5,13,0,1,1,1,1,1,1,1,1,1,1,1,1,11,12,117,space,8.845383800000036,None,1,0,1.9607582000003276,None,space,3.869676000000254,None,0,0,0,0,,,,,13,5,109,4,419.5177397000002,,,,,,,,,,,,,,,,,,,,,419.5026694000003,419.5177397000002,420.00165190000007,420.00662120000015,420.0228949000002,421.98544310000034,,,,,421.98563600000034,422.000994,422.20115460000034,422.18505200000027,420.0228949000002,,,,,,,,1,0,1.9607582000003276,None,,,,,,,,810,22,V,R,2026-02-23_11h44.01.371,VisualSearch_2526_3,,2025.2.4,2026-02-23 11h44.01.588044 +0100,
tilted.xlsx,The target is tilted.,117,110,6,13,0,0,0,0,0,0,0,0,0,0,0,0,1,1,1,117,space,8.845383800000036,None,0,1,0.7238907999999356,None,space,3.869676000000254,None,0,0,0,0,,,,,13,6,110,7,422.20115460000034,,,,,,,,,,,,,,,,,,,,,422.18576950000033,422.20115460000034,422.6846058000001,422.68932600000016,422.7008748000003,423.4353728000001,,,,,423.4355668000003,423.4507888000003,423.65095150000025,423.6348739,422.7008748000003,,,,,,,,0,1,0.7238907999999356,None,,,,,,,,810,22,V,R,2026-02-23_11h44.01.371,VisualSearch_2526_3,,2025.2.4,2026-02-23 11h44.01.588044 +0100,
tilted.xlsx,The target is tilted.,117,111,7,13,0,1,1,1,1,1,1,1,0,0,0,0,1,7,8,117,space,8.845383800000036,None,1,0,1.5512582000001203,None,space,3.869676000000254,None,0,0,0,0,,,,,13,7,111,5,423.65095150000025,,,,,,,,,,,,,,,,,,,,,423.6356813000002,423.65095150000025,424.13479000000007,424.13985460000004,424.15679050000017,425.7181393000001,,,,,425.7183159000001,425.7338943,425.9339450000002,425.9177388000003,424.15679050000017,,,,,,,,1,0,1.5512582000001203,None,,,,,,,,810,22,V,R,2026-02-23_11h44.01.371,VisualSearch_2526_3,,2025.2.4,2026-02-23 11h44.01.588044 +0100,
tilted.xlsx,The target is tilted.,117,112,0,14,0,1,1,1,1,1,1,1,1,1,1,1,1,11,12,117,space,8.845383800000036,None,1,0,8.757566499999939,None,space,3.869676000000254,None,0,0,0,0,,,,,14,0,112,4,425.9339450000002,,,,,,,,,,,,,,,,,,,,,425.9183997,425.9339450000002,426.4173310000001,426.4219304000003,426.4333445000002,435.2004546000003,,,,,435.20067340000014,435.21585810000033,435.41579150000007,435.39984500000037,426.4333445000002,,,,,,,,1,0,8.757566499999939,None,,,,,,,,810,22,V,R,2026-02-23_11h44.01.371,VisualSearch_2526_3,,2025.2.4,2026-02-23 11h44.01.588044 +0100,
tilted.xlsx,The target is tilted.,117,113,1,14,0,1,1,1,1,1,1,1,0,0,0,0,1,7,8,117,space,8.845383800000036,None,0,1,2.3324205999997503,None,space,3.869676000000254,None,0,0,0,0,,,,,14,1,113,5,435.41579150000007,,,,,,,,,,,,,,,,,,,,,435.40066000000024,435.41579150000007,435.8998305,435.90507389999993,435.92256799999996,438.2665801000003,,,,,438.2667755000002,438.28219609999996,438.48219640000025,438.4661092000001,435.92256799999996,,,,,,,,0,1,2.3324205999997503,None,,,,,,,,810,22,V,R,2026-02-23_11h44.01.371,VisualSearch_2526_3,,2025.2.4,2026-02-23 11h44.01.588044 +0100,
tilted.xlsx,The target is tilted.,117,114,2,14,1,1,1,1,0,0,0,0,0,0,0,0,0,3,4,117,space,8.845383800000036,None,1,1,1.1844089999999596,None,space,3.869676000000254,None,0,0,0,0,,,,,14,2,114,2,438.48219640000025,,,,,,,,,,,,,,,,,,,,,438.46698779999997,438.48219640000025,438.9657185000001,438.97092220000013,438.98733040000025,440.18308819999993,,,,,440.1833108999999,440.19839490000004,440.3984158000003,440.3820588000003,438.98733040000025,,,,,,,,1,1,1.1844089999999596,None,,,,,,,,810,22,V,R,2026-02-23_11h44.01.371,VisualSearch_2526_3,,2025.2.4,2026-02-23 11h44.01.588044 +0100,
tilted.xlsx,The target is tilted.,117,115,3,14,1,1,1,1,1,1,1,1,1,1,1,1,0,11,12,117,space,8.845383800000036,None,0,0,2.6552510999999868,None,space,3.869676000000254,None,0,0,0,0,,,,,14,3,115,0,440.3984158000003,,,,,,,,,,,,,,,,,,,,,440.38279809999995,440.3984158000003,440.88229490000003,440.8867723000003,440.90529970000034,443.56573590000016,,,,,443.5659264000001,443.58135100000027,443.78130090000013,443.7653167000003,440.90529970000034,,,,,,,,0,0,2.6552510999999868,None,,,,,,,,810,22,V,R,2026-02-23_11h44.01.371,VisualSearch_2526_3,,2025.2.4,2026-02-23 11h44.01.588044 +0100,
tilted.xlsx,The target is tilted.,117,116,4,14,1,1,1,1,1,1,1,1,0,0,0,0,0,7,8,117,space,8.845383800000036,None,0,0,2.8389816999997493,None,space,3.869676000000254,None,0,0,0,0,,,,,14,4,116,1,443.78130090000013,,,,,,,,,,,,,,,,,,,,,443.7661320000002,443.78130090000013,444.26532350000025,444.2703177000003,444.28666880000037,447.1316861,,,,,447.1318618,447.1473860000001,447.3474248000002,447.33150790000036,444.28666880000037,,,,,,,,0,0,2.8389816999997493,None,,,,,,,,810,22,V,R,2026-02-23_11h44.01.371,VisualSearch_2526_3,,2025.2.4,2026-02-23 11h44.01.588044 +0100,
tilted.xlsx,The target is tilted.,117,117,5,14,1,0,0,0,0,0,0,0,0,0,0,0,0,0,1,117,space,8.845383800000036,None,1,1,0.9477881000002526,None,space,3.869676000000254,None,0,0,0,0,,,,,14,5,117,3,447.3474248000002,,,,,,,,,,,,,,,,,,,,,447.3323187000001,447.3474248000002,447.83081300000003,447.8330512000002,447.84723080000003,448.7980937000002,,,,,448.79828780000025,448.81358290000026,449.01402129999997,448.99766279999994,447.84723080000003,,,,,,,,1,1,0.9477881000002526,None,,,,,,,,810,22,V,R,2026-02-23_11h44.01.371,VisualSearch_2526_3,,2025.2.4,2026-02-23 11h44.01.588044 +0100,
tilted.xlsx,The target is tilted.,117,118,6,14,0,1,1,1,0,0,0,0,0,0,0,0,1,3,4,117,space,8.845383800000036,None,0,1,1.0249650000000656,None,space,3.869676000000254,None,0,0,0,0,,,,,14,6,118,6,449.01402129999997,,,,,,,,,,,,,,,,,,,,,448.9986033,449.01402129999997,449.4974118,449.5019548,449.52043950000007,450.54772980000007,,,,,450.54792080000016,450.56373580000036,450.76377260000027,450.74738960000013,449.52043950000007,,,,,,,,0,1,1.0249650000000656,None,,,,,,,,810,22,V,R,2026-02-23_11h44.01.371,VisualSearch_2526_3,,2025.2.4,2026-02-23 11h44.01.588044 +0100,
tilted.xlsx,The target is tilted.,117,119,7,14,0,0,0,0,0,0,0,0,0,0,0,0,1,1,1,117,space,8.845383800000036,None,0,1,0.8197507999998379,None,space,3.869676000000254,None,0,0,0,0,,,,,14,7,119,7,450.76377260000027,,,,,,,,,,,,,,,,,,,,,450.7482307,450.76377260000027,451.2472319000003,451.25196640000013,451.26986239999997,452.0971936000001,,,,,452.0973891000003,452.1134798000003,452.33050960000037,452.2972460000001,451.26986239999997,,,,,,,,0,1,0.8197507999998379,None,,,,,,,,810,22,V,R,2026-02-23_11h44.01.371,VisualSearch_2526_3,,2025.2.4,2026-02-23 11h44.01.588044 +0100,
tilted.xlsx,The target is tilted.,117,0,0,0,,,,,,,,,,,,,,,,,space,8.845383800000036,None,,,,,space,3.869676000000254,None,0,0,0,0,,,,,,,,,,,,,,,,,,,,,,,,,,,,,,,,,,,,,,,,,,,,,,,,,,,,,,,,,,,,,,,810,22,V,R,2026-02-23_11h44.01.371,VisualSearch_2526_3,,2025.2.4,2026-02-23 11h44.01.588044 +0100,
vertical.xlsx,The target is tilted.,135,0,0,0,1,1,1,1,0,0,0,0,0,0,0,0,0,3,4,135,space,9.941366900000048,None,1,1,1.092026100000112,None,,,,0,1,1,1,0,0,0,2,,,,,462.3078378,,,,,,,,,,,,,,,452.33050960000037,452.33050960000037,452.33050960000037,space,9.941366900000048,None,462.3033329,462.3078378,462.7957713999999,462.80063420000033,462.81721590000006,463.9119823000001,1,1,1.092026100000112,None,463.9120460000004,463.9280254,464.1281723000002,464.11230520000026,,,,,,,,,,,,,,,,,,,,810,22,V,R,2026-02-23_11h44.01.371,VisualSearch_2526_3,,2025.2.4,2026-02-23 11h44.01.588044 +0100,
vertical.xlsx,The target is tilted.,135,1,1,0,1,0,0,0,0,0,0,0,0,0,0,0,0,0,1,135,space,9.941366900000048,None,1,1,0.614222300000165,None,,,,0,1,1,1,0,1,1,3,,,,,464.1281723000002,,,,,,,,,,,,,,,,,,,,,464.1129771000001,464.1281723000002,464.6123176000001,464.61686009999994,464.6334780000002,465.2627358,1,1,0.614222300000165,None,465.262921,465.2779703000001,465.47830220000014,465.4622838,464.6334780000002,,,,,,,,,,,,,,,,,,,810,22,V,R,2026-02-23_11h44.01.371,VisualSearch_2526_3,,2025.2.4,2026-02-23 11h44.01.588044 +0100,
vertical.xlsx,The target is tilted.,135,2,2,0,1,1,1,1,1,1,1,1,0,0,0,0,0,7,8,135,space,9.941366900000048,None,1,1,1.2212266000001364,None,,,,0,1,1,1,0,2,2,1,,,,,465.47830220000014,,,,,,,,,,,,,,,,,,,,,465.46320220000007,465.47830220000014,465.96208130000014,465.96659530000034,465.98459470000034,467.21228770000016,1,1,1.2212266000001364,None,467.21247440000025,467.2277902999999,467.42791990000023,467.4119420000002,465.98459470000034,,,,,,,,,,,,,,,,,,,810,22,V,R,2026-02-23_11h44.01.371,VisualSearch_2526_3,,2025.2.4,2026-02-23 11h44.01.588044 +0100,
vertical.xlsx,The target is tilted.,135,3,3,0,1,1,1,1,1,1,1,1,1,1,1,1,0,11,12,135,space,9.941366900000048,None,0,0,1.6977177000003394,None,,,,0,1,1,1,0,3,3,0,,,,,467.42791990000023,,,,,,,,,,,,,,,,,,,,,467.41261920000034,467.42791990000023,467.91164070000013,467.9161788000001,467.9328580000001,469.64544190000015,0,0,1.6977177000003394,None,469.6456283000002,469.6609278000001,469.8610020000001,469.84472270000015,467.9328580000001,,,,,,,,,,,,,,,,,,,810,22,V,R,2026-02-23_11h44.01.371,VisualSearch_2526_3,,2025.2.4,2026-02-23 11h44.01.588044 +0100,
vertical.xlsx,The target is tilted.,135,4,4,0,0,1,1,1,1,1,1,1,0,0,0,0,1,7,8,135,space,9.941366900000048,None,0,1,1.7052942999998777,None,,,,0,1,1,1,0,4,4,5,,,,,469.8610020000001,,,,,,,,,,,,,,,,,,,,,469.84541089999993,469.8610020000001,470.34487020000006,470.34985050000023,470.36680270000033,472.07837689999997,0,1,1.7052942999998777,None,472.07856310000034,472.0940369,472.29404030000023,472.2779455,470.36680270000033,,,,,,,,,,,,,,,,,,,810,22,V,R,2026-02-23_11h44.01.371,VisualSearch_2526_3,,2025.2.4,2026-02-23 11h44.01.588044 +0100,
vertical.xlsx,The target is tilted.,135,5,5,0,0,0,0,0,0,0,0,0,0,0,0,0,1,1,1,135,space,9.941366900000048,None,0,1,1.0734403999999813,None,,,,0,1,1,1,0,5,5,7,,,,,472.29404030000023,,,,,,,,,,,,,,,,,,,,,472.27877850000004,472.29404030000023,472.7774360000003,472.78200240000024,472.79815610000014,473.8773427000001,0,1,1.0734403999999813,None,473.8774763000001,473.8936533000001,474.0936947,474.07727479999994,472.79815610000014,,,,,,,,,,,,,,,,,,,810,22,V,R,2026-02-23_11h44.01.371,VisualSearch_2526_3,,2025.2.4,2026-02-23 11h44.01.588044 +0100,
vertical.xlsx,The target is tilted.,135,6,6,0,0,1,1,1,1,1,1,1,1,1,1,1,1,11,12,135,space,9.941366900000048,None,0,1,1.4633602999997493,None,,,,0,1,1,1,0,6,6,4,,,,,474.0936947,,,,,,,,,,,,,,,,,,,,,474.07800480000014,474.0936947,474.5773449000003,474.58239200000025,474.59845399999995,476.07709490000025,0,1,1.4633602999997493,None,476.07723590000023,476.09326710000005,476.2934,476.27734020000025,474.59845399999995,,,,,,,,,,,,,,,,,,,810,22,V,R,2026-02-23_11h44.01.371,VisualSearch_2526_3,,2025.2.4,2026-02-23 11h44.01.588044 +0100,
vertical.xlsx,The target is tilted.,135,7,7,0,0,1,1,1,0,0,0,0,0,0,0,0,1,3,4,135,space,9.941366900000048,None,0,1,0.7534504999998717,None,,,,0,1,1,1,0,7,7,6,,,,,476.2934,,,,,,,,,,,,,,,,,,,,,476.2780963,476.2934,476.7771302000001,476.7824979000002,476.7989225000001,477.5610203000001,0,1,0.7534504999998717,None,477.56120690000034,477.57652830000006,477.7765400000003,477.7603355000001,476.7989225000001,,,,,,,,,,,,,,,,,,,810,22,V,R,2026-02-23_11h44.01.371,VisualSearch_2526_3,,2025.2.4,2026-02-23 11h44.01.588044 +0100,
vertical.xlsx,The target is tilted.,135,0,0,0,1,0,0,0,0,0,0,0,0,0,0,0,0,0,1,135,space,9.941366900000048,None,1,1,0.7720460000000458,None,space,5.105103599999893,None,0,1,1,1,,,,,0,0,0,3,482.92072559999997,,,,,,,,,,,,,,,,,,,,,482.9164823000001,482.92072559999997,483.40913720000026,483.41442540000025,483.43134800000007,484.2099554000001,,,,,484.2101504000002,484.2255573000002,484.4256541,484.40953549999995,,477.7678525000001,477.7765400000003,477.7765400000003,482.8931659,space,5.105103599999893,None,1,1,0.7720460000000458,None,,,,,,,,810,22,V,R,2026-02-23_11h44.01.371,VisualSearch_2526_3,,2025.2.4,2026-02-23 11h44.01.588044 +0100,
vertical.xlsx,The target is tilted.,135,1,1,0,0,1,1,1,1,1,1,1,0,0,0,0,1,7,8,135,space,9.941366900000048,None,0,1,1.118428700000095,None,space,5.105103599999893,None,0,1,1,1,,,,,0,1,1,5,484.4256541,,,,,,,,,,,,,,,,,,,,,484.4103417000001,484.4256541,484.9092820000001,484.9137374000002,484.92541819999997,486.0594487000003,,,,,486.05962160000036,486.07485140000017,486.2752809000003,486.2591242000003,484.92541819999997,,,,,,,,0,1,1.118428700000095,None,,,,,,,,810,22,V,R,2026-02-23_11h44.01.371,VisualSearch_2526_3,,2025.2.4,2026-02-23 11h44.01.588044 +0100,
vertical.xlsx,The target is tilted.,135,2,2,0,1,1,1,1,1,1,1,1,1,1,1,1,0,11,12,135,space,9.941366900000048,None,0,0,1.41076989999965,None,space,5.105103599999893,None,0,1,1,1,,,,,0,2,2,0,486.2752809000003,,,,,,,,,,,,,,,,,,,,,486.2599074,486.2752809000003,486.7588052000001,486.76330830000006,486.77916440000035,488.1928277000002,,,,,488.19301889999997,488.20794060000026,488.4081632000002,488.3921720000003,486.77916440000035,,,,,,,,0,0,1.41076989999965,None,,,,,,,,810,22,V,R,2026-02-23_11h44.01.371,VisualSearch_2526_3,,2025.2.4,2026-02-23 11h44.01.588044 +0100,
vertical.xlsx,The target is tilted.,135,3,3,0,0,1,1,1,0,0,0,0,0,0,0,0,1,3,4,135,space,9.941366900000048,None,0,1,0.6669489999999314,None,space,5.105103599999893,None,0,1,1,1,,,,,0,3,3,6,488.4081632000002,,,,,,,,,,,,,,,,,,,,,488.3929773,488.4081632000002,488.8919986000001,488.89659329999995,488.91317210000034,489.5925674,,,,,489.5927603,489.6081742000001,489.8078889000003,489.79214390000016,488.91317210000034,,,,,,,,0,1,0.6669489999999314,None,,,,,,,,810,22,V,R,2026-02-23_11h44.01.371,VisualSearch_2526_3,,2025.2.4,2026-02-23 11h44.01.588044 +0100,
vertical.xlsx,The target is tilted.,135,4,4,0,0,1,1,1,1,1,1,1,1,1,1,1,1,11,12,135,space,9.941366900000048,None,0,1,1.4074282999999923,None,space,5.105103599999893,None,0,1,1,1,,,,,0,4,4,4,489.8078889000003,,,,,,,,,,,,,,,,,,,,,489.7929405,489.8078889000003,490.2918440000003,490.2964416,490.31339130000015,491.7252824000002,,,,,491.72547170000007,491.74104520000037,491.94070469999997,491.92481399999997,490.31339130000015,,,,,,,,0,1,1.4074282999999923,None,,,,,,,,810,22,V,R,2026-02-23_11h44.01.371,VisualSearch_2526_3,,2025.2.4,2026-02-23 11h44.01.588044 +0100,
vertical.xlsx,The target is tilted.,135,5,5,0,0,0,0,0,0,0,0,0,0,0,0,0,1,1,1,135,space,9.941366900000048,None,0,1,0.5887613999998393,None,space,5.105103599999893,None,0,1,1,1,,,,,0,5,5,7,491.94070469999997,,,,,,,,,,,,,,,,,,,,,491.92563670000027,491.94070469999997,492.42520200000035,492.43032540000013,492.44718580000017,493.04141560000016,,,,,493.04155850000006,493.05741820000003,493.25726220000024,493.2411981,492.44718580000017,,,,,,,,0,1,0.5887613999998393,None,,,,,,,,810,22,V,R,2026-02-23_11h44.01.371,VisualSearch_2526_3,,2025.2.4,2026-02-23 11h44.01.588044 +0100,
vertical.xlsx,The target is tilted.,135,6,6,0,1,1,1,1,1,1,1,1,0,0,0,0,0,7,8,135,space,9.941366900000048,None,1,1,0.9420371000001069,None,space,5.105103599999893,None,0,1,1,1,,,,,0,6,6,1,493.25726220000024,,,,,,,,,,,,,,,,,,,,,493.24189730000035,493.25726220000024,493.7413697000002,493.7458951000003,493.76124310000023,494.7083968000002,,,,,494.7085869000002,494.7238287,494.92405350000035,494.9078701000003,493.76124310000023,,,,,,,,1,1,0.9420371000001069,None,,,,,,,,810,22,V,R,2026-02-23_11h44.01.371,VisualSearch_2526_3,,2025.2.4,2026-02-23 11h44.01.588044 +0100,
vertical.xlsx,The target is tilted.,135,7,7,0,1,1,1,1,0,0,0,0,0,0,0,0,0,3,4,135,space,9.941366900000048,None,1,1,0.7190104999999676,None,space,5.105103599999893,None,0,1,1,1,,,,,0,7,7,2,494.92405350000035,,,,,,,,,,,,,,,,,,,,,494.9086894000002,494.92405350000035,495.407999,495.4125194000003,495.4238481000002,496.1573346,,,,,496.1574644000002,496.1737177,496.3738400000002,496.3573540000002,495.4238481000002,,,,,,,,1,1,0.7190104999999676,None,,,,,,,,810,22,V,R,2026-02-23_11h44.01.371,VisualSearch_2526_3,,2025.2.4,2026-02-23 11h44.01.588044 +0100,
vertical.xlsx,The target is tilted.,135,8,0,1,0,1,1,1,1,1,1,1,0,0,0,0,1,7,8,135,space,9.941366900000048,None,0,1,1.219268700000157,None,space,5.105103599999893,None,0,1,1,1,,,,,1,0,8,5,496.3738400000002,,,,,,,,,,,,,,,,,,,,,496.3580852,496.3738400000002,496.8574643000002,496.86259070000006,496.87881689999995,498.1078238,,,,,498.1080161,498.12356739999996,498.32333830000016,498.30661710000004,496.87881689999995,,,,,,,,0,1,1.219268700000157,None,,,,,,,,810,22,V,R,2026-02-23_11h44.01.371,VisualSearch_2526_3,,2025.2.4,2026-02-23 11h44.01.588044 +0100,
vertical.xlsx,The target is tilted.,135,9,1,1,0,1,1,1,1,1,1,1,1,1,1,1,1,11,12,135,space,9.941366900000048,None,0,1,1.2442691999999624,None,space,5.105103599999893,None,0,1,1,1,,,,,1,1,9,4,498.32333830000016,,,,,,,,,,,,,,,,,,,,,498.3069152000003,498.32333830000016,498.8072549000003,498.81249400000024,498.82561510000005,500.0741310000003,,,,,500.07432210000024,500.0898608000002,500.28997389999995,500.27366870000014,498.82561510000005,,,,,,,,0,1,1.2442691999999624,None,,,,,,,,810,22,V,R,2026-02-23_11h44.01.371,VisualSearch_2526_3,,2025.2.4,2026-02-23 11h44.01.588044 +0100,
vertical.xlsx,The target is tilted.,135,10,2,1,0,1,1,1,0,0,0,0,0,0,0,0,1,3,4,135,space,9.941366900000048,None,0,1,0.710065200000372,None,space,5.105103599999893,None,0,1,1,1,,,,,1,2,10,6,500.28997389999995,,,,,,,,,,,,,,,,,,,,,500.2745597000003,500.28997389999995,500.7736113000001,500.7788851,500.7945387,501.5083181,,,,,501.50850979999996,501.52315160000035,501.72312009999996,501.70699749999994,500.7945387,,,,,,,,0,1,0.710065200000372,None,,,,,,,,810,22,V,R,2026-02-23_11h44.01.371,VisualSearch_2526_3,,2025.2.4,2026-02-23 11h44.01.588044 +0100,
vertical.xlsx,The target is tilted.,135,11,3,1,1,1,1,1,1,1,1,1,1,1,1,1,0,11,12,135,space,9.941366900000048,None,1,1,1.7356356000000233,None,space,5.105103599999893,None,0,1,1,1,,,,,1,3,11,0,501.72312009999996,,,,,,,,,,,,,,,,,,,,,501.7078139,501.72312009999996,502.20696369999996,502.2114882999999,502.2282424,503.9738916000001,,,,,503.97408459999997,503.98942460000035,504.1894059000001,504.17324110000027,502.2282424,,,,,,,,1,1,1.7356356000000233,None,,,,,,,,810,22,V,R,2026-02-23_11h44.01.371,VisualSearch_2526_3,,2025.2.4,2026-02-23 11h44.01.588044 +0100,
vertical.xlsx,The target is tilted.,135,12,4,1,1,1,1,1,1,1,1,1,0,0,0,0,0,7,8,135,space,9.941366900000048,None,0,0,1.395943100000295,None,space,5.105103599999893,None,0,1,1,1,,,,,1,4,12,1,504.1894059000001,,,,,,,,,,,,,,,,,,,,,504.17394190000005,504.1894059000001,504.6728799000002,504.6776447000002,504.68913810000004,506.0900988000003,,,,,506.09029340000006,506.10562610000034,506.3057941000002,506.28948830000036,504.68913810000004,,,,,,,,0,0,1.395943100000295,None,,,,,,,,810,22,V,R,2026-02-23_11h44.01.371,VisualSearch_2526_3,,2025.2.4,2026-02-23 11h44.01.588044 +0100,
vertical.xlsx,The target is tilted.,135,13,5,1,0,0,0,0,0,0,0,0,0,0,0,0,1,1,1,135,space,9.941366900000048,None,0,1,0.652097700000013,None,space,5.105103599999893,None,0,1,1,1,,,,,1,5,13,7,506.3057941000002,,,,,,,,,,,,,,,,,,,,,506.2902796000003,506.3057941000002,506.78917279999996,506.79382920000035,506.8052934000002,507.47371650000014,,,,,507.4739563000003,507.4889502000001,507.6889567000003,507.6728656,506.8052934000002,,,,,,,,0,1,0.652097700000013,None,,,,,,,,810,22,V,R,2026-02-23_11h44.01.371,VisualSearch_2526_3,,2025.2.4,2026-02-23 11h44.01.588044 +0100,
vertical.xlsx,The target is tilted.,135,14,6,1,1,1,1,1,0,0,0,0,0,0,0,0,0,3,4,135,space,9.941366900000048,None,1,1,1.049826899999971,None,space,5.105103599999893,None,0,1,1,1,,,,,1,6,14,2,507.6889567000003,,,,,,,,,,,,,,,,,,,,,507.67366949999996,507.6889567000003,508.1727442000001,508.17729480000025,508.19503639999994,509.2563511000003,,,,,509.2565274000003,509.27199139999993,509.4720066,509.45591520000016,508.19503639999994,,,,,,,,1,1,1.049826899999971,None,,,,,,,,810,22,V,R,2026-02-23_11h44.01.371,VisualSearch_2526_3,,2025.2.4,2026-02-23 11h44.01.588044 +0100,
vertical.xlsx,The target is tilted.,135,15,7,1,1,0,0,0,0,0,0,0,0,0,0,0,0,0,1,135,space,9.941366900000048,None,1,1,0.6176539000002776,None,space,5.105103599999893,None,0,1,1,1,,,,,1,7,15,3,509.4720066,,,,,,,,,,,,,,,,,,,,,509.45661659999996,509.4720066,509.9554392,509.9600561000002,509.9758403999999,510.6063575000003,,,,,510.6065665000001,510.62173610000036,510.8219075000002,510.8058212000001,509.9758403999999,,,,,,,,1,1,0.6176539000002776,None,,,,,,,,810,22,V,R,2026-02-23_11h44.01.371,VisualSearch_2526_3,,2025.2.4,2026-02-23 11h44.01.588044 +0100,
vertical.xlsx,The target is tilted.,135,16,0,2,0,1,1,1,0,0,0,0,0,0,0,0,1,3,4,135,space,9.941366900000048,None,0,1,1.0819308999998611,None,space,5.105103599999893,None,0,1,1,1,,,,,2,0,16,6,510.8219075000002,,,,,,,,,,,,,,,,,,,,,510.80661550000013,510.8219075000002,511.30548610000005,511.31014529999993,511.32530750000024,512.4226503,,,,,512.4228636000003,512.4381542000001,512.6380369000003,512.6215906000002,511.32530750000024,,,,,,,,0,1,1.0819308999998611,None,,,,,,,,810,22,V,R,2026-02-23_11h44.01.371,VisualSearch_2526_3,,2025.2.4,2026-02-23 11h44.01.588044 +0100,
vertical.xlsx,The target is tilted.,135,17,1,2,0,1,1,1,1,1,1,1,1,1,1,1,1,11,12,135,space,9.941366900000048,None,0,1,2.2454907999999705,None,space,5.105103599999893,None,0,1,1,1,,,,,2,1,17,4,512.6380369000003,,,,,,,,,,,,,,,,,,,,,512.6223471000003,512.6380369000003,513.1217734000002,513.1269593000002,513.1432096000003,515.4056485000001,,,,,515.4058661000004,515.4211523000004,515.6209345000002,515.6050849000003,513.1432096000003,,,,,,,,0,1,2.2454907999999705,None,,,,,,,,810,22,V,R,2026-02-23_11h44.01.371,VisualSearch_2526_3,,2025.2.4,2026-02-23 11h44.01.588044 +0100,
vertical.xlsx,The target is tilted.,135,18,2,2,1,1,1,1,1,1,1,1,0,0,0,0,0,7,8,135,space,9.941366900000048,None,0,0,1.5542224000000715,None,space,5.105103599999893,None,0,1,1,1,,,,,2,2,18,1,515.6209345000002,,,,,,,,,,,,,,,,,,,,,515.6059096000004,515.6209345000002,516.1050445000001,516.1103222000002,516.1280487000004,517.6882524000002,,,,,517.6884448999999,517.7040903000002,517.9040282000001,517.8879166000002,516.1280487000004,,,,,,,,0,0,1.5542224000000715,None,,,,,,,,810,22,V,R,2026-02-23_11h44.01.371,VisualSearch_2526_3,,2025.2.4,2026-02-23 11h44.01.588044 +0100,
vertical.xlsx,The target is tilted.,135,19,3,2,0,0,0,0,0,0,0,0,0,0,0,0,1,1,1,135,space,9.941366900000048,None,0,1,0.8040949999999611,None,space,5.105103599999893,None,0,1,1,1,,,,,2,3,19,7,517.9040282000001,,,,,,,,,,,,,,,,,,,,,517.8887528,517.9040282000001,518.3872804000002,518.389103,518.4039589000004,519.2216693,,,,,519.2218637999999,519.2368664,519.4371807000002,519.4210668000001,518.4039589000004,,,,,,,,0,1,0.8040949999999611,None,,,,,,,,810,22,V,R,2026-02-23_11h44.01.371,VisualSearch_2526_3,,2025.2.4,2026-02-23 11h44.01.588044 +0100,
vertical.xlsx,The target is tilted.,135,20,4,2,0,1,1,1,1,1,1,1,0,0,0,0,1,7,8,135,space,9.941366900000048,None,0,1,2.2492545000000064,None,space,5.105103599999893,None,0,1,1,1,,,,,2,4,20,5,519.4371807000002,,,,,,,,,,,,,,,,,,,,,519.4217979,519.4371807000002,519.9210593000003,519.9256997000002,519.9367284,522.1866348000003,,,,,522.1867193000003,522.2032678,,522.3869913000003,519.9367284,,,,,,,,0,1,2.2492545000000064,None,,,,,,,,810,22,V,R,2026-02-23_11h44.01.371,VisualSearch_2526_3,,2025.2.4,2026-02-23 11h44.01.588044 +0100,
vertical.xlsx,The target is tilted.,135,21,5,2,1,0,0,0,0,0,0,0,0,0,0,0,0,0,1,135,space,9.941366900000048,None,1,1,0.6563372999999046,None,space,5.105103599999893,None,0,1,1,1,,,,,2,5,21,3,522.4035189000001,,,,,,,,,,,,,,,,,,,,,522.3878235000002,522.4035189000001,522.8868852,522.8914962000003,522.9075824000001,523.5702725000001,,,,,523.5703719000003,523.5863316,523.7861199000004,523.7701685000002,522.9075824000001,,,,,,,,1,1,0.6563372999999046,None,,,,,,,,810,22,V,R,2026-02-23_11h44.01.371,VisualSearch_2526_3,,2025.2.4,2026-02-23 11h44.01.588044 +0100,
vertical.xlsx,The target is tilted.,135,22,6,2,1,1,1,1,0,0,0,0,0,0,0,0,0,3,4,135,space,9.941366900000048,None,1,1,0.7365327000002253,None,space,5.105103599999893,None,0,1,1,1,,,,,2,6,22,2,523.7861199000004,,,,,,,,,,,,,,,,,,,,,523.7710477,523.7861199000004,524.2704972000001,524.2756450000002,524.2938944000002,525.0375434000002,,,,,525.0377456000001,525.0528203000003,525.2531571,525.2370857999999,524.2938944000002,,,,,,,,1,1,0.7365327000002253,None,,,,,,,,810,22,V,R,2026-02-23_11h44.01.371,VisualSearch_2526_3,,2025.2.4,2026-02-23 11h44.01.588044 +0100,
vertical.xlsx,The target is tilted.,135,23,7,2,1,1,1,1,1,1,1,1,1,1,1,1,0,11,12,135,space,9.941366900000048,None,0,0,2.6178192000002127,None,space,5.105103599999893,None,0,1,1,1,,,,,2,7,23,0,525.2531571,,,,,,,,,,,,,,,,,,,,,525.2379211000002,525.2531571,525.7369762000003,525.7420135000002,525.7600393000002,528.3868272,,,,,528.387029,528.4024251000001,528.602547,528.5864912000002,525.7600393000002,,,,,,,,0,0,2.6178192000002127,None,,,,,,,,810,22,V,R,2026-02-23_11h44.01.371,VisualSearch_2526_3,,2025.2.4,2026-02-23 11h44.01.588044 +0100,
vertical.xlsx,The target is tilted.,135,24,0,3,0,1,1,1,1,1,1,1,1,1,1,1,1,11,12,135,space,9.941366900000048,None,0,1,2.7098535000000084,None,space,5.105103599999893,None,0,1,1,1,,,,,3,0,24,4,528.602547,,,,,,,,,,,,,,,,,,,,,528.5873123000001,528.602547,529.0859378,529.0905353000003,529.1066655,531.8197668000003,,,,,531.8199591000002,531.835239,532.0355036999999,532.0193909,529.1066655,,,,,,,,0,1,2.7098535000000084,None,,,,,,,,810,22,V,R,2026-02-23_11h44.01.371,VisualSearch_2526_3,,2025.2.4,2026-02-23 11h44.01.588044 +0100,
vertical.xlsx,The target is tilted.,135,25,1,3,1,1,1,1,0,0,0,0,0,0,0,0,0,3,4,135,space,9.941366900000048,None,1,1,0.9119339999997464,None,space,5.105103599999893,None,0,1,1,1,,,,,3,1,25,2,532.0355036999999,,,,,,,,,,,,,,,,,,,,,532.0202185000003,532.0355036999999,532.5193113,532.5245225000003,532.5392502,533.4530453000002,,,,,533.4532842000003,533.4684901,533.6685598000004,533.6525392000003,532.5392502,,,,,,,,1,1,0.9119339999997464,None,,,,,,,,810,22,V,R,2026-02-23_11h44.01.371,VisualSearch_2526_3,,2025.2.4,2026-02-23 11h44.01.588044 +0100,
vertical.xlsx,The target is tilted.,135,26,2,3,1,1,1,1,1,1,1,1,0,0,0,0,0,7,8,135,space,9.941366900000048,None,1,1,1.5893666000001758,None,space,5.105103599999893,None,0,1,1,1,,,,,3,2,26,1,533.6685598000004,,,,,,,,,,,,,,,,,,,,,533.6533562,533.6685598000004,534.152243,534.1567799,534.1733865000001,535.7691471000003,,,,,535.7693391000003,535.7847500000003,535.9849908000001,535.9688277,534.1733865000001,,,,,,,,1,1,1.5893666000001758,None,,,,,,,,810,22,V,R,2026-02-23_11h44.01.371,VisualSearch_2526_3,,2025.2.4,2026-02-23 11h44.01.588044 +0100,
vertical.xlsx,The target is tilted.,135,27,3,3,0,1,1,1,0,0,0,0,0,0,0,0,1,3,4,135,space,9.941366900000048,None,0,1,0.860893500000202,None,space,5.105103599999893,None,0,1,1,1,,,,,3,3,27,6,535.9849908000001,,,,,,,,,,,,,,,,,,,,,535.9697672000002,535.9849908000001,536.4687551000002,536.4738264000002,536.4885906,537.3525251000001,,,,,537.3527290000002,537.3678923000002,537.5679712000001,537.5517949,536.4885906,,,,,,,,0,1,0.860893500000202,None,,,,,,,,810,22,V,R,2026-02-23_11h44.01.371,VisualSearch_2526_3,,2025.2.4,2026-02-23 11h44.01.588044 +0100,
vertical.xlsx,The target is tilted.,135,28,4,3,0,0,0,0,0,0,0,0,0,0,0,0,1,1,1,135,space,9.941366900000048,None,0,1,0.60896989999992,None,space,5.105103599999893,None,0,1,1,1,,,,,3,4,28,7,537.5679712000001,,,,,,,,,,,,,,,,,,,,,537.5525207000001,537.5679712000001,538.0513779000003,538.0560369,538.0671284,538.6855621,,,,,538.6857533000002,538.7010359000001,538.9011605000001,538.8851097000002,538.0671284,,,,,,,,0,1,0.60896989999992,None,,,,,,,,810,22,V,R,2026-02-23_11h44.01.371,VisualSearch_2526_3,,2025.2.4,2026-02-23 11h44.01.588044 +0100,
vertical.xlsx,The target is tilted.,135,29,5,3,1,1,1,1,1,1,1,1,1,1,1,1,0,11,12,135,space,9.941366900000048,None,1,1,0.9312251999999717,None,space,5.105103599999893,None,0,1,1,1,,,,,3,5,29,0,538.9011605000001,,,,,,,,,,,,,,,,,,,,,538.8859070000003,538.9011605000001,539.384943,539.3895436000003,539.4052502,540.3518348000002,,,,,540.352011,540.3672407000004,540.5673715000003,540.5512502000001,539.4052502,,,,,,,,1,1,0.9312251999999717,None,,,,,,,,810,22,V,R,2026-02-23_11h44.01.371,VisualSearch_2526_3,,2025.2.4,2026-02-23 11h44.01.588044 +0100,
vertical.xlsx,The target is tilted.,135,30,6,3,1,0,0,0,0,0,0,0,0,0,0,0,0,0,1,135,space,9.941366900000048,None,1,1,0.620536799999627,None,space,5.105103599999893,None,0,1,1,1,,,,,3,6,30,3,540.5673715000003,,,,,,,,,,,,,,,,,,,,,540.5519729000002,540.5673715000003,541.0514872000003,541.0563774000002,541.0730145000002,541.7018783000003,,,,,541.7020987000001,541.7173329000002,541.9169532000001,541.9008596000003,541.0730145000002,,,,,,,,1,1,0.620536799999627,None,,,,,,,,810,22,V,R,2026-02-23_11h44.01.371,VisualSearch_2526_3,,2025.2.4,2026-02-23 11h44.01.588044 +0100,
vertical.xlsx,The target is tilted.,135,31,7,3,0,1,1,1,1,1,1,1,0,0,0,0,1,7,8,135,space,9.941366900000048,None,0,1,2.481521100000009,None,space,5.105103599999893,None,0,1,1,1,,,,,3,7,31,5,541.9169532000001,,,,,,,,,,,,,,,,,,,,,541.9016127,541.9169532000001,542.4011591000003,542.4048640000001,542.4165995000003,544.9013812000003,,,,,544.9015775000003,544.9167555000004,545.1166204000001,545.1007779000001,542.4165995000003,,,,,,,,0,1,2.481521100000009,None,,,,,,,,810,22,V,R,2026-02-23_11h44.01.371,VisualSearch_2526_3,,2025.2.4,2026-02-23 11h44.01.588044 +0100,
vertical.xlsx,The target is tilted.,135,32,0,4,0,1,1,1,1,1,1,1,0,0,0,0,1,7,8,135,space,9.941366900000048,None,0,1,3.0852193000000625,None,space,5.105103599999893,None,0,1,1,1,,,,,4,0,32,5,545.1166204000001,,,,,,,,,,,,,,,,,,,,,545.1014783,545.1166204000001,545.6006560999999,545.6052498000004,545.6234999000003,548.7176585000002,,,,,548.7178882000003,548.7329296000003,548.9329820000003,548.9168092,545.6234999000003,,,,,,,,0,1,3.0852193000000625,None,,,,,,,,810,22,V,R,2026-02-23_11h44.01.371,VisualSearch_2526_3,,2025.2.4,2026-02-23 11h44.01.588044 +0100,
vertical.xlsx,The target is tilted.,135,33,1,4,1,1,1,1,1,1,1,1,1,1,1,1,0,11,12,135,space,9.941366900000048,None,1,1,1.0928248000000167,None,space,5.105103599999893,None,0,1,1,1,,,,,4,1,33,0,548.9329820000003,,,,,,,,,,,,,,,,,,,,,548.9175638000002,548.9329820000003,549.4166995,549.4212589000003,549.4378404000004,550.534001,,,,,550.5342092999999,550.5491469000003,550.7494676000001,550.7334213000004,549.4378404000004,,,,,,,,1,1,1.0928248000000167,None,,,,,,,,810,22,V,R,2026-02-23_11h44.01.371,VisualSearch_2526_3,,2025.2.4,2026-02-23 11h44.01.588044 +0100,
vertical.xlsx,The target is tilted.,135,34,2,4,1,1,1,1,1,1,1,1,0,0,0,0,0,7,8,135,space,9.941366900000048,None,0,0,2.2607748000000356,None,space,5.105103599999893,None,0,1,1,1,,,,,4,2,34,1,550.7494676000001,,,,,,,,,,,,,,,,,,,,,550.7343279000002,550.7494676000001,551.2333803000001,551.2386144000002,551.2563079000001,553.5331408000002,,,,,553.5333383000002,553.5488456000003,553.7489952999999,553.7329895000003,551.2563079000001,,,,,,,,0,0,2.2607748000000356,None,,,,,,,,810,22,V,R,2026-02-23_11h44.01.371,VisualSearch_2526_3,,2025.2.4,2026-02-23 11h44.01.588044 +0100,
vertical.xlsx,The target is tilted.,135,35,3,4,1,1,1,1,0,0,0,0,0,0,0,0,0,3,4,135,space,9.941366900000048,None,1,1,0.8600085999996736,None,space,5.105103599999893,None,0,1,1,1,,,,,4,3,35,2,553.7489952999999,,,,,,,,,,,,,,,,,,,,,553.7338602,553.7489952999999,554.232528,554.2374653000002,554.2544476000003,555.1165030000002,,,,,555.1166948,555.1318873,555.3320990000002,555.3161559,554.2544476000003,,,,,,,,1,1,0.8600085999996736,None,,,,,,,,810,22,V,R,2026-02-23_11h44.01.371,VisualSearch_2526_3,,2025.2.4,2026-02-23 11h44.01.588044 +0100,
