file_name,block_instructions,target_example,thisN,thisTrialN,thisRepN,target_presence,opacity_1,opacity_2,opacity_3,opacity_4,opacity_5,opacity_6,opacity_7,opacity_8,opacity_9,opacity_10,opacity_11,opacity_12,n_distract,n_items,target_ori,key_resp_4.keys,key_resp_4.rt,key_resp_4.duration,key_resp.keys,key_resp.corr,key_resp.rt,key_resp.duration,key_resp_5.keys,key_resp_5.rt,key_resp_5.duration,blocks.thisRepN,blocks.thisTrialN,blocks.thisN,blocks.thisIndex,practice_trials.thisRepN,practice_trials.thisTrialN,practice_trials.thisN,practice_trials.thisIndex,trials.thisRepN,trials.thisTrialN,trials.thisN,trials.thisIndex,thisRow.t,notes,Welcome.started,WelcomeText.started,key_resp_2.started,Welcome.stopped,key_resp_2.keys,key_resp_2.rt,key_resp_2.duration,InformedConsent.started,text_4.started,InformedConsent.stopped,key_resp_6.keys,key_resp_6.rt,key_resp_6.duration,key_resp_4.started,example_target.started,text_3.started,blocks.key_resp_4.keys,blocks.key_resp_4.rt,blocks.key_resp_4.duration,FixCross.started,fixCross.started,FixCross.stopped,Stimulus.started,key_resp.started,Stimulus.stopped,practice_trials.key_resp.keys,practice_trials.key_resp.corr,practice_trials.key_resp.rt,practice_trials.key_resp.duration,BlankScreen.started,text.started,text.stopped,BlankScreen.stopped,fixCross.stopped,ExperimentStart.started,text_2.started,key_resp_5.started,ExperimentStart.stopped,blocks.key_resp_5.keys,blocks.key_resp_5.rt,blocks.key_resp_5.duration,trials.key_resp.keys,trials.key_resp.corr,trials.key_resp.rt,trials.key_resp.duration,Thanks.started,ThankYou.started,key_resp_3.started,Thanks.stopped,key_resp_3.keys,key_resp_3.rt,key_resp_3.duration,participant,leeftijd,gender,links/rechtshandig,date,expName,expVersion,psychopyVersion,expStart,
,,,,,,,,,,,,,,,,,,,,,,,,,,,,,,,,,,,,,,,,,,,,,,0.024106899999878806,0.05369990000008329,0.05369990000008329,31.858998100000008,space,31.78942219999999,None,,,,,,,,,,,,,,,,,,,,,,,,,,,,,,,,,,,,,,,,,,,,,,811,23,M,L,2026-02-23_12h00.45.111,VisualSearch_2526_3,,2025.2.4,2026-02-23 12h00.45.311534 +0100,
,,,,,,,,,,,,,,,,,,,,,,,,,,,,,,,,,,,,,,,,,,,,,,,,,,,,,31.859061099999963,31.867700799999966,34.21878029999971,y,2.3581091000000924,None,,,,,,,,,,,,,,,,,,,,,,,,,,,,,,,,,,,,,,,,811,23,M,L,2026-02-23_12h00.45.111,VisualSearch_2526_3,,2025.2.4,2026-02-23 12h00.45.311534 +0100,
vertical.xlsx,The target is tilted.,135,0,0,0,0,1,1,1,1,1,1,1,0,0,0,0,1,7,8,135,space,4.779600200000004,None,0,1,0.8431386000002021,None,,,,0,0,0,1,0,0,0,5,,,,,39.07850890000009,,,,,,,,,,,,,,,34.256423299999824,34.256423299999824,34.256423299999824,space,4.779600200000004,None,39.07385199999999,39.07850890000009,39.56664439999986,39.56889869999986,39.583066099999996,40.434380899999724,0,1,0.8431386000002021,None,40.43461189999971,40.44984569999997,40.64988979999998,40.633718600000066,,,,,,,,,,,,,,,,,,,,811,23,M,L,2026-02-23_12h00.45.111,VisualSearch_2526_3,,2025.2.4,2026-02-23 12h00.45.311534 +0100,
vertical.xlsx,The target is tilted.,135,1,1,0,0,1,1,1,1,1,1,1,1,1,1,1,1,11,12,135,space,4.779600200000004,None,0,1,0.9264756000002308,None,,,,0,0,0,1,0,1,1,4,,,,,40.64988979999998,,,,,,,,,,,,,,,,,,,,,40.63442989999976,40.64988979999998,41.133075299999746,41.13685859999987,41.152392099999815,42.083911700000044,0,1,0.9264756000002308,None,42.08410449999974,42.09943380000004,42.29955919999975,42.28342969999994,41.152392099999815,,,,,,,,,,,,,,,,,,,811,23,M,L,2026-02-23_12h00.45.111,VisualSearch_2526_3,,2025.2.4,2026-02-23 12h00.45.311534 +0100,
vertical.xlsx,The target is tilted.,135,2,2,0,0,1,1,1,0,0,0,0,0,0,0,0,1,3,4,135,space,4.779600200000004,None,0,1,0.7889212000000043,None,,,,0,0,0,1,0,2,2,6,,,,,42.29955919999975,,,,,,,,,,,,,,,,,,,,,42.284208300000046,42.29955919999975,42.78338889999986,42.788358100000096,42.80355099999997,43.60034709999991,0,1,0.7889212000000043,None,43.60055379999994,43.615614899999855,43.81609279999975,43.79983099999981,42.80355099999997,,,,,,,,,,,,,,,,,,,811,23,M,L,2026-02-23_12h00.45.111,VisualSearch_2526_3,,2025.2.4,2026-02-23 12h00.45.311534 +0100,
vertical.xlsx,The target is tilted.,135,3,3,0,1,1,1,1,1,1,1,1,1,1,1,1,0,11,12,135,space,4.779600200000004,None,1,1,0.8094918000001599,None,,,,0,0,0,1,0,3,3,0,,,,,43.81609279999975,,,,,,,,,,,,,,,,,,,,,43.80052930000011,43.81609279999975,44.299706700000115,44.30724349999991,44.31893149999996,45.13352429999986,1,1,0.8094918000001599,None,45.13371789999974,45.148609999999735,45.34876140000006,45.33295259999977,44.31893149999996,,,,,,,,,,,,,,,,,,,811,23,M,L,2026-02-23_12h00.45.111,VisualSearch_2526_3,,2025.2.4,2026-02-23 12h00.45.311534 +0100,
vertical.xlsx,The target is tilted.,135,4,4,0,0,0,0,0,0,0,0,0,0,0,0,0,1,1,1,135,space,4.779600200000004,None,0,1,0.615049099999851,None,,,,0,0,0,1,0,4,4,7,,,,,45.34876140000006,,,,,,,,,,,,,,,,,,,,,45.33369319999974,45.34876140000006,45.83296969999992,45.83793859999969,45.85324219999984,46.48282829999971,0,1,0.615049099999851,None,46.4830293,46.49852239999973,46.69916329999978,46.68297570000004,45.85324219999984,,,,,,,,,,,,,,,,,,,811,23,M,L,2026-02-23_12h00.45.111,VisualSearch_2526_3,,2025.2.4,2026-02-23 12h00.45.311534 +0100,
vertical.xlsx,The target is tilted.,135,5,5,0,1,1,1,1,1,1,1,1,0,0,0,0,0,7,8,135,space,4.779600200000004,None,1,1,1.1541732000000593,None,,,,0,0,0,1,0,5,5,1,,,,,46.69916329999978,,,,,,,,,,,,,,,,,,,,,46.68373930000007,46.69916329999978,47.18284050000011,47.1877814999998,47.204986599999756,48.36614019999979,1,1,1.1541732000000593,None,48.36633660000007,48.38163519999989,48.581675599999926,48.565715100000034,47.204986599999756,,,,,,,,,,,,,,,,,,,811,23,M,L,2026-02-23_12h00.45.111,VisualSearch_2526_3,,2025.2.4,2026-02-23 12h00.45.311534 +0100,
vertical.xlsx,The target is tilted.,135,6,6,0,1,1,1,1,0,0,0,0,0,0,0,0,0,3,4,135,space,4.779600200000004,None,1,1,0.7048221000000012,None,,,,0,0,0,1,0,6,6,2,,,,,48.581675599999926,,,,,,,,,,,,,,,,,,,,,48.566829699999744,48.581675599999926,49.06581869999991,49.07067899999993,49.08175009999968,49.79887819999976,1,1,0.7048221000000012,None,49.799015600000075,49.814492900000005,50.01519680000001,49.99899520000008,49.08175009999968,,,,,,,,,,,,,,,,,,,811,23,M,L,2026-02-23_12h00.45.111,VisualSearch_2526_3,,2025.2.4,2026-02-23 12h00.45.311534 +0100,
vertical.xlsx,The target is tilted.,135,7,7,0,1,0,0,0,0,0,0,0,0,0,0,0,0,0,1,135,space,4.779600200000004,None,1,1,0.4917832000000999,None,,,,0,0,0,1,0,7,7,3,,,,,50.01519680000001,,,,,,,,,,,,,,,,,,,,,49.99975199999972,50.01519680000001,50.49881319999986,50.503736599999684,50.519559599999866,51.015715499999715,1,1,0.4917832000000999,None,51.01590979999992,51.03119539999989,51.231939899999816,51.215694299999996,50.519559599999866,,,,,,,,,,,,,,,,,,,811,23,M,L,2026-02-23_12h00.45.111,VisualSearch_2526_3,,2025.2.4,2026-02-23 12h00.45.311534 +0100,
vertical.xlsx,The target is tilted.,135,0,0,0,0,0,0,0,0,0,0,0,0,0,0,0,1,1,1,135,space,4.779600200000004,None,0,1,0.5925694000002295,None,space,1.2858026999997492,None,0,0,0,1,,,,,0,0,0,7,52.56033329999991,,,,,,,,,,,,,,,,,,,,,52.556503599999814,52.56033329999991,53.04805129999977,53.05309390000002,53.068436499999734,53.66460310000002,,,,,53.66468799999984,53.6805945000001,,53.86509500000011,,51.22421219999978,51.231939899999816,51.231939899999816,52.53236449999986,space,1.2858026999997492,None,0,1,0.5925694000002295,None,,,,,,,,811,23,M,L,2026-02-23_12h00.45.111,VisualSearch_2526_3,,2025.2.4,2026-02-23 12h00.45.311534 +0100,
vertical.xlsx,The target is tilted.,135,1,1,0,0,1,1,1,1,1,1,1,1,1,1,1,1,11,12,135,space,4.779600200000004,None,0,1,1.4884154999999737,None,space,1.2858026999997492,None,0,0,0,1,,,,,0,1,1,4,53.88105659999974,,,,,,,,,,,,,,,,,,,,,53.8660989,53.88105659999974,54.364805199999864,54.36995399999978,54.38655549999976,55.882095299999946,,,,,55.882298999999875,55.897097799999756,56.09732499999973,56.08079839999982,,,,,,,,,0,1,1.4884154999999737,None,,,,,,,,811,23,M,L,2026-02-23_12h00.45.111,VisualSearch_2526_3,,2025.2.4,2026-02-23 12h00.45.311534 +0100,
vertical.xlsx,The target is tilted.,135,2,2,0,1,1,1,1,1,1,1,1,1,1,1,1,0,11,12,135,space,4.779600200000004,None,1,1,1.0878695999999763,None,space,1.2858026999997492,None,0,0,0,1,,,,,0,2,2,0,56.09732499999973,,,,,,,,,,,,,,,,,,,,,56.08131460000004,56.09732499999973,56.581535599999825,56.58657829999993,56.602745199999845,57.698514299999715,,,,,57.698718799999824,57.713536100000056,57.91407679999975,57.897646500000064,56.602745199999845,,,,,,,,1,1,1.0878695999999763,None,,,,,,,,811,23,M,L,2026-02-23_12h00.45.111,VisualSearch_2526_3,,2025.2.4,2026-02-23 12h00.45.311534 +0100,
vertical.xlsx,The target is tilted.,135,3,3,0,1,1,1,1,1,1,1,1,0,0,0,0,0,7,8,135,space,4.779600200000004,None,1,1,0.8211487999997189,None,space,1.2858026999997492,None,0,0,0,1,,,,,0,3,3,1,57.91407679999975,,,,,,,,,,,,,,,,,,,,,57.89844959999982,57.91407679999975,58.39803309999979,58.40344349999987,58.4193651999999,59.24837099999968,,,,,59.24862230000008,59.2633851999999,59.46391719999974,59.44784600000003,58.4193651999999,,,,,,,,1,1,0.8211487999997189,None,,,,,,,,811,23,M,L,2026-02-23_12h00.45.111,VisualSearch_2526_3,,2025.2.4,2026-02-23 12h00.45.311534 +0100,
vertical.xlsx,The target is tilted.,135,4,4,0,0,1,1,1,0,0,0,0,0,0,0,0,1,3,4,135,space,4.779600200000004,None,0,1,0.6687517999998818,None,space,1.2858026999997492,None,0,0,0,1,,,,,0,4,4,6,59.46391719999974,,,,,,,,,,,,,,,,,,,,,59.448691300000064,59.46391719999974,59.94754639999974,59.95244550000007,59.966163999999935,60.6476233999997,,,,,60.647826200000054,60.66310369999974,60.86334749999969,60.84755300000006,59.966163999999935,,,,,,,,0,1,0.6687517999998818,None,,,,,,,,811,23,M,L,2026-02-23_12h00.45.111,VisualSearch_2526_3,,2025.2.4,2026-02-23 12h00.45.311534 +0100,
vertical.xlsx,The target is tilted.,135,5,5,0,1,1,1,1,0,0,0,0,0,0,0,0,0,3,4,135,space,4.779600200000004,None,1,1,0.6127511999998205,None,space,1.2858026999997492,None,0,0,0,1,,,,,0,5,5,2,60.86334749999969,,,,,,,,,,,,,,,,,,,,,60.848257300000114,60.86334749999969,61.34755929999983,61.35304479999968,61.36947620000001,61.996993700000075,,,,,61.997159499999725,62.01292960000001,62.21349989999999,62.1972439000001,61.36947620000001,,,,,,,,1,1,0.6127511999998205,None,,,,,,,,811,23,M,L,2026-02-23_12h00.45.111,VisualSearch_2526_3,,2025.2.4,2026-02-23 12h00.45.311534 +0100,
vertical.xlsx,The target is tilted.,135,6,6,0,1,0,0,0,0,0,0,0,0,0,0,0,0,0,1,135,space,4.779600200000004,None,1,1,0.6070808000004035,None,space,1.2858026999997492,None,0,0,0,1,,,,,0,6,6,3,62.21349989999999,,,,,,,,,,,,,,,,,,,,,62.198068299999704,62.21349989999999,62.69690050000008,62.70192369999995,62.71741609999981,63.33073659999991,,,,,63.33094239999991,63.3461099000001,63.5462451999997,63.53049239999973,62.71741609999981,,,,,,,,1,1,0.6070808000004035,None,,,,,,,,811,23,M,L,2026-02-23_12h00.45.111,VisualSearch_2526_3,,2025.2.4,2026-02-23 12h00.45.311534 +0100,
vertical.xlsx,The target is tilted.,135,7,7,0,0,1,1,1,1,1,1,1,0,0,0,0,1,7,8,135,space,4.779600200000004,None,0,1,1.0706977999998344,None,space,1.2858026999997492,None,0,0,0,1,,,,,0,7,7,5,63.5462451999997,,,,,,,,,,,,,,,,,,,,,63.53134309999996,63.5462451999997,64.03050379999968,64.03631450000012,64.05196859999978,65.130224,,,,,65.13035549999995,65.14578369999981,65.34623099999999,65.3303120999999,64.05196859999978,,,,,,,,0,1,1.0706977999998344,None,,,,,,,,811,23,M,L,2026-02-23_12h00.45.111,VisualSearch_2526_3,,2025.2.4,2026-02-23 12h00.45.311534 +0100,
vertical.xlsx,The target is tilted.,135,8,0,1,0,0,0,0,0,0,0,0,0,0,0,0,1,1,1,135,space,4.779600200000004,None,1,0,0.5063743999999133,None,space,1.2858026999997492,None,0,0,0,1,,,,,1,0,8,7,65.34623099999999,,,,,,,,,,,,,,,,,,,,,65.33112219999975,65.34623099999999,65.83024849999993,65.83552569999983,65.8512267000001,66.36406369999986,,,,,66.3642749999999,66.37890990000005,66.57944090000001,66.56346450000001,65.8512267000001,,,,,,,,1,0,0.5063743999999133,None,,,,,,,,811,23,M,L,2026-02-23_12h00.45.111,VisualSearch_2526_3,,2025.2.4,2026-02-23 12h00.45.311534 +0100,
vertical.xlsx,The target is tilted.,135,9,1,1,0,1,1,1,1,1,1,1,1,1,1,1,1,11,12,135,space,4.779600200000004,None,0,1,1.9350100000001476,None,space,1.2858026999997492,None,0,0,0,1,,,,,1,1,9,4,66.57944090000001,,,,,,,,,,,,,,,,,,,,,66.56426929999998,66.57944090000001,67.06337989999975,67.06811579999976,67.08628610000005,69.03017439999985,,,,,69.03037499999982,69.04520189999994,69.24582789999977,69.2297365999998,67.08628610000005,,,,,,,,0,1,1.9350100000001476,None,,,,,,,,811,23,M,L,2026-02-23_12h00.45.111,VisualSearch_2526_3,,2025.2.4,2026-02-23 12h00.45.311534 +0100,
vertical.xlsx,The target is tilted.,135,10,2,1,0,1,1,1,0,0,0,0,0,0,0,0,1,3,4,135,space,4.779600200000004,None,0,1,0.5811386999998831,None,space,1.2858026999997492,None,0,0,0,1,,,,,1,2,10,6,69.24582789999977,,,,,,,,,,,,,,,,,,,,,69.23054830000001,69.24582789999977,69.72956429999977,69.7344806000001,69.7528870000001,70.34608470000012,,,,,70.3463111000001,70.3616635999997,70.56222239999988,70.54607110000006,69.7528870000001,,,,,,,,0,1,0.5811386999998831,None,,,,,,,,811,23,M,L,2026-02-23_12h00.45.111,VisualSearch_2526_3,,2025.2.4,2026-02-23 12h00.45.311534 +0100,
vertical.xlsx,The target is tilted.,135,11,3,1,1,1,1,1,0,0,0,0,0,0,0,0,0,3,4,135,space,4.779600200000004,None,1,1,0.6660739999997531,None,space,1.2858026999997492,None,0,0,0,1,,,,,1,3,11,2,70.56222239999988,,,,,,,,,,,,,,,,,,,,,70.54678839999997,70.56222239999988,71.04610289999982,71.05099719999998,71.06691060000003,71.74590899999976,,,,,71.74611400000003,71.7615224000001,71.9620673999998,71.94586029999982,71.06691060000003,,,,,,,,1,1,0.6660739999997531,None,,,,,,,,811,23,M,L,2026-02-23_12h00.45.111,VisualSearch_2526_3,,2025.2.4,2026-02-23 12h00.45.311534 +0100,
vertical.xlsx,The target is tilted.,135,12,4,1,1,1,1,1,1,1,1,1,0,0,0,0,0,7,8,135,space,4.779600200000004,None,1,1,0.6035222000000431,None,space,1.2858026999997492,None,0,0,0,1,,,,,1,4,12,1,71.9620673999998,,,,,,,,,,,,,,,,,,,,,71.94671139999991,71.9620673999998,72.44570350000004,72.45132899999999,72.4662414999998,73.07991599999968,,,,,73.08012199999985,73.09462789999998,73.29523699999982,73.27908449999995,72.4662414999998,,,,,,,,1,1,0.6035222000000431,None,,,,,,,,811,23,M,L,2026-02-23_12h00.45.111,VisualSearch_2526_3,,2025.2.4,2026-02-23 12h00.45.311534 +0100,
vertical.xlsx,The target is tilted.,135,13,5,1,1,1,1,1,1,1,1,1,1,1,1,1,0,11,12,135,space,4.779600200000004,None,1,1,0.7186252999999851,None,space,1.2858026999997492,None,0,0,0,1,,,,,1,5,13,0,73.29523699999982,,,,,,,,,,,,,,,,,,,,,73.27991870000005,73.29523699999982,73.77874519999978,73.7841297,73.79887959999996,74.52938219999987,,,,,74.52958829999989,74.54445619999979,74.74470709999969,74.72898170000008,73.79887959999996,,,,,,,,1,1,0.7186252999999851,None,,,,,,,,811,23,M,L,2026-02-23_12h00.45.111,VisualSearch_2526_3,,2025.2.4,2026-02-23 12h00.45.311534 +0100,
vertical.xlsx,The target is tilted.,135,14,6,1,0,1,1,1,1,1,1,1,0,0,0,0,1,7,8,135,space,4.779600200000004,None,0,1,1.0352498000002015,None,space,1.2858026999997492,None,0,0,0,1,,,,,1,6,14,5,74.74470709999969,,,,,,,,,,,,,,,,,,,,,74.73025589999997,74.74470709999969,75.22835690000011,75.2333120999997,75.2484529999997,76.29511629999979,,,,,76.29522889999998,76.31055789999982,76.51118829999996,76.49517990000004,75.2484529999997,,,,,,,,0,1,1.0352498000002015,None,,,,,,,,811,23,M,L,2026-02-23_12h00.45.111,VisualSearch_2526_3,,2025.2.4,2026-02-23 12h00.45.311534 +0100,
vertical.xlsx,The target is tilted.,135,15,7,1,1,0,0,0,0,0,0,0,0,0,0,0,0,0,1,135,space,4.779600200000004,None,1,1,0.6430695999997624,None,space,1.2858026999997492,None,0,0,0,1,,,,,1,7,15,3,76.51118829999996,,,,,,,,,,,,,,,,,,,,,76.49595369999997,76.51118829999996,76.99522350000007,77.0003042999997,77.01648909999994,77.66226370000004,,,,,77.66248099999984,77.67736849999983,77.87757519999968,77.86173819999976,77.01648909999994,,,,,,,,1,1,0.6430695999997624,None,,,,,,,,811,23,M,L,2026-02-23_12h00.45.111,VisualSearch_2526_3,,2025.2.4,2026-02-23 12h00.45.311534 +0100,
vertical.xlsx,The target is tilted.,135,16,0,2,0,1,1,1,1,1,1,1,0,0,0,0,1,7,8,135,space,4.779600200000004,None,0,1,1.1468058999998902,None,space,1.2858026999997492,None,0,0,0,1,,,,,2,0,16,5,77.87757519999968,,,,,,,,,,,,,,,,,,,,,77.86247539999977,77.87757519999968,78.36179809999976,78.36711949999972,78.38281460000007,79.5442038000001,,,,,79.54430279999997,79.56009240000003,,79.74470999999994,78.38281460000007,,,,,,,,0,1,1.1468058999998902,None,,,,,,,,811,23,M,L,2026-02-23_12h00.45.111,VisualSearch_2526_3,,2025.2.4,2026-02-23 12h00.45.311534 +0100,
vertical.xlsx,The target is tilted.,135,17,1,2,0,1,1,1,1,1,1,1,1,1,1,1,1,11,12,135,space,4.779600200000004,None,0,1,1.1022326000002067,None,space,1.2858026999997492,None,0,0,0,1,,,,,2,1,17,4,79.76097260000006,,,,,,,,,,,,,,,,,,,,,79.74572609999996,79.76097260000006,80.24452709999969,80.24975659999973,80.26436889999968,81.37809519999973,,,,,81.37829669999974,81.39361969999982,81.59397390000004,81.57791839999982,,,,,,,,,0,1,1.1022326000002067,None,,,,,,,,811,23,M,L,2026-02-23_12h00.45.111,VisualSearch_2526_3,,2025.2.4,2026-02-23 12h00.45.311534 +0100,
vertical.xlsx,The target is tilted.,135,18,2,2,0,0,0,0,0,0,0,0,0,0,0,0,1,1,1,135,space,4.779600200000004,None,0,1,0.5543981000000713,None,space,1.2858026999997492,None,0,0,0,1,,,,,2,2,18,7,81.59397390000004,,,,,,,,,,,,,,,,,,,,,81.57886030000009,81.59397390000004,82.07776849999982,82.08312930000011,82.09649639999998,82.66132310000012,,,,,82.66151020000007,82.67653470000005,82.87684649999983,82.8606165000001,82.09649639999998,,,,,,,,0,1,0.5543981000000713,None,,,,,,,,811,23,M,L,2026-02-23_12h00.45.111,VisualSearch_2526_3,,2025.2.4,2026-02-23 12h00.45.311534 +0100,
vertical.xlsx,The target is tilted.,135,19,3,2,1,1,1,1,0,0,0,0,0,0,0,0,0,3,4,135,space,4.779600200000004,None,1,1,0.9032345000000532,None,space,1.2858026999997492,None,0,0,0,1,,,,,2,3,19,2,82.87684649999983,,,,,,,,,,,,,,,,,,,,,82.86134609999999,82.87684649999983,83.36086559999967,83.36579329999995,83.38131320000002,84.29469900000004,,,,,84.29490600000008,84.30976729999975,84.51022789999979,84.49425709999969,83.38131320000002,,,,,,,,1,1,0.9032345000000532,None,,,,,,,,811,23,M,L,2026-02-23_12h00.45.111,VisualSearch_2526_3,,2025.2.4,2026-02-23 12h00.45.311534 +0100,
vertical.xlsx,The target is tilted.,135,20,4,2,1,1,1,1,1,1,1,1,0,0,0,0,0,7,8,135,space,4.779600200000004,None,1,1,0.8058857000000899,None,space,1.2858026999997492,None,0,0,0,1,,,,,2,4,20,1,84.51022789999979,,,,,,,,,,,,,,,,,,,,,84.49509609999996,84.51022789999979,84.99410959999977,84.99943769999982,85.01421759999994,85.82759009999972,,,,,85.82780899999989,85.84276189999991,86.0433681999998,86.02712930000007,85.01421759999994,,,,,,,,1,1,0.8058857000000899,None,,,,,,,,811,23,M,L,2026-02-23_12h00.45.111,VisualSearch_2526_3,,2025.2.4,2026-02-23 12h00.45.311534 +0100,
vertical.xlsx,The target is tilted.,135,21,5,2,1,1,1,1,1,1,1,1,1,1,1,1,0,11,12,135,space,4.779600200000004,None,1,1,0.6377446000001328,None,space,1.2858026999997492,None,0,0,0,1,,,,,2,5,21,0,86.0433681999998,,,,,,,,,,,,,,,,,,,,,86.02789279999979,86.0433681999998,86.52717170000005,86.53204929999993,86.54494539999996,87.19367499999998,,,,,87.19380769999998,87.20926069999996,87.40943470000002,87.39374339999995,86.54494539999996,,,,,,,,1,1,0.6377446000001328,None,,,,,,,,811,23,M,L,2026-02-23_12h00.45.111,VisualSearch_2526_3,,2025.2.4,2026-02-23 12h00.45.311534 +0100,
vertical.xlsx,The target is tilted.,135,22,6,2,0,1,1,1,0,0,0,0,0,0,0,0,1,3,4,135,space,4.779600200000004,None,0,1,0.7453232999996544,None,space,1.2858026999997492,None,0,0,0,1,,,,,2,6,22,6,87.40943470000002,,,,,,,,,,,,,,,,,,,,,87.39444860000003,87.40943470000002,87.89388039999994,87.89902989999973,87.91343989999996,88.65995919999978,,,,,88.6600642999997,88.67565409999997,88.87622789999978,88.86002439999993,87.91343989999996,,,,,,,,0,1,0.7453232999996544,None,,,,,,,,811,23,M,L,2026-02-23_12h00.45.111,VisualSearch_2526_3,,2025.2.4,2026-02-23 12h00.45.311534 +0100,
vertical.xlsx,The target is tilted.,135,23,7,2,1,0,0,0,0,0,0,0,0,0,0,0,0,0,1,135,space,4.779600200000004,None,1,1,0.6088267000000087,None,space,1.2858026999997492,None,0,0,0,1,,,,,2,7,23,3,88.87622789999978,,,,,,,,,,,,,,,,,,,,,88.8613422999997,88.87622789999978,89.35998859999972,89.36487579999994,89.38172319999967,89.99391409999998,,,,,89.99411770000006,90.0089138999997,90.20896730000004,90.19352849999996,89.38172319999967,,,,,,,,1,1,0.6088267000000087,None,,,,,,,,811,23,M,L,2026-02-23_12h00.45.111,VisualSearch_2526_3,,2025.2.4,2026-02-23 12h00.45.311534 +0100,
vertical.xlsx,The target is tilted.,135,24,0,3,0,1,1,1,1,1,1,1,0,0,0,0,1,7,8,135,space,4.779600200000004,None,0,1,0.9996152999997321,None,space,1.2858026999997492,None,0,0,0,1,,,,,3,0,24,5,90.20896730000004,,,,,,,,,,,,,,,,,,,,,90.19441740000002,90.20896730000004,90.69343690000005,90.69894879999993,90.71368949999987,91.72593490000008,,,,,91.72608080000009,91.74204019999979,,91.9261790999999,90.71368949999987,,,,,,,,0,1,0.9996152999997321,None,,,,,,,,811,23,M,L,2026-02-23_12h00.45.111,VisualSearch_2526_3,,2025.2.4,2026-02-23 12h00.45.311534 +0100,
vertical.xlsx,The target is tilted.,135,25,1,3,0,0,0,0,0,0,0,0,0,0,0,0,1,1,1,135,space,4.779600200000004,None,0,1,0.5594017000003078,None,space,1.2858026999997492,None,0,0,0,1,,,,,3,1,25,7,91.94245809999984,,,,,,,,,,,,,,,,,,,,,91.92698369999971,91.94245809999984,92.42636700000003,92.43138309999995,92.44807679999985,93.01005050000003,,,,,93.0102683,93.0249644999999,93.22564629999988,93.20946989999993,92.44807679999985,,,,,,,,0,1,0.5594017000003078,None,,,,,,,,811,23,M,L,2026-02-23_12h00.45.111,VisualSearch_2526_3,,2025.2.4,2026-02-23 12h00.45.311534 +0100,
vertical.xlsx,The target is tilted.,135,26,2,3,1,1,1,1,0,0,0,0,0,0,0,0,0,3,4,135,space,4.779600200000004,None,1,1,0.5724276999999347,None,space,1.2858026999997492,None,0,0,0,1,,,,,3,2,26,2,93.22564629999988,,,,,,,,,,,,,,,,,,,,,93.21022259999972,93.22564629999988,93.70937079999976,93.71416389999968,93.73062970000001,94.30985659999988,,,,,94.31006079999997,94.32479489999969,94.52548559999968,94.50923710000006,93.73062970000001,,,,,,,,1,1,0.5724276999999347,None,,,,,,,,811,23,M,L,2026-02-23_12h00.45.111,VisualSearch_2526_3,,2025.2.4,2026-02-23 12h00.45.311534 +0100,
vertical.xlsx,The target is tilted.,135,27,3,3,0,1,1,1,1,1,1,1,1,1,1,1,1,11,12,135,space,4.779600200000004,None,0,1,1.1523391999999149,None,space,1.2858026999997492,None,0,0,0,1,,,,,3,3,27,4,94.52548559999968,,,,,,,,,,,,,,,,,,,,,94.51000810000005,94.52548559999968,95.00892239999985,95.01358359999995,95.02532100000008,96.19249820000005,,,,,96.19270469999992,96.20803639999986,96.40839989999995,96.39256699999987,95.02532100000008,,,,,,,,0,1,1.1523391999999149,None,,,,,,,,811,23,M,L,2026-02-23_12h00.45.111,VisualSearch_2526_3,,2025.2.4,2026-02-23 12h00.45.311534 +0100,
vertical.xlsx,The target is tilted.,135,28,4,3,0,1,1,1,0,0,0,0,0,0,0,0,1,3,4,135,space,4.779600200000004,None,0,1,0.5688809000002948,None,space,1.2858026999997492,None,0,0,0,1,,,,,3,4,28,6,96.40839989999995,,,,,,,,,,,,,,,,,,,,,96.39337010000008,96.40839989999995,96.89240870000003,96.8974290000001,96.91549359999999,97.49282439999979,,,,,97.49302829999988,97.50780170000007,97.70833379999976,97.69178190000002,96.91549359999999,,,,,,,,0,1,0.5688809000002948,None,,,,,,,,811,23,M,L,2026-02-23_12h00.45.111,VisualSearch_2526_3,,2025.2.4,2026-02-23 12h00.45.311534 +0100,
vertical.xlsx,The target is tilted.,135,29,5,3,1,1,1,1,1,1,1,1,1,1,1,1,0,11,12,135,space,4.779600200000004,None,1,1,0.7844565999998849,None,space,1.2858026999997492,None,0,0,0,1,,,,,3,5,29,0,97.70833379999976,,,,,,,,,,,,,,,,,,,,,97.69252319999987,97.70833379999976,98.19231039999977,98.19755140000007,98.2080149999997,99.00800049999998,,,,,99.00811500000009,99.0245918999999,,99.20827549999967,98.2080149999997,,,,,,,,1,1,0.7844565999998849,None,,,,,,,,811,23,M,L,2026-02-23_12h00.45.111,VisualSearch_2526_3,,2025.2.4,2026-02-23 12h00.45.311534 +0100,
vertical.xlsx,The target is tilted.,135,30,6,3,1,0,0,0,0,0,0,0,0,0,0,0,0,0,1,135,space,4.779600200000004,None,1,1,0.552571899999748,None,space,1.2858026999997492,None,0,0,0,1,,,,,3,6,30,3,99.22487809999984,,,,,,,,,,,,,,,,,,,,,99.20914229999971,99.22487809999984,99.70830750000005,99.7132201999998,99.72800099999995,100.2924936999998,,,,,100.29273059999969,100.30737349999981,100.50765920000003,100.49177129999998,99.72800099999995,,,,,,,,1,1,0.552571899999748,None,,,,,,,,811,23,M,L,2026-02-23_12h00.45.111,VisualSearch_2526_3,,2025.2.4,2026-02-23 12h00.45.311534 +0100,
vertical.xlsx,The target is tilted.,135,31,7,3,1,1,1,1,1,1,1,1,0,0,0,0,0,7,8,135,space,4.779600200000004,None,0,0,0.9435665999999401,None,space,1.2858026999997492,None,0,0,0,1,,,,,3,7,31,1,100.50765920000003,,,,,,,,,,,,,,,,,,,,,100.49253439999984,100.50765920000003,100.99189579999984,100.99731089999977,101.01267439999992,101.95826360000001,,,,,101.9584934999998,101.97383600000012,102.1744450000001,102.15801779999993,101.01267439999992,,,,,,,,0,0,0.9435665999999401,None,,,,,,,,811,23,M,L,2026-02-23_12h00.45.111,VisualSearch_2526_3,,2025.2.4,2026-02-23 12h00.45.311534 +0100,
vertical.xlsx,The target is tilted.,135,32,0,4,1,1,1,1,1,1,1,1,0,0,0,0,0,7,8,135,space,4.779600200000004,None,1,1,0.8346251000002667,None,space,1.2858026999997492,None,0,0,0,1,,,,,4,0,32,1,102.1744450000001,,,,,,,,,,,,,,,,,,,,,102.15877309999996,102.1744450000001,102.65799459999971,102.6629481,102.67651350000006,103.5242017999999,,,,,103.52434829999993,103.54069660000005,,103.72449830000005,102.67651350000006,,,,,,,,1,1,0.8346251000002667,None,,,,,,,,811,23,M,L,2026-02-23_12h00.45.111,VisualSearch_2526_3,,2025.2.4,2026-02-23 12h00.45.311534 +0100,
vertical.xlsx,The target is tilted.,135,33,1,4,1,0,0,0,0,0,0,0,0,0,0,0,0,0,1,135,space,4.779600200000004,None,1,1,0.5598589999999604,None,space,1.2858026999997492,None,0,0,0,1,,,,,4,1,33,3,103.74072530000012,,,,,,,,,,,,,,,,,,,,,103.72530860000006,103.74072530000012,104.22445729999981,104.23009060000004,104.24562879999985,104.80848919999971,,,,,104.80869209999992,104.82350189999988,105.02372789999981,105.00739720000001,,,,,,,,,1,1,0.5598589999999604,None,,,,,,,,811,23,M,L,2026-02-23_12h00.45.111,VisualSearch_2526_3,,2025.2.4,2026-02-23 12h00.45.311534 +0100,
vertical.xlsx,The target is tilted.,135,34,2,4,0,1,1,1,0,0,0,0,0,0,0,0,1,3,4,135,space,4.779600200000004,None,0,1,0.6353214999999182,None,space,1.2858026999997492,None,0,0,0,1,,,,,4,2,34,6,105.02372789999981,,,,,,,,,,,,,,,,,,,,,105.00813740000012,105.02372789999981,105.50776850000011,105.51271839999981,105.52889520000008,106.17492959999981,,,,,106.17513650000001,106.18989620000002,106.39040619999969,106.37430399999994,105.52889520000008,,,,,,,,0,1,0.6353214999999182,None,,,,,,,,811,23,M,L,2026-02-23_12h00.45.111,VisualSearch_2526_3,,2025.2.4,2026-02-23 12h00.45.311534 +0100,
vertical.xlsx,The target is tilted.,135,35,3,4,0,1,1,1,1,1,1,1,0,0,0,0,1,7,8,135,space,4.779600200000004,None,0,1,0.9428817999996681,None,space,1.2858026999997492,None,0,0,0,1,,,,,4,3,35,5,106.39040619999969,,,,,,,,,,,,,,,,,,,,,106.3750442999999,106.39040619999969,106.87410929999987,106.87904589999971,106.89600560000008,107.84050639999987,,,,,107.84064970000009,107.85612609999998,108.05681000000004,108.04065229999969,106.89600560000008,,,,,,,,0,1,0.9428817999996681,None,,,,,,,,811,23,M,L,2026-02-23_12h00.45.111,VisualSearch_2526_3,,2025.2.4,2026-02-23 12h00.45.311534 +0100,
vertical.xlsx,The target is tilted.,135,36,4,4,0,1,1,1,1,1,1,1,1,1,1,1,1,11,12,135,space,4.779600200000004,None,0,1,0.6667916999999761,None,space,1.2858026999997492,None,0,0,0,1,,,,,4,4,36,4,108.05681000000004,,,,,,,,,,,,,,,,,,,,,108.04141899999968,108.05681000000004,108.54084839999996,108.54618949999985,108.56162499999982,109.24043660000007,,,,,109.24066330000005,109.25625289999971,109.45626360000006,109.44001879999996,108.56162499999982,,,,,,,,0,1,0.6667916999999761,None,,,,,,,,811,23,M,L,2026-02-23_12h00.45.111,VisualSearch_2526_3,,2025.2.4,2026-02-23 12h00.45.311534 +0100,
vertical.xlsx,The target is tilted.,135,37,5,4,1,1,1,1,0,0,0,0,0,0,0,0,0,3,4,135,space,4.779600200000004,None,1,1,0.5238061000000016,None,space,1.2858026999997492,None,0,0,0,1,,,,,4,5,37,2,109.45626360000006,,,,,,,,,,,,,,,,,,,,,109.44075879999991,109.45626360000006,109.94037959999969,109.94545569999991,109.95851110000012,110.49064369999996,,,,,110.49084790000006,110.5061424999999,110.70647749999989,110.69035359999998,109.95851110000012,,,,,,,,1,1,0.5238061000000016,None,,,,,,,,811,23,M,L,2026-02-23_12h00.45.111,VisualSearch_2526_3,,2025.2.4,2026-02-23 12h00.45.311534 +0100,
vertical.xlsx,The target is tilted.,135,38,6,4,1,1,1,1,1,1,1,1,1,1,1,1,0,11,12,135,space,4.779600200000004,None,0,0,0.8261290999998891,None,space,1.2858026999997492,None,0,0,0,1,,,,,4,6,38,0,110.70647749999989,,,,,,,,,,,,,,,,,,,,,110.6910868,110.70647749999989,111.19016310000006,111.19513139999981,111.21073249999972,112.04043430000002,,,,,112.04065549999996,112.05576990000009,112.25628150000011,112.24006599999984,111.21073249999972,,,,,,,,0,0,0.8261290999998891,None,,,,,,,,811,23,M,L,2026-02-23_12h00.45.111,VisualSearch_2526_3,,2025.2.4,2026-02-23 12h00.45.311534 +0100,
vertical.xlsx,The target is tilted.,135,39,7,4,0,0,0,0,0,0,0,0,0,0,0,0,1,1,1,135,space,4.779600200000004,None,0,1,0.5870208999999704,None,space,1.2858026999997492,None,0,0,0,1,,,,,4,7,39,7,112.25628150000011,,,,,,,,,,,,,,,,,,,,,112.24084210000001,112.25628150000011,112.74000519999981,112.74498119999998,112.76158269999996,113.35667190000004,,,,,113.35680509999975,113.37210210000012,113.5727222999999,113.5565959999999,112.76158269999996,,,,,,,,0,1,0.5870208999999704,None,,,,,,,,811,23,M,L,2026-02-23_12h00.45.111,VisualSearch_2526_3,,2025.2.4,2026-02-23 12h00.45.311534 +0100,
vertical.xlsx,The target is tilted.,135,40,0,5,0,1,1,1,0,0,0,0,0,0,0,0,1,3,4,135,space,4.779600200000004,None,0,1,0.4584879999997611,None,space,1.2858026999997492,None,0,0,0,1,,,,,5,0,40,6,113.5727222999999,,,,,,,,,,,,,,,,,,,,,113.5573058,113.5727222999999,114.05622080000012,114.06149359999972,114.07677979999971,114.54018959999985,,,,,114.54039160000002,114.55535229999987,114.75548260000005,114.73973939999996,114.07677979999971,,,,,,,,0,1,0.4584879999997611,None,,,,,,,,811,23,M,L,2026-02-23_12h00.45.111,VisualSearch_2526_3,,2025.2.4,2026-02-23 12h00.45.311534 +0100,
vertical.xlsx,The target is tilted.,135,41,1,5,1,1,1,1,1,1,1,1,1,1,1,1,0,11,12,135,space,4.779600200000004,None,1,1,0.924674800000048,None,space,1.2858026999997492,None,0,0,0,1,,,,,5,1,41,0,114.75548260000005,,,,,,,,,,,,,,,,,,,,,114.74046649999991,114.75548260000005,115.23970139999983,115.2445601999998,115.26082559999986,116.1898771000001,,,,,116.19010489999982,116.20517979999977,116.40571180000006,116.38950859999977,115.26082559999986,,,,,,,,1,1,0.924674800000048,None,,,,,,,,811,23,M,L,2026-02-23_12h00.45.111,VisualSearch_2526_3,,2025.2.4,2026-02-23 12h00.45.311534 +0100,
vertical.xlsx,The target is tilted.,135,42,2,5,0,1,1,1,1,1,1,1,0,0,0,0,1,7,8,135,space,4.779600200000004,None,0,1,0.7112311000000773,None,space,1.2858026999997492,None,0,0,0,1,,,,,5,2,42,5,116.40571180000006,,,,,,,,,,,,,,,,,,,,,116.39026689999992,116.40571180000006,116.88906109999971,116.89401120000002,116.91167649999988,117.63926970000011,,,,,117.63951199999974,117.65489489999982,117.8550780999999,117.83936159999985,116.91167649999988,,,,,,,,0,1,0.7112311000000773,None,,,,,,,,811,23,M,L,2026-02-23_12h00.45.111,VisualSearch_2526_3,,2025.2.4,2026-02-23 12h00.45.311534 +0100,
vertical.xlsx,The target is tilted.,135,43,3,5,1,1,1,1,1,1,1,1,0,0,0,0,0,7,8,135,space,4.779600200000004,None,0,0,0.6142734000000019,None,space,1.2858026999997492,None,0,0,0,1,,,,,5,3,43,1,117.8550780999999,,,,,,,,,,,,,,,,,,,,,117.8401374,117.8550780999999,118.33905389999973,118.34422700000005,118.36062529999981,118.98918950000007,,,,,118.98940510000011,119.00479649999988,119.20530800000006,119.1891015000001,118.36062529999981,,,,,,,,0,0,0.6142734000000019,None,,,,,,,,811,23,M,L,2026-02-23_12h00.45.111,VisualSearch_2526_3,,2025.2.4,2026-02-23 12h00.45.311534 +0100,
vertical.xlsx,The target is tilted.,135,44,4,5,1,1,1,1,0,0,0,0,0,0,0,0,0,3,4,135,space,4.779600200000004,None,1,1,0.6060591999998906,None,space,1.2858026999997492,None,0,0,0,1,,,,,5,4,44,2,119.20530800000006,,,,,,,,,,,,,,,,,,,,,119.19003410000005,119.20530800000006,119.68903909999972,119.69442819999995,119.71068930000001,120.32259849999991,,,,,120.32280149999997,120.33795359999976,120.5382684000001,120.52189150000004,119.71068930000001,,,,,,,,1,1,0.6060591999998906,None,,,,,,,,811,23,M,L,2026-02-23_12h00.45.111,VisualSearch_2526_3,,2025.2.4,2026-02-23 12h00.45.311534 +0100,
vertical.xlsx,The target is tilted.,135,45,5,5,1,0,0,0,0,0,0,0,0,0,0,0,0,0,1,135,space,4.779600200000004,None,1,1,0.7320723000002545,None,space,1.2858026999997492,None,0,0,0,1,,,,,5,5,45,3,120.5382684000001,,,,,,,,,,,,,,,,,,,,,120.52260249999972,120.5382684000001,121.02177529999972,121.02666409999983,121.0425621999998,121.78875960000005,,,,,121.78896450000002,121.80427109999982,122.00447919999988,121.98839859999998,121.0425621999998,,,,,,,,1,1,0.7320723000002545,None,,,,,,,,811,23,M,L,2026-02-23_12h00.45.111,VisualSearch_2526_3,,2025.2.4,2026-02-23 12h00.45.311534 +0100,
vertical.xlsx,The target is tilted.,135,46,6,5,0,0,0,0,0,0,0,0,0,0,0,0,1,1,1,135,space,4.779600200000004,None,0,1,0.5728365999998459,None,space,1.2858026999997492,None,0,0,0,1,,,,,5,6,46,7,122.00447919999988,,,,,,,,,,,,,,,,,,,,,121.98913709999988,122.00447919999988,122.4884076999997,122.4933732999998,122.50896699999976,123.08885740000005,,,,,123.08906470000011,123.10383120000006,123.30469459999995,123.2880823999999,122.50896699999976,,,,,,,,0,1,0.5728365999998459,None,,,,,,,,811,23,M,L,2026-02-23_12h00.45.111,VisualSearch_2526_3,,2025.2.4,2026-02-23 12h00.45.311534 +0100,
vertical.xlsx,The target is tilted.,135,47,7,5,0,1,1,1,1,1,1,1,1,1,1,1,1,11,12,135,space,4.779600200000004,None,0,1,0.8624213000002783,None,space,1.2858026999997492,None,0,0,0,1,,,,,5,7,47,4,123.30469459999995,,,,,,,,,,,,,,,,,,,,,123.28881890000002,123.30469459999995,123.7882681000001,123.79386189999968,123.80881229999977,124.68832539999994,,,,,124.68858049999972,124.70380709999972,124.90447529999983,124.88789559999987,123.80881229999977,,,,,,,,0,1,0.8624213000002783,None,,,,,,,,811,23,M,L,2026-02-23_12h00.45.111,VisualSearch_2526_3,,2025.2.4,2026-02-23 12h00.45.311534 +0100,
vertical.xlsx,The target is tilted.,135,48,0,6,0,1,1,1,1,1,1,1,1,1,1,1,1,11,12,135,space,4.779600200000004,None,0,1,0.9980719000000136,None,space,1.2858026999997492,None,0,0,0,1,,,,,6,0,48,4,124.90447529999983,,,,,,,,,,,,,,,,,,,,,124.88864759999979,124.90447529999983,125.3883366,125.39350259999992,125.40806399999974,126.42054159999998,,,,,126.42068539999991,126.43736760000002,,126.62123729999985,125.40806399999974,,,,,,,,0,1,0.9980719000000136,None,,,,,,,,811,23,M,L,2026-02-23_12h00.45.111,VisualSearch_2526_3,,2025.2.4,2026-02-23 12h00.45.311534 +0100,
vertical.xlsx,The target is tilted.,135,49,1,6,1,1,1,1,1,1,1,1,0,0,0,0,0,7,8,135,space,4.779600200000004,None,0,0,0.8153944999999112,None,space,1.2858026999997492,None,0,0,0,1,,,,,6,1,49,1,126.63760460000003,,,,,,,,,,,,,,,,,,,,,126.6221215999999,126.63760460000003,127.12112380000008,127.12608599999976,127.14166539999997,127.97072799999978,,,,,127.97087899999997,127.98673809999991,,128.1709676999999,,,,,,,,,0,0,0.8153944999999112,None,,,,,,,,811,23,M,L,2026-02-23_12h00.45.111,VisualSearch_2526_3,,2025.2.4,2026-02-23 12h00.45.311534 +0100,
vertical.xlsx,The target is tilted.,135,50,2,6,1,1,1,1,1,1,1,1,1,1,1,1,0,11,12,135,space,4.779600200000004,None,1,1,1.0258374000000003,None,space,1.2858026999997492,None,0,0,0,1,,,,,6,2,50,0,128.18700809999973,,,,,,,,,,,,,,,,,,,,,128.17174599999998,128.18700809999973,128.6710407999999,128.67622579999988,128.6905853999997,129.72097970000004,,,,,129.72116389999974,129.73656029999984,129.93715079999993,129.92111979999981,128.6905853999997,,,,,,,,1,1,1.0258374000000003,None,,,,,,,,811,23,M,L,2026-02-23_12h00.45.111,VisualSearch_2526_3,,2025.2.4,2026-02-23 12h00.45.311534 +0100,
vertical.xlsx,The target is tilted.,135,51,3,6,1,1,1,1,0,0,0,0,0,0,0,0,0,3,4,135,space,4.779600200000004,None,1,1,0.4768477000002349,None,space,1.2858026999997492,None,0,0,0,1,,,,,6,3,51,2,129.93715079999993,,,,,,,,,,,,,,,,,,,,,129.92195029999993,129.93715079999993,130.4208037999997,130.42592809999996,130.44129189999967,130.92140229999995,,,,,130.92160859999967,130.93621540000004,131.13652019999972,131.12065359999997,130.44129189999967,,,,,,,,1,1,0.4768477000002349,None,,,,,,,,811,23,M,L,2026-02-23_12h00.45.111,VisualSearch_2526_3,,2025.2.4,2026-02-23 12h00.45.311534 +0100,
vertical.xlsx,The target is tilted.,135,52,4,6,0,0,0,0,0,0,0,0,0,0,0,0,1,1,1,135,space,4.779600200000004,None,0,1,0.4263424999999188,None,space,1.2858026999997492,None,0,0,0,1,,,,,6,4,52,7,131.13652019999972,,,,,,,,,,,,,,,,,,,,,131.12143419999984,131.13652019999972,131.6208671999998,131.62625789999993,131.6399204999998,132.07088969999995,,,,,132.0711081999998,132.0862477999999,132.28660149999996,132.27073109999992,131.6399204999998,,,,,,,,0,1,0.4263424999999188,None,,,,,,,,811,23,M,L,2026-02-23_12h00.45.111,VisualSearch_2526_3,,2025.2.4,2026-02-23 12h00.45.311534 +0100,
vertical.xlsx,The target is tilted.,135,53,5,6,0,1,1,1,0,0,0,0,0,0,0,0,1,3,4,135,space,4.779600200000004,None,0,1,0.4941377000000102,None,space,1.2858026999997492,None,0,0,0,1,,,,,6,5,53,6,132.28660149999996,,,,,,,,,,,,,,,,,,,,,132.27157119999993,132.28660149999996,132.7707317999998,132.7761443999998,132.79536770000004,133.3033147000001,,,,,133.303453,133.31933449999997,,133.50354799999968,132.79536770000004,,,,,,,,0,1,0.4941377000000102,None,,,,,,,,811,23,M,L,2026-02-23_12h00.45.111,VisualSearch_2526_3,,2025.2.4,2026-02-23 12h00.45.311534 +0100,
vertical.xlsx,The target is tilted.,135,54,6,6,1,0,0,0,0,0,0,0,0,0,0,0,0,0,1,135,space,4.779600200000004,None,1,1,0.6246436999999787,None,space,1.2858026999997492,None,0,0,0,1,,,,,6,6,54,3,133.5198633,,,,,,,,,,,,,,,,,,,,,133.50442079999993,133.5198633,134.0037438999998,134.00870540000005,134.02386129999968,134.65398559999994,,,,,134.6541841999997,134.66924059999974,134.86970900000006,134.85373279999976,134.02386129999968,,,,,,,,1,1,0.6246436999999787,None,,,,,,,,811,23,M,L,2026-02-23_12h00.45.111,VisualSearch_2526_3,,2025.2.4,2026-02-23 12h00.45.311534 +0100,
vertical.xlsx,The target is tilted.,135,55,7,6,0,1,1,1,1,1,1,1,0,0,0,0,1,7,8,135,space,4.779600200000004,None,0,1,0.9653849999999693,None,space,1.2858026999997492,None,0,0,0,1,,,,,6,7,55,5,134.86970900000006,,,,,,,,,,,,,,,,,,,,,134.85467719999997,134.86970900000006,135.3531680000001,135.35774850000007,135.36942099999987,136.3366959,,,,,136.33684139999968,136.3523055999999,136.55240090000007,136.53671970000005,135.36942099999987,,,,,,,,0,1,0.9653849999999693,None,,,,,,,,811,23,M,L,2026-02-23_12h00.45.111,VisualSearch_2526_3,,2025.2.4,2026-02-23 12h00.45.311534 +0100,
vertical.xlsx,The target is tilted.,135,56,0,7,0,0,0,0,0,0,0,0,0,0,0,0,1,1,1,135,space,4.779600200000004,None,0,1,0.515061500000229,None,space,1.2858026999997492,None,0,0,0,1,,,,,7,0,56,7,136.55240090000007,,,,,,,,,,,,,,,,,,,,,136.53742919999968,136.55240090000007,137.0359011999999,137.0378139999998,137.0525491999997,137.57031639999968,,,,,137.57053099999985,137.58545139999978,137.785934,137.76972279999973,137.0525491999997,,,,,,,,0,1,0.515061500000229,None,,,,,,,,811,23,M,L,2026-02-23_12h00.45.111,VisualSearch_2526_3,,2025.2.4,2026-02-23 12h00.45.311534 +0100,
vertical.xlsx,The target is tilted.,135,57,1,7,1,1,1,1,1,1,1,1,0,0,0,0,0,7,8,135,space,4.779600200000004,None,1,1,1.2238483999999517,None,space,1.2858026999997492,None,0,0,0,1,,,,,7,1,57,1,137.785934,,,,,,,,,,,,,,,,,,,,,137.77051230000006,137.785934,138.26975240000002,138.2741318999997,138.28576429999976,139.52009719999978,,,,,139.52031080000006,139.53514079999968,139.73526599999968,139.71965640000008,138.28576429999976,,,,,,,,1,1,1.2238483999999517,None,,,,,,,,811,23,M,L,2026-02-23_12h00.45.111,VisualSearch_2526_3,,2025.2.4,2026-02-23 12h00.45.311534 +0100,
vertical.xlsx,The target is tilted.,135,58,2,7,1,1,1,1,1,1,1,1,1,1,1,1,0,11,12,135,space,4.779600200000004,None,1,1,1.5387279999999919,None,space,1.2858026999997492,None,0,0,0,1,,,,,7,2,58,0,139.73526599999968,,,,,,,,,,,,,,,,,,,,,139.72046309999996,139.73526599999968,140.21929389999968,140.22475170000007,140.24178799999981,141.78569609999977,,,,,141.7858097999997,141.80142209999985,142.00197089999983,141.9860874000001,140.24178799999981,,,,,,,,1,1,1.5387279999999919,None,,,,,,,,811,23,M,L,2026-02-23_12h00.45.111,VisualSearch_2526_3,,2025.2.4,2026-02-23 12h00.45.311534 +0100,
vertical.xlsx,The target is tilted.,135,59,3,7,1,0,0,0,0,0,0,0,0,0,0,0,0,0,1,135,space,4.779600200000004,None,1,1,0.6265229000000545,None,space,1.2858026999997492,None,0,0,0,1,,,,,7,3,59,3,142.00197089999983,,,,,,,,,,,,,,,,,,,,,141.98697689999972,142.00197089999983,142.4860424999997,142.49130190000005,142.5072826999999,143.1363312999997,,,,,143.13653019999992,143.1513602,143.35177870000007,143.33573119999983,142.5072826999999,,,,,,,,1,1,0.6265229000000545,None,,,,,,,,811,23,M,L,2026-02-23_12h00.45.111,VisualSearch_2526_3,,2025.2.4,2026-02-23 12h00.45.311534 +0100,
vertical.xlsx,The target is tilted.,135,60,4,7,0,1,1,1,0,0,0,0,0,0,0,0,1,3,4,135,space,4.779600200000004,None,0,1,0.6593978999999308,None,space,1.2858026999997492,None,0,0,0,1,,,,,7,4,60,6,143.35177870000007,,,,,,,,,,,,,,,,,,,,,143.33655559999988,143.35177870000007,143.8355244999998,143.84040249999998,143.8563177000001,144.51877719999993,,,,,144.51896399999987,144.53443650000008,144.73475860000008,144.71832379999978,143.8563177000001,,,,,,,,0,1,0.6593978999999308,None,,,,,,,,811,23,M,L,2026-02-23_12h00.45.111,VisualSearch_2526_3,,2025.2.4,2026-02-23 12h00.45.311534 +0100,
vertical.xlsx,The target is tilted.,135,61,5,7,1,1,1,1,0,0,0,0,0,0,0,0,0,3,4,135,space,4.779600200000004,None,1,1,0.5824941000000763,None,space,1.2858026999997492,None,0,0,0,1,,,,,7,5,61,2,144.73475860000008,,,,,,,,,,,,,,,,,,,,,144.71867440000005,144.73475860000008,145.21835069999997,145.22326399999974,145.23908709999978,145.83487370000012,,,,,145.83501089999982,145.85097760000008,146.0514478,146.03538339999977,145.23908709999978,,,,,,,,1,1,0.5824941000000763,None,,,,,,,,811,23,M,L,2026-02-23_12h00.45.111,VisualSearch_2526_3,,2025.2.4,2026-02-23 12h00.45.311534 +0100,
vertical.xlsx,The target is tilted.,135,62,6,7,0,1,1,1,1,1,1,1,1,1,1,1,1,11,12,135,space,4.779600200000004,None,0,1,1.8541215999998713,None,space,1.2858026999997492,None,0,0,0,1,,,,,7,6,62,4,146.0514478,,,,,,,,,,,,,,,,,,,,,146.0362184999999,146.0514478,146.53504049999992,146.54011880000007,146.55613749999975,148.4186648,,,,,148.4188651999998,148.43383189999986,148.6343635999997,148.6176946999999,146.55613749999975,,,,,,,,0,1,1.8541215999998713,None,,,,,,,,811,23,M,L,2026-02-23_12h00.45.111,VisualSearch_2526_3,,2025.2.4,2026-02-23 12h00.45.311534 +0100,
vertical.xlsx,The target is tilted.,135,63,7,7,0,1,1,1,1,1,1,1,0,0,0,0,1,7,8,135,space,4.779600200000004,None,0,1,1.248179799999889,None,space,1.2858026999997492,None,0,0,0,1,,,,,7,7,63,5,148.6343635999997,,,,,,,,,,,,,,,,,,,,,148.61852509999972,148.6343635999997,149.11773859999994,149.12056329999996,149.13421629999993,150.38428299999987,,,,,150.38437169999997,150.40016839999998,,150.58453979999967,149.13421629999993,,,,,,,,0,1,1.248179799999889,None,,,,,,,,811,23,M,L,2026-02-23_12h00.45.111,VisualSearch_2526_3,,2025.2.4,2026-02-23 12h00.45.311534 +0100,
vertical.xlsx,The target is tilted.,135,64,0,8,1,1,1,1,1,1,1,1,0,0,0,0,0,7,8,135,space,4.779600200000004,None,1,1,0.6270512000000963,None,space,1.2858026999997492,None,0,0,0,1,,,,,8,0,64,1,150.60086039999987,,,,,,,,,,,,,,,,,,,,,150.58541079999986,150.60086039999987,151.0846419999998,151.08991560000004,151.1005571999999,151.73507879999988,,,,,151.73527590000003,151.74994849999985,151.94971020000003,151.93472669999983,151.1005571999999,,,,,,,,1,1,0.6270512000000963,None,,,,,,,,811,23,M,L,2026-02-23_12h00.45.111,VisualSearch_2526_3,,2025.2.4,2026-02-23 12h00.45.311534 +0100,
vertical.xlsx,The target is tilted.,135,65,1,8,1,1,1,1,1,1,1,1,1,1,1,1,0,11,12,135,space,4.779600200000004,None,1,1,0.6176335999998628,None,space,1.2858026999997492,None,0,0,0,1,,,,,8,1,65,0,151.94971020000003,,,,,,,,,,,,,,,,,,,,,151.93557079999982,151.94971020000003,152.43439809999973,152.43931900000007,152.4539436,153.0838334,,,,,153.08397149999973,153.09981879999987,,153.2842885,152.4539436,,,,,,,,1,1,0.6176335999998628,None,,,,,,,,811,23,M,L,2026-02-23_12h00.45.111,VisualSearch_2526_3,,2025.2.4,2026-02-23 12h00.45.311534 +0100,
vertical.xlsx,The target is tilted.,135,66,2,8,0,0,0,0,0,0,0,0,0,0,0,0,1,1,1,135,space,4.779600200000004,None,0,1,0.42652970000017376,None,space,1.2858026999997492,None,0,0,0,1,,,,,8,2,66,7,153.30042580000008,,,,,,,,,,,,,,,,,,,,,153.28515289999996,153.30042580000008,153.78417249999984,153.78905769999983,153.80389119999973,154.2334707,,,,,154.23356669999976,154.24945750000006,,154.43398389999993,153.80389119999973,,,,,,,,0,1,0.42652970000017376,None,,,,,,,,811,23,M,L,2026-02-23_12h00.45.111,VisualSearch_2526_3,,2025.2.4,2026-02-23 12h00.45.311534 +0100,
vertical.xlsx,The target is tilted.,135,67,3,8,0,1,1,1,1,1,1,1,1,1,1,1,1,11,12,135,space,4.779600200000004,None,0,1,1.8855891000002885,None,space,1.2858026999997492,None,0,0,0,1,,,,,8,3,67,4,154.45025429999987,,,,,,,,,,,,,,,,,,,,,154.43497539999998,154.45025429999987,154.93390599999975,154.94030380000004,154.95448669999996,156.8509494,,,,,156.85114639999983,156.8660172,157.0661898999997,157.05030399999987,,,,,,,,,0,1,1.8855891000002885,None,,,,,,,,811,23,M,L,2026-02-23_12h00.45.111,VisualSearch_2526_3,,2025.2.4,2026-02-23 12h00.45.311534 +0100,
vertical.xlsx,The target is tilted.,135,68,4,8,1,0,0,0,0,0,0,0,0,0,0,0,0,0,1,135,space,4.779600200000004,None,1,1,0.6049361999998837,None,space,1.2858026999997492,None,0,0,0,1,,,,,8,4,68,3,157.0661898999997,,,,,,,,,,,,,,,,,,,,,157.05110439999999,157.0661898999997,157.55015430000003,157.55507880000005,157.5705167000001,158.1841088000001,,,,,158.1843045999999,158.1991926999999,158.3994748,158.38315329999978,157.5705167000001,,,,,,,,1,1,0.6049361999998837,None,,,,,,,,811,23,M,L,2026-02-23_12h00.45.111,VisualSearch_2526_3,,2025.2.4,2026-02-23 12h00.45.311534 +0100,
vertical.xlsx,The target is tilted.,135,69,5,8,0,1,1,1,1,1,1,1,0,0,0,0,1,7,8,135,space,4.779600200000004,None,0,1,0.8489884000000529,None,space,1.2858026999997492,None,0,0,0,1,,,,,8,5,69,5,158.3994748,,,,,,,,,,,,,,,,,,,,,158.38359949999995,158.3994748,158.8834366000001,158.88829209999994,158.9035174999999,159.76675579999983,,,,,159.7669533999997,159.78236620000007,159.9825034999999,159.96635369999967,158.9035174999999,,,,,,,,0,1,0.8489884000000529,None,,,,,,,,811,23,M,L,2026-02-23_12h00.45.111,VisualSearch_2526_3,,2025.2.4,2026-02-23 12h00.45.311534 +0100,
vertical.xlsx,The target is tilted.,135,70,6,8,0,1,1,1,0,0,0,0,0,0,0,0,1,3,4,135,space,4.779600200000004,None,0,1,0.7102135999998609,None,space,1.2858026999997492,None,0,0,0,1,,,,,8,6,70,6,159.9825034999999,,,,,,,,,,,,,,,,,,,,,159.96707770000012,159.9825034999999,160.46610839999994,160.47102210000003,160.4866678999997,161.20019589999993,,,,,161.20040299999982,161.21537009999975,161.4159854999998,161.39999409999973,160.4866678999997,,,,,,,,0,1,0.7102135999998609,None,,,,,,,,811,23,M,L,2026-02-23_12h00.45.111,VisualSearch_2526_3,,2025.2.4,2026-02-23 12h00.45.311534 +0100,
vertical.xlsx,The target is tilted.,135,71,7,8,1,1,1,1,0,0,0,0,0,0,0,0,0,3,4,135,space,4.779600200000004,None,1,1,0.6012460000001738,None,space,1.2858026999997492,None,0,0,0,1,,,,,8,7,71,2,161.4159854999998,,,,,,,,,,,,,,,,,,,,,161.4008573000001,161.4159854999998,161.89935079999987,161.9043158999998,161.91573749999998,162.5324317999998,,,,,162.53256779999992,162.54842719999988,,162.73275650000005,161.91573749999998,,,,,,,,1,1,0.6012460000001738,None,,,,,,,,811,23,M,L,2026-02-23_12h00.45.111,VisualSearch_2526_3,,2025.2.4,2026-02-23 12h00.45.311534 +0100,
vertical.xlsx,The target is tilted.,135,72,0,9,0,0,0,0,0,0,0,0,0,0,0,0,1,1,1,135,space,4.779600200000004,None,0,1,0.4547883999998703,None,space,1.2858026999997492,None,0,0,0,1,,,,,9,0,72,7,162.74907510000003,,,,,,,,,,,,,,,,,,,,,162.7336206,162.74907510000003,163.23262399999976,163.2379092000001,163.2550656999997,163.71722649999992,,,,,163.71756239999968,163.7316907999998,163.9322285999997,163.91610300000002,163.2550656999997,,,,,,,,0,1,0.4547883999998703,None,,,,,,,,811,23,M,L,2026-02-23_12h00.45.111,VisualSearch_2526_3,,2025.2.4,2026-02-23 12h00.45.311534 +0100,
vertical.xlsx,The target is tilted.,135,73,1,9,1,0,0,0,0,0,0,0,0,0,0,0,0,0,1,135,space,4.779600200000004,None,1,1,0.5291219000000638,None,space,1.2858026999997492,None,0,0,0,1,,,,,9,1,73,3,163.9322285999997,,,,,,,,,,,,,,,,,,,,,163.91682469999978,163.9322285999997,164.41605870000012,164.42083649999995,164.43662529999983,164.9817049999997,,,,,164.9818250999997,164.99841199999992,,165.18234589999975,164.43662529999983,,,,,,,,1,1,0.5291219000000638,None,,,,,,,,811,23,M,L,2026-02-23_12h00.45.111,VisualSearch_2526_3,,2025.2.4,2026-02-23 12h00.45.311534 +0100,
vertical.xlsx,The target is tilted.,135,74,2,9,1,1,1,1,1,1,1,1,0,0,0,0,0,7,8,135,space,4.779600200000004,None,1,1,0.592185999999856,None,space,1.2858026999997492,None,0,0,0,1,,,,,9,2,74,1,165.19853650000005,,,,,,,,,,,,,,,,,,,,,165.18322519999992,165.19853650000005,165.68226619999996,165.6871458999999,165.70348620000004,166.29908399999977,,,,,166.29922050000005,166.3145285999999,166.51517889999968,166.49885749999976,,,,,,,,,1,1,0.592185999999856,None,,,,,,,,811,23,M,L,2026-02-23_12h00.45.111,VisualSearch_2526_3,,2025.2.4,2026-02-23 12h00.45.311534 +0100,
vertical.xlsx,The target is tilted.,135,75,3,9,0,1,1,1,1,1,1,1,0,0,0,0,1,7,8,135,space,4.779600200000004,None,0,1,0.8562802999999803,None,space,1.2858026999997492,None,0,0,0,1,,,,,9,3,75,5,166.51517889999968,,,,,,,,,,,,,,,,,,,,,166.49965629999997,166.51517889999968,166.99885949999998,167.0037394000001,167.01856989999987,167.88202449999972,,,,,167.8821296000001,167.89752369999997,168.09799889999977,168.08215029999974,167.01856989999987,,,,,,,,0,1,0.8562802999999803,None,,,,,,,,811,23,M,L,2026-02-23_12h00.45.111,VisualSearch_2526_3,,2025.2.4,2026-02-23 12h00.45.311534 +0100,
vertical.xlsx,The target is tilted.,135,76,4,9,0,1,1,1,0,0,0,0,0,0,0,0,1,3,4,135,space,4.779600200000004,None,0,1,0.5708337000000938,None,space,1.2858026999997492,None,0,0,0,1,,,,,9,4,76,6,168.09799889999977,,,,,,,,,,,,,,,,,,,,,168.08285679999972,168.09799889999977,168.58205499999985,168.5867235999999,168.5976971,169.1823790999997,,,,,169.18255529999988,169.1975852999999,169.39767729999994,169.38198349999993,168.5976971,,,,,,,,0,1,0.5708337000000938,None,,,,,,,,811,23,M,L,2026-02-23_12h00.45.111,VisualSearch_2526_3,,2025.2.4,2026-02-23 12h00.45.311534 +0100,
vertical.xlsx,The target is tilted.,135,77,5,9,1,1,1,1,1,1,1,1,1,1,1,1,0,11,12,135,space,4.779600200000004,None,1,1,0.5976782000002459,None,space,1.2858026999997492,None,0,0,0,1,,,,,9,5,77,0,169.39767729999994,,,,,,,,,,,,,,,,,,,,,169.38269089999994,169.39767729999994,169.88151769999968,169.8863935999998,169.9013732999997,170.51477369999975,,,,,170.51491459999988,170.5306013999998,170.73119659999975,170.71501409999973,169.9013732999997,,,,,,,,1,1,0.5976782000002459,None,,,,,,,,811,23,M,L,2026-02-23_12h00.45.111,VisualSearch_2526_3,,2025.2.4,2026-02-23 12h00.45.311534 +0100,
vertical.xlsx,The target is tilted.,135,78,6,9,0,1,1,1,1,1,1,1,1,1,1,1,1,11,12,135,space,4.779600200000004,None,0,1,1.5935395000001336,None,space,1.2858026999997492,None,0,0,0,1,,,,,9,6,78,4,170.73119659999975,,,,,,,,,,,,,,,,,,,,,170.7157585,170.73119659999975,171.2144263,171.2192160999998,171.2388406,172.84769049999977,,,,,172.84782829999995,172.8637703999998,173.0642398,173.0479978999997,171.2388406,,,,,,,,0,1,1.5935395000001336,None,,,,,,,,811,23,M,L,2026-02-23_12h00.45.111,VisualSearch_2526_3,,2025.2.4,2026-02-23 12h00.45.311534 +0100,
vertical.xlsx,The target is tilted.,135,79,7,9,1,1,1,1,0,0,0,0,0,0,0,0,0,3,4,135,space,4.779600200000004,None,1,1,0.6743950000000041,None,space,1.2858026999997492,None,0,0,0,1,,,,,9,7,79,2,173.0642398,,,,,,,,,,,,,,,,,,,,,173.0488406999998,173.0642398,173.54768549999972,173.55244089999997,173.56394150000006,174.2481069999999,,,,,174.24830539999994,174.26360049999994,174.4637748,174.44811879999997,173.56394150000006,,,,,,,,1,1,0.6743950000000041,None,,,,,,,,811,23,M,L,2026-02-23_12h00.45.111,VisualSearch_2526_3,,2025.2.4,2026-02-23 12h00.45.311534 +0100,
vertical.xlsx,The target is tilted.,135,80,0,10,0,1,1,1,0,0,0,0,0,0,0,0,1,3,4,135,space,4.779600200000004,None,0,1,0.7248982000000979,None,space,1.2858026999997492,None,0,0,0,1,,,,,10,0,80,6,174.4637748,,,,,,,,,,,,,,,,,,,,,174.44893039999988,174.4637748,174.94790220000004,174.95269860000008,174.96811720000005,175.69762649999984,,,,,175.69780420000006,175.71337089999997,175.91387129999976,175.8977587999998,174.96811720000005,,,,,,,,0,1,0.7248982000000979,None,,,,,,,,811,23,M,L,2026-02-23_12h00.45.111,VisualSearch_2526_3,,2025.2.4,2026-02-23 12h00.45.311534 +0100,
vertical.xlsx,The target is tilted.,135,81,1,10,0,0,0,0,0,0,0,0,0,0,0,0,1,1,1,135,space,4.779600200000004,None,0,1,0.4878527999999278,None,space,1.2858026999997492,None,0,0,0,1,,,,,10,1,81,7,175.91387129999976,,,,,,,,,,,,,,,,,,,,,175.89846519999992,175.91387129999976,176.3972721,176.40211799999997,176.41694299999972,176.9140841999997,,,,,176.91424529999995,176.92970109999987,177.1299310999998,177.11367530000007,176.41694299999972,,,,,,,,0,1,0.4878527999999278,None,,,,,,,,811,23,M,L,2026-02-23_12h00.45.111,VisualSearch_2526_3,,2025.2.4,2026-02-23 12h00.45.311534 +0100,
vertical.xlsx,The target is tilted.,135,82,2,10,1,1,1,1,0,0,0,0,0,0,0,0,0,3,4,135,space,4.779600200000004,None,1,1,0.526790599999913,None,space,1.2858026999997492,None,0,0,0,1,,,,,10,2,82,2,177.1299310999998,,,,,,,,,,,,,,,,,,,,,177.1139988,177.1299310999998,177.61414569999988,177.61894489999986,177.63458519999995,178.1645755999998,,,,,178.1652841,178.17968010000004,178.38004049999972,178.3640534000001,177.63458519999995,,,,,,,,1,1,0.526790599999913,None,,,,,,,,811,23,M,L,2026-02-23_12h00.45.111,VisualSearch_2526_3,,2025.2.4,2026-02-23 12h00.45.311534 +0100,
vertical.xlsx,The target is tilted.,135,83,3,10,1,1,1,1,1,1,1,1,1,1,1,1,0,11,12,135,space,4.779600200000004,None,1,1,0.7351810999998634,None,space,1.2858026999997492,None,0,0,0,1,,,,,10,3,83,0,178.38004049999972,,,,,,,,,,,,,,,,,,,,,178.36476519999997,178.38004049999972,178.86408919999985,178.86920119999968,178.88512579999997,179.63040120000005,,,,,179.63054199999988,179.64597259999982,179.84662389999994,179.8303375999999,178.88512579999997,,,,,,,,1,1,0.7351810999998634,None,,,,,,,,811,23,M,L,2026-02-23_12h00.45.111,VisualSearch_2526_3,,2025.2.4,2026-02-23 12h00.45.311534 +0100,
vertical.xlsx,The target is tilted.,135,84,4,10,0,1,1,1,1,1,1,1,1,1,1,1,1,11,12,135,space,4.779600200000004,None,0,1,1.00891589999992,None,space,1.2858026999997492,None,0,0,0,1,,,,,10,4,84,4,179.84662389999994,,,,,,,,,,,,,,,,,,,,,179.83110069999975,179.84662389999994,180.32984690000012,180.33294979999982,180.3458940999999,181.36416419999978,,,,,181.3643573999998,181.37979240000004,181.5796147000001,181.56364600000006,180.3458940999999,,,,,,,,0,1,1.00891589999992,None,,,,,,,,811,23,M,L,2026-02-23_12h00.45.111,VisualSearch_2526_3,,2025.2.4,2026-02-23 12h00.45.311534 +0100,
vertical.xlsx,The target is tilted.,135,85,5,10,1,0,0,0,0,0,0,0,0,0,0,0,0,0,1,135,space,4.779600200000004,None,1,1,0.5428113000002668,None,space,1.2858026999997492,None,0,0,0,1,,,,,10,5,85,3,181.5796147000001,,,,,,,,,,,,,,,,,,,,,181.5645039000001,181.5796147000001,182.0635938999999,182.06991259999995,182.08443020000004,182.6303825,,,,,182.63057889999982,182.6459589000001,182.8461287,182.82986449999999,182.08443020000004,,,,,,,,1,1,0.5428113000002668,None,,,,,,,,811,23,M,L,2026-02-23_12h00.45.111,VisualSearch_2526_3,,2025.2.4,2026-02-23 12h00.45.311534 +0100,
vertical.xlsx,The target is tilted.,135,86,6,10,0,1,1,1,1,1,1,1,0,0,0,0,1,7,8,135,space,4.779600200000004,None,0,1,0.7536843000002591,None,space,1.2858026999997492,None,0,0,0,1,,,,,10,6,86,5,182.8461287,,,,,,,,,,,,,,,,,,,,,182.83060269999987,182.8461287,183.32979549999982,183.33590370000002,183.3512353000001,184.1131034,,,,,184.11325769999985,184.1287597999999,184.32929839999997,184.31296539999994,183.3512353000001,,,,,,,,0,1,0.7536843000002591,None,,,,,,,,811,23,M,L,2026-02-23_12h00.45.111,VisualSearch_2526_3,,2025.2.4,2026-02-23 12h00.45.311534 +0100,
vertical.xlsx,The target is tilted.,135,87,7,10,1,1,1,1,1,1,1,1,0,0,0,0,0,7,8,135,space,4.779600200000004,None,1,1,1.1044096000000536,None,space,1.2858026999997492,None,0,0,0,1,,,,,10,7,87,1,184.32929839999997,,,,,,,,,,,,,,,,,,,,,184.31377909999992,184.32929839999997,184.81325530000004,184.81863139999996,184.83351700000003,185.94684199999983,,,,,185.9470384000001,185.96230109999988,186.16240349999998,186.14625209999986,184.83351700000003,,,,,,,,1,1,1.1044096000000536,None,,,,,,,,811,23,M,L,2026-02-23_12h00.45.111,VisualSearch_2526_3,,2025.2.4,2026-02-23 12h00.45.311534 +0100,
vertical.xlsx,The target is tilted.,135,88,0,11,0,1,1,1,0,0,0,0,0,0,0,0,1,3,4,135,space,4.779600200000004,None,0,1,0.490625099999761,None,space,1.2858026999997492,None,0,0,0,1,,,,,11,0,88,6,186.16240349999998,,,,,,,,,,,,,,,,,,,,,186.14697909999995,186.16240349999998,186.64600500000006,186.65120660000002,186.66678049999973,187.16277199999968,,,,,187.16291789999968,187.17872949999992,187.37872599999992,187.36261209999975,186.66678049999973,,,,,,,,0,1,0.490625099999761,None,,,,,,,,811,23,M,L,2026-02-23_12h00.45.111,VisualSearch_2526_3,,2025.2.4,2026-02-23 12h00.45.311534 +0100,
vertical.xlsx,The target is tilted.,135,89,1,11,0,1,1,1,1,1,1,1,0,0,0,0,1,7,8,135,space,4.779600200000004,None,0,1,1.6585565000000315,None,space,1.2858026999997492,None,0,0,0,1,,,,,11,1,89,5,187.37872599999992,,,,,,,,,,,,,,,,,,,,,187.36344439999993,187.37872599999992,187.86273690000007,187.8680730000001,187.8831038999997,189.54556379999985,,,,,189.5457225,189.5617916000001,189.7618253999999,189.74575830000003,187.8831038999997,,,,,,,,0,1,1.6585565000000315,None,,,,,,,,811,23,M,L,2026-02-23_12h00.45.111,VisualSearch_2526_3,,2025.2.4,2026-02-23 12h00.45.311534 +0100,
vertical.xlsx,The target is tilted.,135,90,2,11,1,1,1,1,1,1,1,1,0,0,0,0,0,7,8,135,space,4.779600200000004,None,1,1,0.5846613999997317,None,space,1.2858026999997492,None,0,0,0,1,,,,,11,2,90,1,189.7618253999999,,,,,,,,,,,,,,,,,,,,,189.74648200000001,189.7618253999999,190.2453728999999,190.24863449999975,190.26130299999977,190.8625364999998,,,,,190.86273380000011,190.87798939999993,191.07810500000005,191.06231900000012,190.26130299999977,,,,,,,,1,1,0.5846613999997317,None,,,,,,,,811,23,M,L,2026-02-23_12h00.45.111,VisualSearch_2526_3,,2025.2.4,2026-02-23 12h00.45.311534 +0100,
vertical.xlsx,The target is tilted.,135,91,3,11,0,0,0,0,0,0,0,0,0,0,0,0,1,1,1,135,space,4.779600200000004,None,0,1,0.6114535000001524,None,space,1.2858026999997492,None,0,0,0,1,,,,,11,3,91,7,191.07810500000005,,,,,,,,,,,,,,,,,,,,,191.06311349999987,191.07810500000005,191.56205,191.56673339999998,191.5835265999999,192.1959557,,,,,192.19614969999975,192.2113316,192.41149649999988,192.39529129999983,191.5835265999999,,,,,,,,0,1,0.6114535000001524,None,,,,,,,,811,23,M,L,2026-02-23_12h00.45.111,VisualSearch_2526_3,,2025.2.4,2026-02-23 12h00.45.311534 +0100,
vertical.xlsx,The target is tilted.,135,92,4,11,0,1,1,1,1,1,1,1,1,1,1,1,1,11,12,135,space,4.779600200000004,None,0,1,1.3144296999998915,None,space,1.2858026999997492,None,0,0,0,1,,,,,11,4,92,4,192.41149649999988,,,,,,,,,,,,,,,,,,,,,192.3960374999997,192.41149649999988,192.89525679999997,192.89999020000005,192.91126559999975,194.2285121,,,,,194.22867099999985,194.24432350000006,194.4446251999998,194.42830989999993,192.91126559999975,,,,,,,,0,1,1.3144296999998915,None,,,,,,,,811,23,M,L,2026-02-23_12h00.45.111,VisualSearch_2526_3,,2025.2.4,2026-02-23 12h00.45.311534 +0100,
vertical.xlsx,The target is tilted.,135,93,5,11,1,1,1,1,1,1,1,1,1,1,1,1,0,11,12,135,space,4.779600200000004,None,1,1,0.7268596999997499,None,space,1.2858026999997492,None,0,0,0,1,,,,,11,5,93,0,194.4446251999998,,,,,,,,,,,,,,,,,,,,,194.4292860999999,194.4446251999998,194.92809309999984,194.93346900000006,194.94864460000008,195.6788636000001,,,,,195.6790858999998,195.6943056,195.89434290000008,195.87829609999972,194.94864460000008,,,,,,,,1,1,0.7268596999997499,None,,,,,,,,811,23,M,L,2026-02-23_12h00.45.111,VisualSearch_2526_3,,2025.2.4,2026-02-23 12h00.45.311534 +0100,
vertical.xlsx,The target is tilted.,135,94,6,11,1,1,1,1,0,0,0,0,0,0,0,0,0,3,4,135,space,4.779600200000004,None,1,1,0.6288761000000704,None,space,1.2858026999997492,None,0,0,0,1,,,,,11,6,94,2,195.89434290000008,,,,,,,,,,,,,,,,,,,,,195.87909820000004,195.89434290000008,196.3782268,196.38305649999984,196.39773089999971,197.0286401999997,,,,,197.0288840999997,197.04414659999975,197.24406439999984,197.22791749999988,196.39773089999971,,,,,,,,1,1,0.6288761000000704,None,,,,,,,,811,23,M,L,2026-02-23_12h00.45.111,VisualSearch_2526_3,,2025.2.4,2026-02-23 12h00.45.311534 +0100,
vertical.xlsx,The target is tilted.,135,95,7,11,1,0,0,0,0,0,0,0,0,0,0,0,0,0,1,135,space,4.779600200000004,None,1,1,0.47363799999993716,None,space,1.2858026999997492,None,0,0,0,1,,,,,11,7,95,3,197.24406439999984,,,,,,,,,,,,,,,,,,,,,197.22868309999967,197.24406439999984,197.72805909999988,197.73305200000004,197.7487989000001,198.22842719999971,,,,,198.2286438000001,198.24387260000003,198.44385049999983,198.4277376,197.7487989000001,,,,,,,,1,1,0.47363799999993716,None,,,,,,,,811,23,M,L,2026-02-23_12h00.45.111,VisualSearch_2526_3,,2025.2.4,2026-02-23 12h00.45.311534 +0100,
vertical.xlsx,The target is tilted.,135,96,0,12,0,1,1,1,0,0,0,0,0,0,0,0,1,3,4,135,space,4.779600200000004,None,0,1,0.5434513999998671,None,space,1.2858026999997492,None,0,0,0,1,,,,,12,0,96,6,198.44385049999983,,,,,,,,,,,,,,,,,,,,,198.4284806999999,198.44385049999983,198.92799220000006,198.93278680000003,198.9437651999997,199.49490119999973,,,,,199.49509790000002,199.5104298000001,199.710415,199.69439509999984,198.9437651999997,,,,,,,,0,1,0.5434513999998671,None,,,,,,,,811,23,M,L,2026-02-23_12h00.45.111,VisualSearch_2526_3,,2025.2.4,2026-02-23 12h00.45.311534 +0100,
vertical.xlsx,The target is tilted.,135,97,1,12,0,1,1,1,1,1,1,1,0,0,0,0,1,7,8,135,space,4.779600200000004,None,0,1,1.0712556000003133,None,space,1.2858026999997492,None,0,0,0,1,,,,,12,1,97,5,199.710415,,,,,,,,,,,,,,,,,,,,,199.69521159999977,199.710415,200.19383229999994,200.19856459999983,200.2156359999999,201.29424579999977,,,,,201.29446869999992,201.3099997999998,201.51024609999968,201.4941444000001,200.2156359999999,,,,,,,,0,1,1.0712556000003133,None,,,,,,,,811,23,M,L,2026-02-23_12h00.45.111,VisualSearch_2526_3,,2025.2.4,2026-02-23 12h00.45.311534 +0100,
vertical.xlsx,The target is tilted.,135,98,2,12,1,0,0,0,0,0,0,0,0,0,0,0,0,0,1,135,space,4.779600200000004,None,1,1,0.5228836999999658,None,space,1.2858026999997492,None,0,0,0,1,,,,,12,2,98,3,201.51024609999968,,,,,,,,,,,,,,,,,,,,,201.49498790000007,201.51024609999968,201.9939346000001,201.99882769999977,202.01485890000004,202.54417130000002,,,,,202.5443304999999,202.55983609999976,202.7599723999997,202.7437943,202.01485890000004,,,,,,,,1,1,0.5228836999999658,None,,,,,,,,811,23,M,L,2026-02-23_12h00.45.111,VisualSearch_2526_3,,2025.2.4,2026-02-23 12h00.45.311534 +0100,
vertical.xlsx,The target is tilted.,135,99,3,12,1,1,1,1,1,1,1,1,0,0,0,0,0,7,8,135,space,4.779600200000004,None,1,1,0.7059530999999879,None,space,1.2858026999997492,None,0,0,0,1,,,,,12,3,99,1,202.7599723999997,,,,,,,,,,,,,,,,,,,,,202.74457489999986,202.7599723999997,203.24371279999968,203.2486485999998,203.26504810000006,203.97756419999996,,,,,203.9777578999997,203.99309749999975,204.19323829999985,204.17717529999982,203.26504810000006,,,,,,,,1,1,0.7059530999999879,None,,,,,,,,811,23,M,L,2026-02-23_12h00.45.111,VisualSearch_2526_3,,2025.2.4,2026-02-23 12h00.45.311534 +0100,
vertical.xlsx,The target is tilted.,135,100,4,12,0,1,1,1,1,1,1,1,1,1,1,1,1,11,12,135,space,4.779600200000004,None,0,1,1.5067837000001418,None,space,1.2858026999997492,None,0,0,0,1,,,,,12,4,100,4,204.19323829999985,,,,,,,,,,,,,,,,,,,,,204.1780033,204.19323829999985,204.67664699999978,204.68142369999987,204.69725560000006,206.21007439999994,,,,,206.21027049999975,206.2261921999998,206.4258737,206.41005020000011,204.69725560000006,,,,,,,,0,1,1.5067837000001418,None,,,,,,,,811,23,M,L,2026-02-23_12h00.45.111,VisualSearch_2526_3,,2025.2.4,2026-02-23 12h00.45.311534 +0100,
vertical.xlsx,The target is tilted.,135,101,5,12,1,1,1,1,1,1,1,1,1,1,1,1,0,11,12,135,space,4.779600200000004,None,1,1,0.8603947000001426,None,space,1.2858026999997492,None,0,0,0,1,,,,,12,5,101,0,206.4258737,,,,,,,,,,,,,,,,,,,,,206.41085999999996,206.4258737,206.90957660000004,206.9127682999997,206.92593050000005,207.79295860000002,,,,,207.79304139999977,207.80874319999975,208.0093165999997,207.99297380000007,206.92593050000005,,,,,,,,1,1,0.8603947000001426,None,,,,,,,,811,23,M,L,2026-02-23_12h00.45.111,VisualSearch_2526_3,,2025.2.4,2026-02-23 12h00.45.311534 +0100,
vertical.xlsx,The target is tilted.,135,102,6,12,1,1,1,1,0,0,0,0,0,0,0,0,0,3,4,135,space,4.779600200000004,None,1,1,0.45080760000018927,None,space,1.2858026999997492,None,0,0,0,1,,,,,12,6,102,2,208.0093165999997,,,,,,,,,,,,,,,,,,,,,207.99380569999994,208.0093165999997,208.49293979999993,208.49779399999989,208.5125976999998,208.97688740000012,,,,,208.97708199999988,208.99230080000007,209.19255410000005,209.1764616999999,208.5125976999998,,,,,,,,1,1,0.45080760000018927,None,,,,,,,,811,23,M,L,2026-02-23_12h00.45.111,VisualSearch_2526_3,,2025.2.4,2026-02-23 12h00.45.311534 +0100,
vertical.xlsx,The target is tilted.,135,103,7,12,0,0,0,0,0,0,0,0,0,0,0,0,1,1,1,135,space,4.779600200000004,None,0,1,0.5960627999997996,None,space,1.2858026999997492,None,0,0,0,1,,,,,12,7,103,7,209.19255410000005,,,,,,,,,,,,,,,,,,,,,209.17732269999988,209.19255410000005,209.6763916,209.68152849999979,209.69705019999992,210.30980309999995,,,,,210.30998210000007,210.3252751,210.52553279999984,210.50934860000007,209.69705019999992,,,,,,,,0,1,0.5960627999997996,None,,,,,,,,811,23,M,L,2026-02-23_12h00.45.111,VisualSearch_2526_3,,2025.2.4,2026-02-23 12h00.45.311534 +0100,
vertical.xlsx,The target is tilted.,135,104,0,13,1,1,1,1,1,1,1,1,1,1,1,1,0,11,12,135,space,4.779600200000004,None,1,1,1.0647100999999566,None,space,1.2858026999997492,None,0,0,0,1,,,,,13,0,104,0,210.52553279999984,,,,,,,,,,,,,,,,,,,,,210.51014749999968,210.52553279999984,211.00921560000006,211.0140111999999,211.03056070000002,212.10947639999995,,,,,212.10965179999994,212.12518369999998,212.32521749999978,212.30901820000008,211.03056070000002,,,,,,,,1,1,1.0647100999999566,None,,,,,,,,811,23,M,L,2026-02-23_12h00.45.111,VisualSearch_2526_3,,2025.2.4,2026-02-23 12h00.45.311534 +0100,
vertical.xlsx,The target is tilted.,135,105,1,13,0,1,1,1,0,0,0,0,0,0,0,0,1,3,4,135,space,4.779600200000004,None,0,1,0.6596422000002349,None,space,1.2858026999997492,None,0,0,0,1,,,,,13,1,105,6,212.32521749999978,,,,,,,,,,,,,,,,,,,,,212.30987800000003,212.32521749999978,212.80899950000003,212.81404669999984,212.82506289999992,213.49285400000008,,,,,213.49304940000002,213.50828169999977,213.7083115999999,213.6922737,212.82506289999992,,,,,,,,0,1,0.6596422000002349,None,,,,,,,,811,23,M,L,2026-02-23_12h00.45.111,VisualSearch_2526_3,,2025.2.4,2026-02-23 12h00.45.311534 +0100,
vertical.xlsx,The target is tilted.,135,106,2,13,1,0,0,0,0,0,0,0,0,0,0,0,0,0,1,135,space,4.779600200000004,None,0,0,0.39168070000005173,None,space,1.2858026999997492,None,0,0,0,1,,,,,13,2,106,3,213.7083115999999,,,,,,,,,,,,,,,,,,,,,213.69300889999977,213.7083115999999,214.19225689999985,214.19701720000012,214.21074849999968,214.60891619999984,,,,,214.6090608999998,214.62481019999996,214.82495990000007,214.80845069999987,214.21074849999968,,,,,,,,0,0,0.39168070000005173,None,,,,,,,,811,23,M,L,2026-02-23_12h00.45.111,VisualSearch_2526_3,,2025.2.4,2026-02-23 12h00.45.311534 +0100,
vertical.xlsx,The target is tilted.,135,107,3,13,0,1,1,1,1,1,1,1,1,1,1,1,1,11,12,135,space,4.779600200000004,None,0,1,1.4474355000002106,None,space,1.2858026999997492,None,0,0,0,1,,,,,13,3,107,4,214.82495990000007,,,,,,,,,,,,,,,,,,,,,214.80921689999968,214.82495990000007,215.30862339999976,215.31346929999972,215.32983009999998,216.79211579999992,,,,,216.79227790000004,216.8075884,217.0075764999997,216.9917676,215.32983009999998,,,,,,,,0,1,1.4474355000002106,None,,,,,,,,811,23,M,L,2026-02-23_12h00.45.111,VisualSearch_2526_3,,2025.2.4,2026-02-23 12h00.45.311534 +0100,
vertical.xlsx,The target is tilted.,135,108,4,13,0,1,1,1,1,1,1,1,0,0,0,0,1,7,8,135,space,4.779600200000004,None,0,1,1.0577165999998215,None,space,1.2858026999997492,None,0,0,0,1,,,,,13,4,108,5,217.0075764999997,,,,,,,,,,,,,,,,,,,,,216.99259669999992,217.0075764999997,217.4916545000001,217.49609599999985,217.507384,218.57489759999999,,,,,218.57504019999988,218.59089390000008,218.7903983000001,218.77385909999975,217.507384,,,,,,,,0,1,1.0577165999998215,None,,,,,,,,811,23,M,L,2026-02-23_12h00.45.111,VisualSearch_2526_3,,2025.2.4,2026-02-23 12h00.45.311534 +0100,
vertical.xlsx,The target is tilted.,135,109,5,13,0,0,0,0,0,0,0,0,0,0,0,0,1,1,1,135,space,4.779600200000004,None,0,1,0.5692059999996673,None,space,1.2858026999997492,None,0,0,0,1,,,,,13,5,109,7,218.7903983000001,,,,,,,,,,,,,,,,,,,,,218.77426800000012,218.7903983000001,219.2749447000001,219.28050429999985,219.29402149999987,219.87523389999978,,,,,219.87544900000012,219.89045749999968,220.09082940000008,220.0747526,219.29402149999987,,,,,,,,0,1,0.5692059999996673,None,,,,,,,,811,23,M,L,2026-02-23_12h00.45.111,VisualSearch_2526_3,,2025.2.4,2026-02-23 12h00.45.311534 +0100,
vertical.xlsx,The target is tilted.,135,110,6,13,1,1,1,1,0,0,0,0,0,0,0,0,0,3,4,135,space,4.779600200000004,None,1,1,0.546869699999661,None,space,1.2858026999997492,None,0,0,0,1,,,,,13,6,110,2,220.09082940000008,,,,,,,,,,,,,,,,,,,,,220.0754597,220.09082940000008,220.5743997999998,220.57930859999988,220.59443280000005,221.15849619999972,,,,,221.1586930999997,221.17364339999995,221.37400949999983,221.35772670000006,220.59443280000005,,,,,,,,1,1,0.546869699999661,None,,,,,,,,811,23,M,L,2026-02-23_12h00.45.111,VisualSearch_2526_3,,2025.2.4,2026-02-23 12h00.45.311534 +0100,
vertical.xlsx,The target is tilted.,135,111,7,13,1,1,1,1,1,1,1,1,0,0,0,0,0,7,8,135,space,4.779600200000004,None,1,1,0.6612912000000506,None,space,1.2858026999997492,None,0,0,0,1,,,,,13,7,111,1,221.37400949999983,,,,,,,,,,,,,,,,,,,,,221.35847579999972,221.37400949999983,221.85787579999987,221.8625308999999,221.8738174,222.54108879999967,,,,,222.54122169999982,222.5570929999999,222.75716639999973,222.7408716,221.8738174,,,,,,,,1,1,0.6612912000000506,None,,,,,,,,811,23,M,L,2026-02-23_12h00.45.111,VisualSearch_2526_3,,2025.2.4,2026-02-23 12h00.45.311534 +0100,
vertical.xlsx,The target is tilted.,135,112,0,14,1,0,0,0,0,0,0,0,0,0,0,0,0,0,1,135,space,4.779600200000004,None,1,1,0.5037570999998024,None,space,1.2858026999997492,None,0,0,0,1,,,,,14,0,112,3,222.75716639999973,,,,,,,,,,,,,,,,,,,,,222.74162690000003,222.75716639999973,223.2401249999998,223.24305389999972,223.2567866999998,223.7740031999997,,,,,223.77409149999994,223.79003029999967,223.99013839999998,223.97409310000012,223.2567866999998,,,,,,,,1,1,0.5037570999998024,None,,,,,,,,811,23,M,L,2026-02-23_12h00.45.111,VisualSearch_2526_3,,2025.2.4,2026-02-23 12h00.45.311534 +0100,
vertical.xlsx,The target is tilted.,135,113,1,14,0,0,0,0,0,0,0,0,0,0,0,0,1,1,1,135,space,4.779600200000004,None,0,1,0.7179268999998385,None,space,1.2858026999997492,None,0,0,0,1,,,,,14,1,113,7,223.99013839999998,,,,,,,,,,,,,,,,,,,,,223.97489610000002,223.99013839999998,224.4740797999998,224.4788923000001,224.49612290000005,225.22427919999973,,,,,225.22448069999973,225.2397722999999,225.44006499999978,225.4238803999997,224.49612290000005,,,,,,,,0,1,0.7179268999998385,None,,,,,,,,811,23,M,L,2026-02-23_12h00.45.111,VisualSearch_2526_3,,2025.2.4,2026-02-23 12h00.45.311534 +0100,
vertical.xlsx,The target is tilted.,135,114,2,14,1,1,1,1,1,1,1,1,1,1,1,1,0,11,12,135,space,4.779600200000004,None,1,1,0.853466799999751,None,space,1.2858026999997492,None,0,0,0,1,,,,,14,2,114,0,225.44006499999978,,,,,,,,,,,,,,,,,,,,,225.42473279999967,225.44006499999978,225.92383759999984,225.9287706,225.94576789999974,226.80751490000011,,,,,226.80765239999982,226.8230392999999,227.02318370000012,227.00704339999993,225.94576789999974,,,,,,,,1,1,0.853466799999751,None,,,,,,,,811,23,M,L,2026-02-23_12h00.45.111,VisualSearch_2526_3,,2025.2.4,2026-02-23 12h00.45.311534 +0100,
vertical.xlsx,The target is tilted.,135,115,3,14,0,1,1,1,1,1,1,1,0,0,0,0,1,7,8,135,space,4.779600200000004,None,0,1,1.0966254999998455,None,space,1.2858026999997492,None,0,0,0,1,,,,,14,3,115,5,227.02318370000012,,,,,,,,,,,,,,,,,,,,,227.00781449999977,227.02318370000012,227.5070440999998,227.51189309999972,227.5274055,228.64075479999974,,,,,228.6409553999997,228.6562141999998,228.85640969999986,228.84030970000003,227.5274055,,,,,,,,0,1,1.0966254999998455,None,,,,,,,,811,23,M,L,2026-02-23_12h00.45.111,VisualSearch_2526_3,,2025.2.4,2026-02-23 12h00.45.311534 +0100,
vertical.xlsx,The target is tilted.,135,116,4,14,0,1,1,1,0,0,0,0,0,0,0,0,1,3,4,135,space,4.779600200000004,None,0,1,0.5098572000001695,None,space,1.2858026999997492,None,0,0,0,1,,,,,14,4,116,6,228.85640969999986,,,,,,,,,,,,,,,,,,,,,228.8411403,228.85640969999986,229.3398241,229.34484999999995,229.3579805999998,229.8738497999998,,,,,229.87404620000007,229.88937529999976,230.0890562999998,230.07334420000007,229.3579805999998,,,,,,,,0,1,0.5098572000001695,None,,,,,,,,811,23,M,L,2026-02-23_12h00.45.111,VisualSearch_2526_3,,2025.2.4,2026-02-23 12h00.45.311534 +0100,
vertical.xlsx,The target is tilted.,135,117,5,14,1,1,1,1,0,0,0,0,0,0,0,0,0,3,4,135,space,4.779600200000004,None,1,1,0.5517389000001458,None,space,1.2858026999997492,None,0,0,0,1,,,,,14,5,117,2,230.0890562999998,,,,,,,,,,,,,,,,,,,,,230.0740480999998,230.0890562999998,230.5734081999999,230.57877860000008,230.5959754999999,231.15703209999992,,,,,231.15722669999968,231.17232590000003,231.3725217000001,231.3564140999997,230.5959754999999,,,,,,,,1,1,0.5517389000001458,None,,,,,,,,811,23,M,L,2026-02-23_12h00.45.111,VisualSearch_2526_3,,2025.2.4,2026-02-23 12h00.45.311534 +0100,
vertical.xlsx,The target is tilted.,135,118,6,14,1,1,1,1,1,1,1,1,0,0,0,0,0,7,8,135,space,4.779600200000004,None,1,1,0.6359991999997874,None,space,1.2858026999997492,None,0,0,0,1,,,,,14,6,118,1,231.3725217000001,,,,,,,,,,,,,,,,,,,,,231.35714289999987,231.3725217000001,231.8559491000001,231.86080169999968,231.87710990000005,232.5227878999999,,,,,232.52288959999987,232.5386951999999,232.73897369999986,232.72296400000005,231.87710990000005,,,,,,,,1,1,0.6359991999997874,None,,,,,,,,811,23,M,L,2026-02-23_12h00.45.111,VisualSearch_2526_3,,2025.2.4,2026-02-23 12h00.45.311534 +0100,
vertical.xlsx,The target is tilted.,135,119,7,14,0,1,1,1,1,1,1,1,1,1,1,1,1,11,12,135,space,4.779600200000004,None,0,1,1.2465558999997484,None,space,1.2858026999997492,None,0,0,0,1,,,,,14,7,119,4,232.73897369999986,,,,,,,,,,,,,,,,,,,,,232.7236987000001,232.73897369999986,233.2226502999997,233.22749479999993,233.24279939999997,234.5065896000001,,,,,234.5067856999999,234.52211269999998,234.73437079999985,234.7059349000001,233.24279939999997,,,,,,,,0,1,1.2465558999997484,None,,,,,,,,811,23,M,L,2026-02-23_12h00.45.111,VisualSearch_2526_3,,2025.2.4,2026-02-23 12h00.45.311534 +0100,
vertical.xlsx,The target is tilted.,135,0,0,0,,,,,,,,,,,,,,,,,space,4.779600200000004,None,,,,,space,1.2858026999997492,None,0,0,0,1,,,,,,,,,,,,,,,,,,,,,,,,,,,,,,,,,,,,,,,,,,,,,,,,,,,,,,,,,,,,,,,811,23,M,L,2026-02-23_12h00.45.111,VisualSearch_2526_3,,2025.2.4,2026-02-23 12h00.45.311534 +0100,
tilted.xlsx,The target is tilted.,117,0,0,0,1,0,0,0,0,0,0,0,0,0,0,0,0,0,1,117,space,4.043988099999751,None,1,1,0.5867717000000994,None,,,,0,1,1,0,0,0,0,3,,,,,238.81425050000007,,,,,,,,,,,,,,,234.73437079999985,234.73437079999985,234.73437079999985,space,4.043988099999751,None,238.81031819999998,238.81425050000007,239.30499710000004,239.30991519999998,239.32635729999993,239.92173849999972,1,1,0.5867717000000994,None,239.92182550000007,239.93746199999987,240.13768179999988,240.12182679999978,,,,,,,,,,,,,,,,,,,,811,23,M,L,2026-02-23_12h00.45.111,VisualSearch_2526_3,,2025.2.4,2026-02-23 12h00.45.311534 +0100,
tilted.xlsx,The target is tilted.,117,1,1,0,0,1,1,1,1,1,1,1,1,1,1,1,1,11,12,117,space,4.043988099999751,None,0,1,2.8858525999999074,None,,,,0,1,1,0,0,1,1,4,,,,,240.13768179999988,,,,,,,,,,,,,,,,,,,,,240.12261009999975,240.13768179999988,240.62170659999992,240.62651779999987,240.6394519999999,243.53848599999992,0,1,2.8858525999999074,None,243.53866049999988,243.5540861999998,243.75421019999976,243.73816899999974,240.6394519999999,,,,,,,,,,,,,,,,,,,811,23,M,L,2026-02-23_12h00.45.111,VisualSearch_2526_3,,2025.2.4,2026-02-23 12h00.45.311534 +0100,
tilted.xlsx,The target is tilted.,117,2,2,0,0,1,1,1,0,0,0,0,0,0,0,0,1,3,4,117,space,4.043988099999751,None,0,1,0.8682321999999658,None,,,,0,1,1,0,0,2,2,6,,,,,243.75421019999976,,,,,,,,,,,,,,,,,,,,,243.7389132999997,243.75421019999976,244.23765099999991,244.2424501999999,244.25945599999977,245.1376937,0,1,0.8682321999999658,None,245.13782559999981,245.15373069999987,245.35404530000005,245.33833460000005,244.25945599999977,,,,,,,,,,,,,,,,,,,811,23,M,L,2026-02-23_12h00.45.111,VisualSearch_2526_3,,2025.2.4,2026-02-23 12h00.45.311534 +0100,
tilted.xlsx,The target is tilted.,117,3,3,0,1,1,1,1,0,0,0,0,0,0,0,0,0,3,4,117,space,4.043988099999751,None,1,1,1.3478412999998,None,,,,0,1,1,0,0,3,3,2,,,,,245.35404530000005,,,,,,,,,,,,,,,,,,,,,245.33920249999983,245.35404530000005,245.83783989999984,245.84302720000005,245.85802719999992,247.22039289999975,1,1,1.3478412999998,None,247.22048769999992,247.23654699999997,247.43685589999995,247.4207133,245.85802719999992,,,,,,,,,,,,,,,,,,,811,23,M,L,2026-02-23_12h00.45.111,VisualSearch_2526_3,,2025.2.4,2026-02-23 12h00.45.311534 +0100,
tilted.xlsx,The target is tilted.,117,4,4,0,1,1,1,1,1,1,1,1,1,1,1,1,0,11,12,117,space,4.043988099999751,None,1,1,1.6599579999997331,None,,,,0,1,1,0,0,4,4,0,,,,,247.43685589999995,,,,,,,,,,,,,,,,,,,,,247.42143399999986,247.43685589999995,247.9208292999997,247.92558400000007,247.94516079999994,249.62076099999967,1,1,1.6599579999997331,None,249.62093430000004,249.6365212999999,249.83655869999984,249.8204596999999,247.94516079999994,,,,,,,,,,,,,,,,,,,811,23,M,L,2026-02-23_12h00.45.111,VisualSearch_2526_3,,2025.2.4,2026-02-23 12h00.45.311534 +0100,
tilted.xlsx,The target is tilted.,117,5,5,0,0,1,1,1,1,1,1,1,0,0,0,0,1,7,8,117,space,4.043988099999751,None,0,1,2.08249190000015,None,,,,0,1,1,0,0,5,5,5,,,,,249.83655869999984,,,,,,,,,,,,,,,,,,,,,249.82111429999986,249.83655869999984,250.3198536,250.3219578999997,250.33638059999976,252.4205364999998,0,1,2.08249190000015,None,252.42070719999992,252.43614630000002,252.63603809999995,252.61969959999988,250.33638059999976,,,,,,,,,,,,,,,,,,,811,23,M,L,2026-02-23_12h00.45.111,VisualSearch_2526_3,,2025.2.4,2026-02-23 12h00.45.311534 +0100,
tilted.xlsx,The target is tilted.,117,6,6,0,1,1,1,1,1,1,1,1,0,0,0,0,0,7,8,117,space,4.043988099999751,None,1,1,7.334028499999931,None,,,,0,1,1,0,0,6,6,1,,,,,252.63603809999995,,,,,,,,,,,,,,,,,,,,,252.62041309999995,252.63603809999995,253.1195576,253.12219649999997,253.1359927999997,260.4854068999998,1,1,7.334028499999931,None,260.48550559999967,260.5013200999997,260.70169739999983,260.6855542999997,253.1359927999997,,,,,,,,,,,,,,,,,,,811,23,M,L,2026-02-23_12h00.45.111,VisualSearch_2526_3,,2025.2.4,2026-02-23 12h00.45.311534 +0100,
tilted.xlsx,The target is tilted.,117,7,7,0,0,0,0,0,0,0,0,0,0,0,0,0,1,1,1,117,space,4.043988099999751,None,0,1,1.3165272000001096,None,,,,0,1,1,0,0,7,7,7,,,,,260.70169739999983,,,,,,,,,,,,,,,,,,,,,260.68623230000003,260.70169739999983,261.1854949999997,261.19086229999994,261.2072734999997,262.5357710999997,0,1,1.3165272000001096,None,262.5359490999999,262.55130359999976,262.7515166999997,262.73491879999983,261.2072734999997,,,,,,,,,,,,,,,,,,,811,23,M,L,2026-02-23_12h00.45.111,VisualSearch_2526_3,,2025.2.4,2026-02-23 12h00.45.311534 +0100,
tilted.xlsx,The target is tilted.,117,0,0,0,1,0,0,0,0,0,0,0,0,0,0,0,0,0,1,117,space,4.043988099999751,None,1,1,0.6092714999999771,None,space,1.349202900000364,None,0,1,1,0,,,,,0,0,0,3,264.12142700000004,,,,,,,,,,,,,,,,,,,,,264.1176959999998,264.12142700000004,264.6180277999997,264.62338109999973,264.63982450000003,265.2521409000001,,,,,265.2523391,265.26743540000007,265.46757879999996,265.4516153999998,,262.7422542999998,262.7515166999997,262.7515166999997,264.10141209999983,space,1.349202900000364,None,1,1,0.6092714999999771,None,,,,,,,,811,23,M,L,2026-02-23_12h00.45.111,VisualSearch_2526_3,,2025.2.4,2026-02-23 12h00.45.311534 +0100,
tilted.xlsx,The target is tilted.,117,1,1,0,0,1,1,1,1,1,1,1,0,0,0,0,1,7,8,117,space,4.043988099999751,None,0,1,1.4462313999997605,None,space,1.349202900000364,None,0,1,1,0,,,,,0,1,1,5,265.46757879999996,,,,,,,,,,,,,,,,,,,,,265.4523242999999,265.46757879999996,265.95107129999997,265.95588959999986,265.9720405999997,267.4346267000001,,,,,267.43477919999987,267.4502788,267.65045329999975,267.6346773999999,265.9720405999997,,,,,,,,0,1,1.4462313999997605,None,,,,,,,,811,23,M,L,2026-02-23_12h00.45.111,VisualSearch_2526_3,,2025.2.4,2026-02-23 12h00.45.311534 +0100,
tilted.xlsx,The target is tilted.,117,2,2,0,0,1,1,1,1,1,1,1,1,1,1,1,1,11,12,117,space,4.043988099999751,None,0,1,3.034232499999689,None,space,1.349202900000364,None,0,1,1,0,,,,,0,2,2,4,267.65045329999975,,,,,,,,,,,,,,,,,,,,,267.63551129999996,267.65045329999975,268.13414269999976,268.1378952,268.15053639999996,271.20089770000004,,,,,271.2010934,271.2168050999999,271.4165049999997,271.4006267,268.15053639999996,,,,,,,,0,1,3.034232499999689,None,,,,,,,,811,23,M,L,2026-02-23_12h00.45.111,VisualSearch_2526_3,,2025.2.4,2026-02-23 12h00.45.311534 +0100,
tilted.xlsx,The target is tilted.,117,3,3,0,1,1,1,1,0,0,0,0,0,0,0,0,0,3,4,117,space,4.043988099999751,None,1,1,1.06403279999995,None,space,1.349202900000364,None,0,1,1,0,,,,,0,3,3,2,271.4165049999997,,,,,,,,,,,,,,,,,,,,,271.4014139000001,271.4165049999997,271.90060919999996,271.9053432999999,271.9234032999998,273.0010050000001,,,,,273.00120089999973,273.0166194999997,273.2165285000001,273.2005776000001,271.9234032999998,,,,,,,,1,1,1.06403279999995,None,,,,,,,,811,23,M,L,2026-02-23_12h00.45.111,VisualSearch_2526_3,,2025.2.4,2026-02-23 12h00.45.311534 +0100,
tilted.xlsx,The target is tilted.,117,4,4,0,1,1,1,1,1,1,1,1,1,1,1,1,0,11,12,117,space,4.043988099999751,None,1,1,2.176651999999649,None,space,1.349202900000364,None,0,1,1,0,,,,,0,4,4,0,273.2165285000001,,,,,,,,,,,,,,,,,,,,,273.2013855,273.2165285000001,273.70018389999996,273.70546749999994,273.71960839999974,275.90035369999987,,,,,275.90058169999975,275.9160503999997,276.11603130000003,276.0995657999997,273.71960839999974,,,,,,,,1,1,2.176651999999649,None,,,,,,,,811,23,M,L,2026-02-23_12h00.45.111,VisualSearch_2526_3,,2025.2.4,2026-02-23 12h00.45.311534 +0100,
tilted.xlsx,The target is tilted.,117,5,5,0,0,1,1,1,0,0,0,0,0,0,0,0,1,3,4,117,space,4.043988099999751,None,0,1,0.9630449999999655,None,space,1.349202900000364,None,0,1,1,0,,,,,0,5,5,6,276.11603130000003,,,,,,,,,,,,,,,,,,,,,276.09991850000006,276.11603130000003,276.5998801999999,276.6046959999999,276.6201695999998,277.5995439999997,,,,,277.5996301,277.61568099999977,277.8159148,277.7996269,276.6201695999998,,,,,,,,0,1,0.9630449999999655,None,,,,,,,,811,23,M,L,2026-02-23_12h00.45.111,VisualSearch_2526_3,,2025.2.4,2026-02-23 12h00.45.311534 +0100,
tilted.xlsx,The target is tilted.,117,6,6,0,1,1,1,1,1,1,1,1,0,0,0,0,0,7,8,117,space,4.043988099999751,None,1,1,0.7261442000003626,None,space,1.349202900000364,None,0,1,1,0,,,,,0,6,6,1,277.8159148,,,,,,,,,,,,,,,,,,,,,277.8004241999997,277.8159148,278.2987697999997,278.30075450000004,278.3151505000001,279.0496568999997,,,,,279.0497961000001,279.0656143000001,279.2658126000001,279.24970570000005,278.3151505000001,,,,,,,,1,1,0.7261442000003626,None,,,,,,,,811,23,M,L,2026-02-23_12h00.45.111,VisualSearch_2526_3,,2025.2.4,2026-02-23 12h00.45.311534 +0100,
tilted.xlsx,The target is tilted.,117,7,7,0,0,0,0,0,0,0,0,0,0,0,0,0,1,1,1,117,space,4.043988099999751,None,0,1,0.8105843000003006,None,space,1.349202900000364,None,0,1,1,0,,,,,0,7,7,7,279.2658126000001,,,,,,,,,,,,,,,,,,,,,279.2505057999997,279.2658126000001,279.7490491999997,279.7538663999999,279.76960629999985,280.58336770000005,,,,,280.5835993999999,280.59875809999994,280.79839919999995,280.7823085,279.76960629999985,,,,,,,,0,1,0.8105843000003006,None,,,,,,,,811,23,M,L,2026-02-23_12h00.45.111,VisualSearch_2526_3,,2025.2.4,2026-02-23 12h00.45.311534 +0100,
tilted.xlsx,The target is tilted.,117,8,0,1,0,0,0,0,0,0,0,0,0,0,0,0,1,1,1,117,space,4.043988099999751,None,0,1,0.4983585999998468,None,space,1.349202900000364,None,0,1,1,0,,,,,1,0,8,7,280.79839919999995,,,,,,,,,,,,,,,,,,,,,280.78306729999986,280.79839919999995,281.28277819999994,281.2882214000001,281.30691479999996,281.8159833999998,,,,,281.81611939999993,281.83182579999993,282.0320207,282.01583200000005,281.30691479999996,,,,,,,,0,1,0.4983585999998468,None,,,,,,,,811,23,M,L,2026-02-23_12h00.45.111,VisualSearch_2526_3,,2025.2.4,2026-02-23 12h00.45.311534 +0100,
tilted.xlsx,The target is tilted.,117,9,1,1,0,1,1,1,1,1,1,1,1,1,1,1,1,11,12,117,space,4.043988099999751,None,0,1,2.9921437000002697,None,space,1.349202900000364,None,0,1,1,0,,,,,1,1,9,4,282.0320207,,,,,,,,,,,,,,,,,,,,,282.0166592999999,282.0320207,282.5158806999998,282.52063610000005,282.53723839999975,285.5319480999997,,,,,285.5321159,285.5478350999997,285.74791559999994,285.73215029999983,282.53723839999975,,,,,,,,0,1,2.9921437000002697,None,,,,,,,,811,23,M,L,2026-02-23_12h00.45.111,VisualSearch_2526_3,,2025.2.4,2026-02-23 12h00.45.311534 +0100,
tilted.xlsx,The target is tilted.,117,10,2,1,1,1,1,1,1,1,1,1,0,0,0,0,0,7,8,117,space,4.043988099999751,None,1,1,0.6497710999997253,None,space,1.349202900000364,None,0,1,1,0,,,,,1,2,10,1,285.74791559999994,,,,,,,,,,,,,,,,,,,,,285.7329857999998,285.74791559999994,286.2319091999998,286.23679029999994,286.25244079999993,286.9157087999997,,,,,286.91590640000004,286.93120869999984,287.1311920999997,287.11473799999976,286.25244079999993,,,,,,,,1,1,0.6497710999997253,None,,,,,,,,811,23,M,L,2026-02-23_12h00.45.111,VisualSearch_2526_3,,2025.2.4,2026-02-23 12h00.45.311534 +0100,
tilted.xlsx,The target is tilted.,117,11,3,1,0,1,1,1,1,1,1,1,0,0,0,0,1,7,8,117,space,4.043988099999751,None,0,1,1.9352152999999817,None,space,1.349202900000364,None,0,1,1,0,,,,,1,3,11,5,287.1311920999997,,,,,,,,,,,,,,,,,,,,,287.1152483999999,287.1311920999997,287.6151205000001,287.6200251999999,287.6326329999997,289.5817923999998,,,,,289.5819655999999,289.59740699999975,289.79741209999975,289.78126139999995,287.6326329999997,,,,,,,,0,1,1.9352152999999817,None,,,,,,,,811,23,M,L,2026-02-23_12h00.45.111,VisualSearch_2526_3,,2025.2.4,2026-02-23 12h00.45.311534 +0100,
tilted.xlsx,The target is tilted.,117,12,4,1,1,0,0,0,0,0,0,0,0,0,0,0,0,0,1,117,space,4.043988099999751,None,0,0,0.5949123999998847,None,space,1.349202900000364,None,0,1,1,0,,,,,1,4,12,3,289.79741209999975,,,,,,,,,,,,,,,,,,,,,289.7821061999998,289.79741209999975,290.2814522999997,290.2868115000001,290.30275649999976,290.9149988999998,,,,,290.91519359999984,290.93034020000005,291.1307127,291.1147493999997,290.30275649999976,,,,,,,,0,0,0.5949123999998847,None,,,,,,,,811,23,M,L,2026-02-23_12h00.45.111,VisualSearch_2526_3,,2025.2.4,2026-02-23 12h00.45.311534 +0100,
tilted.xlsx,The target is tilted.,117,13,5,1,0,1,1,1,0,0,0,0,0,0,0,0,1,3,4,117,space,4.043988099999751,None,0,1,0.9662013000001934,None,space,1.349202900000364,None,0,1,1,0,,,,,1,5,13,6,291.1307127,,,,,,,,,,,,,,,,,,,,,291.1155543,291.1307127,291.6146711000001,291.61991119999993,291.6340962999998,292.61488759999975,,,,,292.61508090000007,292.63039019999997,292.830387,292.8142522999997,291.6340962999998,,,,,,,,0,1,0.9662013000001934,None,,,,,,,,811,23,M,L,2026-02-23_12h00.45.111,VisualSearch_2526_3,,2025.2.4,2026-02-23 12h00.45.311534 +0100,
tilted.xlsx,The target is tilted.,117,14,6,1,1,1,1,1,0,0,0,0,0,0,0,0,0,3,4,117,space,4.043988099999751,None,0,0,0.7406879000000117,None,space,1.349202900000364,None,0,1,1,0,,,,,1,6,14,2,292.830387,,,,,,,,,,,,,,,,,,,,,292.8150367999997,292.830387,293.31403309999996,293.31885239999974,293.3339043000001,294.0807295999998,,,,,294.0809271999997,294.0964976999999,294.2968397999998,294.2805550999997,293.3339043000001,,,,,,,,0,0,0.7406879000000117,None,,,,,,,,811,23,M,L,2026-02-23_12h00.45.111,VisualSearch_2526_3,,2025.2.4,2026-02-23 12h00.45.311534 +0100,
tilted.xlsx,The target is tilted.,117,15,7,1,1,1,1,1,1,1,1,1,1,1,1,1,0,11,12,117,space,4.043988099999751,None,0,0,3.087202199999865,None,space,1.349202900000364,None,0,1,1,0,,,,,1,7,15,0,294.2968397999998,,,,,,,,,,,,,,,,,,,,,294.28129809999973,294.2968397999998,294.78059619999976,294.7857015999998,294.7994229000001,297.8968547999998,,,,,297.8969965000001,297.9128378999999,298.1130331999998,298.096462,294.7994229000001,,,,,,,,0,0,3.087202199999865,None,,,,,,,,811,23,M,L,2026-02-23_12h00.45.111,VisualSearch_2526_3,,2025.2.4,2026-02-23 12h00.45.311534 +0100,
tilted.xlsx,The target is tilted.,117,16,0,2,0,1,1,1,1,1,1,1,0,0,0,0,1,7,8,117,space,4.043988099999751,None,0,1,1.879914799999824,None,space,1.349202900000364,None,0,1,1,0,,,,,2,0,16,5,298.1130331999998,,,,,,,,,,,,,,,,,,,,,298.0973134999999,298.1130331999998,298.5964936999999,298.6012802,298.6188750000001,300.51339039999993,,,,,300.5135888,300.5289035999999,300.7293408999999,300.7133310999998,298.6188750000001,,,,,,,,0,1,1.879914799999824,None,,,,,,,,811,23,M,L,2026-02-23_12h00.45.111,VisualSearch_2526_3,,2025.2.4,2026-02-23 12h00.45.311534 +0100,
tilted.xlsx,The target is tilted.,117,17,1,2,1,1,1,1,1,1,1,1,0,0,0,0,0,7,8,117,space,4.043988099999751,None,0,0,2.193271300000106,None,space,1.349202900000364,None,0,1,1,0,,,,,2,1,17,1,300.7293408999999,,,,,,,,,,,,,,,,,,,,,300.7141380999997,300.7293408999999,301.2128434000001,301.2166785999998,301.2326371999998,303.4297210999998,,,,,303.4299182,303.4453226999999,303.6451380999997,303.6294290999999,301.2326371999998,,,,,,,,0,0,2.193271300000106,None,,,,,,,,811,23,M,L,2026-02-23_12h00.45.111,VisualSearch_2526_3,,2025.2.4,2026-02-23 12h00.45.311534 +0100,
tilted.xlsx,The target is tilted.,117,18,2,2,1,0,0,0,0,0,0,0,0,0,0,0,0,0,1,117,space,4.043988099999751,None,1,1,0.6944132999997237,None,space,1.349202900000364,None,0,1,1,0,,,,,2,2,18,3,303.6451380999997,,,,,,,,,,,,,,,,,,,,,303.6303254999998,303.6451380999997,304.1293052000001,304.1340528999999,304.14898809999977,304.8466505000001,,,,,304.84686669999974,304.8617138999998,305.06199149999975,305.0460683000001,304.14898809999977,,,,,,,,1,1,0.6944132999997237,None,,,,,,,,811,23,M,L,2026-02-23_12h00.45.111,VisualSearch_2526_3,,2025.2.4,2026-02-23 12h00.45.311534 +0100,
tilted.xlsx,The target is tilted.,117,19,3,2,0,1,1,1,0,0,0,0,0,0,0,0,1,3,4,117,space,4.043988099999751,None,0,1,0.9281046999999489,None,space,1.349202900000364,None,0,1,1,0,,,,,2,3,19,6,305.06199149999975,,,,,,,,,,,,,,,,,,,,,305.0469143,305.06199149999975,305.5458725999997,305.5507517000001,305.56587679999984,306.4962290999997,,,,,306.4964372999998,306.5114902999999,306.7117754000001,306.6956360999998,305.56587679999984,,,,,,,,0,1,0.9281046999999489,None,,,,,,,,811,23,M,L,2026-02-23_12h00.45.111,VisualSearch_2526_3,,2025.2.4,2026-02-23 12h00.45.311534 +0100,
tilted.xlsx,The target is tilted.,117,20,4,2,0,0,0,0,0,0,0,0,0,0,0,0,1,1,1,117,space,4.043988099999751,None,0,1,0.46951990000025035,None,space,1.349202900000364,None,0,1,1,0,,,,,2,4,20,7,306.7117754000001,,,,,,,,,,,,,,,,,,,,,306.6963734000001,306.7117754000001,307.19565710000006,307.2010015000001,307.2159157000001,307.69585449999977,,,,,307.69603449999977,307.71150910000006,307.9115420999997,307.8950540000001,307.2159157000001,,,,,,,,0,1,0.46951990000025035,None,,,,,,,,811,23,M,L,2026-02-23_12h00.45.111,VisualSearch_2526_3,,2025.2.4,2026-02-23 12h00.45.311534 +0100,
tilted.xlsx,The target is tilted.,117,21,5,2,1,1,1,1,0,0,0,0,0,0,0,0,0,3,4,117,space,4.043988099999751,None,1,1,0.973185199999989,None,space,1.349202900000364,None,0,1,1,0,,,,,2,5,21,2,307.9115420999997,,,,,,,,,,,,,,,,,,,,,307.895802,307.9115420999997,308.3956033999998,308.4009612,308.4167345999999,309.39548479999985,,,,,309.39568229999986,309.41130189999967,309.6113710999998,309.5953764000001,308.4167345999999,,,,,,,,1,1,0.973185199999989,None,,,,,,,,811,23,M,L,2026-02-23_12h00.45.111,VisualSearch_2526_3,,2025.2.4,2026-02-23 12h00.45.311534 +0100,
tilted.xlsx,The target is tilted.,117,22,6,2,1,1,1,1,1,1,1,1,1,1,1,1,0,11,12,117,space,4.043988099999751,None,1,1,2.4614087999998446,None,space,1.349202900000364,None,0,1,1,0,,,,,2,6,22,0,309.6113710999998,,,,,,,,,,,,,,,,,,,,,309.5962353,309.6113710999998,310.0947750999999,310.099612,310.11354389999997,312.57798679999996,,,,,312.57817179999984,312.5941322999997,312.79423199999974,312.7781722999998,310.11354389999997,,,,,,,,1,1,2.4614087999998446,None,,,,,,,,811,23,M,L,2026-02-23_12h00.45.111,VisualSearch_2526_3,,2025.2.4,2026-02-23 12h00.45.311534 +0100,
tilted.xlsx,The target is tilted.,117,23,7,2,0,1,1,1,1,1,1,1,1,1,1,1,1,11,12,117,space,4.043988099999751,None,0,1,4.02621739999995,None,space,1.349202900000364,None,0,1,1,0,,,,,2,7,23,4,312.79423199999974,,,,,,,,,,,,,,,,,,,,,312.77901569999995,312.79423199999974,313.2780038000001,313.2826606999997,313.2939945999997,317.3278537999995,,,,,317.3280136000003,317.34349870000005,317.5432748000003,317.52731719999974,313.2939945999997,,,,,,,,0,1,4.02621739999995,None,,,,,,,,811,23,M,L,2026-02-23_12h00.45.111,VisualSearch_2526_3,,2025.2.4,2026-02-23 12h00.45.311534 +0100,
tilted.xlsx,The target is tilted.,117,24,0,3,0,1,1,1,0,0,0,0,0,0,0,0,1,3,4,117,space,4.043988099999751,None,0,1,0.8494819000006828,None,space,1.349202900000364,None,0,1,1,0,,,,,3,0,24,6,317.5432748000003,,,,,,,,,,,,,,,,,,,,,317.52804599999945,317.5432748000003,318.0274403000003,318.03216749999956,318.0475841999996,318.9105676999998,,,,,318.91070320000017,318.92660439999963,319.12654479999946,319.1100316000002,318.0475841999996,,,,,,,,0,1,0.8494819000006828,None,,,,,,,,811,23,M,L,2026-02-23_12h00.45.111,VisualSearch_2526_3,,2025.2.4,2026-02-23 12h00.45.311534 +0100,
tilted.xlsx,The target is tilted.,117,25,1,3,1,1,1,1,0,0,0,0,0,0,0,0,0,3,4,117,space,4.043988099999751,None,1,1,0.6545391999998174,None,space,1.349202900000364,None,0,1,1,0,,,,,3,1,25,2,319.12654479999946,,,,,,,,,,,,,,,,,,,,,319.1103820999997,319.12654479999946,319.61015450000014,319.61318500000016,319.626088,320.2940325999998,,,,,320.29419400000006,320.3097079999998,320.50987949999944,320.4939019000003,319.626088,,,,,,,,1,1,0.6545391999998174,None,,,,,,,,811,23,M,L,2026-02-23_12h00.45.111,VisualSearch_2526_3,,2025.2.4,2026-02-23 12h00.45.311534 +0100,
tilted.xlsx,The target is tilted.,117,26,2,3,1,1,1,1,1,1,1,1,0,0,0,0,0,7,8,117,space,4.043988099999751,None,1,1,1.1321395000004486,None,space,1.349202900000364,None,0,1,1,0,,,,,3,2,26,1,320.50987949999944,,,,,,,,,,,,,,,,,,,,,320.49487769999996,320.50987949999944,320.9934138999997,320.99835489999987,321.01358660000005,322.1601061000001,,,,,322.16023570000016,322.1761485999996,322.3760536,322.3596828999998,321.01358660000005,,,,,,,,1,1,1.1321395000004486,None,,,,,,,,811,23,M,L,2026-02-23_12h00.45.111,VisualSearch_2526_3,,2025.2.4,2026-02-23 12h00.45.311534 +0100,
tilted.xlsx,The target is tilted.,117,27,3,3,0,0,0,0,0,0,0,0,0,0,0,0,1,1,1,117,space,4.043988099999751,None,0,1,0.5390914999998131,None,space,1.349202900000364,None,0,1,1,0,,,,,3,3,27,7,322.3760536,,,,,,,,,,,,,,,,,,,,,322.3604618999998,322.3760536,322.8598474999999,322.86468890000015,322.8802402000001,323.4271730999999,,,,,323.4273680999995,323.4426821999996,323.64273499999945,323.6266962999998,322.8802402000001,,,,,,,,0,1,0.5390914999998131,None,,,,,,,,811,23,M,L,2026-02-23_12h00.45.111,VisualSearch_2526_3,,2025.2.4,2026-02-23 12h00.45.311534 +0100,
tilted.xlsx,The target is tilted.,117,28,4,3,0,1,1,1,1,1,1,1,0,0,0,0,1,7,8,117,space,4.043988099999751,None,0,1,1.59216540000034,None,space,1.349202900000364,None,0,1,1,0,,,,,3,4,28,5,323.64273499999945,,,,,,,,,,,,,,,,,,,,,323.6275458,323.64273499999945,324.1258925000002,324.1290105999997,324.1425072000002,325.7435491999995,,,,,325.7437448999999,325.7589885999996,325.9585889,325.94253370000024,324.1425072000002,,,,,,,,0,1,1.59216540000034,None,,,,,,,,811,23,M,L,2026-02-23_12h00.45.111,VisualSearch_2526_3,,2025.2.4,2026-02-23 12h00.45.311534 +0100,
tilted.xlsx,The target is tilted.,117,29,5,3,1,0,0,0,0,0,0,0,0,0,0,0,0,0,1,117,space,4.043988099999751,None,1,1,0.7232432999999219,None,space,1.349202900000364,None,0,1,1,0,,,,,3,5,29,3,325.9585889,,,,,,,,,,,,,,,,,,,,,325.9432985000003,325.9585889,326.44274810000024,326.4480698999996,326.4632303999997,327.1932750999995,,,,,327.19347240000025,327.20872729999974,327.40841100000034,327.39287609999974,326.4632303999997,,,,,,,,1,1,0.7232432999999219,None,,,,,,,,811,23,M,L,2026-02-23_12h00.45.111,VisualSearch_2526_3,,2025.2.4,2026-02-23 12h00.45.311534 +0100,
tilted.xlsx,The target is tilted.,117,30,6,3,0,1,1,1,1,1,1,1,1,1,1,1,1,11,12,117,space,4.043988099999751,None,0,1,2.198235300000306,None,space,1.349202900000364,None,0,1,1,0,,,,,3,6,30,4,327.40841100000034,,,,,,,,,,,,,,,,,,,,,327.3937063000003,327.40841100000034,327.89192920000005,327.89412710000033,327.9085157999998,330.1087606000001,,,,,330.1088367000002,330.12467599999945,330.3250356999997,330.3085566999998,327.9085157999998,,,,,,,,0,1,2.198235300000306,None,,,,,,,,811,23,M,L,2026-02-23_12h00.45.111,VisualSearch_2526_3,,2025.2.4,2026-02-23 12h00.45.311534 +0100,
tilted.xlsx,The target is tilted.,117,31,7,3,1,1,1,1,1,1,1,1,1,1,1,1,0,11,12,117,space,4.043988099999751,None,0,0,3.5792432000007466,None,space,1.349202900000364,None,0,1,1,0,,,,,3,7,31,0,330.3250356999997,,,,,,,,,,,,,,,,,,,,,330.30931919999966,330.3250356999997,330.8086707000002,330.8135467000002,330.8298053999997,334.4254983999999,,,,,334.42569529999946,334.4410648000003,334.6410429999996,334.6249925000002,330.8298053999997,,,,,,,,0,0,3.5792432000007466,None,,,,,,,,811,23,M,L,2026-02-23_12h00.45.111,VisualSearch_2526_3,,2025.2.4,2026-02-23 12h00.45.311534 +0100,
tilted.xlsx,The target is tilted.,117,32,0,4,1,1,1,1,0,0,0,0,0,0,0,0,0,3,4,117,space,4.043988099999751,None,1,1,1.258630099999209,None,space,1.349202900000364,None,0,1,1,0,,,,,4,0,32,2,334.6410429999996,,,,,,,,,,,,,,,,,,,,,334.6257771999999,334.6410429999996,335.1242827999995,335.1270434999997,335.1408312000003,336.40926020000006,,,,,336.4094699999996,336.4238164999997,336.6237388999998,336.6081600999996,335.1408312000003,,,,,,,,1,1,1.258630099999209,None,,,,,,,,811,23,M,L,2026-02-23_12h00.45.111,VisualSearch_2526_3,,2025.2.4,2026-02-23 12h00.45.311534 +0100,
tilted.xlsx,The target is tilted.,117,33,1,4,0,1,1,1,1,1,1,1,0,0,0,0,1,7,8,117,space,4.043988099999751,None,0,1,1.5167880999997578,None,space,1.349202900000364,None,0,1,1,0,,,,,4,1,33,5,336.6237388999998,,,,,,,,,,,,,,,,,,,,,336.60948970000027,336.6237388999998,337.10735980000027,337.110052,337.12390499999947,338.65818299999955,,,,,338.65836149999996,338.67379040000014,338.87364350000007,338.85785320000014,337.12390499999947,,,,,,,,0,1,1.5167880999997578,None,,,,,,,,811,23,M,L,2026-02-23_12h00.45.111,VisualSearch_2526_3,,2025.2.4,2026-02-23 12h00.45.311534 +0100,
tilted.xlsx,The target is tilted.,117,34,2,4,0,0,0,0,0,0,0,0,0,0,0,0,1,1,1,117,space,4.043988099999751,None,0,1,0.5146043999993708,None,space,1.349202900000364,None,0,1,1,0,,,,,4,2,34,7,338.87364350000007,,,,,,,,,,,,,,,,,,,,,338.8586643999997,338.87364350000007,339.3574944000002,339.3623987000001,339.3775747999998,339.9073189999999,,,,,339.9074222999998,339.92313339999964,340.12378269999954,340.10767250000026,339.3775747999998,,,,,,,,0,1,0.5146043999993708,None,,,,,,,,811,23,M,L,2026-02-23_12h00.45.111,VisualSearch_2526_3,,2025.2.4,2026-02-23 12h00.45.311534 +0100,
