file_name,block_instructions,target_example,thisN,thisTrialN,thisRepN,target_presence,opacity_1,opacity_2,opacity_3,opacity_4,opacity_5,opacity_6,opacity_7,opacity_8,opacity_9,opacity_10,opacity_11,opacity_12,n_distract,n_items,target_ori,key_resp_4.keys,key_resp_4.rt,key_resp_4.duration,key_resp.keys,key_resp.corr,key_resp.rt,key_resp.duration,key_resp_5.keys,key_resp_5.rt,key_resp_5.duration,blocks.thisRepN,blocks.thisTrialN,blocks.thisN,blocks.thisIndex,practice_trials.thisRepN,practice_trials.thisTrialN,practice_trials.thisN,practice_trials.thisIndex,trials.thisRepN,trials.thisTrialN,trials.thisN,trials.thisIndex,thisRow.t,notes,Welcome.started,WelcomeText.started,key_resp_2.started,Welcome.stopped,key_resp_2.keys,key_resp_2.rt,key_resp_2.duration,InformedConsent.started,text_4.started,InformedConsent.stopped,key_resp_6.keys,key_resp_6.rt,key_resp_6.duration,key_resp_4.started,example_target.started,text_3.started,blocks.key_resp_4.keys,blocks.key_resp_4.rt,blocks.key_resp_4.duration,FixCross.started,fixCross.started,FixCross.stopped,Stimulus.started,key_resp.started,Stimulus.stopped,practice_trials.key_resp.keys,practice_trials.key_resp.corr,practice_trials.key_resp.rt,practice_trials.key_resp.duration,BlankScreen.started,text.started,text.stopped,BlankScreen.stopped,fixCross.stopped,ExperimentStart.started,text_2.started,key_resp_5.started,ExperimentStart.stopped,blocks.key_resp_5.keys,blocks.key_resp_5.rt,blocks.key_resp_5.duration,trials.key_resp.keys,trials.key_resp.corr,trials.key_resp.rt,trials.key_resp.duration,Thanks.started,ThankYou.started,key_resp_3.started,Thanks.stopped,key_resp_3.keys,key_resp_3.rt,key_resp_3.duration,participant,leeftijd,gender,links/rechtshandig,date,expName,expVersion,psychopyVersion,expStart,
,,,,,,,,,,,,,,,,,,,,,,,,,,,,,,,,,,,,,,,,,,,,,,0.01176949999990029,0.04051219999928435,0.04051219999928435,26.334855599999173,space,26.269694900000104,None,,,,,,,,,,,,,,,,,,,,,,,,,,,,,,,,,,,,,,,,,,,,,,812,23,V,R,2026-02-23_12h14.17.427,VisualSearch_2526_3,,2025.2.4,2026-02-23 12h14.17.613755 +0100,
,,,,,,,,,,,,,,,,,,,,,,,,,,,,,,,,,,,,,,,,,,,,,,,,,,,,,26.334915499999624,26.34039109999958,30.572508399999606,y,4.227243399999679,None,,,,,,,,,,,,,,,,,,,,,,,,,,,,,,,,,,,,,,,,812,23,V,R,2026-02-23_12h14.17.427,VisualSearch_2526_3,,2025.2.4,2026-02-23 12h14.17.613755 +0100,
tilted.xlsx,The target is tilted.,117,0,0,0,0,1,1,1,1,1,1,1,0,0,0,0,1,7,8,117,space,4.5105067000004055,None,1,0,1.9912143000001379,None,,,,0,0,0,0,0,0,0,5,,,,,35.1662680999998,,,,,,,,,,,,,,,30.617717399999492,30.617717399999492,30.617717399999492,space,4.5105067000004055,None,35.16075319999982,35.1662680999998,35.653351799999655,35.656164299999546,35.66988459999993,37.67091309999978,1,0,1.9912143000001379,None,37.67111339999974,37.68646399999943,37.886282599999504,37.8701760999993,,,,,,,,,,,,,,,,,,,,812,23,V,R,2026-02-23_12h14.17.427,VisualSearch_2526_3,,2025.2.4,2026-02-23 12h14.17.613755 +0100,
tilted.xlsx,The target is tilted.,117,1,1,0,0,1,1,1,1,1,1,1,1,1,1,1,1,11,12,117,space,4.5105067000004055,None,1,0,0.9450206000001344,None,,,,0,0,0,0,0,1,1,4,,,,,37.886282599999504,,,,,,,,,,,,,,,,,,,,,37.871008499999334,37.886282599999504,38.36968589999924,38.37498770000002,38.39193039999918,39.354080899999644,1,0,0.9450206000001344,None,39.35430109999925,39.36912409999968,39.56940439999926,39.55321920000006,38.39193039999918,,,,,,,,,,,,,,,,,,,812,23,V,R,2026-02-23_12h14.17.427,VisualSearch_2526_3,,2025.2.4,2026-02-23 12h14.17.613755 +0100,
tilted.xlsx,The target is tilted.,117,2,2,0,0,1,1,1,0,0,0,0,0,0,0,0,1,3,4,117,space,4.5105067000004055,None,0,1,0.7384382000000187,None,,,,0,0,0,0,0,2,2,6,,,,,39.56940439999926,,,,,,,,,,,,,,,,,,,,,39.55398369999966,39.56940439999926,40.05332129999988,40.05860140000004,40.07423049999943,40.819705999999314,0,1,0.7384382000000187,None,40.81981089999954,40.835166500000014,41.035990699999275,41.01960969999982,40.07423049999943,,,,,,,,,,,,,,,,,,,812,23,V,R,2026-02-23_12h14.17.427,VisualSearch_2526_3,,2025.2.4,2026-02-23 12h14.17.613755 +0100,
tilted.xlsx,The target is tilted.,117,3,3,0,1,1,1,1,1,1,1,1,0,0,0,0,0,7,8,117,space,4.5105067000004055,None,0,0,1.1083331999998336,None,,,,0,0,0,0,0,3,3,1,,,,,41.035990699999275,,,,,,,,,,,,,,,,,,,,,41.020263800000066,41.035990699999275,41.519761099999414,41.52445979999993,41.54084299999977,42.65337349999936,0,0,1.1083331999998336,None,42.65356879999945,42.66852239999935,42.86908760000006,42.852972699999555,41.54084299999977,,,,,,,,,,,,,,,,,,,812,23,V,R,2026-02-23_12h14.17.427,VisualSearch_2526_3,,2025.2.4,2026-02-23 12h14.17.613755 +0100,
tilted.xlsx,The target is tilted.,117,4,4,0,1,0,0,0,0,0,0,0,0,0,0,0,0,0,1,117,space,4.5105067000004055,None,1,1,0.5776010999998107,None,,,,0,0,0,0,0,4,4,3,,,,,42.86908760000006,,,,,,,,,,,,,,,,,,,,,42.85361929999999,42.86908760000006,43.35301399999935,43.35828179999953,43.3751984999999,43.96887129999959,1,1,0.5776010999998107,None,43.968995399999585,43.9853592999998,44.1855216999993,44.16923499999939,43.3751984999999,,,,,,,,,,,,,,,,,,,812,23,V,R,2026-02-23_12h14.17.427,VisualSearch_2526_3,,2025.2.4,2026-02-23 12h14.17.613755 +0100,
tilted.xlsx,The target is tilted.,117,5,5,0,1,1,1,1,0,0,0,0,0,0,0,0,0,3,4,117,space,4.5105067000004055,None,0,0,0.763625000000502,None,,,,0,0,0,0,0,5,5,2,,,,,44.1855216999993,,,,,,,,,,,,,,,,,,,,,44.169892199999595,44.1855216999993,44.66911129999971,44.67379159999928,44.69182959999944,45.46912539999994,0,0,0.763625000000502,None,45.469345699999394,45.484675899999274,45.684929699999884,45.66934349999974,,,,,,,,,,,,,,,,,,,,812,23,V,R,2026-02-23_12h14.17.427,VisualSearch_2526_3,,2025.2.4,2026-02-23 12h14.17.613755 +0100,
tilted.xlsx,The target is tilted.,117,6,6,0,1,1,1,1,1,1,1,1,1,1,1,1,0,11,12,117,space,4.5105067000004055,None,1,1,1.045029599999907,None,,,,0,0,0,0,0,6,6,0,,,,,45.684929699999884,,,,,,,,,,,,,,,,,,,,,45.670085499999914,45.684929699999884,46.16909929999929,46.17380629999934,46.19011119999959,47.251466799999434,1,1,1.045029599999907,None,47.25155349999932,47.26814689999992,,47.45204039999953,46.19011119999959,,,,,,,,,,,,,,,,,,,812,23,V,R,2026-02-23_12h14.17.427,VisualSearch_2526_3,,2025.2.4,2026-02-23 12h14.17.613755 +0100,
tilted.xlsx,The target is tilted.,117,7,7,0,0,0,0,0,0,0,0,0,0,0,0,0,1,1,1,117,space,4.5105067000004055,None,0,1,0.5952520000000732,None,,,,0,0,0,0,0,7,7,7,,,,,47.46842029999971,,,,,,,,,,,,,,,,,,,,,47.45272979999936,47.46842029999971,47.95209259999956,47.957109999999375,47.974127899999985,48.58525849999933,0,1,0.5952520000000732,None,48.585458099999414,48.600927199999205,48.801508399999875,48.785054999999375,,,,,,,,,,,,,,,,,,,,812,23,V,R,2026-02-23_12h14.17.427,VisualSearch_2526_3,,2025.2.4,2026-02-23 12h14.17.613755 +0100,
tilted.xlsx,The target is tilted.,117,0,0,0,1,1,1,1,1,1,1,1,1,1,1,1,0,11,12,117,space,4.5105067000004055,None,1,1,2.236777500000244,None,space,2.0855303999996977,None,0,0,0,0,,,,,0,0,0,0,50.933953499999916,,,,,,,,,,,,,,,,,,,,,50.929858099999365,50.933953499999916,51.41816829999971,51.422962099999495,51.441438999999264,53.684710199999245,,,,,53.68490129999918,53.700275999999576,53.900591099999474,53.88464399999975,,48.79261509999924,48.801508399999875,48.801508399999875,50.90148829999998,space,2.0855303999996977,None,1,1,2.236777500000244,None,,,,,,,,812,23,V,R,2026-02-23_12h14.17.427,VisualSearch_2526_3,,2025.2.4,2026-02-23 12h14.17.613755 +0100,
tilted.xlsx,The target is tilted.,117,1,1,0,0,0,0,0,0,0,0,0,0,0,0,0,1,1,1,117,space,4.5105067000004055,None,0,1,0.5405663000001368,None,space,2.0855303999996977,None,0,0,0,0,,,,,0,1,1,7,53.900591099999474,,,,,,,,,,,,,,,,,,,,,53.88548249999985,53.900591099999474,54.38428269999986,54.389005899999574,54.40604050000002,54.951649099999486,,,,,54.951849399999446,54.96672409999974,55.16730019999977,55.151208499999484,54.40604050000002,,,,,,,,0,1,0.5405663000001368,None,,,,,,,,812,23,V,R,2026-02-23_12h14.17.427,VisualSearch_2526_3,,2025.2.4,2026-02-23 12h14.17.613755 +0100,
tilted.xlsx,The target is tilted.,117,2,2,0,1,0,0,0,0,0,0,0,0,0,0,0,0,0,1,117,space,4.5105067000004055,None,0,0,0.4762027999995553,None,space,2.0855303999996977,None,0,0,0,0,,,,,0,2,2,3,55.16730019999977,,,,,,,,,,,,,,,,,,,,,55.1521101999997,55.16730019999977,55.65119989999948,55.65586079999957,55.6734708999993,56.151493800000026,,,,,56.15169739999965,56.16657009999926,56.3671977999993,56.351018499999554,55.6734708999993,,,,,,,,0,0,0.4762027999995553,None,,,,,,,,812,23,V,R,2026-02-23_12h14.17.427,VisualSearch_2526_3,,2025.2.4,2026-02-23 12h14.17.613755 +0100,
tilted.xlsx,The target is tilted.,117,3,3,0,1,1,1,1,1,1,1,1,0,0,0,0,0,7,8,117,space,4.5105067000004055,None,1,1,0.7330468999998629,None,space,2.0855303999996977,None,0,0,0,0,,,,,0,3,3,1,56.3671977999993,,,,,,,,,,,,,,,,,,,,,56.3517826999996,56.3671977999993,56.85059009999986,56.85534539999935,56.8669160999998,57.601179799999954,,,,,57.60136319999947,57.61644149999938,57.81687129999955,57.80050709999978,56.8669160999998,,,,,,,,1,1,0.7330468999998629,None,,,,,,,,812,23,V,R,2026-02-23_12h14.17.427,VisualSearch_2526_3,,2025.2.4,2026-02-23 12h14.17.613755 +0100,
tilted.xlsx,The target is tilted.,117,4,4,0,1,1,1,1,0,0,0,0,0,0,0,0,0,3,4,117,space,4.5105067000004055,None,1,1,0.8072832999996535,None,space,2.0855303999996977,None,0,0,0,0,,,,,0,4,4,2,57.81687129999955,,,,,,,,,,,,,,,,,,,,,57.80121919999965,57.81687129999955,58.30086819999997,58.3061461999996,58.32384269999966,59.13445809999939,,,,,59.13465719999931,59.149451499999486,59.35006489999978,59.333861199999774,58.32384269999966,,,,,,,,1,1,0.8072832999996535,None,,,,,,,,812,23,V,R,2026-02-23_12h14.17.427,VisualSearch_2526_3,,2025.2.4,2026-02-23 12h14.17.613755 +0100,
tilted.xlsx,The target is tilted.,117,5,5,0,0,1,1,1,0,0,0,0,0,0,0,0,1,3,4,117,space,4.5105067000004055,None,0,1,0.8713991000004171,None,space,2.0855303999996977,None,0,0,0,0,,,,,0,5,5,6,59.35006489999978,,,,,,,,,,,,,,,,,,,,,59.33465350000006,59.35006489999978,59.83350969999992,59.838131199999225,59.85488569999961,60.73410919999969,,,,,60.73431099999925,60.749243999999635,60.94989869999972,60.93382299999939,59.85488569999961,,,,,,,,0,1,0.8713991000004171,None,,,,,,,,812,23,V,R,2026-02-23_12h14.17.427,VisualSearch_2526_3,,2025.2.4,2026-02-23 12h14.17.613755 +0100,
tilted.xlsx,The target is tilted.,117,6,6,0,0,1,1,1,1,1,1,1,1,1,1,1,1,11,12,117,space,4.5105067000004055,None,0,1,3.508156799999597,None,space,2.0855303999996977,None,0,0,0,0,,,,,0,6,6,4,60.94989869999972,,,,,,,,,,,,,,,,,,,,,60.93463589999919,60.94989869999972,61.43379169999935,61.43886449999991,61.449616299999434,64.96684239999922,,,,,64.96702639999967,64.98194899999999,65.18228519999957,65.16628929999933,61.449616299999434,,,,,,,,0,1,3.508156799999597,None,,,,,,,,812,23,V,R,2026-02-23_12h14.17.427,VisualSearch_2526_3,,2025.2.4,2026-02-23 12h14.17.613755 +0100,
tilted.xlsx,The target is tilted.,117,7,7,0,0,1,1,1,1,1,1,1,0,0,0,0,1,7,8,117,space,4.5105067000004055,None,0,1,3.308979499999623,None,space,2.0855303999996977,None,0,0,0,0,,,,,0,7,7,5,65.18228519999957,,,,,,,,,,,,,,,,,,,,,65.16701469999953,65.18228519999957,65.66630589999932,65.67102459999933,65.68982809999943,69.01524029999928,,,,,69.01537269999972,69.03182679999918,,69.21556509999937,65.68982809999943,,,,,,,,0,1,3.308979499999623,None,,,,,,,,812,23,V,R,2026-02-23_12h14.17.427,VisualSearch_2526_3,,2025.2.4,2026-02-23 12h14.17.613755 +0100,
tilted.xlsx,The target is tilted.,117,8,0,1,1,1,1,1,1,1,1,1,1,1,1,1,0,11,12,117,space,4.5105067000004055,None,1,1,1.2379467999999179,None,space,2.0855303999996977,None,0,0,0,0,,,,,1,0,8,0,69.23188140000002,,,,,,,,,,,,,,,,,,,,,69.2163488999995,69.23188140000002,69.71549529999993,69.72013339999921,69.73622759999944,70.98283259999971,,,,,70.98303779999969,70.99778029999925,71.19794779999938,71.18212999999923,69.73622759999944,,,,,,,,1,1,1.2379467999999179,None,,,,,,,,812,23,V,R,2026-02-23_12h14.17.427,VisualSearch_2526_3,,2025.2.4,2026-02-23 12h14.17.613755 +0100,
tilted.xlsx,The target is tilted.,117,9,1,1,0,1,1,1,1,1,1,1,1,1,1,1,1,11,12,117,space,4.5105067000004055,None,1,0,2.1254115000001548,None,space,2.0855303999996977,None,0,0,0,0,,,,,1,1,9,4,71.19794779999938,,,,,,,,,,,,,,,,,,,,,71.18290230000002,71.19794779999938,71.68225449999954,71.68737349999992,71.70568060000005,73.83241169999928,,,,,73.8326135999996,73.84749489999922,74.0480306999998,74.03199229999973,71.70568060000005,,,,,,,,1,0,2.1254115000001548,None,,,,,,,,812,23,V,R,2026-02-23_12h14.17.427,VisualSearch_2526_3,,2025.2.4,2026-02-23 12h14.17.613755 +0100,
tilted.xlsx,The target is tilted.,117,10,2,1,0,1,1,1,1,1,1,1,0,0,0,0,1,7,8,117,space,4.5105067000004055,None,0,1,2.5635528000002523,None,space,2.0855303999996977,None,0,0,0,0,,,,,1,2,10,5,74.0480306999998,,,,,,,,,,,,,,,,,,,,,74.03287399999954,74.0480306999998,74.53177349999987,74.53640309999992,74.55341059999955,77.13149339999927,,,,,77.1316769999994,77.14695819999997,77.34743720000006,77.331279,74.55341059999955,,,,,,,,0,1,2.5635528000002523,None,,,,,,,,812,23,V,R,2026-02-23_12h14.17.427,VisualSearch_2526_3,,2025.2.4,2026-02-23 12h14.17.613755 +0100,
tilted.xlsx,The target is tilted.,117,11,3,1,1,0,0,0,0,0,0,0,0,0,0,0,0,0,1,117,space,4.5105067000004055,None,1,1,0.7917305000000852,None,space,2.0855303999996977,None,0,0,0,0,,,,,1,3,11,3,77.34743720000006,,,,,,,,,,,,,,,,,,,,,77.33211829999982,77.34743720000006,77.83134539999992,77.83620319999955,77.85395319999952,78.64769269999942,,,,,78.64785669999947,78.6632811999998,78.86362869999994,78.8478224999999,77.85395319999952,,,,,,,,1,1,0.7917305000000852,None,,,,,,,,812,23,V,R,2026-02-23_12h14.17.427,VisualSearch_2526_3,,2025.2.4,2026-02-23 12h14.17.613755 +0100,
tilted.xlsx,The target is tilted.,117,12,4,1,1,1,1,1,0,0,0,0,0,0,0,0,0,3,4,117,space,4.5105067000004055,None,1,1,0.5972778000004837,None,space,2.0855303999996977,None,0,0,0,0,,,,,1,4,12,2,78.86362869999994,,,,,,,,,,,,,,,,,,,,,78.8485584,78.86362869999994,79.34787089999918,79.35327529999995,79.36874509999961,79.98087289999967,,,,,79.98111100000006,79.9964487999996,80.19669959999919,80.18076679999922,79.36874509999961,,,,,,,,1,1,0.5972778000004837,None,,,,,,,,812,23,V,R,2026-02-23_12h14.17.427,VisualSearch_2526_3,,2025.2.4,2026-02-23 12h14.17.613755 +0100,
tilted.xlsx,The target is tilted.,117,13,5,1,0,0,0,0,0,0,0,0,0,0,0,0,1,1,1,117,space,4.5105067000004055,None,0,1,0.5398875999999291,None,space,2.0855303999996977,None,0,0,0,0,,,,,1,5,13,7,80.19669959999919,,,,,,,,,,,,,,,,,,,,,80.18149539999922,80.19669959999919,80.68090499999926,80.6855913999998,80.6969212999993,81.24806360000002,,,,,81.24826689999918,81.26310909999938,81.46336549999978,81.4473169999992,80.6969212999993,,,,,,,,0,1,0.5398875999999291,None,,,,,,,,812,23,V,R,2026-02-23_12h14.17.427,VisualSearch_2526_3,,2025.2.4,2026-02-23 12h14.17.613755 +0100,
tilted.xlsx,The target is tilted.,117,14,6,1,1,1,1,1,1,1,1,1,0,0,0,0,0,7,8,117,space,4.5105067000004055,None,1,1,1.3247247999997853,None,space,2.0855303999996977,None,0,0,0,0,,,,,1,6,14,1,81.46336549999978,,,,,,,,,,,,,,,,,,,,,81.4481294999996,81.46336549999978,81.94737689999965,81.95198459999938,81.96813759999986,83.29741179999928,,,,,83.2976181999993,83.31265369999983,83.51315459999933,83.49689939999917,81.96813759999986,,,,,,,,1,1,1.3247247999997853,None,,,,,,,,812,23,V,R,2026-02-23_12h14.17.427,VisualSearch_2526_3,,2025.2.4,2026-02-23 12h14.17.613755 +0100,
tilted.xlsx,The target is tilted.,117,15,7,1,0,1,1,1,0,0,0,0,0,0,0,0,1,3,4,117,space,4.5105067000004055,None,0,1,1.0398464999998396,None,space,2.0855303999996977,None,0,0,0,0,,,,,1,7,15,6,83.51315459999933,,,,,,,,,,,,,,,,,,,,,83.49761969999963,83.51315459999933,83.9969973999996,84.00169740000001,84.01740239999981,85.06409859999985,,,,,85.06430079999973,85.07903819999956,85.27973469999961,85.26357669999925,84.01740239999981,,,,,,,,0,1,1.0398464999998396,None,,,,,,,,812,23,V,R,2026-02-23_12h14.17.427,VisualSearch_2526_3,,2025.2.4,2026-02-23 12h14.17.613755 +0100,
tilted.xlsx,The target is tilted.,117,16,0,2,0,1,1,1,1,1,1,1,1,1,1,1,1,11,12,117,space,4.5105067000004055,None,0,1,2.4831382999991547,None,space,2.0855303999996977,None,0,0,0,0,,,,,2,0,16,4,85.27973469999961,,,,,,,,,,,,,,,,,,,,,85.26430449999953,85.27973469999961,85.76376779999919,85.7685492999999,85.78233269999964,88.27941809999993,,,,,88.27960469999925,88.29526439999972,88.49582859999919,88.47974129999966,85.78233269999964,,,,,,,,0,1,2.4831382999991547,None,,,,,,,,812,23,V,R,2026-02-23_12h14.17.427,VisualSearch_2526_3,,2025.2.4,2026-02-23 12h14.17.613755 +0100,
tilted.xlsx,The target is tilted.,117,17,1,2,0,1,1,1,0,0,0,0,0,0,0,0,1,3,4,117,space,4.5105067000004055,None,0,1,0.9263294000002134,None,space,2.0855303999996977,None,0,0,0,0,,,,,2,1,17,6,88.49582859999919,,,,,,,,,,,,,,,,,,,,,88.48045209999964,88.49582859999919,88.97963809999965,88.98476019999998,89.00077579999925,89.93019719999938,,,,,89.93041039999935,89.9450498999995,90.14550019999933,90.12945309999941,89.00077579999925,,,,,,,,0,1,0.9263294000002134,None,,,,,,,,812,23,V,R,2026-02-23_12h14.17.427,VisualSearch_2526_3,,2025.2.4,2026-02-23 12h14.17.613755 +0100,
tilted.xlsx,The target is tilted.,117,18,2,2,0,0,0,0,0,0,0,0,0,0,0,0,1,1,1,117,space,4.5105067000004055,None,1,0,0.5997151999999915,None,space,2.0855303999996977,None,0,0,0,0,,,,,2,2,18,7,90.14550019999933,,,,,,,,,,,,,,,,,,,,,90.13017149999996,90.14550019999933,90.62934939999923,90.63406179999947,90.65162879999934,91.26323849999972,,,,,91.26344149999932,91.27808949999962,91.47847879999972,91.46229519999997,90.65162879999934,,,,,,,,1,0,0.5997151999999915,None,,,,,,,,812,23,V,R,2026-02-23_12h14.17.427,VisualSearch_2526_3,,2025.2.4,2026-02-23 12h14.17.613755 +0100,
tilted.xlsx,The target is tilted.,117,19,3,2,1,1,1,1,1,1,1,1,0,0,0,0,0,7,8,117,space,4.5105067000004055,None,1,1,4.148778300000231,None,space,2.0855303999996977,None,0,0,0,0,,,,,2,3,19,1,91.47847879999972,,,,,,,,,,,,,,,,,,,,,91.46301859999949,91.47847879999972,91.9622348999992,91.96684299999924,91.98586129999967,96.14592360000006,,,,,96.14617169999929,96.16090429999986,96.36141919999955,96.3451384,91.98586129999967,,,,,,,,1,1,4.148778300000231,None,,,,,,,,812,23,V,R,2026-02-23_12h14.17.427,VisualSearch_2526_3,,2025.2.4,2026-02-23 12h14.17.613755 +0100,
tilted.xlsx,The target is tilted.,117,20,4,2,1,1,1,1,1,1,1,1,1,1,1,1,0,11,12,117,space,4.5105067000004055,None,0,0,3.541994000000159,None,space,2.0855303999996977,None,0,0,0,0,,,,,2,4,20,0,96.36141919999955,,,,,,,,,,,,,,,,,,,,,96.34587759999977,96.36141919999955,96.84502529999918,96.84983889999967,96.86593079999966,100.41096889999972,,,,,100.41112379999959,100.4269248999999,100.62718009999935,100.61147439999968,96.86593079999966,,,,,,,,0,0,3.541994000000159,None,,,,,,,,812,23,V,R,2026-02-23_12h14.17.427,VisualSearch_2526_3,,2025.2.4,2026-02-23 12h14.17.613755 +0100,
tilted.xlsx,The target is tilted.,117,21,5,2,0,1,1,1,1,1,1,1,0,0,0,0,1,7,8,117,space,4.5105067000004055,None,0,1,2.116109000000506,None,space,2.0855303999996977,None,0,0,0,0,,,,,2,5,21,5,100.62718009999935,,,,,,,,,,,,,,,,,,,,,100.6123005999998,100.62718009999935,101.11107699999957,101.11573439999938,101.13265639999918,103.26100049999968,,,,,103.26120889999947,103.27653969999938,103.47712289999981,103.4610946999992,101.13265639999918,,,,,,,,0,1,2.116109000000506,None,,,,,,,,812,23,V,R,2026-02-23_12h14.17.427,VisualSearch_2526_3,,2025.2.4,2026-02-23 12h14.17.613755 +0100,
tilted.xlsx,The target is tilted.,117,22,6,2,1,0,0,0,0,0,0,0,0,0,0,0,0,0,1,117,space,4.5105067000004055,None,1,1,0.7607880000005025,None,space,2.0855303999996977,None,0,0,0,0,,,,,2,6,22,3,103.47712289999981,,,,,,,,,,,,,,,,,,,,,103.46190669999942,103.47712289999981,103.96099369999956,103.96626289999949,103.98376539999936,104.76075069999933,,,,,104.76095469999927,104.77635349999946,104.97680820000005,104.96057089999977,103.98376539999936,,,,,,,,1,1,0.7607880000005025,None,,,,,,,,812,23,V,R,2026-02-23_12h14.17.427,VisualSearch_2526_3,,2025.2.4,2026-02-23 12h14.17.613755 +0100,
tilted.xlsx,The target is tilted.,117,23,7,2,1,1,1,1,0,0,0,0,0,0,0,0,0,3,4,117,space,4.5105067000004055,None,1,1,0.9074856999995973,None,space,2.0855303999996977,None,0,0,0,0,,,,,2,7,23,2,104.97680820000005,,,,,,,,,,,,,,,,,,,,,104.96132699999998,104.97680820000005,105.46086969999942,105.46610119999968,105.48297469999943,106.39408229999935,,,,,106.3942836999995,106.40938899999946,106.60988670000006,106.59378249999918,105.48297469999943,,,,,,,,1,1,0.9074856999995973,None,,,,,,,,812,23,V,R,2026-02-23_12h14.17.427,VisualSearch_2526_3,,2025.2.4,2026-02-23 12h14.17.613755 +0100,
tilted.xlsx,The target is tilted.,117,24,0,3,1,1,1,1,0,0,0,0,0,0,0,0,0,3,4,117,space,4.5105067000004055,None,1,1,0.9808124000001044,None,space,2.0855303999996977,None,0,0,0,0,,,,,3,0,24,2,106.60988670000006,,,,,,,,,,,,,,,,,,,,,106.59457849999944,106.60988670000006,107.09397919999992,107.09880350000003,107.10962879999988,108.0937727999999,,,,,108.09397489999992,108.10911899999974,108.30971890000001,108.29320069999994,107.10962879999988,,,,,,,,1,1,0.9808124000001044,None,,,,,,,,812,23,V,R,2026-02-23_12h14.17.427,VisualSearch_2526_3,,2025.2.4,2026-02-23 12h14.17.613755 +0100,
tilted.xlsx,The target is tilted.,117,25,1,3,1,1,1,1,1,1,1,1,0,0,0,0,0,7,8,117,space,4.5105067000004055,None,1,1,2.106556699999601,None,space,2.0855303999996977,None,0,0,0,0,,,,,3,1,25,1,108.30971890000001,,,,,,,,,,,,,,,,,,,,,108.29402389999996,108.30971890000001,108.79311599999983,108.79833379999945,108.8154386999995,110.92705849999948,,,,,110.92726519999997,110.94199559999925,111.14254689999962,111.12636489999932,108.8154386999995,,,,,,,,1,1,2.106556699999601,None,,,,,,,,812,23,V,R,2026-02-23_12h14.17.427,VisualSearch_2526_3,,2025.2.4,2026-02-23 12h14.17.613755 +0100,
tilted.xlsx,The target is tilted.,117,26,2,3,0,0,0,0,0,0,0,0,0,0,0,0,1,1,1,117,space,4.5105067000004055,None,0,1,0.6315998000000036,None,space,2.0855303999996977,None,0,0,0,0,,,,,3,2,26,7,111.14254689999962,,,,,,,,,,,,,,,,,,,,,111.1271041,111.14254689999962,111.6261799999993,111.62817959999938,111.64245409999967,112.2768802999999,,,,,112.27711829999953,112.29195609999988,112.49225369999931,112.47611739999957,111.64245409999967,,,,,,,,0,1,0.6315998000000036,None,,,,,,,,812,23,V,R,2026-02-23_12h14.17.427,VisualSearch_2526_3,,2025.2.4,2026-02-23 12h14.17.613755 +0100,
tilted.xlsx,The target is tilted.,117,27,3,3,0,1,1,1,1,1,1,1,1,1,1,1,1,11,12,117,space,4.5105067000004055,None,0,1,4.050179199999548,None,space,2.0855303999996977,None,0,0,0,0,,,,,3,3,27,4,112.49225369999931,,,,,,,,,,,,,,,,,,,,,112.47684389999995,112.49225369999931,112.97616719999951,112.98084339999969,112.99663229999987,117.05963209999936,,,,,117.05985509999937,117.07458249999945,117.27508779999971,117.25902739999947,112.99663229999987,,,,,,,,0,1,4.050179199999548,None,,,,,,,,812,23,V,R,2026-02-23_12h14.17.427,VisualSearch_2526_3,,2025.2.4,2026-02-23 12h14.17.613755 +0100,
tilted.xlsx,The target is tilted.,117,28,4,3,1,0,0,0,0,0,0,0,0,0,0,0,0,0,1,117,space,4.5105067000004055,None,1,1,0.6413869000007253,None,space,2.0855303999996977,None,0,0,0,0,,,,,3,4,28,3,117.27508779999971,,,,,,,,,,,,,,,,,,,,,117.25974479999968,117.27508779999971,117.75892799999929,117.76356059999944,117.7819743,118.42597789999945,,,,,118.42618129999937,118.44089489999988,118.64156829999956,118.6253385,117.7819743,,,,,,,,1,1,0.6413869000007253,None,,,,,,,,812,23,V,R,2026-02-23_12h14.17.427,VisualSearch_2526_3,,2025.2.4,2026-02-23 12h14.17.613755 +0100,
tilted.xlsx,The target is tilted.,117,29,5,3,0,1,1,1,0,0,0,0,0,0,0,0,1,3,4,117,space,4.5105067000004055,None,0,1,0.9086858000000575,None,space,2.0855303999996977,None,0,0,0,0,,,,,3,5,29,6,118.64156829999956,,,,,,,,,,,,,,,,,,,,,118.62608269999964,118.64156829999956,119.12540489999992,119.13012029999936,119.14549979999993,120.05886239999927,,,,,120.05906239999968,120.07412419999946,120.27460769999925,120.25851369999964,119.14549979999993,,,,,,,,0,1,0.9086858000000575,None,,,,,,,,812,23,V,R,2026-02-23_12h14.17.427,VisualSearch_2526_3,,2025.2.4,2026-02-23 12h14.17.613755 +0100,
tilted.xlsx,The target is tilted.,117,30,6,3,1,1,1,1,1,1,1,1,1,1,1,1,0,11,12,117,space,4.5105067000004055,None,1,1,1.0441283000000112,None,space,2.0855303999996977,None,0,0,0,0,,,,,3,6,30,0,120.27460769999925,,,,,,,,,,,,,,,,,,,,,120.2592184999994,120.27460769999925,120.75848279999991,120.76306059999933,120.78137639999932,121.84214829999928,,,,,121.84236259999943,121.85714279999956,122.05781659999957,122.04172449999987,120.78137639999932,,,,,,,,1,1,1.0441283000000112,None,,,,,,,,812,23,V,R,2026-02-23_12h14.17.427,VisualSearch_2526_3,,2025.2.4,2026-02-23 12h14.17.613755 +0100,
tilted.xlsx,The target is tilted.,117,31,7,3,0,1,1,1,1,1,1,1,0,0,0,0,1,7,8,117,space,4.5105067000004055,None,0,1,1.9025379999993675,None,space,2.0855303999996977,None,0,0,0,0,,,,,3,7,31,5,122.05781659999957,,,,,,,,,,,,,,,,,,,,,122.04253159999917,122.05781659999957,122.54133169999932,122.54643679999936,122.56355579999945,124.47483079999984,,,,,124.47501719999946,124.49018389999947,124.69037239999943,124.67448879999938,122.56355579999945,,,,,,,,0,1,1.9025379999993675,None,,,,,,,,812,23,V,R,2026-02-23_12h14.17.427,VisualSearch_2526_3,,2025.2.4,2026-02-23 12h14.17.613755 +0100,
tilted.xlsx,The target is tilted.,117,32,0,4,0,0,0,0,0,0,0,0,0,0,0,0,1,1,1,117,space,4.5105067000004055,None,0,1,0.5838827999996283,None,space,2.0855303999996977,None,0,0,0,0,,,,,4,0,32,7,124.69037239999943,,,,,,,,,,,,,,,,,,,,,124.67529829999967,124.69037239999943,125.17412499999955,125.17877869999938,125.19607359999918,125.79108659999929,,,,,125.79121729999952,125.80655409999963,126.00723369999923,125.99098119999962,125.19607359999918,,,,,,,,0,1,0.5838827999996283,None,,,,,,,,812,23,V,R,2026-02-23_12h14.17.427,VisualSearch_2526_3,,2025.2.4,2026-02-23 12h14.17.613755 +0100,
tilted.xlsx,The target is tilted.,117,33,1,4,1,1,1,1,1,1,1,1,0,0,0,0,0,7,8,117,space,4.5105067000004055,None,1,1,1.3143492000008337,None,space,2.0855303999996977,None,0,0,0,0,,,,,4,1,33,1,126.00723369999923,,,,,,,,,,,,,,,,,,,,,125.99171419999948,126.00723369999923,126.49121749999995,126.49634650000007,126.5066324999998,127.82441579999977,,,,,127.82462409999971,127.83964109999943,128.0402099999992,128.02384289999918,126.5066324999998,,,,,,,,1,1,1.3143492000008337,None,,,,,,,,812,23,V,R,2026-02-23_12h14.17.427,VisualSearch_2526_3,,2025.2.4,2026-02-23 12h14.17.613755 +0100,
tilted.xlsx,The target is tilted.,117,34,2,4,1,0,0,0,0,0,0,0,0,0,0,0,0,0,1,117,space,4.5105067000004055,None,1,1,0.5073596000001999,None,space,2.0855303999996977,None,0,0,0,0,,,,,4,2,34,3,128.0402099999992,,,,,,,,,,,,,,,,,,,,,128.02460619999965,128.0402099999992,128.52399269999933,128.52892559999964,128.54506469999978,129.05755090000002,,,,,129.05775189999986,129.07278909999968,129.27319999999963,129.25695489999998,128.54506469999978,,,,,,,,1,1,0.5073596000001999,None,,,,,,,,812,23,V,R,2026-02-23_12h14.17.427,VisualSearch_2526_3,,2025.2.4,2026-02-23 12h14.17.613755 +0100,
tilted.xlsx,The target is tilted.,117,35,3,4,1,1,1,1,0,0,0,0,0,0,0,0,0,3,4,117,space,4.5105067000004055,None,1,1,0.5668651999994836,None,space,2.0855303999996977,None,0,0,0,0,,,,,4,3,35,2,129.27319999999963,,,,,,,,,,,,,,,,,,,,,129.25770509999984,129.27319999999963,129.75726189999932,129.76181769999948,129.7786757999993,130.3569480999995,,,,,130.35716499999944,130.37257499999942,130.57314939999924,130.55700909999996,129.7786757999993,,,,,,,,1,1,0.5668651999994836,None,,,,,,,,812,23,V,R,2026-02-23_12h14.17.427,VisualSearch_2526_3,,2025.2.4,2026-02-23 12h14.17.613755 +0100,
tilted.xlsx,The target is tilted.,117,36,4,4,0,1,1,1,0,0,0,0,0,0,0,0,1,3,4,117,space,4.5105067000004055,None,0,1,0.8053459000002476,None,space,2.0855303999996977,None,0,0,0,0,,,,,4,4,36,6,130.57314939999924,,,,,,,,,,,,,,,,,,,,,130.55772759999945,130.57314939999924,131.05711139999949,131.06217319999996,131.08100709999962,131.8902281999999,,,,,131.8904092999992,131.90579809999963,132.1062511,132.09010659999967,131.08100709999962,,,,,,,,0,1,0.8053459000002476,None,,,,,,,,812,23,V,R,2026-02-23_12h14.17.427,VisualSearch_2526_3,,2025.2.4,2026-02-23 12h14.17.613755 +0100,
tilted.xlsx,The target is tilted.,117,37,5,4,1,1,1,1,1,1,1,1,1,1,1,1,0,11,12,117,space,4.5105067000004055,None,0,0,2.804605000000265,None,space,2.0855303999996977,None,0,0,0,0,,,,,4,5,37,0,132.1062511,,,,,,,,,,,,,,,,,,,,,132.0908413999996,132.1062511,132.59014279999974,132.5949084999993,132.6059593,135.4234133,,,,,135.42359999999917,135.43855349999922,135.6390904,135.62304229999972,132.6059593,,,,,,,,0,0,2.804605000000265,None,,,,,,,,812,23,V,R,2026-02-23_12h14.17.427,VisualSearch_2526_3,,2025.2.4,2026-02-23 12h14.17.613755 +0100,
tilted.xlsx,The target is tilted.,117,38,6,4,0,1,1,1,1,1,1,1,0,0,0,0,1,7,8,117,space,4.5105067000004055,None,0,1,2.0227014000001873,None,space,2.0855303999996977,None,0,0,0,0,,,,,4,6,38,5,135.6390904,,,,,,,,,,,,,,,,,,,,,135.62385579999955,135.6390904,136.12296779999997,136.1275667,136.14495679999982,138.1731807999995,,,,,138.1733861999992,138.1881504999992,138.38880040000004,138.37273539999933,136.14495679999982,,,,,,,,0,1,2.0227014000001873,None,,,,,,,,812,23,V,R,2026-02-23_12h14.17.427,VisualSearch_2526_3,,2025.2.4,2026-02-23 12h14.17.613755 +0100,
tilted.xlsx,The target is tilted.,117,39,7,4,0,1,1,1,1,1,1,1,1,1,1,1,1,11,12,117,space,4.5105067000004055,None,0,1,3.751212099999975,None,space,2.0855303999996977,None,0,0,0,0,,,,,4,7,39,4,138.38880040000004,,,,,,,,,,,,,,,,,,,,,138.37349499999982,138.38880040000004,138.87258209999982,138.87720499999978,138.8957860999999,142.65585909999936,,,,,142.65606939999998,142.67083169999933,142.87149299999965,142.8553882999995,138.8957860999999,,,,,,,,0,1,3.751212099999975,None,,,,,,,,812,23,V,R,2026-02-23_12h14.17.427,VisualSearch_2526_3,,2025.2.4,2026-02-23 12h14.17.613755 +0100,
tilted.xlsx,The target is tilted.,117,40,0,5,1,1,1,1,1,1,1,1,0,0,0,0,0,7,8,117,space,4.5105067000004055,None,1,1,2.9130887000001167,None,space,2.0855303999996977,None,0,0,0,0,,,,,5,0,40,1,142.87149299999965,,,,,,,,,,,,,,,,,,,,,142.8562878999992,142.87149299999965,143.3551450999994,143.35980699999982,143.37611649999963,146.30480139999963,,,,,146.30500459999985,146.32030159999977,146.52096639999945,146.50458069999968,143.37611649999963,,,,,,,,1,1,2.9130887000001167,None,,,,,,,,812,23,V,R,2026-02-23_12h14.17.427,VisualSearch_2526_3,,2025.2.4,2026-02-23 12h14.17.613755 +0100,
tilted.xlsx,The target is tilted.,117,41,1,5,0,1,1,1,1,1,1,1,0,0,0,0,1,7,8,117,space,4.5105067000004055,None,0,1,2.7201359999999113,None,space,2.0855303999996977,None,0,0,0,0,,,,,5,1,41,5,146.52096639999945,,,,,,,,,,,,,,,,,,,,,146.50538789999973,146.52096639999945,147.00437169999987,147.0091150999997,147.02553050000006,149.75362849999965,,,,,149.75371529999939,149.7695973,149.9705329999997,149.95393149999927,147.02553050000006,,,,,,,,0,1,2.7201359999999113,None,,,,,,,,812,23,V,R,2026-02-23_12h14.17.427,VisualSearch_2526_3,,2025.2.4,2026-02-23 12h14.17.613755 +0100,
tilted.xlsx,The target is tilted.,117,42,2,5,0,1,1,1,1,1,1,1,1,1,1,1,1,11,12,117,space,4.5105067000004055,None,0,1,3.8052694999996675,None,space,2.0855303999996977,None,0,0,0,0,,,,,5,2,42,4,149.9705329999997,,,,,,,,,,,,,,,,,,,,,149.95466039999974,149.9705329999997,150.45370149999962,150.4584436999994,150.47559909999927,154.28749189999962,,,,,154.28770089999944,154.3024579999992,154.50319479999962,154.4872151999998,150.47559909999927,,,,,,,,0,1,3.8052694999996675,None,,,,,,,,812,23,V,R,2026-02-23_12h14.17.427,VisualSearch_2526_3,,2025.2.4,2026-02-23 12h14.17.613755 +0100,
tilted.xlsx,The target is tilted.,117,43,3,5,1,0,0,0,0,0,0,0,0,0,0,0,0,0,1,117,space,4.5105067000004055,None,1,1,0.8772361000001183,None,space,2.0855303999996977,None,0,0,0,0,,,,,5,3,43,3,154.50319479999962,,,,,,,,,,,,,,,,,,,,,154.48807299999953,154.50319479999962,154.98704459999954,154.99232799999936,155.00740099999985,155.88729439999952,,,,,155.88749740000003,155.9023228999995,156.10299149999992,156.08683159999964,155.00740099999985,,,,,,,,1,1,0.8772361000001183,None,,,,,,,,812,23,V,R,2026-02-23_12h14.17.427,VisualSearch_2526_3,,2025.2.4,2026-02-23 12h14.17.613755 +0100,
tilted.xlsx,The target is tilted.,117,44,4,5,0,1,1,1,0,0,0,0,0,0,0,0,1,3,4,117,space,4.5105067000004055,None,0,1,0.9985216000004584,None,space,2.0855303999996977,None,0,0,0,0,,,,,5,4,44,6,156.10299149999992,,,,,,,,,,,,,,,,,,,,,156.08762099999967,156.10299149999992,156.58681589999924,156.59172489999946,156.61022259999936,157.6199936999992,,,,,157.62017729999934,157.6354351,157.83586209999976,157.81940869999926,156.61022259999936,,,,,,,,0,1,0.9985216000004584,None,,,,,,,,812,23,V,R,2026-02-23_12h14.17.427,VisualSearch_2526_3,,2025.2.4,2026-02-23 12h14.17.613755 +0100,
tilted.xlsx,The target is tilted.,117,45,5,5,1,1,1,1,1,1,1,1,1,1,1,1,0,11,12,117,space,4.5105067000004055,None,1,1,2.07636199999979,None,space,2.0855303999996977,None,0,0,0,0,,,,,5,5,45,0,157.83586209999976,,,,,,,,,,,,,,,,,,,,,157.8198694999992,157.83586209999976,158.31989410000006,158.32456169999932,158.34231959999943,160.42005639999934,,,,,160.42026599999917,160.43499429999974,160.63547440000002,160.61953059999996,158.34231959999943,,,,,,,,1,1,2.07636199999979,None,,,,,,,,812,23,V,R,2026-02-23_12h14.17.427,VisualSearch_2526_3,,2025.2.4,2026-02-23 12h14.17.613755 +0100,
tilted.xlsx,The target is tilted.,117,46,6,5,0,0,0,0,0,0,0,0,0,0,0,0,1,1,1,117,space,4.5105067000004055,None,0,1,0.7613398000003144,None,space,2.0855303999996977,None,0,0,0,0,,,,,5,6,46,7,160.63547440000002,,,,,,,,,,,,,,,,,,,,,160.62026789999982,160.63547440000002,161.11903209999946,161.12379689999943,161.14075049999974,161.91924469999958,,,,,161.91944629999944,161.93484649999937,162.13490999999976,162.1188749999992,161.14075049999974,,,,,,,,0,1,0.7613398000003144,None,,,,,,,,812,23,V,R,2026-02-23_12h14.17.427,VisualSearch_2526_3,,2025.2.4,2026-02-23 12h14.17.613755 +0100,
tilted.xlsx,The target is tilted.,117,47,7,5,1,1,1,1,0,0,0,0,0,0,0,0,0,3,4,117,space,4.5105067000004055,None,1,1,1.298942100000204,None,space,2.0855303999996977,None,0,0,0,0,,,,,5,7,47,2,162.13490999999976,,,,,,,,,,,,,,,,,,,,,162.11959519999982,162.13490999999976,162.619009,162.6243316,162.63929219999955,163.95217030000003,,,,,163.95240599999943,163.9678512999999,164.16842610000003,164.1521903999992,162.63929219999955,,,,,,,,1,1,1.298942100000204,None,,,,,,,,812,23,V,R,2026-02-23_12h14.17.427,VisualSearch_2526_3,,2025.2.4,2026-02-23 12h14.17.613755 +0100,
tilted.xlsx,The target is tilted.,117,48,0,6,1,1,1,1,0,0,0,0,0,0,0,0,0,3,4,117,space,4.5105067000004055,None,1,1,1.3810174000000188,None,space,2.0855303999996977,None,0,0,0,0,,,,,6,0,48,2,164.16842610000003,,,,,,,,,,,,,,,,,,,,,164.1529198999997,164.16842610000003,164.6523275999998,164.65739519999988,164.67407860000003,166.06856049999988,,,,,166.0687957,166.08414360000006,166.28474639999968,166.2685991999997,164.67407860000003,,,,,,,,1,1,1.3810174000000188,None,,,,,,,,812,23,V,R,2026-02-23_12h14.17.427,VisualSearch_2526_3,,2025.2.4,2026-02-23 12h14.17.613755 +0100,
tilted.xlsx,The target is tilted.,117,49,1,6,1,1,1,1,1,1,1,1,0,0,0,0,0,7,8,117,space,4.5105067000004055,None,1,1,1.703708000000006,None,space,2.0855303999996977,None,0,0,0,0,,,,,6,1,49,1,166.28474639999968,,,,,,,,,,,,,,,,,,,,,166.26931579999928,166.28474639999968,166.76846469999964,166.77318959999957,166.78986279999936,168.50219990000005,,,,,168.5024029999995,168.51715329999934,168.71781329999976,168.70175539999946,166.78986279999936,,,,,,,,1,1,1.703708000000006,None,,,,,,,,812,23,V,R,2026-02-23_12h14.17.427,VisualSearch_2526_3,,2025.2.4,2026-02-23 12h14.17.613755 +0100,
tilted.xlsx,The target is tilted.,117,50,2,6,0,1,1,1,0,0,0,0,0,0,0,0,1,3,4,117,space,4.5105067000004055,None,0,1,1.0905899999997928,None,space,2.0855303999996977,None,0,0,0,0,,,,,6,2,50,6,168.71781329999976,,,,,,,,,,,,,,,,,,,,,168.70255579999957,168.71781329999976,169.20137879999947,169.20600589999958,169.22245049999947,170.31817789999968,,,,,170.31838439999956,170.3335432999993,170.5338800999998,170.51764829999956,169.22245049999947,,,,,,,,0,1,1.0905899999997928,None,,,,,,,,812,23,V,R,2026-02-23_12h14.17.427,VisualSearch_2526_3,,2025.2.4,2026-02-23 12h14.17.613755 +0100,
tilted.xlsx,The target is tilted.,117,51,3,6,1,1,1,1,1,1,1,1,1,1,1,1,0,11,12,117,space,4.5105067000004055,None,1,1,0.8345852000002196,None,space,2.0855303999996977,None,0,0,0,0,,,,,6,3,51,0,170.5338800999998,,,,,,,,,,,,,,,,,,,,,170.51837979999982,170.5338800999998,171.01809009999943,171.0233550999992,171.0383751999998,171.88381159999972,,,,,171.88388679999935,171.89983909999955,172.10060499999963,172.08409689999917,171.0383751999998,,,,,,,,1,1,0.8345852000002196,None,,,,,,,,812,23,V,R,2026-02-23_12h14.17.427,VisualSearch_2526_3,,2025.2.4,2026-02-23 12h14.17.613755 +0100,
tilted.xlsx,The target is tilted.,117,52,4,6,0,0,0,0,0,0,0,0,0,0,0,0,1,1,1,117,space,4.5105067000004055,None,0,1,0.6645673999992141,None,space,2.0855303999996977,None,0,0,0,0,,,,,6,4,52,7,172.10060499999963,,,,,,,,,,,,,,,,,,,,,172.0848200999999,172.10060499999963,172.58398979999947,172.58894359999977,172.6052805999998,173.28341439999986,,,,,173.28350150000006,173.3001022999997,,173.48372419999941,172.6052805999998,,,,,,,,0,1,0.6645673999992141,None,,,,,,,,812,23,V,R,2026-02-23_12h14.17.427,VisualSearch_2526_3,,2025.2.4,2026-02-23 12h14.17.613755 +0100,
tilted.xlsx,The target is tilted.,117,53,5,6,0,1,1,1,1,1,1,1,0,0,0,0,1,7,8,117,space,4.5105067000004055,None,0,1,3.1517315000000963,None,space,2.0855303999996977,None,0,0,0,0,,,,,6,5,53,5,173.50044909999997,,,,,,,,,,,,,,,,,,,,,173.48472259999926,173.50044909999997,173.9837179999995,173.9883678999995,174.0068384999995,177.16729679999935,,,,,177.16750749999937,177.18257379999977,177.38285089999954,177.36701659999926,,,,,,,,,0,1,3.1517315000000963,None,,,,,,,,812,23,V,R,2026-02-23_12h14.17.427,VisualSearch_2526_3,,2025.2.4,2026-02-23 12h14.17.613755 +0100,
tilted.xlsx,The target is tilted.,117,54,6,6,1,0,0,0,0,0,0,0,0,0,0,0,0,0,1,117,space,4.5105067000004055,None,1,1,0.5549338999999236,None,space,2.0855303999996977,None,0,0,0,0,,,,,6,6,54,3,177.38285089999954,,,,,,,,,,,,,,,,,,,,,177.3677229999994,177.38285089999954,177.86707019999994,177.87243379999927,177.88871049999943,178.45078749999993,,,,,178.4509896999998,178.46572560000004,178.66628189999938,178.65022669999962,177.88871049999943,,,,,,,,1,1,0.5549338999999236,None,,,,,,,,812,23,V,R,2026-02-23_12h14.17.427,VisualSearch_2526_3,,2025.2.4,2026-02-23 12h14.17.613755 +0100,
tilted.xlsx,The target is tilted.,117,55,7,6,0,1,1,1,1,1,1,1,1,1,1,1,1,11,12,117,space,4.5105067000004055,None,0,1,2.5479857000000266,None,space,2.0855303999996977,None,0,0,0,0,,,,,6,7,55,4,178.66628189999938,,,,,,,,,,,,,,,,,,,,,178.65105249999942,178.66628189999938,179.1501589999998,179.15486359999977,179.16968949999955,181.73294139999962,,,,,181.7331863999998,181.7485369999995,181.94919140000002,181.93300439999985,179.16968949999955,,,,,,,,0,1,2.5479857000000266,None,,,,,,,,812,23,V,R,2026-02-23_12h14.17.427,VisualSearch_2526_3,,2025.2.4,2026-02-23 12h14.17.613755 +0100,
tilted.xlsx,The target is tilted.,117,56,0,7,0,1,1,1,0,0,0,0,0,0,0,0,1,3,4,117,space,4.5105067000004055,None,0,1,1.1764162999998007,None,space,2.0855303999996977,None,0,0,0,0,,,,,7,0,56,6,181.94919140000002,,,,,,,,,,,,,,,,,,,,,181.93372629999976,181.94919140000002,182.43285669999932,182.43754919999992,182.45362679999926,183.63331859999926,,,,,183.63351889999922,183.64836519999972,183.8489052999994,183.83257460000004,182.45362679999926,,,,,,,,0,1,1.1764162999998007,None,,,,,,,,812,23,V,R,2026-02-23_12h14.17.427,VisualSearch_2526_3,,2025.2.4,2026-02-23 12h14.17.613755 +0100,
tilted.xlsx,The target is tilted.,117,57,1,7,0,1,1,1,1,1,1,1,1,1,1,1,1,11,12,117,space,4.5105067000004055,None,0,1,3.358896900000218,None,space,2.0855303999996977,None,0,0,0,0,,,,,7,1,57,4,183.8489052999994,,,,,,,,,,,,,,,,,,,,,183.8334047999997,183.8489052999994,184.33292679999977,184.33789419999994,184.35443599999962,187.7160546999994,,,,,187.71626039999956,187.73110109999925,187.93170179999925,187.91565349999928,184.35443599999962,,,,,,,,0,1,3.358896900000218,None,,,,,,,,812,23,V,R,2026-02-23_12h14.17.427,VisualSearch_2526_3,,2025.2.4,2026-02-23 12h14.17.613755 +0100,
tilted.xlsx,The target is tilted.,117,58,2,7,1,1,1,1,1,1,1,1,0,0,0,0,0,7,8,117,space,4.5105067000004055,None,0,0,2.54954220000036,None,space,2.0855303999996977,None,0,0,0,0,,,,,7,2,58,1,187.93170179999925,,,,,,,,,,,,,,,,,,,,,187.9165755999993,187.93170179999925,188.41488599999957,188.4183097999994,188.43248519999997,190.99773860000005,,,,,190.99786739999945,191.0143079999998,,191.19811630000004,188.43248519999997,,,,,,,,0,0,2.54954220000036,None,,,,,,,,812,23,V,R,2026-02-23_12h14.17.427,VisualSearch_2526_3,,2025.2.4,2026-02-23 12h14.17.613755 +0100,
tilted.xlsx,The target is tilted.,117,59,3,7,1,1,1,1,1,1,1,1,1,1,1,1,0,11,12,117,space,4.5105067000004055,None,0,0,4.193268799999714,None,space,2.0855303999996977,None,0,0,0,0,,,,,7,3,59,0,191.2145118999997,,,,,,,,,,,,,,,,,,,,,191.1988668999993,191.2145118999997,191.69817689999945,191.70367409999926,191.7187213999996,195.91463979999935,,,,,195.91484129999935,195.92988220000007,196.13018789999933,196.1140375999994,,,,,,,,,0,0,4.193268799999714,None,,,,,,,,812,23,V,R,2026-02-23_12h14.17.427,VisualSearch_2526_3,,2025.2.4,2026-02-23 12h14.17.613755 +0100,
tilted.xlsx,The target is tilted.,117,60,4,7,1,0,0,0,0,0,0,0,0,0,0,0,0,0,1,117,space,4.5105067000004055,None,1,1,0.6912793999999849,None,space,2.0855303999996977,None,0,0,0,0,,,,,7,4,60,3,196.13018789999933,,,,,,,,,,,,,,,,,,,,,196.11477789999935,196.13018789999933,196.6141775999995,196.6191872999998,196.6362827999992,197.33103669999946,,,,,197.33124139999927,197.3462968999993,197.54693139999927,197.53077249999933,196.6362827999992,,,,,,,,1,1,0.6912793999999849,None,,,,,,,,812,23,V,R,2026-02-23_12h14.17.427,VisualSearch_2526_3,,2025.2.4,2026-02-23 12h14.17.613755 +0100,
tilted.xlsx,The target is tilted.,117,61,5,7,0,1,1,1,1,1,1,1,0,0,0,0,1,7,8,117,space,4.5105067000004055,None,0,1,2.4959921999998187,None,space,2.0855303999996977,None,0,0,0,0,,,,,7,5,61,5,197.54693139999927,,,,,,,,,,,,,,,,,,,,,197.53148379999948,197.54693139999927,198.03089120000004,198.03578349999952,198.05164049999985,200.5636412999993,,,,,200.56386179999936,200.57923929999924,200.77995509999982,200.76379839999936,198.05164049999985,,,,,,,,0,1,2.4959921999998187,None,,,,,,,,812,23,V,R,2026-02-23_12h14.17.427,VisualSearch_2526_3,,2025.2.4,2026-02-23 12h14.17.613755 +0100,
tilted.xlsx,The target is tilted.,117,62,6,7,1,1,1,1,0,0,0,0,0,0,0,0,0,3,4,117,space,4.5105067000004055,None,1,1,1.3544511000000057,None,space,2.0855303999996977,None,0,0,0,0,,,,,7,6,62,2,200.77995509999982,,,,,,,,,,,,,,,,,,,,,200.76455899999928,200.77995509999982,201.2637683999992,201.26919969999926,201.28317759999936,202.64742409999963,,,,,202.64764659999946,202.66222089999974,202.86282579999988,202.84675789999983,201.28317759999936,,,,,,,,1,1,1.3544511000000057,None,,,,,,,,812,23,V,R,2026-02-23_12h14.17.427,VisualSearch_2526_3,,2025.2.4,2026-02-23 12h14.17.613755 +0100,
tilted.xlsx,The target is tilted.,117,63,7,7,0,0,0,0,0,0,0,0,0,0,0,0,1,1,1,117,space,4.5105067000004055,None,0,1,0.6687675000002855,None,space,2.0855303999996977,None,0,0,0,0,,,,,7,7,63,7,202.86282579999988,,,,,,,,,,,,,,,,,,,,,202.84746319999977,202.86282579999988,203.34614359999978,203.3485716999994,203.36218129999997,204.04643849999957,,,,,204.04666839999936,204.06223339999997,204.26277739999932,204.24657169999955,203.36218129999997,,,,,,,,0,1,0.6687675000002855,None,,,,,,,,812,23,V,R,2026-02-23_12h14.17.427,VisualSearch_2526_3,,2025.2.4,2026-02-23 12h14.17.613755 +0100,
tilted.xlsx,The target is tilted.,117,64,0,8,0,1,1,1,1,1,1,1,1,1,1,1,1,11,12,117,space,4.5105067000004055,None,0,1,2.9684023999998317,None,space,2.0855303999996977,None,0,0,0,0,,,,,8,0,64,4,204.26277739999932,,,,,,,,,,,,,,,,,,,,,204.24738419999994,204.26277739999932,204.7463313999997,204.75108419999924,204.7666552999999,207.74661319999996,,,,,207.74686119999933,207.76156699999956,207.96208849999948,207.94594879999931,204.7666552999999,,,,,,,,0,1,2.9684023999998317,None,,,,,,,,812,23,V,R,2026-02-23_12h14.17.427,VisualSearch_2526_3,,2025.2.4,2026-02-23 12h14.17.613755 +0100,
tilted.xlsx,The target is tilted.,117,65,1,8,0,1,1,1,0,0,0,0,0,0,0,0,1,3,4,117,space,4.5105067000004055,None,0,1,1.6927066999996896,None,space,2.0855303999996977,None,0,0,0,0,,,,,8,1,65,6,207.96208849999948,,,,,,,,,,,,,,,,,,,,,207.9466612999995,207.96208849999948,208.44589819999965,208.45061480000004,208.46197279999978,210.16223300000001,,,,,210.16237139999976,210.17769939999926,210.37846939999963,210.36234160000004,208.46197279999978,,,,,,,,0,1,1.6927066999996896,None,,,,,,,,812,23,V,R,2026-02-23_12h14.17.427,VisualSearch_2526_3,,2025.2.4,2026-02-23 12h14.17.613755 +0100,
tilted.xlsx,The target is tilted.,117,66,2,8,1,1,1,1,0,0,0,0,0,0,0,0,0,3,4,117,space,4.5105067000004055,None,0,0,0.9752008000004935,None,space,2.0855303999996977,None,0,0,0,0,,,,,8,2,66,2,210.37846939999963,,,,,,,,,,,,,,,,,,,,,210.3630538999996,210.37846939999963,210.86240389999966,210.86772719999954,210.88223130000006,211.86225359999935,,,,,211.86239320000004,211.87759389999974,212.07807999999932,212.0618943999998,210.88223130000006,,,,,,,,0,0,0.9752008000004935,None,,,,,,,,812,23,V,R,2026-02-23_12h14.17.427,VisualSearch_2526_3,,2025.2.4,2026-02-23 12h14.17.613755 +0100,
tilted.xlsx,The target is tilted.,117,67,3,8,1,1,1,1,1,1,1,1,1,1,1,1,0,11,12,117,space,4.5105067000004055,None,1,1,3.3417073999999047,None,space,2.0855303999996977,None,0,0,0,0,,,,,8,3,67,0,212.07807999999932,,,,,,,,,,,,,,,,,,,,,212.0626284,212.07807999999932,212.56216239999958,212.56744720000006,212.57833459999983,215.92880590000004,,,,,215.92903429999933,215.94381359999988,216.14413089999925,216.1280141999996,212.57833459999983,,,,,,,,1,1,3.3417073999999047,None,,,,,,,,812,23,V,R,2026-02-23_12h14.17.427,VisualSearch_2526_3,,2025.2.4,2026-02-23 12h14.17.613755 +0100,
tilted.xlsx,The target is tilted.,117,68,4,8,0,0,0,0,0,0,0,0,0,0,0,0,1,1,1,117,space,4.5105067000004055,None,0,1,0.6550256000000445,None,space,2.0855303999996977,None,0,0,0,0,,,,,8,4,68,7,216.14413089999925,,,,,,,,,,,,,,,,,,,,,216.12875839999924,216.14413089999925,216.62824619999992,216.6335878,216.64873109999917,217.31202909999956,,,,,217.31226909999987,217.3269252,217.52759389999937,217.51137319999998,216.64873109999917,,,,,,,,0,1,0.6550256000000445,None,,,,,,,,812,23,V,R,2026-02-23_12h14.17.427,VisualSearch_2526_3,,2025.2.4,2026-02-23 12h14.17.613755 +0100,
tilted.xlsx,The target is tilted.,117,69,5,8,1,0,0,0,0,0,0,0,0,0,0,0,0,0,1,117,space,4.5105067000004055,None,1,1,0.935481599999548,None,space,2.0855303999996977,None,0,0,0,0,,,,,8,5,69,3,217.52759389999937,,,,,,,,,,,,,,,,,,,,,217.51220919999923,217.52759389999937,218.01125349999984,218.01581199999964,218.03258809999988,218.9782964999995,,,,,218.9785110999992,218.99329359999956,219.19354719999956,219.17759939999996,218.03258809999988,,,,,,,,1,1,0.935481599999548,None,,,,,,,,812,23,V,R,2026-02-23_12h14.17.427,VisualSearch_2526_3,,2025.2.4,2026-02-23 12h14.17.613755 +0100,
tilted.xlsx,The target is tilted.,117,70,6,8,0,1,1,1,1,1,1,1,0,0,0,0,1,7,8,117,space,4.5105067000004055,None,0,1,2.9638746000000538,None,space,2.0855303999996977,None,0,0,0,0,,,,,8,6,70,5,219.19354719999956,,,,,,,,,,,,,,,,,,,,,219.17841849999968,219.19354719999956,219.67760569999973,219.6821788999996,219.70017019999977,222.67737719999968,,,,,222.67758030000005,222.6928627999996,222.89325279999957,222.8773038999998,219.70017019999977,,,,,,,,0,1,2.9638746000000538,None,,,,,,,,812,23,V,R,2026-02-23_12h14.17.427,VisualSearch_2526_3,,2025.2.4,2026-02-23 12h14.17.613755 +0100,
tilted.xlsx,The target is tilted.,117,71,7,8,1,1,1,1,1,1,1,1,0,0,0,0,0,7,8,117,space,4.5105067000004055,None,1,1,3.2959429000002274,None,space,2.0855303999996977,None,0,0,0,0,,,,,8,7,71,1,222.89325279999957,,,,,,,,,,,,,,,,,,,,,222.87814619999972,222.89325279999957,223.37734999999975,223.38263609999922,223.39940959999967,226.7096230999996,,,,,226.70979689999967,226.7254301999992,226.92573209999955,226.9100830999996,223.39940959999967,,,,,,,,1,1,3.2959429000002274,None,,,,,,,,812,23,V,R,2026-02-23_12h14.17.427,VisualSearch_2526_3,,2025.2.4,2026-02-23 12h14.17.613755 +0100,
tilted.xlsx,The target is tilted.,117,72,0,9,0,1,1,1,1,1,1,1,0,0,0,0,1,7,8,117,space,4.5105067000004055,None,0,1,1.946185400000104,None,space,2.0855303999996977,None,0,0,0,0,,,,,9,0,72,5,226.92573209999955,,,,,,,,,,,,,,,,,,,,,226.91088349999973,226.92573209999955,227.40995849999945,227.4147997,227.4304076999997,229.39286659999925,,,,,229.39307459999964,229.40837929999998,229.60882179999953,229.59301719999985,227.4304076999997,,,,,,,,0,1,1.946185400000104,None,,,,,,,,812,23,V,R,2026-02-23_12h14.17.427,VisualSearch_2526_3,,2025.2.4,2026-02-23 12h14.17.613755 +0100,
tilted.xlsx,The target is tilted.,117,73,1,9,0,1,1,1,1,1,1,1,1,1,1,1,1,11,12,117,space,4.5105067000004055,None,0,1,3.758216000000175,None,space,2.0855303999996977,None,0,0,0,0,,,,,9,1,73,4,229.60882179999953,,,,,,,,,,,,,,,,,,,,,229.59374949999983,229.60882179999953,230.09257089999937,230.09745549999934,230.10877759999948,233.875583,,,,,233.8757117999994,233.89105479999944,234.09177139999974,234.07563859999937,230.10877759999948,,,,,,,,0,1,3.758216000000175,None,,,,,,,,812,23,V,R,2026-02-23_12h14.17.427,VisualSearch_2526_3,,2025.2.4,2026-02-23 12h14.17.613755 +0100,
tilted.xlsx,The target is tilted.,117,74,2,9,1,1,1,1,1,1,1,1,1,1,1,1,0,11,12,117,space,4.5105067000004055,None,1,1,2.8160115999999107,None,space,2.0855303999996977,None,0,0,0,0,,,,,9,2,74,0,234.09177139999974,,,,,,,,,,,,,,,,,,,,,234.07635329999994,234.09177139999974,234.57561110000006,234.5805848,234.59666059999927,237.42495849999978,,,,,237.42516989999967,237.4406872999998,237.64117499999975,237.62491499999942,234.59666059999927,,,,,,,,1,1,2.8160115999999107,None,,,,,,,,812,23,V,R,2026-02-23_12h14.17.427,VisualSearch_2526_3,,2025.2.4,2026-02-23 12h14.17.613755 +0100,
tilted.xlsx,The target is tilted.,117,75,3,9,1,1,1,1,0,0,0,0,0,0,0,0,0,3,4,117,space,4.5105067000004055,None,1,1,0.6567698999997447,None,space,2.0855303999996977,None,0,0,0,0,,,,,9,3,75,2,237.64117499999975,,,,,,,,,,,,,,,,,,,,,237.62570909999977,237.64117499999975,238.12516049999977,238.1303584999996,238.14708259999952,238.80866089999927,,,,,238.80883360000007,238.82381009999972,239.0242400999996,239.00835370000004,238.14708259999952,,,,,,,,1,1,0.6567698999997447,None,,,,,,,,812,23,V,R,2026-02-23_12h14.17.427,VisualSearch_2526_3,,2025.2.4,2026-02-23 12h14.17.613755 +0100,
tilted.xlsx,The target is tilted.,117,76,4,9,0,1,1,1,0,0,0,0,0,0,0,0,1,3,4,117,space,4.5105067000004055,None,0,1,0.7267309999997451,None,space,2.0855303999996977,None,0,0,0,0,,,,,9,4,76,6,239.0242400999996,,,,,,,,,,,,,,,,,,,,,239.00914680000005,239.0242400999996,239.50820879999992,239.51297949999935,239.53103529999953,240.27455819999977,,,,,240.2747701999997,240.290164,240.4907945999994,240.47478469999987,239.53103529999953,,,,,,,,0,1,0.7267309999997451,None,,,,,,,,812,23,V,R,2026-02-23_12h14.17.427,VisualSearch_2526_3,,2025.2.4,2026-02-23 12h14.17.613755 +0100,
tilted.xlsx,The target is tilted.,117,77,5,9,1,1,1,1,1,1,1,1,0,0,0,0,0,7,8,117,space,4.5105067000004055,None,1,1,0.9457577000002857,None,space,2.0855303999996977,None,0,0,0,0,,,,,9,5,77,1,240.4907945999994,,,,,,,,,,,,,,,,,,,,,240.4756056999995,240.4907945999994,240.9742897999995,240.97806429999946,240.99281900000005,241.94180919999962,,,,,241.94201470000007,241.9566949,242.15729369999917,242.1413195999994,240.99281900000005,,,,,,,,1,1,0.9457577000002857,None,,,,,,,,812,23,V,R,2026-02-23_12h14.17.427,VisualSearch_2526_3,,2025.2.4,2026-02-23 12h14.17.613755 +0100,
tilted.xlsx,The target is tilted.,117,78,6,9,0,0,0,0,0,0,0,0,0,0,0,0,1,1,1,117,space,4.5105067000004055,None,0,1,0.5985473999999158,None,space,2.0855303999996977,None,0,0,0,0,,,,,9,6,78,7,242.15729369999917,,,,,,,,,,,,,,,,,,,,,242.1421376999997,242.15729369999917,242.6409752999998,242.64547689999927,242.66305439999996,243.27428340000006,,,,,243.27444299999934,243.2898097999996,243.4904377999992,243.47389459999977,242.66305439999996,,,,,,,,0,1,0.5985473999999158,None,,,,,,,,812,23,V,R,2026-02-23_12h14.17.427,VisualSearch_2526_3,,2025.2.4,2026-02-23 12h14.17.613755 +0100,
tilted.xlsx,The target is tilted.,117,79,7,9,1,0,0,0,0,0,0,0,0,0,0,0,0,0,1,117,space,4.5105067000004055,None,1,1,0.6144042999994781,None,space,2.0855303999996977,None,0,0,0,0,,,,,9,7,79,3,243.4904377999992,,,,,,,,,,,,,,,,,,,,,243.4747095999992,243.4904377999992,243.9741108999997,243.97864039999968,243.99481019999985,244.6241003999994,,,,,244.62429629999951,244.63961299999937,244.84024339999996,244.82410619999973,243.99481019999985,,,,,,,,1,1,0.6144042999994781,None,,,,,,,,812,23,V,R,2026-02-23_12h14.17.427,VisualSearch_2526_3,,2025.2.4,2026-02-23 12h14.17.613755 +0100,
tilted.xlsx,The target is tilted.,117,80,0,10,1,1,1,1,1,1,1,1,0,0,0,0,0,7,8,117,space,4.5105067000004055,None,1,1,1.7072435000000041,None,space,2.0855303999996977,None,0,0,0,0,,,,,10,0,80,1,244.84024339999996,,,,,,,,,,,,,,,,,,,,,244.825014,244.84024339999996,245.32384849999926,245.32840149999993,245.34370129999934,247.0575571999998,,,,,247.05777619999935,247.07260329999917,247.27326099999937,247.2572625999992,245.34370129999934,,,,,,,,1,1,1.7072435000000041,None,,,,,,,,812,23,V,R,2026-02-23_12h14.17.427,VisualSearch_2526_3,,2025.2.4,2026-02-23 12h14.17.613755 +0100,
tilted.xlsx,The target is tilted.,117,81,1,10,1,0,0,0,0,0,0,0,0,0,0,0,0,0,1,117,space,4.5105067000004055,None,1,1,0.49795300000005227,None,space,2.0855303999996977,None,0,0,0,0,,,,,10,1,81,3,247.27326099999937,,,,,,,,,,,,,,,,,,,,,247.25818309999977,247.27326099999937,247.75587389999964,247.75780199999917,247.77229859999989,248.27344209999956,,,,,248.27361219999966,248.28904479999983,248.48976969999967,248.47374809999928,247.77229859999989,,,,,,,,1,1,0.49795300000005227,None,,,,,,,,812,23,V,R,2026-02-23_12h14.17.427,VisualSearch_2526_3,,2025.2.4,2026-02-23 12h14.17.613755 +0100,
tilted.xlsx,The target is tilted.,117,82,2,10,0,1,1,1,1,1,1,1,0,0,0,0,1,7,8,117,space,4.5105067000004055,None,0,1,1.796192400000109,None,space,2.0855303999996977,None,0,0,0,0,,,,,10,2,82,5,248.48976969999967,,,,,,,,,,,,,,,,,,,,,248.4745815999995,248.48976969999967,248.97353179999936,248.97863599999982,248.9951631999993,250.8055728999998,,,,,250.80567979999978,250.8224197999998,,251.00613350000003,248.9951631999993,,,,,,,,0,1,1.796192400000109,None,,,,,,,,812,23,V,R,2026-02-23_12h14.17.427,VisualSearch_2526_3,,2025.2.4,2026-02-23 12h14.17.613755 +0100,
tilted.xlsx,The target is tilted.,117,83,3,10,1,1,1,1,1,1,1,1,1,1,1,1,0,11,12,117,space,4.5105067000004055,None,1,1,1.4136066999999457,None,space,2.0855303999996977,None,0,0,0,0,,,,,10,3,83,0,251.0226430999992,,,,,,,,,,,,,,,,,,,,,251.00695109999924,251.0226430999992,251.50600549999945,251.51079619999928,251.52919479999946,252.9562888999999,,,,,252.95649009999943,252.9718395,253.17225009999947,253.1560600999992,,,,,,,,,1,1,1.4136066999999457,None,,,,,,,,812,23,V,R,2026-02-23_12h14.17.427,VisualSearch_2526_3,,2025.2.4,2026-02-23 12h14.17.613755 +0100,
tilted.xlsx,The target is tilted.,117,84,4,10,0,0,0,0,0,0,0,0,0,0,0,0,1,1,1,117,space,4.5105067000004055,None,0,1,0.678282500000023,None,space,2.0855303999996977,None,0,0,0,0,,,,,10,4,84,7,253.17225009999947,,,,,,,,,,,,,,,,,,,,,253.15687329999946,253.17225009999947,253.6560045999995,253.6606222999999,253.67645809999976,254.35638369999924,,,,,254.35655889999998,254.37207489999946,254.5717236999999,254.5556300999997,253.67645809999976,,,,,,,,0,1,0.678282500000023,None,,,,,,,,812,23,V,R,2026-02-23_12h14.17.427,VisualSearch_2526_3,,2025.2.4,2026-02-23 12h14.17.613755 +0100,
tilted.xlsx,The target is tilted.,117,85,5,10,0,1,1,1,0,0,0,0,0,0,0,0,1,3,4,117,space,4.5105067000004055,None,0,1,1.0339899000000514,None,space,2.0855303999996977,None,0,0,0,0,,,,,10,5,85,6,254.5717236999999,,,,,,,,,,,,,,,,,,,,,254.5563648999996,254.5717236999999,255.05587249999917,255.06043640000007,255.0770825999998,256.1229908999994,,,,,256.1231842999996,256.1382393999993,256.3385260999994,256.3225773999993,255.0770825999998,,,,,,,,0,1,1.0339899000000514,None,,,,,,,,812,23,V,R,2026-02-23_12h14.17.427,VisualSearch_2526_3,,2025.2.4,2026-02-23 12h14.17.613755 +0100,
tilted.xlsx,The target is tilted.,117,86,6,10,1,1,1,1,0,0,0,0,0,0,0,0,0,3,4,117,space,4.5105067000004055,None,1,1,0.8564540999996098,None,space,2.0855303999996977,None,0,0,0,0,,,,,10,6,86,2,256.3385260999994,,,,,,,,,,,,,,,,,,,,,256.32338099999924,256.3385260999994,256.82249239999965,256.8278338,256.84432339999967,257.70597969999926,,,,,257.7061765999997,257.7216209999997,257.9216074999995,257.9051507999993,256.84432339999967,,,,,,,,1,1,0.8564540999996098,None,,,,,,,,812,23,V,R,2026-02-23_12h14.17.427,VisualSearch_2526_3,,2025.2.4,2026-02-23 12h14.17.613755 +0100,
tilted.xlsx,The target is tilted.,117,87,7,10,0,1,1,1,1,1,1,1,1,1,1,1,1,11,12,117,space,4.5105067000004055,None,0,1,2.615264500000194,None,space,2.0855303999996977,None,0,0,0,0,,,,,10,7,87,4,257.9216074999995,,,,,,,,,,,,,,,,,,,,,257.90587999999934,257.9216074999995,258.4053862999999,258.4099252999995,258.4264672999998,261.0554100999998,,,,,261.05560759999935,261.07086419999996,261.2713236999998,261.25511299999926,258.4264672999998,,,,,,,,0,1,2.615264500000194,None,,,,,,,,812,23,V,R,2026-02-23_12h14.17.427,VisualSearch_2526_3,,2025.2.4,2026-02-23 12h14.17.613755 +0100,
tilted.xlsx,The target is tilted.,117,88,0,11,1,0,0,0,0,0,0,0,0,0,0,0,0,0,1,117,space,4.5105067000004055,None,1,1,0.678682700000536,None,space,2.0855303999996977,None,0,0,0,0,,,,,11,0,88,3,261.2713236999998,,,,,,,,,,,,,,,,,,,,,261.2559197999999,261.2713236999998,261.7550420999996,261.7599993999993,261.77804429999924,262.4719298,,,,,262.4721084999992,262.4874559,262.6875192999996,262.6712048999998,261.77804429999924,,,,,,,,1,1,0.678682700000536,None,,,,,,,,812,23,V,R,2026-02-23_12h14.17.427,VisualSearch_2526_3,,2025.2.4,2026-02-23 12h14.17.613755 +0100,
tilted.xlsx,The target is tilted.,117,89,1,11,0,1,1,1,0,0,0,0,0,0,0,0,1,3,4,117,space,4.5105067000004055,None,0,1,0.9176267999991978,None,space,2.0855303999996977,None,0,0,0,0,,,,,11,1,89,6,262.6875192999996,,,,,,,,,,,,,,,,,,,,,262.67200259999936,262.6875192999996,263.1714594999994,263.17593809999926,263.1925820999995,264.1222674999999,,,,,264.12256439999965,264.13704249999955,264.33747330000006,264.3214055999997,263.1925820999995,,,,,,,,0,1,0.9176267999991978,None,,,,,,,,812,23,V,R,2026-02-23_12h14.17.427,VisualSearch_2526_3,,2025.2.4,2026-02-23 12h14.17.613755 +0100,
tilted.xlsx,The target is tilted.,117,90,2,11,1,1,1,1,1,1,1,1,1,1,1,1,0,11,12,117,space,4.5105067000004055,None,0,0,3.50323329999992,None,space,2.0855303999996977,None,0,0,0,0,,,,,11,2,90,0,264.33747330000006,,,,,,,,,,,,,,,,,,,,,264.3222311999998,264.33747330000006,264.8211431999998,264.8256352999997,264.84383479999997,268.3541347999999,,,,,268.3543388999997,268.36997209999936,268.5700950999999,268.5537758999999,264.84383479999997,,,,,,,,0,0,3.50323329999992,None,,,,,,,,812,23,V,R,2026-02-23_12h14.17.427,VisualSearch_2526_3,,2025.2.4,2026-02-23 12h14.17.613755 +0100,
tilted.xlsx,The target is tilted.,117,91,3,11,1,1,1,1,0,0,0,0,0,0,0,0,0,3,4,117,space,4.5105067000004055,None,1,1,1.3129342999991422,None,space,2.0855303999996977,None,0,0,0,0,,,,,11,3,91,2,268.5700950999999,,,,,,,,,,,,,,,,,,,,,268.55465709999953,268.5700950999999,269.05385859999933,269.0590917999998,269.07749559999957,270.4043062999999,,,,,270.40450429999964,270.4197228999992,270.6199024999996,270.60384109999995,269.07749559999957,,,,,,,,1,1,1.3129342999991422,None,,,,,,,,812,23,V,R,2026-02-23_12h14.17.427,VisualSearch_2526_3,,2025.2.4,2026-02-23 12h14.17.613755 +0100,
tilted.xlsx,The target is tilted.,117,92,4,11,0,1,1,1,1,1,1,1,1,1,1,1,1,11,12,117,space,4.5105067000004055,None,0,1,3.1369599999998172,None,space,2.0855303999996977,None,0,0,0,0,,,,,11,4,92,4,270.6199024999996,,,,,,,,,,,,,,,,,,,,,270.60463529999925,270.6199024999996,271.1035938999994,271.1081947999992,271.12395339999966,274.2698821999993,,,,,274.27001779999955,274.2859372999992,274.48592479999934,274.4698559999997,271.12395339999966,,,,,,,,0,1,3.1369599999998172,None,,,,,,,,812,23,V,R,2026-02-23_12h14.17.427,VisualSearch_2526_3,,2025.2.4,2026-02-23 12h14.17.613755 +0100,
tilted.xlsx,The target is tilted.,117,93,5,11,0,1,1,1,1,1,1,1,0,0,0,0,1,7,8,117,space,4.5105067000004055,None,0,1,2.6589124000001902,None,space,2.0855303999996977,None,0,0,0,0,,,,,11,5,93,5,274.48592479999934,,,,,,,,,,,,,,,,,,,,,274.4706897999995,274.48592479999934,274.96981499999947,274.97487060000003,274.9910676999998,277.6532475999993,,,,,277.6534468,277.66868579999937,277.8688508999994,277.8527021,274.9910676999998,,,,,,,,0,1,2.6589124000001902,None,,,,,,,,812,23,V,R,2026-02-23_12h14.17.427,VisualSearch_2526_3,,2025.2.4,2026-02-23 12h14.17.613755 +0100,
tilted.xlsx,The target is tilted.,117,94,6,11,1,1,1,1,1,1,1,1,0,0,0,0,0,7,8,117,space,4.5105067000004055,None,1,1,2.1872128999993947,None,space,2.0855303999996977,None,0,0,0,0,,,,,11,6,94,1,277.8688508999994,,,,,,,,,,,,,,,,,,,,,277.85352479999983,277.8688508999994,278.3525164999992,278.3570308999997,278.3737465999993,280.5695315999992,,,,,280.5697287999992,280.5846120999995,280.78462689999924,280.7691396,278.3737465999993,,,,,,,,1,1,2.1872128999993947,None,,,,,,,,812,23,V,R,2026-02-23_12h14.17.427,VisualSearch_2526_3,,2025.2.4,2026-02-23 12h14.17.613755 +0100,
tilted.xlsx,The target is tilted.,117,95,7,11,0,0,0,0,0,0,0,0,0,0,0,0,1,1,1,117,space,4.5105067000004055,None,0,1,1.077106100000492,None,space,2.0855303999996977,None,0,0,0,0,,,,,11,7,95,7,280.78462689999924,,,,,,,,,,,,,,,,,,,,,280.77046900000005,280.78462689999924,281.2689834999992,281.2750260999992,281.2895359999993,282.36926909999966,,,,,282.3694624999998,282.38471759999993,282.58477259999927,282.5688833999993,281.2895359999993,,,,,,,,0,1,1.077106100000492,None,,,,,,,,812,23,V,R,2026-02-23_12h14.17.427,VisualSearch_2526_3,,2025.2.4,2026-02-23 12h14.17.613755 +0100,
tilted.xlsx,The target is tilted.,117,96,0,12,0,1,1,1,0,0,0,0,0,0,0,0,1,3,4,117,space,4.5105067000004055,None,0,1,0.978433700000096,None,space,2.0855303999996977,None,0,0,0,0,,,,,12,0,96,6,282.58477259999927,,,,,,,,,,,,,,,,,,,,,282.5698165999993,282.58477259999927,283.0686134999996,283.07326269999976,283.09027349999997,284.08536339999955,,,,,284.08556299999964,284.1010583999996,284.3007504999996,284.28516989999935,283.09027349999997,,,,,,,,0,1,0.978433700000096,None,,,,,,,,812,23,V,R,2026-02-23_12h14.17.427,VisualSearch_2526_3,,2025.2.4,2026-02-23 12h14.17.613755 +0100,
tilted.xlsx,The target is tilted.,117,97,1,12,1,0,0,0,0,0,0,0,0,0,0,0,0,0,1,117,space,4.5105067000004055,None,1,1,0.6866086999998515,None,space,2.0855303999996977,None,0,0,0,0,,,,,12,1,97,3,284.3007504999996,,,,,,,,,,,,,,,,,,,,,284.28597420000006,284.3007504999996,284.7844247999992,284.78652169999987,284.8009118,285.50211969999964,,,,,285.50231769999937,285.51759739999943,285.7177179,285.7015073999992,284.8009118,,,,,,,,1,1,0.6866086999998515,None,,,,,,,,812,23,V,R,2026-02-23_12h14.17.427,VisualSearch_2526_3,,2025.2.4,2026-02-23 12h14.17.613755 +0100,
tilted.xlsx,The target is tilted.,117,98,2,12,0,1,1,1,1,1,1,1,1,1,1,1,1,11,12,117,space,4.5105067000004055,None,0,1,2.4917419000003065,None,space,2.0855303999996977,None,0,0,0,0,,,,,12,2,98,4,285.7177179,,,,,,,,,,,,,,,,,,,,,285.70230919999995,285.7177179,286.20170749999943,286.2100612999993,286.22575759999927,288.73422409999966,,,,,288.7343586999996,288.75053019999996,288.9505266999995,288.9342167999994,286.22575759999927,,,,,,,,0,1,2.4917419000003065,None,,,,,,,,812,23,V,R,2026-02-23_12h14.17.427,VisualSearch_2526_3,,2025.2.4,2026-02-23 12h14.17.613755 +0100,
tilted.xlsx,The target is tilted.,117,99,3,12,0,0,0,0,0,0,0,0,0,0,0,0,1,1,1,117,space,4.5105067000004055,None,0,1,0.7432195999999749,None,space,2.0855303999996977,None,0,0,0,0,,,,,12,3,99,7,288.9505266999995,,,,,,,,,,,,,,,,,,,,,288.93506909999996,288.9505266999995,289.4340478999993,289.43896700000005,289.4553853999996,290.2006750999999,,,,,290.2008128999996,290.2168339,290.41697849999946,290.4008940999993,289.4553853999996,,,,,,,,0,1,0.7432195999999749,None,,,,,,,,812,23,V,R,2026-02-23_12h14.17.427,VisualSearch_2526_3,,2025.2.4,2026-02-23 12h14.17.613755 +0100,
tilted.xlsx,The target is tilted.,117,100,4,12,1,1,1,1,0,0,0,0,0,0,0,0,0,3,4,117,space,4.5105067000004055,None,0,0,1.1501862999994046,None,space,2.0855303999996977,None,0,0,0,0,,,,,12,4,100,2,290.41697849999946,,,,,,,,,,,,,,,,,,,,,290.4016316999996,290.41697849999946,290.9009376999993,290.9060894999993,290.9223112999998,292.0836296999996,,,,,292.0837079999992,292.0998336999992,292.2996583999993,292.284079,290.9223112999998,,,,,,,,0,0,1.1501862999994046,None,,,,,,,,812,23,V,R,2026-02-23_12h14.17.427,VisualSearch_2526_3,,2025.2.4,2026-02-23 12h14.17.613755 +0100,
tilted.xlsx,The target is tilted.,117,101,5,12,0,1,1,1,1,1,1,1,0,0,0,0,1,7,8,117,space,4.5105067000004055,None,0,1,3.696904999999788,None,space,2.0855303999996977,None,0,0,0,0,,,,,12,5,101,5,292.2996583999993,,,,,,,,,,,,,,,,,,,,,292.28501139999935,292.2996583999993,292.78385549999985,292.7891131999995,292.80610479999996,296.5171649999993,,,,,296.5173714999992,296.53271009999935,296.73232329999973,296.7165009999999,292.80610479999996,,,,,,,,0,1,3.696904999999788,None,,,,,,,,812,23,V,R,2026-02-23_12h14.17.427,VisualSearch_2526_3,,2025.2.4,2026-02-23 12h14.17.613755 +0100,
tilted.xlsx,The target is tilted.,117,102,6,12,1,1,1,1,1,1,1,1,0,0,0,0,0,7,8,117,space,4.5105067000004055,None,1,1,1.1337176000006366,None,space,2.0855303999996977,None,0,0,0,0,,,,,12,6,102,1,296.73232329999973,,,,,,,,,,,,,,,,,,,,,296.71731739999996,296.73232329999973,297.2162413999995,297.2207451999993,297.2364018999997,298.3832816999993,,,,,298.38347429999976,298.3990197999992,298.5991908999995,298.5829890999994,297.2364018999997,,,,,,,,1,1,1.1337176000006366,None,,,,,,,,812,23,V,R,2026-02-23_12h14.17.427,VisualSearch_2526_3,,2025.2.4,2026-02-23 12h14.17.613755 +0100,
tilted.xlsx,The target is tilted.,117,103,7,12,1,1,1,1,1,1,1,1,1,1,1,1,0,11,12,117,space,4.5105067000004055,None,1,1,4.997377400000005,None,space,2.0855303999996977,None,0,0,0,0,,,,,12,7,103,0,298.5991908999995,,,,,,,,,,,,,,,,,,,,,298.58376359999966,298.5991908999995,299.08312019999994,299.0883024999994,299.09897399999954,304.0994462999997,,,,,304.09964129999935,304.1148604,304.3149346,304.29891399999997,299.09897399999954,,,,,,,,1,1,4.997377400000005,None,,,,,,,,812,23,V,R,2026-02-23_12h14.17.427,VisualSearch_2526_3,,2025.2.4,2026-02-23 12h14.17.613755 +0100,
tilted.xlsx,The target is tilted.,117,104,0,13,0,0,0,0,0,0,0,0,0,0,0,0,1,1,1,117,space,4.5105067000004055,None,0,1,0.6783576000007088,None,space,2.0855303999996977,None,0,0,0,0,,,,,13,0,104,7,304.3149346,,,,,,,,,,,,,,,,,,,,,304.2996250999995,304.3149346,304.7987568999997,304.8033448999995,304.81887089999964,305.4991108999993,,,,,305.4992861999999,305.5147892999994,305.7148336,305.69848359999924,304.81887089999964,,,,,,,,0,1,0.6783576000007088,None,,,,,,,,812,23,V,R,2026-02-23_12h14.17.427,VisualSearch_2526_3,,2025.2.4,2026-02-23 12h14.17.613755 +0100,
tilted.xlsx,The target is tilted.,117,105,1,13,1,0,0,0,0,0,0,0,0,0,0,0,0,0,1,117,space,4.5105067000004055,None,1,1,0.657025600000452,None,space,2.0855303999996977,None,0,0,0,0,,,,,13,1,105,3,305.7148336,,,,,,,,,,,,,,,,,,,,,305.6992083999994,305.7148336,306.1986855999994,306.2036245999998,306.2204165999992,306.8824128999995,,,,,306.8826107999994,306.8979077999993,307.0979078999999,307.0820666999998,306.2204165999992,,,,,,,,1,1,0.657025600000452,None,,,,,,,,812,23,V,R,2026-02-23_12h14.17.427,VisualSearch_2526_3,,2025.2.4,2026-02-23 12h14.17.613755 +0100,
tilted.xlsx,The target is tilted.,117,106,2,13,1,1,1,1,1,1,1,1,0,0,0,0,0,7,8,117,space,4.5105067000004055,None,1,1,2.9595908000001145,None,space,2.0855303999996977,None,0,0,0,0,,,,,13,2,106,1,307.0979078999999,,,,,,,,,,,,,,,,,,,,,307.0828781,307.0979078999999,307.58189969999967,307.58687740000005,307.60325190000003,310.56517019999956,,,,,310.5653823999992,310.5807638999995,310.780487,310.76439949999985,307.60325190000003,,,,,,,,1,1,2.9595908000001145,None,,,,,,,,812,23,V,R,2026-02-23_12h14.17.427,VisualSearch_2526_3,,2025.2.4,2026-02-23 12h14.17.613755 +0100,
tilted.xlsx,The target is tilted.,117,107,3,13,0,1,1,1,0,0,0,0,0,0,0,0,1,3,4,117,space,4.5105067000004055,None,0,1,0.7654619000004459,None,space,2.0855303999996977,None,0,0,0,0,,,,,13,3,107,6,310.780487,,,,,,,,,,,,,,,,,,,,,310.76533179999933,310.780487,311.26438099999996,311.2694832999996,311.2857961999998,312.0644192,,,,,312.06455819999974,312.08039239999925,312.28064619999986,312.2644870999993,311.2857961999998,,,,,,,,0,1,0.7654619000004459,None,,,,,,,,812,23,V,R,2026-02-23_12h14.17.427,VisualSearch_2526_3,,2025.2.4,2026-02-23 12h14.17.613755 +0100,
tilted.xlsx,The target is tilted.,117,108,4,13,0,1,1,1,1,1,1,1,0,0,0,0,1,7,8,117,space,4.5105067000004055,None,1,0,1.6112404999994396,None,space,2.0855303999996977,None,0,0,0,0,,,,,13,4,108,5,312.28064619999986,,,,,,,,,,,,,,,,,,,,,312.26532509999925,312.28064619999986,312.76416319999953,312.7693600999992,312.78201979999994,314.39763799999946,,,,,314.39783420000003,314.41319229999954,314.6133626000001,314.5971377999995,312.78201979999994,,,,,,,,1,0,1.6112404999994396,None,,,,,,,,812,23,V,R,2026-02-23_12h14.17.427,VisualSearch_2526_3,,2025.2.4,2026-02-23 12h14.17.613755 +0100,
tilted.xlsx,The target is tilted.,117,109,5,13,1,1,1,1,1,1,1,1,1,1,1,1,0,11,12,117,space,4.5105067000004055,None,1,1,4.265827899999749,None,space,2.0855303999996977,None,0,0,0,0,,,,,13,5,109,0,314.6133626000001,,,,,,,,,,,,,,,,,,,,,314.5979783999992,314.6133626000001,315.0967127999993,315.10122669999964,315.11913529999947,319.3972268999996,,,,,319.39742429999933,319.4124818,319.6126129999993,319.5969376999992,315.11913529999947,,,,,,,,1,1,4.265827899999749,None,,,,,,,,812,23,V,R,2026-02-23_12h14.17.427,VisualSearch_2526_3,,2025.2.4,2026-02-23 12h14.17.613755 +0100,
tilted.xlsx,The target is tilted.,117,110,6,13,0,1,1,1,1,1,1,1,1,1,1,1,1,11,12,117,space,4.5105067000004055,None,0,1,4.718027199999597,None,space,2.0855303999996977,None,0,0,0,0,,,,,13,6,110,4,319.6126129999993,,,,,,,,,,,,,,,,,,,,,319.5977428999995,319.6126129999993,320.09634109999934,320.10085999999956,320.1173675,324.8460906,,,,,324.84626539999954,324.86198389999936,325.06211299999995,325.04599489999964,320.1173675,,,,,,,,0,1,4.718027199999597,None,,,,,,,,812,23,V,R,2026-02-23_12h14.17.427,VisualSearch_2526_3,,2025.2.4,2026-02-23 12h14.17.613755 +0100,
tilted.xlsx,The target is tilted.,117,111,7,13,1,1,1,1,0,0,0,0,0,0,0,0,0,3,4,117,space,4.5105067000004055,None,1,1,1.155941900000471,None,space,2.0855303999996977,None,0,0,0,0,,,,,13,7,111,2,325.06211299999995,,,,,,,,,,,,,,,,,,,,,325.0468757999997,325.06211299999995,325.54594279999947,325.55115339999975,325.5689737999992,326.7292418999996,,,,,326.7294362999992,326.74488089999977,326.9450558999997,326.92898220000006,325.5689737999992,,,,,,,,1,1,1.155941900000471,None,,,,,,,,812,23,V,R,2026-02-23_12h14.17.427,VisualSearch_2526_3,,2025.2.4,2026-02-23 12h14.17.613755 +0100,
tilted.xlsx,The target is tilted.,117,112,0,14,1,1,1,1,0,0,0,0,0,0,0,0,0,3,4,117,space,4.5105067000004055,None,0,0,0.7962016999999832,None,space,2.0855303999996977,None,0,0,0,0,,,,,14,0,112,2,326.9450558999997,,,,,,,,,,,,,,,,,,,,,326.92969209999956,326.9450558999997,327.4285143999996,327.4330837999996,327.4508372999999,328.2626416999992,,,,,328.2628386999995,328.2781165999995,328.4779884999998,328.46175389999917,327.4508372999999,,,,,,,,0,0,0.7962016999999832,None,,,,,,,,812,23,V,R,2026-02-23_12h14.17.427,VisualSearch_2526_3,,2025.2.4,2026-02-23 12h14.17.613755 +0100,
tilted.xlsx,The target is tilted.,117,113,1,14,0,1,1,1,0,0,0,0,0,0,0,0,1,3,4,117,space,4.5105067000004055,None,0,1,1.1274618999996164,None,space,2.0855303999996977,None,0,0,0,0,,,,,14,1,113,6,328.4779884999998,,,,,,,,,,,,,,,,,,,,,328.4625569,328.4779884999998,328.96178579999923,328.96698109999943,328.9827828999996,330.11247229999935,,,,,330.1127067999996,330.12793579999925,330.3279791999994,330.31178159999945,328.9827828999996,,,,,,,,0,1,1.1274618999996164,None,,,,,,,,812,23,V,R,2026-02-23_12h14.17.427,VisualSearch_2526_3,,2025.2.4,2026-02-23 12h14.17.613755 +0100,
tilted.xlsx,The target is tilted.,117,114,2,14,1,0,0,0,0,0,0,0,0,0,0,0,0,0,1,117,space,4.5105067000004055,None,1,1,0.7092235000000073,None,space,2.0855303999996977,None,0,0,0,0,,,,,14,2,114,3,330.3279791999994,,,,,,,,,,,,,,,,,,,,,330.3125106999996,330.3279791999994,330.81172869999955,330.81624029999966,330.83157609999944,331.54522,,,,,331.5454155999996,331.5610797999998,331.76104719999967,331.74477639999986,330.83157609999944,,,,,,,,1,1,0.7092235000000073,None,,,,,,,,812,23,V,R,2026-02-23_12h14.17.427,VisualSearch_2526_3,,2025.2.4,2026-02-23 12h14.17.613755 +0100,
tilted.xlsx,The target is tilted.,117,115,3,14,0,1,1,1,1,1,1,1,0,0,0,0,1,7,8,117,space,4.5105067000004055,None,0,1,3.4022399999994377,None,space,2.0855303999996977,None,0,0,0,0,,,,,14,3,115,5,331.76104719999967,,,,,,,,,,,,,,,,,,,,,331.7455113999995,331.76104719999967,332.2449141999996,332.24951039999996,332.2650348999996,335.6783003999999,,,,,335.67851879999944,335.69367389999934,335.8935922999999,335.87781579999955,332.2650348999996,,,,,,,,0,1,3.4022399999994377,None,,,,,,,,812,23,V,R,2026-02-23_12h14.17.427,VisualSearch_2526_3,,2025.2.4,2026-02-23 12h14.17.613755 +0100,
tilted.xlsx,The target is tilted.,117,116,4,14,0,0,0,0,0,0,0,0,0,0,0,0,1,1,1,117,space,4.5105067000004055,None,0,1,0.8131704000006721,None,space,2.0855303999996977,None,0,0,0,0,,,,,14,4,116,7,335.8935922999999,,,,,,,,,,,,,,,,,,,,,335.8786943999994,335.8935922999999,336.37773339999967,336.3826454,336.3999629,337.22859029999927,,,,,337.2289046999995,337.24332869999944,337.4434744,337.4275885999996,336.3999629,,,,,,,,0,1,0.8131704000006721,None,,,,,,,,812,23,V,R,2026-02-23_12h14.17.427,VisualSearch_2526_3,,2025.2.4,2026-02-23 12h14.17.613755 +0100,
tilted.xlsx,The target is tilted.,117,117,5,14,1,1,1,1,1,1,1,1,0,0,0,0,0,7,8,117,space,4.5105067000004055,None,1,1,4.43824880000011,None,space,2.0855303999996977,None,0,0,0,0,,,,,14,5,117,1,337.4434744,,,,,,,,,,,,,,,,,,,,,337.42841709999993,337.4434744,337.9274639999994,337.9323913999997,337.94767109999975,342.3939825999996,,,,,342.39418039999964,342.40939829999934,342.6095988999996,342.59360359999937,337.94767109999975,,,,,,,,1,1,4.43824880000011,None,,,,,,,,812,23,V,R,2026-02-23_12h14.17.427,VisualSearch_2526_3,,2025.2.4,2026-02-23 12h14.17.613755 +0100,
tilted.xlsx,The target is tilted.,117,118,6,14,0,1,1,1,1,1,1,1,1,1,1,1,1,11,12,117,space,4.5105067000004055,None,0,1,3.579149099999995,None,space,2.0855303999996977,None,0,0,0,0,,,,,14,6,118,4,342.6095988999996,,,,,,,,,,,,,,,,,,,,,342.5944273999994,342.6095988999996,343.0934344999996,343.09861569999975,343.11451709999983,346.7100576999992,,,,,346.71035219999976,346.72556480000003,346.9255633999992,346.90944259999924,343.11451709999983,,,,,,,,0,1,3.579149099999995,None,,,,,,,,812,23,V,R,2026-02-23_12h14.17.427,VisualSearch_2526_3,,2025.2.4,2026-02-23 12h14.17.613755 +0100,
tilted.xlsx,The target is tilted.,117,119,7,14,1,1,1,1,1,1,1,1,1,1,1,1,0,11,12,117,space,4.5105067000004055,None,1,1,2.3101599000001443,None,space,2.0855303999996977,None,0,0,0,0,,,,,14,7,119,0,346.9255633999992,,,,,,,,,,,,,,,,,,,,,346.9101581999994,346.9255633999992,347.4087148999997,347.41179159999956,347.42497189999995,349.7430349999995,,,,,349.7432497,349.7580419999995,349.9742802999999,349.94232250000005,347.42497189999995,,,,,,,,1,1,2.3101599000001443,None,,,,,,,,812,23,V,R,2026-02-23_12h14.17.427,VisualSearch_2526_3,,2025.2.4,2026-02-23 12h14.17.613755 +0100,
tilted.xlsx,The target is tilted.,117,0,0,0,,,,,,,,,,,,,,,,,space,4.5105067000004055,None,,,,,space,2.0855303999996977,None,0,0,0,0,,,,,,,,,,,,,,,,,,,,,,,,,,,,,,,,,,,,,,,,,,,,,,,,,,,,,,,,,,,,,,,812,23,V,R,2026-02-23_12h14.17.427,VisualSearch_2526_3,,2025.2.4,2026-02-23 12h14.17.613755 +0100,
vertical.xlsx,The target is tilted.,135,0,0,0,1,0,0,0,0,0,0,0,0,0,0,0,0,0,1,135,space,9.036223000000064,None,1,1,0.6087743999996746,None,,,,0,1,1,1,0,0,0,3,,,,,359.05459789999986,,,,,,,,,,,,,,,349.9742802999999,349.9742802999999,349.9742802999999,space,9.036223000000064,None,359.05028989999937,359.05459789999986,359.5406875999997,359.5458104999998,359.56285899999966,360.1747747999998,1,1,0.6087743999996746,None,360.1749700999999,360.1900201999997,360.3902044999995,360.37387429999944,,,,,,,,,,,,,,,,,,,,812,23,V,R,2026-02-23_12h14.17.427,VisualSearch_2526_3,,2025.2.4,2026-02-23 12h14.17.613755 +0100,
vertical.xlsx,The target is tilted.,135,1,1,0,0,1,1,1,1,1,1,1,1,1,1,1,1,11,12,135,space,9.036223000000064,None,0,1,1.9719309000001886,None,,,,0,1,1,1,0,1,1,4,,,,,360.3902044999995,,,,,,,,,,,,,,,,,,,,,360.37453969999933,360.3902044999995,360.87383619999946,360.87833520000004,360.8970434999992,362.87425819999953,0,1,1.9719309000001886,None,362.8744478999997,362.8899103999993,363.0895314999998,363.0740452,360.8970434999992,,,,,,,,,,,,,,,,,,,812,23,V,R,2026-02-23_12h14.17.427,VisualSearch_2526_3,,2025.2.4,2026-02-23 12h14.17.613755 +0100,
vertical.xlsx,The target is tilted.,135,2,2,0,0,1,1,1,1,1,1,1,0,0,0,0,1,7,8,135,space,9.036223000000064,None,0,1,1.9334490999999616,None,,,,0,1,1,1,0,2,2,5,,,,,363.0895314999998,,,,,,,,,,,,,,,,,,,,,363.07478749999973,363.0895314999998,363.57387709999966,363.5787529999998,363.59513219999917,365.54065959999934,0,1,1.9334490999999616,None,365.540849,365.5562162999995,365.75572479999937,365.7400267999992,363.59513219999917,,,,,,,,,,,,,,,,,,,812,23,V,R,2026-02-23_12h14.17.427,VisualSearch_2526_3,,2025.2.4,2026-02-23 12h14.17.613755 +0100,
vertical.xlsx,The target is tilted.,135,3,3,0,1,1,1,1,0,0,0,0,0,0,0,0,0,3,4,135,space,9.036223000000064,None,1,1,0.7205503999994107,None,,,,0,1,1,1,0,3,3,2,,,,,365.75572479999937,,,,,,,,,,,,,,,,,,,,,365.74069770000006,365.75572479999937,366.2401368000001,366.24489599999924,366.2622950999994,366.9901805999998,1,1,0.7205503999994107,None,366.9903655999997,367.0059849999998,367.20597349999935,367.1897506999994,366.2622950999994,,,,,,,,,,,,,,,,,,,812,23,V,R,2026-02-23_12h14.17.427,VisualSearch_2526_3,,2025.2.4,2026-02-23 12h14.17.613755 +0100,
vertical.xlsx,The target is tilted.,135,4,4,0,1,1,1,1,1,1,1,1,0,0,0,0,0,7,8,135,space,9.036223000000064,None,0,0,1.3402980999999272,None,,,,0,1,1,1,0,4,4,1,,,,,367.20597349999935,,,,,,,,,,,,,,,,,,,,,367.1904384999998,367.20597349999935,367.69003089999933,367.69521469999927,367.7129327999992,369.0565719999995,0,0,1.3402980999999272,None,369.05676309999944,369.07237069999974,369.2724187999993,369.2562724999998,367.7129327999992,,,,,,,,,,,,,,,,,,,812,23,V,R,2026-02-23_12h14.17.427,VisualSearch_2526_3,,2025.2.4,2026-02-23 12h14.17.613755 +0100,
vertical.xlsx,The target is tilted.,135,5,5,0,1,1,1,1,1,1,1,1,1,1,1,1,0,11,12,135,space,9.036223000000064,None,1,1,1.5274868999995306,None,,,,0,1,1,1,0,5,5,0,,,,,369.2724187999993,,,,,,,,,,,,,,,,,,,,,369.2569268999996,369.2724187999993,369.7560518,369.7606290999993,369.7762681999993,371.30639749999955,1,1,1.5274868999995306,None,371.30658389999917,371.3220335999995,371.52210990000003,371.5061111999994,369.7762681999993,,,,,,,,,,,,,,,,,,,812,23,V,R,2026-02-23_12h14.17.427,VisualSearch_2526_3,,2025.2.4,2026-02-23 12h14.17.613755 +0100,
vertical.xlsx,The target is tilted.,135,6,6,0,0,1,1,1,0,0,0,0,0,0,0,0,1,3,4,135,space,9.036223000000064,None,0,1,0.7049999999999272,None,,,,0,1,1,1,0,6,6,6,,,,,371.52210990000003,,,,,,,,,,,,,,,,,,,,,371.5068483999994,371.52210990000003,372.0057299,372.0108365999995,372.0270376999997,372.7391748,0,1,0.7049999999999272,None,372.73930629999995,372.75506399999995,372.95517539999946,372.9392156999993,372.0270376999997,,,,,,,,,,,,,,,,,,,812,23,V,R,2026-02-23_12h14.17.427,VisualSearch_2526_3,,2025.2.4,2026-02-23 12h14.17.613755 +0100,
vertical.xlsx,The target is tilted.,135,7,7,0,0,0,0,0,0,0,0,0,0,0,0,0,1,1,1,135,space,9.036223000000064,None,0,1,0.5838227000003826,None,,,,0,1,1,1,0,7,7,7,,,,,372.95517539999946,,,,,,,,,,,,,,,,,,,,,372.93995339999947,372.95517539999946,373.43899220000003,373.44380529999944,373.4615492999992,374.05587509999987,0,1,0.5838227000003826,None,374.0560435999996,374.0714337999998,374.2711786,374.2556255999998,373.4615492999992,,,,,,,,,,,,,,,,,,,812,23,V,R,2026-02-23_12h14.17.427,VisualSearch_2526_3,,2025.2.4,2026-02-23 12h14.17.613755 +0100,
vertical.xlsx,The target is tilted.,135,0,0,0,1,1,1,1,1,1,1,1,0,0,0,0,0,7,8,135,space,9.036223000000064,None,1,1,1.5434889000007388,None,space,1.441868400000203,None,0,1,1,1,,,,,0,0,0,1,375.75424419999945,,,,,,,,,,,,,,,,,,,,,375.75003039999956,375.75424419999945,376.2383200999993,376.24293169999964,376.2583010999997,377.80527959999927,,,,,377.8054764999997,377.8209844999992,378.02071029999934,378.0051134999994,,374.2627969999994,374.2711786,374.2711786,375.7223280999997,space,1.441868400000203,None,1,1,1.5434889000007388,None,,,,,,,,812,23,V,R,2026-02-23_12h14.17.427,VisualSearch_2526_3,,2025.2.4,2026-02-23 12h14.17.613755 +0100,
vertical.xlsx,The target is tilted.,135,1,1,0,1,1,1,1,0,0,0,0,0,0,0,0,0,3,4,135,space,9.036223000000064,None,1,1,0.7881508999998914,None,space,1.441868400000203,None,0,1,1,1,,,,,0,1,1,2,378.02071029999934,,,,,,,,,,,,,,,,,,,,,378.0059160999999,378.02071029999934,378.5048922999995,378.5099995999999,378.52699119999943,379.3224803999992,,,,,379.32268939999994,379.33727289999933,379.5374432999997,379.5211583,378.52699119999943,,,,,,,,1,1,0.7881508999998914,None,,,,,,,,812,23,V,R,2026-02-23_12h14.17.427,VisualSearch_2526_3,,2025.2.4,2026-02-23 12h14.17.613755 +0100,
vertical.xlsx,The target is tilted.,135,2,2,0,0,0,0,0,0,0,0,0,0,0,0,0,1,1,1,135,space,9.036223000000064,None,0,1,0.5759179000006043,None,space,1.441868400000203,None,0,1,1,1,,,,,0,2,2,7,379.5374432999997,,,,,,,,,,,,,,,,,,,,,379.52196339999955,379.5374432999997,380.0214391999998,380.0263110999995,380.0427915,380.6218743999998,,,,,380.62206699999933,380.6374079999996,380.83742989999973,380.82092699999976,380.0427915,,,,,,,,0,1,0.5759179000006043,None,,,,,,,,812,23,V,R,2026-02-23_12h14.17.427,VisualSearch_2526_3,,2025.2.4,2026-02-23 12h14.17.613755 +0100,
vertical.xlsx,The target is tilted.,135,3,3,0,1,0,0,0,0,0,0,0,0,0,0,0,0,0,1,135,space,9.036223000000064,None,1,1,0.6180337000005238,None,space,1.441868400000203,None,0,1,1,1,,,,,0,3,3,3,380.83742989999973,,,,,,,,,,,,,,,,,,,,,380.82149839999965,380.83742989999973,381.3210182999992,381.3256156999996,381.3427837999998,381.97118539999974,,,,,381.9713211999997,381.9870873,382.1871020999997,382.1708727999994,381.3427837999998,,,,,,,,1,1,0.6180337000005238,None,,,,,,,,812,23,V,R,2026-02-23_12h14.17.427,VisualSearch_2526_3,,2025.2.4,2026-02-23 12h14.17.613755 +0100,
vertical.xlsx,The target is tilted.,135,4,4,0,0,1,1,1,1,1,1,1,1,1,1,1,1,11,12,135,space,9.036223000000064,None,0,1,1.9706339000003936,None,space,1.441868400000203,None,0,1,1,1,,,,,0,4,4,4,382.1871020999997,,,,,,,,,,,,,,,,,,,,,382.171703,382.1871020999997,382.67113379999955,382.67639529999997,382.69413149999946,384.6712476999992,,,,,384.6714446999995,384.6867323999995,384.8869015999999,384.8704599999992,382.69413149999946,,,,,,,,0,1,1.9706339000003936,None,,,,,,,,812,23,V,R,2026-02-23_12h14.17.427,VisualSearch_2526_3,,2025.2.4,2026-02-23 12h14.17.613755 +0100,
vertical.xlsx,The target is tilted.,135,5,5,0,0,1,1,1,0,0,0,0,0,0,0,0,1,3,4,135,space,9.036223000000064,None,0,1,0.5873676999999589,None,space,1.441868400000203,None,0,1,1,1,,,,,0,5,5,6,384.8869015999999,,,,,,,,,,,,,,,,,,,,,384.87126439999975,384.8869015999999,385.3707007999992,385.3759433999994,385.39289409999947,385.9870414999996,,,,,385.98721359999945,386.0028937999996,386.20318599999973,386.1873080999994,385.39289409999947,,,,,,,,0,1,0.5873676999999589,None,,,,,,,,812,23,V,R,2026-02-23_12h14.17.427,VisualSearch_2526_3,,2025.2.4,2026-02-23 12h14.17.613755 +0100,
vertical.xlsx,The target is tilted.,135,6,6,0,1,1,1,1,1,1,1,1,1,1,1,1,0,11,12,135,space,9.036223000000064,None,1,1,0.7487671999997474,None,space,1.441868400000203,None,0,1,1,1,,,,,0,6,6,0,386.20318599999973,,,,,,,,,,,,,,,,,,,,,386.1882458,386.20318599999973,386.6872248999998,386.6922273,386.7104808999993,387.47081609999987,,,,,387.47100749999936,387.48629660000006,387.68637149999995,387.6700876999994,386.7104808999993,,,,,,,,1,1,0.7487671999997474,None,,,,,,,,812,23,V,R,2026-02-23_12h14.17.427,VisualSearch_2526_3,,2025.2.4,2026-02-23 12h14.17.613755 +0100,
vertical.xlsx,The target is tilted.,135,7,7,0,0,1,1,1,1,1,1,1,0,0,0,0,1,7,8,135,space,9.036223000000064,None,0,1,0.9664992999996684,None,space,1.441868400000203,None,0,1,1,1,,,,,0,7,7,5,387.68637149999995,,,,,,,,,,,,,,,,,,,,,387.6708497999998,387.68637149999995,388.17018539999935,388.1764571999993,388.19289729999946,389.1706211999999,,,,,389.1708183999999,389.1861268999992,389.3861551,389.3700229999995,388.19289729999946,,,,,,,,0,1,0.9664992999996684,None,,,,,,,,812,23,V,R,2026-02-23_12h14.17.427,VisualSearch_2526_3,,2025.2.4,2026-02-23 12h14.17.613755 +0100,
vertical.xlsx,The target is tilted.,135,8,0,1,0,1,1,1,1,1,1,1,1,1,1,1,1,11,12,135,space,9.036223000000064,None,0,1,1.3673048000000563,None,space,1.441868400000203,None,0,1,1,1,,,,,1,0,8,4,389.3861551,,,,,,,,,,,,,,,,,,,,,389.37084479999976,389.3861551,389.86984069999926,389.87446849999924,389.8920212999992,391.2702798999999,,,,,391.27047369999946,391.28557719999935,391.4858459999996,391.4697981999998,389.8920212999992,,,,,,,,0,1,1.3673048000000563,None,,,,,,,,812,23,V,R,2026-02-23_12h14.17.427,VisualSearch_2526_3,,2025.2.4,2026-02-23 12h14.17.613755 +0100,
vertical.xlsx,The target is tilted.,135,9,1,1,0,1,1,1,0,0,0,0,0,0,0,0,1,3,4,135,space,9.036223000000064,None,0,1,0.7070915999993304,None,space,1.441868400000203,None,0,1,1,1,,,,,1,1,9,6,391.4858459999996,,,,,,,,,,,,,,,,,,,,,391.47050319999926,391.4858459999996,391.9697019999994,391.9742830999994,391.9910186999996,392.7030342999997,,,,,392.7032466999999,392.7189374999998,392.9187661999995,392.90301249999993,391.9910186999996,,,,,,,,0,1,0.7070915999993304,None,,,,,,,,812,23,V,R,2026-02-23_12h14.17.427,VisualSearch_2526_3,,2025.2.4,2026-02-23 12h14.17.613755 +0100,
vertical.xlsx,The target is tilted.,135,10,2,1,1,0,0,0,0,0,0,0,0,0,0,0,0,0,1,135,space,9.036223000000064,None,1,1,0.5519457999998849,None,space,1.441868400000203,None,0,1,1,1,,,,,1,2,10,3,392.9187661999995,,,,,,,,,,,,,,,,,,,,,392.90385069999957,392.9187661999995,393.40244899999925,393.40612239999973,393.4211829999995,393.98623379999935,,,,,393.98642819999986,394.00167989999954,394.20226959999945,394.1860936999992,393.4211829999995,,,,,,,,1,1,0.5519457999998849,None,,,,,,,,812,23,V,R,2026-02-23_12h14.17.427,VisualSearch_2526_3,,2025.2.4,2026-02-23 12h14.17.613755 +0100,
vertical.xlsx,The target is tilted.,135,11,3,1,0,1,1,1,1,1,1,1,0,0,0,0,1,7,8,135,space,9.036223000000064,None,0,1,1.78965960000005,None,space,1.441868400000203,None,0,1,1,1,,,,,1,3,11,5,394.20226959999945,,,,,,,,,,,,,,,,,,,,,394.1869023999998,394.20226959999945,394.68597859999954,394.6906709999994,394.7065337999993,396.5028638999993,,,,,396.50305539999954,396.5184002999995,396.71849309999925,396.70232659999965,394.7065337999993,,,,,,,,0,1,1.78965960000005,None,,,,,,,,812,23,V,R,2026-02-23_12h14.17.427,VisualSearch_2526_3,,2025.2.4,2026-02-23 12h14.17.613755 +0100,
vertical.xlsx,The target is tilted.,135,12,4,1,1,1,1,1,0,0,0,0,0,0,0,0,0,3,4,135,space,9.036223000000064,None,0,0,0.6888069999995423,None,space,1.441868400000203,None,0,1,1,1,,,,,1,4,12,2,396.71849309999925,,,,,,,,,,,,,,,,,,,,,396.70304319999923,396.71849309999925,397.2017458999999,397.2036570999999,397.2181729999993,397.91946929999995,,,,,397.9196815999994,397.9349225999995,398.1349363999998,398.1189222999992,397.2181729999993,,,,,,,,0,0,0.6888069999995423,None,,,,,,,,812,23,V,R,2026-02-23_12h14.17.427,VisualSearch_2526_3,,2025.2.4,2026-02-23 12h14.17.613755 +0100,
vertical.xlsx,The target is tilted.,135,13,5,1,1,1,1,1,1,1,1,1,1,1,1,1,0,11,12,135,space,9.036223000000064,None,1,1,0.6522042999995392,None,space,1.441868400000203,None,0,1,1,1,,,,,1,5,13,0,398.1349363999998,,,,,,,,,,,,,,,,,,,,,398.11972979999973,398.1349363999998,398.6187739999996,398.62332479999986,398.6399036999992,399.30142029999934,,,,,399.3015274999998,399.31786549999924,,399.5016491999995,398.6399036999992,,,,,,,,1,1,0.6522042999995392,None,,,,,,,,812,23,V,R,2026-02-23_12h14.17.427,VisualSearch_2526_3,,2025.2.4,2026-02-23 12h14.17.613755 +0100,
vertical.xlsx,The target is tilted.,135,14,6,1,1,1,1,1,1,1,1,1,0,0,0,0,0,7,8,135,space,9.036223000000064,None,1,1,1.761749599999348,None,space,1.441868400000203,None,0,1,1,1,,,,,1,6,14,1,399.5180673999994,,,,,,,,,,,,,,,,,,,,,399.5023975999993,399.5180673999994,400.0015246999992,400.00607299999956,400.02179409999917,401.7853293999997,,,,,401.7855219999992,401.8010839999997,402.0011296999992,401.9847125999995,400.02179409999917,,,,,,,,1,1,1.761749599999348,None,,,,,,,,812,23,V,R,2026-02-23_12h14.17.427,VisualSearch_2526_3,,2025.2.4,2026-02-23 12h14.17.613755 +0100,
vertical.xlsx,The target is tilted.,135,15,7,1,0,0,0,0,0,0,0,0,0,0,0,0,1,1,1,135,space,9.036223000000064,None,0,1,0.6608623000001899,None,space,1.441868400000203,None,0,1,1,1,,,,,1,7,15,7,402.0011296999992,,,,,,,,,,,,,,,,,,,,,401.9854497999995,402.0011296999992,402.4846338999996,402.48919189999924,402.5060125,403.16821600000003,,,,,403.16840950000005,403.1837667,403.38392529999965,403.3681554999994,402.5060125,,,,,,,,0,1,0.6608623000001899,None,,,,,,,,812,23,V,R,2026-02-23_12h14.17.427,VisualSearch_2526_3,,2025.2.4,2026-02-23 12h14.17.613755 +0100,
vertical.xlsx,The target is tilted.,135,16,0,2,1,1,1,1,1,1,1,1,1,1,1,1,0,11,12,135,space,9.036223000000064,None,1,1,2.7839704999996684,None,space,1.441868400000203,None,0,1,1,1,,,,,2,0,16,0,403.38392529999965,,,,,,,,,,,,,,,,,,,,,403.3689498999993,403.38392529999965,403.86802869999974,403.8728300999992,403.89080549999926,406.6845300999994,,,,,406.68472349999956,406.6999141999995,406.90041070000007,406.8841217999998,403.89080549999926,,,,,,,,1,1,2.7839704999996684,None,,,,,,,,812,23,V,R,2026-02-23_12h14.17.427,VisualSearch_2526_3,,2025.2.4,2026-02-23 12h14.17.613755 +0100,
vertical.xlsx,The target is tilted.,135,17,1,2,0,0,0,0,0,0,0,0,0,0,0,0,1,1,1,135,space,9.036223000000064,None,0,1,0.7632727000000159,None,space,1.441868400000203,None,0,1,1,1,,,,,2,1,17,7,406.90041070000007,,,,,,,,,,,,,,,,,,,,,406.88548959999935,406.90041070000007,407.3840752999995,407.3892266999992,407.4055579999995,408.1845395999999,,,,,408.1847324999999,408.20004269999936,408.4001210999995,408.3837816999994,407.4055579999995,,,,,,,,0,1,0.7632727000000159,None,,,,,,,,812,23,V,R,2026-02-23_12h14.17.427,VisualSearch_2526_3,,2025.2.4,2026-02-23 12h14.17.613755 +0100,
vertical.xlsx,The target is tilted.,135,18,2,2,1,1,1,1,0,0,0,0,0,0,0,0,0,3,4,135,space,9.036223000000064,None,1,1,0.607295100000556,None,space,1.441868400000203,None,0,1,1,1,,,,,2,2,18,2,408.4001210999995,,,,,,,,,,,,,,,,,,,,,408.3845715999996,408.4001210999995,408.88376489999973,408.88829970000006,408.90431589999935,409.5177335999997,,,,,409.5179286999992,409.53321400000004,409.73313209999924,409.71690169999965,408.90431589999935,,,,,,,,1,1,0.607295100000556,None,,,,,,,,812,23,V,R,2026-02-23_12h14.17.427,VisualSearch_2526_3,,2025.2.4,2026-02-23 12h14.17.613755 +0100,
vertical.xlsx,The target is tilted.,135,19,3,2,1,1,1,1,1,1,1,1,0,0,0,0,0,7,8,135,space,9.036223000000064,None,1,1,0.9227178000001004,None,space,1.441868400000203,None,0,1,1,1,,,,,2,3,19,1,409.73313209999924,,,,,,,,,,,,,,,,,,,,,409.71774389999973,409.73313209999924,410.21728669999993,410.2223682999993,410.2374127999992,411.16723920000004,,,,,411.1674147999993,411.18273129999943,411.382783,411.3669670999998,410.2374127999992,,,,,,,,1,1,0.9227178000001004,None,,,,,,,,812,23,V,R,2026-02-23_12h14.17.427,VisualSearch_2526_3,,2025.2.4,2026-02-23 12h14.17.613755 +0100,
vertical.xlsx,The target is tilted.,135,20,4,2,0,1,1,1,1,1,1,1,0,0,0,0,1,7,8,135,space,9.036223000000064,None,0,1,1.0322275999997146,None,space,1.441868400000203,None,0,1,1,1,,,,,2,4,20,5,411.382783,,,,,,,,,,,,,,,,,,,,,411.36782869999934,411.382783,411.86664569999994,411.8718225999992,411.8900232999995,412.93391900000006,,,,,412.93410959999983,412.94945389999975,413.1494897999992,413.13300959999924,411.8900232999995,,,,,,,,0,1,1.0322275999997146,None,,,,,,,,812,23,V,R,2026-02-23_12h14.17.427,VisualSearch_2526_3,,2025.2.4,2026-02-23 12h14.17.613755 +0100,
vertical.xlsx,The target is tilted.,135,21,5,2,0,1,1,1,1,1,1,1,1,1,1,1,1,11,12,135,space,9.036223000000064,None,0,1,1.8497520999999324,None,space,1.441868400000203,None,0,1,1,1,,,,,2,5,21,4,413.1494897999992,,,,,,,,,,,,,,,,,,,,,413.1338115999997,413.1494897999992,413.6332685999996,413.63787429999957,413.6547355999992,415.51682170000004,,,,,415.5170184999997,415.5323290999995,415.7320108999993,415.7163961999995,413.6547355999992,,,,,,,,0,1,1.8497520999999324,None,,,,,,,,812,23,V,R,2026-02-23_12h14.17.427,VisualSearch_2526_3,,2025.2.4,2026-02-23 12h14.17.613755 +0100,
vertical.xlsx,The target is tilted.,135,22,6,2,0,1,1,1,0,0,0,0,0,0,0,0,1,3,4,135,space,9.036223000000064,None,0,1,0.7957986999999775,None,space,1.441868400000203,None,0,1,1,1,,,,,2,6,22,6,415.7320108999993,,,,,,,,,,,,,,,,,,,,,415.71721909999997,415.7320108999993,416.2161619999997,416.22108819999994,416.23915789999955,417.04944739999974,,,,,417.0495788999997,417.0653173999999,417.2655486999993,417.2495242999994,416.23915789999955,,,,,,,,0,1,0.7957986999999775,None,,,,,,,,812,23,V,R,2026-02-23_12h14.17.427,VisualSearch_2526_3,,2025.2.4,2026-02-23 12h14.17.613755 +0100,
vertical.xlsx,The target is tilted.,135,23,7,2,1,0,0,0,0,0,0,0,0,0,0,0,0,0,1,135,space,9.036223000000064,None,1,1,0.5729443000000174,None,space,1.441868400000203,None,0,1,1,1,,,,,2,7,23,3,417.2655486999993,,,,,,,,,,,,,,,,,,,,,417.2503536999993,417.2655486999993,417.74947339999926,417.75428959999954,417.7688183999999,418.3497222999995,,,,,418.3499370999998,418.3652254999997,418.5652995999999,418.5489195,417.7688183999999,,,,,,,,1,1,0.5729443000000174,None,,,,,,,,812,23,V,R,2026-02-23_12h14.17.427,VisualSearch_2526_3,,2025.2.4,2026-02-23 12h14.17.613755 +0100,
vertical.xlsx,The target is tilted.,135,24,0,3,1,0,0,0,0,0,0,0,0,0,0,0,0,0,1,135,space,9.036223000000064,None,1,1,0.5597642000002452,None,space,1.441868400000203,None,0,1,1,1,,,,,3,0,24,3,418.5652995999999,,,,,,,,,,,,,,,,,,,,,418.54977449999933,418.5652995999999,419.0491663999992,419.0536970999992,419.0706262999993,419.6323935999999,,,,,419.6325686,419.64837819999957,419.84853440000006,419.83250449999923,419.0706262999993,,,,,,,,1,1,0.5597642000002452,None,,,,,,,,812,23,V,R,2026-02-23_12h14.17.427,VisualSearch_2526_3,,2025.2.4,2026-02-23 12h14.17.613755 +0100,
vertical.xlsx,The target is tilted.,135,25,1,3,1,1,1,1,1,1,1,1,1,1,1,1,0,11,12,135,space,9.036223000000064,None,1,1,1.3075989000008121,None,space,1.441868400000203,None,0,1,1,1,,,,,3,1,25,0,419.84853440000006,,,,,,,,,,,,,,,,,,,,,419.83336619999955,419.84853440000006,420.3323271999998,420.3368641999996,420.3533622999994,421.6659873999997,,,,,421.6661844,421.68147640000007,421.88163469999927,421.8654618999999,420.3533622999994,,,,,,,,1,1,1.3075989000008121,None,,,,,,,,812,23,V,R,2026-02-23_12h14.17.427,VisualSearch_2526_3,,2025.2.4,2026-02-23 12h14.17.613755 +0100,
vertical.xlsx,The target is tilted.,135,26,2,3,0,1,1,1,1,1,1,1,1,1,1,1,1,11,12,135,space,9.036223000000064,None,0,1,2.358331299999918,None,space,1.441868400000203,None,0,1,1,1,,,,,3,2,26,4,421.88163469999927,,,,,,,,,,,,,,,,,,,,,421.86629300000004,421.88163469999927,422.36521749999974,422.36977339999976,422.3880534,424.74940439999955,,,,,424.7496013,424.7640202999992,424.9643155999993,424.94835579999926,422.3880534,,,,,,,,0,1,2.358331299999918,None,,,,,,,,812,23,V,R,2026-02-23_12h14.17.427,VisualSearch_2526_3,,2025.2.4,2026-02-23 12h14.17.613755 +0100,
vertical.xlsx,The target is tilted.,135,27,3,3,0,1,1,1,1,1,1,1,0,0,0,0,1,7,8,135,space,9.036223000000064,None,0,1,0.7750529000004462,None,space,1.441868400000203,None,0,1,1,1,,,,,3,3,27,5,424.9643155999993,,,,,,,,,,,,,,,,,,,,,424.94923389999985,424.9643155999993,425.4480676999992,425.45263199999954,425.4678009999998,426.2476901,,,,,426.2477777999993,426.26345929999934,426.46402880000005,426.4480498999992,425.4678009999998,,,,,,,,0,1,0.7750529000004462,None,,,,,,,,812,23,V,R,2026-02-23_12h14.17.427,VisualSearch_2526_3,,2025.2.4,2026-02-23 12h14.17.613755 +0100,
vertical.xlsx,The target is tilted.,135,28,4,3,0,1,1,1,0,0,0,0,0,0,0,0,1,3,4,135,space,9.036223000000064,None,0,1,0.6226771999999983,None,space,1.441868400000203,None,0,1,1,1,,,,,3,4,28,6,426.46402880000005,,,,,,,,,,,,,,,,,,,,,426.44884490000004,426.46402880000005,426.9479410999993,426.95251409999946,426.97006019999935,427.5984405999998,,,,,427.59863289999976,427.61386519999996,427.8137491999996,427.79801749999933,426.97006019999935,,,,,,,,0,1,0.6226771999999983,None,,,,,,,,812,23,V,R,2026-02-23_12h14.17.427,VisualSearch_2526_3,,2025.2.4,2026-02-23 12h14.17.613755 +0100,
vertical.xlsx,The target is tilted.,135,29,5,3,1,1,1,1,0,0,0,0,0,0,0,0,0,3,4,135,space,9.036223000000064,None,0,0,0.5445772000002762,None,space,1.441868400000203,None,0,1,1,1,,,,,3,5,29,2,427.8137491999996,,,,,,,,,,,,,,,,,,,,,427.79885319999994,427.8137491999996,428.29790989999947,428.30308179999975,428.31777559999955,428.8646039999994,,,,,428.8648018999993,428.88043369999923,429.0804113999993,429.06384720000005,428.31777559999955,,,,,,,,0,0,0.5445772000002762,None,,,,,,,,812,23,V,R,2026-02-23_12h14.17.427,VisualSearch_2526_3,,2025.2.4,2026-02-23 12h14.17.613755 +0100,
vertical.xlsx,The target is tilted.,135,30,6,3,1,1,1,1,1,1,1,1,0,0,0,0,0,7,8,135,space,9.036223000000064,None,1,1,0.6350523000000976,None,space,1.441868400000203,None,0,1,1,1,,,,,3,6,30,1,429.0804113999993,,,,,,,,,,,,,,,,,,,,,429.06459559999985,429.0804113999993,429.56400009999925,429.56862249999995,429.5861224999999,430.23150389999955,,,,,430.23172239999985,430.24686010000005,430.4469433999993,430.4308697999995,429.5861224999999,,,,,,,,1,1,0.6350523000000976,None,,,,,,,,812,23,V,R,2026-02-23_12h14.17.427,VisualSearch_2526_3,,2025.2.4,2026-02-23 12h14.17.613755 +0100,
vertical.xlsx,The target is tilted.,135,31,7,3,0,0,0,0,0,0,0,0,0,0,0,0,1,1,1,135,space,9.036223000000064,None,0,1,0.9413964999994278,None,space,1.441868400000203,None,0,1,1,1,,,,,3,7,31,7,430.4469433999993,,,,,,,,,,,,,,,,,,,,,430.43157859999974,430.4469433999993,430.93080139999984,430.93537749999996,430.95279949999986,431.89755909999985,,,,,431.89775139999983,431.91344369999933,432.11337209999965,432.0974108999999,430.95279949999986,,,,,,,,0,1,0.9413964999994278,None,,,,,,,,812,23,V,R,2026-02-23_12h14.17.427,VisualSearch_2526_3,,2025.2.4,2026-02-23 12h14.17.613755 +0100,
vertical.xlsx,The target is tilted.,135,32,0,4,1,1,1,1,1,1,1,1,1,1,1,1,0,11,12,135,space,9.036223000000064,None,1,1,0.8956731999996919,None,space,1.441868400000203,None,0,1,1,1,,,,,4,0,32,0,432.11337209999965,,,,,,,,,,,,,,,,,,,,,432.0982107,432.11337209999965,432.59706579999965,432.60220019999997,432.6175217,433.5301787999997,,,,,433.5302613999993,433.5462441999998,433.74625389999983,433.7305394999994,432.6175217,,,,,,,,1,1,0.8956731999996919,None,,,,,,,,812,23,V,R,2026-02-23_12h14.17.427,VisualSearch_2526_3,,2025.2.4,2026-02-23 12h14.17.613755 +0100,
vertical.xlsx,The target is tilted.,135,33,1,4,0,1,1,1,1,1,1,1,1,1,1,1,1,11,12,135,space,9.036223000000064,None,0,1,1.7482741000003443,None,space,1.441868400000203,None,0,1,1,1,,,,,4,1,33,4,433.74625389999983,,,,,,,,,,,,,,,,,,,,,433.73134409999966,433.74625389999983,434.23032650000005,434.2348480999999,434.25124199999937,436.0140101999996,,,,,436.0142303999992,436.02942659999917,436.2294501999995,436.2132053999994,434.25124199999937,,,,,,,,0,1,1.7482741000003443,None,,,,,,,,812,23,V,R,2026-02-23_12h14.17.427,VisualSearch_2526_3,,2025.2.4,2026-02-23 12h14.17.613755 +0100,
vertical.xlsx,The target is tilted.,135,34,2,4,1,0,0,0,0,0,0,0,0,0,0,0,0,0,1,135,space,9.036223000000064,None,1,1,0.6271142999994481,None,space,1.441868400000203,None,0,1,1,1,,,,,4,2,34,3,436.2294501999995,,,,,,,,,,,,,,,,,,,,,436.21394919999966,436.2294501999995,436.7129909999994,436.7179632999996,436.73395959999925,437.3638560999998,,,,,437.36406519999946,437.37936420000005,437.57930099999976,437.56268999999975,436.73395959999925,,,,,,,,1,1,0.6271142999994481,None,,,,,,,,812,23,V,R,2026-02-23_12h14.17.427,VisualSearch_2526_3,,2025.2.4,2026-02-23 12h14.17.613755 +0100,
