file_name,block_instructions,target_example,thisN,thisTrialN,thisRepN,target_presence,opacity_1,opacity_2,opacity_3,opacity_4,opacity_5,opacity_6,opacity_7,opacity_8,opacity_9,opacity_10,opacity_11,opacity_12,n_distract,n_items,target_ori,key_resp_4.keys,key_resp_4.rt,key_resp_4.duration,key_resp.keys,key_resp.corr,key_resp.rt,key_resp.duration,key_resp_5.keys,key_resp_5.rt,key_resp_5.duration,blocks.thisRepN,blocks.thisTrialN,blocks.thisN,blocks.thisIndex,practice_trials.thisRepN,practice_trials.thisTrialN,practice_trials.thisN,practice_trials.thisIndex,trials.thisRepN,trials.thisTrialN,trials.thisN,trials.thisIndex,thisRow.t,notes,Welcome.started,WelcomeText.started,key_resp_2.started,Welcome.stopped,key_resp_2.keys,key_resp_2.rt,key_resp_2.duration,InformedConsent.started,text_4.started,InformedConsent.stopped,key_resp_6.keys,key_resp_6.rt,key_resp_6.duration,key_resp_4.started,example_target.started,text_3.started,blocks.key_resp_4.keys,blocks.key_resp_4.rt,blocks.key_resp_4.duration,FixCross.started,fixCross.started,FixCross.stopped,Stimulus.started,key_resp.started,Stimulus.stopped,practice_trials.key_resp.keys,practice_trials.key_resp.corr,practice_trials.key_resp.rt,practice_trials.key_resp.duration,BlankScreen.started,text.started,text.stopped,BlankScreen.stopped,fixCross.stopped,ExperimentStart.started,text_2.started,key_resp_5.started,ExperimentStart.stopped,blocks.key_resp_5.keys,blocks.key_resp_5.rt,blocks.key_resp_5.duration,trials.key_resp.keys,trials.key_resp.corr,trials.key_resp.rt,trials.key_resp.duration,Thanks.started,ThankYou.started,key_resp_3.started,Thanks.stopped,key_resp_3.keys,key_resp_3.rt,key_resp_3.duration,participant,leeftijd,gender,links/rechtshandig,date,expName,expVersion,psychopyVersion,expStart,
,,,,,,,,,,,,,,,,,,,,,,,,,,,,,,,,,,,,,,,,,,,,,,0.03434170000002723,0.06139829999995072,0.06139829999995072,34.60193099999992,space,34.52997090000008,None,,,,,,,,,,,,,,,,,,,,,,,,,,,,,,,,,,,,,,,,,,,,,,813,21,M,L,2026-02-25_11h05.10.925,VisualSearch_2526_3,,2025.2.4,2026-02-25 11h05.11.735246 +0100,
,,,,,,,,,,,,,,,,,,,,,,,,,,,,,,,,,,,,,,,,,,,,,,,,,,,,,34.60205819999999,34.617686100000014,37.1516398,y,2.5334195000000364,None,,,,,,,,,,,,,,,,,,,,,,,,,,,,,,,,,,,,,,,,813,21,M,L,2026-02-25_11h05.10.925,VisualSearch_2526_3,,2025.2.4,2026-02-25 11h05.11.735246 +0100,
vertical.xlsx,The target is tilted.,135,0,0,0,1,0,0,0,0,0,0,0,0,0,0,0,0,0,1,135,space,3.717418500000008,None,1,1,0.5408756000000494,None,,,,0,0,0,1,0,0,0,3,,,,,41.07756219999999,,,,,,,,,,,,,,,37.28122209999992,37.28122209999992,37.28122209999992,space,3.717418500000008,None,41.072729200000026,41.07756219999999,41.516464499999984,41.5214019,41.54042389999995,42.08393490000003,1,1,0.5408756000000494,None,42.08413580000001,42.09900210000001,42.29929819999995,42.28333569999995,,,,,,,,,,,,,,,,,,,,813,21,M,L,2026-02-25_11h05.10.925,VisualSearch_2526_3,,2025.2.4,2026-02-25 11h05.11.735246 +0100,
vertical.xlsx,The target is tilted.,135,1,1,0,1,1,1,1,1,1,1,1,1,1,1,1,0,11,12,135,space,3.717418500000008,None,1,1,0.80114930000002,None,,,,0,0,0,1,0,1,1,0,,,,,42.29929819999995,,,,,,,,,,,,,,,,,,,,,42.28401829999996,42.29929819999995,42.78301869999996,42.788313899999935,42.8073498,43.616934300000025,1,1,0.80114930000002,None,43.61711909999997,43.632076499999926,43.83222290000003,43.8157023,42.8073498,,,,,,,,,,,,,,,,,,,813,21,M,L,2026-02-25_11h05.10.925,VisualSearch_2526_3,,2025.2.4,2026-02-25 11h05.11.735246 +0100,
vertical.xlsx,The target is tilted.,135,2,2,0,1,1,1,1,1,1,1,1,0,0,0,0,0,7,8,135,space,3.717418500000008,None,1,1,0.6788708999999926,None,,,,0,0,0,1,0,2,2,1,,,,,43.83222290000003,,,,,,,,,,,,,,,,,,,,,43.81608449999999,43.83222290000003,44.316500399999995,44.32160190000002,44.34014769999999,45.03282249999995,1,1,0.6788708999999926,None,45.03301669999996,45.04844009999999,45.24910969999996,45.23281220000001,44.34014769999999,,,,,,,,,,,,,,,,,,,813,21,M,L,2026-02-25_11h05.10.925,VisualSearch_2526_3,,2025.2.4,2026-02-25 11h05.11.735246 +0100,
vertical.xlsx,The target is tilted.,135,3,3,0,0,1,1,1,0,0,0,0,0,0,0,0,1,3,4,135,space,3.717418500000008,None,0,1,1.2272497999999814,None,,,,0,0,0,1,0,3,3,6,,,,,45.24910969999996,,,,,,,,,,,,,,,,,,,,,45.233509899999945,45.24910969999996,45.732843199999934,45.73749479999992,45.756508800000006,46.999388599999975,0,1,1.2272497999999814,None,46.99957710000001,47.01490890000002,47.21536600000002,47.19913789999998,45.756508800000006,,,,,,,,,,,,,,,,,,,813,21,M,L,2026-02-25_11h05.10.925,VisualSearch_2526_3,,2025.2.4,2026-02-25 11h05.11.735246 +0100,
vertical.xlsx,The target is tilted.,135,4,4,0,0,0,0,0,0,0,0,0,0,0,0,0,1,1,1,135,space,3.717418500000008,None,0,1,0.6023030000000063,None,,,,0,0,0,1,0,4,4,7,,,,,47.21536600000002,,,,,,,,,,,,,,,,,,,,,47.19985939999992,47.21536600000002,47.69932010000002,47.70468619999997,47.72367989999998,48.33191969999996,0,1,0.6023030000000063,None,48.3320344,48.3479509,,48.532222599999955,47.72367989999998,,,,,,,,,,,,,,,,,,,813,21,M,L,2026-02-25_11h05.10.925,VisualSearch_2526_3,,2025.2.4,2026-02-25 11h05.11.735246 +0100,
vertical.xlsx,The target is tilted.,135,5,5,0,1,1,1,1,0,0,0,0,0,0,0,0,0,3,4,135,space,3.717418500000008,None,1,1,0.7033924999999499,None,,,,0,0,0,1,0,5,5,2,,,,,48.54859669999996,,,,,,,,,,,,,,,,,,,,,48.532909899999936,48.54859669999996,49.032140899999945,49.03668970000001,49.056289600000014,49.765758300000016,1,1,0.7033924999999499,None,49.76595299999997,49.78124379999997,49.98166709999998,49.96541449999995,49.056289600000014,,,,,,,,,,,,,,,,,,,813,21,M,L,2026-02-25_11h05.10.925,VisualSearch_2526_3,,2025.2.4,2026-02-25 11h05.11.735246 +0100,
vertical.xlsx,The target is tilted.,135,6,6,0,0,1,1,1,1,1,1,1,1,1,1,1,1,11,12,135,space,3.717418500000008,None,0,1,0.8397747999999865,None,,,,0,0,0,1,0,6,6,4,,,,,49.98166709999998,,,,,,,,,,,,,,,,,,,,,49.96608500000002,49.98166709999998,50.46494059999998,50.46761689999994,50.48136269999998,51.33260829999995,0,1,0.8397747999999865,None,51.332796099999996,51.347619399999985,51.547702099999924,51.531635999999935,50.48136269999998,,,,,,,,,,,,,,,,,,,813,21,M,L,2026-02-25_11h05.10.925,VisualSearch_2526_3,,2025.2.4,2026-02-25 11h05.11.735246 +0100,
vertical.xlsx,The target is tilted.,135,7,7,0,0,1,1,1,1,1,1,1,0,0,0,0,1,7,8,135,space,3.717418500000008,None,0,1,0.8482888000000912,None,,,,0,0,0,1,0,7,7,5,,,,,51.547702099999924,,,,,,,,,,,,,,,,,,,,,51.5323214,51.547702099999924,52.032099599999924,52.03571119999992,52.048036000000025,52.898877500000026,0,1,0.8482888000000912,None,52.899065199999995,52.91412779999996,53.115440000000035,53.09764659999996,52.048036000000025,,,,,,,,,,,,,,,,,,,813,21,M,L,2026-02-25_11h05.10.925,VisualSearch_2526_3,,2025.2.4,2026-02-25 11h05.11.735246 +0100,
vertical.xlsx,The target is tilted.,135,0,0,0,1,1,1,1,1,1,1,1,1,1,1,1,0,11,12,135,space,3.717418500000008,None,1,1,0.7602461000000176,None,space,1.1136453999999958,None,0,0,0,1,,,,,0,0,0,0,54.269424999999956,,,,,,,,,,,,,,,,,,,,,54.26494839999998,54.269424999999956,54.74762129999999,54.75229409999997,54.77120839999998,55.547739399999955,,,,,55.54789599999992,55.56358829999999,55.763838899999996,55.747592199999985,,53.11016319999999,53.115440000000035,53.115440000000035,54.2321541,space,1.1136453999999958,None,1,1,0.7602461000000176,None,,,,,,,,813,21,M,L,2026-02-25_11h05.10.925,VisualSearch_2526_3,,2025.2.4,2026-02-25 11h05.11.735246 +0100,
vertical.xlsx,The target is tilted.,135,1,1,0,0,1,1,1,1,1,1,1,1,1,1,1,1,11,12,135,space,3.717418500000008,None,0,1,1.204238499999974,None,space,1.1136453999999958,None,0,0,0,1,,,,,0,1,1,4,55.763838899999996,,,,,,,,,,,,,,,,,,,,,55.748354199999994,55.763838899999996,56.24739490000002,56.250584300000014,56.26529740000001,57.48170829999992,,,,,57.48190669999997,57.496733199999994,57.69732049999993,57.681353599999966,56.26529740000001,,,,,,,,0,1,1.204238499999974,None,,,,,,,,813,21,M,L,2026-02-25_11h05.10.925,VisualSearch_2526_3,,2025.2.4,2026-02-25 11h05.11.735246 +0100,
vertical.xlsx,The target is tilted.,135,2,2,0,1,0,0,0,0,0,0,0,0,0,0,0,0,0,1,135,space,3.717418500000008,None,1,1,0.5265686999999843,None,space,1.1136453999999958,None,0,0,0,1,,,,,0,2,2,3,57.69732049999993,,,,,,,,,,,,,,,,,,,,,57.68218730000001,57.69732049999993,58.18118500000003,58.186139000000026,58.205110099999956,58.74769689999994,,,,,58.74789529999998,58.76321489999998,58.96358780000003,58.9475238,58.205110099999956,,,,,,,,1,1,0.5265686999999843,None,,,,,,,,813,21,M,L,2026-02-25_11h05.10.925,VisualSearch_2526_3,,2025.2.4,2026-02-25 11h05.11.735246 +0100,
vertical.xlsx,The target is tilted.,135,3,3,0,0,1,1,1,0,0,0,0,0,0,0,0,1,3,4,135,space,3.717418500000008,None,0,1,0.546869900000047,None,space,1.1136453999999958,None,0,0,0,1,,,,,0,3,3,6,58.96358780000003,,,,,,,,,,,,,,,,,,,,,58.948278200000004,58.96358780000003,59.446711100000016,59.44947209999998,59.46326399999998,60.01434199999994,,,,,60.014539199999945,60.029751499999975,60.23011639999993,60.21380609999994,59.46326399999998,,,,,,,,0,1,0.546869900000047,None,,,,,,,,813,21,M,L,2026-02-25_11h05.10.925,VisualSearch_2526_3,,2025.2.4,2026-02-25 11h05.11.735246 +0100,
vertical.xlsx,The target is tilted.,135,4,4,0,1,1,1,1,0,0,0,0,0,0,0,0,0,3,4,135,space,3.717418500000008,None,1,1,0.46115610000003926,None,space,1.1136453999999958,None,0,0,0,1,,,,,0,4,4,2,60.23011639999993,,,,,,,,,,,,,,,,,,,,,60.21459189999996,60.23011639999993,60.71424049999996,60.71952090000002,60.73855359999993,61.21392289999994,,,,,61.21414759999993,61.22936819999995,61.43008279999992,61.413714899999945,60.73855359999993,,,,,,,,1,1,0.46115610000003926,None,,,,,,,,813,21,M,L,2026-02-25_11h05.10.925,VisualSearch_2526_3,,2025.2.4,2026-02-25 11h05.11.735246 +0100,
vertical.xlsx,The target is tilted.,135,5,5,0,0,0,0,0,0,0,0,0,0,0,0,0,1,1,1,135,space,3.717418500000008,None,0,1,0.6362576999999874,None,space,1.1136453999999958,None,0,0,0,1,,,,,0,5,5,7,61.43008279999992,,,,,,,,,,,,,,,,,,,,,61.41454190000002,61.43008279999992,61.91407170000002,61.91929379999999,61.93854369999997,62.580955599999925,,,,,62.58115090000001,62.59602999999993,62.79661269999997,62.780448999999976,61.93854369999997,,,,,,,,0,1,0.6362576999999874,None,,,,,,,,813,21,M,L,2026-02-25_11h05.10.925,VisualSearch_2526_3,,2025.2.4,2026-02-25 11h05.11.735246 +0100,
vertical.xlsx,The target is tilted.,135,6,6,0,0,1,1,1,1,1,1,1,0,0,0,0,1,7,8,135,space,3.717418500000008,None,0,1,0.9081790999999839,None,space,1.1136453999999958,None,0,0,0,1,,,,,0,6,6,5,62.79661269999997,,,,,,,,,,,,,,,,,,,,,62.78138519999993,62.79661269999997,63.2804936,63.28553109999996,63.30503980000003,64.23029759999997,,,,,64.23049639999999,64.2457693,64.44631709999999,64.43039539999995,63.30503980000003,,,,,,,,0,1,0.9081790999999839,None,,,,,,,,813,21,M,L,2026-02-25_11h05.10.925,VisualSearch_2526_3,,2025.2.4,2026-02-25 11h05.11.735246 +0100,
vertical.xlsx,The target is tilted.,135,7,7,0,1,1,1,1,1,1,1,1,0,0,0,0,0,7,8,135,space,3.717418500000008,None,1,1,0.8490706999999702,None,space,1.1136453999999958,None,0,0,0,1,,,,,0,7,7,1,64.44631709999999,,,,,,,,,,,,,,,,,,,,,64.43119279999996,64.44631709999999,64.93020869999998,64.93520419999993,64.95451149999997,65.8138629,,,,,65.8140621,65.82889460000001,66.02947449999999,66.01329659999999,64.95451149999997,,,,,,,,1,1,0.8490706999999702,None,,,,,,,,813,21,M,L,2026-02-25_11h05.10.925,VisualSearch_2526_3,,2025.2.4,2026-02-25 11h05.11.735246 +0100,
vertical.xlsx,The target is tilted.,135,8,0,1,1,0,0,0,0,0,0,0,0,0,0,0,0,0,1,135,space,3.717418500000008,None,1,1,0.47185079999997015,None,space,1.1136453999999958,None,0,0,0,1,,,,,1,0,8,3,66.02947449999999,,,,,,,,,,,,,,,,,,,,,66.01410520000002,66.02947449999999,66.51336659999993,66.51859890000003,66.53864929999997,67.01379120000001,,,,,67.01403689999995,67.0287753,67.22922729999993,67.21310199999994,66.53864929999997,,,,,,,,1,1,0.47185079999997015,None,,,,,,,,813,21,M,L,2026-02-25_11h05.10.925,VisualSearch_2526_3,,2025.2.4,2026-02-25 11h05.11.735246 +0100,
vertical.xlsx,The target is tilted.,135,9,1,1,0,1,1,1,1,1,1,1,1,1,1,1,1,11,12,135,space,3.717418500000008,None,0,1,0.7399020000000291,None,space,1.1136453999999958,None,0,0,0,1,,,,,1,1,9,4,67.22922729999993,,,,,,,,,,,,,,,,,,,,,67.21382329999994,67.22922729999993,67.71291940000003,67.71754149999992,67.73666400000002,68.47986649999996,,,,,68.48006399999997,68.4950086,68.6956573,68.67950589999998,67.73666400000002,,,,,,,,0,1,0.7399020000000291,None,,,,,,,,813,21,M,L,2026-02-25_11h05.10.925,VisualSearch_2526_3,,2025.2.4,2026-02-25 11h05.11.735246 +0100,
vertical.xlsx,The target is tilted.,135,10,2,1,1,1,1,1,0,0,0,0,0,0,0,0,0,3,4,135,space,3.717418500000008,None,1,1,0.6544393000000355,None,space,1.1136453999999958,None,0,0,0,1,,,,,1,2,10,2,68.6956573,,,,,,,,,,,,,,,,,,,,,68.68034599999999,68.6956573,69.17937759999995,69.1838712,69.19508359999998,69.86206479999998,,,,,69.86218399999996,69.87865,70.07838989999993,70.06233050000003,69.19508359999998,,,,,,,,1,1,0.6544393000000355,None,,,,,,,,813,21,M,L,2026-02-25_11h05.10.925,VisualSearch_2526_3,,2025.2.4,2026-02-25 11h05.11.735246 +0100,
vertical.xlsx,The target is tilted.,135,11,3,1,0,1,1,1,1,1,1,1,0,0,0,0,1,7,8,135,space,3.717418500000008,None,0,1,0.6879437999999709,None,space,1.1136453999999958,None,0,0,0,1,,,,,1,3,11,5,70.07838989999993,,,,,,,,,,,,,,,,,,,,,70.06304490000002,70.07838989999993,70.56233810000003,70.56696199999999,70.58595619999994,71.27966530000003,,,,,71.27986079999994,71.29457279999997,71.49522260000003,71.47916399999997,,,,,,,,,0,1,0.6879437999999709,None,,,,,,,,813,21,M,L,2026-02-25_11h05.10.925,VisualSearch_2526_3,,2025.2.4,2026-02-25 11h05.11.735246 +0100,
vertical.xlsx,The target is tilted.,135,12,4,1,1,1,1,1,1,1,1,1,0,0,0,0,0,7,8,135,space,3.717418500000008,None,1,1,0.6866564000000608,None,space,1.1136453999999958,None,0,0,0,1,,,,,1,4,12,1,71.49522260000003,,,,,,,,,,,,,,,,,,,,,71.47995029999993,71.49522260000003,71.97917180000002,71.98409670000001,72.00361209999994,72.6951775,,,,,72.6952966,72.71102969999993,72.9118072,72.89559499999996,72.00361209999994,,,,,,,,1,1,0.6866564000000608,None,,,,,,,,813,21,M,L,2026-02-25_11h05.10.925,VisualSearch_2526_3,,2025.2.4,2026-02-25 11h05.11.735246 +0100,
vertical.xlsx,The target is tilted.,135,13,5,1,0,1,1,1,0,0,0,0,0,0,0,0,1,3,4,135,space,3.717418500000008,None,0,1,0.6251948999999968,None,space,1.1136453999999958,None,0,0,0,1,,,,,1,5,13,6,72.9118072,,,,,,,,,,,,,,,,,,,,,72.89642930000002,72.9118072,73.3952203,73.39989739999999,73.41883599999994,74.04595849999998,,,,,74.046154,74.06092160000003,74.26115149999998,74.24533599999995,73.41883599999994,,,,,,,,0,1,0.6251948999999968,None,,,,,,,,813,21,M,L,2026-02-25_11h05.10.925,VisualSearch_2526_3,,2025.2.4,2026-02-25 11h05.11.735246 +0100,
vertical.xlsx,The target is tilted.,135,14,6,1,1,1,1,1,1,1,1,1,1,1,1,1,0,11,12,135,space,3.717418500000008,None,1,1,0.738164299999994,None,space,1.1136453999999958,None,0,0,0,1,,,,,1,6,14,0,74.26115149999998,,,,,,,,,,,,,,,,,,,,,74.24608149999995,74.26115149999998,74.74571719999994,74.75221650000003,74.77115839999999,75.51251460000003,,,,,75.51270449999993,75.5275355,75.72808009999994,75.71193640000001,74.77115839999999,,,,,,,,1,1,0.738164299999994,None,,,,,,,,813,21,M,L,2026-02-25_11h05.10.925,VisualSearch_2526_3,,2025.2.4,2026-02-25 11h05.11.735246 +0100,
vertical.xlsx,The target is tilted.,135,15,7,1,0,0,0,0,0,0,0,0,0,0,0,0,1,1,1,135,space,3.717418500000008,None,0,1,0.4766110000000481,None,space,1.1136453999999958,None,0,0,0,1,,,,,1,7,15,7,75.72808009999994,,,,,,,,,,,,,,,,,,,,,75.71279649999997,75.72808009999994,76.21179239999992,76.21685359999992,76.23579559999996,76.72798950000004,,,,,76.72813980000001,76.74385559999996,76.9440836,76.9284715,76.23579559999996,,,,,,,,0,1,0.4766110000000481,None,,,,,,,,813,21,M,L,2026-02-25_11h05.10.925,VisualSearch_2526_3,,2025.2.4,2026-02-25 11h05.11.735246 +0100,
vertical.xlsx,The target is tilted.,135,16,0,2,1,0,0,0,0,0,0,0,0,0,0,0,0,0,1,135,space,3.717418500000008,None,1,1,0.631557799999996,None,space,1.1136453999999958,None,0,0,0,1,,,,,2,0,16,3,76.9440836,,,,,,,,,,,,,,,,,,,,,76.92929419999996,76.9440836,77.42841650000003,77.43333529999995,77.4519679,78.0953237,,,,,78.09551729999998,78.11053379999998,78.3110213,78.29450469999995,77.4519679,,,,,,,,1,1,0.631557799999996,None,,,,,,,,813,21,M,L,2026-02-25_11h05.10.925,VisualSearch_2526_3,,2025.2.4,2026-02-25 11h05.11.735246 +0100,
vertical.xlsx,The target is tilted.,135,17,1,2,1,1,1,1,1,1,1,1,0,0,0,0,0,7,8,135,space,3.717418500000008,None,1,1,0.6352272000000312,None,space,1.1136453999999958,None,0,0,0,1,,,,,2,1,17,1,78.3110213,,,,,,,,,,,,,,,,,,,,,78.29527050000002,78.3110213,78.79459369999995,78.79963609999993,78.8185929,79.46165180000003,,,,,79.46184640000001,79.47697979999998,79.67747429999997,79.66125590000001,78.8185929,,,,,,,,1,1,0.6352272000000312,None,,,,,,,,813,21,M,L,2026-02-25_11h05.10.925,VisualSearch_2526_3,,2025.2.4,2026-02-25 11h05.11.735246 +0100,
vertical.xlsx,The target is tilted.,135,18,2,2,1,1,1,1,0,0,0,0,0,0,0,0,0,3,4,135,space,3.717418500000008,None,1,1,0.4993967000000339,None,space,1.1136453999999958,None,0,0,0,1,,,,,2,2,18,2,79.67747429999997,,,,,,,,,,,,,,,,,,,,,79.66202169999997,79.67747429999997,80.1611249,80.16561389999993,80.1772181,80.67833350000001,,,,,80.67853000000002,80.69350859999997,80.89373549999993,80.87798550000002,80.1772181,,,,,,,,1,1,0.4993967000000339,None,,,,,,,,813,21,M,L,2026-02-25_11h05.10.925,VisualSearch_2526_3,,2025.2.4,2026-02-25 11h05.11.735246 +0100,
vertical.xlsx,The target is tilted.,135,19,3,2,0,0,0,0,0,0,0,0,0,0,0,0,1,1,1,135,space,3.717418500000008,None,0,1,0.6924328999999716,None,space,1.1136453999999958,None,0,0,0,1,,,,,2,3,19,7,80.89373549999993,,,,,,,,,,,,,,,,,,,,,80.87877819999994,80.89373549999993,81.37769119999996,81.38244709999992,81.4013453,82.11033109999994,,,,,82.11045160000003,82.12677009999993,,82.31063140000003,81.4013453,,,,,,,,0,1,0.6924328999999716,None,,,,,,,,813,21,M,L,2026-02-25_11h05.10.925,VisualSearch_2526_3,,2025.2.4,2026-02-25 11h05.11.735246 +0100,
vertical.xlsx,The target is tilted.,135,20,4,2,1,1,1,1,1,1,1,1,1,1,1,1,0,11,12,135,space,3.717418500000008,None,1,1,1.1545538999999962,None,space,1.1136453999999958,None,0,0,0,1,,,,,2,4,20,0,82.327088,,,,,,,,,,,,,,,,,,,,,82.31145779999997,82.327088,82.8107334,82.81527410000001,82.83337040000004,83.9945242,,,,,83.99472100000003,84.00961569999993,84.21014379999997,84.19382969999992,82.83337040000004,,,,,,,,1,1,1.1545538999999962,None,,,,,,,,813,21,M,L,2026-02-25_11h05.10.925,VisualSearch_2526_3,,2025.2.4,2026-02-25 11h05.11.735246 +0100,
vertical.xlsx,The target is tilted.,135,21,5,2,0,1,1,1,0,0,0,0,0,0,0,0,1,3,4,135,space,3.717418500000008,None,0,1,1.0254764000000023,None,space,1.1136453999999958,None,0,0,0,1,,,,,2,5,21,6,84.21014379999997,,,,,,,,,,,,,,,,,,,,,84.19464870000002,84.21014379999997,84.69406809999998,84.69935459999999,84.71804420000001,85.76047699999992,,,,,85.76067660000001,85.77606639999999,85.97592480000003,85.95997609999995,84.71804420000001,,,,,,,,0,1,1.0254764000000023,None,,,,,,,,813,21,M,L,2026-02-25_11h05.10.925,VisualSearch_2526_3,,2025.2.4,2026-02-25 11h05.11.735246 +0100,
vertical.xlsx,The target is tilted.,135,22,6,2,0,1,1,1,1,1,1,1,0,0,0,0,1,7,8,135,space,3.717418500000008,None,0,1,0.8716359999999668,None,space,1.1136453999999958,None,0,0,0,1,,,,,2,6,22,5,85.97592480000003,,,,,,,,,,,,,,,,,,,,,85.9607006,85.97592480000003,86.46053919999997,86.46536689999994,86.47583350000002,87.3602042,,,,,87.36042499999996,87.37584809999998,87.57580689999998,87.55977969999992,86.47583350000002,,,,,,,,0,1,0.8716359999999668,None,,,,,,,,813,21,M,L,2026-02-25_11h05.10.925,VisualSearch_2526_3,,2025.2.4,2026-02-25 11h05.11.735246 +0100,
vertical.xlsx,The target is tilted.,135,23,7,2,0,1,1,1,1,1,1,1,1,1,1,1,1,11,12,135,space,3.717418500000008,None,0,1,1.0698455000000422,None,space,1.1136453999999958,None,0,0,0,1,,,,,2,7,23,4,87.57580689999998,,,,,,,,,,,,,,,,,,,,,87.56050979999998,87.57580689999998,88.06027399999994,88.0653585,88.08439609999994,89.16069649999997,,,,,89.16104099999995,89.17566799999997,89.3762405,89.36007239999992,88.08439609999994,,,,,,,,0,1,1.0698455000000422,None,,,,,,,,813,21,M,L,2026-02-25_11h05.10.925,VisualSearch_2526_3,,2025.2.4,2026-02-25 11h05.11.735246 +0100,
vertical.xlsx,The target is tilted.,135,24,0,3,0,1,1,1,1,1,1,1,0,0,0,0,1,7,8,135,space,3.717418500000008,None,0,1,0.7515335000000505,None,space,1.1136453999999958,None,0,0,0,1,,,,,3,0,24,5,89.3762405,,,,,,,,,,,,,,,,,,,,,89.36101229999997,89.3762405,89.85999429999993,89.86510929999997,89.88458639999999,90.64364899999998,,,,,90.64384499999994,90.65870829999994,90.85912589999998,90.84301289999996,89.88458639999999,,,,,,,,0,1,0.7515335000000505,None,,,,,,,,813,21,M,L,2026-02-25_11h05.10.925,VisualSearch_2526_3,,2025.2.4,2026-02-25 11h05.11.735246 +0100,
vertical.xlsx,The target is tilted.,135,25,1,3,1,1,1,1,1,1,1,1,0,0,0,0,0,7,8,135,space,3.717418500000008,None,1,1,0.7882607999999891,None,space,1.1136453999999958,None,0,0,0,1,,,,,3,1,25,1,90.85912589999998,,,,,,,,,,,,,,,,,,,,,90.84376739999993,90.85912589999998,91.34269299999994,91.34732819999999,91.36627809999993,92.15996949999999,,,,,92.16016649999995,92.17516390000003,92.37526209999999,92.35946790000003,91.36627809999993,,,,,,,,1,1,0.7882607999999891,None,,,,,,,,813,21,M,L,2026-02-25_11h05.10.925,VisualSearch_2526_3,,2025.2.4,2026-02-25 11h05.11.735246 +0100,
vertical.xlsx,The target is tilted.,135,26,2,3,1,0,0,0,0,0,0,0,0,0,0,0,0,0,1,135,space,3.717418500000008,None,1,1,0.5547883000000411,None,space,1.1136453999999958,None,0,0,0,1,,,,,3,2,26,3,92.37526209999999,,,,,,,,,,,,,,,,,,,,,92.36028349999992,92.37526209999999,92.85956899999996,92.8647813,92.88355899999999,93.44287899999995,,,,,93.44307839999999,93.45839869999998,93.65875770000002,93.64265939999996,92.88355899999999,,,,,,,,1,1,0.5547883000000411,None,,,,,,,,813,21,M,L,2026-02-25_11h05.10.925,VisualSearch_2526_3,,2025.2.4,2026-02-25 11h05.11.735246 +0100,
vertical.xlsx,The target is tilted.,135,27,3,3,1,1,1,1,0,0,0,0,0,0,0,0,0,3,4,135,space,3.717418500000008,None,1,1,0.5257862999999361,None,space,1.1136453999999958,None,0,0,0,1,,,,,3,3,27,2,93.65875770000002,,,,,,,,,,,,,,,,,,,,,93.64338129999999,93.65875770000002,94.14251489999992,94.14751100000001,94.16650559999994,94.70931629999995,,,,,94.70951409999998,94.72477400000002,94.925252,94.9093097,94.16650559999994,,,,,,,,1,1,0.5257862999999361,None,,,,,,,,813,21,M,L,2026-02-25_11h05.10.925,VisualSearch_2526_3,,2025.2.4,2026-02-25 11h05.11.735246 +0100,
vertical.xlsx,The target is tilted.,135,28,4,3,1,1,1,1,1,1,1,1,1,1,1,1,0,11,12,135,space,3.717418500000008,None,1,1,0.8469342000000779,None,space,1.1136453999999958,None,0,0,0,1,,,,,3,4,28,0,94.925252,,,,,,,,,,,,,,,,,,,,,94.91022220000002,94.925252,95.40902629999994,95.41360079999993,95.43234599999994,96.29218129999992,,,,,96.29238029999999,96.30789419999996,96.50845679999998,96.49240680000003,95.43234599999994,,,,,,,,1,1,0.8469342000000779,None,,,,,,,,813,21,M,L,2026-02-25_11h05.10.925,VisualSearch_2526_3,,2025.2.4,2026-02-25 11h05.11.735246 +0100,
vertical.xlsx,The target is tilted.,135,29,5,3,0,1,1,1,0,0,0,0,0,0,0,0,1,3,4,135,space,3.717418500000008,None,0,1,0.5092815000000428,None,space,1.1136453999999958,None,0,0,0,1,,,,,3,5,29,6,96.50845679999998,,,,,,,,,,,,,,,,,,,,,96.493198,96.50845679999998,96.99234639999997,96.99720769999999,97.0162398,97.54200700000001,,,,,97.54221080000002,97.55747180000003,97.75819439999998,97.74211830000002,97.0162398,,,,,,,,0,1,0.5092815000000428,None,,,,,,,,813,21,M,L,2026-02-25_11h05.10.925,VisualSearch_2526_3,,2025.2.4,2026-02-25 11h05.11.735246 +0100,
vertical.xlsx,The target is tilted.,135,30,6,3,0,0,0,0,0,0,0,0,0,0,0,0,1,1,1,135,space,3.717418500000008,None,0,1,0.4021872999999232,None,space,1.1136453999999958,None,0,0,0,1,,,,,3,6,30,7,97.75819439999998,,,,,,,,,,,,,,,,,,,,,97.74283359999993,97.75819439999998,98.24168699999996,98.2457296,98.26414690000001,98.67578330000003,,,,,98.67599199999995,98.69088920000002,98.89133470000002,98.87479159999998,98.26414690000001,,,,,,,,0,1,0.4021872999999232,None,,,,,,,,813,21,M,L,2026-02-25_11h05.10.925,VisualSearch_2526_3,,2025.2.4,2026-02-25 11h05.11.735246 +0100,
vertical.xlsx,The target is tilted.,135,31,7,3,0,1,1,1,1,1,1,1,1,1,1,1,1,11,12,135,space,3.717418500000008,None,0,1,0.9693932000000132,None,space,1.1136453999999958,None,0,0,0,1,,,,,3,7,31,4,98.89133470000002,,,,,,,,,,,,,,,,,,,,,98.87554779999994,98.89133470000002,99.3747591,99.37951279999993,99.39889370000003,100.37520280000001,,,,,100.37539819999995,100.39065189999997,100.59118760000001,100.57499139999993,99.39889370000003,,,,,,,,0,1,0.9693932000000132,None,,,,,,,,813,21,M,L,2026-02-25_11h05.10.925,VisualSearch_2526_3,,2025.2.4,2026-02-25 11h05.11.735246 +0100,
vertical.xlsx,The target is tilted.,135,32,0,4,1,1,1,1,0,0,0,0,0,0,0,0,0,3,4,135,space,3.717418500000008,None,0,0,0.6511808999999857,None,space,1.1136453999999958,None,0,0,0,1,,,,,4,0,32,2,100.59118760000001,,,,,,,,,,,,,,,,,,,,,100.5758032,100.59118760000001,101.07488149999995,101.07999280000001,101.09898179999993,101.7587724,,,,,101.75896829999999,101.77377549999994,101.97420909999994,101.95800699999995,101.09898179999993,,,,,,,,0,0,0.6511808999999857,None,,,,,,,,813,21,M,L,2026-02-25_11h05.10.925,VisualSearch_2526_3,,2025.2.4,2026-02-25 11h05.11.735246 +0100,
vertical.xlsx,The target is tilted.,135,33,1,4,1,1,1,1,1,1,1,1,0,0,0,0,0,7,8,135,space,3.717418500000008,None,0,0,0.7078333000000612,None,space,1.1136453999999958,None,0,0,0,1,,,,,4,1,33,1,101.97420909999994,,,,,,,,,,,,,,,,,,,,,101.95875060000003,101.97420909999994,102.45803639999997,102.46272339999996,102.48176269999999,103.1906649,,,,,103.19078400000001,103.20678859999998,,103.39128289999996,102.48176269999999,,,,,,,,0,0,0.7078333000000612,None,,,,,,,,813,21,M,L,2026-02-25_11h05.10.925,VisualSearch_2526_3,,2025.2.4,2026-02-25 11h05.11.735246 +0100,
vertical.xlsx,The target is tilted.,135,34,2,4,0,1,1,1,0,0,0,0,0,0,0,0,1,3,4,135,space,3.717418500000008,None,0,1,0.7010993000000099,None,space,1.1136453999999958,None,0,0,0,1,,,,,4,2,34,6,103.40744870000003,,,,,,,,,,,,,,,,,,,,,103.39218819999996,103.40744870000003,103.89101659999994,103.89617769999995,103.91536869999993,104.62385319999999,,,,,104.62399759999994,104.6404953,,104.82545649999997,,,,,,,,,0,1,0.7010993000000099,None,,,,,,,,813,21,M,L,2026-02-25_11h05.10.925,VisualSearch_2526_3,,2025.2.4,2026-02-25 11h05.11.735246 +0100,
vertical.xlsx,The target is tilted.,135,35,3,4,0,1,1,1,1,1,1,1,1,1,1,1,1,11,12,135,space,3.717418500000008,None,0,1,0.8426305000000411,None,space,1.1136453999999958,None,0,0,0,1,,,,,4,3,35,4,104.83968489999995,,,,,,,,,,,,,,,,,,,,,104.82615899999996,104.83968489999995,105.32356889999994,105.32624809999993,105.33981219999998,106.19200739999997,,,,,106.19214769999996,106.20716259999995,106.40884849999998,106.39117809999993,105.33981219999998,,,,,,,,0,1,0.8426305000000411,None,,,,,,,,813,21,M,L,2026-02-25_11h05.10.925,VisualSearch_2526_3,,2025.2.4,2026-02-25 11h05.11.735246 +0100,
vertical.xlsx,The target is tilted.,135,36,4,4,0,1,1,1,1,1,1,1,0,0,0,0,1,7,8,135,space,3.717418500000008,None,0,1,0.7187768999999662,None,space,1.1136453999999958,None,0,0,0,1,,,,,4,4,36,5,106.40884849999998,,,,,,,,,,,,,,,,,,,,,106.39157090000003,106.40884849999998,106.90705449999996,106.90894689999993,106.92336230000001,107.65730399999995,,,,,107.65753269999993,107.6729666,107.87373960000002,107.857662,,,,,,,,,0,1,0.7187768999999662,None,,,,,,,,813,21,M,L,2026-02-25_11h05.10.925,VisualSearch_2526_3,,2025.2.4,2026-02-25 11h05.11.735246 +0100,
vertical.xlsx,The target is tilted.,135,37,5,4,1,1,1,1,1,1,1,1,1,1,1,1,0,11,12,135,space,3.717418500000008,None,1,1,0.9803850000000693,None,space,1.1136453999999958,None,0,0,0,1,,,,,4,5,37,0,107.87373960000002,,,,,,,,,,,,,,,,,,,,,107.85885129999997,107.87373960000002,108.35710529999994,108.36212119999993,108.3834478,109.37455539999996,,,,,109.37480979999998,109.38938229999997,109.58957409999994,109.57382359999997,108.3834478,,,,,,,,1,1,0.9803850000000693,None,,,,,,,,813,21,M,L,2026-02-25_11h05.10.925,VisualSearch_2526_3,,2025.2.4,2026-02-25 11h05.11.735246 +0100,
vertical.xlsx,The target is tilted.,135,38,6,4,0,0,0,0,0,0,0,0,0,0,0,0,1,1,1,135,space,3.717418500000008,None,1,0,0.5459816000000046,None,space,1.1136453999999958,None,0,0,0,1,,,,,4,6,38,7,109.58957409999994,,,,,,,,,,,,,,,,,,,,,109.57463299999995,109.58957409999994,110.07382940000002,110.07907499999999,110.09957039999995,110.65626880000002,,,,,110.65638660000002,110.67265099999997,,110.85677720000001,110.09957039999995,,,,,,,,1,0,0.5459816000000046,None,,,,,,,,813,21,M,L,2026-02-25_11h05.10.925,VisualSearch_2526_3,,2025.2.4,2026-02-25 11h05.11.735246 +0100,
vertical.xlsx,The target is tilted.,135,39,7,4,1,0,0,0,0,0,0,0,0,0,0,0,0,0,1,135,space,3.717418500000008,None,1,1,0.6791791999999077,None,space,1.1136453999999958,None,0,0,0,1,,,,,4,7,39,3,110.87315369999999,,,,,,,,,,,,,,,,,,,,,110.85761939999998,110.87315369999999,111.35665749999998,111.36185230000001,111.38096139999993,112.07334079999998,,,,,112.07356059999995,112.08897219999994,112.28953019999994,112.2733624,,,,,,,,,1,1,0.6791791999999077,None,,,,,,,,813,21,M,L,2026-02-25_11h05.10.925,VisualSearch_2526_3,,2025.2.4,2026-02-25 11h05.11.735246 +0100,
vertical.xlsx,The target is tilted.,135,40,0,5,1,1,1,1,1,1,1,1,1,1,1,1,0,11,12,135,space,3.717418500000008,None,1,1,0.7799880999999687,None,space,1.1136453999999958,None,0,0,0,1,,,,,5,0,40,0,112.28953019999994,,,,,,,,,,,,,,,,,,,,,112.2741681,112.28953019999994,112.77337679999994,112.77873669999997,112.79824559999997,113.59005479999996,,,,,113.59020150000003,113.60533120000002,113.805972,113.78994929999999,112.79824559999997,,,,,,,,1,1,0.7799880999999687,None,,,,,,,,813,21,M,L,2026-02-25_11h05.10.925,VisualSearch_2526_3,,2025.2.4,2026-02-25 11h05.11.735246 +0100,
vertical.xlsx,The target is tilted.,135,41,1,5,1,0,0,0,0,0,0,0,0,0,0,0,0,0,1,135,space,3.717418500000008,None,1,1,0.6638875999999527,None,space,1.1136453999999958,None,0,0,0,1,,,,,5,1,41,3,113.805972,,,,,,,,,,,,,,,,,,,,,113.79077849999999,113.805972,114.28917219999994,114.29217919999996,114.30651809999995,114.97362120000003,,,,,114.97385069999996,114.98836399999993,115.18909799999994,115.17256329999998,114.30651809999995,,,,,,,,1,1,0.6638875999999527,None,,,,,,,,813,21,M,L,2026-02-25_11h05.10.925,VisualSearch_2526_3,,2025.2.4,2026-02-25 11h05.11.735246 +0100,
vertical.xlsx,The target is tilted.,135,42,2,5,1,1,1,1,1,1,1,1,0,0,0,0,0,7,8,135,space,3.717418500000008,None,1,1,0.7086381000000301,None,space,1.1136453999999958,None,0,0,0,1,,,,,5,2,42,1,115.18909799999994,,,,,,,,,,,,,,,,,,,,,115.1731562,115.18909799999994,115.67246399999999,115.67718230000003,115.69191439999997,116.40671980000002,,,,,116.40691559999993,116.42155539999999,116.62172609999993,116.60580099999993,115.69191439999997,,,,,,,,1,1,0.7086381000000301,None,,,,,,,,813,21,M,L,2026-02-25_11h05.10.925,VisualSearch_2526_3,,2025.2.4,2026-02-25 11h05.11.735246 +0100,
vertical.xlsx,The target is tilted.,135,43,3,5,0,1,1,1,1,1,1,1,1,1,1,1,1,11,12,135,space,3.717418500000008,None,0,1,0.668412099999955,None,space,1.1136453999999958,None,0,0,0,1,,,,,5,3,43,4,116.62172609999993,,,,,,,,,,,,,,,,,,,,,116.60651589999998,116.62172609999993,117.10602979999999,117.11119469999994,117.12196859999995,117.80602650000003,,,,,117.80622340000002,117.8213637,118.0218281,118.00608490000002,117.12196859999995,,,,,,,,0,1,0.668412099999955,None,,,,,,,,813,21,M,L,2026-02-25_11h05.10.925,VisualSearch_2526_3,,2025.2.4,2026-02-25 11h05.11.735246 +0100,
vertical.xlsx,The target is tilted.,135,44,4,5,0,1,1,1,1,1,1,1,0,0,0,0,1,7,8,135,space,3.717418500000008,None,0,1,5.641186699999935,None,space,1.1136453999999958,None,0,0,0,1,,,,,5,4,44,5,118.0218281,,,,,,,,,,,,,,,,,,,,,118.0071729,118.0218281,118.50568049999993,118.51027299999998,118.52911589999997,124.1716523,,,,,124.17178000000001,124.18707519999998,124.38780220000001,124.37175389999993,118.52911589999997,,,,,,,,0,1,5.641186699999935,None,,,,,,,,813,21,M,L,2026-02-25_11h05.10.925,VisualSearch_2526_3,,2025.2.4,2026-02-25 11h05.11.735246 +0100,
vertical.xlsx,The target is tilted.,135,45,5,5,0,0,0,0,0,0,0,0,0,0,0,0,1,1,1,135,space,3.717418500000008,None,0,1,1.1823715000000448,None,space,1.1136453999999958,None,0,0,0,1,,,,,5,5,45,7,124.38780220000001,,,,,,,,,,,,,,,,,,,,,124.37255479999999,124.38780220000001,124.8717236,124.87701289999995,124.89671720000001,126.08860359999994,,,,,126.08882640000002,126.10343939999996,126.30375700000002,126.28794329999994,124.89671720000001,,,,,,,,0,1,1.1823715000000448,None,,,,,,,,813,21,M,L,2026-02-25_11h05.10.925,VisualSearch_2526_3,,2025.2.4,2026-02-25 11h05.11.735246 +0100,
vertical.xlsx,The target is tilted.,135,46,6,5,1,1,1,1,0,0,0,0,0,0,0,0,0,3,4,135,space,3.717418500000008,None,1,1,0.6532918999999993,None,space,1.1136453999999958,None,0,0,0,1,,,,,5,6,46,2,126.30375700000002,,,,,,,,,,,,,,,,,,,,,126.28869899999995,126.30375700000002,126.78808259999994,126.79336309999997,126.81278320000001,127.47158999999999,,,,,127.47178659999997,127.48679329999993,127.68698840000002,127.67104870000003,126.81278320000001,,,,,,,,1,1,0.6532918999999993,None,,,,,,,,813,21,M,L,2026-02-25_11h05.10.925,VisualSearch_2526_3,,2025.2.4,2026-02-25 11h05.11.735246 +0100,
vertical.xlsx,The target is tilted.,135,47,7,5,0,1,1,1,0,0,0,0,0,0,0,0,1,3,4,135,space,3.717418500000008,None,0,1,0.5804898000000094,None,space,1.1136453999999958,None,0,0,0,1,,,,,5,7,47,6,127.68698840000002,,,,,,,,,,,,,,,,,,,,,127.6719478,127.68698840000002,128.17127389999996,128.17654679999998,128.19621659999996,128.78817919999995,,,,,128.78837439999995,128.80330879999997,129.0034726,128.98720229999992,128.19621659999996,,,,,,,,0,1,0.5804898000000094,None,,,,,,,,813,21,M,L,2026-02-25_11h05.10.925,VisualSearch_2526_3,,2025.2.4,2026-02-25 11h05.11.735246 +0100,
vertical.xlsx,The target is tilted.,135,48,0,6,1,1,1,1,1,1,1,1,0,0,0,0,0,7,8,135,space,3.717418500000008,None,1,1,1.1562410000000227,None,space,1.1136453999999958,None,0,0,0,1,,,,,6,0,48,1,129.0034726,,,,,,,,,,,,,,,,,,,,,128.98769889999994,129.0034726,129.48749839999994,129.49218069999995,129.51135509999995,130.67118670000002,,,,,130.67149310000002,130.68636319999996,130.88686110000003,130.87066429999993,129.51135509999995,,,,,,,,1,1,1.1562410000000227,None,,,,,,,,813,21,M,L,2026-02-25_11h05.10.925,VisualSearch_2526_3,,2025.2.4,2026-02-25 11h05.11.735246 +0100,
vertical.xlsx,The target is tilted.,135,49,1,6,0,1,1,1,1,1,1,1,0,0,0,0,1,7,8,135,space,3.717418500000008,None,0,1,0.9097264999999197,None,space,1.1136453999999958,None,0,0,0,1,,,,,6,1,49,5,130.88686110000003,,,,,,,,,,,,,,,,,,,,,130.87142259999996,130.88686110000003,131.37074110000003,131.37572139999997,131.3947319,132.32069239999998,,,,,132.32088880000003,132.3360702,132.53663570000003,132.52064529999996,131.3947319,,,,,,,,0,1,0.9097264999999197,None,,,,,,,,813,21,M,L,2026-02-25_11h05.10.925,VisualSearch_2526_3,,2025.2.4,2026-02-25 11h05.11.735246 +0100,
vertical.xlsx,The target is tilted.,135,50,2,6,1,1,1,1,1,1,1,1,1,1,1,1,0,11,12,135,space,3.717418500000008,None,1,1,0.5657403000000158,None,space,1.1136453999999958,None,0,0,0,1,,,,,6,2,50,0,132.53663570000003,,,,,,,,,,,,,,,,,,,,,132.52144149999992,132.53663570000003,133.02032699999995,133.02494509999997,133.04387009999994,133.6208504,,,,,133.62106699999993,133.63592189999997,133.836361,133.8201219,133.04387009999994,,,,,,,,1,1,0.5657403000000158,None,,,,,,,,813,21,M,L,2026-02-25_11h05.10.925,VisualSearch_2526_3,,2025.2.4,2026-02-25 11h05.11.735246 +0100,
vertical.xlsx,The target is tilted.,135,51,3,6,1,0,0,0,0,0,0,0,0,0,0,0,0,0,1,135,space,3.717418500000008,None,1,1,0.4772070999999869,None,space,1.1136453999999958,None,0,0,0,1,,,,,6,3,51,3,133.836361,,,,,,,,,,,,,,,,,,,,,133.82095089999996,133.836361,134.32016999999996,134.32479619999992,134.34371880000003,134.8362618,,,,,134.83638439999993,134.85275709999996,,135.0364806,134.34371880000003,,,,,,,,1,1,0.4772070999999869,None,,,,,,,,813,21,M,L,2026-02-25_11h05.10.925,VisualSearch_2526_3,,2025.2.4,2026-02-25 11h05.11.735246 +0100,
vertical.xlsx,The target is tilted.,135,52,4,6,0,1,1,1,1,1,1,1,1,1,1,1,1,11,12,135,space,3.717418500000008,None,0,1,0.7150083999999879,None,space,1.1136453999999958,None,0,0,0,1,,,,,6,4,52,4,135.05292529999997,,,,,,,,,,,,,,,,,,,,,135.03723660000003,135.05292529999997,135.53667659999996,135.54132549999997,135.55561360000002,136.2865342,,,,,136.28677129999994,136.30208449999998,136.50268949999997,136.48652600000003,135.55561360000002,,,,,,,,0,1,0.7150083999999879,None,,,,,,,,813,21,M,L,2026-02-25_11h05.10.925,VisualSearch_2526_3,,2025.2.4,2026-02-25 11h05.11.735246 +0100,
vertical.xlsx,The target is tilted.,135,53,5,6,0,1,1,1,0,0,0,0,0,0,0,0,1,3,4,135,space,3.717418500000008,None,0,1,0.9510259999999562,None,space,1.1136453999999958,None,0,0,0,1,,,,,6,5,53,6,136.50268949999997,,,,,,,,,,,,,,,,,,,,,136.4872739,136.50268949999997,136.98612300000002,136.99070759999995,137.00961819999998,137.97026670000002,,,,,137.97046049999994,137.98526099999992,138.1857678,138.16965389999996,137.00961819999998,,,,,,,,0,1,0.9510259999999562,None,,,,,,,,813,21,M,L,2026-02-25_11h05.10.925,VisualSearch_2526_3,,2025.2.4,2026-02-25 11h05.11.735246 +0100,
vertical.xlsx,The target is tilted.,135,54,6,6,0,0,0,0,0,0,0,0,0,0,0,0,1,1,1,135,space,3.717418500000008,None,0,1,0.48094770000000153,None,space,1.1136453999999958,None,0,0,0,1,,,,,6,6,54,7,138.1857678,,,,,,,,,,,,,,,,,,,,,138.17042530000003,138.1857678,138.669394,138.67399620000003,138.69275099999993,139.18613329999994,,,,,139.1863565,139.20181189999994,139.40211709999994,139.38601459999995,138.69275099999993,,,,,,,,0,1,0.48094770000000153,None,,,,,,,,813,21,M,L,2026-02-25_11h05.10.925,VisualSearch_2526_3,,2025.2.4,2026-02-25 11h05.11.735246 +0100,
vertical.xlsx,The target is tilted.,135,55,7,6,1,1,1,1,0,0,0,0,0,0,0,0,0,3,4,135,space,3.717418500000008,None,1,1,0.7587126000000808,None,space,1.1136453999999958,None,0,0,0,1,,,,,6,7,55,2,139.40211709999994,,,,,,,,,,,,,,,,,,,,,139.3867398,139.40211709999994,139.88619659999995,139.89148749999993,139.91069500000003,140.6861149,,,,,140.6863115,140.70135089999997,140.9018946,140.88572679999993,139.91069500000003,,,,,,,,1,1,0.7587126000000808,None,,,,,,,,813,21,M,L,2026-02-25_11h05.10.925,VisualSearch_2526_3,,2025.2.4,2026-02-25 11h05.11.735246 +0100,
vertical.xlsx,The target is tilted.,135,56,0,7,0,1,1,1,0,0,0,0,0,0,0,0,1,3,4,135,space,3.717418500000008,None,0,1,1.1920158000000356,None,space,1.1136453999999958,None,0,0,0,1,,,,,7,0,56,6,140.9018946,,,,,,,,,,,,,,,,,,,,,140.8865604,140.9018946,141.38597719999996,141.3913791,141.41074200000003,142.61892969999997,,,,,142.61915090000002,142.63464349999992,142.83501969999998,142.81858049999994,141.41074200000003,,,,,,,,0,1,1.1920158000000356,None,,,,,,,,813,21,M,L,2026-02-25_11h05.10.925,VisualSearch_2526_3,,2025.2.4,2026-02-25 11h05.11.735246 +0100,
vertical.xlsx,The target is tilted.,135,57,1,7,1,0,0,0,0,0,0,0,0,0,0,0,0,0,1,135,space,3.717418500000008,None,1,1,0.6923556000000417,None,space,1.1136453999999958,None,0,0,0,1,,,,,7,1,57,3,142.83501969999998,,,,,,,,,,,,,,,,,,,,,142.81906329999993,142.83501969999998,143.31860329999995,143.3230717,143.33485810000002,144.03590939999992,,,,,144.03611739999997,144.05115319999993,144.2516286,144.23539059999996,143.33485810000002,,,,,,,,1,1,0.6923556000000417,None,,,,,,,,813,21,M,L,2026-02-25_11h05.10.925,VisualSearch_2526_3,,2025.2.4,2026-02-25 11h05.11.735246 +0100,
vertical.xlsx,The target is tilted.,135,58,2,7,0,1,1,1,1,1,1,1,1,1,1,1,1,11,12,135,space,3.717418500000008,None,0,1,0.8432987999999568,None,space,1.1136453999999958,None,0,0,0,1,,,,,7,2,58,4,144.2516286,,,,,,,,,,,,,,,,,,,,,144.2362299,144.2516286,144.73504589999993,144.73962010000002,144.75146010000003,145.60250859999996,,,,,145.60270849999995,145.61755440000002,145.81806369999993,145.8017433,144.75146010000003,,,,,,,,0,1,0.8432987999999568,None,,,,,,,,813,21,M,L,2026-02-25_11h05.10.925,VisualSearch_2526_3,,2025.2.4,2026-02-25 11h05.11.735246 +0100,
vertical.xlsx,The target is tilted.,135,59,3,7,1,1,1,1,1,1,1,1,1,1,1,1,0,11,12,135,space,3.717418500000008,None,1,1,0.8294938000000229,None,space,1.1136453999999958,None,0,0,0,1,,,,,7,3,59,0,145.81806369999993,,,,,,,,,,,,,,,,,,,,,145.80247269999995,145.81806369999993,146.30182609999997,146.3064253,146.32531319999998,147.16831519999994,,,,,147.16861799999992,147.18397659999994,147.38428939999994,147.36825179999994,146.32531319999998,,,,,,,,1,1,0.8294938000000229,None,,,,,,,,813,21,M,L,2026-02-25_11h05.10.925,VisualSearch_2526_3,,2025.2.4,2026-02-25 11h05.11.735246 +0100,
vertical.xlsx,The target is tilted.,135,60,4,7,1,1,1,1,1,1,1,1,0,0,0,0,0,7,8,135,space,3.717418500000008,None,1,1,0.5262550999999576,None,space,1.1136453999999958,None,0,0,0,1,,,,,7,4,60,1,147.38428939999994,,,,,,,,,,,,,,,,,,,,,147.36899770000002,147.38428939999994,147.8681686,147.87281640000003,147.89166569999998,148.43530429999998,,,,,148.43550949999997,148.45047160000001,148.65055569999993,148.6347707,147.89166569999998,,,,,,,,1,1,0.5262550999999576,None,,,,,,,,813,21,M,L,2026-02-25_11h05.10.925,VisualSearch_2526_3,,2025.2.4,2026-02-25 11h05.11.735246 +0100,
vertical.xlsx,The target is tilted.,135,61,5,7,0,1,1,1,1,1,1,1,0,0,0,0,1,7,8,135,space,3.717418500000008,None,0,1,0.5876461999999947,None,space,1.1136453999999958,None,0,0,0,1,,,,,7,5,61,5,148.65055569999993,,,,,,,,,,,,,,,,,,,,,148.6355972,148.65055569999993,149.13446599999997,149.1390751,149.15794829999993,149.75177499999995,,,,,149.75196759999994,149.76693360000002,149.96750120000002,149.95125269999994,149.15794829999993,,,,,,,,0,1,0.5876461999999947,None,,,,,,,,813,21,M,L,2026-02-25_11h05.10.925,VisualSearch_2526_3,,2025.2.4,2026-02-25 11h05.11.735246 +0100,
vertical.xlsx,The target is tilted.,135,62,6,7,1,1,1,1,0,0,0,0,0,0,0,0,0,3,4,135,space,3.717418500000008,None,1,1,0.5290057999999362,None,space,1.1136453999999958,None,0,0,0,1,,,,,7,6,62,2,149.96750120000002,,,,,,,,,,,,,,,,,,,,,149.9519894,149.96750120000002,150.45115899999996,150.4558588,150.47488699999997,151.01776940000002,,,,,151.0179974,151.0334166,151.23357420000002,151.2179211,150.47488699999997,,,,,,,,1,1,0.5290057999999362,None,,,,,,,,813,21,M,L,2026-02-25_11h05.10.925,VisualSearch_2526_3,,2025.2.4,2026-02-25 11h05.11.735246 +0100,
vertical.xlsx,The target is tilted.,135,63,7,7,0,0,0,0,0,0,0,0,0,0,0,0,1,1,1,135,space,3.717418500000008,None,0,1,0.6232643000000735,None,space,1.1136453999999958,None,0,0,0,1,,,,,7,7,63,7,151.23357420000002,,,,,,,,,,,,,,,,,,,,,151.2187143,151.23357420000002,151.7177835,151.72239230000002,151.74128199999996,152.36783549999996,,,,,152.36802739999996,152.38330959999996,152.5836471,152.56754899999999,151.74128199999996,,,,,,,,0,1,0.6232643000000735,None,,,,,,,,813,21,M,L,2026-02-25_11h05.10.925,VisualSearch_2526_3,,2025.2.4,2026-02-25 11h05.11.735246 +0100,
vertical.xlsx,The target is tilted.,135,64,0,8,1,1,1,1,1,1,1,1,1,1,1,1,0,11,12,135,space,3.717418500000008,None,1,1,0.42601060000004054,None,space,1.1136453999999958,None,0,0,0,1,,,,,8,0,64,0,152.5836471,,,,,,,,,,,,,,,,,,,,,152.5682918,152.5836471,153.06768349999993,153.0728176,153.09183369999994,153.5340681,,,,,153.53430459999993,153.54974449999997,153.7502961,153.7341543,153.09183369999994,,,,,,,,1,1,0.42601060000004054,None,,,,,,,,813,21,M,L,2026-02-25_11h05.10.925,VisualSearch_2526_3,,2025.2.4,2026-02-25 11h05.11.735246 +0100,
vertical.xlsx,The target is tilted.,135,65,1,8,1,1,1,1,1,1,1,1,0,0,0,0,0,7,8,135,space,3.717418500000008,None,1,1,0.40673709999998664,None,space,1.1136453999999958,None,0,0,0,1,,,,,8,1,65,1,153.7502961,,,,,,,,,,,,,,,,,,,,,153.73486939999998,153.7502961,154.2339773,154.23852190000002,154.25745540000003,154.66752969999993,,,,,154.66772089999995,154.68269850000001,154.88287029999992,154.86721279999995,154.25745540000003,,,,,,,,1,1,0.40673709999998664,None,,,,,,,,813,21,M,L,2026-02-25_11h05.10.925,VisualSearch_2526_3,,2025.2.4,2026-02-25 11h05.11.735246 +0100,
vertical.xlsx,The target is tilted.,135,66,2,8,0,1,1,1,1,1,1,1,0,0,0,0,1,7,8,135,space,3.717418500000008,None,0,1,0.8010828999999831,None,space,1.1136453999999958,None,0,0,0,1,,,,,8,2,66,5,154.88287029999992,,,,,,,,,,,,,,,,,,,,,154.86796249999998,154.88287029999992,155.36713229999998,155.37175919999993,155.39045369999997,156.2009733,,,,,156.20116740000003,156.21602169999994,156.41654649999998,156.40042399999993,155.39045369999997,,,,,,,,0,1,0.8010828999999831,None,,,,,,,,813,21,M,L,2026-02-25_11h05.10.925,VisualSearch_2526_3,,2025.2.4,2026-02-25 11h05.11.735246 +0100,
vertical.xlsx,The target is tilted.,135,67,3,8,0,1,1,1,1,1,1,1,1,1,1,1,1,11,12,135,space,3.717418500000008,None,0,1,0.7020560000000842,None,space,1.1136453999999958,None,0,0,0,1,,,,,8,3,67,4,156.41654649999998,,,,,,,,,,,,,,,,,,,,,156.40122659999997,156.41654649999998,156.90047070000003,156.90562539999996,156.92396039999994,157.63409219999994,,,,,157.63428550000003,157.6491787,157.84973059999993,157.83363499999996,156.92396039999994,,,,,,,,0,1,0.7020560000000842,None,,,,,,,,813,21,M,L,2026-02-25_11h05.10.925,VisualSearch_2526_3,,2025.2.4,2026-02-25 11h05.11.735246 +0100,
vertical.xlsx,The target is tilted.,135,68,4,8,1,0,0,0,0,0,0,0,0,0,0,0,0,0,1,135,space,3.717418500000008,None,1,1,0.678055699999959,None,space,1.1136453999999958,None,0,0,0,1,,,,,8,4,68,3,157.84973059999993,,,,,,,,,,,,,,,,,,,,,157.8344336,157.84973059999993,158.33361249999996,158.33874479999997,158.35735520000003,159.05014919999996,,,,,159.05034890000002,159.06565279999995,159.2661706,159.25009909999994,158.35735520000003,,,,,,,,1,1,0.678055699999959,None,,,,,,,,813,21,M,L,2026-02-25_11h05.10.925,VisualSearch_2526_3,,2025.2.4,2026-02-25 11h05.11.735246 +0100,
vertical.xlsx,The target is tilted.,135,69,5,8,1,1,1,1,0,0,0,0,0,0,0,0,0,3,4,135,space,3.717418500000008,None,1,1,0.49793480000005275,None,space,1.1136453999999958,None,0,0,0,1,,,,,8,5,69,2,159.2661706,,,,,,,,,,,,,,,,,,,,,159.25093200000003,159.2661706,159.7500308,159.75516159999995,159.7740308,160.2837386,,,,,160.28392889999998,160.29878159999998,160.49935729999993,160.48325950000003,159.7740308,,,,,,,,1,1,0.49793480000005275,None,,,,,,,,813,21,M,L,2026-02-25_11h05.10.925,VisualSearch_2526_3,,2025.2.4,2026-02-25 11h05.11.735246 +0100,
vertical.xlsx,The target is tilted.,135,70,6,8,0,0,0,0,0,0,0,0,0,0,0,0,1,1,1,135,space,3.717418500000008,None,0,1,0.47094140000001516,None,space,1.1136453999999958,None,0,0,0,1,,,,,8,6,70,7,160.49935729999993,,,,,,,,,,,,,,,,,,,,,160.48412569999994,160.49935729999993,160.98326629999997,160.9883112,161.00639089999993,161.48237519999998,,,,,161.48249859999999,161.4990242,161.6984384,161.68220280000003,161.00639089999993,,,,,,,,0,1,0.47094140000001516,None,,,,,,,,813,21,M,L,2026-02-25_11h05.10.925,VisualSearch_2526_3,,2025.2.4,2026-02-25 11h05.11.735246 +0100,
vertical.xlsx,The target is tilted.,135,71,7,8,0,1,1,1,0,0,0,0,0,0,0,0,1,3,4,135,space,3.717418500000008,None,0,1,0.7363130999999612,None,space,1.1136453999999958,None,0,0,0,1,,,,,8,7,71,6,161.6984384,,,,,,,,,,,,,,,,,,,,,161.68265759999997,161.6984384,162.18213279999998,162.18605849999994,162.19844899999998,162.94947739999998,,,,,162.94966899999997,162.96510479999995,163.16490579999993,163.1485639,162.19844899999998,,,,,,,,0,1,0.7363130999999612,None,,,,,,,,813,21,M,L,2026-02-25_11h05.10.925,VisualSearch_2526_3,,2025.2.4,2026-02-25 11h05.11.735246 +0100,
vertical.xlsx,The target is tilted.,135,72,0,9,1,0,0,0,0,0,0,0,0,0,0,0,0,0,1,135,space,3.717418500000008,None,1,1,0.5287964999999986,None,space,1.1136453999999958,None,0,0,0,1,,,,,9,0,72,3,163.16490579999993,,,,,,,,,,,,,,,,,,,,,163.14901829999997,163.16490579999993,163.6494775,163.65432829999997,163.67255079999995,164.21538880000003,,,,,164.21556039999996,164.23172699999998,164.4319504,164.41582340000002,163.67255079999995,,,,,,,,1,1,0.5287964999999986,None,,,,,,,,813,21,M,L,2026-02-25_11h05.10.925,VisualSearch_2526_3,,2025.2.4,2026-02-25 11h05.11.735246 +0100,
vertical.xlsx,The target is tilted.,135,73,1,9,1,1,1,1,0,0,0,0,0,0,0,0,0,3,4,135,space,3.717418500000008,None,1,1,0.6454969000000119,None,space,1.1136453999999958,None,0,0,0,1,,,,,9,1,73,2,164.4319504,,,,,,,,,,,,,,,,,,,,,164.41656479999995,164.4319504,164.9157186,164.92088709999996,164.93786490000002,165.59900259999995,,,,,165.59923029999993,165.61464219999993,165.81520799999998,165.799167,,,,,,,,,1,1,0.6454969000000119,None,,,,,,,,813,21,M,L,2026-02-25_11h05.10.925,VisualSearch_2526_3,,2025.2.4,2026-02-25 11h05.11.735246 +0100,
vertical.xlsx,The target is tilted.,135,74,2,9,1,1,1,1,1,1,1,1,1,1,1,1,0,11,12,135,space,3.717418500000008,None,1,1,0.7062796999999819,None,space,1.1136453999999958,None,0,0,0,1,,,,,9,2,74,0,165.81520799999998,,,,,,,,,,,,,,,,,,,,,165.80003369999997,165.81520799999998,166.29905580000002,166.3040161,166.32256429999995,167.0323806,,,,,167.03256779999992,167.04779139999994,167.24774579999996,167.23139930000002,166.32256429999995,,,,,,,,1,1,0.7062796999999819,None,,,,,,,,813,21,M,L,2026-02-25_11h05.10.925,VisualSearch_2526_3,,2025.2.4,2026-02-25 11h05.11.735246 +0100,
vertical.xlsx,The target is tilted.,135,75,3,9,0,0,0,0,0,0,0,0,0,0,0,0,1,1,1,135,space,3.717418500000008,None,0,1,0.49789430000009816,None,space,1.1136453999999958,None,0,0,0,1,,,,,9,3,75,7,167.24774579999996,,,,,,,,,,,,,,,,,,,,,167.23175430000003,167.24774579999996,167.7317981,167.73678819999998,167.75791259999994,168.26477090000003,,,,,168.26488899999993,168.2809277,168.48086720000003,168.46459259999995,167.75791259999994,,,,,,,,0,1,0.49789430000009816,None,,,,,,,,813,21,M,L,2026-02-25_11h05.10.925,VisualSearch_2526_3,,2025.2.4,2026-02-25 11h05.11.735246 +0100,
vertical.xlsx,The target is tilted.,135,76,4,9,1,1,1,1,1,1,1,1,0,0,0,0,0,7,8,135,space,3.717418500000008,None,1,1,0.6887567999999646,None,space,1.1136453999999958,None,0,0,0,1,,,,,9,4,76,1,168.48086720000003,,,,,,,,,,,,,,,,,,,,,168.46508699999993,168.48086720000003,168.9653032,168.97022989999994,168.98838309999996,169.68200389999993,,,,,169.68218949999994,169.6974685,169.89794540000003,169.881439,168.98838309999996,,,,,,,,1,1,0.6887567999999646,None,,,,,,,,813,21,M,L,2026-02-25_11h05.10.925,VisualSearch_2526_3,,2025.2.4,2026-02-25 11h05.11.735246 +0100,
vertical.xlsx,The target is tilted.,135,77,5,9,0,1,1,1,0,0,0,0,0,0,0,0,1,3,4,135,space,3.717418500000008,None,0,1,0.6434531999999535,None,space,1.1136453999999958,None,0,0,0,1,,,,,9,5,77,6,169.89794540000003,,,,,,,,,,,,,,,,,,,,,169.88218819999997,169.89794540000003,170.38184749999994,170.38683379999998,170.40549679999992,171.06486970000003,,,,,171.06508409999992,171.08057380000002,171.28088219999995,171.26472569999999,170.40549679999992,,,,,,,,0,1,0.6434531999999535,None,,,,,,,,813,21,M,L,2026-02-25_11h05.10.925,VisualSearch_2526_3,,2025.2.4,2026-02-25 11h05.11.735246 +0100,
vertical.xlsx,The target is tilted.,135,78,6,9,0,1,1,1,1,1,1,1,0,0,0,0,1,7,8,135,space,3.717418500000008,None,0,1,1.095386899999994,None,space,1.1136453999999958,None,0,0,0,1,,,,,9,6,78,5,171.28088219999995,,,,,,,,,,,,,,,,,,,,,171.26543919999995,171.28088219999995,171.7647981,171.76988319999998,171.7882783,172.89789639999992,,,,,172.8981238,172.91364599999997,173.11371109999993,173.09788609999998,171.7882783,,,,,,,,0,1,1.095386899999994,None,,,,,,,,813,21,M,L,2026-02-25_11h05.10.925,VisualSearch_2526_3,,2025.2.4,2026-02-25 11h05.11.735246 +0100,
vertical.xlsx,The target is tilted.,135,79,7,9,0,1,1,1,1,1,1,1,1,1,1,1,1,11,12,135,space,3.717418500000008,None,0,1,1.1781783000000132,None,space,1.1136453999999958,None,0,0,0,1,,,,,9,7,79,4,173.11371109999993,,,,,,,,,,,,,,,,,,,,,173.0987225,173.11371109999993,173.59806089999995,173.60331439999993,173.62293520000003,174.81441199999995,,,,,174.81461019999995,174.82999759999996,175.03063580000003,175.01415329999998,173.62293520000003,,,,,,,,0,1,1.1781783000000132,None,,,,,,,,813,21,M,L,2026-02-25_11h05.10.925,VisualSearch_2526_3,,2025.2.4,2026-02-25 11h05.11.735246 +0100,
vertical.xlsx,The target is tilted.,135,80,0,10,0,1,1,1,1,1,1,1,0,0,0,0,1,7,8,135,space,3.717418500000008,None,0,1,0.8030491999999185,None,space,1.1136453999999958,None,0,0,0,1,,,,,10,0,80,5,175.03063580000003,,,,,,,,,,,,,,,,,,,,,175.01488029999996,175.03063580000003,175.51425519999998,175.5187624,175.53748059999998,176.34750929999996,,,,,176.34765299999992,176.3629906,176.5635754,176.54763409999998,175.53748059999998,,,,,,,,0,1,0.8030491999999185,None,,,,,,,,813,21,M,L,2026-02-25_11h05.10.925,VisualSearch_2526_3,,2025.2.4,2026-02-25 11h05.11.735246 +0100,
vertical.xlsx,The target is tilted.,135,81,1,10,0,1,1,1,0,0,0,0,0,0,0,0,1,3,4,135,space,3.717418500000008,None,0,1,0.6093102999999473,None,space,1.1136453999999958,None,0,0,0,1,,,,,10,1,81,6,176.5635754,,,,,,,,,,,,,,,,,,,,,176.5484811,176.5635754,177.0474143,177.05201969999996,177.07136519999995,177.69738080000002,,,,,177.69757459999994,177.7129063,177.91320699999994,177.89723119999996,177.07136519999995,,,,,,,,0,1,0.6093102999999473,None,,,,,,,,813,21,M,L,2026-02-25_11h05.10.925,VisualSearch_2526_3,,2025.2.4,2026-02-25 11h05.11.735246 +0100,
vertical.xlsx,The target is tilted.,135,82,2,10,1,1,1,1,0,0,0,0,0,0,0,0,0,3,4,135,space,3.717418500000008,None,1,1,0.5045182000000068,None,space,1.1136453999999958,None,0,0,0,1,,,,,10,2,82,2,177.91320699999994,,,,,,,,,,,,,,,,,,,,,177.8980553,177.91320699999994,178.39735359999997,178.40245489999995,178.42088149999995,178.93078409999998,,,,,178.93097209999996,178.94656829999997,179.14671350000003,179.13068609999993,178.42088149999995,,,,,,,,1,1,0.5045182000000068,None,,,,,,,,813,21,M,L,2026-02-25_11h05.10.925,VisualSearch_2526_3,,2025.2.4,2026-02-25 11h05.11.735246 +0100,
vertical.xlsx,The target is tilted.,135,83,3,10,1,1,1,1,1,1,1,1,0,0,0,0,0,7,8,135,space,3.717418500000008,None,1,1,0.7478100000000723,None,space,1.1136453999999958,None,0,0,0,1,,,,,10,3,83,1,179.14671350000003,,,,,,,,,,,,,,,,,,,,,179.1315015,179.14671350000003,179.63015039999993,179.63494300000002,179.6538157,180.41429010000002,,,,,180.41451599999994,180.42967520000002,180.62964979999992,180.61322310000003,179.6538157,,,,,,,,1,1,0.7478100000000723,None,,,,,,,,813,21,M,L,2026-02-25_11h05.10.925,VisualSearch_2526_3,,2025.2.4,2026-02-25 11h05.11.735246 +0100,
vertical.xlsx,The target is tilted.,135,84,4,10,0,1,1,1,1,1,1,1,1,1,1,1,1,11,12,135,space,3.717418500000008,None,0,1,0.799990600000001,None,space,1.1136453999999958,None,0,0,0,1,,,,,10,4,84,4,180.62964979999992,,,,,,,,,,,,,,,,,,,,,180.61397739999995,180.62964979999992,181.11353299999996,181.11816450000003,181.13716169999998,181.9468035,,,,,181.9469547,181.96271219999994,182.16289329999995,182.14636510000003,181.13716169999998,,,,,,,,0,1,0.799990600000001,None,,,,,,,,813,21,M,L,2026-02-25_11h05.10.925,VisualSearch_2526_3,,2025.2.4,2026-02-25 11h05.11.735246 +0100,
vertical.xlsx,The target is tilted.,135,85,5,10,1,1,1,1,1,1,1,1,1,1,1,1,0,11,12,135,space,3.717418500000008,None,1,1,0.5296968000000106,None,space,1.1136453999999958,None,0,0,0,1,,,,,10,5,85,0,182.16289329999995,,,,,,,,,,,,,,,,,,,,,182.1470961,182.16289329999995,182.64658910000003,182.65111719999993,182.66682019999996,183.21380869999996,,,,,183.21399910000002,183.22928059999992,183.42949779999992,183.41337009999995,182.66682019999996,,,,,,,,1,1,0.5296968000000106,None,,,,,,,,813,21,M,L,2026-02-25_11h05.10.925,VisualSearch_2526_3,,2025.2.4,2026-02-25 11h05.11.735246 +0100,
vertical.xlsx,The target is tilted.,135,86,6,10,0,0,0,0,0,0,0,0,0,0,0,0,1,1,1,135,space,3.717418500000008,None,0,1,0.6605581999999686,None,space,1.1136453999999958,None,0,0,0,1,,,,,10,6,86,7,183.42949779999992,,,,,,,,,,,,,,,,,,,,,183.41415199999994,183.42949779999992,183.913185,183.91767400000003,183.93644459999996,184.6135905,,,,,184.61378089999994,184.62910290000002,184.8291335,184.81285459999992,183.93644459999996,,,,,,,,0,1,0.6605581999999686,None,,,,,,,,813,21,M,L,2026-02-25_11h05.10.925,VisualSearch_2526_3,,2025.2.4,2026-02-25 11h05.11.735246 +0100,
vertical.xlsx,The target is tilted.,135,87,7,10,1,0,0,0,0,0,0,0,0,0,0,0,0,0,1,135,space,3.717418500000008,None,1,1,0.5793154000000413,None,space,1.1136453999999958,None,0,0,0,1,,,,,10,7,87,3,184.8291335,,,,,,,,,,,,,,,,,,,,,184.81356119999998,184.8291335,185.3130731,185.31827899999996,185.3309762,185.91352629999994,,,,,185.91374439999993,185.92857600000002,186.1290024,186.1129264,185.3309762,,,,,,,,1,1,0.5793154000000413,None,,,,,,,,813,21,M,L,2026-02-25_11h05.10.925,VisualSearch_2526_3,,2025.2.4,2026-02-25 11h05.11.735246 +0100,
vertical.xlsx,The target is tilted.,135,88,0,11,1,1,1,1,0,0,0,0,0,0,0,0,0,3,4,135,space,3.717418500000008,None,1,1,0.42556920000004084,None,space,1.1136453999999958,None,0,0,0,1,,,,,11,0,88,2,186.1290024,,,,,,,,,,,,,,,,,,,,,186.1137298,186.1290024,186.61266869999997,186.617167,186.63258209999992,187.06288719999998,,,,,187.06307300000003,187.0784397,187.278858,187.26282759999992,186.63258209999992,,,,,,,,1,1,0.42556920000004084,None,,,,,,,,813,21,M,L,2026-02-25_11h05.10.925,VisualSearch_2526_3,,2025.2.4,2026-02-25 11h05.11.735246 +0100,
vertical.xlsx,The target is tilted.,135,89,1,11,0,1,1,1,1,1,1,1,1,1,1,1,1,11,12,135,space,3.717418500000008,None,0,1,0.503003900000067,None,space,1.1136453999999958,None,0,0,0,1,,,,,11,1,89,4,187.278858,,,,,,,,,,,,,,,,,,,,,187.26363879999997,187.278858,187.76242949999994,187.76689769999996,187.7855088,188.29634199999998,,,,,188.29652839999994,188.31196709999995,188.51186180000002,188.49537199999997,187.7855088,,,,,,,,0,1,0.503003900000067,None,,,,,,,,813,21,M,L,2026-02-25_11h05.10.925,VisualSearch_2526_3,,2025.2.4,2026-02-25 11h05.11.735246 +0100,
vertical.xlsx,The target is tilted.,135,90,2,11,0,1,1,1,0,0,0,0,0,0,0,0,1,3,4,135,space,3.717418500000008,None,0,1,0.547086199999967,None,space,1.1136453999999958,None,0,0,0,1,,,,,11,2,90,6,188.51186180000002,,,,,,,,,,,,,,,,,,,,,188.49609099999998,188.51186180000002,188.99565329999996,189.00016599999992,189.0195642,189.57889539999996,,,,,189.57901789999994,189.59497769999996,189.79511019999995,189.77909979999993,189.0195642,,,,,,,,0,1,0.547086199999967,None,,,,,,,,813,21,M,L,2026-02-25_11h05.10.925,VisualSearch_2526_3,,2025.2.4,2026-02-25 11h05.11.735246 +0100,
vertical.xlsx,The target is tilted.,135,91,3,11,0,0,0,0,0,0,0,0,0,0,0,0,1,1,1,135,space,3.717418500000008,None,0,1,0.6244069000000536,None,space,1.1136453999999958,None,0,0,0,1,,,,,11,3,91,7,189.79511019999995,,,,,,,,,,,,,,,,,,,,,189.77988499999992,189.79511019999995,190.27885219999996,190.28346190000002,190.30209960000002,190.92943830000002,,,,,190.92964299999994,190.94487519999996,191.144321,191.12825859999998,190.30209960000002,,,,,,,,0,1,0.6244069000000536,None,,,,,,,,813,21,M,L,2026-02-25_11h05.10.925,VisualSearch_2526_3,,2025.2.4,2026-02-25 11h05.11.735246 +0100,
vertical.xlsx,The target is tilted.,135,92,4,11,1,0,0,0,0,0,0,0,0,0,0,0,0,0,1,135,space,3.717418500000008,None,1,1,0.607477700000004,None,space,1.1136453999999958,None,0,0,0,1,,,,,11,4,92,3,191.144321,,,,,,,,,,,,,,,,,,,,,191.1286877,191.144321,191.62880389999998,191.63403119999998,191.6534213,192.262469,,,,,192.26265939999996,192.27785719999997,192.4781001,192.46204739999996,191.6534213,,,,,,,,1,1,0.607477700000004,None,,,,,,,,813,21,M,L,2026-02-25_11h05.10.925,VisualSearch_2526_3,,2025.2.4,2026-02-25 11h05.11.735246 +0100,
vertical.xlsx,The target is tilted.,135,93,5,11,1,1,1,1,1,1,1,1,1,1,1,1,0,11,12,135,space,3.717418500000008,None,1,1,0.8894130999999561,None,space,1.1136453999999958,None,0,0,0,1,,,,,11,5,93,0,192.4781001,,,,,,,,,,,,,,,,,,,,,192.46284279999998,192.4781001,192.9617753,192.96626579999997,192.98536590000003,193.87854600000003,,,,,193.87873189999993,193.89432149999993,194.09426169999995,194.07812879999994,192.98536590000003,,,,,,,,1,1,0.8894130999999561,None,,,,,,,,813,21,M,L,2026-02-25_11h05.10.925,VisualSearch_2526_3,,2025.2.4,2026-02-25 11h05.11.735246 +0100,
vertical.xlsx,The target is tilted.,135,94,6,11,0,1,1,1,1,1,1,1,0,0,0,0,1,7,8,135,space,3.717418500000008,None,0,1,0.5540273999999954,None,space,1.1136453999999958,None,0,0,0,1,,,,,11,6,94,5,194.09426169999995,,,,,,,,,,,,,,,,,,,,,194.0788784,194.09426169999995,194.57836499999996,194.58336269999995,194.6026342,195.16203389999998,,,,,195.16222299999993,195.1776671,195.3774227,195.36093389999996,194.6026342,,,,,,,,0,1,0.5540273999999954,None,,,,,,,,813,21,M,L,2026-02-25_11h05.10.925,VisualSearch_2526_3,,2025.2.4,2026-02-25 11h05.11.735246 +0100,
vertical.xlsx,The target is tilted.,135,95,7,11,1,1,1,1,1,1,1,1,0,0,0,0,0,7,8,135,space,3.717418500000008,None,0,0,0.8848117999999658,None,space,1.1136453999999958,None,0,0,0,1,,,,,11,7,95,1,195.3774227,,,,,,,,,,,,,,,,,,,,,195.3613666,195.3774227,195.86122909999995,195.86573120000003,195.88281340000003,196.77850019999994,,,,,196.77868999999998,196.7936826,196.99368040000002,196.9776177,195.88281340000003,,,,,,,,0,0,0.8848117999999658,None,,,,,,,,813,21,M,L,2026-02-25_11h05.10.925,VisualSearch_2526_3,,2025.2.4,2026-02-25 11h05.11.735246 +0100,
vertical.xlsx,The target is tilted.,135,96,0,12,1,1,1,1,1,1,1,1,0,0,0,0,0,7,8,135,space,3.717418500000008,None,1,1,0.853002599999968,None,space,1.1136453999999958,None,0,0,0,1,,,,,12,0,96,1,196.99368040000002,,,,,,,,,,,,,,,,,,,,,196.97816820000003,196.99368040000002,197.477668,197.48410519999993,197.49665529999993,198.3613878,,,,,198.36157579999997,198.37710979999997,198.57700939999995,198.56065289999992,197.49665529999993,,,,,,,,1,1,0.853002599999968,None,,,,,,,,813,21,M,L,2026-02-25_11h05.10.925,VisualSearch_2526_3,,2025.2.4,2026-02-25 11h05.11.735246 +0100,
vertical.xlsx,The target is tilted.,135,97,1,12,1,0,0,0,0,0,0,0,0,0,0,0,0,0,1,135,space,3.717418500000008,None,1,1,0.5890978999999561,None,space,1.1136453999999958,None,0,0,0,1,,,,,12,1,97,3,198.57700939999995,,,,,,,,,,,,,,,,,,,,,198.56109049999998,198.57700939999995,199.06020260000003,199.06275219999998,199.07691149999994,199.67811559999996,,,,,199.67830279999998,199.6935734,199.8936592,199.87760919999994,199.07691149999994,,,,,,,,1,1,0.5890978999999561,None,,,,,,,,813,21,M,L,2026-02-25_11h05.10.925,VisualSearch_2526_3,,2025.2.4,2026-02-25 11h05.11.735246 +0100,
vertical.xlsx,The target is tilted.,135,98,2,12,0,1,1,1,1,1,1,1,0,0,0,0,1,7,8,135,space,3.717418500000008,None,0,1,0.7371606000000384,None,space,1.1136453999999958,None,0,0,0,1,,,,,12,2,98,5,199.8936592,,,,,,,,,,,,,,,,,,,,,199.87843869999995,199.8936592,200.37766,200.3826583,200.40156209999998,201.14455839999994,,,,,201.1447475,201.15976439999997,201.36016989999996,201.34410979999996,200.40156209999998,,,,,,,,0,1,0.7371606000000384,None,,,,,,,,813,21,M,L,2026-02-25_11h05.10.925,VisualSearch_2526_3,,2025.2.4,2026-02-25 11h05.11.735246 +0100,
vertical.xlsx,The target is tilted.,135,99,3,12,0,1,1,1,1,1,1,1,1,1,1,1,1,11,12,135,space,3.717418500000008,None,0,1,0.8636570999999549,None,space,1.1136453999999958,None,0,0,0,1,,,,,12,3,99,4,201.36016989999996,,,,,,,,,,,,,,,,,,,,,201.3449246,201.36016989999996,201.84396300000003,201.8484512,201.86786169999993,202.74409839999998,,,,,202.74428699999999,202.75977809999995,202.95988119999993,202.94382109999992,201.86786169999993,,,,,,,,0,1,0.8636570999999549,None,,,,,,,,813,21,M,L,2026-02-25_11h05.10.925,VisualSearch_2526_3,,2025.2.4,2026-02-25 11h05.11.735246 +0100,
vertical.xlsx,The target is tilted.,135,100,4,12,1,1,1,1,1,1,1,1,1,1,1,1,0,11,12,135,space,3.717418500000008,None,0,0,0.7205893999999944,None,space,1.1136453999999958,None,0,0,0,1,,,,,12,4,100,0,202.95988119999993,,,,,,,,,,,,,,,,,,,,,202.9446494,202.95988119999993,203.44377129999998,203.44829470000002,203.46711489999996,204.1940922,,,,,204.19428529999993,204.2096484,204.4092766,204.39399830000002,203.46711489999996,,,,,,,,0,0,0.7205893999999944,None,,,,,,,,813,21,M,L,2026-02-25_11h05.10.925,VisualSearch_2526_3,,2025.2.4,2026-02-25 11h05.11.735246 +0100,
vertical.xlsx,The target is tilted.,135,101,5,12,0,0,0,0,0,0,0,0,0,0,0,0,1,1,1,135,space,3.717418500000008,None,0,1,0.6452312999999776,None,space,1.1136453999999958,None,0,0,0,1,,,,,12,5,101,7,204.4092766,,,,,,,,,,,,,,,,,,,,,204.39531509999995,204.4092766,204.89372559999993,204.89842999999996,204.91714260000003,205.57727249999994,,,,,205.57747770000003,205.59275249999996,205.79281589999994,205.77652820000003,204.91714260000003,,,,,,,,0,1,0.6452312999999776,None,,,,,,,,813,21,M,L,2026-02-25_11h05.10.925,VisualSearch_2526_3,,2025.2.4,2026-02-25 11h05.11.735246 +0100,
vertical.xlsx,The target is tilted.,135,102,6,12,0,1,1,1,0,0,0,0,0,0,0,0,1,3,4,135,space,3.717418500000008,None,0,1,0.6918143999999984,None,space,1.1136453999999958,None,0,0,0,1,,,,,12,6,102,6,205.79281589999994,,,,,,,,,,,,,,,,,,,,,205.77736129999994,205.79281589999994,206.27676339999994,206.28189709999992,206.30059799999992,206.9936596,,,,,206.99384780000003,207.0091,207.2093751,207.19326549999994,206.30059799999992,,,,,,,,0,1,0.6918143999999984,None,,,,,,,,813,21,M,L,2026-02-25_11h05.10.925,VisualSearch_2526_3,,2025.2.4,2026-02-25 11h05.11.735246 +0100,
vertical.xlsx,The target is tilted.,135,103,7,12,1,1,1,1,0,0,0,0,0,0,0,0,0,3,4,135,space,3.717418500000008,None,1,1,0.5235275000000001,None,space,1.1136453999999958,None,0,0,0,1,,,,,12,7,103,2,207.2093751,,,,,,,,,,,,,,,,,,,,,207.19407009999998,207.2093751,207.69307189999995,207.69752240000003,207.71634110000002,208.2431504,,,,,208.24333739999997,208.25894169999992,208.45884289999992,208.44276189999994,207.71634110000002,,,,,,,,1,1,0.5235275000000001,None,,,,,,,,813,21,M,L,2026-02-25_11h05.10.925,VisualSearch_2526_3,,2025.2.4,2026-02-25 11h05.11.735246 +0100,
vertical.xlsx,The target is tilted.,135,104,0,13,0,0,0,0,0,0,0,0,0,0,0,0,1,1,1,135,space,3.717418500000008,None,0,1,0.6763870999999426,None,space,1.1136453999999958,None,0,0,0,1,,,,,13,0,104,7,208.45884289999992,,,,,,,,,,,,,,,,,,,,,208.4435611,208.45884289999992,208.943036,208.94800750000002,208.9668246,209.66008469999997,,,,,209.6602888,209.67536919999998,209.87557219999997,209.85959649999995,208.9668246,,,,,,,,0,1,0.6763870999999426,None,,,,,,,,813,21,M,L,2026-02-25_11h05.10.925,VisualSearch_2526_3,,2025.2.4,2026-02-25 11h05.11.735246 +0100,
vertical.xlsx,The target is tilted.,135,105,1,13,1,1,1,1,1,1,1,1,0,0,0,0,0,7,8,135,space,3.717418500000008,None,0,0,1.040571,None,space,1.1136453999999958,None,0,0,0,1,,,,,13,1,105,1,209.87557219999997,,,,,,,,,,,,,,,,,,,,,209.86037239999996,209.87557219999997,210.35920950000002,210.36362580000002,210.3753183,211.42640949999998,,,,,211.42660030000002,211.44193740000003,211.64182069999993,211.62592399999994,210.3753183,,,,,,,,0,0,1.040571,None,,,,,,,,813,21,M,L,2026-02-25_11h05.10.925,VisualSearch_2526_3,,2025.2.4,2026-02-25 11h05.11.735246 +0100,
vertical.xlsx,The target is tilted.,135,106,2,13,1,0,0,0,0,0,0,0,0,0,0,0,0,0,1,135,space,3.717418500000008,None,1,1,0.7055793999999196,None,space,1.1136453999999958,None,0,0,0,1,,,,,13,2,106,3,211.64182069999993,,,,,,,,,,,,,,,,,,,,,211.62674029999994,211.64182069999993,212.12589789999993,212.1309119,212.14543019999996,212.8593118,,,,,212.85950149999996,212.87472479999997,213.07487000000003,213.05914640000003,212.14543019999996,,,,,,,,1,1,0.7055793999999196,None,,,,,,,,813,21,M,L,2026-02-25_11h05.10.925,VisualSearch_2526_3,,2025.2.4,2026-02-25 11h05.11.735246 +0100,
vertical.xlsx,The target is tilted.,135,107,3,13,0,1,1,1,1,1,1,1,1,1,1,1,1,11,12,135,space,3.717418500000008,None,0,1,1.3553628999999319,None,space,1.1136453999999958,None,0,0,0,1,,,,,13,3,107,4,213.07487000000003,,,,,,,,,,,,,,,,,,,,,213.05996489999995,213.07487000000003,213.55889100000002,213.5633216,213.58131479999997,214.94254290000003,,,,,214.94273680000003,214.95808119999992,215.15821040000003,215.1422152,213.58131479999997,,,,,,,,0,1,1.3553628999999319,None,,,,,,,,813,21,M,L,2026-02-25_11h05.10.925,VisualSearch_2526_3,,2025.2.4,2026-02-25 11h05.11.735246 +0100,
vertical.xlsx,The target is tilted.,135,108,4,13,0,1,1,1,1,1,1,1,0,0,0,0,1,7,8,135,space,3.717418500000008,None,0,1,0.8321531000000277,None,space,1.1136453999999958,None,0,0,0,1,,,,,13,4,108,5,215.15821040000003,,,,,,,,,,,,,,,,,,,,,215.14292019999993,215.15821040000003,215.64198750000003,215.64699369999994,215.66506019999997,216.5090503,,,,,216.50923939999996,216.52445769999997,216.72444689999998,216.70845229999998,215.66506019999997,,,,,,,,0,1,0.8321531000000277,None,,,,,,,,813,21,M,L,2026-02-25_11h05.10.925,VisualSearch_2526_3,,2025.2.4,2026-02-25 11h05.11.735246 +0100,
vertical.xlsx,The target is tilted.,135,109,5,13,0,1,1,1,0,0,0,0,0,0,0,0,1,3,4,135,space,3.717418500000008,None,0,1,0.603891200000021,None,space,1.1136453999999958,None,0,0,0,1,,,,,13,5,109,6,216.72444689999998,,,,,,,,,,,,,,,,,,,,,216.70926150000003,216.72444689999998,217.20777699999996,217.2116095,217.2300808,217.84212379999997,,,,,217.84231409999995,217.85765759999992,218.0577793,218.04169839999997,217.2300808,,,,,,,,0,1,0.603891200000021,None,,,,,,,,813,21,M,L,2026-02-25_11h05.10.925,VisualSearch_2526_3,,2025.2.4,2026-02-25 11h05.11.735246 +0100,
vertical.xlsx,The target is tilted.,135,110,6,13,1,1,1,1,0,0,0,0,0,0,0,0,0,3,4,135,space,3.717418500000008,None,1,1,0.577732200000014,None,space,1.1136453999999958,None,0,0,0,1,,,,,13,6,110,2,218.0577793,,,,,,,,,,,,,,,,,,,,,218.0425146,218.0577793,218.5415001,218.5460746,218.55852119999997,219.14182589999996,,,,,219.14203069999996,219.1573661,219.3575505,219.34101839999994,218.55852119999997,,,,,,,,1,1,0.577732200000014,None,,,,,,,,813,21,M,L,2026-02-25_11h05.10.925,VisualSearch_2526_3,,2025.2.4,2026-02-25 11h05.11.735246 +0100,
vertical.xlsx,The target is tilted.,135,111,7,13,1,1,1,1,1,1,1,1,1,1,1,1,0,11,12,135,space,3.717418500000008,None,1,1,1.0528478999999606,None,space,1.1136453999999958,None,0,0,0,1,,,,,13,7,111,0,219.3575505,,,,,,,,,,,,,,,,,,,,,219.34174009999992,219.3575505,219.84116340000003,219.84565599999996,219.86448719999999,220.92476499999998,,,,,220.92495369999995,220.94024809999996,221.14069469999993,221.12430389999997,219.86448719999999,,,,,,,,1,1,1.0528478999999606,None,,,,,,,,813,21,M,L,2026-02-25_11h05.10.925,VisualSearch_2526_3,,2025.2.4,2026-02-25 11h05.11.735246 +0100,
vertical.xlsx,The target is tilted.,135,112,0,14,0,1,1,1,1,1,1,1,1,1,1,1,1,11,12,135,space,3.717418500000008,None,0,1,1.6159443000000238,None,space,1.1136453999999958,None,0,0,0,1,,,,,14,0,112,4,221.14069469999993,,,,,,,,,,,,,,,,,,,,,221.12509469999998,221.14069469999993,221.6245212,221.62961069999994,221.64815729999998,223.27468469999997,,,,,223.27487269999995,223.29029649999995,223.4902978,223.47401939999997,221.64815729999998,,,,,,,,0,1,1.6159443000000238,None,,,,,,,,813,21,M,L,2026-02-25_11h05.10.925,VisualSearch_2526_3,,2025.2.4,2026-02-25 11h05.11.735246 +0100,
vertical.xlsx,The target is tilted.,135,113,1,14,1,0,0,0,0,0,0,0,0,0,0,0,0,0,1,135,space,3.717418500000008,None,1,1,0.5274038000000019,None,space,1.1136453999999958,None,0,0,0,1,,,,,14,1,113,3,223.4902978,,,,,,,,,,,,,,,,,,,,,223.47473349999996,223.4902978,223.97461429999998,223.97984729999996,223.99923439999998,224.541243,,,,,224.54145749999998,224.55671089999998,224.75681369999995,224.7407842,223.99923439999998,,,,,,,,1,1,0.5274038000000019,None,,,,,,,,813,21,M,L,2026-02-25_11h05.10.925,VisualSearch_2526_3,,2025.2.4,2026-02-25 11h05.11.735246 +0100,
vertical.xlsx,The target is tilted.,135,114,2,14,0,0,0,0,0,0,0,0,0,0,0,0,1,1,1,135,space,3.717418500000008,None,0,1,0.7105888999999479,None,space,1.1136453999999958,None,0,0,0,1,,,,,14,2,114,7,224.75681369999995,,,,,,,,,,,,,,,,,,,,,224.74157209999998,224.75681369999995,225.24072669999998,225.24549049999996,225.26424239999994,225.9911422,,,,,225.99137199999996,226.00644079999995,226.2065632,226.19016139999997,225.26424239999994,,,,,,,,0,1,0.7105888999999479,None,,,,,,,,813,21,M,L,2026-02-25_11h05.10.925,VisualSearch_2526_3,,2025.2.4,2026-02-25 11h05.11.735246 +0100,
vertical.xlsx,The target is tilted.,135,115,3,14,1,1,1,1,0,0,0,0,0,0,0,0,0,3,4,135,space,3.717418500000008,None,1,1,0.48406260000001566,None,space,1.1136453999999958,None,0,0,0,1,,,,,14,3,115,2,226.2065632,,,,,,,,,,,,,,,,,,,,,226.19085699999994,226.2065632,226.690377,226.69486499999994,226.71041789999992,227.20737599999995,,,,,227.20759269999996,227.22309199999995,227.42309679999994,227.40674330000002,226.71041789999992,,,,,,,,1,1,0.48406260000001566,None,,,,,,,,813,21,M,L,2026-02-25_11h05.10.925,VisualSearch_2526_3,,2025.2.4,2026-02-25 11h05.11.735246 +0100,
vertical.xlsx,The target is tilted.,135,116,4,14,0,1,1,1,0,0,0,0,0,0,0,0,1,3,4,135,space,3.717418500000008,None,0,1,0.6959421000000248,None,space,1.1136453999999958,None,0,0,0,1,,,,,14,4,116,6,227.42309679999994,,,,,,,,,,,,,,,,,,,,,227.40757629999996,227.42309679999994,227.9069194,227.9119154,227.93052209999996,228.64034500000002,,,,,228.64053979999994,228.65606409999998,228.85554000000002,228.84020650000002,227.93052209999996,,,,,,,,0,1,0.6959421000000248,None,,,,,,,,813,21,M,L,2026-02-25_11h05.10.925,VisualSearch_2526_3,,2025.2.4,2026-02-25 11h05.11.735246 +0100,
vertical.xlsx,The target is tilted.,135,117,5,14,1,1,1,1,1,1,1,1,1,1,1,1,0,11,12,135,space,3.717418500000008,None,1,1,0.9330501999999115,None,space,1.1136453999999958,None,0,0,0,1,,,,,14,5,117,0,228.85554000000002,,,,,,,,,,,,,,,,,,,,,228.8409954,228.85554000000002,229.34001239999998,229.3451,229.3642559,230.30705319999993,,,,,230.30724299999997,230.3225585,230.5222529,230.50640750000002,229.3642559,,,,,,,,1,1,0.9330501999999115,None,,,,,,,,813,21,M,L,2026-02-25_11h05.10.925,VisualSearch_2526_3,,2025.2.4,2026-02-25 11h05.11.735246 +0100,
vertical.xlsx,The target is tilted.,135,118,6,14,0,1,1,1,1,1,1,1,0,0,0,0,1,7,8,135,space,3.717418500000008,None,0,1,0.6238222999999152,None,space,1.1136453999999958,None,0,0,0,1,,,,,14,6,118,5,230.5222529,,,,,,,,,,,,,,,,,,,,,230.50713699999994,230.5222529,231.00596210000003,231.01045950000002,231.02934519999997,231.65651909999997,,,,,231.65670999999998,231.6722793,231.87249499999996,231.856401,231.02934519999997,,,,,,,,0,1,0.6238222999999152,None,,,,,,,,813,21,M,L,2026-02-25_11h05.10.925,VisualSearch_2526_3,,2025.2.4,2026-02-25 11h05.11.735246 +0100,
vertical.xlsx,The target is tilted.,135,119,7,14,1,1,1,1,1,1,1,1,0,0,0,0,0,7,8,135,space,3.717418500000008,None,1,1,0.5342511999999715,None,space,1.1136453999999958,None,0,0,0,1,,,,,14,7,119,1,231.87249499999996,,,,,,,,,,,,,,,,,,,,,231.85721209999997,231.87249499999996,232.35632179999993,232.36107570000001,232.37232399999994,232.92337669999995,,,,,232.92357389999995,232.9388738,233.160573,233.12282559999994,232.37232399999994,,,,,,,,1,1,0.5342511999999715,None,,,,,,,,813,21,M,L,2026-02-25_11h05.10.925,VisualSearch_2526_3,,2025.2.4,2026-02-25 11h05.11.735246 +0100,
vertical.xlsx,The target is tilted.,135,0,0,0,,,,,,,,,,,,,,,,,space,3.717418500000008,None,,,,,space,1.1136453999999958,None,0,0,0,1,,,,,,,,,,,,,,,,,,,,,,,,,,,,,,,,,,,,,,,,,,,,,,,,,,,,,,,,,,,,,,,813,21,M,L,2026-02-25_11h05.10.925,VisualSearch_2526_3,,2025.2.4,2026-02-25 11h05.11.735246 +0100,
tilted.xlsx,The target is tilted.,117,0,0,0,0,1,1,1,1,1,1,1,0,0,0,0,1,7,8,117,space,3.970709900000088,None,0,1,1.8578698000000031,None,,,,0,1,1,0,0,0,0,5,,,,,237.21325860000002,,,,,,,,,,,,,,,233.160573,233.160573,233.160573,space,3.970709900000088,None,237.2086746,237.21325860000002,237.65520559999993,237.66039049999995,237.67934909999997,239.53903819999994,0,1,1.8578698000000031,None,239.53922739999996,239.55452079999998,239.75454279999997,239.73867699999994,,,,,,,,,,,,,,,,,,,,813,21,M,L,2026-02-25_11h05.10.925,VisualSearch_2526_3,,2025.2.4,2026-02-25 11h05.11.735246 +0100,
tilted.xlsx,The target is tilted.,117,1,1,0,1,0,0,0,0,0,0,0,0,0,0,0,0,0,1,117,space,3.970709900000088,None,1,1,0.741194299999961,None,,,,0,1,1,0,0,1,1,3,,,,,239.75454279999997,,,,,,,,,,,,,,,,,,,,,239.7394144,239.75454279999997,240.23847979999994,240.24297519999993,240.26184479999995,241.0053279,1,1,0.741194299999961,None,241.00552489999995,241.02096989999995,241.22142129999997,241.2048456,240.26184479999995,,,,,,,,,,,,,,,,,,,813,21,M,L,2026-02-25_11h05.10.925,VisualSearch_2526_3,,2025.2.4,2026-02-25 11h05.11.735246 +0100,
tilted.xlsx,The target is tilted.,117,2,2,0,0,1,1,1,0,0,0,0,0,0,0,0,1,3,4,117,space,3.970709900000088,None,0,1,1.097609000000034,None,,,,0,1,1,0,0,2,2,6,,,,,241.22142129999997,,,,,,,,,,,,,,,,,,,,,241.20561329999998,241.22142129999997,241.70499970000003,241.7101576,241.72880609999993,242.83861389999993,0,1,1.097609000000034,None,242.83880349999993,242.85378149999997,243.05360529999996,243.03715309999995,241.72880609999993,,,,,,,,,,,,,,,,,,,813,21,M,L,2026-02-25_11h05.10.925,VisualSearch_2526_3,,2025.2.4,2026-02-25 11h05.11.735246 +0100,
tilted.xlsx,The target is tilted.,117,3,3,0,1,1,1,1,1,1,1,1,0,0,0,0,0,7,8,117,space,3.970709900000088,None,1,1,1.8957533999999896,None,,,,0,1,1,0,0,3,3,1,,,,,243.05360529999996,,,,,,,,,,,,,,,,,,,,,243.03759230000003,243.05360529999996,243.53764460000002,243.5422552,243.5556924,245.454696,1,1,1.8957533999999896,None,245.45488139999998,245.47040519999996,245.67046170000003,245.6540913,243.5556924,,,,,,,,,,,,,,,,,,,813,21,M,L,2026-02-25_11h05.10.925,VisualSearch_2526_3,,2025.2.4,2026-02-25 11h05.11.735246 +0100,
tilted.xlsx,The target is tilted.,117,4,4,0,1,1,1,1,1,1,1,1,1,1,1,1,0,11,12,117,space,3.970709900000088,None,1,1,0.8784442999999555,None,,,,0,1,1,0,0,4,4,0,,,,,245.67046170000003,,,,,,,,,,,,,,,,,,,,,245.65484749999996,245.67046170000003,246.15416719999996,246.1585738,246.176553,247.0713323,1,1,0.8784442999999555,None,247.07153029999995,247.0867306,247.28697139999997,247.2709529,246.176553,,,,,,,,,,,,,,,,,,,813,21,M,L,2026-02-25_11h05.10.925,VisualSearch_2526_3,,2025.2.4,2026-02-25 11h05.11.735246 +0100,
tilted.xlsx,The target is tilted.,117,5,5,0,0,0,0,0,0,0,0,0,0,0,0,0,1,1,1,117,space,3.970709900000088,None,0,1,0.7639166999999816,None,,,,0,1,1,0,0,5,5,7,,,,,247.28697139999997,,,,,,,,,,,,,,,,,,,,,247.27171079999994,247.28697139999997,247.7708248,247.77599739999994,247.79476090000003,248.57111039999995,0,1,0.7639166999999816,None,248.57129550000002,248.58661729999994,248.78654740000002,248.77062649999993,247.79476090000003,,,,,,,,,,,,,,,,,,,813,21,M,L,2026-02-25_11h05.10.925,VisualSearch_2526_3,,2025.2.4,2026-02-25 11h05.11.735246 +0100,
tilted.xlsx,The target is tilted.,117,6,6,0,0,1,1,1,1,1,1,1,1,1,1,1,1,11,12,117,space,3.970709900000088,None,0,1,3.267831699999988,None,,,,0,1,1,0,0,6,6,4,,,,,248.78654740000002,,,,,,,,,,,,,,,,,,,,,248.77134569999998,248.78654740000002,249.27064959999996,249.2758278,249.29525390000003,252.57050429999993,0,1,3.267831699999988,None,252.57069109999998,252.5859818,252.78610279999998,252.76991439999995,249.29525390000003,,,,,,,,,,,,,,,,,,,813,21,M,L,2026-02-25_11h05.10.925,VisualSearch_2526_3,,2025.2.4,2026-02-25 11h05.11.735246 +0100,
tilted.xlsx,The target is tilted.,117,7,7,0,1,1,1,1,0,0,0,0,0,0,0,0,0,3,4,117,space,3.970709900000088,None,0,0,0.8529934000000594,None,,,,0,1,1,0,0,7,7,2,,,,,252.78610279999998,,,,,,,,,,,,,,,,,,,,,252.77077099999997,252.78610279999998,253.26953129999993,253.2741582,253.29145729999993,254.15372289999993,0,0,0.8529934000000594,None,254.15390679999996,254.16888649999999,254.36935399999993,254.352571,253.29145729999993,,,,,,,,,,,,,,,,,,,813,21,M,L,2026-02-25_11h05.10.925,VisualSearch_2526_3,,2025.2.4,2026-02-25 11h05.11.735246 +0100,
tilted.xlsx,The target is tilted.,117,0,0,0,1,0,0,0,0,0,0,0,0,0,0,0,0,0,1,117,space,3.970709900000088,None,1,1,0.5941668000000391,None,space,1.8019775000000209,None,0,1,1,0,,,,,0,0,0,3,256.22485889999996,,,,,,,,,,,,,,,,,,,,,256.2209166,256.22485889999996,256.70263520000003,256.70745239999997,256.72540159999994,257.336412,,,,,257.3366029,257.35202200000003,257.55192379999994,257.53511249999997,,254.3594882,254.36935399999993,254.36935399999993,256.18630329999996,space,1.8019775000000209,None,1,1,0.5941668000000391,None,,,,,,,,813,21,M,L,2026-02-25_11h05.10.925,VisualSearch_2526_3,,2025.2.4,2026-02-25 11h05.11.735246 +0100,
tilted.xlsx,The target is tilted.,117,1,1,0,0,1,1,1,1,1,1,1,1,1,1,1,1,11,12,117,space,3.970709900000088,None,0,1,2.1462053999999853,None,space,1.8019775000000209,None,0,1,1,0,,,,,0,1,1,4,257.55192379999994,,,,,,,,,,,,,,,,,,,,,257.5355489,257.55192379999994,258.0358513,258.0404735999999,258.056503,260.21946289999994,,,,,260.2196584999999,260.23482939999997,260.43505849999997,260.41903709999997,258.056503,,,,,,,,0,1,2.1462053999999853,None,,,,,,,,813,21,M,L,2026-02-25_11h05.10.925,VisualSearch_2526_3,,2025.2.4,2026-02-25 11h05.11.735246 +0100,
tilted.xlsx,The target is tilted.,117,2,2,0,0,1,1,1,0,0,0,0,0,0,0,0,1,3,4,117,space,3.970709900000088,None,0,1,0.7018286999999646,None,space,1.8019775000000209,None,0,1,1,0,,,,,0,2,2,6,260.43505849999997,,,,,,,,,,,,,,,,,,,,,260.41990699999997,260.43505849999997,260.91866070000003,260.9230679,260.9410735,261.6527142,,,,,261.6529319,261.6680122,261.8682152,261.85220319999996,260.9410735,,,,,,,,0,1,0.7018286999999646,None,,,,,,,,813,21,M,L,2026-02-25_11h05.10.925,VisualSearch_2526_3,,2025.2.4,2026-02-25 11h05.11.735246 +0100,
tilted.xlsx,The target is tilted.,117,3,3,0,0,0,0,0,0,0,0,0,0,0,0,0,1,1,1,117,space,3.970709900000088,None,0,1,0.5361848000000009,None,space,1.8019775000000209,None,0,1,1,0,,,,,0,3,3,7,261.8682152,,,,,,,,,,,,,,,,,,,,,261.8529856,261.8682152,262.3516743,262.3555233999999,262.37511059999997,262.9190224,,,,,262.91921030000003,262.93456989999993,263.13464799999997,263.11873749999995,262.37511059999997,,,,,,,,0,1,0.5361848000000009,None,,,,,,,,813,21,M,L,2026-02-25_11h05.10.925,VisualSearch_2526_3,,2025.2.4,2026-02-25 11h05.11.735246 +0100,
tilted.xlsx,The target is tilted.,117,4,4,0,0,1,1,1,1,1,1,1,0,0,0,0,1,7,8,117,space,3.970709900000088,None,0,1,2.9578622000000223,None,space,1.8019775000000209,None,0,1,1,0,,,,,0,4,4,5,263.13464799999997,,,,,,,,,,,,,,,,,,,,,263.11953040000003,263.13464799999997,263.61857509999993,263.6234985,263.6415631,266.6018789,,,,,266.60206800000003,266.6174882,266.8167969,266.8003909,263.6415631,,,,,,,,0,1,2.9578622000000223,None,,,,,,,,813,21,M,L,2026-02-25_11h05.10.925,VisualSearch_2526_3,,2025.2.4,2026-02-25 11h05.11.735246 +0100,
tilted.xlsx,The target is tilted.,117,5,5,0,1,1,1,1,0,0,0,0,0,0,0,0,0,3,4,117,space,3.970709900000088,None,1,1,1.0547643999999536,None,space,1.8019775000000209,None,0,1,1,0,,,,,0,5,5,2,266.8167969,,,,,,,,,,,,,,,,,,,,,266.8007464,266.8167969,267.3005605999999,267.30313049999995,267.31685919999995,268.38393439999993,,,,,268.3840629,268.39986569999996,268.5997807,268.58344439999996,267.31685919999995,,,,,,,,1,1,1.0547643999999536,None,,,,,,,,813,21,M,L,2026-02-25_11h05.10.925,VisualSearch_2526_3,,2025.2.4,2026-02-25 11h05.11.735246 +0100,
tilted.xlsx,The target is tilted.,117,6,6,0,1,1,1,1,1,1,1,1,1,1,1,1,0,11,12,117,space,3.970709900000088,None,0,0,3.0456927999999834,None,space,1.8019775000000209,None,0,1,1,0,,,,,0,6,6,0,268.5997807,,,,,,,,,,,,,,,,,,,,,268.58389939999995,268.5997807,269.0833996,269.085698,269.0997225,272.1512784,,,,,272.151527,272.1667205,272.36640769999997,272.34984309999993,269.0997225,,,,,,,,0,0,3.0456927999999834,None,,,,,,,,813,21,M,L,2026-02-25_11h05.10.925,VisualSearch_2526_3,,2025.2.4,2026-02-25 11h05.11.735246 +0100,
tilted.xlsx,The target is tilted.,117,7,7,0,1,1,1,1,1,1,1,1,0,0,0,0,0,7,8,117,space,3.970709900000088,None,1,1,1.7764417999999296,None,space,1.8019775000000209,None,0,1,1,0,,,,,0,7,7,1,272.36640769999997,,,,,,,,,,,,,,,,,,,,,272.35026719999996,272.36640769999997,272.8504239,272.8554167,272.87260549999996,274.6507656,,,,,274.65096289999997,274.66622499999994,274.86633240000003,274.85041609999996,272.87260549999996,,,,,,,,1,1,1.7764417999999296,None,,,,,,,,813,21,M,L,2026-02-25_11h05.10.925,VisualSearch_2526_3,,2025.2.4,2026-02-25 11h05.11.735246 +0100,
tilted.xlsx,The target is tilted.,117,8,0,1,1,1,1,1,1,1,1,1,1,1,1,1,0,11,12,117,space,3.970709900000088,None,1,1,2.502734299999929,None,space,1.8019775000000209,None,0,1,1,0,,,,,1,0,8,0,274.86633240000003,,,,,,,,,,,,,,,,,,,,,274.8512453999999,274.86633240000003,275.35023820000004,275.3549502999999,275.36576909999997,277.88373319999994,,,,,277.88396609999995,277.89889429999994,278.0992469,278.0831634,275.36576909999997,,,,,,,,1,1,2.502734299999929,None,,,,,,,,813,21,M,L,2026-02-25_11h05.10.925,VisualSearch_2526_3,,2025.2.4,2026-02-25 11h05.11.735246 +0100,
tilted.xlsx,The target is tilted.,117,9,1,1,0,1,1,1,1,1,1,1,1,1,1,1,1,11,12,117,space,3.970709900000088,None,0,1,2.7218182999999954,None,space,1.8019775000000209,None,0,1,1,0,,,,,1,1,9,4,278.0992469,,,,,,,,,,,,,,,,,,,,,278.08395569999993,278.0992469,278.58302530000003,278.58825449999995,278.6072017,281.3327775,,,,,281.33296369999994,281.3485726,281.5487145999999,281.5324492,278.6072017,,,,,,,,0,1,2.7218182999999954,None,,,,,,,,813,21,M,L,2026-02-25_11h05.10.925,VisualSearch_2526_3,,2025.2.4,2026-02-25 11h05.11.735246 +0100,
tilted.xlsx,The target is tilted.,117,10,2,1,0,0,0,0,0,0,0,0,0,0,0,0,1,1,1,117,space,3.970709900000088,None,1,0,0.5276168999999982,None,space,1.8019775000000209,None,0,1,1,0,,,,,1,2,10,7,281.5487145999999,,,,,,,,,,,,,,,,,,,,,281.53331419999995,281.5487145999999,282.03260409999996,282.0376361,282.05612039999994,282.59957299999996,,,,,282.5997602,282.614728,282.81511549999993,282.7990303,282.05612039999994,,,,,,,,1,0,0.5276168999999982,None,,,,,,,,813,21,M,L,2026-02-25_11h05.10.925,VisualSearch_2526_3,,2025.2.4,2026-02-25 11h05.11.735246 +0100,
tilted.xlsx,The target is tilted.,117,11,3,1,1,1,1,1,1,1,1,1,0,0,0,0,0,7,8,117,space,3.970709900000088,None,1,1,1.7543503000000555,None,space,1.8019775000000209,None,0,1,1,0,,,,,1,3,11,1,282.81511549999993,,,,,,,,,,,,,,,,,,,,,282.7999532,282.81511549999993,283.2991889,283.3041893999999,283.3229202,285.0815811,,,,,285.0816990999999,285.0979037999999,,285.28188090000003,283.3229202,,,,,,,,1,1,1.7543503000000555,None,,,,,,,,813,21,M,L,2026-02-25_11h05.10.925,VisualSearch_2526_3,,2025.2.4,2026-02-25 11h05.11.735246 +0100,
tilted.xlsx,The target is tilted.,117,12,4,1,0,1,1,1,1,1,1,1,0,0,0,0,1,7,8,117,space,3.970709900000088,None,0,1,1.8131779999999935,None,space,1.8019775000000209,None,0,1,1,0,,,,,1,4,12,5,285.2980206,,,,,,,,,,,,,,,,,,,,,285.2827348999999,285.2980206,285.78170479999994,285.78671629999997,285.7999755999999,287.6153263,,,,,287.6155264,287.6310337,287.8312066,287.8148993,285.7999755999999,,,,,,,,0,1,1.8131779999999935,None,,,,,,,,813,21,M,L,2026-02-25_11h05.10.925,VisualSearch_2526_3,,2025.2.4,2026-02-25 11h05.11.735246 +0100,
tilted.xlsx,The target is tilted.,117,13,5,1,1,0,0,0,0,0,0,0,0,0,0,0,0,0,1,117,space,3.970709900000088,None,1,1,0.7741814999999406,None,space,1.8019775000000209,None,0,1,1,0,,,,,1,5,13,3,287.8312066,,,,,,,,,,,,,,,,,,,,,287.8157192,287.8312066,288.3139701,288.3165561999999,288.3308823,289.11530329999994,,,,,289.11550409999995,289.1307987,289.33049459999995,289.3145898,288.3308823,,,,,,,,1,1,0.7741814999999406,None,,,,,,,,813,21,M,L,2026-02-25_11h05.10.925,VisualSearch_2526_3,,2025.2.4,2026-02-25 11h05.11.735246 +0100,
tilted.xlsx,The target is tilted.,117,14,6,1,1,1,1,1,0,0,0,0,0,0,0,0,0,3,4,117,space,3.970709900000088,None,0,0,0.9074042999999392,None,space,1.8019775000000209,None,0,1,1,0,,,,,1,6,14,2,289.33049459999995,,,,,,,,,,,,,,,,,,,,,289.3154088,289.33049459999995,289.81451789999994,289.8195058,289.8376853,290.74824679999995,,,,,290.74843780000003,290.76365279999993,290.96362409999995,290.9477624,289.8376853,,,,,,,,0,0,0.9074042999999392,None,,,,,,,,813,21,M,L,2026-02-25_11h05.10.925,VisualSearch_2526_3,,2025.2.4,2026-02-25 11h05.11.735246 +0100,
tilted.xlsx,The target is tilted.,117,15,7,1,0,1,1,1,0,0,0,0,0,0,0,0,1,3,4,117,space,3.970709900000088,None,0,1,3.3978572999999415,None,space,1.8019775000000209,None,0,1,1,0,,,,,1,7,15,6,290.96362409999995,,,,,,,,,,,,,,,,,,,,,290.9485177,290.96362409999995,291.4473588999999,291.4499972,291.46344279999994,294.86457169999994,,,,,294.8647579,294.87975570000003,295.07999659999996,295.0639752999999,291.46344279999994,,,,,,,,0,1,3.3978572999999415,None,,,,,,,,813,21,M,L,2026-02-25_11h05.10.925,VisualSearch_2526_3,,2025.2.4,2026-02-25 11h05.11.735246 +0100,
tilted.xlsx,The target is tilted.,117,16,0,2,1,1,1,1,0,0,0,0,0,0,0,0,0,3,4,117,space,3.970709900000088,None,1,1,0.8807639999999992,None,space,1.8019775000000209,None,0,1,1,0,,,,,2,0,16,2,295.07999659999996,,,,,,,,,,,,,,,,,,,,,295.06469289999995,295.07999659999996,295.5640353,295.56911909999997,295.58763909999993,296.48095920000003,,,,,296.4811442,296.49651140000003,296.696595,296.6805325,295.58763909999993,,,,,,,,1,1,0.8807639999999992,None,,,,,,,,813,21,M,L,2026-02-25_11h05.10.925,VisualSearch_2526_3,,2025.2.4,2026-02-25 11h05.11.735246 +0100,
tilted.xlsx,The target is tilted.,117,17,1,2,1,1,1,1,1,1,1,1,1,1,1,1,0,11,12,117,space,3.970709900000088,None,1,1,1.3489117999999962,None,space,1.8019775000000209,None,0,1,1,0,,,,,2,1,17,0,296.696595,,,,,,,,,,,,,,,,,,,,,296.6813208,296.696595,297.18045829999994,297.18530450000003,297.20408469999995,298.56379659999993,,,,,298.5639893,298.57947260000003,298.77964009999994,298.7635475999999,297.20408469999995,,,,,,,,1,1,1.3489117999999962,None,,,,,,,,813,21,M,L,2026-02-25_11h05.10.925,VisualSearch_2526_3,,2025.2.4,2026-02-25 11h05.11.735246 +0100,
tilted.xlsx,The target is tilted.,117,18,2,2,0,0,0,0,0,0,0,0,0,0,0,0,1,1,1,117,space,3.970709900000088,None,0,1,0.6679147999999486,None,space,1.8019775000000209,None,0,1,1,0,,,,,2,2,18,7,298.77964009999994,,,,,,,,,,,,,,,,,,,,,298.76435630000003,298.77964009999994,299.2635104,299.2686676999999,299.28740419999997,299.9635648,,,,,299.96375439999997,299.97921829999996,300.1793848,300.1633039999999,299.28740419999997,,,,,,,,0,1,0.6679147999999486,None,,,,,,,,813,21,M,L,2026-02-25_11h05.10.925,VisualSearch_2526_3,,2025.2.4,2026-02-25 11h05.11.735246 +0100,
tilted.xlsx,The target is tilted.,117,19,3,2,0,1,1,1,0,0,0,0,0,0,0,0,1,3,4,117,space,3.970709900000088,None,0,1,0.5526175999999623,None,space,1.8019775000000209,None,0,1,1,0,,,,,2,3,19,6,300.1793848,,,,,,,,,,,,,,,,,,,,,300.16401829999995,300.1793848,300.6631158,300.667634,300.6866102,301.246901,,,,,301.2470886,301.2624981,301.46239259999993,301.446462,300.6866102,,,,,,,,0,1,0.5526175999999623,None,,,,,,,,813,21,M,L,2026-02-25_11h05.10.925,VisualSearch_2526_3,,2025.2.4,2026-02-25 11h05.11.735246 +0100,
tilted.xlsx,The target is tilted.,117,20,4,2,1,0,0,0,0,0,0,0,0,0,0,0,0,0,1,117,space,3.970709900000088,None,1,1,0.6450033000000985,None,space,1.8019775000000209,None,0,1,1,0,,,,,2,4,20,3,301.46239259999993,,,,,,,,,,,,,,,,,,,,,301.44730129999994,301.46239259999993,301.9463961,301.9515721,301.97059279999996,302.63008790000004,,,,,302.6302754999999,302.6452826,302.8453803,302.82948980000003,301.97059279999996,,,,,,,,1,1,0.6450033000000985,None,,,,,,,,813,21,M,L,2026-02-25_11h05.10.925,VisualSearch_2526_3,,2025.2.4,2026-02-25 11h05.11.735246 +0100,
tilted.xlsx,The target is tilted.,117,21,5,2,1,1,1,1,1,1,1,1,0,0,0,0,0,7,8,117,space,3.970709900000088,None,1,1,1.2824105999999347,None,space,1.8019775000000209,None,0,1,1,0,,,,,2,5,21,1,302.8453803,,,,,,,,,,,,,,,,,,,,,302.83027689999994,302.8453803,303.32950389999996,303.3346226,303.35338590000003,304.64641589999997,,,,,304.64664289999996,304.6620144,304.86214299999995,304.8459921,303.35338590000003,,,,,,,,1,1,1.2824105999999347,None,,,,,,,,813,21,M,L,2026-02-25_11h05.10.925,VisualSearch_2526_3,,2025.2.4,2026-02-25 11h05.11.735246 +0100,
tilted.xlsx,The target is tilted.,117,22,6,2,0,1,1,1,1,1,1,1,1,1,1,1,1,11,12,117,space,3.970709900000088,None,0,1,3.0977301000000352,None,space,1.8019775000000209,None,0,1,1,0,,,,,2,6,22,4,304.86214299999995,,,,,,,,,,,,,,,,,,,,,304.8468094,304.86214299999995,305.3459255,305.350859,305.3618785,308.4623014,,,,,308.4624914,308.4781038,308.6780496,308.66213199999993,305.3618785,,,,,,,,0,1,3.0977301000000352,None,,,,,,,,813,21,M,L,2026-02-25_11h05.10.925,VisualSearch_2526_3,,2025.2.4,2026-02-25 11h05.11.735246 +0100,
tilted.xlsx,The target is tilted.,117,23,7,2,0,1,1,1,1,1,1,1,0,0,0,0,1,7,8,117,space,3.970709900000088,None,0,1,1.259926700000051,None,space,1.8019775000000209,None,0,1,1,0,,,,,2,7,23,5,308.6780496,,,,,,,,,,,,,,,,,,,,,308.66296709999995,308.6780496,309.16210119999994,309.16809149999995,309.18757529999993,310.462172,,,,,310.4623629,310.4777531,310.6776601,310.66193179999993,309.18757529999993,,,,,,,,0,1,1.259926700000051,None,,,,,,,,813,21,M,L,2026-02-25_11h05.10.925,VisualSearch_2526_3,,2025.2.4,2026-02-25 11h05.11.735246 +0100,
tilted.xlsx,The target is tilted.,117,24,0,3,1,1,1,1,0,0,0,0,0,0,0,0,0,3,4,117,space,3.970709900000088,None,1,1,0.6521923999999899,None,space,1.8019775000000209,None,0,1,1,0,,,,,3,0,24,2,310.6776601,,,,,,,,,,,,,,,,,,,,,310.6627796,310.6776601,311.16176829999995,311.1669783,311.1866016,311.84532619999993,,,,,311.84553370000003,311.8608733,312.06106379999994,312.0449731,311.1866016,,,,,,,,1,1,0.6521923999999899,None,,,,,,,,813,21,M,L,2026-02-25_11h05.10.925,VisualSearch_2526_3,,2025.2.4,2026-02-25 11h05.11.735246 +0100,
tilted.xlsx,The target is tilted.,117,25,1,3,1,1,1,1,1,1,1,1,1,1,1,1,0,11,12,117,space,3.970709900000088,None,0,0,3.381526899999926,None,space,1.8019775000000209,None,0,1,1,0,,,,,3,1,25,0,312.06106379999994,,,,,,,,,,,,,,,,,,,,,312.045791,312.06106379999994,312.54449339999996,312.5495906,312.5686975,315.9614983,,,,,315.961688,315.97672079999995,316.1772498,316.1610739,312.5686975,,,,,,,,0,0,3.381526899999926,None,,,,,,,,813,21,M,L,2026-02-25_11h05.10.925,VisualSearch_2526_3,,2025.2.4,2026-02-25 11h05.11.735246 +0100,
tilted.xlsx,The target is tilted.,117,26,2,3,0,0,0,0,0,0,0,0,0,0,0,0,1,1,1,117,space,3.970709900000088,None,0,1,0.7523480999999492,None,space,1.8019775000000209,None,0,1,1,0,,,,,3,2,26,7,316.1772498,,,,,,,,,,,,,,,,,,,,,316.16187479999996,316.1772498,316.6610548,316.6661789,316.6855391,317.4445048,,,,,317.44469489999994,317.46003410000003,317.6601978,317.64403089999996,316.6855391,,,,,,,,0,1,0.7523480999999492,None,,,,,,,,813,21,M,L,2026-02-25_11h05.10.925,VisualSearch_2526_3,,2025.2.4,2026-02-25 11h05.11.735246 +0100,
tilted.xlsx,The target is tilted.,117,27,3,3,0,1,1,1,0,0,0,0,0,0,0,0,1,3,4,117,space,3.970709900000088,None,0,1,0.6709174999999732,None,space,1.8019775000000209,None,0,1,1,0,,,,,3,3,27,6,317.6601978,,,,,,,,,,,,,,,,,,,,,317.64481649999993,317.6601978,318.1442631,318.1493306,318.16824929999996,318.8443916,,,,,318.84457669999995,318.8598577,319.0599939,319.04391869999995,318.16824929999996,,,,,,,,0,1,0.6709174999999732,None,,,,,,,,813,21,M,L,2026-02-25_11h05.10.925,VisualSearch_2526_3,,2025.2.4,2026-02-25 11h05.11.735246 +0100,
tilted.xlsx,The target is tilted.,117,28,4,3,0,1,1,1,1,1,1,1,0,0,0,0,1,7,8,117,space,3.970709900000088,None,0,1,1.4958332999999584,None,space,1.8019775000000209,None,0,1,1,0,,,,,3,4,28,5,319.0599939,,,,,,,,,,,,,,,,,,,,,319.04466049999996,319.0599939,319.5430606,319.54540380000003,319.55973889999996,321.0606444,,,,,321.06082960000003,321.07621789999996,321.27637119999997,321.2603252,319.55973889999996,,,,,,,,0,1,1.4958332999999584,None,,,,,,,,813,21,M,L,2026-02-25_11h05.10.925,VisualSearch_2526_3,,2025.2.4,2026-02-25 11h05.11.735246 +0100,
tilted.xlsx,The target is tilted.,117,29,5,3,0,1,1,1,1,1,1,1,1,1,1,1,1,11,12,117,space,3.970709900000088,None,0,1,2.956065400000057,None,space,1.8019775000000209,None,0,1,1,0,,,,,3,5,29,4,321.27637119999997,,,,,,,,,,,,,,,,,,,,,321.26125790000003,321.27637119999997,321.7600179,321.7643968,321.7823877999999,324.74345789999995,,,,,324.7436438,324.75913849999995,324.9591862,324.9430969,321.7823877999999,,,,,,,,0,1,2.956065400000057,None,,,,,,,,813,21,M,L,2026-02-25_11h05.10.925,VisualSearch_2526_3,,2025.2.4,2026-02-25 11h05.11.735246 +0100,
tilted.xlsx,The target is tilted.,117,30,6,3,1,0,0,0,0,0,0,0,0,0,0,0,0,0,1,117,space,3.970709900000088,None,1,1,0.7079273000000512,None,space,1.8019775000000209,None,0,1,1,0,,,,,3,6,30,3,324.9591862,,,,,,,,,,,,,,,,,,,,,324.9439082,324.9591862,325.44300169999997,325.4476462,325.4662258999999,326.17671199999995,,,,,326.176926,326.19187279999994,326.39228159999993,326.37610889999996,325.4662258999999,,,,,,,,1,1,0.7079273000000512,None,,,,,,,,813,21,M,L,2026-02-25_11h05.10.925,VisualSearch_2526_3,,2025.2.4,2026-02-25 11h05.11.735246 +0100,
tilted.xlsx,The target is tilted.,117,31,7,3,1,1,1,1,1,1,1,1,0,0,0,0,0,7,8,117,space,3.970709900000088,None,1,1,2.3846194000000196,None,space,1.8019775000000209,None,0,1,1,0,,,,,3,7,31,1,326.39228159999993,,,,,,,,,,,,,,,,,,,,,326.3769128,326.39228159999993,326.87591839999993,326.88099539999996,326.89960229999997,329.2929386999999,,,,,329.2931229999999,329.3081734,329.5083843,329.4924912,326.89960229999997,,,,,,,,1,1,2.3846194000000196,None,,,,,,,,813,21,M,L,2026-02-25_11h05.10.925,VisualSearch_2526_3,,2025.2.4,2026-02-25 11h05.11.735246 +0100,
tilted.xlsx,The target is tilted.,117,32,0,4,0,0,0,0,0,0,0,0,0,0,0,0,1,1,1,117,space,3.970709900000088,None,0,1,0.778403199999957,None,space,1.8019775000000209,None,0,1,1,0,,,,,4,0,32,7,329.5083843,,,,,,,,,,,,,,,,,,,,,329.4933035,329.5083843,329.99255459999995,329.9975898,330.01626079999994,330.80960949999997,,,,,330.80985680000003,330.8250082999999,331.02496869999993,331.00888869999994,330.01626079999994,,,,,,,,0,1,0.778403199999957,None,,,,,,,,813,21,M,L,2026-02-25_11h05.10.925,VisualSearch_2526_3,,2025.2.4,2026-02-25 11h05.11.735246 +0100,
tilted.xlsx,The target is tilted.,117,33,1,4,0,1,1,1,1,1,1,1,0,0,0,0,1,7,8,117,space,3.970709900000088,None,0,1,1.3995161999999937,None,space,1.8019775000000209,None,0,1,1,0,,,,,4,1,33,5,331.02496869999993,,,,,,,,,,,,,,,,,,,,,331.0097575,331.02496869999993,331.5086837,331.5144295,331.5332072,332.942458,,,,,332.9426462,332.9576485,333.1580715,333.1420143,331.5332072,,,,,,,,0,1,1.3995161999999937,None,,,,,,,,813,21,M,L,2026-02-25_11h05.10.925,VisualSearch_2526_3,,2025.2.4,2026-02-25 11h05.11.735246 +0100,
tilted.xlsx,The target is tilted.,117,34,2,4,1,1,1,1,1,1,1,1,0,0,0,0,0,7,8,117,space,3.970709900000088,None,1,1,2.2192330999999967,None,space,1.8019775000000209,None,0,1,1,0,,,,,4,2,34,1,333.1580715,,,,,,,,,,,,,,,,,,,,,333.1428111,333.1580715,333.6417301,333.64668140000003,333.6655382,335.89217529999996,,,,,335.89238190000003,335.9071487,336.10765459999993,336.0915798,333.6655382,,,,,,,,1,1,2.2192330999999967,None,,,,,,,,813,21,M,L,2026-02-25_11h05.10.925,VisualSearch_2526_3,,2025.2.4,2026-02-25 11h05.11.735246 +0100,
tilted.xlsx,The target is tilted.,117,35,3,4,1,1,1,1,1,1,1,1,1,1,1,1,0,11,12,117,space,3.970709900000088,None,1,1,1.8723843999999872,None,space,1.8019775000000209,None,0,1,1,0,,,,,4,3,35,0,336.10765459999993,,,,,,,,,,,,,,,,,,,,,336.0923655,336.10765459999993,336.5915285,336.5965136,336.6143518,338.4912487,,,,,338.49145909999993,338.5070571,338.70721549999996,338.69127719999994,336.6143518,,,,,,,,1,1,1.8723843999999872,None,,,,,,,,813,21,M,L,2026-02-25_11h05.10.925,VisualSearch_2526_3,,2025.2.4,2026-02-25 11h05.11.735246 +0100,
tilted.xlsx,The target is tilted.,117,36,4,4,0,1,1,1,0,0,0,0,0,0,0,0,1,3,4,117,space,3.970709900000088,None,0,1,1.1393307999999251,None,space,1.8019775000000209,None,0,1,1,0,,,,,4,4,36,6,338.70721549999996,,,,,,,,,,,,,,,,,,,,,338.69211029999997,338.70721549999996,339.19041429999993,339.19481469999994,339.2092132,340.3580204,,,,,340.35820779999995,340.37354129999994,340.57352960000003,340.5573246,339.2092132,,,,,,,,0,1,1.1393307999999251,None,,,,,,,,813,21,M,L,2026-02-25_11h05.10.925,VisualSearch_2526_3,,2025.2.4,2026-02-25 11h05.11.735246 +0100,
tilted.xlsx,The target is tilted.,117,37,5,4,0,1,1,1,1,1,1,1,1,1,1,1,1,11,12,117,space,3.970709900000088,None,0,1,2.6890952999999627,None,space,1.8019775000000209,None,0,1,1,0,,,,,4,5,37,4,340.57352960000003,,,,,,,,,,,,,,,,,,,,,340.5581549,340.57352960000003,341.0573257,341.0619984,341.0806252,343.77385789999994,,,,,343.77404519999993,343.78970879999997,343.9894765,343.97346459999994,341.0806252,,,,,,,,0,1,2.6890952999999627,None,,,,,,,,813,21,M,L,2026-02-25_11h05.10.925,VisualSearch_2526_3,,2025.2.4,2026-02-25 11h05.11.735246 +0100,
tilted.xlsx,The target is tilted.,117,38,6,4,1,1,1,1,0,0,0,0,0,0,0,0,0,3,4,117,space,3.970709900000088,None,1,1,1.0676323999999795,None,space,1.8019775000000209,None,0,1,1,0,,,,,4,6,38,2,343.9894765,,,,,,,,,,,,,,,,,,,,,343.9742765,343.9894765,344.4736146,344.4787897,344.4978214,345.573665,,,,,345.57385579999993,345.58945489999996,345.7895045,345.7732548,344.4978214,,,,,,,,1,1,1.0676323999999795,None,,,,,,,,813,21,M,L,2026-02-25_11h05.10.925,VisualSearch_2526_3,,2025.2.4,2026-02-25 11h05.11.735246 +0100,
