file_name,block_instructions,target_example,thisN,thisTrialN,thisRepN,target_presence,opacity_1,opacity_2,opacity_3,opacity_4,opacity_5,opacity_6,opacity_7,opacity_8,opacity_9,opacity_10,opacity_11,opacity_12,n_distract,n_items,target_ori,key_resp_4.keys,key_resp_4.rt,key_resp_4.duration,key_resp.keys,key_resp.corr,key_resp.rt,key_resp.duration,key_resp_5.keys,key_resp_5.rt,key_resp_5.duration,blocks.thisRepN,blocks.thisTrialN,blocks.thisN,blocks.thisIndex,practice_trials.thisRepN,practice_trials.thisTrialN,practice_trials.thisN,practice_trials.thisIndex,trials.thisRepN,trials.thisTrialN,trials.thisN,trials.thisIndex,thisRow.t,notes,Welcome.started,WelcomeText.started,key_resp_2.started,Welcome.stopped,key_resp_2.keys,key_resp_2.rt,key_resp_2.duration,InformedConsent.started,text_4.started,InformedConsent.stopped,key_resp_6.keys,key_resp_6.rt,key_resp_6.duration,key_resp_4.started,example_target.started,text_3.started,blocks.key_resp_4.keys,blocks.key_resp_4.rt,blocks.key_resp_4.duration,FixCross.started,fixCross.started,FixCross.stopped,Stimulus.started,key_resp.started,Stimulus.stopped,practice_trials.key_resp.keys,practice_trials.key_resp.corr,practice_trials.key_resp.rt,practice_trials.key_resp.duration,BlankScreen.started,text.started,text.stopped,BlankScreen.stopped,fixCross.stopped,ExperimentStart.started,text_2.started,key_resp_5.started,ExperimentStart.stopped,blocks.key_resp_5.keys,blocks.key_resp_5.rt,blocks.key_resp_5.duration,trials.key_resp.keys,trials.key_resp.corr,trials.key_resp.rt,trials.key_resp.duration,Thanks.started,ThankYou.started,key_resp_3.started,Thanks.stopped,key_resp_3.keys,key_resp_3.rt,key_resp_3.duration,participant,leeftijd,gender,links/rechtshandig,date,expName,expVersion,psychopyVersion,expStart,
,,,,,,,,,,,,,,,,,,,,,,,,,,,,,,,,,,,,,,,,,,,,,,0.029806600000028993,0.05886170000007951,0.05886170000007951,22.170347600000014,space,22.084423499999957,None,,,,,,,,,,,,,,,,,,,,,,,,,,,,,,,,,,,,,,,,,,,,,,814,19,v,R,2026-02-25_11h16.37.327,VisualSearch_2526_3,,2025.2.4,2026-02-25 11h16.37.627876 +0100,
,,,,,,,,,,,,,,,,,,,,,,,,,,,,,,,,,,,,,,,,,,,,,,,,,,,,,22.17046049999999,22.177057900000136,35.62356479999994,y,13.439492099999825,None,,,,,,,,,,,,,,,,,,,,,,,,,,,,,,,,,,,,,,,,814,19,v,R,2026-02-25_11h16.37.327,VisualSearch_2526_3,,2025.2.4,2026-02-25 11h16.37.627876 +0100,
vertical.xlsx,The target is tilted.,135,0,0,0,1,1,1,1,0,0,0,0,0,0,0,0,0,3,4,135,space,5.903983999999809,None,1,1,1.5973274000000401,None,,,,0,0,0,1,0,0,0,2,,,,,41.60656919999997,,,,,,,,,,,,,,,35.668185700000095,35.668185700000095,35.668185700000095,space,5.903983999999809,None,41.60213470000008,41.60656919999997,42.10491000000002,42.11006330000009,42.128354299999955,43.738563600000134,1,1,1.5973274000000401,None,43.738759200000004,43.753607999999986,43.95391410000002,43.93778109999994,,,,,,,,,,,,,,,,,,,,814,19,v,R,2026-02-25_11h16.37.327,VisualSearch_2526_3,,2025.2.4,2026-02-25 11h16.37.627876 +0100,
vertical.xlsx,The target is tilted.,135,1,1,0,1,1,1,1,1,1,1,1,1,1,1,1,0,11,12,135,space,5.903983999999809,None,0,0,1.2205032000001665,None,,,,0,0,0,1,0,1,1,0,,,,,43.95391410000002,,,,,,,,,,,,,,,,,,,,,43.93853080000008,43.95391410000002,44.437723000000005,44.44250280000006,44.463450100000045,45.68808579999995,0,0,1.2205032000001665,None,45.68829470000014,45.703855800000156,45.903844500000105,45.88763629999994,44.463450100000045,,,,,,,,,,,,,,,,,,,814,19,v,R,2026-02-25_11h16.37.327,VisualSearch_2526_3,,2025.2.4,2026-02-25 11h16.37.627876 +0100,
vertical.xlsx,The target is tilted.,135,2,2,0,0,1,1,1,1,1,1,1,0,0,0,0,1,7,8,135,space,5.903983999999809,None,1,0,1.6492926000000807,None,,,,0,0,0,1,0,2,2,5,,,,,45.903844500000105,,,,,,,,,,,,,,,,,,,,,45.88831849999997,45.903844500000105,46.38754590000008,46.39259970000012,46.410913500000106,48.07099220000009,1,0,1.6492926000000807,None,48.07118860000014,48.08642069999996,48.28649410000003,48.270782700000154,46.410913500000106,,,,,,,,,,,,,,,,,,,814,19,v,R,2026-02-25_11h16.37.327,VisualSearch_2526_3,,2025.2.4,2026-02-25 11h16.37.627876 +0100,
vertical.xlsx,The target is tilted.,135,3,3,0,1,0,0,0,0,0,0,0,0,0,0,0,0,0,1,135,space,5.903983999999809,None,1,1,0.6054749999998421,None,,,,0,0,0,1,0,3,3,3,,,,,48.28649410000003,,,,,,,,,,,,,,,,,,,,,48.27145429999996,48.28649410000003,48.77074330000005,48.7751760000001,48.79057090000015,49.40451370000005,1,1,0.6054749999998421,None,49.40470600000003,49.41955989999997,49.62008979999996,49.60390260000008,48.79057090000015,,,,,,,,,,,,,,,,,,,814,19,v,R,2026-02-25_11h16.37.327,VisualSearch_2526_3,,2025.2.4,2026-02-25 11h16.37.627876 +0100,
vertical.xlsx,The target is tilted.,135,4,4,0,1,1,1,1,1,1,1,1,0,0,0,0,0,7,8,135,space,5.903983999999809,None,0,0,1.1197912000000088,None,,,,0,0,0,1,0,4,4,1,,,,,49.62008979999996,,,,,,,,,,,,,,,,,,,,,49.604760899999974,49.62008979999996,50.10368510000012,50.10870769999997,50.11972919999994,51.253039299999955,0,0,1.1197912000000088,None,51.25316799999996,51.26945999999998,51.46965820000014,51.4534079,50.11972919999994,,,,,,,,,,,,,,,,,,,814,19,v,R,2026-02-25_11h16.37.327,VisualSearch_2526_3,,2025.2.4,2026-02-25 11h16.37.627876 +0100,
vertical.xlsx,The target is tilted.,135,5,5,0,0,1,1,1,1,1,1,1,1,1,1,1,1,11,12,135,space,5.903983999999809,None,0,1,1.0445804000000862,None,,,,0,0,0,1,0,5,5,4,,,,,51.46965820000014,,,,,,,,,,,,,,,,,,,,,51.454092400000036,51.46965820000014,51.953335700000025,51.95706240000004,51.97104510000008,53.020041799999944,0,1,1.0445804000000862,None,53.020230500000025,53.035585600000104,53.23611310000001,53.21987469999999,51.97104510000008,,,,,,,,,,,,,,,,,,,814,19,v,R,2026-02-25_11h16.37.327,VisualSearch_2526_3,,2025.2.4,2026-02-25 11h16.37.627876 +0100,
vertical.xlsx,The target is tilted.,135,6,6,0,0,1,1,1,0,0,0,0,0,0,0,0,1,3,4,135,space,5.903983999999809,None,0,1,0.6053842999999688,None,,,,0,0,0,1,0,6,6,6,,,,,53.23611310000001,,,,,,,,,,,,,,,,,,,,,53.22063950000006,53.23611310000001,53.719941199999994,53.72457499999996,53.74347149999994,54.35340530000008,0,1,0.6053842999999688,None,54.35362780000014,54.36884320000013,54.56934279999996,54.55267520000007,53.74347149999994,,,,,,,,,,,,,,,,,,,814,19,v,R,2026-02-25_11h16.37.327,VisualSearch_2526_3,,2025.2.4,2026-02-25 11h16.37.627876 +0100,
vertical.xlsx,The target is tilted.,135,7,7,0,0,0,0,0,0,0,0,0,0,0,0,0,1,1,1,135,space,5.903983999999809,None,0,1,0.7289411000001564,None,,,,0,0,0,1,0,7,7,7,,,,,54.56934279999996,,,,,,,,,,,,,,,,,,,,,54.5534454000001,54.56934279999996,55.05333470000005,55.05814129999999,55.068642599999976,55.803560800000014,0,1,0.7289411000001564,None,55.803753500000084,55.81867350000016,56.018970999999965,56.00313249999999,55.068642599999976,,,,,,,,,,,,,,,,,,,814,19,v,R,2026-02-25_11h16.37.327,VisualSearch_2526_3,,2025.2.4,2026-02-25 11h16.37.627876 +0100,
vertical.xlsx,The target is tilted.,135,0,0,0,0,0,0,0,0,0,0,0,0,0,0,0,1,1,1,135,space,5.903983999999809,None,0,1,0.6956969000000299,None,space,2.456255199999987,None,0,0,0,1,,,,,0,0,0,7,58.52408910000008,,,,,,,,,,,,,,,,,,,,,58.519752100000005,58.52408910000008,59.002372899999955,59.007087500000125,59.02640440000005,59.735734800000046,,,,,59.735983600000054,59.7514142,59.95195869999998,59.93554240000003,,56.00992250000013,56.018970999999965,56.018970999999965,58.48639490000005,space,2.456255199999987,None,0,1,0.6956969000000299,None,,,,,,,,814,19,v,R,2026-02-25_11h16.37.327,VisualSearch_2526_3,,2025.2.4,2026-02-25 11h16.37.627876 +0100,
vertical.xlsx,The target is tilted.,135,1,1,0,0,1,1,1,0,0,0,0,0,0,0,0,1,3,4,135,space,5.903983999999809,None,0,1,0.7199002999998356,None,space,2.456255199999987,None,0,0,0,1,,,,,0,1,1,6,59.95195869999998,,,,,,,,,,,,,,,,,,,,,59.936328900000035,59.95195869999998,60.43570139999997,60.440327100000104,60.45984500000009,61.18614709999997,,,,,61.18634710000015,61.201209600000084,61.401558199999954,61.385370500000136,60.45984500000009,,,,,,,,0,1,0.7199002999998356,None,,,,,,,,814,19,v,R,2026-02-25_11h16.37.327,VisualSearch_2526_3,,2025.2.4,2026-02-25 11h16.37.627876 +0100,
vertical.xlsx,The target is tilted.,135,2,2,0,0,1,1,1,1,1,1,1,1,1,1,1,1,11,12,135,space,5.903983999999809,None,0,1,0.7276238999997986,None,space,2.456255199999987,None,0,0,0,1,,,,,0,2,2,4,61.401558199999954,,,,,,,,,,,,,,,,,,,,,61.38620070000002,61.401558199999954,61.88566639999999,61.89070319999996,61.909964700000046,62.65145389999998,,,,,62.651575500000035,62.667940900000076,,62.85176279999996,61.909964700000046,,,,,,,,0,1,0.7276238999997986,None,,,,,,,,814,19,v,R,2026-02-25_11h16.37.327,VisualSearch_2526_3,,2025.2.4,2026-02-25 11h16.37.627876 +0100,
vertical.xlsx,The target is tilted.,135,3,3,0,1,0,0,0,0,0,0,0,0,0,0,0,0,0,1,135,space,5.903983999999809,None,1,1,0.5660324000000401,None,space,2.456255199999987,None,0,0,0,1,,,,,0,3,3,3,62.86804989999996,,,,,,,,,,,,,,,,,,,,,62.85251420000009,62.86804989999996,63.35181710000006,63.35660800000005,63.375468400000045,63.9517522000001,,,,,63.95191539999996,63.96725809999998,64.16795720000005,64.15182300000015,63.375468400000045,,,,,,,,1,1,0.5660324000000401,None,,,,,,,,814,19,v,R,2026-02-25_11h16.37.327,VisualSearch_2526_3,,2025.2.4,2026-02-25 11h16.37.627876 +0100,
vertical.xlsx,The target is tilted.,135,4,4,0,0,1,1,1,1,1,1,1,0,0,0,0,1,7,8,135,space,5.903983999999809,None,0,1,0.7499806999999237,None,space,2.456255199999987,None,0,0,0,1,,,,,0,4,4,5,64.16795720000005,,,,,,,,,,,,,,,,,,,,,64.15266180000003,64.16795720000005,64.65175060000001,64.65651470000012,64.66866110000001,65.43489470000009,,,,,65.43509429999995,65.45055479999996,65.65060429999994,65.63499900000011,64.66866110000001,,,,,,,,0,1,0.7499806999999237,None,,,,,,,,814,19,v,R,2026-02-25_11h16.37.327,VisualSearch_2526_3,,2025.2.4,2026-02-25 11h16.37.627876 +0100,
vertical.xlsx,The target is tilted.,135,5,5,0,1,1,1,1,1,1,1,1,0,0,0,0,0,7,8,135,space,5.903983999999809,None,1,1,0.9645689000001312,None,space,2.456255199999987,None,0,0,0,1,,,,,0,5,5,1,65.65060429999994,,,,,,,,,,,,,,,,,,,,,65.63583390000008,65.65060429999994,66.13514600000008,66.14010729999995,66.1508996,67.11870199999998,,,,,67.11890210000001,67.13369260000013,67.33405820000007,67.31795090000014,66.1508996,,,,,,,,1,1,0.9645689000001312,None,,,,,,,,814,19,v,R,2026-02-25_11h16.37.327,VisualSearch_2526_3,,2025.2.4,2026-02-25 11h16.37.627876 +0100,
vertical.xlsx,The target is tilted.,135,6,6,0,1,1,1,1,0,0,0,0,0,0,0,0,0,3,4,135,space,5.903983999999809,None,0,0,0.900677000000087,None,space,2.456255199999987,None,0,0,0,1,,,,,0,6,6,2,67.33405820000007,,,,,,,,,,,,,,,,,,,,,67.3187054,67.33405820000007,67.81748730000004,67.82205980000003,67.84090850000007,68.75176770000007,,,,,68.75199240000006,68.76677740000014,68.96709439999995,68.95101580000005,67.84090850000007,,,,,,,,0,0,0.900677000000087,None,,,,,,,,814,19,v,R,2026-02-25_11h16.37.327,VisualSearch_2526_3,,2025.2.4,2026-02-25 11h16.37.627876 +0100,
vertical.xlsx,The target is tilted.,135,7,7,0,1,1,1,1,1,1,1,1,1,1,1,1,0,11,12,135,space,5.903983999999809,None,1,1,1.657768199999964,None,space,2.456255199999987,None,0,0,0,1,,,,,0,7,7,0,68.96709439999995,,,,,,,,,,,,,,,,,,,,,68.95176570000012,68.96709439999995,69.45101,69.45566929999995,69.47459580000009,71.13528500000007,,,,,71.13550220000002,71.14959670000007,71.3503545000001,71.33394539999995,69.47459580000009,,,,,,,,1,1,1.657768199999964,None,,,,,,,,814,19,v,R,2026-02-25_11h16.37.327,VisualSearch_2526_3,,2025.2.4,2026-02-25 11h16.37.627876 +0100,
vertical.xlsx,The target is tilted.,135,8,0,1,1,1,1,1,1,1,1,1,1,1,1,1,0,11,12,135,space,5.903983999999809,None,1,1,1.5747569000000112,None,space,2.456255199999987,None,0,0,0,1,,,,,1,0,8,0,71.3503545000001,,,,,,,,,,,,,,,,,,,,,71.33477289999996,71.3503545000001,71.83391350000011,71.83893710000007,71.85775460000013,73.4343381000001,,,,,73.43453990000012,73.44947849999994,73.64951440000004,73.6333939000001,71.85775460000013,,,,,,,,1,1,1.5747569000000112,None,,,,,,,,814,19,v,R,2026-02-25_11h16.37.327,VisualSearch_2526_3,,2025.2.4,2026-02-25 11h16.37.627876 +0100,
vertical.xlsx,The target is tilted.,135,9,1,1,0,1,1,1,1,1,1,1,1,1,1,1,1,11,12,135,space,5.903983999999809,None,0,1,0.9170763000001898,None,space,2.456255199999987,None,0,0,0,1,,,,,1,1,9,4,73.64951440000004,,,,,,,,,,,,,,,,,,,,,73.63415220000002,73.64951440000004,74.13388400000008,74.13915139999995,74.15722920000007,75.08418729999994,,,,,75.0843883,75.09901119999995,75.29976320000014,75.28330329999994,74.15722920000007,,,,,,,,0,1,0.9170763000001898,None,,,,,,,,814,19,v,R,2026-02-25_11h16.37.327,VisualSearch_2526_3,,2025.2.4,2026-02-25 11h16.37.627876 +0100,
vertical.xlsx,The target is tilted.,135,10,2,1,0,1,1,1,0,0,0,0,0,0,0,0,1,3,4,135,space,5.903983999999809,None,0,1,0.7952510999998594,None,space,2.456255199999987,None,0,0,0,1,,,,,1,2,10,6,75.29976320000014,,,,,,,,,,,,,,,,,,,,,75.28414420000013,75.29976320000014,75.78361140000015,75.78864750000002,75.80752670000015,76.61663470000008,,,,,76.61684839999998,76.63239390000012,76.8320976,76.81576530000007,75.80752670000015,,,,,,,,0,1,0.7952510999998594,None,,,,,,,,814,19,v,R,2026-02-25_11h16.37.327,VisualSearch_2526_3,,2025.2.4,2026-02-25 11h16.37.627876 +0100,
vertical.xlsx,The target is tilted.,135,11,3,1,0,1,1,1,1,1,1,1,0,0,0,0,1,7,8,135,space,5.903983999999809,None,0,1,1.339834799999835,None,space,2.456255199999987,None,0,0,0,1,,,,,1,3,11,5,76.8320976,,,,,,,,,,,,,,,,,,,,,76.8161877,76.8320976,77.31560579999996,77.31774599999994,77.33219680000002,78.6825844,,,,,78.68270789999997,78.69847849999996,,78.88295010000002,77.33219680000002,,,,,,,,0,1,1.339834799999835,None,,,,,,,,814,19,v,R,2026-02-25_11h16.37.327,VisualSearch_2526_3,,2025.2.4,2026-02-25 11h16.37.627876 +0100,
vertical.xlsx,The target is tilted.,135,12,4,1,1,1,1,1,0,0,0,0,0,0,0,0,0,3,4,135,space,5.903983999999809,None,1,1,0.6200062999998863,None,space,2.456255199999987,None,0,0,0,1,,,,,1,4,12,2,78.89885129999993,,,,,,,,,,,,,,,,,,,,,78.88398540000003,78.89885129999993,79.38301879999995,79.38758269999994,79.4067199000001,80.03350620000015,,,,,80.03370340000015,80.04827360000013,80.24903570000015,80.23284890000014,79.4067199000001,,,,,,,,1,1,0.6200062999998863,None,,,,,,,,814,19,v,R,2026-02-25_11h16.37.327,VisualSearch_2526_3,,2025.2.4,2026-02-25 11h16.37.627876 +0100,
vertical.xlsx,The target is tilted.,135,13,5,1,1,1,1,1,1,1,1,1,0,0,0,0,0,7,8,135,space,5.903983999999809,None,0,0,1.3869629000000714,None,space,2.456255199999987,None,0,0,0,1,,,,,1,5,13,1,80.24903570000015,,,,,,,,,,,,,,,,,,,,,80.23371629999997,80.24903570000015,80.73258759999999,80.73753179999994,80.75690780000014,82.14973150000014,,,,,82.14993170000002,82.1646866000001,82.36539949999997,82.34919490000016,80.75690780000014,,,,,,,,0,0,1.3869629000000714,None,,,,,,,,814,19,v,R,2026-02-25_11h16.37.327,VisualSearch_2526_3,,2025.2.4,2026-02-25 11h16.37.627876 +0100,
vertical.xlsx,The target is tilted.,135,14,6,1,0,0,0,0,0,0,0,0,0,0,0,0,1,1,1,135,space,5.903983999999809,None,0,1,0.9501711000000341,None,space,2.456255199999987,None,0,0,0,1,,,,,1,6,14,7,82.36539949999997,,,,,,,,,,,,,,,,,,,,,82.34995159999994,82.36539949999997,82.84912929999996,82.8537589,82.87287860000015,83.83299450000004,,,,,83.83319460000007,83.8479969,84.04807329999994,84.03233169999999,82.87287860000015,,,,,,,,0,1,0.9501711000000341,None,,,,,,,,814,19,v,R,2026-02-25_11h16.37.327,VisualSearch_2526_3,,2025.2.4,2026-02-25 11h16.37.627876 +0100,
vertical.xlsx,The target is tilted.,135,15,7,1,1,0,0,0,0,0,0,0,0,0,0,0,0,0,1,135,space,5.903983999999809,None,0,0,0.4676183999999921,None,space,2.456255199999987,None,0,0,0,1,,,,,1,7,15,3,84.04807329999994,,,,,,,,,,,,,,,,,,,,,84.03305180000007,84.04807329999994,84.53227230000016,84.53687130000003,84.55638640000006,85.0328078,,,,,85.03301009999996,85.04781520000006,85.24766750000003,85.23228310000013,84.55638640000006,,,,,,,,0,0,0.4676183999999921,None,,,,,,,,814,19,v,R,2026-02-25_11h16.37.327,VisualSearch_2526_3,,2025.2.4,2026-02-25 11h16.37.627876 +0100,
vertical.xlsx,The target is tilted.,135,16,0,2,1,1,1,1,1,1,1,1,1,1,1,1,0,11,12,135,space,5.903983999999809,None,0,0,2.3819008999998914,None,space,2.456255199999987,None,0,0,0,1,,,,,2,0,16,0,85.24766750000003,,,,,,,,,,,,,,,,,,,,,85.23310519999995,85.24766750000003,85.73212160000003,85.73674189999997,85.75598480000008,88.1489196,,,,,88.14912570000001,88.16402820000008,88.36462950000009,88.34847749999994,85.75598480000008,,,,,,,,0,0,2.3819008999998914,None,,,,,,,,814,19,v,R,2026-02-25_11h16.37.327,VisualSearch_2526_3,,2025.2.4,2026-02-25 11h16.37.627876 +0100,
vertical.xlsx,The target is tilted.,135,17,1,2,0,1,1,1,1,1,1,1,0,0,0,0,1,7,8,135,space,5.903983999999809,None,0,1,2.11741690000008,None,space,2.456255199999987,None,0,0,0,1,,,,,2,1,17,5,88.36462950000009,,,,,,,,,,,,,,,,,,,,,88.34932800000001,88.36462950000009,88.84846229999994,88.85378370000012,88.87283980000007,90.99848539999994,,,,,90.99869060000015,91.01360569999997,91.2141888000001,91.19807220000007,88.87283980000007,,,,,,,,0,1,2.11741690000008,None,,,,,,,,814,19,v,R,2026-02-25_11h16.37.327,VisualSearch_2526_3,,2025.2.4,2026-02-25 11h16.37.627876 +0100,
vertical.xlsx,The target is tilted.,135,18,2,2,1,0,0,0,0,0,0,0,0,0,0,0,0,0,1,135,space,5.903983999999809,None,1,1,0.448698499999864,None,space,2.456255199999987,None,0,0,0,1,,,,,2,2,18,3,91.2141888000001,,,,,,,,,,,,,,,,,,,,,91.19889639999997,91.2141888000001,91.69773520000012,91.70235490000005,91.7213819000001,92.18169490000014,,,,,92.18189759999996,92.19661880000012,92.39711090000014,92.38107250000007,91.7213819000001,,,,,,,,1,1,0.448698499999864,None,,,,,,,,814,19,v,R,2026-02-25_11h16.37.327,VisualSearch_2526_3,,2025.2.4,2026-02-25 11h16.37.627876 +0100,
vertical.xlsx,The target is tilted.,135,19,3,2,0,0,0,0,0,0,0,0,0,0,0,0,1,1,1,135,space,5.903983999999809,None,0,1,0.6751842000001034,None,space,2.456255199999987,None,0,0,0,1,,,,,2,3,19,7,92.39711090000014,,,,,,,,,,,,,,,,,,,,,92.38183000000004,92.39711090000014,92.88103390000015,92.88564229999997,92.90494460000014,93.58146880000004,,,,,93.58166610000012,93.59638399999994,93.79679370000008,93.78064710000012,92.90494460000014,,,,,,,,0,1,0.6751842000001034,None,,,,,,,,814,19,v,R,2026-02-25_11h16.37.327,VisualSearch_2526_3,,2025.2.4,2026-02-25 11h16.37.627876 +0100,
vertical.xlsx,The target is tilted.,135,20,4,2,1,1,1,1,1,1,1,1,0,0,0,0,0,7,8,135,space,5.903983999999809,None,1,1,0.7659856000000218,None,space,2.456255199999987,None,0,0,0,1,,,,,2,4,20,1,93.79679370000008,,,,,,,,,,,,,,,,,,,,,93.78121120000014,93.79679370000008,94.28009580000003,94.2827287,94.29658210000002,95.06463159999998,,,,,95.06483330000015,95.07972100000006,95.28030390000004,95.26403819999996,94.29658210000002,,,,,,,,1,1,0.7659856000000218,None,,,,,,,,814,19,v,R,2026-02-25_11h16.37.327,VisualSearch_2526_3,,2025.2.4,2026-02-25 11h16.37.627876 +0100,
vertical.xlsx,The target is tilted.,135,21,5,2,1,1,1,1,0,0,0,0,0,0,0,0,0,3,4,135,space,5.903983999999809,None,1,1,0.9377230999998574,None,space,2.456255199999987,None,0,0,0,1,,,,,2,5,21,2,95.28030390000004,,,,,,,,,,,,,,,,,,,,,95.26482150000015,95.28030390000004,95.76399190000006,95.76875300000006,95.78798240000015,96.73104360000002,,,,,96.73124389999998,96.74613700000009,96.94617770000013,96.93002660000002,95.78798240000015,,,,,,,,1,1,0.9377230999998574,None,,,,,,,,814,19,v,R,2026-02-25_11h16.37.327,VisualSearch_2526_3,,2025.2.4,2026-02-25 11h16.37.627876 +0100,
vertical.xlsx,The target is tilted.,135,22,6,2,0,1,1,1,0,0,0,0,0,0,0,0,1,3,4,135,space,5.903983999999809,None,0,1,0.9907018999999764,None,space,2.456255199999987,None,0,0,0,1,,,,,2,6,22,6,96.94617770000013,,,,,,,,,,,,,,,,,,,,,96.9307761,96.94617770000013,97.43013569999994,97.43474900000001,97.45371160000013,98.4477022000001,,,,,98.4479331,98.46254440000007,98.66314390000002,98.64685140000006,97.45371160000013,,,,,,,,0,1,0.9907018999999764,None,,,,,,,,814,19,v,R,2026-02-25_11h16.37.327,VisualSearch_2526_3,,2025.2.4,2026-02-25 11h16.37.627876 +0100,
vertical.xlsx,The target is tilted.,135,23,7,2,0,1,1,1,1,1,1,1,1,1,1,1,1,11,12,135,space,5.903983999999809,None,0,1,2.6131133000001228,None,space,2.456255199999987,None,0,0,0,1,,,,,2,7,23,4,98.66314390000002,,,,,,,,,,,,,,,,,,,,,98.64763360000006,98.66314390000002,99.14679649999994,99.15138530000013,99.17066079999995,101.79584320000004,,,,,101.79596590000006,101.81236000000013,,101.99627350000014,99.17066079999995,,,,,,,,0,1,2.6131133000001228,None,,,,,,,,814,19,v,R,2026-02-25_11h16.37.327,VisualSearch_2526_3,,2025.2.4,2026-02-25 11h16.37.627876 +0100,
vertical.xlsx,The target is tilted.,135,24,0,3,1,1,1,1,0,0,0,0,0,0,0,0,0,3,4,135,space,5.903983999999809,None,1,1,0.918927000000167,None,space,2.456255199999987,None,0,0,0,1,,,,,3,0,24,2,102.0125574000001,,,,,,,,,,,,,,,,,,,,,101.99702460000003,102.0125574000001,102.49604950000003,102.49963419999995,102.51242909999996,103.44616100000007,,,,,103.4463945,103.4618809000001,103.66234069999996,103.64621860000011,102.51242909999996,,,,,,,,1,1,0.918927000000167,None,,,,,,,,814,19,v,R,2026-02-25_11h16.37.327,VisualSearch_2526_3,,2025.2.4,2026-02-25 11h16.37.627876 +0100,
vertical.xlsx,The target is tilted.,135,25,1,3,0,0,0,0,0,0,0,0,0,0,0,0,1,1,1,135,space,5.903983999999809,None,0,1,0.5833967000000939,None,space,2.456255199999987,None,0,0,0,1,,,,,3,1,25,7,103.66234069999996,,,,,,,,,,,,,,,,,,,,,103.6469313,103.66234069999996,104.146027,104.15065359999994,104.17013310000016,104.76324880000016,,,,,104.76345030000016,104.77835980000009,104.97886840000001,104.962536,104.17013310000016,,,,,,,,0,1,0.5833967000000939,None,,,,,,,,814,19,v,R,2026-02-25_11h16.37.327,VisualSearch_2526_3,,2025.2.4,2026-02-25 11h16.37.627876 +0100,
vertical.xlsx,The target is tilted.,135,26,2,3,1,1,1,1,1,1,1,1,1,1,1,1,0,11,12,135,space,5.903983999999809,None,1,1,1.7510561000001417,None,space,2.456255199999987,None,0,0,0,1,,,,,3,2,26,0,104.97886840000001,,,,,,,,,,,,,,,,,,,,,104.96328440000002,104.97886840000001,105.46254150000004,105.46700620000001,105.47852940000007,107.2462286,,,,,107.24642900000003,107.26129949999995,107.46165629999996,107.44579369999997,105.47852940000007,,,,,,,,1,1,1.7510561000001417,None,,,,,,,,814,19,v,R,2026-02-25_11h16.37.327,VisualSearch_2526_3,,2025.2.4,2026-02-25 11h16.37.627876 +0100,
vertical.xlsx,The target is tilted.,135,27,3,3,1,1,1,1,1,1,1,1,0,0,0,0,0,7,8,135,space,5.903983999999809,None,1,1,2.243111900000031,None,space,2.456255199999987,None,0,0,0,1,,,,,3,3,27,1,107.46165629999996,,,,,,,,,,,,,,,,,,,,,107.44662110000013,107.46165629999996,107.94540729999994,107.9506907,107.96994399999994,110.22853839999993,,,,,110.22877429999994,110.24400949999995,110.4447990000001,110.42859599999997,107.96994399999994,,,,,,,,1,1,2.243111900000031,None,,,,,,,,814,19,v,R,2026-02-25_11h16.37.327,VisualSearch_2526_3,,2025.2.4,2026-02-25 11h16.37.627876 +0100,
vertical.xlsx,The target is tilted.,135,28,4,3,0,1,1,1,1,1,1,1,0,0,0,0,1,7,8,135,space,5.903983999999809,None,0,1,1.591805999999906,None,space,2.456255199999987,None,0,0,0,1,,,,,3,4,28,5,110.4447990000001,,,,,,,,,,,,,,,,,,,,,110.42940010000007,110.4447990000001,110.92862940000009,110.93395060000012,110.95366530000001,112.56094299999995,,,,,112.56106240000008,112.57714690000012,,112.76148549999994,110.95366530000001,,,,,,,,0,1,1.591805999999906,None,,,,,,,,814,19,v,R,2026-02-25_11h16.37.327,VisualSearch_2526_3,,2025.2.4,2026-02-25 11h16.37.627876 +0100,
vertical.xlsx,The target is tilted.,135,29,5,3,0,1,1,1,1,1,1,1,1,1,1,1,1,11,12,135,space,5.903983999999809,None,0,1,2.9311827999999878,None,space,2.456255199999987,None,0,0,0,1,,,,,3,5,29,4,112.77774939999995,,,,,,,,,,,,,,,,,,,,,112.7623516000001,112.77774939999995,113.26128070000004,113.26608669999996,113.28519660000006,116.22817950000012,,,,,116.2283781000001,116.24334369999997,116.44349390000002,116.42742539999995,,,,,,,,,0,1,2.9311827999999878,None,,,,,,,,814,19,v,R,2026-02-25_11h16.37.327,VisualSearch_2526_3,,2025.2.4,2026-02-25 11h16.37.627876 +0100,
vertical.xlsx,The target is tilted.,135,30,6,3,1,0,0,0,0,0,0,0,0,0,0,0,0,0,1,135,space,5.903983999999809,None,1,1,0.6316004000000248,None,space,2.456255199999987,None,0,0,0,1,,,,,3,6,30,3,116.44349390000002,,,,,,,,,,,,,,,,,,,,,116.42817730000002,116.44349390000002,116.92734289999999,116.93248510000012,116.95149070000002,117.59426350000012,,,,,117.59438799999998,117.60984020000001,117.8103688000001,117.79413610000006,116.95149070000002,,,,,,,,1,1,0.6316004000000248,None,,,,,,,,814,19,v,R,2026-02-25_11h16.37.327,VisualSearch_2526_3,,2025.2.4,2026-02-25 11h16.37.627876 +0100,
vertical.xlsx,The target is tilted.,135,31,7,3,0,1,1,1,0,0,0,0,0,0,0,0,1,3,4,135,space,5.903983999999809,None,0,1,0.7724491999999827,None,space,2.456255199999987,None,0,0,0,1,,,,,3,7,31,6,117.8103688000001,,,,,,,,,,,,,,,,,,,,,117.79503079999995,117.8103688000001,118.29402730000015,118.2985149000001,118.31737020000014,119.09420690000002,,,,,119.0944108000001,119.10935450000011,119.31016060000002,119.29410789999997,118.31737020000014,,,,,,,,0,1,0.7724491999999827,None,,,,,,,,814,19,v,R,2026-02-25_11h16.37.327,VisualSearch_2526_3,,2025.2.4,2026-02-25 11h16.37.627876 +0100,
vertical.xlsx,The target is tilted.,135,32,0,4,1,0,0,0,0,0,0,0,0,0,0,0,0,0,1,135,space,5.903983999999809,None,1,1,0.6613252999998167,None,space,2.456255199999987,None,0,0,0,1,,,,,4,0,32,3,119.31016060000002,,,,,,,,,,,,,,,,,,,,,119.29487229999995,119.31016060000002,119.79395990000012,119.79860389999999,119.81777910000005,120.49376280000001,,,,,120.49399749999998,120.50939420000009,120.70991670000012,120.69397060000006,119.81777910000005,,,,,,,,1,1,0.6613252999998167,None,,,,,,,,814,19,v,R,2026-02-25_11h16.37.327,VisualSearch_2526_3,,2025.2.4,2026-02-25 11h16.37.627876 +0100,
vertical.xlsx,The target is tilted.,135,33,1,4,0,1,1,1,0,0,0,0,0,0,0,0,1,3,4,135,space,5.903983999999809,None,0,1,0.6973001999999724,None,space,2.456255199999987,None,0,0,0,1,,,,,4,1,33,6,120.70991670000012,,,,,,,,,,,,,,,,,,,,,120.69478249999997,120.70991670000012,121.19363190000013,121.1982124000001,121.21697730000005,121.92686890000004,,,,,121.92710480000005,121.94252219999998,122.14299010000013,122.12685680000004,121.21697730000005,,,,,,,,0,1,0.6973001999999724,None,,,,,,,,814,19,v,R,2026-02-25_11h16.37.327,VisualSearch_2526_3,,2025.2.4,2026-02-25 11h16.37.627876 +0100,
vertical.xlsx,The target is tilted.,135,34,2,4,0,1,1,1,1,1,1,1,0,0,0,0,1,7,8,135,space,5.903983999999809,None,0,1,1.2385214000000815,None,space,2.456255199999987,None,0,0,0,1,,,,,4,2,34,5,122.14299010000013,,,,,,,,,,,,,,,,,,,,,122.12761780000005,122.14299010000013,122.62689490000002,122.63140399999997,122.65064989999996,123.89362040000015,,,,,123.8938207000001,123.90898860000016,124.10942169999998,124.09324420000007,122.65064989999996,,,,,,,,0,1,1.2385214000000815,None,,,,,,,,814,19,v,R,2026-02-25_11h16.37.327,VisualSearch_2526_3,,2025.2.4,2026-02-25 11h16.37.627876 +0100,
vertical.xlsx,The target is tilted.,135,35,3,4,1,1,1,1,1,1,1,1,0,0,0,0,0,7,8,135,space,5.903983999999809,None,1,1,0.8167228000002069,None,space,2.456255199999987,None,0,0,0,1,,,,,4,3,35,1,124.10942169999998,,,,,,,,,,,,,,,,,,,,,124.0940951,124.10942169999998,124.59298600000011,124.59758959999999,124.6166098000001,125.4434546,,,,,125.4436604,125.45849829999997,125.65916540000012,125.64308340000002,124.6166098000001,,,,,,,,1,1,0.8167228000002069,None,,,,,,,,814,19,v,R,2026-02-25_11h16.37.327,VisualSearch_2526_3,,2025.2.4,2026-02-25 11h16.37.627876 +0100,
vertical.xlsx,The target is tilted.,135,36,4,4,1,1,1,1,0,0,0,0,0,0,0,0,0,3,4,135,space,5.903983999999809,None,0,0,1.136385700000119,None,space,2.456255199999987,None,0,0,0,1,,,,,4,4,36,2,125.65916540000012,,,,,,,,,,,,,,,,,,,,,125.64384199999995,125.65916540000012,126.14294440000003,126.1476391000001,126.16668530000015,127.31002319999993,,,,,127.31024449999995,127.32511790000012,127.52557520000005,127.50942110000005,126.16668530000015,,,,,,,,0,0,1.136385700000119,None,,,,,,,,814,19,v,R,2026-02-25_11h16.37.327,VisualSearch_2526_3,,2025.2.4,2026-02-25 11h16.37.627876 +0100,
vertical.xlsx,The target is tilted.,135,37,5,4,0,1,1,1,1,1,1,1,1,1,1,1,1,11,12,135,space,5.903983999999809,None,0,1,1.7530329999999594,None,space,2.456255199999987,None,0,0,0,1,,,,,4,5,37,4,127.52557520000005,,,,,,,,,,,,,,,,,,,,,127.51025290000007,127.52557520000005,128.00932550000016,128.01395460000003,128.0333144000001,129.7927247,,,,,129.7929259,129.80809290000002,130.00851179999995,129.99236229999997,128.0333144000001,,,,,,,,0,1,1.7530329999999594,None,,,,,,,,814,19,v,R,2026-02-25_11h16.37.327,VisualSearch_2526_3,,2025.2.4,2026-02-25 11h16.37.627876 +0100,
vertical.xlsx,The target is tilted.,135,38,6,4,1,1,1,1,1,1,1,1,1,1,1,1,0,11,12,135,space,5.903983999999809,None,0,0,1.5075171999999384,None,space,2.456255199999987,None,0,0,0,1,,,,,4,6,38,0,130.00851179999995,,,,,,,,,,,,,,,,,,,,,129.9931028000001,130.00851179999995,130.4923764,130.49696570000015,130.51588230000016,132.0260353000001,,,,,132.02625420000004,132.0408973000001,132.24145750000002,132.22550230000002,130.51588230000016,,,,,,,,0,0,1.5075171999999384,None,,,,,,,,814,19,v,R,2026-02-25_11h16.37.327,VisualSearch_2526_3,,2025.2.4,2026-02-25 11h16.37.627876 +0100,
vertical.xlsx,The target is tilted.,135,39,7,4,0,0,0,0,0,0,0,0,0,0,0,0,1,1,1,135,space,5.903983999999809,None,0,1,0.5658885999998802,None,space,2.456255199999987,None,0,0,0,1,,,,,4,7,39,7,132.24145750000002,,,,,,,,,,,,,,,,,,,,,132.2262290000001,132.24145750000002,132.72545809999997,132.73004020000008,132.74951620000002,133.3258820000001,,,,,133.32608410000012,133.34070050000014,133.54139920000011,133.52528789999997,132.74951620000002,,,,,,,,0,1,0.5658885999998802,None,,,,,,,,814,19,v,R,2026-02-25_11h16.37.327,VisualSearch_2526_3,,2025.2.4,2026-02-25 11h16.37.627876 +0100,
vertical.xlsx,The target is tilted.,135,40,0,5,1,1,1,1,0,0,0,0,0,0,0,0,0,3,4,135,space,5.903983999999809,None,1,1,0.7483956999999464,None,space,2.456255199999987,None,0,0,0,1,,,,,5,0,40,2,133.54139920000011,,,,,,,,,,,,,,,,,,,,,133.52606779999996,133.54139920000011,134.02475700000014,134.02922060000014,134.04749070000003,134.80844479999996,,,,,134.80864569999994,134.82401870000012,135.02463390000003,135.00837980000006,134.04749070000003,,,,,,,,1,1,0.7483956999999464,None,,,,,,,,814,19,v,R,2026-02-25_11h16.37.327,VisualSearch_2526_3,,2025.2.4,2026-02-25 11h16.37.627876 +0100,
vertical.xlsx,The target is tilted.,135,41,1,5,1,0,0,0,0,0,0,0,0,0,0,0,0,0,1,135,space,5.903983999999809,None,1,1,0.6507979000000432,None,space,2.456255199999987,None,0,0,0,1,,,,,5,1,41,3,135.02463390000003,,,,,,,,,,,,,,,,,,,,,135.00913480000008,135.02463390000003,135.50826230000007,135.51291400000014,135.5310376,136.19149779999998,,,,,136.19165840000005,136.20697450000011,136.4077096000001,136.39170560000002,135.5310376,,,,,,,,1,1,0.6507979000000432,None,,,,,,,,814,19,v,R,2026-02-25_11h16.37.327,VisualSearch_2526_3,,2025.2.4,2026-02-25 11h16.37.627876 +0100,
vertical.xlsx,The target is tilted.,135,42,2,5,0,1,1,1,0,0,0,0,0,0,0,0,1,3,4,135,space,5.903983999999809,None,0,1,1.210120599999982,None,space,2.456255199999987,None,0,0,0,1,,,,,5,2,42,6,136.4077096000001,,,,,,,,,,,,,,,,,,,,,136.39259190000007,136.4077096000001,136.89143920000015,136.8961319,136.91515320000008,138.14119300000016,,,,,138.1414053000001,138.15678389999994,138.35729730000003,138.34123850000014,136.91515320000008,,,,,,,,0,1,1.210120599999982,None,,,,,,,,814,19,v,R,2026-02-25_11h16.37.327,VisualSearch_2526_3,,2025.2.4,2026-02-25 11h16.37.627876 +0100,
vertical.xlsx,The target is tilted.,135,43,3,5,1,1,1,1,1,1,1,1,0,0,0,0,0,7,8,135,space,5.903983999999809,None,0,0,1.513727499999959,None,space,2.456255199999987,None,0,0,0,1,,,,,5,3,43,1,138.35729730000003,,,,,,,,,,,,,,,,,,,,,138.34205940000015,138.35729730000003,138.8406278,138.84519550000005,138.8642539,140.39092540000001,,,,,140.39115730000003,140.4065766000001,140.60683570000015,140.59112410000012,138.8642539,,,,,,,,0,0,1.513727499999959,None,,,,,,,,814,19,v,R,2026-02-25_11h16.37.327,VisualSearch_2526_3,,2025.2.4,2026-02-25 11h16.37.627876 +0100,
vertical.xlsx,The target is tilted.,135,44,4,5,0,1,1,1,1,1,1,1,1,1,1,1,1,11,12,135,space,5.903983999999809,None,0,1,1.6149270000000797,None,space,2.456255199999987,None,0,0,0,1,,,,,5,4,44,4,140.60683570000015,,,,,,,,,,,,,,,,,,,,,140.591954,140.60683570000015,141.09080900000004,141.0955781,141.11461359999998,142.74117520000004,,,,,142.74137050000013,142.75627380000014,142.95639340000002,142.94053899999994,141.11461359999998,,,,,,,,0,1,1.6149270000000797,None,,,,,,,,814,19,v,R,2026-02-25_11h16.37.327,VisualSearch_2526_3,,2025.2.4,2026-02-25 11h16.37.627876 +0100,
vertical.xlsx,The target is tilted.,135,45,5,5,0,0,0,0,0,0,0,0,0,0,0,0,1,1,1,135,space,5.903983999999809,None,0,1,0.628405500000099,None,space,2.456255199999987,None,0,0,0,1,,,,,5,5,45,7,142.95639340000002,,,,,,,,,,,,,,,,,,,,,142.94130199999995,142.95639340000002,143.44052150000016,143.44521970000005,143.4647477000001,144.10705170000006,,,,,144.10728140000015,144.12274449999995,144.32317720000015,144.30692980000003,143.4647477000001,,,,,,,,0,1,0.628405500000099,None,,,,,,,,814,19,v,R,2026-02-25_11h16.37.327,VisualSearch_2526_3,,2025.2.4,2026-02-25 11h16.37.627876 +0100,
vertical.xlsx,The target is tilted.,135,46,6,5,1,1,1,1,1,1,1,1,1,1,1,1,0,11,12,135,space,5.903983999999809,None,1,1,1.1333943999998155,None,space,2.456255199999987,None,0,0,0,1,,,,,5,6,46,0,144.32317720000015,,,,,,,,,,,,,,,,,,,,,144.3076873,144.32317720000015,144.80696540000008,144.81159389999993,144.8306844000001,145.9735846000001,,,,,145.9737411000001,145.98914179999997,146.189341,146.1734265,144.8306844000001,,,,,,,,1,1,1.1333943999998155,None,,,,,,,,814,19,v,R,2026-02-25_11h16.37.327,VisualSearch_2526_3,,2025.2.4,2026-02-25 11h16.37.627876 +0100,
vertical.xlsx,The target is tilted.,135,47,7,5,0,1,1,1,1,1,1,1,0,0,0,0,1,7,8,135,space,5.903983999999809,None,0,1,2.05622110000013,None,space,2.456255199999987,None,0,0,0,1,,,,,5,7,47,5,146.189341,,,,,,,,,,,,,,,,,,,,,146.17427369999996,146.189341,146.67333210000015,146.6783531000001,146.69792900000016,148.7572325000001,,,,,148.75747490000003,148.77208770000016,148.9725605000001,148.95630649999998,146.69792900000016,,,,,,,,0,1,2.05622110000013,None,,,,,,,,814,19,v,R,2026-02-25_11h16.37.327,VisualSearch_2526_3,,2025.2.4,2026-02-25 11h16.37.627876 +0100,
vertical.xlsx,The target is tilted.,135,48,0,6,1,1,1,1,0,0,0,0,0,0,0,0,0,3,4,135,space,5.903983999999809,None,1,1,0.9759042000000591,None,space,2.456255199999987,None,0,0,0,1,,,,,6,0,48,2,148.9725605000001,,,,,,,,,,,,,,,,,,,,,148.9570513000001,148.9725605000001,149.45623060000003,149.4607125,149.47232830000007,150.4567399,,,,,150.45694000000003,150.47158530000002,150.67230599999994,150.65562620000014,149.47232830000007,,,,,,,,1,1,0.9759042000000591,None,,,,,,,,814,19,v,R,2026-02-25_11h16.37.327,VisualSearch_2526_3,,2025.2.4,2026-02-25 11h16.37.627876 +0100,
vertical.xlsx,The target is tilted.,135,49,1,6,0,1,1,1,1,1,1,1,1,1,1,1,1,11,12,135,space,5.903983999999809,None,0,1,1.8266613999999208,None,space,2.456255199999987,None,0,0,0,1,,,,,6,1,49,4,150.67230599999994,,,,,,,,,,,,,,,,,,,,,150.65606470000012,150.67230599999994,151.1560578000001,151.16061560000003,151.17955370000004,153.02214630000003,,,,,153.0222979,153.03840379999997,153.2385908000001,153.2224337,151.17955370000004,,,,,,,,0,1,1.8266613999999208,None,,,,,,,,814,19,v,R,2026-02-25_11h16.37.327,VisualSearch_2526_3,,2025.2.4,2026-02-25 11h16.37.627876 +0100,
vertical.xlsx,The target is tilted.,135,50,2,6,1,1,1,1,1,1,1,1,0,0,0,0,0,7,8,135,space,5.903983999999809,None,1,1,1.154158599999846,None,space,2.456255199999987,None,0,0,0,1,,,,,6,2,50,1,153.2385908000001,,,,,,,,,,,,,,,,,,,,,153.2232957000001,153.2385908000001,153.72234290000006,153.72657300000014,153.74484989999996,154.90605419999997,,,,,154.90627680000011,154.92119470000011,155.12177810000003,155.10570010000015,153.74484989999996,,,,,,,,1,1,1.154158599999846,None,,,,,,,,814,19,v,R,2026-02-25_11h16.37.327,VisualSearch_2526_3,,2025.2.4,2026-02-25 11h16.37.627876 +0100,
vertical.xlsx,The target is tilted.,135,51,3,6,0,1,1,1,0,0,0,0,0,0,0,0,1,3,4,135,space,5.903983999999809,None,0,1,1.0826403999999457,None,space,2.456255199999987,None,0,0,0,1,,,,,6,3,51,6,155.12177810000003,,,,,,,,,,,,,,,,,,,,,155.10651670000016,155.12177810000003,155.60528410000006,155.6098485,155.63011600000004,156.72255280000013,,,,,156.72275690000015,156.73761349999995,156.9380232000001,156.92185640000002,155.63011600000004,,,,,,,,0,1,1.0826403999999457,None,,,,,,,,814,19,v,R,2026-02-25_11h16.37.327,VisualSearch_2526_3,,2025.2.4,2026-02-25 11h16.37.627876 +0100,
vertical.xlsx,The target is tilted.,135,52,4,6,1,1,1,1,1,1,1,1,1,1,1,1,0,11,12,135,space,5.903983999999809,None,1,1,2.4206896000000597,None,space,2.456255199999987,None,0,0,0,1,,,,,6,4,52,0,156.9380232000001,,,,,,,,,,,,,,,,,,,,,156.92259869999998,156.9380232000001,157.4214042000001,157.42605120000007,157.44505649999996,159.87210010000013,,,,,159.8723073000001,159.88715780000007,160.08723299999997,160.07127549999996,157.44505649999996,,,,,,,,1,1,2.4206896000000597,None,,,,,,,,814,19,v,R,2026-02-25_11h16.37.327,VisualSearch_2526_3,,2025.2.4,2026-02-25 11h16.37.627876 +0100,
vertical.xlsx,The target is tilted.,135,53,5,6,1,0,0,0,0,0,0,0,0,0,0,0,0,0,1,135,space,5.903983999999809,None,1,1,0.5601007000000209,None,space,2.456255199999987,None,0,0,0,1,,,,,6,5,53,3,160.08723299999997,,,,,,,,,,,,,,,,,,,,,160.07203920000006,160.08723299999997,160.5716178,160.5761520000001,160.58732510000004,161.15521560000002,,,,,161.15541580000013,161.17029750000006,161.37083010000015,161.35459630000014,160.58732510000004,,,,,,,,1,1,0.5601007000000209,None,,,,,,,,814,19,v,R,2026-02-25_11h16.37.327,VisualSearch_2526_3,,2025.2.4,2026-02-25 11h16.37.627876 +0100,
vertical.xlsx,The target is tilted.,135,54,6,6,0,0,0,0,0,0,0,0,0,0,0,0,1,1,1,135,space,5.903983999999809,None,0,1,0.5851532000001498,None,space,2.456255199999987,None,0,0,0,1,,,,,6,6,54,7,161.37083010000015,,,,,,,,,,,,,,,,,,,,,161.3553601000001,161.37083010000015,161.85449790000007,161.85907280000015,161.8780643,162.47173050000015,,,,,162.4719301,162.4868034000001,162.6869663,162.67100210000012,161.8780643,,,,,,,,0,1,0.5851532000001498,None,,,,,,,,814,19,v,R,2026-02-25_11h16.37.327,VisualSearch_2526_3,,2025.2.4,2026-02-25 11h16.37.627876 +0100,
vertical.xlsx,The target is tilted.,135,55,7,6,0,1,1,1,1,1,1,1,0,0,0,0,1,7,8,135,space,5.903983999999809,None,0,1,0.7268758000000162,None,space,2.456255199999987,None,0,0,0,1,,,,,6,7,55,5,162.6869663,,,,,,,,,,,,,,,,,,,,,162.67182830000002,162.6869663,163.17069570000012,163.1752808000001,163.19437940000012,163.93698050000012,,,,,163.93710250000004,163.95361400000002,,164.13732320000008,163.19437940000012,,,,,,,,0,1,0.7268758000000162,None,,,,,,,,814,19,v,R,2026-02-25_11h16.37.327,VisualSearch_2526_3,,2025.2.4,2026-02-25 11h16.37.627876 +0100,
vertical.xlsx,The target is tilted.,135,56,0,7,1,0,0,0,0,0,0,0,0,0,0,0,0,0,1,135,space,5.903983999999809,None,1,1,0.5170837999999094,None,space,2.456255199999987,None,0,0,0,1,,,,,7,0,56,3,164.15367560000004,,,,,,,,,,,,,,,,,,,,,164.13808700000004,164.15367560000004,164.6371557,164.64174350000008,164.65731860000005,165.18678150000005,,,,,165.18690089999996,165.2033160000001,165.40333209999994,165.38661849999994,164.65731860000005,,,,,,,,1,1,0.5170837999999094,None,,,,,,,,814,19,v,R,2026-02-25_11h16.37.327,VisualSearch_2526_3,,2025.2.4,2026-02-25 11h16.37.627876 +0100,
vertical.xlsx,The target is tilted.,135,57,1,7,0,1,1,1,1,1,1,1,1,1,1,1,1,11,12,135,space,5.903983999999809,None,0,1,1.1532852000000275,None,space,2.456255199999987,None,0,0,0,1,,,,,7,1,57,4,165.40333209999994,,,,,,,,,,,,,,,,,,,,,165.38704580000012,165.40333209999994,165.88655240000003,165.88921240000013,165.90324280000004,167.07042969999998,,,,,167.07066710000004,167.08606830000008,167.28635559999998,167.27023410000015,165.90324280000004,,,,,,,,0,1,1.1532852000000275,None,,,,,,,,814,19,v,R,2026-02-25_11h16.37.327,VisualSearch_2526_3,,2025.2.4,2026-02-25 11h16.37.627876 +0100,
vertical.xlsx,The target is tilted.,135,58,2,7,0,1,1,1,1,1,1,1,0,0,0,0,1,7,8,135,space,5.903983999999809,None,0,1,0.918873099999928,None,space,2.456255199999987,None,0,0,0,1,,,,,7,2,58,5,167.28635559999998,,,,,,,,,,,,,,,,,,,,,167.27110850000008,167.28635559999998,167.77045350000003,167.77492600000005,167.7862407,168.72019790000013,,,,,168.72043350000013,168.7358667000001,168.93634700000007,168.9201633,167.7862407,,,,,,,,0,1,0.918873099999928,None,,,,,,,,814,19,v,R,2026-02-25_11h16.37.327,VisualSearch_2526_3,,2025.2.4,2026-02-25 11h16.37.627876 +0100,
vertical.xlsx,The target is tilted.,135,59,3,7,0,0,0,0,0,0,0,0,0,0,0,0,1,1,1,135,space,5.903983999999809,None,0,1,1.0469107999999778,None,space,2.456255199999987,None,0,0,0,1,,,,,7,3,59,7,168.93634700000007,,,,,,,,,,,,,,,,,,,,,168.9210081000001,168.93634700000007,169.42023340000014,169.42496110000002,169.4437359000001,170.50335210000003,,,,,170.50354919999995,170.51891840000008,170.71943540000007,170.70328240000003,169.4437359000001,,,,,,,,0,1,1.0469107999999778,None,,,,,,,,814,19,v,R,2026-02-25_11h16.37.327,VisualSearch_2526_3,,2025.2.4,2026-02-25 11h16.37.627876 +0100,
vertical.xlsx,The target is tilted.,135,60,4,7,1,1,1,1,0,0,0,0,0,0,0,0,0,3,4,135,space,5.903983999999809,None,1,1,0.6715566000000308,None,space,2.456255199999987,None,0,0,0,1,,,,,7,4,60,2,170.71943540000007,,,,,,,,,,,,,,,,,,,,,170.70404750000012,170.71943540000007,171.20319659999996,171.20771230000014,171.22648460000005,171.903636,,,,,171.9038657000001,171.91878769999994,172.11918730000002,172.10292900000013,171.22648460000005,,,,,,,,1,1,0.6715566000000308,None,,,,,,,,814,19,v,R,2026-02-25_11h16.37.327,VisualSearch_2526_3,,2025.2.4,2026-02-25 11h16.37.627876 +0100,
vertical.xlsx,The target is tilted.,135,61,5,7,0,1,1,1,0,0,0,0,0,0,0,0,1,3,4,135,space,5.903983999999809,None,0,1,0.7828359000000091,None,space,2.456255199999987,None,0,0,0,1,,,,,7,5,61,6,172.11918730000002,,,,,,,,,,,,,,,,,,,,,172.1037510000001,172.11918730000002,172.6031491000001,172.6079271000001,172.62635,173.42018329999996,,,,,173.4203814,173.435199,173.63576280000007,173.61945119999996,172.62635,,,,,,,,0,1,0.7828359000000091,None,,,,,,,,814,19,v,R,2026-02-25_11h16.37.327,VisualSearch_2526_3,,2025.2.4,2026-02-25 11h16.37.627876 +0100,
vertical.xlsx,The target is tilted.,135,62,6,7,1,1,1,1,1,1,1,1,0,0,0,0,0,7,8,135,space,5.903983999999809,None,1,1,1.1371601000000737,None,space,2.456255199999987,None,0,0,0,1,,,,,7,6,62,1,173.63576280000007,,,,,,,,,,,,,,,,,,,,,173.62017149999997,173.63576280000007,174.11947009999994,174.1240441,174.14313330000004,175.28649010000004,,,,,175.2866841,175.30136190000007,175.5021131000001,175.48598719999995,174.14313330000004,,,,,,,,1,1,1.1371601000000737,None,,,,,,,,814,19,v,R,2026-02-25_11h16.37.327,VisualSearch_2526_3,,2025.2.4,2026-02-25 11h16.37.627876 +0100,
vertical.xlsx,The target is tilted.,135,63,7,7,1,1,1,1,1,1,1,1,1,1,1,1,0,11,12,135,space,5.903983999999809,None,0,0,1.4891075000000455,None,space,2.456255199999987,None,0,0,0,1,,,,,7,7,63,0,175.5021131000001,,,,,,,,,,,,,,,,,,,,,175.48671050000007,175.5021131000001,175.98562119999997,175.9895712,176.00915899999995,177.50254289999998,,,,,177.50273579999998,177.51791730000014,177.7184463000001,177.70236969999996,176.00915899999995,,,,,,,,0,0,1.4891075000000455,None,,,,,,,,814,19,v,R,2026-02-25_11h16.37.327,VisualSearch_2526_3,,2025.2.4,2026-02-25 11h16.37.627876 +0100,
vertical.xlsx,The target is tilted.,135,64,0,8,1,1,1,1,1,1,1,1,0,0,0,0,0,7,8,135,space,5.903983999999809,None,0,0,1.171267600000192,None,space,2.456255199999987,None,0,0,0,1,,,,,8,0,64,1,177.7184463000001,,,,,,,,,,,,,,,,,,,,,177.70313469999996,177.7184463000001,178.20186609999996,178.20643829999995,178.22546970000008,179.40255560000014,,,,,179.4027661,179.41771590000008,179.61803450000002,179.60198020000007,178.22546970000008,,,,,,,,0,0,1.171267600000192,None,,,,,,,,814,19,v,R,2026-02-25_11h16.37.327,VisualSearch_2526_3,,2025.2.4,2026-02-25 11h16.37.627876 +0100,
vertical.xlsx,The target is tilted.,135,65,1,8,1,1,1,1,0,0,0,0,0,0,0,0,0,3,4,135,space,5.903983999999809,None,1,1,0.950836900000013,None,space,2.456255199999987,None,0,0,0,1,,,,,8,1,65,2,179.61803450000002,,,,,,,,,,,,,,,,,,,,,179.6027398000001,179.61803450000002,180.10210060000009,180.10725079999997,180.1261796000001,181.08571440000014,,,,,181.08591290000004,181.10080570000014,181.30131410000013,181.28514410000002,180.1261796000001,,,,,,,,1,1,0.950836900000013,None,,,,,,,,814,19,v,R,2026-02-25_11h16.37.327,VisualSearch_2526_3,,2025.2.4,2026-02-25 11h16.37.627876 +0100,
vertical.xlsx,The target is tilted.,135,66,2,8,0,1,1,1,1,1,1,1,0,0,0,0,1,7,8,135,space,5.903983999999809,None,0,1,1.4819115000000238,None,space,2.456255199999987,None,0,0,0,1,,,,,8,2,66,5,181.30131410000013,,,,,,,,,,,,,,,,,,,,,181.28586480000013,181.30131410000013,181.78454750000014,181.78905740000005,181.8077432,183.30257460000007,,,,,183.30278829999997,183.3169163,183.51743690000012,183.5013891000001,181.8077432,,,,,,,,0,1,1.4819115000000238,None,,,,,,,,814,19,v,R,2026-02-25_11h16.37.327,VisualSearch_2526_3,,2025.2.4,2026-02-25 11h16.37.627876 +0100,
vertical.xlsx,The target is tilted.,135,67,3,8,1,1,1,1,1,1,1,1,1,1,1,1,0,11,12,135,space,5.903983999999809,None,0,0,1.701608300000089,None,space,2.456255199999987,None,0,0,0,1,,,,,8,3,67,0,183.51743690000012,,,,,,,,,,,,,,,,,,,,,183.50214729999993,183.51743690000012,184.00145650000013,184.0061647,184.02651830000013,185.73487350000005,,,,,185.73507740000014,185.74989010000013,185.95056780000004,185.9344410000001,184.02651830000013,,,,,,,,0,0,1.701608300000089,None,,,,,,,,814,19,v,R,2026-02-25_11h16.37.327,VisualSearch_2526_3,,2025.2.4,2026-02-25 11h16.37.627876 +0100,
vertical.xlsx,The target is tilted.,135,68,4,8,1,0,0,0,0,0,0,0,0,0,0,0,0,0,1,135,space,5.903983999999809,None,1,1,0.5809864000000289,None,space,2.456255199999987,None,0,0,0,1,,,,,8,4,68,3,185.95056780000004,,,,,,,,,,,,,,,,,,,,,185.93521110000006,185.95056780000004,186.43446210000002,186.4390267000001,186.4579748000001,187.05090900000005,,,,,187.05113810000012,187.0665633000001,187.26682010000013,187.2509497000001,186.4579748000001,,,,,,,,1,1,0.5809864000000289,None,,,,,,,,814,19,v,R,2026-02-25_11h16.37.327,VisualSearch_2526_3,,2025.2.4,2026-02-25 11h16.37.627876 +0100,
vertical.xlsx,The target is tilted.,135,69,5,8,0,1,1,1,1,1,1,1,1,1,1,1,1,11,12,135,space,5.903983999999809,None,0,1,2.0589056999999684,None,space,2.456255199999987,None,0,0,0,1,,,,,8,5,69,4,187.26682010000013,,,,,,,,,,,,,,,,,,,,,187.25166790000003,187.26682010000013,187.7509454000001,187.755535,187.77448830000003,189.83442809999997,,,,,189.83464589999994,189.8495193000001,190.04994950000014,190.03370300000006,187.77448830000003,,,,,,,,0,1,2.0589056999999684,None,,,,,,,,814,19,v,R,2026-02-25_11h16.37.327,VisualSearch_2526_3,,2025.2.4,2026-02-25 11h16.37.627876 +0100,
vertical.xlsx,The target is tilted.,135,70,6,8,0,0,0,0,0,0,0,0,0,0,0,0,1,1,1,135,space,5.903983999999809,None,0,1,0.7259990000000016,None,space,2.456255199999987,None,0,0,0,1,,,,,8,6,70,7,190.04994950000014,,,,,,,,,,,,,,,,,,,,,190.0344344,190.04994950000014,190.53370229999996,190.53825340000003,190.55698040000016,191.28420299999993,,,,,191.28439270000013,191.29929689999994,191.4994074000001,191.48344610000004,190.55698040000016,,,,,,,,0,1,0.7259990000000016,None,,,,,,,,814,19,v,R,2026-02-25_11h16.37.327,VisualSearch_2526_3,,2025.2.4,2026-02-25 11h16.37.627876 +0100,
vertical.xlsx,The target is tilted.,135,71,7,8,0,1,1,1,0,0,0,0,0,0,0,0,1,3,4,135,space,5.903983999999809,None,0,1,0.8494242000001577,None,space,2.456255199999987,None,0,0,0,1,,,,,8,7,71,6,191.4994074000001,,,,,,,,,,,,,,,,,,,,,191.48419590000003,191.4994074000001,191.9837212,191.98821410000005,192.0070065,192.86710140000014,,,,,192.8673076,192.88224450000007,193.08295700000008,193.06689810000012,192.0070065,,,,,,,,0,1,0.8494242000001577,None,,,,,,,,814,19,v,R,2026-02-25_11h16.37.327,VisualSearch_2526_3,,2025.2.4,2026-02-25 11h16.37.627876 +0100,
vertical.xlsx,The target is tilted.,135,72,0,9,0,1,1,1,1,1,1,1,0,0,0,0,1,7,8,135,space,5.903983999999809,None,0,1,1.195158900000024,None,space,2.456255199999987,None,0,0,0,1,,,,,9,0,72,5,193.08295700000008,,,,,,,,,,,,,,,,,,,,,193.06761610000012,193.08295700000008,193.5667410000001,193.57143240000005,193.5903118000001,194.80002089999994,,,,,194.8002308,194.8155087,195.01606990000005,194.99941000000013,193.5903118000001,,,,,,,,0,1,1.195158900000024,None,,,,,,,,814,19,v,R,2026-02-25_11h16.37.327,VisualSearch_2526_3,,2025.2.4,2026-02-25 11h16.37.627876 +0100,
vertical.xlsx,The target is tilted.,135,73,1,9,1,1,1,1,0,0,0,0,0,0,0,0,0,3,4,135,space,5.903983999999809,None,1,1,0.6412586999999803,None,space,2.456255199999987,None,0,0,0,1,,,,,9,1,73,2,195.01606990000005,,,,,,,,,,,,,,,,,,,,,195.00013579999995,195.01606990000005,195.49944210000012,195.50396150000006,195.52279210000006,196.16674000000012,,,,,196.16694410000014,196.1820113000001,196.3824098,196.3662971000001,195.52279210000006,,,,,,,,1,1,0.6412586999999803,None,,,,,,,,814,19,v,R,2026-02-25_11h16.37.327,VisualSearch_2526_3,,2025.2.4,2026-02-25 11h16.37.627876 +0100,
vertical.xlsx,The target is tilted.,135,74,2,9,1,1,1,1,1,1,1,1,1,1,1,1,0,11,12,135,space,5.903983999999809,None,0,0,2.014021300000195,None,space,2.456255199999987,None,0,0,0,1,,,,,9,2,74,0,196.3824098,,,,,,,,,,,,,,,,,,,,,196.36703839999996,196.3824098,196.86626019999994,196.87083010000015,196.88941909999994,198.9159075,,,,,198.91613540000003,198.93157210000004,199.13177330000008,199.11592840000003,196.88941909999994,,,,,,,,0,0,2.014021300000195,None,,,,,,,,814,19,v,R,2026-02-25_11h16.37.327,VisualSearch_2526_3,,2025.2.4,2026-02-25 11h16.37.627876 +0100,
vertical.xlsx,The target is tilted.,135,75,3,9,1,0,0,0,0,0,0,0,0,0,0,0,0,0,1,135,space,5.903983999999809,None,1,1,0.5051047000001745,None,space,2.456255199999987,None,0,0,0,1,,,,,9,3,75,3,199.13177330000008,,,,,,,,,,,,,,,,,,,,,199.11665360000006,199.13177330000008,199.61591199999998,199.6204170000001,199.63925010000003,200.14957200000003,,,,,200.1497809,200.16473029999997,200.36523980000015,200.34859870000014,199.63925010000003,,,,,,,,1,1,0.5051047000001745,None,,,,,,,,814,19,v,R,2026-02-25_11h16.37.327,VisualSearch_2526_3,,2025.2.4,2026-02-25 11h16.37.627876 +0100,
vertical.xlsx,The target is tilted.,135,76,4,9,0,1,1,1,0,0,0,0,0,0,0,0,1,3,4,135,space,5.903983999999809,None,0,1,0.81990739999992,None,space,2.456255199999987,None,0,0,0,1,,,,,9,4,76,6,200.36523980000015,,,,,,,,,,,,,,,,,,,,,200.3493231,200.36523980000015,200.84896819999994,200.85335770000006,200.86503519999997,201.69823450000013,,,,,201.69835280000007,201.71477989999994,201.91462879999995,201.89867320000008,200.86503519999997,,,,,,,,0,1,0.81990739999992,None,,,,,,,,814,19,v,R,2026-02-25_11h16.37.327,VisualSearch_2526_3,,2025.2.4,2026-02-25 11h16.37.627876 +0100,
vertical.xlsx,The target is tilted.,135,77,5,9,0,0,0,0,0,0,0,0,0,0,0,0,1,1,1,135,space,5.903983999999809,None,0,1,0.8429075000001376,None,space,2.456255199999987,None,0,0,0,1,,,,,9,5,77,7,201.91462879999995,,,,,,,,,,,,,,,,,,,,,201.89947729999994,201.91462879999995,202.39863820000005,202.40316840000014,202.42117770000004,203.2654811,,,,,203.26567840000007,203.28095469999994,203.48145880000015,203.46489829999996,202.42117770000004,,,,,,,,0,1,0.8429075000001376,None,,,,,,,,814,19,v,R,2026-02-25_11h16.37.327,VisualSearch_2526_3,,2025.2.4,2026-02-25 11h16.37.627876 +0100,
vertical.xlsx,The target is tilted.,135,78,6,9,0,1,1,1,1,1,1,1,1,1,1,1,1,11,12,135,space,5.903983999999809,None,0,1,2.861653599999954,None,space,2.456255199999987,None,0,0,0,1,,,,,9,6,78,4,203.48145880000015,,,,,,,,,,,,,,,,,,,,,203.46563850000007,203.48145880000015,203.96500370000012,203.96951990000002,203.98851480000008,206.86422140000013,,,,,206.86433890000012,206.88069840000003,,207.0646925000001,203.98851480000008,,,,,,,,0,1,2.861653599999954,None,,,,,,,,814,19,v,R,2026-02-25_11h16.37.327,VisualSearch_2526_3,,2025.2.4,2026-02-25 11h16.37.627876 +0100,
vertical.xlsx,The target is tilted.,135,79,7,9,1,1,1,1,1,1,1,1,0,0,0,0,0,7,8,135,space,5.903983999999809,None,1,1,0.8627083999999741,None,space,2.456255199999987,None,0,0,0,1,,,,,9,7,79,1,207.08097109999994,,,,,,,,,,,,,,,,,,,,,207.065562,207.08097109999994,207.56461979999995,207.56938460000015,207.5878206,208.46400100000005,,,,,208.46412099999998,208.48050119999994,,208.66431669999997,,,,,,,,,1,1,0.8627083999999741,None,,,,,,,,814,19,v,R,2026-02-25_11h16.37.327,VisualSearch_2526_3,,2025.2.4,2026-02-25 11h16.37.627876 +0100,
vertical.xlsx,The target is tilted.,135,80,0,10,0,0,0,0,0,0,0,0,0,0,0,0,1,1,1,135,space,5.903983999999809,None,0,1,0.6048723999999766,None,space,2.456255199999987,None,0,0,0,1,,,,,10,0,80,7,208.68069179999998,,,,,,,,,,,,,,,,,,,,,208.66506460000005,208.68069179999998,209.1643199,209.16895820000013,209.18794530000014,209.79815540000004,,,,,209.79838310000014,209.81335760000002,210.01389270000004,209.99751089999995,,,,,,,,,0,1,0.6048723999999766,None,,,,,,,,814,19,v,R,2026-02-25_11h16.37.327,VisualSearch_2526_3,,2025.2.4,2026-02-25 11h16.37.627876 +0100,
vertical.xlsx,The target is tilted.,135,81,1,10,1,1,1,1,0,0,0,0,0,0,0,0,0,3,4,135,space,5.903983999999809,None,1,1,1.1513976999999613,None,space,2.456255199999987,None,0,0,0,1,,,,,10,1,81,2,210.01389270000004,,,,,,,,,,,,,,,,,,,,,209.99824910000007,210.01389270000004,210.49724880000008,210.5009503000001,210.51316470000006,211.68036410000013,,,,,211.6805088000001,211.69629650000002,,211.88063680000005,210.51316470000006,,,,,,,,1,1,1.1513976999999613,None,,,,,,,,814,19,v,R,2026-02-25_11h16.37.327,VisualSearch_2526_3,,2025.2.4,2026-02-25 11h16.37.627876 +0100,
vertical.xlsx,The target is tilted.,135,82,2,10,1,1,1,1,1,1,1,1,1,1,1,1,0,11,12,135,space,5.903983999999809,None,1,1,1.4085139999999683,None,space,2.456255199999987,None,0,0,0,1,,,,,10,2,82,0,211.89653010000006,,,,,,,,,,,,,,,,,,,,,211.88150489999998,211.89653010000006,212.38032739999994,212.3849401,212.40371840000012,213.81400899999994,,,,,213.8142236000001,213.82942100000014,214.02987120000012,214.01361659999998,212.40371840000012,,,,,,,,1,1,1.4085139999999683,None,,,,,,,,814,19,v,R,2026-02-25_11h16.37.327,VisualSearch_2526_3,,2025.2.4,2026-02-25 11h16.37.627876 +0100,
vertical.xlsx,The target is tilted.,135,83,3,10,0,1,1,1,0,0,0,0,0,0,0,0,1,3,4,135,space,5.903983999999809,None,0,1,1.445046899999852,None,space,2.456255199999987,None,0,0,0,1,,,,,10,3,83,6,214.02987120000012,,,,,,,,,,,,,,,,,,,,,214.01447840000014,214.02987120000012,214.51377619999994,214.51867579999998,214.5373747000001,215.99676470000009,,,,,215.9969708000001,216.0124707,216.2130012,216.1967955,214.5373747000001,,,,,,,,0,1,1.445046899999852,None,,,,,,,,814,19,v,R,2026-02-25_11h16.37.327,VisualSearch_2526_3,,2025.2.4,2026-02-25 11h16.37.627876 +0100,
vertical.xlsx,The target is tilted.,135,84,4,10,0,1,1,1,1,1,1,1,0,0,0,0,1,7,8,135,space,5.903983999999809,None,0,1,2.656554299999925,None,space,2.456255199999987,None,0,0,0,1,,,,,10,4,84,5,216.2130012,,,,,,,,,,,,,,,,,,,,,216.19754740000008,216.2130012,216.69695530000013,216.7019183,216.7207264000001,219.38025340000013,,,,,219.38045140000008,219.39576950000014,219.59578050000005,219.57955450000009,216.7207264000001,,,,,,,,0,1,2.656554299999925,None,,,,,,,,814,19,v,R,2026-02-25_11h16.37.327,VisualSearch_2526_3,,2025.2.4,2026-02-25 11h16.37.627876 +0100,
vertical.xlsx,The target is tilted.,135,85,5,10,0,1,1,1,1,1,1,1,1,1,1,1,1,11,12,135,space,5.903983999999809,None,0,1,2.261253399999987,None,space,2.456255199999987,None,0,0,0,1,,,,,10,5,85,4,219.59578050000005,,,,,,,,,,,,,,,,,,,,,219.58030210000015,219.59578050000005,220.07958510000003,220.08411790000014,220.10302539999998,222.37984110000002,,,,,222.3800364000001,222.39535750000005,222.59534600000006,222.5791667000001,220.10302539999998,,,,,,,,0,1,2.261253399999987,None,,,,,,,,814,19,v,R,2026-02-25_11h16.37.327,VisualSearch_2526_3,,2025.2.4,2026-02-25 11h16.37.627876 +0100,
vertical.xlsx,The target is tilted.,135,86,6,10,1,0,0,0,0,0,0,0,0,0,0,0,0,0,1,135,space,5.903983999999809,None,1,1,0.6169259000000693,None,space,2.456255199999987,None,0,0,0,1,,,,,10,6,86,3,222.59534600000006,,,,,,,,,,,,,,,,,,,,,222.57991860000016,222.59534600000006,223.07878170000004,223.08326839999995,223.10224289999996,223.72934370000007,,,,,223.7295365,223.7448207,223.94519209999999,223.92879670000002,223.10224289999996,,,,,,,,1,1,0.6169259000000693,None,,,,,,,,814,19,v,R,2026-02-25_11h16.37.327,VisualSearch_2526_3,,2025.2.4,2026-02-25 11h16.37.627876 +0100,
vertical.xlsx,The target is tilted.,135,87,7,10,1,1,1,1,1,1,1,1,0,0,0,0,0,7,8,135,space,5.903983999999809,None,1,1,1.2569845000000441,None,space,2.456255199999987,None,0,0,0,1,,,,,10,7,87,1,223.94519209999999,,,,,,,,,,,,,,,,,,,,,223.9296412000001,223.94519209999999,224.42896940000014,224.43348030000016,224.45237569999995,225.71261389999995,,,,,225.71280990000014,225.7278682000001,225.92818260000013,225.91205370000011,224.45237569999995,,,,,,,,1,1,1.2569845000000441,None,,,,,,,,814,19,v,R,2026-02-25_11h16.37.327,VisualSearch_2526_3,,2025.2.4,2026-02-25 11h16.37.627876 +0100,
vertical.xlsx,The target is tilted.,135,88,0,11,1,0,0,0,0,0,0,0,0,0,0,0,0,0,1,135,space,5.903983999999809,None,1,1,0.7942031000000043,None,space,2.456255199999987,None,0,0,0,1,,,,,11,0,88,3,225.92818260000013,,,,,,,,,,,,,,,,,,,,,225.91288050000003,225.92818260000013,226.41164730000014,226.41427950000002,226.43162080000002,227.22909690000006,,,,,227.2292884000001,227.2446801000001,227.444025,227.42840560000013,226.43162080000002,,,,,,,,1,1,0.7942031000000043,None,,,,,,,,814,19,v,R,2026-02-25_11h16.37.327,VisualSearch_2526_3,,2025.2.4,2026-02-25 11h16.37.627876 +0100,
vertical.xlsx,The target is tilted.,135,89,1,11,0,0,0,0,0,0,0,0,0,0,0,0,1,1,1,135,space,5.903983999999809,None,0,1,0.5785986999999295,None,space,2.456255199999987,None,0,0,0,1,,,,,11,1,89,7,227.444025,,,,,,,,,,,,,,,,,,,,,227.4291773,227.444025,227.9284024000001,227.93285390000005,227.95109539999999,228.54564419999997,,,,,228.54584130000012,228.5613456000001,228.7611968000001,228.7451165,227.95109539999999,,,,,,,,0,1,0.5785986999999295,None,,,,,,,,814,19,v,R,2026-02-25_11h16.37.327,VisualSearch_2526_3,,2025.2.4,2026-02-25 11h16.37.627876 +0100,
vertical.xlsx,The target is tilted.,135,90,2,11,0,1,1,1,0,0,0,0,0,0,0,0,1,3,4,135,space,5.903983999999809,None,0,1,2.59396629999992,None,space,2.456255199999987,None,0,0,0,1,,,,,11,2,90,6,228.7611968000001,,,,,,,,,,,,,,,,,,,,,228.74596410000004,228.7611968000001,229.24478139999997,229.24927130000015,229.26808589999996,231.87834769999995,,,,,231.87854300000004,231.89392109999994,232.09407620000002,232.0778689000001,229.26808589999996,,,,,,,,0,1,2.59396629999992,None,,,,,,,,814,19,v,R,2026-02-25_11h16.37.327,VisualSearch_2526_3,,2025.2.4,2026-02-25 11h16.37.627876 +0100,
vertical.xlsx,The target is tilted.,135,91,3,11,0,1,1,1,1,1,1,1,1,1,1,1,1,11,12,135,space,5.903983999999809,None,0,1,1.7956662999999935,None,space,2.456255199999987,None,0,0,0,1,,,,,11,3,91,4,232.09407620000002,,,,,,,,,,,,,,,,,,,,,232.07870550000007,232.09407620000002,232.57749760000002,232.58241150000003,232.60119559999998,234.41147620000015,,,,,234.41167340000015,234.42694030000007,234.62689550000005,234.61105510000016,232.60119559999998,,,,,,,,0,1,1.7956662999999935,None,,,,,,,,814,19,v,R,2026-02-25_11h16.37.327,VisualSearch_2526_3,,2025.2.4,2026-02-25 11h16.37.627876 +0100,
vertical.xlsx,The target is tilted.,135,92,4,11,0,1,1,1,1,1,1,1,0,0,0,0,1,7,8,135,space,5.903983999999809,None,0,1,1.50576030000002,None,space,2.456255199999987,None,0,0,0,1,,,,,11,4,92,5,234.62689550000005,,,,,,,,,,,,,,,,,,,,,234.61194850000015,234.62689550000005,235.11099420000005,235.11589040000013,235.13501580000002,236.64408900000012,,,,,236.6442830000001,236.65995739999994,236.8597764000001,236.84407090000013,235.13501580000002,,,,,,,,0,1,1.50576030000002,None,,,,,,,,814,19,v,R,2026-02-25_11h16.37.327,VisualSearch_2526_3,,2025.2.4,2026-02-25 11h16.37.627876 +0100,
vertical.xlsx,The target is tilted.,135,93,5,11,1,1,1,1,0,0,0,0,0,0,0,0,0,3,4,135,space,5.903983999999809,None,1,1,0.6308125000000473,None,space,2.456255199999987,None,0,0,0,1,,,,,11,5,93,2,236.8597764000001,,,,,,,,,,,,,,,,,,,,,236.84486860000015,236.8597764000001,237.34388420000005,237.34870360000014,237.36751670000012,238.01090169999998,,,,,238.01110029999995,238.02637630000004,238.22622620000016,238.21035510000002,237.36751670000012,,,,,,,,1,1,0.6308125000000473,None,,,,,,,,814,19,v,R,2026-02-25_11h16.37.327,VisualSearch_2526_3,,2025.2.4,2026-02-25 11h16.37.627876 +0100,
vertical.xlsx,The target is tilted.,135,94,6,11,1,1,1,1,1,1,1,1,1,1,1,1,0,11,12,135,space,5.903983999999809,None,1,1,2.2314437,None,space,2.456255199999987,None,0,0,0,1,,,,,11,6,94,0,238.22622620000016,,,,,,,,,,,,,,,,,,,,,238.21107589999997,238.22622620000016,238.7101328000001,238.71466150000015,238.73358480000002,240.97683440000014,,,,,240.97703049999996,240.99258400000008,241.19266310000012,241.17671970000015,238.73358480000002,,,,,,,,1,1,2.2314437,None,,,,,,,,814,19,v,R,2026-02-25_11h16.37.327,VisualSearch_2526_3,,2025.2.4,2026-02-25 11h16.37.627876 +0100,
vertical.xlsx,The target is tilted.,135,95,7,11,1,1,1,1,1,1,1,1,0,0,0,0,0,7,8,135,space,5.903983999999809,None,1,1,2.1035259000000224,None,space,2.456255199999987,None,0,0,0,1,,,,,11,7,95,1,241.19266310000012,,,,,,,,,,,,,,,,,,,,,241.17752070000006,241.19266310000012,241.67643910000015,241.6809204000001,241.70048080000015,243.81005649999997,,,,,243.81024939999998,243.82556909999994,244.0257097000001,244.0094630000001,241.70048080000015,,,,,,,,1,1,2.1035259000000224,None,,,,,,,,814,19,v,R,2026-02-25_11h16.37.327,VisualSearch_2526_3,,2025.2.4,2026-02-25 11h16.37.627876 +0100,
vertical.xlsx,The target is tilted.,135,96,0,12,0,1,1,1,0,0,0,0,0,0,0,0,1,3,4,135,space,5.903983999999809,None,0,1,1.0050346000000445,None,space,2.456255199999987,None,0,0,0,1,,,,,12,0,96,6,244.0257097000001,,,,,,,,,,,,,,,,,,,,,244.01024819999998,244.0257097000001,244.50936720000004,244.5138766,244.53181360000008,245.5431347000001,,,,,245.5433270000001,245.5586241000001,245.75878669999997,245.74272240000005,244.53181360000008,,,,,,,,0,1,1.0050346000000445,None,,,,,,,,814,19,v,R,2026-02-25_11h16.37.327,VisualSearch_2526_3,,2025.2.4,2026-02-25 11h16.37.627876 +0100,
vertical.xlsx,The target is tilted.,135,97,1,12,1,1,1,1,1,1,1,1,0,0,0,0,0,7,8,135,space,5.903983999999809,None,1,1,1.3801386999998613,None,space,2.456255199999987,None,0,0,0,1,,,,,12,1,97,1,245.75878669999997,,,,,,,,,,,,,,,,,,,,,245.74352210000006,245.75878669999997,246.2426021000001,246.24709559999997,246.26592529999994,247.65961590000006,,,,,247.65980990000003,247.67474560000005,247.8752383000001,247.8589320000001,246.26592529999994,,,,,,,,1,1,1.3801386999998613,None,,,,,,,,814,19,v,R,2026-02-25_11h16.37.327,VisualSearch_2526_3,,2025.2.4,2026-02-25 11h16.37.627876 +0100,
vertical.xlsx,The target is tilted.,135,98,2,12,1,1,1,1,1,1,1,1,1,1,1,1,0,11,12,135,space,5.903983999999809,None,0,0,1.9740759999999682,None,space,2.456255199999987,None,0,0,0,1,,,,,12,2,98,0,247.8752383000001,,,,,,,,,,,,,,,,,,,,,247.85973890000014,247.8752383000001,248.3589082000001,248.36372559999995,248.38184219999994,250.35916610000004,,,,,250.35935910000012,250.37473679999994,250.5747745000001,250.55850439999995,248.38184219999994,,,,,,,,0,0,1.9740759999999682,None,,,,,,,,814,19,v,R,2026-02-25_11h16.37.327,VisualSearch_2526_3,,2025.2.4,2026-02-25 11h16.37.627876 +0100,
vertical.xlsx,The target is tilted.,135,99,3,12,1,1,1,1,0,0,0,0,0,0,0,0,0,3,4,135,space,5.903983999999809,None,1,1,0.5769831000000067,None,space,2.456255199999987,None,0,0,0,1,,,,,12,3,99,2,250.5747745000001,,,,,,,,,,,,,,,,,,,,,250.55927850000012,250.5747745000001,251.05841699999996,251.06296829999997,251.0817869,251.67568240000014,,,,,251.67587780000008,251.69117690000007,251.89105429999995,251.8745861,251.0817869,,,,,,,,1,1,0.5769831000000067,None,,,,,,,,814,19,v,R,2026-02-25_11h16.37.327,VisualSearch_2526_3,,2025.2.4,2026-02-25 11h16.37.627876 +0100,
vertical.xlsx,The target is tilted.,135,100,4,12,0,0,0,0,0,0,0,0,0,0,0,0,1,1,1,135,space,5.903983999999809,None,0,1,0.678985700000112,None,space,2.456255199999987,None,0,0,0,1,,,,,12,4,100,7,251.89105429999995,,,,,,,,,,,,,,,,,,,,,251.87501070000008,251.89105429999995,252.37463249999996,252.37760270000012,252.39066189999994,253.0754154000001,,,,,253.07561299999998,253.09074839999994,253.29103669999995,253.27487799999994,252.39066189999994,,,,,,,,0,1,0.678985700000112,None,,,,,,,,814,19,v,R,2026-02-25_11h16.37.327,VisualSearch_2526_3,,2025.2.4,2026-02-25 11h16.37.627876 +0100,
vertical.xlsx,The target is tilted.,135,101,5,12,0,1,1,1,1,1,1,1,0,0,0,0,1,7,8,135,space,5.903983999999809,None,0,1,1.481870699999945,None,space,2.456255199999987,None,0,0,0,1,,,,,12,5,101,5,253.29103669999995,,,,,,,,,,,,,,,,,,,,,253.27560340000014,253.29103669999995,253.77475980000008,253.77942340000004,253.79831620000004,255.29079810000007,,,,,255.29091859999994,255.30715929999997,255.50724979999995,255.4911015,253.79831620000004,,,,,,,,0,1,1.481870699999945,None,,,,,,,,814,19,v,R,2026-02-25_11h16.37.327,VisualSearch_2526_3,,2025.2.4,2026-02-25 11h16.37.627876 +0100,
vertical.xlsx,The target is tilted.,135,102,6,12,0,1,1,1,1,1,1,1,1,1,1,1,1,11,12,135,space,5.903983999999809,None,0,1,2.242866000000049,None,space,2.456255199999987,None,0,0,0,1,,,,,12,6,102,4,255.50724979999995,,,,,,,,,,,,,,,,,,,,,255.4919847000001,255.50724979999995,255.99106700000016,255.99558660000002,256.0149917000001,258.27474699999993,,,,,258.27493890000005,258.29020590000005,258.4902376,258.4740111000001,256.0149917000001,,,,,,,,0,1,2.242866000000049,None,,,,,,,,814,19,v,R,2026-02-25_11h16.37.327,VisualSearch_2526_3,,2025.2.4,2026-02-25 11h16.37.627876 +0100,
vertical.xlsx,The target is tilted.,135,103,7,12,1,0,0,0,0,0,0,0,0,0,0,0,0,0,1,135,space,5.903983999999809,None,1,1,0.5440107999997963,None,space,2.456255199999987,None,0,0,0,1,,,,,12,7,103,3,258.4902376,,,,,,,,,,,,,,,,,,,,,258.47474650000004,258.4902376,258.97401349999996,258.97838120000006,258.9900196000001,259.54118960000005,,,,,259.54138579999994,259.5563594,259.7565128000001,259.7407743000001,258.9900196000001,,,,,,,,1,1,0.5440107999997963,None,,,,,,,,814,19,v,R,2026-02-25_11h16.37.327,VisualSearch_2526_3,,2025.2.4,2026-02-25 11h16.37.627876 +0100,
vertical.xlsx,The target is tilted.,135,104,0,13,0,1,1,1,1,1,1,1,1,1,1,1,1,11,12,135,space,5.903983999999809,None,0,1,1.1937631999999212,None,space,2.456255199999987,None,0,0,0,1,,,,,13,0,104,4,259.7565128000001,,,,,,,,,,,,,,,,,,,,,259.74156259999995,259.7565128000001,260.2403733000001,260.24529929999994,260.2604639000001,261.45728180000015,,,,,261.4574414000001,261.4731935,261.6728902,261.6567132,260.2604639000001,,,,,,,,0,1,1.1937631999999212,None,,,,,,,,814,19,v,R,2026-02-25_11h16.37.327,VisualSearch_2526_3,,2025.2.4,2026-02-25 11h16.37.627876 +0100,
vertical.xlsx,The target is tilted.,135,105,1,13,0,1,1,1,0,0,0,0,0,0,0,0,1,3,4,135,space,5.903983999999809,None,0,1,1.2035871999999017,None,space,2.456255199999987,None,0,0,0,1,,,,,13,1,105,6,261.6728902,,,,,,,,,,,,,,,,,,,,,261.6574785,261.6728902,262.15722170000004,262.1618005,262.1729666000001,263.39066890000004,,,,,263.39087500000005,263.4060749,263.6062561000001,263.5900058,262.1729666000001,,,,,,,,0,1,1.2035871999999017,None,,,,,,,,814,19,v,R,2026-02-25_11h16.37.327,VisualSearch_2526_3,,2025.2.4,2026-02-25 11h16.37.627876 +0100,
vertical.xlsx,The target is tilted.,135,106,2,13,0,0,0,0,0,0,0,0,0,0,0,0,1,1,1,135,space,5.903983999999809,None,0,1,0.6170861000000514,None,space,2.456255199999987,None,0,0,0,1,,,,,13,2,106,7,263.6062561000001,,,,,,,,,,,,,,,,,,,,,263.5907704000001,263.6062561000001,264.0893972000001,264.09261919999994,264.1066813,264.74010339999995,,,,,264.74030140000013,264.7559933,264.95549870000013,264.94004100000006,264.1066813,,,,,,,,0,1,0.6170861000000514,None,,,,,,,,814,19,v,R,2026-02-25_11h16.37.327,VisualSearch_2526_3,,2025.2.4,2026-02-25 11h16.37.627876 +0100,
vertical.xlsx,The target is tilted.,135,107,3,13,0,1,1,1,1,1,1,1,0,0,0,0,1,7,8,135,space,5.903983999999809,None,0,1,1.2641217000000324,None,space,2.456255199999987,None,0,0,0,1,,,,,13,3,107,5,264.95549870000013,,,,,,,,,,,,,,,,,,,,,264.94083969999997,264.95549870000013,265.43969190000007,265.4441941,265.46299939999994,266.7399341,,,,,266.7401305000001,266.7556952,266.9557486000001,266.9394434000001,265.46299939999994,,,,,,,,0,1,1.2641217000000324,None,,,,,,,,814,19,v,R,2026-02-25_11h16.37.327,VisualSearch_2526_3,,2025.2.4,2026-02-25 11h16.37.627876 +0100,
vertical.xlsx,The target is tilted.,135,108,4,13,1,1,1,1,1,1,1,1,0,0,0,0,0,7,8,135,space,5.903983999999809,None,0,0,1.515628099999958,None,space,2.456255199999987,None,0,0,0,1,,,,,13,4,108,1,266.9557486000001,,,,,,,,,,,,,,,,,,,,,266.94019320000007,266.9557486000001,267.43961949999994,267.4443305,267.4623305,268.98985229999994,,,,,268.99004289999993,269.00542070000006,269.20530640000015,269.18942370000013,267.4623305,,,,,,,,0,0,1.515628099999958,None,,,,,,,,814,19,v,R,2026-02-25_11h16.37.327,VisualSearch_2526_3,,2025.2.4,2026-02-25 11h16.37.627876 +0100,
vertical.xlsx,The target is tilted.,135,109,5,13,1,1,1,1,1,1,1,1,1,1,1,1,0,11,12,135,space,5.903983999999809,None,1,1,1.2198315000000548,None,space,2.456255199999987,None,0,0,0,1,,,,,13,5,109,0,269.20530640000015,,,,,,,,,,,,,,,,,,,,,269.19024860000013,269.20530640000015,269.6893619,269.6941583,269.7129963,270.93944020000004,,,,,270.9396335000001,270.95506109999997,271.1548296000001,271.1387889,269.7129963,,,,,,,,1,1,1.2198315000000548,None,,,,,,,,814,19,v,R,2026-02-25_11h16.37.327,VisualSearch_2526_3,,2025.2.4,2026-02-25 11h16.37.627876 +0100,
vertical.xlsx,The target is tilted.,135,110,6,13,1,1,1,1,0,0,0,0,0,0,0,0,0,3,4,135,space,5.903983999999809,None,1,1,0.7227964999999585,None,space,2.456255199999987,None,0,0,0,1,,,,,13,6,110,2,271.1548296000001,,,,,,,,,,,,,,,,,,,,,271.13959079999995,271.1548296000001,271.6387492000001,271.6432161,271.6585291000001,272.38902729999995,,,,,272.38922120000007,272.40480419999994,272.60492509999995,272.5886967000001,271.6585291000001,,,,,,,,1,1,0.7227964999999585,None,,,,,,,,814,19,v,R,2026-02-25_11h16.37.327,VisualSearch_2526_3,,2025.2.4,2026-02-25 11h16.37.627876 +0100,
vertical.xlsx,The target is tilted.,135,111,7,13,1,0,0,0,0,0,0,0,0,0,0,0,0,0,1,135,space,5.903983999999809,None,1,1,0.5462244000000283,None,space,2.456255199999987,None,0,0,0,1,,,,,13,7,111,3,272.60492509999995,,,,,,,,,,,,,,,,,,,,,272.58942419999994,272.60492509999995,273.08858269999996,273.09352890000014,273.1116879000001,273.6725421000001,,,,,273.6727406,273.68795939999995,273.8879466000001,273.8718851000001,273.1116879000001,,,,,,,,1,1,0.5462244000000283,None,,,,,,,,814,19,v,R,2026-02-25_11h16.37.327,VisualSearch_2526_3,,2025.2.4,2026-02-25 11h16.37.627876 +0100,
vertical.xlsx,The target is tilted.,135,112,0,14,1,0,0,0,0,0,0,0,0,0,0,0,0,0,1,135,space,5.903983999999809,None,1,1,0.4650727000000643,None,space,2.456255199999987,None,0,0,0,1,,,,,14,0,112,3,273.8879466000001,,,,,,,,,,,,,,,,,,,,,273.87263329999996,273.8879466000001,274.37186900000006,274.3764042,274.39536969999995,274.8724076000001,,,,,274.87260330000004,274.8877701000001,275.08773010000004,275.07153900000003,274.39536969999995,,,,,,,,1,1,0.4650727000000643,None,,,,,,,,814,19,v,R,2026-02-25_11h16.37.327,VisualSearch_2526_3,,2025.2.4,2026-02-25 11h16.37.627876 +0100,
vertical.xlsx,The target is tilted.,135,113,1,14,0,0,0,0,0,0,0,0,0,0,0,0,1,1,1,135,space,5.903983999999809,None,1,0,0.3825782999999774,None,space,2.456255199999987,None,0,0,0,1,,,,,14,1,113,7,275.08773010000004,,,,,,,,,,,,,,,,,,,,,275.07236379999995,275.08773010000004,275.5718071000001,275.57652180000014,275.59455560000015,275.9888211,,,,,275.98901810000007,276.00407440000004,276.20421639999995,276.188165,275.59455560000015,,,,,,,,1,0,0.3825782999999774,None,,,,,,,,814,19,v,R,2026-02-25_11h16.37.327,VisualSearch_2526_3,,2025.2.4,2026-02-25 11h16.37.627876 +0100,
vertical.xlsx,The target is tilted.,135,114,2,14,1,1,1,1,1,1,1,1,1,1,1,1,0,11,12,135,space,5.903983999999809,None,0,0,2.461166599999842,None,space,2.456255199999987,None,0,0,0,1,,,,,14,2,114,0,276.20421639999995,,,,,,,,,,,,,,,,,,,,,276.1890747,276.20421639999995,276.6878750000001,276.69158500000003,276.7096143000001,279.18824689999997,,,,,279.18846640000015,279.2040167,279.40376390000006,279.3871974000001,276.7096143000001,,,,,,,,0,0,2.461166599999842,None,,,,,,,,814,19,v,R,2026-02-25_11h16.37.327,VisualSearch_2526_3,,2025.2.4,2026-02-25 11h16.37.627876 +0100,
vertical.xlsx,The target is tilted.,135,115,3,14,0,1,1,1,1,1,1,1,0,0,0,0,1,7,8,135,space,5.903983999999809,None,0,1,1.3313447000000451,None,space,2.456255199999987,None,0,0,0,1,,,,,14,3,115,5,279.40376390000006,,,,,,,,,,,,,,,,,,,,,279.38762799999995,279.40376390000006,279.88743810000005,279.89194900000007,279.910899,281.25473350000016,,,,,281.25492669999994,281.2703205,281.4699994,281.4542719000001,279.910899,,,,,,,,0,1,1.3313447000000451,None,,,,,,,,814,19,v,R,2026-02-25_11h16.37.327,VisualSearch_2526_3,,2025.2.4,2026-02-25 11h16.37.627876 +0100,
vertical.xlsx,The target is tilted.,135,116,4,14,1,1,1,1,0,0,0,0,0,0,0,0,0,3,4,135,space,5.903983999999809,None,1,1,1.2472649999999703,None,space,2.456255199999987,None,0,0,0,1,,,,,14,4,116,2,281.4699994,,,,,,,,,,,,,,,,,,,,,281.45509059999995,281.4699994,281.95389820000014,281.9583901000001,281.97682080000004,283.23753780000015,,,,,283.2377308,283.25337890000014,283.45305010000015,283.4368637,281.97682080000004,,,,,,,,1,1,1.2472649999999703,None,,,,,,,,814,19,v,R,2026-02-25_11h16.37.327,VisualSearch_2526_3,,2025.2.4,2026-02-25 11h16.37.627876 +0100,
vertical.xlsx,The target is tilted.,135,117,5,14,0,1,1,1,0,0,0,0,0,0,0,0,1,3,4,135,space,5.903983999999809,None,0,1,1.097855399999844,None,space,2.456255199999987,None,0,0,0,1,,,,,14,5,117,6,283.45305010000015,,,,,,,,,,,,,,,,,,,,,283.4376221,283.45305010000015,283.9366235,283.9410233000001,283.95903109999995,285.07079620000013,,,,,285.0709958,285.0860831,285.28618640000013,285.2702752,283.95903109999995,,,,,,,,0,1,1.097855399999844,None,,,,,,,,814,19,v,R,2026-02-25_11h16.37.327,VisualSearch_2526_3,,2025.2.4,2026-02-25 11h16.37.627876 +0100,
vertical.xlsx,The target is tilted.,135,118,6,14,1,1,1,1,1,1,1,1,0,0,0,0,0,7,8,135,space,5.903983999999809,None,0,0,1.8533539999998538,None,space,2.456255199999987,None,0,0,0,1,,,,,14,6,118,1,285.28618640000013,,,,,,,,,,,,,,,,,,,,,285.27101689999995,285.28618640000013,285.7697266,285.7742564,285.7932344000001,287.65319150000005,,,,,287.6532883,287.6687647000001,287.8687576,287.8534472000001,285.7932344000001,,,,,,,,0,0,1.8533539999998538,None,,,,,,,,814,19,v,R,2026-02-25_11h16.37.327,VisualSearch_2526_3,,2025.2.4,2026-02-25 11h16.37.627876 +0100,
vertical.xlsx,The target is tilted.,135,119,7,14,0,1,1,1,1,1,1,1,1,1,1,1,1,11,12,135,space,5.903983999999809,None,0,1,2.5575776000000587,None,space,2.456255199999987,None,0,0,0,1,,,,,14,7,119,4,287.8687576,,,,,,,,,,,,,,,,,,,,,287.8542517000001,287.8687576,288.35321509999994,288.3576587,288.3766687,290.93626960000006,,,,,290.93643080000015,290.95228769999994,291.1735513000001,291.13618910000014,288.3766687,,,,,,,,0,1,2.5575776000000587,None,,,,,,,,814,19,v,R,2026-02-25_11h16.37.327,VisualSearch_2526_3,,2025.2.4,2026-02-25 11h16.37.627876 +0100,
vertical.xlsx,The target is tilted.,135,0,0,0,,,,,,,,,,,,,,,,,space,5.903983999999809,None,,,,,space,2.456255199999987,None,0,0,0,1,,,,,,,,,,,,,,,,,,,,,,,,,,,,,,,,,,,,,,,,,,,,,,,,,,,,,,,,,,,,,,,814,19,v,R,2026-02-25_11h16.37.327,VisualSearch_2526_3,,2025.2.4,2026-02-25 11h16.37.627876 +0100,
tilted.xlsx,The target is tilted.,117,0,0,0,1,1,1,1,0,0,0,0,0,0,0,0,0,3,4,117,space,5.163665200000196,None,0,0,2.321293100000048,None,,,,0,1,1,0,0,0,0,2,,,,,296.38832530000013,,,,,,,,,,,,,,,291.1735513000001,291.1735513000001,291.1735513000001,space,5.163665200000196,None,296.3840367,296.38832530000013,296.8683645000001,296.87276040000006,296.89078300000006,299.21884950000003,0,0,2.321293100000048,None,299.21906179999996,299.23410650000005,299.4341455000001,299.4181937000001,,,,,,,,,,,,,,,,,,,,814,19,v,R,2026-02-25_11h16.37.327,VisualSearch_2526_3,,2025.2.4,2026-02-25 11h16.37.627876 +0100,
tilted.xlsx,The target is tilted.,117,1,1,0,0,1,1,1,1,1,1,1,1,1,1,1,1,11,12,117,space,5.163665200000196,None,0,1,4.215799000000061,None,,,,0,1,1,0,0,1,1,4,,,,,299.4341455000001,,,,,,,,,,,,,,,,,,,,,299.41894260000004,299.4341455000001,299.9180999,299.92270970000004,299.94146279999995,304.16780270000004,0,1,4.215799000000061,None,304.16800880000005,304.18360140000004,304.3836982,304.36721349999993,299.94146279999995,,,,,,,,,,,,,,,,,,,814,19,v,R,2026-02-25_11h16.37.327,VisualSearch_2526_3,,2025.2.4,2026-02-25 11h16.37.627876 +0100,
tilted.xlsx,The target is tilted.,117,2,2,0,0,0,0,0,0,0,0,0,0,0,0,0,1,1,1,117,space,5.163665200000196,None,0,1,2.7483521999999994,None,,,,0,1,1,0,0,2,2,7,,,,,304.3836982,,,,,,,,,,,,,,,,,,,,,304.3678916000001,304.3836982,304.86714440000014,304.87172439999995,304.8903395,307.6510257,0,1,2.7483521999999994,None,307.65122110000016,307.66618730000005,307.8663338000001,307.8503568000001,304.8903395,,,,,,,,,,,,,,,,,,,814,19,v,R,2026-02-25_11h16.37.327,VisualSearch_2526_3,,2025.2.4,2026-02-25 11h16.37.627876 +0100,
tilted.xlsx,The target is tilted.,117,3,3,0,1,1,1,1,1,1,1,1,0,0,0,0,0,7,8,117,space,5.163665200000196,None,1,1,2.437604300000203,None,,,,0,1,1,0,0,3,3,1,,,,,307.8663338000001,,,,,,,,,,,,,,,,,,,,,307.8510593000001,307.8663338000001,308.3502608000001,308.354875,308.3741345000001,310.8176455,1,1,2.437604300000203,None,310.8178474000001,310.8326535000001,311.03281170000014,311.01664759999994,308.3741345000001,,,,,,,,,,,,,,,,,,,814,19,v,R,2026-02-25_11h16.37.327,VisualSearch_2526_3,,2025.2.4,2026-02-25 11h16.37.627876 +0100,
tilted.xlsx,The target is tilted.,117,4,4,0,0,1,1,1,1,1,1,1,0,0,0,0,1,7,8,117,space,5.163665200000196,None,1,0,1.1341960000002018,None,,,,0,1,1,0,0,4,4,5,,,,,311.03281170000014,,,,,,,,,,,,,,,,,,,,,311.0173119000001,311.03281170000014,311.5162153000001,311.5207326,311.53694960000007,312.68361329999993,1,0,1.1341960000002018,None,312.6837995000001,312.6992344,312.8991088,312.8828493000001,311.53694960000007,,,,,,,,,,,,,,,,,,,814,19,v,R,2026-02-25_11h16.37.327,VisualSearch_2526_3,,2025.2.4,2026-02-25 11h16.37.627876 +0100,
tilted.xlsx,The target is tilted.,117,5,5,0,1,0,0,0,0,0,0,0,0,0,0,0,0,0,1,117,space,5.163665200000196,None,1,1,0.7505537999998069,None,,,,0,1,1,0,0,5,5,3,,,,,312.8991088,,,,,,,,,,,,,,,,,,,,,312.8836403,312.8991088,313.38297650000004,313.3874697000001,313.40647260000014,314.1667224,1,1,0.7505537999998069,None,314.1669091000001,314.1819438,314.3821531000001,314.3658478,313.40647260000014,,,,,,,,,,,,,,,,,,,814,19,v,R,2026-02-25_11h16.37.327,VisualSearch_2526_3,,2025.2.4,2026-02-25 11h16.37.627876 +0100,
tilted.xlsx,The target is tilted.,117,6,6,0,1,1,1,1,1,1,1,1,1,1,1,1,0,11,12,117,space,5.163665200000196,None,1,1,1.9297164000001885,None,,,,0,1,1,0,0,6,6,0,,,,,314.3821531000001,,,,,,,,,,,,,,,,,,,,,314.36691040000005,314.3821531000001,314.86600440000007,314.8705334000001,314.8894981000001,316.83301460000007,1,1,1.9297164000001885,None,316.8332332,316.84859460000007,317.0485570000001,317.03202320000014,314.8894981000001,,,,,,,,,,,,,,,,,,,814,19,v,R,2026-02-25_11h16.37.327,VisualSearch_2526_3,,2025.2.4,2026-02-25 11h16.37.627876 +0100,
tilted.xlsx,The target is tilted.,117,7,7,0,0,1,1,1,0,0,0,0,0,0,0,0,1,3,4,117,space,5.163665200000196,None,0,1,2.5217539000000215,None,,,,0,1,1,0,0,7,7,6,,,,,317.0485570000001,,,,,,,,,,,,,,,,,,,,,317.03272089999996,317.0485570000001,317.5326314000001,317.5377797000001,317.55693799999995,320.08228699999995,0,1,2.5217539000000215,None,320.0824769000001,320.09798879999994,320.29806610000014,320.2818535000001,317.55693799999995,,,,,,,,,,,,,,,,,,,814,19,v,R,2026-02-25_11h16.37.327,VisualSearch_2526_3,,2025.2.4,2026-02-25 11h16.37.627876 +0100,
tilted.xlsx,The target is tilted.,117,0,0,0,0,1,1,1,1,1,1,1,1,1,1,1,1,11,12,117,space,5.163665200000196,None,0,1,4.456899999999905,None,space,3.8077822000000197,None,0,1,1,0,,,,,0,0,0,4,324.1521315,,,,,,,,,,,,,,,,,,,,,324.14778090000004,324.1521315,324.6310966000001,324.6356839,324.65477320000014,329.11474569999996,,,,,329.11495620000005,329.1297959000001,329.32996679999997,329.31394909999995,,320.2888438,320.29806610000014,320.29806610000014,324.11518320000005,space,3.8077822000000197,None,0,1,4.456899999999905,None,,,,,,,,814,19,v,R,2026-02-25_11h16.37.327,VisualSearch_2526_3,,2025.2.4,2026-02-25 11h16.37.627876 +0100,
tilted.xlsx,The target is tilted.,117,1,1,0,1,0,0,0,0,0,0,0,0,0,0,0,0,0,1,117,space,5.163665200000196,None,1,1,0.6388509000000795,None,space,3.8077822000000197,None,0,1,1,0,,,,,0,1,1,3,329.32996679999997,,,,,,,,,,,,,,,,,,,,,329.3146855,329.32996679999997,329.81392300000016,329.8184003000001,329.83776050000006,330.48069310000005,,,,,330.4808871,330.4965324,330.69641190000016,330.6805157000001,329.83776050000006,,,,,,,,1,1,0.6388509000000795,None,,,,,,,,814,19,v,R,2026-02-25_11h16.37.327,VisualSearch_2526_3,,2025.2.4,2026-02-25 11h16.37.627876 +0100,
tilted.xlsx,The target is tilted.,117,2,2,0,1,1,1,1,1,1,1,1,0,0,0,0,0,7,8,117,space,5.163665200000196,None,1,1,1.6502848000000085,None,space,3.8077822000000197,None,0,1,1,0,,,,,0,2,2,1,330.69641190000016,,,,,,,,,,,,,,,,,,,,,330.6813280000001,330.69641190000016,331.18034009999997,331.18493149999995,331.20371520000003,332.8640783000001,,,,,332.86427690000005,332.87960309999994,333.07947290000016,333.06322810000006,331.20371520000003,,,,,,,,1,1,1.6502848000000085,None,,,,,,,,814,19,v,R,2026-02-25_11h16.37.327,VisualSearch_2526_3,,2025.2.4,2026-02-25 11h16.37.627876 +0100,
tilted.xlsx,The target is tilted.,117,3,3,0,1,1,1,1,0,0,0,0,0,0,0,0,0,3,4,117,space,5.163665200000196,None,1,1,0.9089744000000337,None,space,3.8077822000000197,None,0,1,1,0,,,,,0,3,3,2,333.07947290000016,,,,,,,,,,,,,,,,,,,,,333.0639785000001,333.07947290000016,333.56355340000005,333.5688053000001,333.58830090000015,334.5131486,,,,,334.513318,334.52934470000014,334.7294366000001,334.7134566,333.58830090000015,,,,,,,,1,1,0.9089744000000337,None,,,,,,,,814,19,v,R,2026-02-25_11h16.37.327,VisualSearch_2526_3,,2025.2.4,2026-02-25 11h16.37.627876 +0100,
tilted.xlsx,The target is tilted.,117,4,4,0,0,1,1,1,0,0,0,0,0,0,0,0,1,3,4,117,space,5.163665200000196,None,0,1,1.464684600000055,None,space,3.8077822000000197,None,0,1,1,0,,,,,0,4,4,6,334.7294366000001,,,,,,,,,,,,,,,,,,,,,334.71428549999996,334.7294366000001,335.21307619999993,335.217574,335.2364413,336.71343720000004,,,,,336.71362820000013,336.72903740000015,336.92898379999997,336.9127092000001,335.2364413,,,,,,,,0,1,1.464684600000055,None,,,,,,,,814,19,v,R,2026-02-25_11h16.37.327,VisualSearch_2526_3,,2025.2.4,2026-02-25 11h16.37.627876 +0100,
tilted.xlsx,The target is tilted.,117,5,5,0,1,1,1,1,1,1,1,1,1,1,1,1,0,11,12,117,space,5.163665200000196,None,1,1,1.2031971999999769,None,space,3.8077822000000197,None,0,1,1,0,,,,,0,5,5,0,336.92898379999997,,,,,,,,,,,,,,,,,,,,,336.91364650000014,336.92898379999997,337.41279069999996,337.41733550000004,337.43618600000013,338.6466196000001,,,,,338.6468179000001,338.66208010000014,338.8619453000001,338.84556910000015,337.43618600000013,,,,,,,,1,1,1.2031971999999769,None,,,,,,,,814,19,v,R,2026-02-25_11h16.37.327,VisualSearch_2526_3,,2025.2.4,2026-02-25 11h16.37.627876 +0100,
tilted.xlsx,The target is tilted.,117,6,6,0,0,0,0,0,0,0,0,0,0,0,0,0,1,1,1,117,space,5.163665200000196,None,0,1,0.718713600000001,None,space,3.8077822000000197,None,0,1,1,0,,,,,0,6,6,7,338.8619453000001,,,,,,,,,,,,,,,,,,,,,338.8463171000001,338.8619453000001,339.34560009999996,339.3500546,339.36764830000016,340.09584199999995,,,,,340.09604030000014,340.1119942,340.31164420000005,340.29595500000005,339.36764830000016,,,,,,,,0,1,0.718713600000001,None,,,,,,,,814,19,v,R,2026-02-25_11h16.37.327,VisualSearch_2526_3,,2025.2.4,2026-02-25 11h16.37.627876 +0100,
tilted.xlsx,The target is tilted.,117,7,7,0,0,1,1,1,1,1,1,1,0,0,0,0,1,7,8,117,space,5.163665200000196,None,1,0,1.6139142000001812,None,space,3.8077822000000197,None,0,1,1,0,,,,,0,7,7,5,340.31164420000005,,,,,,,,,,,,,,,,,,,,,340.2967553000001,340.31164420000005,340.7958953,340.8010481000001,340.82033980000006,342.4456258,,,,,342.44582000000014,342.46155339999996,342.6614816000001,342.64544130000013,340.82033980000006,,,,,,,,1,0,1.6139142000001812,None,,,,,,,,814,19,v,R,2026-02-25_11h16.37.327,VisualSearch_2526_3,,2025.2.4,2026-02-25 11h16.37.627876 +0100,
tilted.xlsx,The target is tilted.,117,8,0,1,1,1,1,1,0,0,0,0,0,0,0,0,0,3,4,117,space,5.163665200000196,None,1,1,0.7519133000000693,None,space,3.8077822000000197,None,0,1,1,0,,,,,1,0,8,2,342.6614816000001,,,,,,,,,,,,,,,,,,,,,342.6463457,342.6614816000001,343.14537210000003,343.14986380000005,343.1692001000001,343.92892470000015,,,,,343.9291329,343.9447811,344.14456169999994,344.1281322,343.1692001000001,,,,,,,,1,1,0.7519133000000693,None,,,,,,,,814,19,v,R,2026-02-25_11h16.37.327,VisualSearch_2526_3,,2025.2.4,2026-02-25 11h16.37.627876 +0100,
tilted.xlsx,The target is tilted.,117,9,1,1,1,0,0,0,0,0,0,0,0,0,0,0,0,0,1,117,space,5.163665200000196,None,1,1,0.5037598999999773,None,space,3.8077822000000197,None,0,1,1,0,,,,,1,1,9,3,344.14456169999994,,,,,,,,,,,,,,,,,,,,,344.12892379999994,344.14456169999994,344.62843150000003,344.6329594000001,344.6520028,345.16241000000014,,,,,345.16260280000006,345.17774669999994,345.3777794,345.3616511,344.6520028,,,,,,,,1,1,0.5037598999999773,None,,,,,,,,814,19,v,R,2026-02-25_11h16.37.327,VisualSearch_2526_3,,2025.2.4,2026-02-25 11h16.37.627876 +0100,
tilted.xlsx,The target is tilted.,117,10,2,1,1,1,1,1,1,1,1,1,1,1,1,1,0,11,12,117,space,5.163665200000196,None,1,1,1.0422572999998465,None,space,3.8077822000000197,None,0,1,1,0,,,,,1,2,10,0,345.3777794,,,,,,,,,,,,,,,,,,,,,345.3624161,345.3777794,345.86163809999994,345.86617249999995,345.88603260000014,346.94544199999996,,,,,346.94563859999994,346.9609146,347.1609217,347.14477899999997,345.88603260000014,,,,,,,,1,1,1.0422572999998465,None,,,,,,,,814,19,v,R,2026-02-25_11h16.37.327,VisualSearch_2526_3,,2025.2.4,2026-02-25 11h16.37.627876 +0100,
tilted.xlsx,The target is tilted.,117,11,3,1,0,0,0,0,0,0,0,0,0,0,0,0,1,1,1,117,space,5.163665200000196,None,0,1,0.7394228999999086,None,space,3.8077822000000197,None,0,1,1,0,,,,,1,3,11,7,347.1609217,,,,,,,,,,,,,,,,,,,,,347.1456190000001,347.1609217,347.6448978000001,347.6501926000001,347.66853059999994,348.4115521000001,,,,,348.4117762000001,348.4273895000001,348.6272808000001,348.6109983000001,347.66853059999994,,,,,,,,0,1,0.7394228999999086,None,,,,,,,,814,19,v,R,2026-02-25_11h16.37.327,VisualSearch_2526_3,,2025.2.4,2026-02-25 11h16.37.627876 +0100,
tilted.xlsx,The target is tilted.,117,12,4,1,0,1,1,1,1,1,1,1,0,0,0,0,1,7,8,117,space,5.163665200000196,None,1,0,2.0447619000001396,None,space,3.8077822000000197,None,0,1,1,0,,,,,1,4,12,5,348.6272808000001,,,,,,,,,,,,,,,,,,,,,348.61181320000014,348.6272808000001,349.1111152000001,349.11568250000005,349.1349090000001,351.19469630000003,,,,,351.1949009,351.21032949999994,351.40973780000013,351.3940656,349.1349090000001,,,,,,,,1,0,2.0447619000001396,None,,,,,,,,814,19,v,R,2026-02-25_11h16.37.327,VisualSearch_2526_3,,2025.2.4,2026-02-25 11h16.37.627876 +0100,
tilted.xlsx,The target is tilted.,117,13,5,1,0,1,1,1,1,1,1,1,1,1,1,1,1,11,12,117,space,5.163665200000196,None,1,0,0.8858763999999155,None,space,3.8077822000000197,None,0,1,1,0,,,,,1,5,13,4,351.40973780000013,,,,,,,,,,,,,,,,,,,,,351.3948101000001,351.40973780000013,351.89398370000004,351.8984674000001,351.9173564,352.81124620000014,,,,,352.81144140000015,352.8263878,353.02652320000016,353.01033129999996,351.9173564,,,,,,,,1,0,0.8858763999999155,None,,,,,,,,814,19,v,R,2026-02-25_11h16.37.327,VisualSearch_2526_3,,2025.2.4,2026-02-25 11h16.37.627876 +0100,
tilted.xlsx,The target is tilted.,117,14,6,1,0,1,1,1,0,0,0,0,0,0,0,0,1,3,4,117,space,5.163665200000196,None,0,1,2.9854016000001593,None,space,3.8077822000000197,None,0,1,1,0,,,,,1,6,14,6,353.02652320000016,,,,,,,,,,,,,,,,,,,,,353.01089950000005,353.02652320000016,353.5101038,353.5145308000001,353.53326530000004,356.5273396,,,,,356.52753129999996,356.5429758,356.7429386000001,356.72669599999995,353.53326530000004,,,,,,,,0,1,2.9854016000001593,None,,,,,,,,814,19,v,R,2026-02-25_11h16.37.327,VisualSearch_2526_3,,2025.2.4,2026-02-25 11h16.37.627876 +0100,
tilted.xlsx,The target is tilted.,117,15,7,1,1,1,1,1,1,1,1,1,0,0,0,0,0,7,8,117,space,5.163665200000196,None,1,1,2.2053167000001395,None,space,3.8077822000000197,None,0,1,1,0,,,,,1,7,15,1,356.7429386000001,,,,,,,,,,,,,,,,,,,,,356.72744940000007,356.7429386000001,357.226492,357.2290905,357.24263540000015,359.4603562,,,,,359.4605566,359.47575370000004,359.6757788,359.65957720000006,357.24263540000015,,,,,,,,1,1,2.2053167000001395,None,,,,,,,,814,19,v,R,2026-02-25_11h16.37.327,VisualSearch_2526_3,,2025.2.4,2026-02-25 11h16.37.627876 +0100,
tilted.xlsx,The target is tilted.,117,16,0,2,1,1,1,1,0,0,0,0,0,0,0,0,0,3,4,117,space,5.163665200000196,None,1,1,2.3396688000000267,None,space,3.8077822000000197,None,0,1,1,0,,,,,2,0,16,2,359.6757788,,,,,,,,,,,,,,,,,,,,,359.6603107000001,359.6757788,360.15970990000005,360.16462939999997,360.18343600000003,362.52616080000007,,,,,362.5263166,362.54203170000005,362.7421031000001,362.72610280000004,360.18343600000003,,,,,,,,1,1,2.3396688000000267,None,,,,,,,,814,19,v,R,2026-02-25_11h16.37.327,VisualSearch_2526_3,,2025.2.4,2026-02-25 11h16.37.627876 +0100,
tilted.xlsx,The target is tilted.,117,17,1,2,0,1,1,1,0,0,0,0,0,0,0,0,1,3,4,117,space,5.163665200000196,None,0,1,1.11536870000009,None,space,3.8077822000000197,None,0,1,1,0,,,,,2,1,17,6,362.7421031000001,,,,,,,,,,,,,,,,,,,,,362.7268997000001,362.7421031000001,363.2257667000001,363.23024839999994,363.24906239999996,364.3762484000001,,,,,364.3764423,364.391427,364.59155580000015,364.57549829999994,363.24906239999996,,,,,,,,0,1,1.11536870000009,None,,,,,,,,814,19,v,R,2026-02-25_11h16.37.327,VisualSearch_2526_3,,2025.2.4,2026-02-25 11h16.37.627876 +0100,
tilted.xlsx,The target is tilted.,117,18,2,2,1,0,0,0,0,0,0,0,0,0,0,0,0,0,1,117,space,5.163665200000196,None,1,1,0.9854811999998674,None,space,3.8077822000000197,None,0,1,1,0,,,,,2,2,18,3,364.59155580000015,,,,,,,,,,,,,,,,,,,,,364.5762386000001,364.59155580000015,365.07579639999994,365.08075699999995,365.0988242000001,366.0926340000001,,,,,366.0928286000001,366.10785899999996,366.30806400000006,366.2919932,365.0988242000001,,,,,,,,1,1,0.9854811999998674,None,,,,,,,,814,19,v,R,2026-02-25_11h16.37.327,VisualSearch_2526_3,,2025.2.4,2026-02-25 11h16.37.627876 +0100,
tilted.xlsx,The target is tilted.,117,19,3,2,1,1,1,1,1,1,1,1,0,0,0,0,0,7,8,117,space,5.163665200000196,None,1,1,4.017374600000039,None,space,3.8077822000000197,None,0,1,1,0,,,,,2,3,19,1,366.30806400000006,,,,,,,,,,,,,,,,,,,,,366.29276359999994,366.30806400000006,366.7916788,366.79623719999995,366.8149241000001,370.8420496000001,,,,,370.84224560000007,370.85730190000004,371.057401,371.04129080000007,366.8149241000001,,,,,,,,1,1,4.017374600000039,None,,,,,,,,814,19,v,R,2026-02-25_11h16.37.327,VisualSearch_2526_3,,2025.2.4,2026-02-25 11h16.37.627876 +0100,
tilted.xlsx,The target is tilted.,117,20,4,2,0,1,1,1,1,1,1,1,1,1,1,1,1,11,12,117,space,5.163665200000196,None,1,0,3.171220299999959,None,space,3.8077822000000197,None,0,1,1,0,,,,,2,4,20,4,371.057401,,,,,,,,,,,,,,,,,,,,,371.04203359999997,371.057401,371.5412259,371.54580269999997,371.56460790000006,374.7414421000001,,,,,374.74178040000015,374.75696059999996,374.95663680000007,374.94042160000004,371.56460790000006,,,,,,,,1,0,3.171220299999959,None,,,,,,,,814,19,v,R,2026-02-25_11h16.37.327,VisualSearch_2526_3,,2025.2.4,2026-02-25 11h16.37.627876 +0100,
tilted.xlsx,The target is tilted.,117,21,5,2,0,0,0,0,0,0,0,0,0,0,0,0,1,1,1,117,space,5.163665200000196,None,0,1,0.8519473000001199,None,space,3.8077822000000197,None,0,1,1,0,,,,,2,5,21,7,374.95663680000007,,,,,,,,,,,,,,,,,,,,,374.94116439999993,374.95663680000007,375.4408893,375.4452659000001,375.46360260000006,376.32388220000007,,,,,376.3240238000001,376.3400991000001,376.5399384,376.52397569999994,375.46360260000006,,,,,,,,0,1,0.8519473000001199,None,,,,,,,,814,19,v,R,2026-02-25_11h16.37.327,VisualSearch_2526_3,,2025.2.4,2026-02-25 11h16.37.627876 +0100,
tilted.xlsx,The target is tilted.,117,22,6,2,1,1,1,1,1,1,1,1,1,1,1,1,0,11,12,117,space,5.163665200000196,None,1,1,2.0521146999999473,None,space,3.8077822000000197,None,0,1,1,0,,,,,2,6,22,0,376.5399384,,,,,,,,,,,,,,,,,,,,,376.5248596000001,376.5399384,377.0239348,377.0285408,377.0465256,379.10749740000006,,,,,379.1076915000001,379.12268500000005,379.3231181000001,379.3070735000001,377.0465256,,,,,,,,1,1,2.0521146999999473,None,,,,,,,,814,19,v,R,2026-02-25_11h16.37.327,VisualSearch_2526_3,,2025.2.4,2026-02-25 11h16.37.627876 +0100,
tilted.xlsx,The target is tilted.,117,23,7,2,0,1,1,1,1,1,1,1,0,0,0,0,1,7,8,117,space,5.163665200000196,None,1,0,2.2451597000001584,None,space,3.8077822000000197,None,0,1,1,0,,,,,2,7,23,5,379.3231181000001,,,,,,,,,,,,,,,,,,,,,379.3078812000001,379.3231181000001,379.80707759999996,379.81212619999997,379.8307605,382.09004219999997,,,,,382.0902403,382.10587540000006,382.3058096,382.28981369999997,379.8307605,,,,,,,,1,0,2.2451597000001584,None,,,,,,,,814,19,v,R,2026-02-25_11h16.37.327,VisualSearch_2526_3,,2025.2.4,2026-02-25 11h16.37.627876 +0100,
tilted.xlsx,The target is tilted.,117,24,0,3,1,1,1,1,1,1,1,1,0,0,0,0,0,7,8,117,space,5.163665200000196,None,1,1,0.9059429000001273,None,space,3.8077822000000197,None,0,1,1,0,,,,,3,0,24,1,382.3058096,,,,,,,,,,,,,,,,,,,,,382.29063339999993,382.3058096,382.78984790000004,382.79483849999997,382.8131886000001,383.7232205,,,,,383.7234439000001,383.7389743000001,383.93897790000005,383.92291509999995,382.8131886000001,,,,,,,,1,1,0.9059429000001273,None,,,,,,,,814,19,v,R,2026-02-25_11h16.37.327,VisualSearch_2526_3,,2025.2.4,2026-02-25 11h16.37.627876 +0100,
tilted.xlsx,The target is tilted.,117,25,1,3,0,1,1,1,1,1,1,1,1,1,1,1,1,11,12,117,space,5.163665200000196,None,1,0,0.9313832999998795,None,space,3.8077822000000197,None,0,1,1,0,,,,,3,1,25,4,383.93897790000005,,,,,,,,,,,,,,,,,,,,,383.9237776,383.93897790000005,384.42275010000003,384.42789919999996,384.44674380000015,385.3898815,,,,,385.39008190000004,385.40516360000015,385.6055559000001,385.58950419999996,384.44674380000015,,,,,,,,1,0,0.9313832999998795,None,,,,,,,,814,19,v,R,2026-02-25_11h16.37.327,VisualSearch_2526_3,,2025.2.4,2026-02-25 11h16.37.627876 +0100,
tilted.xlsx,The target is tilted.,117,26,2,3,0,0,0,0,0,0,0,0,0,0,0,0,1,1,1,117,space,5.163665200000196,None,0,1,0.726669099999981,None,space,3.8077822000000197,None,0,1,1,0,,,,,3,2,26,7,385.6055559000001,,,,,,,,,,,,,,,,,,,,,385.5903019,385.6055559000001,386.0892262,386.09416110000006,386.11308469999994,386.8560883,,,,,386.8562855,386.8718966000001,387.07144570000014,387.0557401000001,386.11308469999994,,,,,,,,0,1,0.726669099999981,None,,,,,,,,814,19,v,R,2026-02-25_11h16.37.327,VisualSearch_2526_3,,2025.2.4,2026-02-25 11h16.37.627876 +0100,
tilted.xlsx,The target is tilted.,117,27,3,3,0,1,1,1,0,0,0,0,0,0,0,0,1,3,4,117,space,5.163665200000196,None,0,1,1.2959809999999834,None,space,3.8077822000000197,None,0,1,1,0,,,,,3,3,27,6,387.07144570000014,,,,,,,,,,,,,,,,,,,,,387.0566004,387.07144570000014,387.55572789999997,387.56014270000014,387.57869389999996,388.8893369,,,,,388.8895322000001,388.9048742,389.1045785000001,389.0884390000001,387.57869389999996,,,,,,,,0,1,1.2959809999999834,None,,,,,,,,814,19,v,R,2026-02-25_11h16.37.327,VisualSearch_2526_3,,2025.2.4,2026-02-25 11h16.37.627876 +0100,
tilted.xlsx,The target is tilted.,117,28,4,3,0,1,1,1,1,1,1,1,0,0,0,0,1,7,8,117,space,5.163665200000196,None,1,0,0.903109699999959,None,space,3.8077822000000197,None,0,1,1,0,,,,,3,4,28,5,389.1045785000001,,,,,,,,,,,,,,,,,,,,,389.08918570000014,389.1045785000001,389.58867039999996,389.5932990000001,389.6121352,390.5221196,,,,,390.5223162,390.5378074,390.7381035000001,390.72210799999993,389.6121352,,,,,,,,1,0,0.903109699999959,None,,,,,,,,814,19,v,R,2026-02-25_11h16.37.327,VisualSearch_2526_3,,2025.2.4,2026-02-25 11h16.37.627876 +0100,
tilted.xlsx,The target is tilted.,117,29,5,3,1,0,0,0,0,0,0,0,0,0,0,0,0,0,1,117,space,5.163665200000196,None,1,1,1.8556800000001203,None,space,3.8077822000000197,None,0,1,1,0,,,,,3,5,29,3,390.7381035000001,,,,,,,,,,,,,,,,,,,,,390.7229195,390.7381035000001,391.22081720000006,391.22344880000014,391.2377752,393.10503429999994,,,,,393.10519620000014,393.12092400000006,393.3208519,393.30529279999996,391.2377752,,,,,,,,1,1,1.8556800000001203,None,,,,,,,,814,19,v,R,2026-02-25_11h16.37.327,VisualSearch_2526_3,,2025.2.4,2026-02-25 11h16.37.627876 +0100,
tilted.xlsx,The target is tilted.,117,30,6,3,1,1,1,1,0,0,0,0,0,0,0,0,0,3,4,117,space,5.163665200000196,None,0,0,1.384156800000028,None,space,3.8077822000000197,None,0,1,1,0,,,,,3,6,30,2,393.3208519,,,,,,,,,,,,,,,,,,,,,393.3061031,393.3208519,393.8047819000001,393.80916100000013,393.8208671,395.2218723000001,,,,,395.2220675000001,395.2369940000001,395.43725540000014,395.4212086,393.8208671,,,,,,,,0,0,1.384156800000028,None,,,,,,,,814,19,v,R,2026-02-25_11h16.37.327,VisualSearch_2526_3,,2025.2.4,2026-02-25 11h16.37.627876 +0100,
tilted.xlsx,The target is tilted.,117,31,7,3,1,1,1,1,1,1,1,1,1,1,1,1,0,11,12,117,space,5.163665200000196,None,1,1,4.191154800000049,None,space,3.8077822000000197,None,0,1,1,0,,,,,3,7,31,0,395.43725540000014,,,,,,,,,,,,,,,,,,,,,395.42197209999995,395.43725540000014,395.92111309999996,395.9257308000001,395.9446474000001,400.1368477000001,,,,,400.13696690000006,400.1531823,400.35324160000005,400.33672820000015,395.9446474000001,,,,,,,,1,1,4.191154800000049,None,,,,,,,,814,19,v,R,2026-02-25_11h16.37.327,VisualSearch_2526_3,,2025.2.4,2026-02-25 11h16.37.627876 +0100,
tilted.xlsx,The target is tilted.,117,32,0,4,1,1,1,1,0,0,0,0,0,0,0,0,0,3,4,117,space,5.163665200000196,None,0,0,1.875586500000054,None,space,3.8077822000000197,None,0,1,1,0,,,,,4,0,32,2,400.35324160000005,,,,,,,,,,,,,,,,,,,,,400.33745709999994,400.35324160000005,400.83682780000004,400.84136190000004,400.8608263000001,402.7538651,,,,,402.75405520000004,402.76920029999997,402.9696236,402.95361960000014,400.8608263000001,,,,,,,,0,0,1.875586500000054,None,,,,,,,,814,19,v,R,2026-02-25_11h16.37.327,VisualSearch_2526_3,,2025.2.4,2026-02-25 11h16.37.627876 +0100,
tilted.xlsx,The target is tilted.,117,33,1,4,0,0,0,0,0,0,0,0,0,0,0,0,1,1,1,117,space,5.163665200000196,None,0,1,0.8964627999998811,None,space,3.8077822000000197,None,0,1,1,0,,,,,4,1,33,7,402.9696236,,,,,,,,,,,,,,,,,,,,,402.9543447000001,402.9696236,403.4535023000001,403.45881009999994,403.4782176000001,404.38708999999994,,,,,404.38728000000015,404.4025669,404.60283270000014,404.58667059999993,403.4782176000001,,,,,,,,0,1,0.8964627999998811,None,,,,,,,,814,19,v,R,2026-02-25_11h16.37.327,VisualSearch_2526_3,,2025.2.4,2026-02-25 11h16.37.627876 +0100,
tilted.xlsx,The target is tilted.,117,34,2,4,1,1,1,1,1,1,1,1,1,1,1,1,0,11,12,117,space,5.163665200000196,None,1,1,1.1153117000001203,None,space,3.8077822000000197,None,0,1,1,0,,,,,4,2,34,0,404.60283270000014,,,,,,,,,,,,,,,,,,,,,404.58740520000015,404.60283270000014,405.08663490000004,405.09097629999997,405.10968330000014,406.23698660000014,,,,,406.23717880000004,406.2521508,406.45241250000004,406.4362679000001,405.10968330000014,,,,,,,,1,1,1.1153117000001203,None,,,,,,,,814,19,v,R,2026-02-25_11h16.37.327,VisualSearch_2526_3,,2025.2.4,2026-02-25 11h16.37.627876 +0100,
tilted.xlsx,The target is tilted.,117,35,3,4,0,1,1,1,1,1,1,1,0,0,0,0,1,7,8,117,space,5.163665200000196,None,0,1,2.2154402999999547,None,space,3.8077822000000197,None,0,1,1,0,,,,,4,3,35,5,406.45241250000004,,,,,,,,,,,,,,,,,,,,,406.4370183000001,406.45241250000004,406.9364614000001,406.94156020000014,406.9609937,409.18550670000013,,,,,409.18562470000006,409.2018845,,409.38573429999997,406.9609937,,,,,,,,0,1,2.2154402999999547,None,,,,,,,,814,19,v,R,2026-02-25_11h16.37.327,VisualSearch_2526_3,,2025.2.4,2026-02-25 11h16.37.627876 +0100,
tilted.xlsx,The target is tilted.,117,36,4,4,1,1,1,1,1,1,1,1,0,0,0,0,0,7,8,117,space,5.163665200000196,None,1,1,2.689707300000009,None,space,3.8077822000000197,None,0,1,1,0,,,,,4,4,36,1,409.40210690000004,,,,,,,,,,,,,,,,,,,,,409.3865802,409.40210690000004,409.88586980000014,409.8903216000001,409.90915300000006,412.6022937,,,,,412.6024930000001,412.6178972,412.817638,412.80211770000005,409.90915300000006,,,,,,,,1,1,2.689707300000009,None,,,,,,,,814,19,v,R,2026-02-25_11h16.37.327,VisualSearch_2526_3,,2025.2.4,2026-02-25 11h16.37.627876 +0100,
