file_name,block_instructions,target_example,thisN,thisTrialN,thisRepN,target_presence,opacity_1,opacity_2,opacity_3,opacity_4,opacity_5,opacity_6,opacity_7,opacity_8,opacity_9,opacity_10,opacity_11,opacity_12,n_distract,n_items,target_ori,key_resp_4.keys,key_resp_4.rt,key_resp_4.duration,key_resp.keys,key_resp.corr,key_resp.rt,key_resp.duration,key_resp_5.keys,key_resp_5.rt,key_resp_5.duration,blocks.thisRepN,blocks.thisTrialN,blocks.thisN,blocks.thisIndex,practice_trials.thisRepN,practice_trials.thisTrialN,practice_trials.thisN,practice_trials.thisIndex,trials.thisRepN,trials.thisTrialN,trials.thisN,trials.thisIndex,thisRow.t,notes,Welcome.started,WelcomeText.started,key_resp_2.started,Welcome.stopped,key_resp_2.keys,key_resp_2.rt,key_resp_2.duration,InformedConsent.started,text_4.started,InformedConsent.stopped,key_resp_6.keys,key_resp_6.rt,key_resp_6.duration,key_resp_4.started,example_target.started,text_3.started,blocks.key_resp_4.keys,blocks.key_resp_4.rt,blocks.key_resp_4.duration,FixCross.started,fixCross.started,FixCross.stopped,Stimulus.started,key_resp.started,Stimulus.stopped,practice_trials.key_resp.keys,practice_trials.key_resp.corr,practice_trials.key_resp.rt,practice_trials.key_resp.duration,BlankScreen.started,text.started,text.stopped,BlankScreen.stopped,fixCross.stopped,ExperimentStart.started,text_2.started,key_resp_5.started,ExperimentStart.stopped,blocks.key_resp_5.keys,blocks.key_resp_5.rt,blocks.key_resp_5.duration,trials.key_resp.keys,trials.key_resp.corr,trials.key_resp.rt,trials.key_resp.duration,Thanks.started,ThankYou.started,key_resp_3.started,Thanks.stopped,key_resp_3.keys,key_resp_3.rt,key_resp_3.duration,participant,leeftijd,gender,links/rechtshandig,date,expName,expVersion,psychopyVersion,expStart,
,,,,,,,,,,,,,,,,,,,,,,,,,,,,,,,,,,,,,,,,,,,,,,0.029825800000253366,0.04792310000038924,0.04792310000038924,45.7169901000002,space,45.64135709999982,None,,,,,,,,,,,,,,,,,,,,,,,,,,,,,,,,,,,,,,,,,,,,,,815,22,V,R,2026-02-25_11h28.33.412,VisualSearch_2526_3,,2025.2.4,2026-02-25 11h28.33.710612 +0100,
,,,,,,,,,,,,,,,,,,,,,,,,,,,,,,,,,,,,,,,,,,,,,,,,,,,,,45.71713150000005,45.72625220000009,56.11882680000008,y,10.39901400000008,None,,,,,,,,,,,,,,,,,,,,,,,,,,,,,,,,,,,,,,,,815,22,V,R,2026-02-25_11h28.33.412,VisualSearch_2526_3,,2025.2.4,2026-02-25 11h28.33.710612 +0100,
tilted.xlsx,The target is tilted.,117,0,0,0,0,0,0,0,0,0,0,0,0,0,0,0,1,1,1,117,space,8.462244499999997,None,0,1,10.34119550000014,None,,,,0,0,0,0,0,0,0,7,,,,,64.66854140000032,,,,,,,,,,,,,,,56.16645550000021,56.16645550000021,56.16645550000021,space,8.462244499999997,None,64.66261980000036,64.66854140000032,65.14994090000027,65.15552049999997,65.1746162000004,75.53252490000023,0,1,10.34119550000014,None,75.53272590000006,75.54812149999998,75.7479558,75.73179870000013,,,,,,,,,,,,,,,,,,,,815,22,V,R,2026-02-25_11h28.33.412,VisualSearch_2526_3,,2025.2.4,2026-02-25 11h28.33.710612 +0100,
tilted.xlsx,The target is tilted.,117,1,1,0,1,1,1,1,0,0,0,0,0,0,0,0,0,3,4,117,space,8.462244499999997,None,1,1,2.345632800000203,None,,,,0,0,0,0,0,1,1,2,,,,,75.7479558,,,,,,,,,,,,,,,,,,,,,75.73249460000034,75.7479558,76.23185000000012,76.23666360000016,76.25053760000037,78.59765570000036,1,1,2.345632800000203,None,78.59777430000031,78.61390280000023,,78.79792880000014,76.25053760000037,,,,,,,,,,,,,,,,,,,815,22,V,R,2026-02-25_11h28.33.412,VisualSearch_2526_3,,2025.2.4,2026-02-25 11h28.33.710612 +0100,
tilted.xlsx,The target is tilted.,117,2,2,0,0,1,1,1,1,1,1,1,1,1,1,1,1,11,12,117,space,8.462244499999997,None,1,0,2.803745599999729,None,,,,0,0,0,0,0,2,2,4,,,,,78.8139011000003,,,,,,,,,,,,,,,,,,,,,78.79861970000002,78.8139011000003,79.29800310000019,79.30279629999995,79.32206010000027,82.13085769999998,1,0,2.803745599999729,None,82.13097600000037,82.14636270000028,82.34712060000038,82.33093069999995,79.32206010000027,,,,,,,,,,,,,,,,,,,815,22,V,R,2026-02-25_11h28.33.412,VisualSearch_2526_3,,2025.2.4,2026-02-25 11h28.33.710612 +0100,
tilted.xlsx,The target is tilted.,117,3,3,0,1,1,1,1,1,1,1,1,0,0,0,0,0,7,8,117,space,8.462244499999997,None,1,1,2.9927574999996978,None,,,,0,0,0,0,0,3,3,1,,,,,82.34712060000038,,,,,,,,,,,,,,,,,,,,,82.33163600000034,82.34712060000038,82.8305279000001,82.83320570000024,82.8463769,85.84770470000012,1,1,2.9927574999996978,None,85.84789430000001,85.86270620000005,86.06307900000002,86.04710569999997,82.8463769,,,,,,,,,,,,,,,,,,,815,22,V,R,2026-02-25_11h28.33.412,VisualSearch_2526_3,,2025.2.4,2026-02-25 11h28.33.710612 +0100,
tilted.xlsx,The target is tilted.,117,4,4,0,0,1,1,1,0,0,0,0,0,0,0,0,1,3,4,117,space,8.462244499999997,None,1,0,2.1331992999998874,None,,,,0,0,0,0,0,4,4,6,,,,,86.06307900000002,,,,,,,,,,,,,,,,,,,,,86.04778160000023,86.06307900000002,86.54668990000027,86.54986840000038,86.56297919999997,88.7139159000003,1,0,2.1331992999998874,None,88.7139960000004,88.72890800000005,88.9288448000002,88.9124197000001,86.56297919999997,,,,,,,,,,,,,,,,,,,815,22,V,R,2026-02-25_11h28.33.412,VisualSearch_2526_3,,2025.2.4,2026-02-25 11h28.33.710612 +0100,
tilted.xlsx,The target is tilted.,117,5,5,0,0,1,1,1,1,1,1,1,0,0,0,0,1,7,8,117,space,8.462244499999997,None,1,0,1.1370251000003009,None,,,,0,0,0,0,0,5,5,5,,,,,88.9288448000002,,,,,,,,,,,,,,,,,,,,,88.91283390000035,88.9288448000002,89.41348990000006,89.41883750000034,89.43962670000019,90.58001130000002,1,0,1.1370251000003009,None,90.5802036,90.59540300000026,90.79592930000035,90.77947140000015,89.43962670000019,,,,,,,,,,,,,,,,,,,815,22,V,R,2026-02-25_11h28.33.412,VisualSearch_2526_3,,2025.2.4,2026-02-25 11h28.33.710612 +0100,
tilted.xlsx,The target is tilted.,117,6,6,0,1,1,1,1,1,1,1,1,1,1,1,1,0,11,12,117,space,8.462244499999997,None,1,1,2.288833600000089,None,,,,0,0,0,0,0,6,6,0,,,,,90.79592930000035,,,,,,,,,,,,,,,,,,,,,90.78000280000015,90.79592930000035,91.27973950000023,91.28658070000029,91.2997320000004,93.59655199999997,1,1,2.288833600000089,None,93.59673980000025,93.6116963000004,93.81219640000018,93.79582600000003,91.2997320000004,,,,,,,,,,,,,,,,,,,815,22,V,R,2026-02-25_11h28.33.412,VisualSearch_2526_3,,2025.2.4,2026-02-25 11h28.33.710612 +0100,
tilted.xlsx,The target is tilted.,117,7,7,0,1,0,0,0,0,0,0,0,0,0,0,0,0,0,1,117,space,8.462244499999997,None,1,1,0.6152255000001787,None,,,,0,0,0,0,0,7,7,3,,,,,93.81219640000018,,,,,,,,,,,,,,,,,,,,,93.79656139999997,93.81219640000018,94.29600380000011,94.30117000000018,94.31187900000032,94.92970000000014,1,1,0.6152255000001787,None,94.92988860000014,94.94479140000021,95.1451919000001,95.12885660000029,94.31187900000032,,,,,,,,,,,,,,,,,,,815,22,V,R,2026-02-25_11h28.33.412,VisualSearch_2526_3,,2025.2.4,2026-02-25 11h28.33.710612 +0100,
tilted.xlsx,The target is tilted.,117,0,0,0,0,0,0,0,0,0,0,0,0,0,0,0,1,1,1,117,space,8.462244499999997,None,0,1,1.071003699999892,None,space,16.848184100000253,None,0,0,0,0,,,,,0,0,0,7,112.0384239,,,,,,,,,,,,,,,,,,,,,112.03456350000033,112.0384239,112.52630110000018,112.53119450000031,112.55052090000027,113.62702020000006,,,,,113.6272439000004,113.64213410000002,113.84258540000019,113.82632710000007,,95.13581350000004,95.1451919000001,95.1451919000001,112.00976200000014,space,16.848184100000253,None,0,1,1.071003699999892,None,,,,,,,,815,22,V,R,2026-02-25_11h28.33.412,VisualSearch_2526_3,,2025.2.4,2026-02-25 11h28.33.710612 +0100,
tilted.xlsx,The target is tilted.,117,1,1,0,0,1,1,1,0,0,0,0,0,0,0,0,1,3,4,117,space,8.462244499999997,None,1,0,1.2182346000004145,None,space,16.848184100000253,None,0,0,0,0,,,,,0,1,1,6,113.84258540000019,,,,,,,,,,,,,,,,,,,,,113.82706540000027,113.84258540000019,114.32606110000006,114.3308790000001,114.34976420000021,115.57631820000006,,,,,115.5764693000001,115.59196010000005,115.7923095000001,115.77618849999999,114.34976420000021,,,,,,,,1,0,1.2182346000004145,None,,,,,,,,815,22,V,R,2026-02-25_11h28.33.412,VisualSearch_2526_3,,2025.2.4,2026-02-25 11h28.33.710612 +0100,
tilted.xlsx,The target is tilted.,117,2,2,0,1,1,1,1,1,1,1,1,1,1,1,1,0,11,12,117,space,8.462244499999997,None,1,1,0.9841667000000598,None,space,16.848184100000253,None,0,0,0,0,,,,,0,2,2,0,115.7923095000001,,,,,,,,,,,,,,,,,,,,,115.77688970000008,115.7923095000001,116.27604270000029,116.28087960000039,116.30010500000026,117.29322430000002,,,,,117.29393530000016,117.3081889,117.50868979999996,117.49280810000027,116.30010500000026,,,,,,,,1,1,0.9841667000000598,None,,,,,,,,815,22,V,R,2026-02-25_11h28.33.412,VisualSearch_2526_3,,2025.2.4,2026-02-25 11h28.33.710612 +0100,
tilted.xlsx,The target is tilted.,117,3,3,0,1,1,1,1,1,1,1,1,0,0,0,0,0,7,8,117,space,8.462244499999997,None,1,1,0.6767107000000578,None,space,16.848184100000253,None,0,0,0,0,,,,,0,3,3,1,117.50868979999996,,,,,,,,,,,,,,,,,,,,,117.4936088000004,117.50868979999996,117.99251219999996,117.99723710000035,118.01635239999996,118.70904420000033,,,,,118.70927800000027,118.72469570000021,118.92516310000019,118.9090898000004,118.01635239999996,,,,,,,,1,1,0.6767107000000578,None,,,,,,,,815,22,V,R,2026-02-25_11h28.33.412,VisualSearch_2526_3,,2025.2.4,2026-02-25 11h28.33.710612 +0100,
tilted.xlsx,The target is tilted.,117,4,4,0,1,0,0,0,0,0,0,0,0,0,0,0,0,0,1,117,space,8.462244499999997,None,1,1,0.6742171000000781,None,space,16.848184100000253,None,0,0,0,0,,,,,0,4,4,3,118.92516310000019,,,,,,,,,,,,,,,,,,,,,118.9098313000004,118.92516310000019,119.40900620000002,119.41369510000004,119.43298050000021,120.10950000000003,,,,,120.10970780000025,120.12451450000026,120.32505590000028,120.3090857000002,119.43298050000021,,,,,,,,1,1,0.6742171000000781,None,,,,,,,,815,22,V,R,2026-02-25_11h28.33.412,VisualSearch_2526_3,,2025.2.4,2026-02-25 11h28.33.710612 +0100,
tilted.xlsx,The target is tilted.,117,5,5,0,1,1,1,1,0,0,0,0,0,0,0,0,0,3,4,117,space,8.462244499999997,None,1,1,0.9389369999998962,None,space,16.848184100000253,None,0,0,0,0,,,,,0,5,5,2,120.32505590000028,,,,,,,,,,,,,,,,,,,,,120.30987860000005,120.32505590000028,120.8088842000002,120.8137084,120.83224860000018,121.7755586000003,,,,,121.77576799999997,121.79095550000011,121.99102260000018,121.97524150000027,120.83224860000018,,,,,,,,1,1,0.9389369999998962,None,,,,,,,,815,22,V,R,2026-02-25_11h28.33.412,VisualSearch_2526_3,,2025.2.4,2026-02-25 11h28.33.710612 +0100,
tilted.xlsx,The target is tilted.,117,6,6,0,0,1,1,1,1,1,1,1,0,0,0,0,1,7,8,117,space,8.462244499999997,None,1,0,1.081678699999884,None,space,16.848184100000253,None,0,0,0,0,,,,,0,6,6,5,121.99102260000018,,,,,,,,,,,,,,,,,,,,,121.97598400000015,121.99102260000018,122.47520120000036,122.48032690000036,122.4998684000002,123.59191370000008,,,,,123.5921088,123.6071979000003,123.80764330000011,123.79178920000004,122.4998684000002,,,,,,,,1,0,1.081678699999884,None,,,,,,,,815,22,V,R,2026-02-25_11h28.33.412,VisualSearch_2526_3,,2025.2.4,2026-02-25 11h28.33.710612 +0100,
tilted.xlsx,The target is tilted.,117,7,7,0,0,1,1,1,1,1,1,1,1,1,1,1,1,11,12,117,space,8.462244499999997,None,1,0,1.0222703999997975,None,space,16.848184100000253,None,0,0,0,0,,,,,0,7,7,4,123.80764330000011,,,,,,,,,,,,,,,,,,,,,123.79249049999999,123.80764330000011,124.29160350000029,124.29642950000016,124.31561790000023,125.34161230000018,,,,,125.34181880000006,125.35713030000034,125.55760929999997,125.54147490000014,124.31561790000023,,,,,,,,1,0,1.0222703999997975,None,,,,,,,,815,22,V,R,2026-02-25_11h28.33.412,VisualSearch_2526_3,,2025.2.4,2026-02-25 11h28.33.710612 +0100,
tilted.xlsx,The target is tilted.,117,8,0,1,0,1,1,1,1,1,1,1,1,1,1,1,1,11,12,117,space,8.462244499999997,None,1,0,0.7180097999998907,None,space,16.848184100000253,None,0,0,0,0,,,,,1,0,8,4,125.55760929999997,,,,,,,,,,,,,,,,,,,,,125.54221440000038,125.55760929999997,126.04131159999997,126.04737710000018,126.06700140000021,126.7918767000001,,,,,126.7920766000002,126.8069217000002,127.00737170000002,126.9914291,126.06700140000021,,,,,,,,1,0,0.7180097999998907,None,,,,,,,,815,22,V,R,2026-02-25_11h28.33.412,VisualSearch_2526_3,,2025.2.4,2026-02-25 11h28.33.710612 +0100,
tilted.xlsx,The target is tilted.,117,9,1,1,0,1,1,1,0,0,0,0,0,0,0,0,1,3,4,117,space,8.462244499999997,None,1,0,1.110677399999986,None,space,16.848184100000253,None,0,0,0,0,,,,,1,1,9,6,127.00737170000002,,,,,,,,,,,,,,,,,,,,,126.99223359999996,127.00737170000002,127.49117539999997,127.49592380000013,127.51523570000018,128.64108460000034,,,,,128.64128100000016,128.65665660000013,128.85712920000014,128.84106310000016,127.51523570000018,,,,,,,,1,0,1.110677399999986,None,,,,,,,,815,22,V,R,2026-02-25_11h28.33.412,VisualSearch_2526_3,,2025.2.4,2026-02-25 11h28.33.710612 +0100,
tilted.xlsx,The target is tilted.,117,10,2,1,0,1,1,1,1,1,1,1,0,0,0,0,1,7,8,117,space,8.462244499999997,None,1,0,1.3751839999999902,None,space,16.848184100000253,None,0,0,0,0,,,,,1,2,10,5,128.85712920000014,,,,,,,,,,,,,,,,,,,,,128.84189630000037,128.85712920000014,129.34045070000002,129.3451417000001,129.36368840000023,130.74097280000024,,,,,130.7411664000001,130.7564368000003,130.95687780000026,130.94075980000025,129.36368840000023,,,,,,,,1,0,1.3751839999999902,None,,,,,,,,815,22,V,R,2026-02-25_11h28.33.412,VisualSearch_2526_3,,2025.2.4,2026-02-25 11h28.33.710612 +0100,
tilted.xlsx,The target is tilted.,117,11,3,1,1,1,1,1,0,0,0,0,0,0,0,0,0,3,4,117,space,8.462244499999997,None,1,1,0.9287696999999753,None,space,16.848184100000253,None,0,0,0,0,,,,,1,3,11,2,130.95687780000026,,,,,,,,,,,,,,,,,,,,,130.94146560000036,130.95687780000026,131.4406842000003,131.44541340000023,131.46466390000023,132.40725460000021,,,,,132.40746179999996,132.4226447000001,132.62288060000037,132.60707950000005,131.46466390000023,,,,,,,,1,1,0.9287696999999753,None,,,,,,,,815,22,V,R,2026-02-25_11h28.33.412,VisualSearch_2526_3,,2025.2.4,2026-02-25 11h28.33.710612 +0100,
tilted.xlsx,The target is tilted.,117,12,4,1,1,1,1,1,1,1,1,1,0,0,0,0,0,7,8,117,space,8.462244499999997,None,1,1,1.5335039999999935,None,space,16.848184100000253,None,0,0,0,0,,,,,1,4,12,1,132.62288060000037,,,,,,,,,,,,,,,,,,,,,132.6078354000001,132.62288060000037,133.1070254000001,133.11185160000014,133.1308541000003,134.67409190000035,,,,,134.6742859000001,134.6892031000002,134.88944280000032,134.87308210000037,133.1308541000003,,,,,,,,1,1,1.5335039999999935,None,,,,,,,,815,22,V,R,2026-02-25_11h28.33.412,VisualSearch_2526_3,,2025.2.4,2026-02-25 11h28.33.710612 +0100,
tilted.xlsx,The target is tilted.,117,13,5,1,0,0,0,0,0,0,0,0,0,0,0,0,1,1,1,117,space,8.462244499999997,None,0,1,0.8445430000001579,None,space,16.848184100000253,None,0,0,0,0,,,,,1,5,13,7,134.88944280000032,,,,,,,,,,,,,,,,,,,,,134.8736487000001,134.88944280000032,135.37304380000023,135.37776940000003,135.39693250000028,136.25656370000024,,,,,136.25678890000017,136.27224670000032,136.47271040000032,136.45652480000035,135.39693250000028,,,,,,,,0,1,0.8445430000001579,None,,,,,,,,815,22,V,R,2026-02-25_11h28.33.412,VisualSearch_2526_3,,2025.2.4,2026-02-25 11h28.33.710612 +0100,
tilted.xlsx,The target is tilted.,117,14,6,1,1,1,1,1,1,1,1,1,1,1,1,1,0,11,12,117,space,8.462244499999997,None,1,1,1.7569352999998955,None,space,16.848184100000253,None,0,0,0,0,,,,,1,6,14,0,136.47271040000032,,,,,,,,,,,,,,,,,,,,,136.45729210000036,136.47271040000032,136.9564365000001,136.96107980000033,136.97952990000022,138.73980660000007,,,,,138.74000079999996,138.75523590000012,138.95562830000017,138.9396630000001,136.97952990000022,,,,,,,,1,1,1.7569352999998955,None,,,,,,,,815,22,V,R,2026-02-25_11h28.33.412,VisualSearch_2526_3,,2025.2.4,2026-02-25 11h28.33.710612 +0100,
tilted.xlsx,The target is tilted.,117,15,7,1,1,0,0,0,0,0,0,0,0,0,0,0,0,0,1,117,space,8.462244499999997,None,1,1,0.6068982000001597,None,space,16.848184100000253,None,0,0,0,0,,,,,1,7,15,3,138.95562830000017,,,,,,,,,,,,,,,,,,,,,138.9404786,138.95562830000017,139.43959610000002,139.4442498000003,139.4554688000003,140.07288150000022,,,,,140.07309060000034,140.0881215000004,140.28881279999996,140.27265380000017,139.4554688000003,,,,,,,,1,1,0.6068982000001597,None,,,,,,,,815,22,V,R,2026-02-25_11h28.33.412,VisualSearch_2526_3,,2025.2.4,2026-02-25 11h28.33.710612 +0100,
tilted.xlsx,The target is tilted.,117,16,0,2,0,1,1,1,1,1,1,1,1,1,1,1,1,11,12,117,space,8.462244499999997,None,1,0,1.67021670000031,None,space,16.848184100000253,None,0,0,0,0,,,,,2,0,16,4,140.28881279999996,,,,,,,,,,,,,,,,,,,,,140.27343689999998,140.28881279999996,140.77256980000038,140.77730770000016,140.7966193000002,142.47281150000026,,,,,142.4730053000003,142.4880005,142.68814930000008,142.67213010000023,140.7966193000002,,,,,,,,1,0,1.67021670000031,None,,,,,,,,815,22,V,R,2026-02-25_11h28.33.412,VisualSearch_2526_3,,2025.2.4,2026-02-25 11h28.33.710612 +0100,
tilted.xlsx,The target is tilted.,117,17,1,2,1,0,0,0,0,0,0,0,0,0,0,0,0,0,1,117,space,8.462244499999997,None,1,1,0.750829099999919,None,space,16.848184100000253,None,0,0,0,0,,,,,2,1,17,3,142.68814930000008,,,,,,,,,,,,,,,,,,,,,142.6728495000002,142.68814930000008,143.17249630000015,143.17758890000005,143.1881859,143.9556765000002,,,,,143.9558750000001,143.9711139000001,144.17118710000022,144.15523819999999,143.1881859,,,,,,,,1,1,0.750829099999919,None,,,,,,,,815,22,V,R,2026-02-25_11h28.33.412,VisualSearch_2526_3,,2025.2.4,2026-02-25 11h28.33.710612 +0100,
tilted.xlsx,The target is tilted.,117,18,2,2,0,1,1,1,0,0,0,0,0,0,0,0,1,3,4,117,space,8.462244499999997,None,1,0,2.2173767000003863,None,space,16.848184100000253,None,0,0,0,0,,,,,2,2,18,6,144.17118710000022,,,,,,,,,,,,,,,,,,,,,144.15595680000024,144.17118710000022,144.6546873000002,144.6573830000002,144.6713990000003,146.90502940000033,,,,,146.9052628000004,146.92071560000022,147.1209316000004,147.10490320000008,144.6713990000003,,,,,,,,1,0,2.2173767000003863,None,,,,,,,,815,22,V,R,2026-02-25_11h28.33.412,VisualSearch_2526_3,,2025.2.4,2026-02-25 11h28.33.710612 +0100,
tilted.xlsx,The target is tilted.,117,19,3,2,1,1,1,1,1,1,1,1,0,0,0,0,0,7,8,117,space,8.462244499999997,None,1,1,1.0666354999998475,None,space,16.848184100000253,None,0,0,0,0,,,,,2,3,19,1,147.1209316000004,,,,,,,,,,,,,,,,,,,,,147.10565270000006,147.1209316000004,147.6048367000003,147.6096619,147.62844050000012,148.70525560000033,,,,,148.70545290000018,148.7204471,148.92099310000003,148.9045497000002,147.62844050000012,,,,,,,,1,1,1.0666354999998475,None,,,,,,,,815,22,V,R,2026-02-25_11h28.33.412,VisualSearch_2526_3,,2025.2.4,2026-02-25 11h28.33.710612 +0100,
tilted.xlsx,The target is tilted.,117,20,4,2,0,1,1,1,1,1,1,1,0,0,0,0,1,7,8,117,space,8.462244499999997,None,1,0,1.742758800000047,None,space,16.848184100000253,None,0,0,0,0,,,,,2,4,20,5,148.92099310000003,,,,,,,,,,,,,,,,,,,,,148.90529940000033,148.92099310000003,149.40461770000002,149.40997020000032,149.4296405,151.18720610000037,,,,,151.18732650000038,151.2035595000002,151.4035189000001,151.3876137000002,149.4296405,,,,,,,,1,0,1.742758800000047,None,,,,,,,,815,22,V,R,2026-02-25_11h28.33.412,VisualSearch_2526_3,,2025.2.4,2026-02-25 11h28.33.710612 +0100,
tilted.xlsx,The target is tilted.,117,21,5,2,1,1,1,1,0,0,0,0,0,0,0,0,0,3,4,117,space,8.462244499999997,None,1,1,0.6351221999998415,None,space,16.848184100000253,None,0,0,0,0,,,,,2,5,21,2,151.4035189000001,,,,,,,,,,,,,,,,,,,,,151.38835020000033,151.4035189000001,151.887471,151.89235270000017,151.91153220000024,152.55463610000015,,,,,152.55483060000006,152.56992870000022,152.7703843000004,152.7540694000004,,,,,,,,,1,1,0.6351221999998415,None,,,,,,,,815,22,V,R,2026-02-25_11h28.33.412,VisualSearch_2526_3,,2025.2.4,2026-02-25 11h28.33.710612 +0100,
tilted.xlsx,The target is tilted.,117,22,6,2,1,1,1,1,1,1,1,1,1,1,1,1,0,11,12,117,space,8.462244499999997,None,1,1,1.6648610000002009,None,space,16.848184100000253,None,0,0,0,0,,,,,2,6,22,0,152.7703843000004,,,,,,,,,,,,,,,,,,,,,152.7548141000002,152.7703843000004,153.25408570000036,153.25876500000004,153.2780246000002,154.9541148000003,,,,,154.9543106000001,154.96963649999998,155.1700697000001,155.1539216000001,153.2780246000002,,,,,,,,1,1,1.6648610000002009,None,,,,,,,,815,22,V,R,2026-02-25_11h28.33.412,VisualSearch_2526_3,,2025.2.4,2026-02-25 11h28.33.710612 +0100,
tilted.xlsx,The target is tilted.,117,23,7,2,0,0,0,0,0,0,0,0,0,0,0,0,1,1,1,117,space,8.462244499999997,None,0,1,0.7082000000000335,None,space,16.848184100000253,None,0,0,0,0,,,,,2,7,23,7,155.1700697000001,,,,,,,,,,,,,,,,,,,,,155.15464790000033,155.1700697000001,155.65393800000038,155.65859650000039,155.67781030000015,156.38728030000038,,,,,156.38749410000037,156.40248580000025,156.60303199999998,156.58669520000012,155.67781030000015,,,,,,,,0,1,0.7082000000000335,None,,,,,,,,815,22,V,R,2026-02-25_11h28.33.412,VisualSearch_2526_3,,2025.2.4,2026-02-25 11h28.33.710612 +0100,
tilted.xlsx,The target is tilted.,117,24,0,3,1,1,1,1,0,0,0,0,0,0,0,0,0,3,4,117,space,8.462244499999997,None,1,1,0.8188066000002436,None,space,16.848184100000253,None,0,0,0,0,,,,,3,0,24,2,156.60303199999998,,,,,,,,,,,,,,,,,,,,,156.5873405000002,156.60303199999998,157.08667520000017,157.09009860000015,157.1041249,157.93678580000005,,,,,157.93701350000038,157.95239720000018,158.1527954000003,158.13640180000039,157.1041249,,,,,,,,1,1,0.8188066000002436,None,,,,,,,,815,22,V,R,2026-02-25_11h28.33.412,VisualSearch_2526_3,,2025.2.4,2026-02-25 11h28.33.710612 +0100,
tilted.xlsx,The target is tilted.,117,25,1,3,1,0,0,0,0,0,0,0,0,0,0,0,0,0,1,117,space,8.462244499999997,None,1,1,0.8770443999997042,None,space,16.848184100000253,None,0,0,0,0,,,,,3,1,25,3,158.1527954000003,,,,,,,,,,,,,,,,,,,,,158.1368647000004,158.1527954000003,158.6368749000003,158.64229920000025,158.66119780000008,159.5528833000003,,,,,159.55302800000027,159.56874349999998,159.76932320000014,159.75298810000004,158.66119780000008,,,,,,,,1,1,0.8770443999997042,None,,,,,,,,815,22,V,R,2026-02-25_11h28.33.412,VisualSearch_2526_3,,2025.2.4,2026-02-25 11h28.33.710612 +0100,
tilted.xlsx,The target is tilted.,117,26,2,3,0,1,1,1,0,0,0,0,0,0,0,0,1,3,4,117,space,8.462244499999997,None,1,0,0.9780627000000095,None,space,16.848184100000253,None,0,0,0,0,,,,,3,2,26,6,159.76932320000014,,,,,,,,,,,,,,,,,,,,,159.75370880000037,159.76932320000014,160.25333,160.25799940000024,160.2719215000002,161.25322800000004,,,,,161.2534257000002,161.2686831000001,161.4690053000004,161.45263840000007,160.2719215000002,,,,,,,,1,0,0.9780627000000095,None,,,,,,,,815,22,V,R,2026-02-25_11h28.33.412,VisualSearch_2526_3,,2025.2.4,2026-02-25 11h28.33.710612 +0100,
tilted.xlsx,The target is tilted.,117,27,3,3,0,1,1,1,1,1,1,1,0,0,0,0,1,7,8,117,space,8.462244499999997,None,1,0,0.6572243000000526,None,space,16.848184100000253,None,0,0,0,0,,,,,3,3,27,5,161.4690053000004,,,,,,,,,,,,,,,,,,,,,161.45341700000017,161.4690053000004,161.95289700000012,161.95761560000028,161.9768068000003,162.63670020000018,,,,,162.63691100000005,162.65183390000038,162.85247460000028,162.83634440000014,161.9768068000003,,,,,,,,1,0,0.6572243000000526,None,,,,,,,,815,22,V,R,2026-02-25_11h28.33.412,VisualSearch_2526_3,,2025.2.4,2026-02-25 11h28.33.710612 +0100,
tilted.xlsx,The target is tilted.,117,28,4,3,0,1,1,1,1,1,1,1,1,1,1,1,1,11,12,117,space,8.462244499999997,None,1,0,0.6121302000001378,None,space,16.848184100000253,None,0,0,0,0,,,,,3,4,28,4,162.85247460000028,,,,,,,,,,,,,,,,,,,,,162.83713950000038,162.85247460000028,163.3360219000001,163.34134680000034,163.36031170000024,163.98572860000013,,,,,163.98587850000013,164.00142810000034,164.20224150000013,164.18608010000025,163.36031170000024,,,,,,,,1,0,0.6121302000001378,None,,,,,,,,815,22,V,R,2026-02-25_11h28.33.412,VisualSearch_2526_3,,2025.2.4,2026-02-25 11h28.33.710612 +0100,
tilted.xlsx,The target is tilted.,117,29,5,3,0,0,0,0,0,0,0,0,0,0,0,0,1,1,1,117,space,8.462244499999997,None,0,1,0.9497587999999269,None,space,16.848184100000253,None,0,0,0,0,,,,,3,5,29,7,164.20224150000013,,,,,,,,,,,,,,,,,,,,,164.18687990000035,164.20224150000013,164.68571420000035,164.6904459000002,164.70967280000013,165.66959580000002,,,,,165.66980290000038,165.6847383000004,165.88505780000014,165.86896990000014,164.70967280000013,,,,,,,,0,1,0.9497587999999269,None,,,,,,,,815,22,V,R,2026-02-25_11h28.33.412,VisualSearch_2526_3,,2025.2.4,2026-02-25 11h28.33.710612 +0100,
tilted.xlsx,The target is tilted.,117,30,6,3,1,1,1,1,1,1,1,1,1,1,1,1,0,11,12,117,space,8.462244499999997,None,1,1,1.121157900000071,None,space,16.848184100000253,None,0,0,0,0,,,,,3,6,30,0,165.88505780000014,,,,,,,,,,,,,,,,,,,,,165.86978190000036,165.88505780000014,166.3690029000004,166.37352780000037,166.39186850000033,167.51945390000037,,,,,167.51965080000036,167.534404,167.73486070000035,167.71875550000004,166.39186850000033,,,,,,,,1,1,1.121157900000071,None,,,,,,,,815,22,V,R,2026-02-25_11h28.33.412,VisualSearch_2526_3,,2025.2.4,2026-02-25 11h28.33.710612 +0100,
tilted.xlsx,The target is tilted.,117,31,7,3,1,1,1,1,1,1,1,1,0,0,0,0,0,7,8,117,space,8.462244499999997,None,1,1,0.9261735000000044,None,space,16.848184100000253,None,0,0,0,0,,,,,3,7,31,1,167.73486070000035,,,,,,,,,,,,,,,,,,,,,167.7195213,167.73486070000035,168.21877089999998,168.22396860000026,168.24317540000038,169.18514840000034,,,,,169.18535450000036,169.20057020000013,169.4014215000002,169.38516720000007,168.24317540000038,,,,,,,,1,1,0.9261735000000044,None,,,,,,,,815,22,V,R,2026-02-25_11h28.33.412,VisualSearch_2526_3,,2025.2.4,2026-02-25 11h28.33.710612 +0100,
tilted.xlsx,The target is tilted.,117,32,0,4,1,1,1,1,1,1,1,1,0,0,0,0,0,7,8,117,space,8.462244499999997,None,0,0,1.860228499999721,None,space,16.848184100000253,None,0,0,0,0,,,,,4,0,32,1,169.4014215000002,,,,,,,,,,,,,,,,,,,,,169.38600350000024,169.4014215000002,169.88469329999998,169.88778520000005,169.90338120000024,171.7685180000003,,,,,171.7687119000002,171.78380490000018,171.9837308000001,171.96777520000023,169.90338120000024,,,,,,,,0,0,1.860228499999721,None,,,,,,,,815,22,V,R,2026-02-25_11h28.33.412,VisualSearch_2526_3,,2025.2.4,2026-02-25 11h28.33.710612 +0100,
tilted.xlsx,The target is tilted.,117,33,1,4,1,1,1,1,0,0,0,0,0,0,0,0,0,3,4,117,space,8.462244499999997,None,1,1,0.773764100000335,None,space,16.848184100000253,None,0,0,0,0,,,,,4,1,33,2,171.9837308000001,,,,,,,,,,,,,,,,,,,,,171.96850230000018,171.9837308000001,172.46816720000015,172.47298020000017,172.4920457000003,173.2681877,,,,,173.26839670000027,173.28366840000035,173.48372659999995,173.4678498000003,172.4920457000003,,,,,,,,1,1,0.773764100000335,None,,,,,,,,815,22,V,R,2026-02-25_11h28.33.412,VisualSearch_2526_3,,2025.2.4,2026-02-25 11h28.33.710612 +0100,
tilted.xlsx,The target is tilted.,117,34,2,4,0,1,1,1,1,1,1,1,0,0,0,0,1,7,8,117,space,8.462244499999997,None,1,0,1.8756306999998742,None,space,16.848184100000253,None,0,0,0,0,,,,,4,2,34,5,173.48372659999995,,,,,,,,,,,,,,,,,,,,,173.4686340000003,173.48372659999995,173.96769889999996,173.9725037000003,173.99154840000028,175.88420680000036,,,,,175.88444849999996,175.8999106000001,176.10026890000017,176.08379160000004,173.99154840000028,,,,,,,,1,0,1.8756306999998742,None,,,,,,,,815,22,V,R,2026-02-25_11h28.33.412,VisualSearch_2526_3,,2025.2.4,2026-02-25 11h28.33.710612 +0100,
tilted.xlsx,The target is tilted.,117,35,3,4,0,1,1,1,1,1,1,1,1,1,1,1,1,11,12,117,space,8.462244499999997,None,1,0,1.2168606999998701,None,space,16.848184100000253,None,0,0,0,0,,,,,4,3,35,4,176.10026890000017,,,,,,,,,,,,,,,,,,,,,176.08451690000038,176.10026890000017,176.58411780000006,176.58877610000036,176.60796690000006,177.8344890000003,,,,,177.83469790000026,177.84966120000036,178.05015900000035,178.03400190000002,176.60796690000006,,,,,,,,1,0,1.2168606999998701,None,,,,,,,,815,22,V,R,2026-02-25_11h28.33.412,VisualSearch_2526_3,,2025.2.4,2026-02-25 11h28.33.710612 +0100,
tilted.xlsx,The target is tilted.,117,36,4,4,1,1,1,1,1,1,1,1,1,1,1,1,0,11,12,117,space,8.462244499999997,None,1,1,1.3183232000001226,None,space,16.848184100000253,None,0,0,0,0,,,,,4,4,36,0,178.05015900000035,,,,,,,,,,,,,,,,,,,,,178.03475160000016,178.05015900000035,178.53398050000033,178.53864740000017,178.55766410000024,179.88427600000023,,,,,179.88447610000003,179.8993647000002,180.0999307000002,180.08387420000008,178.55766410000024,,,,,,,,1,1,1.3183232000001226,None,,,,,,,,815,22,V,R,2026-02-25_11h28.33.412,VisualSearch_2526_3,,2025.2.4,2026-02-25 11h28.33.710612 +0100,
tilted.xlsx,The target is tilted.,117,37,5,4,0,0,0,0,0,0,0,0,0,0,0,0,1,1,1,117,space,8.462244499999997,None,0,1,0.9029504999998608,None,space,16.848184100000253,None,0,0,0,0,,,,,4,5,37,7,180.0999307000002,,,,,,,,,,,,,,,,,,,,,180.08471270000018,180.0999307000002,180.58332910000036,180.58727540000018,180.60576690000016,181.51698060000035,,,,,181.51719470000035,181.53246040000022,181.73249000000033,181.71682740000006,180.60576690000016,,,,,,,,0,1,0.9029504999998608,None,,,,,,,,815,22,V,R,2026-02-25_11h28.33.412,VisualSearch_2526_3,,2025.2.4,2026-02-25 11h28.33.710612 +0100,
tilted.xlsx,The target is tilted.,117,38,6,4,0,1,1,1,0,0,0,0,0,0,0,0,1,3,4,117,space,8.462244499999997,None,1,0,1.1935942000000068,None,space,16.848184100000253,None,0,0,0,0,,,,,4,6,38,6,181.73249000000033,,,,,,,,,,,,,,,,,,,,,181.7175341000002,181.73249000000033,182.21640460000026,182.22112450000031,182.23995130000003,183.45029290000002,,,,,183.4504968000001,183.46553519999998,183.6659910000003,183.64933530000008,182.23995130000003,,,,,,,,1,0,1.1935942000000068,None,,,,,,,,815,22,V,R,2026-02-25_11h28.33.412,VisualSearch_2526_3,,2025.2.4,2026-02-25 11h28.33.710612 +0100,
tilted.xlsx,The target is tilted.,117,39,7,4,1,0,0,0,0,0,0,0,0,0,0,0,0,0,1,117,space,8.462244499999997,None,1,1,1.8692974000000504,None,space,16.848184100000253,None,0,0,0,0,,,,,4,7,39,3,183.6659910000003,,,,,,,,,,,,,,,,,,,,,183.6500691000001,183.6659910000003,184.14944809999997,184.1544527000001,184.1719508000001,186.0500892,,,,,186.05030820000002,186.0651114000002,186.26558270000032,186.24948350000022,184.1719508000001,,,,,,,,1,1,1.8692974000000504,None,,,,,,,,815,22,V,R,2026-02-25_11h28.33.412,VisualSearch_2526_3,,2025.2.4,2026-02-25 11h28.33.710612 +0100,
tilted.xlsx,The target is tilted.,117,40,0,5,1,0,0,0,0,0,0,0,0,0,0,0,0,0,1,117,space,8.462244499999997,None,1,1,0.6511144999999487,None,space,16.848184100000253,None,0,0,0,0,,,,,5,0,40,3,186.26558270000032,,,,,,,,,,,,,,,,,,,,,186.25020340000037,186.26558270000032,186.74941590000026,186.75404990000015,186.77254930000026,187.43311970000013,,,,,187.4333115000004,187.4482395,187.6487616000004,187.63278880000007,186.77254930000026,,,,,,,,1,1,0.6511144999999487,None,,,,,,,,815,22,V,R,2026-02-25_11h28.33.412,VisualSearch_2526_3,,2025.2.4,2026-02-25 11h28.33.710612 +0100,
tilted.xlsx,The target is tilted.,117,41,1,5,0,0,0,0,0,0,0,0,0,0,0,0,1,1,1,117,space,8.462244499999997,None,0,1,0.7348458000001301,None,space,16.848184100000253,None,0,0,0,0,,,,,5,1,41,7,187.6487616000004,,,,,,,,,,,,,,,,,,,,,187.63358930000004,187.6487616000004,188.1327011000003,188.13768900000014,188.15666550000014,188.89966870000035,,,,,188.89986399999998,188.91459480000003,189.11500270000033,189.09892900000023,188.15666550000014,,,,,,,,0,1,0.7348458000001301,None,,,,,,,,815,22,V,R,2026-02-25_11h28.33.412,VisualSearch_2526_3,,2025.2.4,2026-02-25 11h28.33.710612 +0100,
tilted.xlsx,The target is tilted.,117,42,2,5,1,1,1,1,1,1,1,1,0,0,0,0,0,7,8,117,space,8.462244499999997,None,1,1,0.8638012000001254,None,space,16.848184100000253,None,0,0,0,0,,,,,5,2,42,1,189.11500270000033,,,,,,,,,,,,,,,,,,,,,189.09974170000032,189.11500270000033,189.59908350000023,189.60363010000037,189.62195580000025,190.4990775000001,,,,,190.4992827000001,190.51458230000026,190.71490059999996,190.6988279000002,189.62195580000025,,,,,,,,1,1,0.8638012000001254,None,,,,,,,,815,22,V,R,2026-02-25_11h28.33.412,VisualSearch_2526_3,,2025.2.4,2026-02-25 11h28.33.710612 +0100,
tilted.xlsx,The target is tilted.,117,43,3,5,1,1,1,1,1,1,1,1,1,1,1,1,0,11,12,117,space,8.462244499999997,None,1,1,0.6813382000000274,None,space,16.848184100000253,None,0,0,0,0,,,,,5,3,43,0,190.71490059999996,,,,,,,,,,,,,,,,,,,,,190.6997276000002,190.71490059999996,191.19883750000008,191.2033389000003,191.22159020000026,191.91586010000037,,,,,191.91605210000034,191.93093240000007,192.13147630000003,192.1151936000001,191.22159020000026,,,,,,,,1,1,0.6813382000000274,None,,,,,,,,815,22,V,R,2026-02-25_11h28.33.412,VisualSearch_2526_3,,2025.2.4,2026-02-25 11h28.33.710612 +0100,
tilted.xlsx,The target is tilted.,117,44,4,5,0,1,1,1,1,1,1,1,0,0,0,0,1,7,8,117,space,8.462244499999997,None,1,0,1.5966843000001063,None,space,16.848184100000253,None,0,0,0,0,,,,,5,4,44,5,192.13147630000003,,,,,,,,,,,,,,,,,,,,,192.1159216000001,192.13147630000003,192.61479810000037,192.61945430000014,192.63840430000027,194.2483573000004,,,,,194.2485515000003,194.2637378000004,194.4643769000004,194.44828210000014,192.63840430000027,,,,,,,,1,0,1.5966843000001063,None,,,,,,,,815,22,V,R,2026-02-25_11h28.33.412,VisualSearch_2526_3,,2025.2.4,2026-02-25 11h28.33.710612 +0100,
tilted.xlsx,The target is tilted.,117,45,5,5,0,1,1,1,1,1,1,1,1,1,1,1,1,11,12,117,space,8.462244499999997,None,1,0,1.2530993000000308,None,space,16.848184100000253,None,0,0,0,0,,,,,5,5,45,4,194.4643769000004,,,,,,,,,,,,,,,,,,,,,194.44901660000005,194.4643769000004,194.94817980000016,194.95289720000028,194.97178750000012,196.23187420000022,,,,,196.23207170000023,196.24702160000015,196.4470567000003,196.43120560000034,194.97178750000012,,,,,,,,1,0,1.2530993000000308,None,,,,,,,,815,22,V,R,2026-02-25_11h28.33.412,VisualSearch_2526_3,,2025.2.4,2026-02-25 11h28.33.710612 +0100,
tilted.xlsx,The target is tilted.,117,46,6,5,0,1,1,1,0,0,0,0,0,0,0,0,1,3,4,117,space,8.462244499999997,None,0,1,2.50277879999976,None,space,16.848184100000253,None,0,0,0,0,,,,,5,6,46,6,196.4470567000003,,,,,,,,,,,,,,,,,,,,,196.43194870000025,196.4470567000003,196.9312329000004,196.93598550000024,196.95510430000013,199.46461050000016,,,,,199.4648043000002,199.4798896000002,199.68033890000015,199.66390660000025,196.95510430000013,,,,,,,,0,1,2.50277879999976,None,,,,,,,,815,22,V,R,2026-02-25_11h28.33.412,VisualSearch_2526_3,,2025.2.4,2026-02-25 11h28.33.710612 +0100,
tilted.xlsx,The target is tilted.,117,47,7,5,1,1,1,1,0,0,0,0,0,0,0,0,0,3,4,117,space,8.462244499999997,None,1,1,1.5228776999997535,None,space,16.848184100000253,None,0,0,0,0,,,,,5,7,47,2,199.68033890000015,,,,,,,,,,,,,,,,,,,,,199.66463390000035,199.68033890000015,200.1641141,200.1688282,200.18796250000014,201.71416339999996,,,,,201.7143599000001,201.72955430000002,201.92992490000006,201.9134623,200.18796250000014,,,,,,,,1,1,1.5228776999997535,None,,,,,,,,815,22,V,R,2026-02-25_11h28.33.412,VisualSearch_2526_3,,2025.2.4,2026-02-25 11h28.33.710612 +0100,
tilted.xlsx,The target is tilted.,117,48,0,6,1,1,1,1,0,0,0,0,0,0,0,0,0,3,4,117,space,8.462244499999997,None,1,1,0.919844699999885,None,space,16.848184100000253,None,0,0,0,0,,,,,6,0,48,2,201.92992490000006,,,,,,,,,,,,,,,,,,,,,201.91420270000026,201.92992490000006,202.41394050000008,202.41875800000025,202.43781490000038,203.3640919000004,,,,,203.36428530000012,203.37907170000017,203.57978110000022,203.56382950000034,202.43781490000038,,,,,,,,1,1,0.919844699999885,None,,,,,,,,815,22,V,R,2026-02-25_11h28.33.412,VisualSearch_2526_3,,2025.2.4,2026-02-25 11h28.33.710612 +0100,
tilted.xlsx,The target is tilted.,117,49,1,6,1,1,1,1,1,1,1,1,0,0,0,0,0,7,8,117,space,8.462244499999997,None,1,1,1.2322119000000384,None,space,16.848184100000253,None,0,0,0,0,,,,,6,1,49,1,203.57978110000022,,,,,,,,,,,,,,,,,,,,,203.5645639000004,203.57978110000022,204.06366720000005,204.06824840000036,204.08281400000033,205.33019110000032,,,,,205.33038620000025,205.3456583000002,205.54614830000037,205.5300298000002,204.08281400000033,,,,,,,,1,1,1.2322119000000384,None,,,,,,,,815,22,V,R,2026-02-25_11h28.33.412,VisualSearch_2526_3,,2025.2.4,2026-02-25 11h28.33.710612 +0100,
tilted.xlsx,The target is tilted.,117,50,2,6,0,1,1,1,1,1,1,1,1,1,1,1,1,11,12,117,space,8.462244499999997,None,1,0,0.9025649999998677,None,space,16.848184100000253,None,0,0,0,0,,,,,6,2,50,4,205.54614830000037,,,,,,,,,,,,,,,,,,,,,205.53085929999997,205.54614830000037,206.0300400000001,206.03458920000003,206.04594270000007,206.96308720000025,,,,,206.96324350000032,206.97853320000013,207.17933100000027,207.1630709000001,206.04594270000007,,,,,,,,1,0,0.9025649999998677,None,,,,,,,,815,22,V,R,2026-02-25_11h28.33.412,VisualSearch_2526_3,,2025.2.4,2026-02-25 11h28.33.710612 +0100,
tilted.xlsx,The target is tilted.,117,51,3,6,1,1,1,1,1,1,1,1,1,1,1,1,0,11,12,117,space,8.462244499999997,None,1,1,1.690810600000077,None,space,16.848184100000253,None,0,0,0,0,,,,,6,3,51,0,207.17933100000027,,,,,,,,,,,,,,,,,,,,,207.16381050000018,207.17933100000027,207.66315720000011,207.6676438000004,207.68602770000007,209.3801725000003,,,,,209.3804068000004,209.39512950000017,209.5953558000001,209.57912870000018,207.68602770000007,,,,,,,,1,1,1.690810600000077,None,,,,,,,,815,22,V,R,2026-02-25_11h28.33.412,VisualSearch_2526_3,,2025.2.4,2026-02-25 11h28.33.710612 +0100,
tilted.xlsx,The target is tilted.,117,52,4,6,1,0,0,0,0,0,0,0,0,0,0,0,0,0,1,117,space,8.462244499999997,None,1,1,0.9738227000002553,None,space,16.848184100000253,None,0,0,0,0,,,,,6,4,52,3,209.5953558000001,,,,,,,,,,,,,,,,,,,,,209.57994800000006,209.5953558000001,210.07945970000037,210.08414510000011,210.10375590000012,211.07982740000034,,,,,211.08004359999995,211.09462440000016,211.29498720000038,211.27929100000028,210.10375590000012,,,,,,,,1,1,0.9738227000002553,None,,,,,,,,815,22,V,R,2026-02-25_11h28.33.412,VisualSearch_2526_3,,2025.2.4,2026-02-25 11h28.33.710612 +0100,
tilted.xlsx,The target is tilted.,117,53,5,6,0,1,1,1,0,0,0,0,0,0,0,0,1,3,4,117,space,8.462244499999997,None,1,0,1.0911987999998018,None,space,16.848184100000253,None,0,0,0,0,,,,,6,5,53,6,211.29498720000038,,,,,,,,,,,,,,,,,,,,,211.28003620000027,211.29498720000038,211.77909350000027,211.78366040000037,211.80201590000024,212.89622540000028,,,,,212.89643400000023,212.91128660000004,213.1114593000002,213.09527070000013,211.80201590000024,,,,,,,,1,0,1.0911987999998018,None,,,,,,,,815,22,V,R,2026-02-25_11h28.33.412,VisualSearch_2526_3,,2025.2.4,2026-02-25 11h28.33.710612 +0100,
tilted.xlsx,The target is tilted.,117,54,6,6,0,0,0,0,0,0,0,0,0,0,0,0,1,1,1,117,space,8.462244499999997,None,0,1,0.698504899999989,None,space,16.848184100000253,None,0,0,0,0,,,,,6,6,54,7,213.1114593000002,,,,,,,,,,,,,,,,,,,,,213.09600769999997,213.1114593000002,213.5957067000004,213.60073680000005,213.6189359,214.3293923000001,,,,,214.32958320000034,214.34442530000024,214.54485390000036,214.52846050000016,213.6189359,,,,,,,,0,1,0.698504899999989,None,,,,,,,,815,22,V,R,2026-02-25_11h28.33.412,VisualSearch_2526_3,,2025.2.4,2026-02-25 11h28.33.710612 +0100,
tilted.xlsx,The target is tilted.,117,55,7,6,0,1,1,1,1,1,1,1,0,0,0,0,1,7,8,117,space,8.462244499999997,None,1,0,1.306366799999978,None,space,16.848184100000253,None,0,0,0,0,,,,,6,7,55,5,214.54485390000036,,,,,,,,,,,,,,,,,,,,,214.52926090000028,214.54485390000036,215.02876050000032,215.03326100000004,215.0516603000001,216.3621261000003,,,,,216.3623209000002,216.37750040000037,216.5775933,216.56174310000006,215.0516603000001,,,,,,,,1,0,1.306366799999978,None,,,,,,,,815,22,V,R,2026-02-25_11h28.33.412,VisualSearch_2526_3,,2025.2.4,2026-02-25 11h28.33.710612 +0100,
tilted.xlsx,The target is tilted.,117,56,0,7,1,1,1,1,1,1,1,1,1,1,1,1,0,11,12,117,space,8.462244499999997,None,1,1,1.1926500999998098,None,space,16.848184100000253,None,0,0,0,0,,,,,7,0,56,0,216.5775933,,,,,,,,,,,,,,,,,,,,,216.56251780000002,216.5775933,217.06079910000017,217.06297660000018,217.07783530000006,218.27855220000038,,,,,218.27874440000005,218.2938763000002,218.49396820000038,218.47821060000024,217.07783530000006,,,,,,,,1,1,1.1926500999998098,None,,,,,,,,815,22,V,R,2026-02-25_11h28.33.412,VisualSearch_2526_3,,2025.2.4,2026-02-25 11h28.33.710612 +0100,
tilted.xlsx,The target is tilted.,117,57,1,7,0,1,1,1,0,0,0,0,0,0,0,0,1,3,4,117,space,8.462244499999997,None,1,0,1.7311563999996906,None,space,16.848184100000253,None,0,0,0,0,,,,,7,1,57,6,218.49396820000038,,,,,,,,,,,,,,,,,,,,,218.47893180000028,218.49396820000038,218.97830920000024,218.98303269999997,219.00222490000033,220.74503080000022,,,,,220.74522909999996,220.7600324,220.9605818,220.94401330000028,219.00222490000033,,,,,,,,1,0,1.7311563999996906,None,,,,,,,,815,22,V,R,2026-02-25_11h28.33.412,VisualSearch_2526_3,,2025.2.4,2026-02-25 11h28.33.710612 +0100,
tilted.xlsx,The target is tilted.,117,58,2,7,0,1,1,1,1,1,1,1,1,1,1,1,1,11,12,117,space,8.462244499999997,None,1,0,0.8768102000003637,None,space,16.848184100000253,None,0,0,0,0,,,,,7,2,58,4,220.9605818,,,,,,,,,,,,,,,,,,,,,220.9447468000003,220.9605818,221.4442092000004,221.44886470000029,221.46791180000037,222.36110810000037,,,,,222.36131090000026,222.37640980000015,222.57711050000034,222.56084510000028,221.46791180000037,,,,,,,,1,0,0.8768102000003637,None,,,,,,,,815,22,V,R,2026-02-25_11h28.33.412,VisualSearch_2526_3,,2025.2.4,2026-02-25 11h28.33.710612 +0100,
tilted.xlsx,The target is tilted.,117,59,3,7,1,1,1,1,1,1,1,1,0,0,0,0,0,7,8,117,space,8.462244499999997,None,1,1,1.4711682000001929,None,space,16.848184100000253,None,0,0,0,0,,,,,7,3,59,1,222.57711050000034,,,,,,,,,,,,,,,,,,,,,222.56158649999998,222.57711050000034,223.06095660000028,223.06553210000038,223.08450370000037,224.5611087000002,,,,,224.56129959999998,224.576325,224.77687650000007,224.76066050000009,223.08450370000037,,,,,,,,1,1,1.4711682000001929,None,,,,,,,,815,22,V,R,2026-02-25_11h28.33.412,VisualSearch_2526_3,,2025.2.4,2026-02-25 11h28.33.710612 +0100,
tilted.xlsx,The target is tilted.,117,60,4,7,0,1,1,1,1,1,1,1,0,0,0,0,1,7,8,117,space,8.462244499999997,None,1,0,1.1305468000000474,None,space,16.848184100000253,None,0,0,0,0,,,,,7,4,60,5,224.77687650000007,,,,,,,,,,,,,,,,,,,,,224.7614749000004,224.77687650000007,225.2606993000004,225.2655304,225.28395850000015,226.42701140000008,,,,,226.42716990000008,226.44270200000028,226.64317310000024,226.6266066000003,225.28395850000015,,,,,,,,1,0,1.1305468000000474,None,,,,,,,,815,22,V,R,2026-02-25_11h28.33.412,VisualSearch_2526_3,,2025.2.4,2026-02-25 11h28.33.710612 +0100,
tilted.xlsx,The target is tilted.,117,61,5,7,1,0,0,0,0,0,0,0,0,0,0,0,0,0,1,117,space,8.462244499999997,None,1,1,0.6891230999999607,None,space,16.848184100000253,None,0,0,0,0,,,,,7,5,61,3,226.64317310000024,,,,,,,,,,,,,,,,,,,,,226.62735480000038,226.64317310000024,227.1268500000001,227.1317484000001,227.15072920000011,227.84375220000038,,,,,227.84394199999997,227.8591921000002,228.05959340000027,228.04351780000025,227.15072920000011,,,,,,,,1,1,0.6891230999999607,None,,,,,,,,815,22,V,R,2026-02-25_11h28.33.412,VisualSearch_2526_3,,2025.2.4,2026-02-25 11h28.33.710612 +0100,
tilted.xlsx,The target is tilted.,117,62,6,7,1,1,1,1,0,0,0,0,0,0,0,0,0,3,4,117,space,8.462244499999997,None,1,1,0.9844127999999728,None,space,16.848184100000253,None,0,0,0,0,,,,,7,6,62,2,228.05959340000027,,,,,,,,,,,,,,,,,,,,,228.0443032000003,228.05959340000027,228.5435222000001,228.5485061000004,228.5673339,229.56027300000005,,,,,229.56046360000028,229.5755968000003,229.77609470000016,229.76027040000008,228.5673339,,,,,,,,1,1,0.9844127999999728,None,,,,,,,,815,22,V,R,2026-02-25_11h28.33.412,VisualSearch_2526_3,,2025.2.4,2026-02-25 11h28.33.710612 +0100,
tilted.xlsx,The target is tilted.,117,63,7,7,0,0,0,0,0,0,0,0,0,0,0,0,1,1,1,117,space,8.462244499999997,None,0,1,0.910402399999839,None,space,16.848184100000253,None,0,0,0,0,,,,,7,7,63,7,229.77609470000016,,,,,,,,,,,,,,,,,,,,,229.76128850000032,229.77609470000016,230.2598763000001,230.26456380000036,230.28346340000007,231.20995519999997,,,,,231.2101501000002,231.22529320000012,231.42564130000028,231.40929700000015,230.28346340000007,,,,,,,,0,1,0.910402399999839,None,,,,,,,,815,22,V,R,2026-02-25_11h28.33.412,VisualSearch_2526_3,,2025.2.4,2026-02-25 11h28.33.710612 +0100,
tilted.xlsx,The target is tilted.,117,64,0,8,0,0,0,0,0,0,0,0,0,0,0,0,1,1,1,117,space,8.462244499999997,None,0,1,0.6648771000000124,None,space,16.848184100000253,None,0,0,0,0,,,,,8,0,64,7,231.42564130000028,,,,,,,,,,,,,,,,,,,,,231.40974370000004,231.42564130000028,231.90898110000035,231.9116766000002,231.92557980000038,232.59351319999996,,,,,232.5937167000002,232.60851120000007,232.80897490000007,232.79271749999998,231.92557980000038,,,,,,,,0,1,0.6648771000000124,None,,,,,,,,815,22,V,R,2026-02-25_11h28.33.412,VisualSearch_2526_3,,2025.2.4,2026-02-25 11h28.33.710612 +0100,
tilted.xlsx,The target is tilted.,117,65,1,8,1,1,1,1,1,1,1,1,1,1,1,1,0,11,12,117,space,8.462244499999997,None,1,1,1.208041399999729,None,space,16.848184100000253,None,0,0,0,0,,,,,8,1,65,0,232.80897490000007,,,,,,,,,,,,,,,,,,,,,232.7934411000001,232.80897490000007,233.29299140000012,233.29782790000036,233.30872420000014,234.52646390000018,,,,,234.52665770000021,234.54160500000035,234.74206760000015,234.72580510000034,233.30872420000014,,,,,,,,1,1,1.208041399999729,None,,,,,,,,815,22,V,R,2026-02-25_11h28.33.412,VisualSearch_2526_3,,2025.2.4,2026-02-25 11h28.33.710612 +0100,
tilted.xlsx,The target is tilted.,117,66,2,8,1,0,0,0,0,0,0,0,0,0,0,0,0,0,1,117,space,8.462244499999997,None,1,1,0.8965818000001491,None,space,16.848184100000253,None,0,0,0,0,,,,,8,2,66,3,234.74206760000015,,,,,,,,,,,,,,,,,,,,,234.72653470000023,234.74206760000015,235.22564090000014,235.23065080000015,235.2501926,236.15852410000025,,,,,236.15864280000005,236.17450929999995,,236.35893310000029,235.2501926,,,,,,,,1,1,0.8965818000001491,None,,,,,,,,815,22,V,R,2026-02-25_11h28.33.412,VisualSearch_2526_3,,2025.2.4,2026-02-25 11h28.33.710612 +0100,
tilted.xlsx,The target is tilted.,117,67,3,8,0,1,1,1,0,0,0,0,0,0,0,0,1,3,4,117,space,8.462244499999997,None,1,0,1.3526362000002337,None,space,16.848184100000253,None,0,0,0,0,,,,,8,3,67,6,236.37508500000013,,,,,,,,,,,,,,,,,,,,,236.3597910000003,236.37508500000013,236.85875269999997,236.86348320000025,236.88233690000015,238.24216760000036,,,,,238.2423117000003,238.25769830000036,238.45828200000005,238.44206030000032,,,,,,,,,1,0,1.3526362000002337,None,,,,,,,,815,22,V,R,2026-02-25_11h28.33.412,VisualSearch_2526_3,,2025.2.4,2026-02-25 11h28.33.710612 +0100,
tilted.xlsx,The target is tilted.,117,68,4,8,1,1,1,1,1,1,1,1,0,0,0,0,0,7,8,117,space,8.462244499999997,None,1,1,0.8427999999998974,None,space,16.848184100000253,None,0,0,0,0,,,,,8,4,68,1,238.45828200000005,,,,,,,,,,,,,,,,,,,,,238.44277899999997,238.45828200000005,238.9419151000002,238.94658160000017,238.96606610000026,239.82451720000017,,,,,239.82463460000008,239.8410614000004,,240.02488100000028,238.96606610000026,,,,,,,,1,1,0.8427999999998974,None,,,,,,,,815,22,V,R,2026-02-25_11h28.33.412,VisualSearch_2526_3,,2025.2.4,2026-02-25 11h28.33.710612 +0100,
tilted.xlsx,The target is tilted.,117,69,5,8,0,1,1,1,1,1,1,1,0,0,0,0,1,7,8,117,space,8.462244499999997,None,1,0,1.1677809999996498,None,space,16.848184100000253,None,0,0,0,0,,,,,8,5,69,5,240.04135940000015,,,,,,,,,,,,,,,,,,,,,240.02571320000015,240.04135940000015,240.52490530000023,240.52952000000005,240.54905420000023,241.7253195000003,,,,,241.7255100000002,241.74054490000026,241.94098299999996,241.92462620000015,240.54905420000023,,,,,,,,1,0,1.1677809999996498,None,,,,,,,,815,22,V,R,2026-02-25_11h28.33.412,VisualSearch_2526_3,,2025.2.4,2026-02-25 11h28.33.710612 +0100,
tilted.xlsx,The target is tilted.,117,70,6,8,1,1,1,1,0,0,0,0,0,0,0,0,0,3,4,117,space,8.462244499999997,None,1,1,1.1684685000000172,None,space,16.848184100000253,None,0,0,0,0,,,,,8,6,70,2,241.94098299999996,,,,,,,,,,,,,,,,,,,,,241.9253448000004,241.94098299999996,242.4247666000001,242.42963050000026,242.44860280000012,243.62524650000023,,,,,243.62541360000023,243.6402819,243.84070380000003,243.82420730000013,242.44860280000012,,,,,,,,1,1,1.1684685000000172,None,,,,,,,,815,22,V,R,2026-02-25_11h28.33.412,VisualSearch_2526_3,,2025.2.4,2026-02-25 11h28.33.710612 +0100,
tilted.xlsx,The target is tilted.,117,71,7,8,0,1,1,1,1,1,1,1,1,1,1,1,1,11,12,117,space,8.462244499999997,None,1,0,0.9552903000003425,None,space,16.848184100000253,None,0,0,0,0,,,,,8,7,71,4,243.84070380000003,,,,,,,,,,,,,,,,,,,,,243.82494399999996,243.84070380000003,244.32419419999997,244.32886310000004,244.34772390000035,245.3081658000001,,,,,245.30835640000032,245.3233081000003,245.52372370000012,245.50765560000036,244.34772390000035,,,,,,,,1,0,0.9552903000003425,None,,,,,,,,815,22,V,R,2026-02-25_11h28.33.412,VisualSearch_2526_3,,2025.2.4,2026-02-25 11h28.33.710612 +0100,
tilted.xlsx,The target is tilted.,117,72,0,9,0,1,1,1,1,1,1,1,0,0,0,0,1,7,8,117,space,8.462244499999997,None,1,0,0.7751101000003473,None,space,16.848184100000253,None,0,0,0,0,,,,,9,0,72,5,245.52372370000012,,,,,,,,,,,,,,,,,,,,,245.50840430000017,245.52372370000012,246.00761409999996,246.01205370000025,246.02349820000018,246.80768680000028,,,,,246.80787420000024,246.82295220000015,247.02371380000022,247.00744380000015,246.02349820000018,,,,,,,,1,0,0.7751101000003473,None,,,,,,,,815,22,V,R,2026-02-25_11h28.33.412,VisualSearch_2526_3,,2025.2.4,2026-02-25 11h28.33.710612 +0100,
tilted.xlsx,The target is tilted.,117,73,1,9,1,1,1,1,1,1,1,1,0,0,0,0,0,7,8,117,space,8.462244499999997,None,1,1,0.8979931999997461,None,space,16.848184100000253,None,0,0,0,0,,,,,9,1,73,1,247.02371380000022,,,,,,,,,,,,,,,,,,,,,247.00828150000007,247.02371380000022,247.50751050000008,247.51314560000037,247.52680670000018,248.44057199999997,,,,,248.44077920000018,248.45605300000034,248.65674460000037,248.64061850000007,247.52680670000018,,,,,,,,1,1,0.8979931999997461,None,,,,,,,,815,22,V,R,2026-02-25_11h28.33.412,VisualSearch_2526_3,,2025.2.4,2026-02-25 11h28.33.710612 +0100,
tilted.xlsx,The target is tilted.,117,74,2,9,1,0,0,0,0,0,0,0,0,0,0,0,0,0,1,117,space,8.462244499999997,None,1,1,0.730816600000253,None,space,16.848184100000253,None,0,0,0,0,,,,,9,2,74,3,248.65674460000037,,,,,,,,,,,,,,,,,,,,,248.64149100000031,248.65674460000037,249.14057880000018,249.14502489999995,249.15647850000005,249.8906579000004,,,,,249.89086720000023,249.90608770000017,250.1065079,250.09037370000033,249.15647850000005,,,,,,,,1,1,0.730816600000253,None,,,,,,,,815,22,V,R,2026-02-25_11h28.33.412,VisualSearch_2526_3,,2025.2.4,2026-02-25 11h28.33.710612 +0100,
tilted.xlsx,The target is tilted.,117,75,3,9,0,1,1,1,0,0,0,0,0,0,0,0,1,3,4,117,space,8.462244499999997,None,1,0,2.288242799999807,None,space,16.848184100000253,None,0,0,0,0,,,,,9,3,75,6,250.1065079,,,,,,,,,,,,,,,,,,,,,250.0910697000004,250.1065079,250.59009940000033,250.59479910000027,250.61366240000007,252.90709630000038,,,,,252.90728639999998,252.9222888000004,253.12296770000012,253.1067589000004,250.61366240000007,,,,,,,,1,0,2.288242799999807,None,,,,,,,,815,22,V,R,2026-02-25_11h28.33.412,VisualSearch_2526_3,,2025.2.4,2026-02-25 11h28.33.710612 +0100,
tilted.xlsx,The target is tilted.,117,76,4,9,1,1,1,1,0,0,0,0,0,0,0,0,0,3,4,117,space,8.462244499999997,None,1,1,1.407178599999952,None,space,16.848184100000253,None,0,0,0,0,,,,,9,4,76,2,253.12296770000012,,,,,,,,,,,,,,,,,,,,,253.1075476000001,253.12296770000012,253.60653130000037,253.61096190000035,253.6291215000001,255.0398637000003,,,,,255.04004980000036,255.05523410000023,255.25578020000012,255.23976040000025,253.6291215000001,,,,,,,,1,1,1.407178599999952,None,,,,,,,,815,22,V,R,2026-02-25_11h28.33.412,VisualSearch_2526_3,,2025.2.4,2026-02-25 11h28.33.710612 +0100,
tilted.xlsx,The target is tilted.,117,77,5,9,0,0,0,0,0,0,0,0,0,0,0,0,1,1,1,117,space,8.462244499999997,None,0,1,0.7822651999999835,None,space,16.848184100000253,None,0,0,0,0,,,,,9,5,77,7,255.25578020000012,,,,,,,,,,,,,,,,,,,,,255.24054890000025,255.25578020000012,255.73922919999995,255.7438499,255.76277900000014,256.5563752000003,,,,,256.5565649,256.57171990000006,256.7723393000001,256.7561818000004,255.76277900000014,,,,,,,,0,1,0.7822651999999835,None,,,,,,,,815,22,V,R,2026-02-25_11h28.33.412,VisualSearch_2526_3,,2025.2.4,2026-02-25 11h28.33.710612 +0100,
tilted.xlsx,The target is tilted.,117,78,6,9,1,1,1,1,1,1,1,1,1,1,1,1,0,11,12,117,space,8.462244499999997,None,1,1,1.6263672000000042,None,space,16.848184100000253,None,0,0,0,0,,,,,9,6,78,0,256.7723393000001,,,,,,,,,,,,,,,,,,,,,256.7568808000001,256.7723393000001,257.2558885000003,257.2605493000001,257.27213710000024,258.90629820000004,,,,,258.9064873000002,258.9214138000002,259.1219145,259.1053433000002,257.27213710000024,,,,,,,,1,1,1.6263672000000042,None,,,,,,,,815,22,V,R,2026-02-25_11h28.33.412,VisualSearch_2526_3,,2025.2.4,2026-02-25 11h28.33.710612 +0100,
tilted.xlsx,The target is tilted.,117,79,7,9,0,1,1,1,1,1,1,1,1,1,1,1,1,11,12,117,space,8.462244499999997,None,1,0,1.1339783999997053,None,space,16.848184100000253,None,0,0,0,0,,,,,9,7,79,4,259.1219145,,,,,,,,,,,,,,,,,,,,,259.1060663000003,259.1219145,259.60531990000027,259.60992650000026,259.6289251000003,260.7727474000003,,,,,260.77295760000015,260.78782160000037,260.98830369999996,260.9721638000001,259.6289251000003,,,,,,,,1,0,1.1339783999997053,None,,,,,,,,815,22,V,R,2026-02-25_11h28.33.412,VisualSearch_2526_3,,2025.2.4,2026-02-25 11h28.33.710612 +0100,
tilted.xlsx,The target is tilted.,117,80,0,10,0,1,1,1,1,1,1,1,1,1,1,1,1,11,12,117,space,8.462244499999997,None,1,0,1.108723099999679,None,space,16.848184100000253,None,0,0,0,0,,,,,10,0,80,4,260.98830369999996,,,,,,,,,,,,,,,,,,,,,260.9729051000004,260.98830369999996,261.4718979000004,261.47679560000006,261.4949947,262.60545690000026,,,,,262.6056470000003,262.6208952000002,262.82137790000024,262.80510920000006,261.4949947,,,,,,,,1,0,1.108723099999679,None,,,,,,,,815,22,V,R,2026-02-25_11h28.33.412,VisualSearch_2526_3,,2025.2.4,2026-02-25 11h28.33.710612 +0100,
tilted.xlsx,The target is tilted.,117,81,1,10,0,1,1,1,0,0,0,0,0,0,0,0,1,3,4,117,space,8.462244499999997,None,0,1,1.4935245000001487,None,space,16.848184100000253,None,0,0,0,0,,,,,10,1,81,6,262.82137790000024,,,,,,,,,,,,,,,,,,,,,262.80582030000005,262.82137790000024,263.3050596000003,263.3099473000002,263.32817620000014,264.8384092000001,,,,,264.83867250000003,264.8537027000002,265.05429730000014,265.0384623,263.32817620000014,,,,,,,,0,1,1.4935245000001487,None,,,,,,,,815,22,V,R,2026-02-25_11h28.33.412,VisualSearch_2526_3,,2025.2.4,2026-02-25 11h28.33.710612 +0100,
tilted.xlsx,The target is tilted.,117,82,2,10,1,1,1,1,1,1,1,1,0,0,0,0,0,7,8,117,space,8.462244499999997,None,1,1,2.175607900000159,None,space,16.848184100000253,None,0,0,0,0,,,,,10,2,82,1,265.05429730000014,,,,,,,,,,,,,,,,,,,,,265.039272,265.05429730000014,265.5378582000003,265.54164230000015,265.55412300000035,267.73823300000004,,,,,267.7384337000003,267.75352350000003,267.9537911000002,267.9380183000003,265.55412300000035,,,,,,,,1,1,2.175607900000159,None,,,,,,,,815,22,V,R,2026-02-25_11h28.33.412,VisualSearch_2526_3,,2025.2.4,2026-02-25 11h28.33.710612 +0100,
tilted.xlsx,The target is tilted.,117,83,3,10,0,0,0,0,0,0,0,0,0,0,0,0,1,1,1,117,space,8.462244499999997,None,0,1,0.7470428999999967,None,space,16.848184100000253,None,0,0,0,0,,,,,10,3,83,7,267.9537911000002,,,,,,,,,,,,,,,,,,,,,267.93882329999997,267.9537911000002,268.4370528000004,268.4388621000003,268.45343460000004,269.2045928000002,,,,,269.20478120000007,269.21995890000017,269.42045270000017,269.4041594,268.45343460000004,,,,,,,,0,1,0.7470428999999967,None,,,,,,,,815,22,V,R,2026-02-25_11h28.33.412,VisualSearch_2526_3,,2025.2.4,2026-02-25 11h28.33.710612 +0100,
tilted.xlsx,The target is tilted.,117,84,4,10,1,1,1,1,0,0,0,0,0,0,0,0,0,3,4,117,space,8.462244499999997,None,1,1,0.9409430000000611,None,space,16.848184100000253,None,0,0,0,0,,,,,10,4,84,2,269.42045270000017,,,,,,,,,,,,,,,,,,,,,269.4048947000001,269.42045270000017,269.90411059999997,269.90861110000014,269.92676640000036,270.8710999,,,,,270.8712908000002,270.8867894,271.08686510000007,271.0707245000003,269.92676640000036,,,,,,,,1,1,0.9409430000000611,None,,,,,,,,815,22,V,R,2026-02-25_11h28.33.412,VisualSearch_2526_3,,2025.2.4,2026-02-25 11h28.33.710612 +0100,
tilted.xlsx,The target is tilted.,117,85,5,10,1,0,0,0,0,0,0,0,0,0,0,0,0,0,1,117,space,8.462244499999997,None,1,1,0.9936794000000191,None,space,16.848184100000253,None,0,0,0,0,,,,,10,5,85,3,271.08686510000007,,,,,,,,,,,,,,,,,,,,,271.0714624000002,271.08686510000007,271.57025380000005,271.57337800000005,271.58655940000017,272.5876873000002,,,,,272.5878749000003,272.6029351000002,272.80332350000026,272.7872907000001,271.58655940000017,,,,,,,,1,1,0.9936794000000191,None,,,,,,,,815,22,V,R,2026-02-25_11h28.33.412,VisualSearch_2526_3,,2025.2.4,2026-02-25 11h28.33.710612 +0100,
tilted.xlsx,The target is tilted.,117,86,6,10,1,1,1,1,1,1,1,1,1,1,1,1,0,11,12,117,space,8.462244499999997,None,1,1,0.8719782000002851,None,space,16.848184100000253,None,0,0,0,0,,,,,10,6,86,0,272.80332350000026,,,,,,,,,,,,,,,,,,,,,272.78809090000004,272.80332350000026,273.2871815000003,273.29201390000026,273.3031600000004,274.1874734000003,,,,,274.1876592000003,274.2029026,274.4031269000002,274.38707680000016,273.3031600000004,,,,,,,,1,1,0.8719782000002851,None,,,,,,,,815,22,V,R,2026-02-25_11h28.33.412,VisualSearch_2526_3,,2025.2.4,2026-02-25 11h28.33.710612 +0100,
tilted.xlsx,The target is tilted.,117,87,7,10,0,1,1,1,1,1,1,1,0,0,0,0,1,7,8,117,space,8.462244499999997,None,1,0,2.3165506999998797,None,space,16.848184100000253,None,0,0,0,0,,,,,10,7,87,5,274.4031269000002,,,,,,,,,,,,,,,,,,,,,274.38788760000034,274.4031269000002,274.88700530000006,274.8915019000001,274.9028992000003,277.2361234,,,,,277.23623880000014,277.25250970000025,277.45234310000023,277.4363182000002,274.9028992000003,,,,,,,,1,0,2.3165506999998797,None,,,,,,,,815,22,V,R,2026-02-25_11h28.33.412,VisualSearch_2526_3,,2025.2.4,2026-02-25 11h28.33.710612 +0100,
tilted.xlsx,The target is tilted.,117,88,0,11,1,1,1,1,1,1,1,1,1,1,1,1,0,11,12,117,space,8.462244499999997,None,1,1,1.3818664000000354,None,space,16.848184100000253,None,0,0,0,0,,,,,11,0,88,0,277.45234310000023,,,,,,,,,,,,,,,,,,,,,277.437015,277.45234310000023,277.93621729999995,277.94070469999997,277.9524542000004,279.33670789999996,,,,,279.33692450000035,279.3519551000004,279.55226700000003,279.53604410000025,277.9524542000004,,,,,,,,1,1,1.3818664000000354,None,,,,,,,,815,22,V,R,2026-02-25_11h28.33.412,VisualSearch_2526_3,,2025.2.4,2026-02-25 11h28.33.710612 +0100,
tilted.xlsx,The target is tilted.,117,89,1,11,0,1,1,1,1,1,1,1,0,0,0,0,1,7,8,117,space,8.462244499999997,None,1,0,0.6775077999996029,None,space,16.848184100000253,None,0,0,0,0,,,,,11,1,89,5,279.55226700000003,,,,,,,,,,,,,,,,,,,,,279.53677930000003,279.55226700000003,280.0360671000003,280.04067680000026,280.05962910000017,280.75308740000037,,,,,280.7532720000004,280.7686272000001,280.9687707000003,280.9524515000003,280.05962910000017,,,,,,,,1,0,0.6775077999996029,None,,,,,,,,815,22,V,R,2026-02-25_11h28.33.412,VisualSearch_2526_3,,2025.2.4,2026-02-25 11h28.33.710612 +0100,
tilted.xlsx,The target is tilted.,117,90,2,11,0,1,1,1,1,1,1,1,1,1,1,1,1,11,12,117,space,8.462244499999997,None,1,0,2.0076749999998356,None,space,16.848184100000253,None,0,0,0,0,,,,,11,2,90,4,280.9687707000003,,,,,,,,,,,,,,,,,,,,,280.95320089999996,280.9687707000003,281.45253120000007,281.4571262000004,281.4769798000002,283.48590660000036,,,,,283.4860921000004,283.50111700000025,283.70176390000006,283.68550300000015,281.4769798000002,,,,,,,,1,0,2.0076749999998356,None,,,,,,,,815,22,V,R,2026-02-25_11h28.33.412,VisualSearch_2526_3,,2025.2.4,2026-02-25 11h28.33.710612 +0100,
tilted.xlsx,The target is tilted.,117,91,3,11,0,0,0,0,0,0,0,0,0,0,0,0,1,1,1,117,space,8.462244499999997,None,0,1,0.7085485000002336,None,space,16.848184100000253,None,0,0,0,0,,,,,11,3,91,7,283.70176390000006,,,,,,,,,,,,,,,,,,,,,283.6862420000002,283.70176390000006,284.18541830000004,284.19010640000033,284.20894799999996,284.9190407000001,,,,,284.9192285000004,284.93441980000034,285.13467560000026,285.1185034,284.20894799999996,,,,,,,,0,1,0.7085485000002336,None,,,,,,,,815,22,V,R,2026-02-25_11h28.33.412,VisualSearch_2526_3,,2025.2.4,2026-02-25 11h28.33.710612 +0100,
tilted.xlsx,The target is tilted.,117,92,4,11,0,1,1,1,0,0,0,0,0,0,0,0,1,3,4,117,space,8.462244499999997,None,1,0,1.7104638999999224,None,space,16.848184100000253,None,0,0,0,0,,,,,11,4,92,6,285.13467560000026,,,,,,,,,,,,,,,,,,,,,285.1192941000004,285.13467560000026,285.61823619999996,285.62274760000037,285.6402644,287.3523126,,,,,287.3525009,287.3677716000002,287.5674584000003,287.55185040000015,285.6402644,,,,,,,,1,0,1.7104638999999224,None,,,,,,,,815,22,V,R,2026-02-25_11h28.33.412,VisualSearch_2526_3,,2025.2.4,2026-02-25 11h28.33.710612 +0100,
tilted.xlsx,The target is tilted.,117,93,5,11,1,1,1,1,0,0,0,0,0,0,0,0,0,3,4,117,space,8.462244499999997,None,1,1,1.2525072999997064,None,space,16.848184100000253,None,0,0,0,0,,,,,11,5,93,2,287.5674584000003,,,,,,,,,,,,,,,,,,,,,287.55264780000016,287.5674584000003,288.0512401000001,288.0557660000004,288.07506920000014,289.33497080000006,,,,,289.3351587000002,289.35050090000004,289.55096520000006,289.5343791,288.07506920000014,,,,,,,,1,1,1.2525072999997064,None,,,,,,,,815,22,V,R,2026-02-25_11h28.33.412,VisualSearch_2526_3,,2025.2.4,2026-02-25 11h28.33.710612 +0100,
tilted.xlsx,The target is tilted.,117,94,6,11,1,0,0,0,0,0,0,0,0,0,0,0,0,0,1,117,space,8.462244499999997,None,1,1,0.5571964000000662,None,space,16.848184100000253,None,0,0,0,0,,,,,11,6,94,3,289.55096520000006,,,,,,,,,,,,,,,,,,,,,289.5351323,289.55096520000006,290.0342904000004,290.0388905,290.0578214000002,290.6183009000001,,,,,290.61848850000024,290.6340385000003,290.8336502000002,290.8178828,290.0578214000002,,,,,,,,1,1,0.5571964000000662,None,,,,,,,,815,22,V,R,2026-02-25_11h28.33.412,VisualSearch_2526_3,,2025.2.4,2026-02-25 11h28.33.710612 +0100,
tilted.xlsx,The target is tilted.,117,95,7,11,1,1,1,1,1,1,1,1,0,0,0,0,0,7,8,117,space,8.462244499999997,None,1,1,1.0077739999996993,None,space,16.848184100000253,None,0,0,0,0,,,,,11,7,95,1,290.8336502000002,,,,,,,,,,,,,,,,,,,,,290.8185860000003,290.8336502000002,291.31748140000036,291.3221335000003,291.34104620000016,292.35163690000036,,,,,292.35190660000035,292.36698780000006,292.56668000000036,292.55058280000003,291.34104620000016,,,,,,,,1,1,1.0077739999996993,None,,,,,,,,815,22,V,R,2026-02-25_11h28.33.412,VisualSearch_2526_3,,2025.2.4,2026-02-25 11h28.33.710612 +0100,
tilted.xlsx,The target is tilted.,117,96,0,12,0,1,1,1,1,1,1,1,1,1,1,1,1,11,12,117,space,8.462244499999997,None,1,0,1.6224013000000923,None,space,16.848184100000253,None,0,0,0,0,,,,,12,0,96,4,292.56668000000036,,,,,,,,,,,,,,,,,,,,,292.55102990000023,292.56668000000036,293.05058750000035,293.0533795000001,293.0664974000001,294.70083999999997,,,,,294.7009816,294.7168108000001,294.91677610000033,294.90047470000036,293.0664974000001,,,,,,,,1,0,1.6224013000000923,None,,,,,,,,815,22,V,R,2026-02-25_11h28.33.412,VisualSearch_2526_3,,2025.2.4,2026-02-25 11h28.33.710612 +0100,
tilted.xlsx,The target is tilted.,117,97,1,12,1,1,1,1,1,1,1,1,0,0,0,0,0,7,8,117,space,8.462244499999997,None,1,1,0.9342781999998806,None,space,16.848184100000253,None,0,0,0,0,,,,,12,1,97,1,294.91677610000033,,,,,,,,,,,,,,,,,,,,,294.9012216000001,294.91677610000033,295.4002623000001,295.40481309999996,295.4234397,296.3676628000003,,,,,296.36785080000027,296.38296790000004,296.5830146000003,296.56725140000026,295.4234397,,,,,,,,1,1,0.9342781999998806,None,,,,,,,,815,22,V,R,2026-02-25_11h28.33.412,VisualSearch_2526_3,,2025.2.4,2026-02-25 11h28.33.710612 +0100,
tilted.xlsx,The target is tilted.,117,98,2,12,1,0,0,0,0,0,0,0,0,0,0,0,0,0,1,117,space,8.462244499999997,None,1,1,0.9332927000000382,None,space,16.848184100000253,None,0,0,0,0,,,,,12,2,98,3,296.5830146000003,,,,,,,,,,,,,,,,,,,,,296.5680418000002,296.5830146000003,297.06698350000033,297.07164720000037,297.09053270000004,298.0341096000002,,,,,298.0342975000003,298.0493047,298.24965120000024,298.2335916000002,297.09053270000004,,,,,,,,1,1,0.9332927000000382,None,,,,,,,,815,22,V,R,2026-02-25_11h28.33.412,VisualSearch_2526_3,,2025.2.4,2026-02-25 11h28.33.710612 +0100,
tilted.xlsx,The target is tilted.,117,99,3,12,0,1,1,1,1,1,1,1,0,0,0,0,1,7,8,117,space,8.462244499999997,None,1,0,1.1315270000000055,None,space,16.848184100000253,None,0,0,0,0,,,,,12,3,99,5,298.24965120000024,,,,,,,,,,,,,,,,,,,,,298.23433550000027,298.24965120000024,298.73351790000015,298.73803450000014,298.75639150000006,299.9004949,,,,,299.9006870000003,299.91591970000036,300.11605280000003,300.0998866,298.75639150000006,,,,,,,,1,0,1.1315270000000055,None,,,,,,,,815,22,V,R,2026-02-25_11h28.33.412,VisualSearch_2526_3,,2025.2.4,2026-02-25 11h28.33.710612 +0100,
tilted.xlsx,The target is tilted.,117,100,4,12,0,1,1,1,0,0,0,0,0,0,0,0,1,3,4,117,space,8.462244499999997,None,1,0,3.043406999999661,None,space,16.848184100000253,None,0,0,0,0,,,,,12,4,100,6,300.11605280000003,,,,,,,,,,,,,,,,,,,,,300.1006305000001,300.11605280000003,300.5995898000001,300.6042758000003,300.6237056,303.68265180000026,,,,,303.68279680000023,303.69877380000025,303.8987797,303.8826259000002,300.6237056,,,,,,,,1,0,3.043406999999661,None,,,,,,,,815,22,V,R,2026-02-25_11h28.33.412,VisualSearch_2526_3,,2025.2.4,2026-02-25 11h28.33.710612 +0100,
tilted.xlsx,The target is tilted.,117,101,5,12,1,1,1,1,0,0,0,0,0,0,0,0,0,3,4,117,space,8.462244499999997,None,1,1,0.9396652999998878,None,space,16.848184100000253,None,0,0,0,0,,,,,12,5,101,2,303.8987797,,,,,,,,,,,,,,,,,,,,,303.8833813000001,303.8987797,304.3825511,304.38712120000037,304.4058256000003,305.3487239000001,,,,,305.3488510000002,305.36450570000034,305.5653099000001,305.5489303000004,304.4058256000003,,,,,,,,1,1,0.9396652999998878,None,,,,,,,,815,22,V,R,2026-02-25_11h28.33.412,VisualSearch_2526_3,,2025.2.4,2026-02-25 11h28.33.710612 +0100,
tilted.xlsx,The target is tilted.,117,102,6,12,1,1,1,1,1,1,1,1,1,1,1,1,0,11,12,117,space,8.462244499999997,None,1,1,0.9755991000001814,None,space,16.848184100000253,None,0,0,0,0,,,,,12,6,102,0,305.5653099000001,,,,,,,,,,,,,,,,,,,,,305.5498173000001,305.5653099000001,306.04922950000037,306.0543052000003,306.07383000000027,307.0661584000004,,,,,307.066374,307.0817559000002,307.2816294000004,307.2654358,306.07383000000027,,,,,,,,1,1,0.9755991000001814,None,,,,,,,,815,22,V,R,2026-02-25_11h28.33.412,VisualSearch_2526_3,,2025.2.4,2026-02-25 11h28.33.710612 +0100,
tilted.xlsx,The target is tilted.,117,103,7,12,0,0,0,0,0,0,0,0,0,0,0,0,1,1,1,117,space,8.462244499999997,None,0,1,0.8547189000000799,None,space,16.848184100000253,None,0,0,0,0,,,,,12,7,103,7,307.2816294000004,,,,,,,,,,,,,,,,,,,,,307.26618150000013,307.2816294000004,307.7655956000003,307.7708186,307.78499150000016,308.64901690000033,,,,,308.6492043000003,308.6646346000002,308.8645851000001,308.84884680000005,307.78499150000016,,,,,,,,0,1,0.8547189000000799,None,,,,,,,,815,22,V,R,2026-02-25_11h28.33.412,VisualSearch_2526_3,,2025.2.4,2026-02-25 11h28.33.710612 +0100,
tilted.xlsx,The target is tilted.,117,104,0,13,1,0,0,0,0,0,0,0,0,0,0,0,0,0,1,117,space,8.462244499999997,None,1,1,0.9340892999998687,None,space,16.848184100000253,None,0,0,0,0,,,,,13,0,104,3,308.8645851000001,,,,,,,,,,,,,,,,,,,,,308.84974690000035,308.8645851000001,309.3487468000003,309.35405850000006,309.3736193,310.3155649,,,,,310.31575139999995,310.3311639000003,310.53116180000006,310.5149200000001,309.3736193,,,,,,,,1,1,0.9340892999998687,None,,,,,,,,815,22,V,R,2026-02-25_11h28.33.412,VisualSearch_2526_3,,2025.2.4,2026-02-25 11h28.33.710612 +0100,
tilted.xlsx,The target is tilted.,117,105,1,13,1,1,1,1,1,1,1,1,1,1,1,1,0,11,12,117,space,8.462244499999997,None,1,1,1.0343122999997831,None,space,16.848184100000253,None,0,0,0,0,,,,,13,1,105,0,310.53116180000006,,,,,,,,,,,,,,,,,,,,,310.5156573000004,310.53116180000006,311.01500590000023,311.0198554000003,311.0384306000001,312.08181090000016,,,,,312.0820082,312.0975370000001,312.29759250000006,312.28097890000026,311.0384306000001,,,,,,,,1,1,1.0343122999997831,None,,,,,,,,815,22,V,R,2026-02-25_11h28.33.412,VisualSearch_2526_3,,2025.2.4,2026-02-25 11h28.33.710612 +0100,
tilted.xlsx,The target is tilted.,117,106,2,13,1,1,1,1,1,1,1,1,0,0,0,0,0,7,8,117,space,8.462244499999997,None,1,1,1.514646200000243,None,space,16.848184100000253,None,0,0,0,0,,,,,13,2,106,1,312.29759250000006,,,,,,,,,,,,,,,,,,,,,312.2812321000001,312.29759250000006,312.7810790000003,312.7856313000002,312.8046002000001,314.33117730000004,,,,,314.33130140000003,314.3472318000004,314.5473554,314.5313569,312.8046002000001,,,,,,,,1,1,1.514646200000243,None,,,,,,,,815,22,V,R,2026-02-25_11h28.33.412,VisualSearch_2526_3,,2025.2.4,2026-02-25 11h28.33.710612 +0100,
tilted.xlsx,The target is tilted.,117,107,3,13,0,0,0,0,0,0,0,0,0,0,0,0,1,1,1,117,space,8.462244499999997,None,0,1,0.8992419000001064,None,space,16.848184100000253,None,0,0,0,0,,,,,13,3,107,7,314.5473554,,,,,,,,,,,,,,,,,,,,,314.5321407000001,314.5473554,315.03132860000005,315.03666680000015,315.05589210000016,315.96463360000007,,,,,315.9648199000003,315.98048900000003,316.18053899999995,316.16427780000004,315.05589210000016,,,,,,,,0,1,0.8992419000001064,None,,,,,,,,815,22,V,R,2026-02-25_11h28.33.412,VisualSearch_2526_3,,2025.2.4,2026-02-25 11h28.33.710612 +0100,
tilted.xlsx,The target is tilted.,117,108,4,13,0,1,1,1,0,0,0,0,0,0,0,0,1,3,4,117,space,8.462244499999997,None,1,0,1.8211169999999584,None,space,16.848184100000253,None,0,0,0,0,,,,,13,4,108,6,316.18053899999995,,,,,,,,,,,,,,,,,,,,,316.1650936000001,316.18053899999995,316.66424989999996,316.6692971000002,316.6882337000002,318.51345560000027,,,,,318.51357180000014,318.5297821000004,,318.7138639,316.6882337000002,,,,,,,,1,0,1.8211169999999584,None,,,,,,,,815,22,V,R,2026-02-25_11h28.33.412,VisualSearch_2526_3,,2025.2.4,2026-02-25 11h28.33.710612 +0100,
tilted.xlsx,The target is tilted.,117,109,5,13,0,1,1,1,1,1,1,1,1,1,1,1,1,11,12,117,space,8.462244499999997,None,1,0,0.9153257000002668,None,space,16.848184100000253,None,0,0,0,0,,,,,13,5,109,4,318.73012830000016,,,,,,,,,,,,,,,,,,,,,318.7147610000002,318.73012830000016,319.21386410000014,319.21844439999995,319.2373279000003,320.1643057000001,,,,,320.16449580000017,320.1794539000002,320.37983840000015,320.3635280000003,319.2373279000003,,,,,,,,1,0,0.9153257000002668,None,,,,,,,,815,22,V,R,2026-02-25_11h28.33.412,VisualSearch_2526_3,,2025.2.4,2026-02-25 11h28.33.710612 +0100,
tilted.xlsx,The target is tilted.,117,110,6,13,0,1,1,1,1,1,1,1,0,0,0,0,1,7,8,117,space,8.462244499999997,None,1,0,0.7907056000003649,None,space,16.848184100000253,None,0,0,0,0,,,,,13,6,110,5,320.37983840000015,,,,,,,,,,,,,,,,,,,,,320.3642791000002,320.37983840000015,320.8633117000004,320.86823700000014,320.8871798,321.68075620000036,,,,,321.6809551000001,321.6962873000002,321.8962539000004,321.8803167000001,320.8871798,,,,,,,,1,0,0.7907056000003649,None,,,,,,,,815,22,V,R,2026-02-25_11h28.33.412,VisualSearch_2526_3,,2025.2.4,2026-02-25 11h28.33.710612 +0100,
tilted.xlsx,The target is tilted.,117,111,7,13,1,1,1,1,0,0,0,0,0,0,0,0,0,3,4,117,space,8.462244499999997,None,1,1,1.0956008999996811,None,space,16.848184100000253,None,0,0,0,0,,,,,13,7,111,2,321.8962539000004,,,,,,,,,,,,,,,,,,,,,321.88111200000003,321.8962539000004,322.38004160000037,322.3845864,322.4032037000002,323.51381360000005,,,,,323.5140018000002,323.52890990000014,323.7293602,323.7131349000001,322.4032037000002,,,,,,,,1,1,1.0956008999996811,None,,,,,,,,815,22,V,R,2026-02-25_11h28.33.412,VisualSearch_2526_3,,2025.2.4,2026-02-25 11h28.33.710612 +0100,
tilted.xlsx,The target is tilted.,117,112,0,14,0,1,1,1,0,0,0,0,0,0,0,0,1,3,4,117,space,8.462244499999997,None,1,0,1.2605855000001611,None,space,16.848184100000253,None,0,0,0,0,,,,,14,0,112,6,323.7293602,,,,,,,,,,,,,,,,,,,,,323.7138828000002,323.7293602,324.2127369,324.21735260000014,324.2362583000004,325.5133611000001,,,,,325.5135475000002,325.52890879999995,325.7290949000003,325.71306970000023,324.2362583000004,,,,,,,,1,0,1.2605855000001611,None,,,,,,,,815,22,V,R,2026-02-25_11h28.33.412,VisualSearch_2526_3,,2025.2.4,2026-02-25 11h28.33.710612 +0100,
tilted.xlsx,The target is tilted.,117,113,1,14,0,1,1,1,1,1,1,1,1,1,1,1,1,11,12,117,space,8.462244499999997,None,1,0,1.310715000000073,None,space,16.848184100000253,None,0,0,0,0,,,,,14,1,113,4,325.7290949000003,,,,,,,,,,,,,,,,,,,,,325.71381820000033,325.7290949000003,326.2128130000001,326.21744050000007,326.2364259000001,327.56318050000027,,,,,327.5633703000003,327.5786498000002,327.7785509,327.76249670000016,326.2364259000001,,,,,,,,1,0,1.310715000000073,None,,,,,,,,815,22,V,R,2026-02-25_11h28.33.412,VisualSearch_2526_3,,2025.2.4,2026-02-25 11h28.33.710612 +0100,
tilted.xlsx,The target is tilted.,117,114,2,14,0,1,1,1,1,1,1,1,0,0,0,0,1,7,8,117,space,8.462244499999997,None,1,0,1.2755430999995951,None,space,16.848184100000253,None,0,0,0,0,,,,,14,2,114,5,327.7785509,,,,,,,,,,,,,,,,,,,,,327.76321480000024,327.7785509,328.2626554000003,328.267691,328.28583230000004,329.5629578000003,,,,,329.56314850000035,329.57815440000013,329.77804779999997,329.7619605,328.28583230000004,,,,,,,,1,0,1.2755430999995951,None,,,,,,,,815,22,V,R,2026-02-25_11h28.33.412,VisualSearch_2526_3,,2025.2.4,2026-02-25 11h28.33.710612 +0100,
tilted.xlsx,The target is tilted.,117,115,3,14,1,1,1,1,1,1,1,1,0,0,0,0,0,7,8,117,space,8.462244499999997,None,1,1,0.8628195000001142,None,space,16.848184100000253,None,0,0,0,0,,,,,14,3,115,1,329.77804779999997,,,,,,,,,,,,,,,,,,,,,329.76271590000033,329.77804779999997,330.2626583000001,330.26742409999997,330.2866157000003,331.1626478000003,,,,,331.1628361000003,331.1782172000003,331.3782623000002,331.362157,330.2866157000003,,,,,,,,1,1,0.8628195000001142,None,,,,,,,,815,22,V,R,2026-02-25_11h28.33.412,VisualSearch_2526_3,,2025.2.4,2026-02-25 11h28.33.710612 +0100,
tilted.xlsx,The target is tilted.,117,116,4,14,1,1,1,1,0,0,0,0,0,0,0,0,0,3,4,117,space,8.462244499999997,None,1,1,1.2277085000000625,None,space,16.848184100000253,None,0,0,0,0,,,,,14,4,116,2,331.3782623000002,,,,,,,,,,,,,,,,,,,,,331.36285990000033,331.3782623000002,331.8620998000001,331.86670619999995,331.88559550000036,333.1290097000001,,,,,333.1292150000004,333.1446384000001,333.34440730000006,333.32808090000026,331.88559550000036,,,,,,,,1,1,1.2277085000000625,None,,,,,,,,815,22,V,R,2026-02-25_11h28.33.412,VisualSearch_2526_3,,2025.2.4,2026-02-25 11h28.33.710612 +0100,
tilted.xlsx,The target is tilted.,117,117,5,14,0,0,0,0,0,0,0,0,0,0,0,0,1,1,1,117,space,8.462244499999997,None,0,1,0.7288786999997683,None,space,16.848184100000253,None,0,0,0,0,,,,,14,5,117,7,333.34440730000006,,,,,,,,,,,,,,,,,,,,,333.32882470000004,333.34440730000006,333.82830630000035,333.83274580000034,333.8440529000004,334.57877830000007,,,,,334.57897870000033,334.59427270000015,334.7942871,334.777873,333.8440529000004,,,,,,,,0,1,0.7288786999997683,None,,,,,,,,815,22,V,R,2026-02-25_11h28.33.412,VisualSearch_2526_3,,2025.2.4,2026-02-25 11h28.33.710612 +0100,
tilted.xlsx,The target is tilted.,117,118,6,14,1,0,0,0,0,0,0,0,0,0,0,0,0,0,1,117,space,8.462244499999997,None,1,1,0.6676803000000291,None,space,16.848184100000253,None,0,0,0,0,,,,,14,6,118,3,334.7942871,,,,,,,,,,,,,,,,,,,,,334.77860310000005,334.7942871,335.27838120000024,335.2834998000003,335.3022344000001,335.97866890000023,,,,,335.97885640000004,335.9938119000003,336.19382410000026,336.1780382000002,335.3022344000001,,,,,,,,1,1,0.6676803000000291,None,,,,,,,,815,22,V,R,2026-02-25_11h28.33.412,VisualSearch_2526_3,,2025.2.4,2026-02-25 11h28.33.710612 +0100,
tilted.xlsx,The target is tilted.,117,119,7,14,1,1,1,1,1,1,1,1,1,1,1,1,0,11,12,117,space,8.462244499999997,None,1,1,0.8743062000003192,None,space,16.848184100000253,None,0,0,0,0,,,,,14,7,119,0,336.19382410000026,,,,,,,,,,,,,,,,,,,,,336.1788193000002,336.19382410000026,336.67793010000014,336.6825240000003,336.7013876000001,337.5780758000001,,,,,337.5782643000002,337.5936439000002,337.8152755000001,337.7776445000004,336.7013876000001,,,,,,,,1,1,0.8743062000003192,None,,,,,,,,815,22,V,R,2026-02-25_11h28.33.412,VisualSearch_2526_3,,2025.2.4,2026-02-25 11h28.33.710612 +0100,
tilted.xlsx,The target is tilted.,117,0,0,0,,,,,,,,,,,,,,,,,space,8.462244499999997,None,,,,,space,16.848184100000253,None,0,0,0,0,,,,,,,,,,,,,,,,,,,,,,,,,,,,,,,,,,,,,,,,,,,,,,,,,,,,,,,,,,,,,,,815,22,V,R,2026-02-25_11h28.33.412,VisualSearch_2526_3,,2025.2.4,2026-02-25 11h28.33.710612 +0100,
vertical.xlsx,The target is tilted.,135,0,0,0,1,1,1,1,1,1,1,1,0,0,0,0,0,7,8,135,space,6.638556899999912,None,1,1,1.5098189000000275,None,,,,0,1,1,1,0,0,0,1,,,,,344.47628540000005,,,,,,,,,,,,,,,337.8152755000001,337.8152755000001,337.8152755000001,space,6.638556899999912,None,344.4706338000001,344.47628540000005,344.95996220000006,344.9646584000002,344.9794204,346.4934801000004,1,1,1.5098189000000275,None,346.49366310000005,346.5092486000003,346.70914630000016,346.6932544000001,344.9794204,,,,,,,,,,,,,,,,,,,815,22,V,R,2026-02-25_11h28.33.412,VisualSearch_2526_3,,2025.2.4,2026-02-25 11h28.33.710612 +0100,
vertical.xlsx,The target is tilted.,135,1,1,0,0,0,0,0,0,0,0,0,0,0,0,0,1,1,1,135,space,6.638556899999912,None,0,1,0.6986373000004278,None,,,,0,1,1,1,0,1,1,7,,,,,346.70914630000016,,,,,,,,,,,,,,,,,,,,,346.6939209000002,346.70914630000016,347.19319680000035,347.1977856000003,347.2166803,347.9269698000003,0,1,0.6986373000004278,None,347.9271523000002,347.9422604000001,348.14258080000036,348.1262826000002,347.2166803,,,,,,,,,,,,,,,,,,,815,22,V,R,2026-02-25_11h28.33.412,VisualSearch_2526_3,,2025.2.4,2026-02-25 11h28.33.710612 +0100,
vertical.xlsx,The target is tilted.,135,2,2,0,0,1,1,1,0,0,0,0,0,0,0,0,1,3,4,135,space,6.638556899999912,None,0,1,1.2498468999997385,None,,,,0,1,1,1,0,2,2,6,,,,,348.14258080000036,,,,,,,,,,,,,,,,,,,,,348.1269777000002,348.14258080000036,348.62624240000014,348.6309391,348.6497311000003,349.90978350000023,0,1,1.2498468999997385,None,349.90995920000023,349.92522640000016,350.1255639000001,350.10890770000015,348.6497311000003,,,,,,,,,,,,,,,,,,,815,22,V,R,2026-02-25_11h28.33.412,VisualSearch_2526_3,,2025.2.4,2026-02-25 11h28.33.710612 +0100,
vertical.xlsx,The target is tilted.,135,3,3,0,1,0,0,0,0,0,0,0,0,0,0,0,0,0,1,135,space,6.638556899999912,None,1,1,0.7489203999998608,None,,,,0,1,1,1,0,3,3,3,,,,,350.1255639000001,,,,,,,,,,,,,,,,,,,,,350.1095532000004,350.1255639000001,350.60941470000034,350.6140706000001,350.63284420000036,351.39311620000035,1,1,0.7489203999998608,None,351.39329350000025,351.4083225000004,351.6087600000001,351.59247840000035,350.63284420000036,,,,,,,,,,,,,,,,,,,815,22,V,R,2026-02-25_11h28.33.412,VisualSearch_2526_3,,2025.2.4,2026-02-25 11h28.33.710612 +0100,
vertical.xlsx,The target is tilted.,135,4,4,0,0,1,1,1,1,1,1,1,1,1,1,1,1,11,12,135,space,6.638556899999912,None,0,1,3.162866600000143,None,,,,0,1,1,1,0,4,4,4,,,,,351.6087600000001,,,,,,,,,,,,,,,,,,,,,351.59315730000026,351.6087600000001,352.0919965000003,352.09514480000007,352.1085782,355.27556790000017,0,1,3.162866600000143,None,355.2757464000001,355.29149559999996,355.49113030000035,355.4753238000003,352.1085782,,,,,,,,,,,,,,,,,,,815,22,V,R,2026-02-25_11h28.33.412,VisualSearch_2526_3,,2025.2.4,2026-02-25 11h28.33.710612 +0100,
vertical.xlsx,The target is tilted.,135,5,5,0,1,1,1,1,1,1,1,1,1,1,1,1,0,11,12,135,space,6.638556899999912,None,1,1,1.306894199999988,None,,,,0,1,1,1,0,5,5,0,,,,,355.49113030000035,,,,,,,,,,,,,,,,,,,,,355.47607050000033,355.49113030000035,355.9751057000003,355.9798455,355.9988239000004,357.30902200000037,1,1,1.306894199999988,None,357.30920160000005,357.3245578000001,357.5241658,357.5084307000002,355.9988239000004,,,,,,,,,,,,,,,,,,,815,22,V,R,2026-02-25_11h28.33.412,VisualSearch_2526_3,,2025.2.4,2026-02-25 11h28.33.710612 +0100,
vertical.xlsx,The target is tilted.,135,6,6,0,1,1,1,1,0,0,0,0,0,0,0,0,0,3,4,135,space,6.638556899999912,None,1,1,0.7078799000000799,None,,,,0,1,1,1,0,6,6,2,,,,,357.5241658,,,,,,,,,,,,,,,,,,,,,357.5091768000002,357.5241658,358.00750700000026,358.0100923,358.0243082000002,358.7421072000002,1,1,0.7078799000000799,None,358.7422853000003,358.75730999999996,358.9576893000003,358.94158080000034,358.0243082000002,,,,,,,,,,,,,,,,,,,815,22,V,R,2026-02-25_11h28.33.412,VisualSearch_2526_3,,2025.2.4,2026-02-25 11h28.33.710612 +0100,
vertical.xlsx,The target is tilted.,135,7,7,0,0,1,1,1,1,1,1,1,0,0,0,0,1,7,8,135,space,6.638556899999912,None,0,1,2.183920699999817,None,,,,0,1,1,1,0,7,7,5,,,,,358.9576893000003,,,,,,,,,,,,,,,,,,,,,358.94240200000013,358.9576893000003,359.44144830000005,359.4460213000002,359.4655487,361.6583440000004,0,1,2.183920699999817,None,361.6585229000002,361.6735106000001,361.8736861000002,361.85777559999997,359.4655487,,,,,,,,,,,,,,,,,,,815,22,V,R,2026-02-25_11h28.33.412,VisualSearch_2526_3,,2025.2.4,2026-02-25 11h28.33.710612 +0100,
vertical.xlsx,The target is tilted.,135,0,0,0,1,0,0,0,0,0,0,0,0,0,0,0,0,0,1,135,space,6.638556899999912,None,1,1,0.6883733999998185,None,space,3.712628499999937,None,0,1,1,1,,,,,0,0,0,3,365.6269449000001,,,,,,,,,,,,,,,,,,,,,365.6225142000003,365.6269449000001,366.10697389999996,366.11151420000033,366.12968279999996,366.82437400000026,,,,,366.8245976000003,366.8395756,367.03992770000013,367.02396220000037,,361.8651020000002,361.8736861000002,361.8736861000002,365.5904625000003,space,3.712628499999937,None,1,1,0.6883733999998185,None,,,,,,,,815,22,V,R,2026-02-25_11h28.33.412,VisualSearch_2526_3,,2025.2.4,2026-02-25 11h28.33.710612 +0100,
vertical.xlsx,The target is tilted.,135,1,1,0,0,1,1,1,1,1,1,1,0,0,0,0,1,7,8,135,space,6.638556899999912,None,0,1,1.7418769999999313,None,space,3.712628499999937,None,0,1,1,1,,,,,0,1,1,5,367.03992770000013,,,,,,,,,,,,,,,,,,,,,367.0247892000002,367.03992770000013,367.52321359999996,367.5276676000003,367.5396965,369.29058299999997,,,,,369.2907674000003,369.3061404,369.5060338000003,369.4897569,367.5396965,,,,,,,,0,1,1.7418769999999313,None,,,,,,,,815,22,V,R,2026-02-25_11h28.33.412,VisualSearch_2526_3,,2025.2.4,2026-02-25 11h28.33.710612 +0100,
vertical.xlsx,The target is tilted.,135,2,2,0,0,1,1,1,1,1,1,1,1,1,1,1,1,11,12,135,space,6.638556899999912,None,0,1,2.21918740000001,None,space,3.712628499999937,None,0,1,1,1,,,,,0,2,2,4,369.5060338000003,,,,,,,,,,,,,,,,,,,,,369.4904902000003,369.5060338000003,369.9896114000003,369.99430740000025,370.0131501000001,372.2404682000001,,,,,372.24065640000026,372.2557181000002,372.45567070000016,372.43958980000025,370.0131501000001,,,,,,,,0,1,2.21918740000001,None,,,,,,,,815,22,V,R,2026-02-25_11h28.33.412,VisualSearch_2526_3,,2025.2.4,2026-02-25 11h28.33.710612 +0100,
vertical.xlsx,The target is tilted.,135,3,3,0,1,1,1,1,0,0,0,0,0,0,0,0,0,3,4,135,space,6.638556899999912,None,1,1,1.203200200000083,None,space,3.712628499999937,None,0,1,1,1,,,,,0,3,3,2,372.45567070000016,,,,,,,,,,,,,,,,,,,,,372.4403120000002,372.45567070000016,372.9396076000003,372.94452420000016,372.9634213000004,374.17220810000026,,,,,374.17232379999996,374.1886092,,374.37242760000026,372.9634213000004,,,,,,,,1,1,1.203200200000083,None,,,,,,,,815,22,V,R,2026-02-25_11h28.33.412,VisualSearch_2526_3,,2025.2.4,2026-02-25 11h28.33.710612 +0100,
vertical.xlsx,The target is tilted.,135,4,4,0,1,1,1,1,1,1,1,1,0,0,0,0,0,7,8,135,space,6.638556899999912,None,1,1,1.2283484000004137,None,space,3.712628499999937,None,0,1,1,1,,,,,0,4,4,1,374.38881830000037,,,,,,,,,,,,,,,,,,,,,374.37319890000026,374.38881830000037,374.8726313000002,374.8770639000004,374.8882383,376.1227353000004,,,,,376.122922,376.1383716,376.33844750000026,376.3222746000001,374.8882383,,,,,,,,1,1,1.2283484000004137,None,,,,,,,,815,22,V,R,2026-02-25_11h28.33.412,VisualSearch_2526_3,,2025.2.4,2026-02-25 11h28.33.710612 +0100,
vertical.xlsx,The target is tilted.,135,5,5,0,0,0,0,0,0,0,0,0,0,0,0,0,1,1,1,135,space,6.638556899999912,None,0,1,0.8581349000000955,None,space,3.712628499999937,None,0,1,1,1,,,,,0,5,5,7,376.33844750000026,,,,,,,,,,,,,,,,,,,,,376.3230215000003,376.33844750000026,376.8218783000002,376.8265603,376.8455395000001,377.7058662000004,,,,,377.7060553000001,377.7212687000001,377.92164790000015,377.90513180000016,376.8455395000001,,,,,,,,0,1,0.8581349000000955,None,,,,,,,,815,22,V,R,2026-02-25_11h28.33.412,VisualSearch_2526_3,,2025.2.4,2026-02-25 11h28.33.710612 +0100,
vertical.xlsx,The target is tilted.,135,6,6,0,1,1,1,1,1,1,1,1,1,1,1,1,0,11,12,135,space,6.638556899999912,None,1,1,0.9540986000001794,None,space,3.712628499999937,None,0,1,1,1,,,,,0,6,6,0,377.92164790000015,,,,,,,,,,,,,,,,,,,,,377.90569189999997,377.92164790000015,378.4049371000001,378.40758140000025,378.4213977000004,379.3896565,,,,,379.3898572000003,379.4046322000004,379.60460660000035,379.5885336000001,378.4213977000004,,,,,,,,1,1,0.9540986000001794,None,,,,,,,,815,22,V,R,2026-02-25_11h28.33.412,VisualSearch_2526_3,,2025.2.4,2026-02-25 11h28.33.710612 +0100,
vertical.xlsx,The target is tilted.,135,7,7,0,0,1,1,1,0,0,0,0,0,0,0,0,1,3,4,135,space,6.638556899999912,None,0,1,1.1367795999999544,None,space,3.712628499999937,None,0,1,1,1,,,,,0,7,7,6,379.60460660000035,,,,,,,,,,,,,,,,,,,,,379.5893621,379.60460660000035,380.08809900000006,380.0927692,380.11165150000033,381.2545,,,,,381.2546192,381.27046530000007,,381.4547242000003,380.11165150000033,,,,,,,,0,1,1.1367795999999544,None,,,,,,,,815,22,V,R,2026-02-25_11h28.33.412,VisualSearch_2526_3,,2025.2.4,2026-02-25 11h28.33.710612 +0100,
vertical.xlsx,The target is tilted.,135,8,0,1,1,0,0,0,0,0,0,0,0,0,0,0,0,0,1,135,space,6.638556899999912,None,1,1,0.5377209000002949,None,space,3.712628499999937,None,0,1,1,1,,,,,1,0,8,3,381.47079580000036,,,,,,,,,,,,,,,,,,,,,381.4555967000001,381.47079580000036,381.95478520000006,381.95939350000026,381.9774276000003,382.5220411,,,,,382.5222497,382.53749560000006,382.73762380000016,382.72152370000003,381.9774276000003,,,,,,,,1,1,0.5377209000002949,None,,,,,,,,815,22,V,R,2026-02-25_11h28.33.412,VisualSearch_2526_3,,2025.2.4,2026-02-25 11h28.33.710612 +0100,
vertical.xlsx,The target is tilted.,135,9,1,1,0,1,1,1,1,1,1,1,0,0,0,0,1,7,8,135,space,6.638556899999912,None,0,1,2.0588486999999986,None,space,3.712628499999937,None,0,1,1,1,,,,,1,1,9,5,382.73762380000016,,,,,,,,,,,,,,,,,,,,,382.72224460000007,382.73762380000016,383.2210060000002,383.2255462000003,383.2432316000004,385.30417160000025,,,,,385.3042848,385.32026140000016,385.5206355,385.5042701000002,383.2432316000004,,,,,,,,0,1,2.0588486999999986,None,,,,,,,,815,22,V,R,2026-02-25_11h28.33.412,VisualSearch_2526_3,,2025.2.4,2026-02-25 11h28.33.710612 +0100,
vertical.xlsx,The target is tilted.,135,10,2,1,1,1,1,1,1,1,1,1,1,1,1,1,0,11,12,135,space,6.638556899999912,None,1,1,1.5229974999997467,None,space,3.712628499999937,None,0,1,1,1,,,,,1,2,10,0,385.5206355,,,,,,,,,,,,,,,,,,,,,385.5051072000001,385.5206355,386.0038744000003,386.0084065000001,386.02739210000027,387.5543167000001,,,,,387.5545053000001,387.5699314000003,387.7701932,387.7542128,386.02739210000027,,,,,,,,1,1,1.5229974999997467,None,,,,,,,,815,22,V,R,2026-02-25_11h28.33.412,VisualSearch_2526_3,,2025.2.4,2026-02-25 11h28.33.710612 +0100,
vertical.xlsx,The target is tilted.,135,11,3,1,1,1,1,1,0,0,0,0,0,0,0,0,0,3,4,135,space,6.638556899999912,None,1,1,0.9539770000001226,None,space,3.712628499999937,None,0,1,1,1,,,,,1,3,11,2,387.7701932,,,,,,,,,,,,,,,,,,,,,387.7550296000004,387.7701932,388.2538512000001,388.2584111000001,388.2696697000001,389.23769790000006,,,,,389.2378867000002,389.2529354000003,389.45330730000023,389.43717300000026,388.2696697000001,,,,,,,,1,1,0.9539770000001226,None,,,,,,,,815,22,V,R,2026-02-25_11h28.33.412,VisualSearch_2526_3,,2025.2.4,2026-02-25 11h28.33.710612 +0100,
vertical.xlsx,The target is tilted.,135,12,4,1,0,1,1,1,1,1,1,1,1,1,1,1,1,11,12,135,space,6.638556899999912,None,0,1,2.584384499999942,None,space,3.712628499999937,None,0,1,1,1,,,,,1,4,12,4,389.45330730000023,,,,,,,,,,,,,,,,,,,,,389.4378928000001,389.45330730000023,389.9367062000001,389.9414431,389.9603757,392.55394720000004,,,,,392.5541344000003,392.5692279,392.7692913000001,392.7530805000001,389.9603757,,,,,,,,0,1,2.584384499999942,None,,,,,,,,815,22,V,R,2026-02-25_11h28.33.412,VisualSearch_2526_3,,2025.2.4,2026-02-25 11h28.33.710612 +0100,
vertical.xlsx,The target is tilted.,135,13,5,1,1,1,1,1,1,1,1,1,0,0,0,0,0,7,8,135,space,6.638556899999912,None,1,1,1.2092786000002889,None,space,3.712628499999937,None,0,1,1,1,,,,,1,5,13,1,392.7692913000001,,,,,,,,,,,,,,,,,,,,,392.7538204000002,392.7692913000001,393.2535651000003,393.2619692000003,393.2814411000004,394.5036639,,,,,394.50386240000034,394.51917920000005,394.71926200000007,394.70328240000026,393.2814411000004,,,,,,,,1,1,1.2092786000002889,None,,,,,,,,815,22,V,R,2026-02-25_11h28.33.412,VisualSearch_2526_3,,2025.2.4,2026-02-25 11h28.33.710612 +0100,
vertical.xlsx,The target is tilted.,135,14,6,1,0,1,1,1,0,0,0,0,0,0,0,0,1,3,4,135,space,6.638556899999912,None,0,1,1.1908100000000559,None,space,3.712628499999937,None,0,1,1,1,,,,,1,6,14,6,394.71926200000007,,,,,,,,,,,,,,,,,,,,,394.7040777000002,394.71926200000007,395.2030073000001,395.2076033000003,395.2264916000004,396.4199474000002,,,,,396.42013620000034,396.4352092000004,396.63551430000007,396.6195101000003,395.2264916000004,,,,,,,,0,1,1.1908100000000559,None,,,,,,,,815,22,V,R,2026-02-25_11h28.33.412,VisualSearch_2526_3,,2025.2.4,2026-02-25 11h28.33.710612 +0100,
vertical.xlsx,The target is tilted.,135,15,7,1,0,0,0,0,0,0,0,0,0,0,0,0,1,1,1,135,space,6.638556899999912,None,0,1,0.6502645000000484,None,space,3.712628499999937,None,0,1,1,1,,,,,1,7,15,7,396.63551430000007,,,,,,,,,,,,,,,,,,,,,396.62023100000033,396.63551430000007,397.1188072,397.1216956000003,397.1360735000003,397.8031683000004,,,,,397.80335430000014,397.81861590000017,398.01878290000013,398.0025883000003,397.1360735000003,,,,,,,,0,1,0.6502645000000484,None,,,,,,,,815,22,V,R,2026-02-25_11h28.33.412,VisualSearch_2526_3,,2025.2.4,2026-02-25 11h28.33.710612 +0100,
vertical.xlsx,The target is tilted.,135,16,0,2,0,1,1,1,1,1,1,1,0,0,0,0,1,7,8,135,space,6.638556899999912,None,0,1,2.2810982000000877,None,space,3.712628499999937,None,0,1,1,1,,,,,2,0,16,5,398.01878290000013,,,,,,,,,,,,,,,,,,,,,398.0033991,398.01878290000013,398.5025316000001,398.5069486000002,398.52502270000014,400.81912220000004,,,,,400.8193124000004,400.83462280000003,401.0346848000004,401.0188406000002,398.52502270000014,,,,,,,,0,1,2.2810982000000877,None,,,,,,,,815,22,V,R,2026-02-25_11h28.33.412,VisualSearch_2526_3,,2025.2.4,2026-02-25 11h28.33.710612 +0100,
vertical.xlsx,The target is tilted.,135,17,1,2,0,1,1,1,0,0,0,0,0,0,0,0,1,3,4,135,space,6.638556899999912,None,0,1,0.7094150000002628,None,space,3.712628499999937,None,0,1,1,1,,,,,2,1,17,6,401.0346848000004,,,,,,,,,,,,,,,,,,,,,401.0196506000002,401.0346848000004,401.5186242,401.5232900000001,401.54202980000036,402.26891490000025,,,,,402.26910210000005,402.2843448000003,402.48448099999996,402.46864810000034,401.54202980000036,,,,,,,,0,1,0.7094150000002628,None,,,,,,,,815,22,V,R,2026-02-25_11h28.33.412,VisualSearch_2526_3,,2025.2.4,2026-02-25 11h28.33.710612 +0100,
vertical.xlsx,The target is tilted.,135,18,2,2,0,1,1,1,1,1,1,1,1,1,1,1,1,11,12,135,space,6.638556899999912,None,0,1,1.9532963000001473,None,space,3.712628499999937,None,0,1,1,1,,,,,2,2,18,4,402.48448099999996,,,,,,,,,,,,,,,,,,,,,402.46938120000004,402.48448099999996,402.96863220000023,402.9731004,402.98452540000017,404.9515193000002,,,,,404.95166480000034,404.96751459999996,405.16763770000034,405.15159059999996,402.98452540000017,,,,,,,,0,1,1.9532963000001473,None,,,,,,,,815,22,V,R,2026-02-25_11h28.33.412,VisualSearch_2526_3,,2025.2.4,2026-02-25 11h28.33.710612 +0100,
vertical.xlsx,The target is tilted.,135,19,3,2,1,1,1,1,1,1,1,1,0,0,0,0,0,7,8,135,space,6.638556899999912,None,1,1,0.8091337000000749,None,space,3.712628499999937,None,0,1,1,1,,,,,2,3,19,1,405.16763770000034,,,,,,,,,,,,,,,,,,,,,405.1523376,405.16763770000034,405.6513659000002,405.6559978,405.67483660000016,406.4851613000001,,,,,406.4853473000003,406.50043600000026,406.7007759000003,406.6842711000004,405.67483660000016,,,,,,,,1,1,0.8091337000000749,None,,,,,,,,815,22,V,R,2026-02-25_11h28.33.412,VisualSearch_2526_3,,2025.2.4,2026-02-25 11h28.33.710612 +0100,
vertical.xlsx,The target is tilted.,135,20,4,2,1,0,0,0,0,0,0,0,0,0,0,0,0,0,1,135,space,6.638556899999912,None,1,1,0.7599015000000691,None,space,3.712628499999937,None,0,1,1,1,,,,,2,4,20,3,406.7007759000003,,,,,,,,,,,,,,,,,,,,,406.6850211000001,406.7007759000003,407.18452590000015,407.1892106,407.20810170000004,407.98467670000036,,,,,407.9848787000001,408.0005099,408.20061980000037,408.18417990000034,407.20810170000004,,,,,,,,1,1,0.7599015000000691,None,,,,,,,,815,22,V,R,2026-02-25_11h28.33.412,VisualSearch_2526_3,,2025.2.4,2026-02-25 11h28.33.710612 +0100,
vertical.xlsx,The target is tilted.,135,21,5,2,1,1,1,1,0,0,0,0,0,0,0,0,0,3,4,135,space,6.638556899999912,None,1,1,0.7088890999998512,None,space,3.712628499999937,None,0,1,1,1,,,,,2,5,21,2,408.20061980000037,,,,,,,,,,,,,,,,,,,,,408.1848987000003,408.20061980000037,408.68412190000026,408.68875130000015,408.7078013,409.4181676000003,,,,,409.4183543000004,409.43338870000025,409.63362380000035,409.6175866000003,408.7078013,,,,,,,,1,1,0.7088890999998512,None,,,,,,,,815,22,V,R,2026-02-25_11h28.33.412,VisualSearch_2526_3,,2025.2.4,2026-02-25 11h28.33.710612 +0100,
vertical.xlsx,The target is tilted.,135,22,6,2,1,1,1,1,1,1,1,1,1,1,1,1,0,11,12,135,space,6.638556899999912,None,1,1,1.3022068999998737,None,space,3.712628499999937,None,0,1,1,1,,,,,2,6,22,0,409.63362380000035,,,,,,,,,,,,,,,,,,,,,409.61845330000006,409.63362380000035,410.1175583000004,410.12213740000016,410.14102550000007,411.4510226000002,,,,,411.4512302000003,411.4667816000001,411.66678360000014,411.65082140000004,410.14102550000007,,,,,,,,1,1,1.3022068999998737,None,,,,,,,,815,22,V,R,2026-02-25_11h28.33.412,VisualSearch_2526_3,,2025.2.4,2026-02-25 11h28.33.710612 +0100,
vertical.xlsx,The target is tilted.,135,23,7,2,0,0,0,0,0,0,0,0,0,0,0,0,1,1,1,135,space,6.638556899999912,None,1,0,0.5779883999998674,None,space,3.712628499999937,None,0,1,1,1,,,,,2,7,23,7,411.66678360000014,,,,,,,,,,,,,,,,,,,,,411.6516713000001,411.66678360000014,412.1503133000001,412.1536422000004,412.16649910000024,412.7509841000001,,,,,412.7511698000003,412.76644970000007,412.9666188000001,412.95043490000035,412.16649910000024,,,,,,,,1,0,0.5779883999998674,None,,,,,,,,815,22,V,R,2026-02-25_11h28.33.412,VisualSearch_2526_3,,2025.2.4,2026-02-25 11h28.33.710612 +0100,
vertical.xlsx,The target is tilted.,135,24,0,3,1,1,1,1,1,1,1,1,0,0,0,0,0,7,8,135,space,6.638556899999912,None,1,1,2.2416567000000214,None,space,3.712628499999937,None,0,1,1,1,,,,,3,0,24,1,412.9666188000001,,,,,,,,,,,,,,,,,,,,,412.9512517000003,412.9666188000001,413.44993120000026,413.4544880000003,413.4660267000004,415.71729760000017,,,,,415.7174836000004,415.73248650000005,415.9324625000004,415.916557,413.4660267000004,,,,,,,,1,1,2.2416567000000214,None,,,,,,,,815,22,V,R,2026-02-25_11h28.33.412,VisualSearch_2526_3,,2025.2.4,2026-02-25 11h28.33.710612 +0100,
vertical.xlsx,The target is tilted.,135,25,1,3,1,1,1,1,0,0,0,0,0,0,0,0,0,3,4,135,space,6.638556899999912,None,1,1,0.8783551999999872,None,space,3.712628499999937,None,0,1,1,1,,,,,3,1,25,2,415.9324625000004,,,,,,,,,,,,,,,,,,,,,415.91731100000015,415.9324625000004,416.4166489000004,416.4212617000003,416.4325853,417.31705869999996,,,,,417.31724970000005,417.3327107,417.5326003,417.51658080000016,416.4325853,,,,,,,,1,1,0.8783551999999872,None,,,,,,,,815,22,V,R,2026-02-25_11h28.33.412,VisualSearch_2526_3,,2025.2.4,2026-02-25 11h28.33.710612 +0100,
vertical.xlsx,The target is tilted.,135,26,2,3,0,1,1,1,1,1,1,1,0,0,0,0,1,7,8,135,space,6.638556899999912,None,0,1,2.4155571000001146,None,space,3.712628499999937,None,0,1,1,1,,,,,3,2,26,5,417.5326003,,,,,,,,,,,,,,,,,,,,,417.5172829000003,417.5326003,418.01607090000016,418.02082420000033,418.03962920000004,420.46663690000014,,,,,420.4668251000003,420.48182910000014,420.6817640000004,420.6658991000004,418.03962920000004,,,,,,,,0,1,2.4155571000001146,None,,,,,,,,815,22,V,R,2026-02-25_11h28.33.412,VisualSearch_2526_3,,2025.2.4,2026-02-25 11h28.33.710612 +0100,
vertical.xlsx,The target is tilted.,135,27,3,3,0,1,1,1,0,0,0,0,0,0,0,0,1,3,4,135,space,6.638556899999912,None,0,1,0.935536299999967,None,space,3.712628499999937,None,0,1,1,1,,,,,3,3,27,6,420.6817640000004,,,,,,,,,,,,,,,,,,,,,420.6666583000001,420.6817640000004,421.1659096000003,421.1705009000002,421.18884320000006,422.1329009000001,,,,,422.13311010000007,422.14844730000004,422.34861880000017,422.3325097000002,421.18884320000006,,,,,,,,0,1,0.935536299999967,None,,,,,,,,815,22,V,R,2026-02-25_11h28.33.412,VisualSearch_2526_3,,2025.2.4,2026-02-25 11h28.33.710612 +0100,
vertical.xlsx,The target is tilted.,135,28,4,3,0,0,0,0,0,0,0,0,0,0,0,0,1,1,1,135,space,6.638556899999912,None,0,1,0.6543741000000409,None,space,3.712628499999937,None,0,1,1,1,,,,,3,4,28,7,422.34861880000017,,,,,,,,,,,,,,,,,,,,,422.3332104000001,422.34861880000017,422.8324150000003,422.83713560000024,422.8561202000001,423.51547900000014,,,,,423.51559380000026,423.53149110000004,423.73169740000003,423.71527300000025,422.8561202000001,,,,,,,,0,1,0.6543741000000409,None,,,,,,,,815,22,V,R,2026-02-25_11h28.33.412,VisualSearch_2526_3,,2025.2.4,2026-02-25 11h28.33.710612 +0100,
vertical.xlsx,The target is tilted.,135,29,5,3,1,0,0,0,0,0,0,0,0,0,0,0,0,0,1,135,space,6.638556899999912,None,1,1,0.5726668000002064,None,space,3.712628499999937,None,0,1,1,1,,,,,3,5,29,3,423.73169740000003,,,,,,,,,,,,,,,,,,,,,423.71601039999996,423.73169740000003,424.21542100000033,424.21998740000026,424.23875850000013,424.8156355000001,,,,,424.8158222000002,424.83113360000016,425.0315177000002,425.01522969999996,424.23875850000013,,,,,,,,1,1,0.5726668000002064,None,,,,,,,,815,22,V,R,2026-02-25_11h28.33.412,VisualSearch_2526_3,,2025.2.4,2026-02-25 11h28.33.710612 +0100,
vertical.xlsx,The target is tilted.,135,30,6,3,0,1,1,1,1,1,1,1,1,1,1,1,1,11,12,135,space,6.638556899999912,None,0,1,3.1302858999997625,None,space,3.712628499999937,None,0,1,1,1,,,,,3,6,30,4,425.0315177000002,,,,,,,,,,,,,,,,,,,,,425.0159721,425.0315177000002,425.5150082,425.51969670000017,425.53866700000026,428.6821222000003,,,,,428.6823107,428.6975814000002,428.8977133000003,428.8815426000001,425.53866700000026,,,,,,,,0,1,3.1302858999997625,None,,,,,,,,815,22,V,R,2026-02-25_11h28.33.412,VisualSearch_2526_3,,2025.2.4,2026-02-25 11h28.33.710612 +0100,
vertical.xlsx,The target is tilted.,135,31,7,3,1,1,1,1,1,1,1,1,1,1,1,1,0,11,12,135,space,6.638556899999912,None,1,1,1.1907148000000234,None,space,3.712628499999937,None,0,1,1,1,,,,,3,7,31,0,428.8977133000003,,,,,,,,,,,,,,,,,,,,,428.88228400000025,428.8977133000003,429.3813535000004,429.3859402000003,429.40484670000023,430.5985864000004,,,,,430.5987712000001,430.61366350000026,430.8138382000002,430.79801080000016,429.40484670000023,,,,,,,,1,1,1.1907148000000234,None,,,,,,,,815,22,V,R,2026-02-25_11h28.33.412,VisualSearch_2526_3,,2025.2.4,2026-02-25 11h28.33.710612 +0100,
vertical.xlsx,The target is tilted.,135,32,0,4,0,1,1,1,1,1,1,1,1,1,1,1,1,11,12,135,space,6.638556899999912,None,0,1,1.8482203999997182,None,space,3.712628499999937,None,0,1,1,1,,,,,4,0,32,4,430.8138382000002,,,,,,,,,,,,,,,,,,,,,430.79882650000036,430.8138382000002,431.2977585000003,431.30225670000027,431.3135035,433.1647772000001,,,,,433.16496370000004,433.1800145000002,433.38000230000034,433.36407810000037,431.3135035,,,,,,,,0,1,1.8482203999997182,None,,,,,,,,815,22,V,R,2026-02-25_11h28.33.412,VisualSearch_2526_3,,2025.2.4,2026-02-25 11h28.33.710612 +0100,
vertical.xlsx,The target is tilted.,135,33,1,4,0,1,1,1,1,1,1,1,0,0,0,0,1,7,8,135,space,6.638556899999912,None,0,1,1.2574392000001353,None,space,3.712628499999937,None,0,1,1,1,,,,,4,1,33,5,433.38000230000034,,,,,,,,,,,,,,,,,,,,,433.36482509999996,433.38000230000034,433.8640061000001,433.8691239,433.8879329000001,435.1467647000004,,,,,435.1468904000003,435.1633925000001,435.3634317000001,435.34713320000037,433.8879329000001,,,,,,,,0,1,1.2574392000001353,None,,,,,,,,815,22,V,R,2026-02-25_11h28.33.412,VisualSearch_2526_3,,2025.2.4,2026-02-25 11h28.33.710612 +0100,
vertical.xlsx,The target is tilted.,135,34,2,4,1,0,0,0,0,0,0,0,0,0,0,0,0,0,1,135,space,6.638556899999912,None,1,1,0.7402782000003754,None,space,3.712628499999937,None,0,1,1,1,,,,,4,2,34,3,435.3634317000001,,,,,,,,,,,,,,,,,,,,,435.3478801000001,435.3634317000001,435.8470284,435.8515891000002,435.87035779999997,436.61404600000014,,,,,436.61423270000023,436.6297187,436.82967880000024,436.8133165000004,435.87035779999997,,,,,,,,1,1,0.7402782000003754,None,,,,,,,,815,22,V,R,2026-02-25_11h28.33.412,VisualSearch_2526_3,,2025.2.4,2026-02-25 11h28.33.710612 +0100,
