file_name,block_instructions,target_example,thisN,thisTrialN,thisRepN,target_presence,opacity_1,opacity_2,opacity_3,opacity_4,opacity_5,opacity_6,opacity_7,opacity_8,opacity_9,opacity_10,opacity_11,opacity_12,n_distract,n_items,target_ori,key_resp_4.keys,key_resp_4.rt,key_resp_4.duration,key_resp.keys,key_resp.corr,key_resp.rt,key_resp.duration,key_resp_5.keys,key_resp_5.rt,key_resp_5.duration,blocks.thisRepN,blocks.thisTrialN,blocks.thisN,blocks.thisIndex,practice_trials.thisRepN,practice_trials.thisTrialN,practice_trials.thisN,practice_trials.thisIndex,trials.thisRepN,trials.thisTrialN,trials.thisN,trials.thisIndex,thisRow.t,notes,Welcome.started,WelcomeText.started,key_resp_2.started,Welcome.stopped,key_resp_2.keys,key_resp_2.rt,key_resp_2.duration,InformedConsent.started,text_4.started,InformedConsent.stopped,key_resp_6.keys,key_resp_6.rt,key_resp_6.duration,key_resp_4.started,example_target.started,text_3.started,blocks.key_resp_4.keys,blocks.key_resp_4.rt,blocks.key_resp_4.duration,FixCross.started,fixCross.started,FixCross.stopped,Stimulus.started,key_resp.started,Stimulus.stopped,practice_trials.key_resp.keys,practice_trials.key_resp.corr,practice_trials.key_resp.rt,practice_trials.key_resp.duration,BlankScreen.started,text.started,text.stopped,BlankScreen.stopped,fixCross.stopped,ExperimentStart.started,text_2.started,key_resp_5.started,ExperimentStart.stopped,blocks.key_resp_5.keys,blocks.key_resp_5.rt,blocks.key_resp_5.duration,trials.key_resp.keys,trials.key_resp.corr,trials.key_resp.rt,trials.key_resp.duration,Thanks.started,ThankYou.started,key_resp_3.started,Thanks.stopped,key_resp_3.keys,key_resp_3.rt,key_resp_3.duration,participant,leeftijd,gender,links/rechtshandig,date,expName,expVersion,psychopyVersion,expStart,
,,,,,,,,,,,,,,,,,,,,,,,,,,,,,,,,,,,,,,,,,,,,,,0.03030430000035267,0.04910860000018147,0.04910860000018147,27.869071000000076,space,27.803749100000005,None,,,,,,,,,,,,,,,,,,,,,,,,,,,,,,,,,,,,,,,,,,,,,,816,24,M,R,2026-02-25_11h40.07.219,VisualSearch_2526_3,,2025.2.4,2026-02-25 11h40.07.545474 +0100,
,,,,,,,,,,,,,,,,,,,,,,,,,,,,,,,,,,,,,,,,,,,,,,,,,,,,,27.869201400000293,27.87815240000009,32.07145639999999,y,4.187226600000031,None,,,,,,,,,,,,,,,,,,,,,,,,,,,,,,,,,,,,,,,,816,24,M,R,2026-02-25_11h40.07.219,VisualSearch_2526_3,,2025.2.4,2026-02-25 11h40.07.545474 +0100,
vertical.xlsx,The target is tilted.,135,0,0,0,0,0,0,0,0,0,0,0,0,0,0,0,1,1,1,135,space,4.653314399999999,None,0,1,0.627747399999862,None,,,,0,0,0,1,0,0,0,7,,,,,36.80781960000013,,,,,,,,,,,,,,,32.11040520000006,32.11040520000006,32.11040520000006,space,4.653314399999999,None,36.801555400000325,36.80781960000013,37.28726130000041,37.29252830000041,37.31151740000041,37.95469160000039,0,1,0.627747399999862,None,37.954882400000315,37.970123700000386,38.17013810000026,38.15402970000014,,,,,,,,,,,,,,,,,,,,816,24,M,R,2026-02-25_11h40.07.219,VisualSearch_2526_3,,2025.2.4,2026-02-25 11h40.07.545474 +0100,
vertical.xlsx,The target is tilted.,135,1,1,0,0,1,1,1,1,1,1,1,1,1,1,1,1,11,12,135,space,4.653314399999999,None,0,1,0.9999882999995862,None,,,,0,0,0,1,0,1,1,4,,,,,38.17013810000026,,,,,,,,,,,,,,,,,,,,,38.15468500000043,38.17013810000026,38.654011900000114,38.658620500000325,38.669777400000385,39.68759530000034,0,1,0.9999882999995862,None,39.687785000000076,39.703181900000345,39.902945600000294,39.886831500000426,38.669777400000385,,,,,,,,,,,,,,,,,,,816,24,M,R,2026-02-25_11h40.07.219,VisualSearch_2526_3,,2025.2.4,2026-02-25 11h40.07.545474 +0100,
vertical.xlsx,The target is tilted.,135,2,2,0,1,1,1,1,0,0,0,0,0,0,0,0,0,3,4,135,space,4.653314399999999,None,1,1,0.8157499999997526,None,,,,0,0,0,1,0,2,2,2,,,,,39.902945600000294,,,,,,,,,,,,,,,,,,,,,39.88748670000041,39.902945600000294,40.38706250000041,40.3915920000004,40.4096155000002,41.237428600000385,1,1,0.8157499999997526,None,41.237617200000386,41.252500500000224,41.45298890000004,41.43687770000042,40.4096155000002,,,,,,,,,,,,,,,,,,,816,24,M,R,2026-02-25_11h40.07.219,VisualSearch_2526_3,,2025.2.4,2026-02-25 11h40.07.545474 +0100,
vertical.xlsx,The target is tilted.,135,3,3,0,1,0,0,0,0,0,0,0,0,0,0,0,0,0,1,135,space,4.653314399999999,None,1,1,0.621730800000023,None,,,,0,0,0,1,0,3,3,3,,,,,41.45298890000004,,,,,,,,,,,,,,,,,,,,,41.437537200000406,41.45298890000004,41.936881600000106,41.941426800000045,41.95965990000013,42.58723800000007,1,1,0.621730800000023,None,42.58742500000017,42.60235190000003,42.80287270000008,42.78686970000035,41.95965990000013,,,,,,,,,,,,,,,,,,,816,24,M,R,2026-02-25_11h40.07.219,VisualSearch_2526_3,,2025.2.4,2026-02-25 11h40.07.545474 +0100,
vertical.xlsx,The target is tilted.,135,4,4,0,0,1,1,1,1,1,1,1,0,0,0,0,1,7,8,135,space,4.653314399999999,None,0,1,0.8649891999998545,None,,,,0,0,0,1,0,4,4,5,,,,,42.80287270000008,,,,,,,,,,,,,,,,,,,,,42.787660300000425,42.80287270000008,43.28637780000008,43.29103810000015,43.310082200000124,44.18706250000014,0,1,0.8649891999998545,None,44.187250400000266,44.20207030000029,44.40245500000037,44.38652900000034,43.310082200000124,,,,,,,,,,,,,,,,,,,816,24,M,R,2026-02-25_11h40.07.219,VisualSearch_2526_3,,2025.2.4,2026-02-25 11h40.07.545474 +0100,
vertical.xlsx,The target is tilted.,135,5,5,0,1,1,1,1,1,1,1,1,0,0,0,0,0,7,8,135,space,4.653314399999999,None,0,0,0.8741157999997995,None,,,,0,0,0,1,0,5,5,1,,,,,44.40245500000037,,,,,,,,,,,,,,,,,,,,,44.38727410000001,44.40245500000037,44.88638340000034,44.891193600000406,44.91035929999998,45.786799299999984,0,0,0.8741157999997995,None,45.78701340000043,45.801776300000256,46.002344900000026,45.986245600000075,44.91035929999998,,,,,,,,,,,,,,,,,,,816,24,M,R,2026-02-25_11h40.07.219,VisualSearch_2526_3,,2025.2.4,2026-02-25 11h40.07.545474 +0100,
vertical.xlsx,The target is tilted.,135,6,6,0,0,1,1,1,0,0,0,0,0,0,0,0,1,3,4,135,space,4.653314399999999,None,0,1,0.5476866000003611,None,,,,0,0,0,1,0,6,6,6,,,,,46.002344900000026,,,,,,,,,,,,,,,,,,,,,45.98687540000037,46.002344900000026,46.48621260000027,46.49093870000024,46.505716699999994,47.069371200000205,0,1,0.5476866000003611,None,47.069583700000294,47.085013600000366,47.28552200000013,47.26900400000022,46.505716699999994,,,,,,,,,,,,,,,,,,,816,24,M,R,2026-02-25_11h40.07.219,VisualSearch_2526_3,,2025.2.4,2026-02-25 11h40.07.545474 +0100,
vertical.xlsx,The target is tilted.,135,7,7,0,1,1,1,1,1,1,1,1,1,1,1,1,0,11,12,135,space,4.653314399999999,None,1,1,0.9513159999996788,None,,,,0,0,0,1,0,7,7,0,,,,,47.28552200000013,,,,,,,,,,,,,,,,,,,,,47.269672000000355,47.28552200000013,47.7693191000003,47.77402220000022,47.79294420000042,48.75299070000028,1,1,0.9513159999996788,None,48.75318130000005,48.7681633000002,48.96811660000003,48.95263000000023,47.79294420000042,,,,,,,,,,,,,,,,,,,816,24,M,R,2026-02-25_11h40.07.219,VisualSearch_2526_3,,2025.2.4,2026-02-25 11h40.07.545474 +0100,
vertical.xlsx,The target is tilted.,135,0,0,0,0,1,1,1,1,1,1,1,0,0,0,0,1,7,8,135,space,4.653314399999999,None,0,1,0.7089918000001489,None,space,1.225173199999972,None,0,0,0,1,,,,,0,0,0,5,50.239881100000275,,,,,,,,,,,,,,,,,,,,,50.23544290000018,50.239881100000275,50.71871740000006,50.7235026000003,50.74291670000002,51.46815800000013,,,,,51.46827960000019,51.4846706000003,51.68453790000012,51.668500900000254,,48.960527900000216,48.96811660000003,48.96811660000003,50.20261810000011,space,1.225173199999972,None,0,1,0.7089918000001489,None,,,,,,,,816,24,M,R,2026-02-25_11h40.07.219,VisualSearch_2526_3,,2025.2.4,2026-02-25 11h40.07.545474 +0100,
vertical.xlsx,The target is tilted.,135,1,1,0,0,1,1,1,1,1,1,1,1,1,1,1,1,11,12,135,space,4.653314399999999,None,0,1,0.756177100000059,None,space,1.225173199999972,None,0,0,0,1,,,,,0,1,1,4,51.68453790000012,,,,,,,,,,,,,,,,,,,,,51.66924830000016,51.68453790000012,52.16827330000024,52.17289870000013,52.18477980000034,52.952481400000124,,,,,52.9526778000004,52.96750340000017,53.16805140000042,53.15179670000043,52.18477980000034,,,,,,,,0,1,0.756177100000059,None,,,,,,,,816,24,M,R,2026-02-25_11h40.07.219,VisualSearch_2526_3,,2025.2.4,2026-02-25 11h40.07.545474 +0100,
vertical.xlsx,The target is tilted.,135,2,2,0,0,1,1,1,0,0,0,0,0,0,0,0,1,3,4,135,space,4.653314399999999,None,0,1,0.7679228000001785,None,space,1.225173199999972,None,0,0,0,1,,,,,0,2,2,6,53.16805140000042,,,,,,,,,,,,,,,,,,,,,53.152541300000394,53.16805140000042,53.65159440000025,53.65632390000019,53.675274700000045,54.452147700000296,,,,,54.4523422000002,54.467294700000366,54.667859000000135,54.65157850000014,53.675274700000045,,,,,,,,0,1,0.7679228000001785,None,,,,,,,,816,24,M,R,2026-02-25_11h40.07.219,VisualSearch_2526_3,,2025.2.4,2026-02-25 11h40.07.545474 +0100,
vertical.xlsx,The target is tilted.,135,3,3,0,1,0,0,0,0,0,0,0,0,0,0,0,0,0,1,135,space,4.653314399999999,None,1,1,0.41421330000002854,None,space,1.225173199999972,None,0,0,0,1,,,,,0,3,3,3,54.667859000000135,,,,,,,,,,,,,,,,,,,,,54.65244320000011,54.667859000000135,55.15162700000019,55.15675720000036,55.176108600000134,55.602048300000206,,,,,55.60225880000007,55.61714650000022,55.817674200000056,55.80139440000039,55.176108600000134,,,,,,,,1,1,0.41421330000002854,None,,,,,,,,816,24,M,R,2026-02-25_11h40.07.219,VisualSearch_2526_3,,2025.2.4,2026-02-25 11h40.07.545474 +0100,
vertical.xlsx,The target is tilted.,135,4,4,0,1,1,1,1,1,1,1,1,0,0,0,0,0,7,8,135,space,4.653314399999999,None,1,1,0.8983339999999771,None,space,1.225173199999972,None,0,0,0,1,,,,,0,4,4,1,55.817674200000056,,,,,,,,,,,,,,,,,,,,,55.80216360000031,55.817674200000056,56.301318000000265,56.306677800000216,56.32578050000029,57.23517570000013,,,,,57.235372100000404,57.25004740000031,57.450356100000135,57.43422780000037,56.32578050000029,,,,,,,,1,1,0.8983339999999771,None,,,,,,,,816,24,M,R,2026-02-25_11h40.07.219,VisualSearch_2526_3,,2025.2.4,2026-02-25 11h40.07.545474 +0100,
vertical.xlsx,The target is tilted.,135,5,5,0,1,1,1,1,1,1,1,1,1,1,1,1,0,11,12,135,space,4.653314399999999,None,1,1,1.2696530999996867,None,space,1.225173199999972,None,0,0,0,1,,,,,0,5,5,0,57.450356100000135,,,,,,,,,,,,,,,,,,,,,57.43496010000035,57.450356100000135,57.93460010000035,57.93960290000041,57.95861730000024,59.23466440000038,,,,,59.2348592000003,59.25001650000013,59.450220100000024,59.43404190000001,57.95861730000024,,,,,,,,1,1,1.2696530999996867,None,,,,,,,,816,24,M,R,2026-02-25_11h40.07.219,VisualSearch_2526_3,,2025.2.4,2026-02-25 11h40.07.545474 +0100,
vertical.xlsx,The target is tilted.,135,6,6,0,1,1,1,1,0,0,0,0,0,0,0,0,0,3,4,135,space,4.653314399999999,None,1,1,0.7507933000001685,None,space,1.225173199999972,None,0,0,0,1,,,,,0,6,6,2,59.450220100000024,,,,,,,,,,,,,,,,,,,,,59.43444470000031,59.450220100000024,59.933250000000044,59.93491920000042,59.94982310000023,60.71745940000028,,,,,60.717657600000166,60.73304210000015,60.933656000000155,60.91721200000029,59.94982310000023,,,,,,,,1,1,0.7507933000001685,None,,,,,,,,816,24,M,R,2026-02-25_11h40.07.219,VisualSearch_2526_3,,2025.2.4,2026-02-25 11h40.07.545474 +0100,
vertical.xlsx,The target is tilted.,135,7,7,0,0,0,0,0,0,0,0,0,0,0,0,0,1,1,1,135,space,4.653314399999999,None,0,1,0.5170059000001856,None,space,1.225173199999972,None,0,0,0,1,,,,,0,7,7,7,60.933656000000155,,,,,,,,,,,,,,,,,,,,,60.918093800000406,60.933656000000155,61.417442100000244,61.42291720000003,61.44299900000033,61.96787880000011,,,,,61.96807530000024,61.98285870000018,62.18340990000024,62.16742760000034,61.44299900000033,,,,,,,,0,1,0.5170059000001856,None,,,,,,,,816,24,M,R,2026-02-25_11h40.07.219,VisualSearch_2526_3,,2025.2.4,2026-02-25 11h40.07.545474 +0100,
vertical.xlsx,The target is tilted.,135,8,0,1,0,1,1,1,0,0,0,0,0,0,0,0,1,3,4,135,space,4.653314399999999,None,0,1,0.6263733000000684,None,space,1.225173199999972,None,0,0,0,1,,,,,1,0,8,6,62.18340990000024,,,,,,,,,,,,,,,,,,,,,62.16821230000005,62.18340990000024,62.667189300000246,62.671866000000136,62.69100350000008,63.33326790000001,,,,,63.33338840000033,63.34933580000006,,63.53348530000039,62.69100350000008,,,,,,,,0,1,0.6263733000000684,None,,,,,,,,816,24,M,R,2026-02-25_11h40.07.219,VisualSearch_2526_3,,2025.2.4,2026-02-25 11h40.07.545474 +0100,
vertical.xlsx,The target is tilted.,135,9,1,1,1,1,1,1,0,0,0,0,0,0,0,0,0,3,4,135,space,4.653314399999999,None,1,1,0.8483443999998599,None,space,1.225173199999972,None,0,0,0,1,,,,,1,1,9,2,63.5494662000001,,,,,,,,,,,,,,,,,,,,,63.53422760000012,63.5494662000001,64.03371920000018,64.03846490000024,64.05749750000041,64.91710340000009,,,,,64.91729720000012,64.93250810000018,65.13296750000018,65.11682540000038,64.05749750000041,,,,,,,,1,1,0.8483443999998599,None,,,,,,,,816,24,M,R,2026-02-25_11h40.07.219,VisualSearch_2526_3,,2025.2.4,2026-02-25 11h40.07.545474 +0100,
vertical.xlsx,The target is tilted.,135,10,2,1,1,0,0,0,0,0,0,0,0,0,0,0,0,0,1,135,space,4.653314399999999,None,1,1,0.46280909999995856,None,space,1.225173199999972,None,0,0,0,1,,,,,1,2,10,3,65.13296750000018,,,,,,,,,,,,,,,,,,,,,65.1175245000004,65.13296750000018,65.61694940000007,65.62157990000014,65.6327508000004,66.10019690000036,,,,,66.1004054,66.11561500000016,66.31607180000037,66.29982300000029,65.6327508000004,,,,,,,,1,1,0.46280909999995856,None,,,,,,,,816,24,M,R,2026-02-25_11h40.07.219,VisualSearch_2526_3,,2025.2.4,2026-02-25 11h40.07.545474 +0100,
vertical.xlsx,The target is tilted.,135,11,3,1,0,1,1,1,1,1,1,1,1,1,1,1,1,11,12,135,space,4.653314399999999,None,0,1,1.5554920999998103,None,space,1.225173199999972,None,0,0,0,1,,,,,1,3,11,4,66.31607180000037,,,,,,,,,,,,,,,,,,,,,66.30056150000019,66.31607180000037,66.80000670000027,66.80479460000015,66.82315560000006,68.38363670000035,,,,,68.3838294000002,68.39867500000037,68.59909620000008,68.58297370000037,66.82315560000006,,,,,,,,0,1,1.5554920999998103,None,,,,,,,,816,24,M,R,2026-02-25_11h40.07.219,VisualSearch_2526_3,,2025.2.4,2026-02-25 11h40.07.545474 +0100,
vertical.xlsx,The target is tilted.,135,12,4,1,1,1,1,1,1,1,1,1,1,1,1,1,0,11,12,135,space,4.653314399999999,None,1,1,0.7235248000001775,None,space,1.225173199999972,None,0,0,0,1,,,,,1,4,12,0,68.59909620000008,,,,,,,,,,,,,,,,,,,,,68.58372130000043,68.59909620000008,69.08312730000034,69.08803490000037,69.0989338000004,69.83343140000034,,,,,69.83362830000033,69.84845220000034,70.04897840000012,70.03280330000007,69.0989338000004,,,,,,,,1,1,0.7235248000001775,None,,,,,,,,816,24,M,R,2026-02-25_11h40.07.219,VisualSearch_2526_3,,2025.2.4,2026-02-25 11h40.07.545474 +0100,
vertical.xlsx,The target is tilted.,135,13,5,1,0,0,0,0,0,0,0,0,0,0,0,0,1,1,1,135,space,4.653314399999999,None,0,1,0.45108920000029684,None,space,1.225173199999972,None,0,0,0,1,,,,,1,5,13,7,70.04897840000012,,,,,,,,,,,,,,,,,,,,,70.03352270000005,70.04897840000012,70.53269480000017,70.53748900000028,70.55685270000004,71.0165463000003,,,,,71.01674580000008,71.03164620000007,71.2321377000003,71.21602870000015,70.55685270000004,,,,,,,,0,1,0.45108920000029684,None,,,,,,,,816,24,M,R,2026-02-25_11h40.07.219,VisualSearch_2526_3,,2025.2.4,2026-02-25 11h40.07.545474 +0100,
vertical.xlsx,The target is tilted.,135,14,6,1,1,1,1,1,1,1,1,1,0,0,0,0,0,7,8,135,space,4.653314399999999,None,1,1,0.6955783999997038,None,space,1.225173199999972,None,0,0,0,1,,,,,1,6,14,1,71.2321377000003,,,,,,,,,,,,,,,,,,,,,71.21675030000006,71.2321377000003,71.71584930000017,71.72072020000041,71.7381461,72.44873670000015,,,,,72.44885629999999,72.46500660000038,72.66485580000017,72.64913569999999,71.7381461,,,,,,,,1,1,0.6955783999997038,None,,,,,,,,816,24,M,R,2026-02-25_11h40.07.219,VisualSearch_2526_3,,2025.2.4,2026-02-25 11h40.07.545474 +0100,
vertical.xlsx,The target is tilted.,135,15,7,1,0,1,1,1,1,1,1,1,0,0,0,0,1,7,8,135,space,4.653314399999999,None,0,1,0.6011728999997104,None,space,1.225173199999972,None,0,0,0,1,,,,,1,7,15,5,72.66485580000017,,,,,,,,,,,,,,,,,,,,,72.64988390000008,72.66485580000017,73.14900910000006,73.15400790000012,73.16498130000036,73.78226320000022,,,,,73.78245560000005,73.79783570000018,73.99841070000002,73.98219940000035,,,,,,,,,0,1,0.6011728999997104,None,,,,,,,,816,24,M,R,2026-02-25_11h40.07.219,VisualSearch_2526_3,,2025.2.4,2026-02-25 11h40.07.545474 +0100,
vertical.xlsx,The target is tilted.,135,16,0,2,0,1,1,1,1,1,1,1,0,0,0,0,1,7,8,135,space,4.653314399999999,None,0,1,0.6623775000002752,None,space,1.225173199999972,None,0,0,0,1,,,,,2,0,16,5,73.99841070000002,,,,,,,,,,,,,,,,,,,,,73.98294620000024,73.99841070000002,74.4818564000002,74.48646240000016,74.4981170000001,75.16563489999999,,,,,75.16582960000005,75.18105560000004,75.3815569000003,75.36542290000034,74.4981170000001,,,,,,,,0,1,0.6623775000002752,None,,,,,,,,816,24,M,R,2026-02-25_11h40.07.219,VisualSearch_2526_3,,2025.2.4,2026-02-25 11h40.07.545474 +0100,
vertical.xlsx,The target is tilted.,135,17,1,2,1,1,1,1,0,0,0,0,0,0,0,0,0,3,4,135,space,4.653314399999999,None,1,1,0.5708935000002384,None,space,1.225173199999972,None,0,0,0,1,,,,,2,1,17,2,75.3815569000003,,,,,,,,,,,,,,,,,,,,,75.36629560000029,75.3815569000003,75.86544990000039,75.87048850000019,75.88962950000041,76.46563970000034,,,,,76.4658357000003,76.48086920000014,76.68133530000023,76.66507750000028,75.88962950000041,,,,,,,,1,1,0.5708935000002384,None,,,,,,,,816,24,M,R,2026-02-25_11h40.07.219,VisualSearch_2526_3,,2025.2.4,2026-02-25 11h40.07.545474 +0100,
vertical.xlsx,The target is tilted.,135,18,2,2,1,1,1,1,1,1,1,1,0,0,0,0,0,7,8,135,space,4.653314399999999,None,1,1,0.5221240999999281,None,space,1.225173199999972,None,0,0,0,1,,,,,2,2,18,1,76.68133530000023,,,,,,,,,,,,,,,,,,,,,76.6658408000003,76.68133530000023,77.16432990000021,77.16713290000007,77.18071520000012,77.715643,,,,,77.71583680000003,77.7306321000001,77.93106480000006,77.9148954000002,77.18071520000012,,,,,,,,1,1,0.5221240999999281,None,,,,,,,,816,24,M,R,2026-02-25_11h40.07.219,VisualSearch_2526_3,,2025.2.4,2026-02-25 11h40.07.545474 +0100,
vertical.xlsx,The target is tilted.,135,19,3,2,0,1,1,1,1,1,1,1,1,1,1,1,1,11,12,135,space,4.653314399999999,None,0,1,1.7865137999997387,None,space,1.225173199999972,None,0,0,0,1,,,,,2,3,19,4,77.93106480000006,,,,,,,,,,,,,,,,,,,,,77.9157250000003,77.93106480000006,78.41492630000039,78.4195092,78.4309059000002,80.23129300000028,,,,,80.23152250000021,80.24693820000039,80.44745590000002,80.43124460000035,78.4309059000002,,,,,,,,0,1,1.7865137999997387,None,,,,,,,,816,24,M,R,2026-02-25_11h40.07.219,VisualSearch_2526_3,,2025.2.4,2026-02-25 11h40.07.545474 +0100,
vertical.xlsx,The target is tilted.,135,20,4,2,0,1,1,1,0,0,0,0,0,0,0,0,1,3,4,135,space,4.653314399999999,None,0,1,0.7126093000001674,None,space,1.225173199999972,None,0,0,0,1,,,,,2,4,20,6,80.44745590000002,,,,,,,,,,,,,,,,,,,,,80.43199540000023,80.44745590000002,80.93119290000004,80.93577070000038,80.95399610000004,81.6810958000001,,,,,81.68132370000012,81.69675860000007,81.89727340000036,81.88101070000039,80.95399610000004,,,,,,,,0,1,0.7126093000001674,None,,,,,,,,816,24,M,R,2026-02-25_11h40.07.219,VisualSearch_2526_3,,2025.2.4,2026-02-25 11h40.07.545474 +0100,
vertical.xlsx,The target is tilted.,135,21,5,2,0,0,0,0,0,0,0,0,0,0,0,0,1,1,1,135,space,4.653314399999999,None,0,1,0.5422428000001673,None,space,1.225173199999972,None,0,0,0,1,,,,,2,5,21,7,81.89727340000036,,,,,,,,,,,,,,,,,,,,,81.88181150000037,81.89727340000036,82.38113950000024,82.38616110000021,82.40449520000038,82.94811960000015,,,,,82.94831680000016,82.9632402000002,83.16347130000031,83.14760640000031,82.40449520000038,,,,,,,,0,1,0.5422428000001673,None,,,,,,,,816,24,M,R,2026-02-25_11h40.07.219,VisualSearch_2526_3,,2025.2.4,2026-02-25 11h40.07.545474 +0100,
vertical.xlsx,The target is tilted.,135,22,6,2,1,0,0,0,0,0,0,0,0,0,0,0,0,0,1,135,space,4.653314399999999,None,1,1,0.4153526999998576,None,space,1.225173199999972,None,0,0,0,1,,,,,2,6,22,3,83.16347130000031,,,,,,,,,,,,,,,,,,,,,83.14840940000022,83.16347130000031,83.6475918000001,83.65230880000036,83.67132820000006,84.09805600000027,,,,,84.09825420000016,84.11309260000007,84.31341630000043,84.29738190000035,83.67132820000006,,,,,,,,1,1,0.4153526999998576,None,,,,,,,,816,24,M,R,2026-02-25_11h40.07.219,VisualSearch_2526_3,,2025.2.4,2026-02-25 11h40.07.545474 +0100,
vertical.xlsx,The target is tilted.,135,23,7,2,1,1,1,1,1,1,1,1,1,1,1,1,0,11,12,135,space,4.653314399999999,None,1,1,0.5646796000000904,None,space,1.225173199999972,None,0,0,0,1,,,,,2,7,23,0,84.31341630000043,,,,,,,,,,,,,,,,,,,,,84.29812760000004,84.31341630000043,84.79734400000007,84.8020389000003,84.82117170000038,85.39785210000036,,,,,85.39804760000015,85.41289440000037,85.61296820000007,85.59684720000041,84.82117170000038,,,,,,,,1,1,0.5646796000000904,None,,,,,,,,816,24,M,R,2026-02-25_11h40.07.219,VisualSearch_2526_3,,2025.2.4,2026-02-25 11h40.07.545474 +0100,
vertical.xlsx,The target is tilted.,135,24,0,3,0,1,1,1,0,0,0,0,0,0,0,0,1,3,4,135,space,4.653314399999999,None,0,1,0.5739556999997149,None,space,1.225173199999972,None,0,0,0,1,,,,,3,0,24,6,85.61296820000007,,,,,,,,,,,,,,,,,,,,,85.59757560000025,85.61296820000007,86.09691360000033,86.10163290000037,86.12102330000016,86.69713730000012,,,,,86.69728410000016,86.71276080000007,86.91322690000015,86.89717310000015,86.12102330000016,,,,,,,,0,1,0.5739556999997149,None,,,,,,,,816,24,M,R,2026-02-25_11h40.07.219,VisualSearch_2526_3,,2025.2.4,2026-02-25 11h40.07.545474 +0100,
vertical.xlsx,The target is tilted.,135,25,1,3,1,1,1,1,1,1,1,1,1,1,1,1,0,11,12,135,space,4.653314399999999,None,1,1,0.627919799999745,None,space,1.225173199999972,None,0,0,0,1,,,,,3,1,25,0,86.91322690000015,,,,,,,,,,,,,,,,,,,,,86.89798100000007,86.91322690000015,87.3969591,87.40163360000042,87.4206094000001,88.0637711000004,,,,,88.06397090000019,88.07910140000013,88.27920960000029,88.26312340000004,87.4206094000001,,,,,,,,1,1,0.627919799999745,None,,,,,,,,816,24,M,R,2026-02-25_11h40.07.219,VisualSearch_2526_3,,2025.2.4,2026-02-25 11h40.07.545474 +0100,
vertical.xlsx,The target is tilted.,135,26,2,3,0,1,1,1,1,1,1,1,1,1,1,1,1,11,12,135,space,4.653314399999999,None,0,1,1.5892988999999034,None,space,1.225173199999972,None,0,0,0,1,,,,,3,2,26,4,88.27920960000029,,,,,,,,,,,,,,,,,,,,,88.2635795000001,88.27920960000029,88.76358880000043,88.76985530000002,88.78255620000027,90.3800981000004,,,,,90.38029580000011,90.39530270000023,90.59602460000042,90.57987630000025,88.78255620000027,,,,,,,,0,1,1.5892988999999034,None,,,,,,,,816,24,M,R,2026-02-25_11h40.07.219,VisualSearch_2526_3,,2025.2.4,2026-02-25 11h40.07.545474 +0100,
vertical.xlsx,The target is tilted.,135,27,3,3,0,0,0,0,0,0,0,0,0,0,0,0,1,1,1,135,space,4.653314399999999,None,0,1,0.63739970000006,None,space,1.225173199999972,None,0,0,0,1,,,,,3,3,27,7,90.59602460000042,,,,,,,,,,,,,,,,,,,,,90.58059260000027,90.59602460000042,91.07986140000003,91.08455470000035,91.10017360000029,91.74670860000015,,,,,91.74690559999999,91.76202220000005,91.96243900000036,91.94642000000022,91.10017360000029,,,,,,,,0,1,0.63739970000006,None,,,,,,,,816,24,M,R,2026-02-25_11h40.07.219,VisualSearch_2526_3,,2025.2.4,2026-02-25 11h40.07.545474 +0100,
vertical.xlsx,The target is tilted.,135,28,4,3,1,1,1,1,0,0,0,0,0,0,0,0,0,3,4,135,space,4.653314399999999,None,1,1,0.48083760000008624,None,space,1.225173199999972,None,0,0,0,1,,,,,3,4,28,2,91.96243900000036,,,,,,,,,,,,,,,,,,,,,91.94711110000026,91.96243900000036,92.44627209999999,92.45096090000015,92.47016610000037,92.96339930000022,,,,,92.96359380000013,92.97827900000038,93.17903700000033,93.16281710000021,92.47016610000037,,,,,,,,1,1,0.48083760000008624,None,,,,,,,,816,24,M,R,2026-02-25_11h40.07.219,VisualSearch_2526_3,,2025.2.4,2026-02-25 11h40.07.545474 +0100,
vertical.xlsx,The target is tilted.,135,29,5,3,0,1,1,1,1,1,1,1,0,0,0,0,1,7,8,135,space,4.653314399999999,None,0,1,0.569392500000049,None,space,1.225173199999972,None,0,0,0,1,,,,,3,5,29,5,93.17903700000033,,,,,,,,,,,,,,,,,,,,,93.16352710000001,93.17903700000033,93.66274560000011,93.66763930000025,93.68776460000026,94.26310820000026,,,,,94.26330160000043,94.27829360000032,94.47838150000007,94.46258590000025,93.68776460000026,,,,,,,,0,1,0.569392500000049,None,,,,,,,,816,24,M,R,2026-02-25_11h40.07.219,VisualSearch_2526_3,,2025.2.4,2026-02-25 11h40.07.545474 +0100,
vertical.xlsx,The target is tilted.,135,30,6,3,1,1,1,1,1,1,1,1,0,0,0,0,0,7,8,135,space,4.653314399999999,None,1,1,0.6145803999997952,None,space,1.225173199999972,None,0,0,0,1,,,,,3,6,30,1,94.47838150000007,,,,,,,,,,,,,,,,,,,,,94.46333650000042,94.47838150000007,94.9626731000003,94.96789260000014,94.98697470000025,95.6130333000001,,,,,95.61322870000004,95.62806030000002,95.82864160000008,95.81234370000038,94.98697470000025,,,,,,,,1,1,0.6145803999997952,None,,,,,,,,816,24,M,R,2026-02-25_11h40.07.219,VisualSearch_2526_3,,2025.2.4,2026-02-25 11h40.07.545474 +0100,
vertical.xlsx,The target is tilted.,135,31,7,3,1,0,0,0,0,0,0,0,0,0,0,0,0,0,1,135,space,4.653314399999999,None,1,1,0.5005142999998498,None,space,1.225173199999972,None,0,0,0,1,,,,,3,7,31,3,95.82864160000008,,,,,,,,,,,,,,,,,,,,,95.81306810000024,95.82864160000008,96.31201760000022,96.31675880000012,96.3356845000003,96.8463154000001,,,,,96.84653950000029,96.86103980000007,97.06173350000017,97.04528530000016,96.3356845000003,,,,,,,,1,1,0.5005142999998498,None,,,,,,,,816,24,M,R,2026-02-25_11h40.07.219,VisualSearch_2526_3,,2025.2.4,2026-02-25 11h40.07.545474 +0100,
vertical.xlsx,The target is tilted.,135,32,0,4,1,0,0,0,0,0,0,0,0,0,0,0,0,0,1,135,space,4.653314399999999,None,0,0,0.562669200000073,None,space,1.225173199999972,None,0,0,0,1,,,,,4,0,32,3,97.06173350000017,,,,,,,,,,,,,,,,,,,,,97.04602820000036,97.06173350000017,97.54538300000013,97.55070890000025,97.56968040000038,98.14545730000009,,,,,98.14565690000018,98.16107730000022,98.3609421000001,98.34544320000032,97.56968040000038,,,,,,,,0,0,0.562669200000073,None,,,,,,,,816,24,M,R,2026-02-25_11h40.07.219,VisualSearch_2526_3,,2025.2.4,2026-02-25 11h40.07.545474 +0100,
vertical.xlsx,The target is tilted.,135,33,1,4,0,0,0,0,0,0,0,0,0,0,0,0,1,1,1,135,space,4.653314399999999,None,0,1,0.503407199999856,None,space,1.225173199999972,None,0,0,0,1,,,,,4,1,33,7,98.3609421000001,,,,,,,,,,,,,,,,,,,,,98.34626560000015,98.3609421000001,98.84501790000013,98.84996840000031,98.86905569999999,99.37913290000006,,,,,99.37932610000007,99.39433700000018,99.59475870000006,99.5785990000004,98.86905569999999,,,,,,,,0,1,0.503407199999856,None,,,,,,,,816,24,M,R,2026-02-25_11h40.07.219,VisualSearch_2526_3,,2025.2.4,2026-02-25 11h40.07.545474 +0100,
vertical.xlsx,The target is tilted.,135,34,2,4,0,1,1,1,1,1,1,1,0,0,0,0,1,7,8,135,space,4.653314399999999,None,0,1,1.8237967000000026,None,space,1.225173199999972,None,0,0,0,1,,,,,4,2,34,5,99.59475870000006,,,,,,,,,,,,,,,,,,,,,99.57930810000016,99.59475870000006,100.07859410000037,100.08321420000038,100.09447780000028,101.92882989999998,,,,,101.92902730000014,101.94384600000012,102.1441990000003,102.1277497000001,100.09447780000028,,,,,,,,0,1,1.8237967000000026,None,,,,,,,,816,24,M,R,2026-02-25_11h40.07.219,VisualSearch_2526_3,,2025.2.4,2026-02-25 11h40.07.545474 +0100,
vertical.xlsx,The target is tilted.,135,35,3,4,1,1,1,1,1,1,1,1,1,1,1,1,0,11,12,135,space,4.653314399999999,None,1,1,0.8764584000000468,None,space,1.225173199999972,None,0,0,0,1,,,,,4,3,35,0,102.1441990000003,,,,,,,,,,,,,,,,,,,,,102.1281697000004,102.1441990000003,102.62772040000027,102.63208110000005,102.64367660000016,103.52818380000008,,,,,103.5283816000001,103.54366320000008,103.74412560000019,103.72787930000004,102.64367660000016,,,,,,,,1,1,0.8764584000000468,None,,,,,,,,816,24,M,R,2026-02-25_11h40.07.219,VisualSearch_2526_3,,2025.2.4,2026-02-25 11h40.07.545474 +0100,
vertical.xlsx,The target is tilted.,135,36,4,4,1,1,1,1,1,1,1,1,0,0,0,0,0,7,8,135,space,4.653314399999999,None,1,1,1.027700999999979,None,space,1.225173199999972,None,0,0,0,1,,,,,4,4,36,1,103.74412560000019,,,,,,,,,,,,,,,,,,,,,103.7285981,103.74412560000019,104.22752920000039,104.2303678000003,104.24388290000024,105.27797129999999,,,,,105.27816800000028,105.29325080000035,105.4938844000003,105.47772000000032,104.24388290000024,,,,,,,,1,1,1.027700999999979,None,,,,,,,,816,24,M,R,2026-02-25_11h40.07.219,VisualSearch_2526_3,,2025.2.4,2026-02-25 11h40.07.545474 +0100,
vertical.xlsx,The target is tilted.,135,37,5,4,0,1,1,1,0,0,0,0,0,0,0,0,1,3,4,135,space,4.653314399999999,None,0,1,0.6303780999996889,None,space,1.225173199999972,None,0,0,0,1,,,,,4,5,37,6,105.4938844000003,,,,,,,,,,,,,,,,,,,,,105.47843050000029,105.4938844000003,105.97762630000034,105.98237580000023,106.0017329000002,106.64364710000018,,,,,106.64377660000036,106.66001370000004,106.8599878,106.84409300000016,106.0017329000002,,,,,,,,0,1,0.6303780999996889,None,,,,,,,,816,24,M,R,2026-02-25_11h40.07.219,VisualSearch_2526_3,,2025.2.4,2026-02-25 11h40.07.545474 +0100,
vertical.xlsx,The target is tilted.,135,38,6,4,0,1,1,1,1,1,1,1,1,1,1,1,1,11,12,135,space,4.653314399999999,None,0,1,1.4453238999999485,None,space,1.225173199999972,None,0,0,0,1,,,,,4,6,38,4,106.8599878,,,,,,,,,,,,,,,,,,,,,106.84481470000037,106.8599878,107.34389529999999,107.349201,107.36811160000025,108.82657070000005,,,,,108.82668850000027,108.8431555000002,,109.0270329,,,,,,,,,0,1,1.4453238999999485,None,,,,,,,,816,24,M,R,2026-02-25_11h40.07.219,VisualSearch_2526_3,,2025.2.4,2026-02-25 11h40.07.545474 +0100,
vertical.xlsx,The target is tilted.,135,39,7,4,1,1,1,1,0,0,0,0,0,0,0,0,0,3,4,135,space,4.653314399999999,None,1,1,0.5960331999999653,None,space,1.225173199999972,None,0,0,0,1,,,,,4,7,39,2,109.04337900000019,,,,,,,,,,,,,,,,,,,,,109.02779400000009,109.04337900000019,109.52692200000001,109.53119570000035,109.54282590000003,110.14427410000008,,,,,110.1444647000003,110.15938230000029,110.35945470000024,110.34378200000037,109.54282590000003,,,,,,,,1,1,0.5960331999999653,None,,,,,,,,816,24,M,R,2026-02-25_11h40.07.219,VisualSearch_2526_3,,2025.2.4,2026-02-25 11h40.07.545474 +0100,
vertical.xlsx,The target is tilted.,135,40,0,5,1,1,1,1,1,1,1,1,1,1,1,1,0,11,12,135,space,4.653314399999999,None,1,1,0.5356111000000965,None,space,1.225173199999972,None,0,0,0,1,,,,,5,0,40,0,110.35945470000024,,,,,,,,,,,,,,,,,,,,,110.3446014000001,110.35945470000024,110.84358060000022,110.84828990000005,110.8673619000001,111.41044250000004,,,,,111.41063730000042,111.42589350000026,111.62631050000027,111.61013980000007,110.8673619000001,,,,,,,,1,1,0.5356111000000965,None,,,,,,,,816,24,M,R,2026-02-25_11h40.07.219,VisualSearch_2526_3,,2025.2.4,2026-02-25 11h40.07.545474 +0100,
vertical.xlsx,The target is tilted.,135,41,1,5,0,1,1,1,0,0,0,0,0,0,0,0,1,3,4,135,space,4.653314399999999,None,0,1,0.5544967000000725,None,space,1.225173199999972,None,0,0,0,1,,,,,5,1,41,6,111.62631050000027,,,,,,,,,,,,,,,,,,,,,111.61089230000016,111.62631050000027,112.10982540000032,112.1144803000002,112.13359330000003,112.69390700000031,,,,,112.69412200000033,112.70898810000017,112.90936730000021,112.89316670000017,112.13359330000003,,,,,,,,0,1,0.5544967000000725,None,,,,,,,,816,24,M,R,2026-02-25_11h40.07.219,VisualSearch_2526_3,,2025.2.4,2026-02-25 11h40.07.545474 +0100,
vertical.xlsx,The target is tilted.,135,42,2,5,0,0,0,0,0,0,0,0,0,0,0,0,1,1,1,135,space,4.653314399999999,None,0,1,0.5135104999999385,None,space,1.225173199999972,None,0,0,0,1,,,,,5,2,42,7,112.90936730000021,,,,,,,,,,,,,,,,,,,,,112.89393210000026,112.90936730000021,113.3930891,113.39788050000016,113.41689420000012,113.94259170000032,,,,,113.94271050000043,113.95909290000009,,114.14297440000018,113.41689420000012,,,,,,,,0,1,0.5135104999999385,None,,,,,,,,816,24,M,R,2026-02-25_11h40.07.219,VisualSearch_2526_3,,2025.2.4,2026-02-25 11h40.07.545474 +0100,
vertical.xlsx,The target is tilted.,135,43,3,5,0,1,1,1,1,1,1,1,1,1,1,1,1,11,12,135,space,4.653314399999999,None,0,1,1.2720398000001296,None,space,1.225173199999972,None,0,0,0,1,,,,,5,3,43,4,114.15935310000032,,,,,,,,,,,,,,,,,,,,,114.14371260000007,114.15935310000032,114.64289110000027,114.64753250000012,114.66555930000004,115.94304430000011,,,,,115.94324210000013,115.95835950000037,116.15898760000027,116.14278240000021,,,,,,,,,0,1,1.2720398000001296,None,,,,,,,,816,24,M,R,2026-02-25_11h40.07.219,VisualSearch_2526_3,,2025.2.4,2026-02-25 11h40.07.545474 +0100,
vertical.xlsx,The target is tilted.,135,44,4,5,1,1,1,1,1,1,1,1,0,0,0,0,0,7,8,135,space,4.653314399999999,None,1,1,1.1187817999998515,None,space,1.225173199999972,None,0,0,0,1,,,,,5,4,44,1,116.15898760000027,,,,,,,,,,,,,,,,,,,,,116.14355490000025,116.15898760000027,116.64289560000043,116.64754920000041,116.66070340000033,117.79275030000008,,,,,117.79294710000022,117.80829850000009,118.0087924000004,117.9928001000003,116.66070340000033,,,,,,,,1,1,1.1187817999998515,None,,,,,,,,816,24,M,R,2026-02-25_11h40.07.219,VisualSearch_2526_3,,2025.2.4,2026-02-25 11h40.07.545474 +0100,
vertical.xlsx,The target is tilted.,135,45,5,5,1,1,1,1,0,0,0,0,0,0,0,0,0,3,4,135,space,4.653314399999999,None,1,1,0.4670850000002247,None,space,1.225173199999972,None,0,0,0,1,,,,,5,5,45,2,118.0087924000004,,,,,,,,,,,,,,,,,,,,,117.99359240000013,118.0087924000004,118.49244110000018,118.49718800000028,118.51622620000035,118.99309690000018,,,,,118.99329220000027,119.00813020000032,119.20830100000012,119.19261840000036,118.51622620000035,,,,,,,,1,1,0.4670850000002247,None,,,,,,,,816,24,M,R,2026-02-25_11h40.07.219,VisualSearch_2526_3,,2025.2.4,2026-02-25 11h40.07.545474 +0100,
vertical.xlsx,The target is tilted.,135,46,6,5,1,0,0,0,0,0,0,0,0,0,0,0,0,0,1,135,space,4.653314399999999,None,1,1,0.49644560000024285,None,space,1.225173199999972,None,0,0,0,1,,,,,5,6,46,3,119.20830100000012,,,,,,,,,,,,,,,,,,,,,119.19335320000027,119.20830100000012,119.69223640000018,119.69699530000025,119.7161629000002,120.22502420000001,,,,,120.22514190000038,120.24149200000011,,120.42552270000033,119.7161629000002,,,,,,,,1,1,0.49644560000024285,None,,,,,,,,816,24,M,R,2026-02-25_11h40.07.219,VisualSearch_2526_3,,2025.2.4,2026-02-25 11h40.07.545474 +0100,
vertical.xlsx,The target is tilted.,135,47,7,5,0,1,1,1,1,1,1,1,0,0,0,0,1,7,8,135,space,4.653314399999999,None,0,1,0.7678357999998298,None,space,1.225173199999972,None,0,0,0,1,,,,,5,7,47,5,120.44180670000014,,,,,,,,,,,,,,,,,,,,,120.42647000000034,120.44180670000014,120.92531580000013,120.9303017000002,120.94146920000003,121.7255312000002,,,,,121.725727,121.74110210000026,121.94152050000002,121.92543670000032,,,,,,,,,0,1,0.7678357999998298,None,,,,,,,,816,24,M,R,2026-02-25_11h40.07.219,VisualSearch_2526_3,,2025.2.4,2026-02-25 11h40.07.545474 +0100,
vertical.xlsx,The target is tilted.,135,48,0,6,1,1,1,1,0,0,0,0,0,0,0,0,0,3,4,135,space,4.653314399999999,None,1,1,0.5538717999997971,None,space,1.225173199999972,None,0,0,0,1,,,,,6,0,48,2,121.94152050000002,,,,,,,,,,,,,,,,,,,,,121.92619970000032,121.94152050000002,122.42500740000014,122.42968670000027,122.44871060000014,123.00905890000013,,,,,123.00925450000022,123.0242290000001,123.2247384000002,123.20862010000019,122.44871060000014,,,,,,,,1,1,0.5538717999997971,None,,,,,,,,816,24,M,R,2026-02-25_11h40.07.219,VisualSearch_2526_3,,2025.2.4,2026-02-25 11h40.07.545474 +0100,
vertical.xlsx,The target is tilted.,135,49,1,6,0,1,1,1,1,1,1,1,0,0,0,0,1,7,8,135,space,4.653314399999999,None,0,1,0.9467356999998628,None,space,1.225173199999972,None,0,0,0,1,,,,,6,1,49,5,123.2247384000002,,,,,,,,,,,,,,,,,,,,,123.20944120000013,123.2247384000002,123.70848500000011,123.71312790000002,123.73224990000017,124.69104860000016,,,,,124.69116789999998,124.70756470000015,124.9077970000003,124.89113140000018,123.73224990000017,,,,,,,,0,1,0.9467356999998628,None,,,,,,,,816,24,M,R,2026-02-25_11h40.07.219,VisualSearch_2526_3,,2025.2.4,2026-02-25 11h40.07.545474 +0100,
vertical.xlsx,The target is tilted.,135,50,2,6,1,1,1,1,1,1,1,1,0,0,0,0,0,7,8,135,space,4.653314399999999,None,1,1,0.7834729000001062,None,space,1.225173199999972,None,0,0,0,1,,,,,6,2,50,1,124.9077970000003,,,,,,,,,,,,,,,,,,,,,124.89187110000012,124.9077970000003,125.39142120000042,125.39609250000012,125.41501930000004,126.20865790000016,,,,,126.20887380000022,126.2237769000003,126.42427320000024,126.40815790000033,125.41501930000004,,,,,,,,1,1,0.7834729000001062,None,,,,,,,,816,24,M,R,2026-02-25_11h40.07.219,VisualSearch_2526_3,,2025.2.4,2026-02-25 11h40.07.545474 +0100,
vertical.xlsx,The target is tilted.,135,51,3,6,0,0,0,0,0,0,0,0,0,0,0,0,1,1,1,135,space,4.653314399999999,None,0,1,0.5898075999998582,None,space,1.225173199999972,None,0,0,0,1,,,,,6,3,51,7,126.42427320000024,,,,,,,,,,,,,,,,,,,,,126.4089826000004,126.42427320000024,126.90778260000025,126.91277610000043,126.93058830000018,127.52479149999999,,,,,127.52500090000012,127.54024180000033,127.74069820000022,127.72433600000022,126.93058830000018,,,,,,,,0,1,0.5898075999998582,None,,,,,,,,816,24,M,R,2026-02-25_11h40.07.219,VisualSearch_2526_3,,2025.2.4,2026-02-25 11h40.07.545474 +0100,
vertical.xlsx,The target is tilted.,135,52,4,6,0,1,1,1,1,1,1,1,1,1,1,1,1,11,12,135,space,4.653314399999999,None,0,1,0.9622595000000729,None,space,1.225173199999972,None,0,0,0,1,,,,,6,4,52,4,127.74069820000022,,,,,,,,,,,,,,,,,,,,,127.72508940000034,127.74069820000022,128.22449110000025,128.2292669000003,128.24828890000026,129.2249343000003,,,,,129.2251309000003,129.239963,129.440427,129.42395990000023,128.24828890000026,,,,,,,,0,1,0.9622595000000729,None,,,,,,,,816,24,M,R,2026-02-25_11h40.07.219,VisualSearch_2526_3,,2025.2.4,2026-02-25 11h40.07.545474 +0100,
vertical.xlsx,The target is tilted.,135,53,5,6,0,1,1,1,0,0,0,0,0,0,0,0,1,3,4,135,space,4.653314399999999,None,0,1,0.734204200000022,None,space,1.225173199999972,None,0,0,0,1,,,,,6,5,53,6,129.440427,,,,,,,,,,,,,,,,,,,,,129.4247701000004,129.440427,129.92445280000038,129.92923100000007,129.9402424,130.69021620000012,,,,,130.6903373,130.7067588,130.9069381000004,130.8905907000003,129.9402424,,,,,,,,0,1,0.734204200000022,None,,,,,,,,816,24,M,R,2026-02-25_11h40.07.219,VisualSearch_2526_3,,2025.2.4,2026-02-25 11h40.07.545474 +0100,
vertical.xlsx,The target is tilted.,135,54,6,6,1,0,0,0,0,0,0,0,0,0,0,0,0,0,1,135,space,4.653314399999999,None,1,1,0.480666100000235,None,space,1.225173199999972,None,0,0,0,1,,,,,6,6,54,3,130.9069381000004,,,,,,,,,,,,,,,,,,,,,130.89132260000042,130.9069381000004,131.39037180000014,131.39504660000011,131.4140196000003,131.9072559000001,,,,,131.90748600000006,131.92283480000015,132.12341890000016,132.1072710000003,131.4140196000003,,,,,,,,1,1,0.480666100000235,None,,,,,,,,816,24,M,R,2026-02-25_11h40.07.219,VisualSearch_2526_3,,2025.2.4,2026-02-25 11h40.07.545474 +0100,
vertical.xlsx,The target is tilted.,135,55,7,6,1,1,1,1,1,1,1,1,1,1,1,1,0,11,12,135,space,4.653314399999999,None,0,0,1.209413300000051,None,space,1.225173199999972,None,0,0,0,1,,,,,6,7,55,0,132.12341890000016,,,,,,,,,,,,,,,,,,,,,132.10799080000015,132.12341890000016,132.60709170000018,132.61173550000012,132.6307453000004,133.85704380000016,,,,,133.85724210000035,133.87263680000024,134.0731780000001,134.05711710000014,132.6307453000004,,,,,,,,0,0,1.209413300000051,None,,,,,,,,816,24,M,R,2026-02-25_11h40.07.219,VisualSearch_2526_3,,2025.2.4,2026-02-25 11h40.07.545474 +0100,
vertical.xlsx,The target is tilted.,135,56,0,7,1,0,0,0,0,0,0,0,0,0,0,0,0,0,1,135,space,4.653314399999999,None,1,1,0.457022600000073,None,space,1.225173199999972,None,0,0,0,1,,,,,7,0,56,3,134.0731780000001,,,,,,,,,,,,,,,,,,,,,134.05792240000028,134.0731780000001,134.5569991000002,134.56161370000018,134.58032690000027,135.0406221000003,,,,,135.04082760000028,135.0558142,135.25640730000032,135.23980630000005,134.58032690000027,,,,,,,,1,1,0.457022600000073,None,,,,,,,,816,24,M,R,2026-02-25_11h40.07.219,VisualSearch_2526_3,,2025.2.4,2026-02-25 11h40.07.545474 +0100,
vertical.xlsx,The target is tilted.,135,57,1,7,0,0,0,0,0,0,0,0,0,0,0,0,1,1,1,135,space,4.653314399999999,None,0,1,0.5365034999999807,None,space,1.225173199999972,None,0,0,0,1,,,,,7,1,57,7,135.25640730000032,,,,,,,,,,,,,,,,,,,,,135.2405547000003,135.25640730000032,135.73973890000025,135.74139280000009,135.75608600000032,136.30663650000042,,,,,136.30685760000006,136.3222777000001,136.5225830000004,136.5064868000004,135.75608600000032,,,,,,,,0,1,0.5365034999999807,None,,,,,,,,816,24,M,R,2026-02-25_11h40.07.219,VisualSearch_2526_3,,2025.2.4,2026-02-25 11h40.07.545474 +0100,
vertical.xlsx,The target is tilted.,135,58,2,7,0,1,1,1,1,1,1,1,1,1,1,1,1,11,12,135,space,4.653314399999999,None,0,1,1.36742170000025,None,space,1.225173199999972,None,0,0,0,1,,,,,7,2,58,4,136.5225830000004,,,,,,,,,,,,,,,,,,,,,136.5074099000003,136.5225830000004,137.0065708000002,137.01156030000038,137.03130510000028,138.40672840000025,,,,,138.40692850000005,138.42207000000008,138.62250510000013,138.60624160000043,137.03130510000028,,,,,,,,0,1,1.36742170000025,None,,,,,,,,816,24,M,R,2026-02-25_11h40.07.219,VisualSearch_2526_3,,2025.2.4,2026-02-25 11h40.07.545474 +0100,
vertical.xlsx,The target is tilted.,135,59,3,7,0,1,1,1,0,0,0,0,0,0,0,0,1,3,4,135,space,4.653314399999999,None,0,1,0.5977742999998554,None,space,1.225173199999972,None,0,0,0,1,,,,,7,3,59,6,138.62250510000013,,,,,,,,,,,,,,,,,,,,,138.60704030000034,138.62250510000013,139.10641060000034,139.11145590000024,139.13097620000008,139.73971180000035,,,,,139.73990470000035,139.7551671000001,139.95560220000016,139.93950220000033,139.13097620000008,,,,,,,,0,1,0.5977742999998554,None,,,,,,,,816,24,M,R,2026-02-25_11h40.07.219,VisualSearch_2526_3,,2025.2.4,2026-02-25 11h40.07.545474 +0100,
vertical.xlsx,The target is tilted.,135,60,4,7,0,1,1,1,1,1,1,1,0,0,0,0,1,7,8,135,space,4.653314399999999,None,0,1,0.6564353000003393,None,space,1.225173199999972,None,0,0,0,1,,,,,7,4,60,5,139.95560220000016,,,,,,,,,,,,,,,,,,,,,139.9402124000003,139.95560220000016,140.43933040000002,140.44398,140.46311390000028,141.12293850000015,,,,,141.12313300000005,141.13802510000005,141.33883830000013,141.3226209000004,140.46311390000028,,,,,,,,0,1,0.6564353000003393,None,,,,,,,,816,24,M,R,2026-02-25_11h40.07.219,VisualSearch_2526_3,,2025.2.4,2026-02-25 11h40.07.545474 +0100,
vertical.xlsx,The target is tilted.,135,61,5,7,1,1,1,1,1,1,1,1,0,0,0,0,0,7,8,135,space,4.653314399999999,None,1,1,0.9168519999998352,None,space,1.225173199999972,None,0,0,0,1,,,,,7,5,61,1,141.33883830000013,,,,,,,,,,,,,,,,,,,,,141.32333990000006,141.33883830000013,141.82249060000004,141.82699010000033,141.84559130000025,142.77261940000017,,,,,142.7728103000004,142.78810120000026,142.98857280000038,142.97238350000043,141.84559130000025,,,,,,,,1,1,0.9168519999998352,None,,,,,,,,816,24,M,R,2026-02-25_11h40.07.219,VisualSearch_2526_3,,2025.2.4,2026-02-25 11h40.07.545474 +0100,
vertical.xlsx,The target is tilted.,135,62,6,7,1,1,1,1,1,1,1,1,1,1,1,1,0,11,12,135,space,4.653314399999999,None,1,1,1.313848599999801,None,space,1.225173199999972,None,0,0,0,1,,,,,7,6,62,0,142.98857280000038,,,,,,,,,,,,,,,,,,,,,142.9730854000004,142.98857280000038,143.47156300000006,143.4746164000003,143.4882779000004,144.80568490000041,,,,,144.8058903000001,144.82115280000016,145.02145440000004,145.00509340000008,143.4882779000004,,,,,,,,1,1,1.313848599999801,None,,,,,,,,816,24,M,R,2026-02-25_11h40.07.219,VisualSearch_2526_3,,2025.2.4,2026-02-25 11h40.07.545474 +0100,
vertical.xlsx,The target is tilted.,135,63,7,7,1,1,1,1,0,0,0,0,0,0,0,0,0,3,4,135,space,4.653314399999999,None,1,1,0.5397762000002331,None,space,1.225173199999972,None,0,0,0,1,,,,,7,7,63,2,145.02145440000004,,,,,,,,,,,,,,,,,,,,,145.0058183000001,145.02145440000004,145.50535209999998,145.51014120000036,145.52907340000002,146.07215040000028,,,,,146.07234720000042,146.08758500000022,146.2881212000002,146.2718947000003,145.52907340000002,,,,,,,,1,1,0.5397762000002331,None,,,,,,,,816,24,M,R,2026-02-25_11h40.07.219,VisualSearch_2526_3,,2025.2.4,2026-02-25 11h40.07.545474 +0100,
vertical.xlsx,The target is tilted.,135,64,0,8,1,1,1,1,0,0,0,0,0,0,0,0,0,3,4,135,space,4.653314399999999,None,1,1,0.7043392999999014,None,space,1.225173199999972,None,0,0,0,1,,,,,8,0,64,2,146.2881212000002,,,,,,,,,,,,,,,,,,,,,146.27261610000005,146.2881212000002,146.77182790000006,146.77635510000027,146.79441590000033,147.50565880000022,,,,,147.50585130000036,147.52074960000027,147.72077040000022,147.7047136000001,146.79441590000033,,,,,,,,1,1,0.7043392999999014,None,,,,,,,,816,24,M,R,2026-02-25_11h40.07.219,VisualSearch_2526_3,,2025.2.4,2026-02-25 11h40.07.545474 +0100,
vertical.xlsx,The target is tilted.,135,65,1,8,1,1,1,1,1,1,1,1,1,1,1,1,0,11,12,135,space,4.653314399999999,None,1,1,0.9293510000002243,None,space,1.225173199999972,None,0,0,0,1,,,,,8,1,65,0,147.72077040000022,,,,,,,,,,,,,,,,,,,,,147.70544040000004,147.72077040000022,148.20503350000035,148.20974950000027,148.22863470000038,149.17145690000007,,,,,149.17168450000008,149.1871027000002,149.38766380000015,149.37142920000042,148.22863470000038,,,,,,,,1,1,0.9293510000002243,None,,,,,,,,816,24,M,R,2026-02-25_11h40.07.219,VisualSearch_2526_3,,2025.2.4,2026-02-25 11h40.07.545474 +0100,
vertical.xlsx,The target is tilted.,135,66,2,8,0,1,1,1,1,1,1,1,1,1,1,1,1,11,12,135,space,4.653314399999999,None,0,1,1.2507258000000547,None,space,1.225173199999972,None,0,0,0,1,,,,,8,2,66,4,149.38766380000015,,,,,,,,,,,,,,,,,,,,,149.37215830000014,149.38766380000015,149.8710314,149.8741669000001,149.88768100000016,151.15455790000033,,,,,151.1547501,151.17012950000026,151.3704558000004,151.3541494000001,149.88768100000016,,,,,,,,0,1,1.2507258000000547,None,,,,,,,,816,24,M,R,2026-02-25_11h40.07.219,VisualSearch_2526_3,,2025.2.4,2026-02-25 11h40.07.545474 +0100,
vertical.xlsx,The target is tilted.,135,67,3,8,0,1,1,1,1,1,1,1,0,0,0,0,1,7,8,135,space,4.653314399999999,None,0,1,0.8114451000001281,None,space,1.225173199999972,None,0,0,0,1,,,,,8,3,67,5,151.3704558000004,,,,,,,,,,,,,,,,,,,,,151.35458480000034,151.3704558000004,151.85447710000017,151.85919000000013,151.87839610000037,152.7043652000002,,,,,152.70462620000035,152.7199539000003,152.92012440000008,152.90427090000003,151.87839610000037,,,,,,,,0,1,0.8114451000001281,None,,,,,,,,816,24,M,R,2026-02-25_11h40.07.219,VisualSearch_2526_3,,2025.2.4,2026-02-25 11h40.07.545474 +0100,
vertical.xlsx,The target is tilted.,135,68,4,8,0,0,0,0,0,0,0,0,0,0,0,0,1,1,1,135,space,4.653314399999999,None,0,1,0.5856829000003927,None,space,1.225173199999972,None,0,0,0,1,,,,,8,4,68,7,152.92012440000008,,,,,,,,,,,,,,,,,,,,,152.90506090000008,152.92012440000008,153.4043982000003,153.40923050000038,153.42815110000038,154.0212133,,,,,154.02140680000002,154.0365256,154.23689690000037,154.22064980000005,153.42815110000038,,,,,,,,0,1,0.5856829000003927,None,,,,,,,,816,24,M,R,2026-02-25_11h40.07.219,VisualSearch_2526_3,,2025.2.4,2026-02-25 11h40.07.545474 +0100,
vertical.xlsx,The target is tilted.,135,69,5,8,1,0,0,0,0,0,0,0,0,0,0,0,0,0,1,135,space,4.653314399999999,None,1,1,0.3750116999999591,None,space,1.225173199999972,None,0,0,0,1,,,,,8,5,69,3,154.23689690000037,,,,,,,,,,,,,,,,,,,,,154.2213783000002,154.23689690000037,154.72054340000022,154.7251569,154.7447288000003,155.1369069000002,,,,,155.1370665000004,155.15301770000042,,155.33717520000027,154.7447288000003,,,,,,,,1,1,0.3750116999999591,None,,,,,,,,816,24,M,R,2026-02-25_11h40.07.219,VisualSearch_2526_3,,2025.2.4,2026-02-25 11h40.07.545474 +0100,
vertical.xlsx,The target is tilted.,135,70,6,8,0,1,1,1,0,0,0,0,0,0,0,0,1,3,4,135,space,4.653314399999999,None,0,1,0.4961873000002015,None,space,1.225173199999972,None,0,0,0,1,,,,,8,6,70,6,155.35353430000032,,,,,,,,,,,,,,,,,,,,,155.3380701000001,155.35353430000032,155.8373028000001,155.8418542000004,155.86139250000042,156.37038820000043,,,,,156.37058800000023,156.38607260000026,156.5864617000002,156.57043330000033,155.86139250000042,,,,,,,,0,1,0.4961873000002015,None,,,,,,,,816,24,M,R,2026-02-25_11h40.07.219,VisualSearch_2526_3,,2025.2.4,2026-02-25 11h40.07.545474 +0100,
vertical.xlsx,The target is tilted.,135,71,7,8,1,1,1,1,1,1,1,1,0,0,0,0,0,7,8,135,space,4.653314399999999,None,1,1,0.5489730999997846,None,space,1.225173199999972,None,0,0,0,1,,,,,8,7,71,1,156.5864617000002,,,,,,,,,,,,,,,,,,,,,156.57114500000034,156.5864617000002,157.0700498000001,157.07466990000012,157.09364840000035,157.65427230000023,,,,,157.6544713000003,157.66925330000004,157.86938510000027,157.85356430000002,157.09364840000035,,,,,,,,1,1,0.5489730999997846,None,,,,,,,,816,24,M,R,2026-02-25_11h40.07.219,VisualSearch_2526_3,,2025.2.4,2026-02-25 11h40.07.545474 +0100,
vertical.xlsx,The target is tilted.,135,72,0,9,1,1,1,1,1,1,1,1,0,0,0,0,0,7,8,135,space,4.653314399999999,None,0,0,2.02162350000026,None,space,1.225173199999972,None,0,0,0,1,,,,,9,0,72,1,157.86938510000027,,,,,,,,,,,,,,,,,,,,,157.85430570000017,157.86938510000027,158.35324600000013,158.35844120000002,158.37708040000007,160.40369490000012,,,,,160.40389860000005,160.4186522,160.61931110000023,160.6030995000001,158.37708040000007,,,,,,,,0,0,2.02162350000026,None,,,,,,,,816,24,M,R,2026-02-25_11h40.07.219,VisualSearch_2526_3,,2025.2.4,2026-02-25 11h40.07.545474 +0100,
vertical.xlsx,The target is tilted.,135,73,1,9,0,1,1,1,1,1,1,1,0,0,0,0,1,7,8,135,space,4.653314399999999,None,0,1,0.8468139000001429,None,space,1.225173199999972,None,0,0,0,1,,,,,9,1,73,5,160.61931110000023,,,,,,,,,,,,,,,,,,,,,160.60384300000032,160.61931110000023,161.10285250000015,161.10753890000024,161.12630160000026,161.9863289,,,,,161.98653390000027,162.00194290000036,162.20249270000022,162.1863282000004,161.12630160000026,,,,,,,,0,1,0.8468139000001429,None,,,,,,,,816,24,M,R,2026-02-25_11h40.07.219,VisualSearch_2526_3,,2025.2.4,2026-02-25 11h40.07.545474 +0100,
vertical.xlsx,The target is tilted.,135,74,2,9,1,1,1,1,0,0,0,0,0,0,0,0,0,3,4,135,space,4.653314399999999,None,1,1,0.49931740000010905,None,space,1.225173199999972,None,0,0,0,1,,,,,9,2,74,2,162.20249270000022,,,,,,,,,,,,,,,,,,,,,162.18714850000015,162.20249270000022,162.68625020000036,162.69081450000022,162.70647420000023,163.21945780000033,,,,,163.2196845000003,163.23522920000005,163.43552450000016,163.41963450000003,162.70647420000023,,,,,,,,1,1,0.49931740000010905,None,,,,,,,,816,24,M,R,2026-02-25_11h40.07.219,VisualSearch_2526_3,,2025.2.4,2026-02-25 11h40.07.545474 +0100,
vertical.xlsx,The target is tilted.,135,75,3,9,0,0,0,0,0,0,0,0,0,0,0,0,1,1,1,135,space,4.653314399999999,None,0,1,0.4903313999998318,None,space,1.225173199999972,None,0,0,0,1,,,,,9,3,75,7,163.43552450000016,,,,,,,,,,,,,,,,,,,,,163.4203690000004,163.43552450000016,163.9194762000002,163.92419690000042,163.9432766,164.43661190000012,,,,,164.4368953000003,164.45165889999998,164.65181010000015,164.6359325000003,163.9432766,,,,,,,,0,1,0.4903313999998318,None,,,,,,,,816,24,M,R,2026-02-25_11h40.07.219,VisualSearch_2526_3,,2025.2.4,2026-02-25 11h40.07.545474 +0100,
vertical.xlsx,The target is tilted.,135,76,4,9,0,1,1,1,0,0,0,0,0,0,0,0,1,3,4,135,space,4.653314399999999,None,0,1,0.4360526000000391,None,space,1.225173199999972,None,0,0,0,1,,,,,9,4,76,6,164.65181010000015,,,,,,,,,,,,,,,,,,,,,164.63665630000014,164.65181010000015,165.13583440000002,165.14043370000036,165.1593011,165.60300130000041,,,,,165.60318990000042,165.61815300000035,165.81854040000007,165.80206720000024,165.1593011,,,,,,,,0,1,0.4360526000000391,None,,,,,,,,816,24,M,R,2026-02-25_11h40.07.219,VisualSearch_2526_3,,2025.2.4,2026-02-25 11h40.07.545474 +0100,
vertical.xlsx,The target is tilted.,135,77,5,9,0,1,1,1,1,1,1,1,1,1,1,1,1,11,12,135,space,4.653314399999999,None,0,1,1.774132400000326,None,space,1.225173199999972,None,0,0,0,1,,,,,9,5,77,4,165.81854040000007,,,,,,,,,,,,,,,,,,,,,165.80251550000003,165.81854040000007,166.30211880000024,166.3047603,166.3184040000001,168.1026535000001,,,,,168.10284730000012,168.11754800000017,168.3182998000002,168.30206540000017,166.3184040000001,,,,,,,,0,1,1.774132400000326,None,,,,,,,,816,24,M,R,2026-02-25_11h40.07.219,VisualSearch_2526_3,,2025.2.4,2026-02-25 11h40.07.545474 +0100,
vertical.xlsx,The target is tilted.,135,78,6,9,1,0,0,0,0,0,0,0,0,0,0,0,0,0,1,135,space,4.653314399999999,None,1,1,0.40141880000010133,None,space,1.225173199999972,None,0,0,0,1,,,,,9,6,78,3,168.3182998000002,,,,,,,,,,,,,,,,,,,,,168.30281160000004,168.3182998000002,168.80214550000028,168.80808640000032,168.82699820000016,169.23585820000017,,,,,169.23607270000002,169.25092920000043,169.4514325,169.43529360000002,168.82699820000016,,,,,,,,1,1,0.40141880000010133,None,,,,,,,,816,24,M,R,2026-02-25_11h40.07.219,VisualSearch_2526_3,,2025.2.4,2026-02-25 11h40.07.545474 +0100,
vertical.xlsx,The target is tilted.,135,79,7,9,1,1,1,1,1,1,1,1,1,1,1,1,0,11,12,135,space,4.653314399999999,None,1,1,0.7951101000003291,None,space,1.225173199999972,None,0,0,0,1,,,,,9,7,79,0,169.4514325,,,,,,,,,,,,,,,,,,,,,169.43603530000019,169.4514325,169.93491170000016,169.93876130000035,169.9570391000002,170.7684701000003,,,,,170.7686630000003,170.78395130000035,170.9845862000002,170.96866260000024,169.9570391000002,,,,,,,,1,1,0.7951101000003291,None,,,,,,,,816,24,M,R,2026-02-25_11h40.07.219,VisualSearch_2526_3,,2025.2.4,2026-02-25 11h40.07.545474 +0100,
vertical.xlsx,The target is tilted.,135,80,0,10,1,1,1,1,1,1,1,1,0,0,0,0,0,7,8,135,space,4.653314399999999,None,1,1,0.7741767999996227,None,space,1.225173199999972,None,0,0,0,1,,,,,10,0,80,1,170.9845862000002,,,,,,,,,,,,,,,,,,,,,170.96950630000038,170.9845862000002,171.4683917000002,171.47297640000033,171.49247510000032,172.2687305000004,,,,,172.26893230000042,172.28385200000002,172.4843396000001,172.4682146,171.49247510000032,,,,,,,,1,1,0.7741767999996227,None,,,,,,,,816,24,M,R,2026-02-25_11h40.07.219,VisualSearch_2526_3,,2025.2.4,2026-02-25 11h40.07.545474 +0100,
vertical.xlsx,The target is tilted.,135,81,1,10,0,1,1,1,1,1,1,1,1,1,1,1,1,11,12,135,space,4.653314399999999,None,0,1,1.1459827000003315,None,space,1.225173199999972,None,0,0,0,1,,,,,10,1,81,4,172.4843396000001,,,,,,,,,,,,,,,,,,,,,172.46890790000043,172.4843396000001,172.96810780000033,172.9727501000002,172.99159780000036,174.15133590000005,,,,,174.15152190000026,174.1669095000002,174.36740989999998,174.351087,172.99159780000036,,,,,,,,0,1,1.1459827000003315,None,,,,,,,,816,24,M,R,2026-02-25_11h40.07.219,VisualSearch_2526_3,,2025.2.4,2026-02-25 11h40.07.545474 +0100,
vertical.xlsx,The target is tilted.,135,82,2,10,1,0,0,0,0,0,0,0,0,0,0,0,0,0,1,135,space,4.653314399999999,None,1,1,0.42174459999978353,None,space,1.225173199999972,None,0,0,0,1,,,,,10,2,82,3,174.36740989999998,,,,,,,,,,,,,,,,,,,,,174.3518084000002,174.36740989999998,174.85108830000036,174.85556710000037,174.87349770000037,175.3012918000004,,,,,175.3014946000003,175.31673750000027,175.51737920000005,175.50117780000028,174.87349770000037,,,,,,,,1,1,0.42174459999978353,None,,,,,,,,816,24,M,R,2026-02-25_11h40.07.219,VisualSearch_2526_3,,2025.2.4,2026-02-25 11h40.07.545474 +0100,
vertical.xlsx,The target is tilted.,135,83,3,10,0,0,0,0,0,0,0,0,0,0,0,0,1,1,1,135,space,4.653314399999999,None,0,1,0.5948825999998917,None,space,1.225173199999972,None,0,0,0,1,,,,,10,3,83,7,175.51737920000005,,,,,,,,,,,,,,,,,,,,,175.50198799999998,175.51737920000005,176.00060910000002,176.0051107000004,176.01703440000028,176.6179927000003,,,,,176.61818300000004,176.63329460000023,176.8336486000003,176.8175784,176.01703440000028,,,,,,,,0,1,0.5948825999998917,None,,,,,,,,816,24,M,R,2026-02-25_11h40.07.219,VisualSearch_2526_3,,2025.2.4,2026-02-25 11h40.07.545474 +0100,
vertical.xlsx,The target is tilted.,135,84,4,10,1,1,1,1,1,1,1,1,1,1,1,1,0,11,12,135,space,4.653314399999999,None,1,1,0.7192758999999569,None,space,1.225173199999972,None,0,0,0,1,,,,,10,4,84,0,176.8336486000003,,,,,,,,,,,,,,,,,,,,,176.8182926000004,176.8336486000003,177.31752600000027,177.32211160000043,177.34122500000012,178.06781780000028,,,,,178.06800730000032,178.0834861000003,178.2835385000003,178.26773300000013,177.34122500000012,,,,,,,,1,1,0.7192758999999569,None,,,,,,,,816,24,M,R,2026-02-25_11h40.07.219,VisualSearch_2526_3,,2025.2.4,2026-02-25 11h40.07.545474 +0100,
vertical.xlsx,The target is tilted.,135,85,5,10,1,1,1,1,0,0,0,0,0,0,0,0,0,3,4,135,space,4.653314399999999,None,1,1,0.5302517999998599,None,space,1.225173199999972,None,0,0,0,1,,,,,10,5,85,2,178.2835385000003,,,,,,,,,,,,,,,,,,,,,178.26867930000026,178.2835385000003,178.76727420000043,178.77191600000015,178.79077700000016,179.33440770000016,,,,,179.33459820000007,179.3496253000003,179.54992540000012,179.53350490000003,178.79077700000016,,,,,,,,1,1,0.5302517999998599,None,,,,,,,,816,24,M,R,2026-02-25_11h40.07.219,VisualSearch_2526_3,,2025.2.4,2026-02-25 11h40.07.545474 +0100,
vertical.xlsx,The target is tilted.,135,86,6,10,0,1,1,1,1,1,1,1,0,0,0,0,1,7,8,135,space,4.653314399999999,None,0,1,1.2154992999999195,None,space,1.225173199999972,None,0,0,0,1,,,,,10,6,86,5,179.54992540000012,,,,,,,,,,,,,,,,,,,,,179.5342515000002,179.54992540000012,180.0339323000003,180.0391265000003,180.0578713,181.28403560000015,,,,,181.28422500000033,181.2998934000002,181.49931650000008,181.48354240000026,180.0578713,,,,,,,,0,1,1.2154992999999195,None,,,,,,,,816,24,M,R,2026-02-25_11h40.07.219,VisualSearch_2526_3,,2025.2.4,2026-02-25 11h40.07.545474 +0100,
vertical.xlsx,The target is tilted.,135,87,7,10,0,1,1,1,0,0,0,0,0,0,0,0,1,3,4,135,space,4.653314399999999,None,0,1,0.5606173000001036,None,space,1.225173199999972,None,0,0,0,1,,,,,10,7,87,6,181.49931650000008,,,,,,,,,,,,,,,,,,,,,181.4842778000002,181.49931650000008,181.9831178000004,181.98787440000024,182.00672330000043,182.58398890000035,,,,,182.58417840000038,182.5992895000004,182.79912820000027,182.78329950000034,182.00672330000043,,,,,,,,0,1,0.5606173000001036,None,,,,,,,,816,24,M,R,2026-02-25_11h40.07.219,VisualSearch_2526_3,,2025.2.4,2026-02-25 11h40.07.545474 +0100,
vertical.xlsx,The target is tilted.,135,88,0,11,1,0,0,0,0,0,0,0,0,0,0,0,0,0,1,135,space,4.653314399999999,None,1,1,0.4406100000001061,None,space,1.225173199999972,None,0,0,0,1,,,,,11,0,88,3,182.79912820000027,,,,,,,,,,,,,,,,,,,,,182.78404130000035,182.79912820000027,183.28328500000043,183.28780320000033,183.3064061,183.75025770000002,,,,,183.75044760000037,183.76598430000013,183.96593350000012,183.94968450000033,183.3064061,,,,,,,,1,1,0.4406100000001061,None,,,,,,,,816,24,M,R,2026-02-25_11h40.07.219,VisualSearch_2526_3,,2025.2.4,2026-02-25 11h40.07.545474 +0100,
vertical.xlsx,The target is tilted.,135,89,1,11,1,1,1,1,1,1,1,1,0,0,0,0,0,7,8,135,space,4.653314399999999,None,1,1,1.0612662999997156,None,space,1.225173199999972,None,0,0,0,1,,,,,11,1,89,1,183.96593350000012,,,,,,,,,,,,,,,,,,,,,183.95043380000016,183.96593350000012,184.4500025000002,184.45446990000028,184.46583750000036,185.53414340000018,,,,,185.5343353000003,185.5487707000002,185.74922170000036,185.73293870000043,184.46583750000036,,,,,,,,1,1,1.0612662999997156,None,,,,,,,,816,24,M,R,2026-02-25_11h40.07.219,VisualSearch_2526_3,,2025.2.4,2026-02-25 11h40.07.545474 +0100,
vertical.xlsx,The target is tilted.,135,90,2,11,0,1,1,1,1,1,1,1,0,0,0,0,1,7,8,135,space,4.653314399999999,None,0,1,1.274528900000405,None,space,1.225173199999972,None,0,0,0,1,,,,,11,2,90,5,185.74922170000036,,,,,,,,,,,,,,,,,,,,,185.73369460000004,185.74922170000036,186.23240110000006,186.23510160000023,186.24944040000037,187.53262230000018,,,,,187.5327527000004,187.54871580000008,187.74843090000013,187.7326054,186.24944040000037,,,,,,,,0,1,1.274528900000405,None,,,,,,,,816,24,M,R,2026-02-25_11h40.07.219,VisualSearch_2526_3,,2025.2.4,2026-02-25 11h40.07.545474 +0100,
vertical.xlsx,The target is tilted.,135,91,3,11,0,1,1,1,1,1,1,1,1,1,1,1,1,11,12,135,space,4.653314399999999,None,0,1,1.4004458000003979,None,space,1.225173199999972,None,0,0,0,1,,,,,11,3,91,4,187.74843090000013,,,,,,,,,,,,,,,,,,,,,187.73339440000018,187.74843090000013,188.23273020000033,188.2376019000003,188.25560780000023,189.66638710000007,,,,,189.66660010000032,189.6817430000001,189.88195320000023,189.86587510000027,188.25560780000023,,,,,,,,0,1,1.4004458000003979,None,,,,,,,,816,24,M,R,2026-02-25_11h40.07.219,VisualSearch_2526_3,,2025.2.4,2026-02-25 11h40.07.545474 +0100,
vertical.xlsx,The target is tilted.,135,92,4,11,0,1,1,1,0,0,0,0,0,0,0,0,1,3,4,135,space,4.653314399999999,None,0,1,0.6425652000002628,None,space,1.225173199999972,None,0,0,0,1,,,,,11,4,92,6,189.88195320000023,,,,,,,,,,,,,,,,,,,,,189.86665830000038,189.88195320000023,190.36562950000007,190.37021970000023,190.39006550000022,191.04943560000038,,,,,191.0496373000001,191.0649171,191.2649389000003,191.24838590000036,190.39006550000022,,,,,,,,0,1,0.6425652000002628,None,,,,,,,,816,24,M,R,2026-02-25_11h40.07.219,VisualSearch_2526_3,,2025.2.4,2026-02-25 11h40.07.545474 +0100,
vertical.xlsx,The target is tilted.,135,93,5,11,1,1,1,1,1,1,1,1,1,1,1,1,0,11,12,135,space,4.653314399999999,None,1,1,0.710370199999943,None,space,1.225173199999972,None,0,0,0,1,,,,,11,5,93,0,191.2649389000003,,,,,,,,,,,,,,,,,,,,,191.2489032000003,191.2649389000003,191.7481398,191.75199880000037,191.7648647000001,192.4825224000001,,,,,192.4827126,192.49804760000006,192.69813520000025,192.68189520000033,191.7648647000001,,,,,,,,1,1,0.710370199999943,None,,,,,,,,816,24,M,R,2026-02-25_11h40.07.219,VisualSearch_2526_3,,2025.2.4,2026-02-25 11h40.07.545474 +0100,
vertical.xlsx,The target is tilted.,135,94,6,11,0,0,0,0,0,0,0,0,0,0,0,0,1,1,1,135,space,4.653314399999999,None,0,1,0.5510263999999552,None,space,1.225173199999972,None,0,0,0,1,,,,,11,6,94,7,192.69813520000025,,,,,,,,,,,,,,,,,,,,,192.68264540000018,192.69813520000025,193.18186620000006,193.18637669999998,193.2048745000002,193.76567270000032,,,,,193.7658620000002,193.78120480000007,193.9812078,193.96509080000033,193.2048745000002,,,,,,,,0,1,0.5510263999999552,None,,,,,,,,816,24,M,R,2026-02-25_11h40.07.219,VisualSearch_2526_3,,2025.2.4,2026-02-25 11h40.07.545474 +0100,
vertical.xlsx,The target is tilted.,135,95,7,11,1,1,1,1,0,0,0,0,0,0,0,0,0,3,4,135,space,4.653314399999999,None,1,1,0.6201899000002413,None,space,1.225173199999972,None,0,0,0,1,,,,,11,7,95,2,193.9812078,,,,,,,,,,,,,,,,,,,,,193.96582510000007,193.9812078,194.46506690000024,194.46975980000025,194.48850680000032,195.11552790000042,,,,,195.11571520000007,195.13081950000014,195.3310451000002,195.31505240000024,194.48850680000032,,,,,,,,1,1,0.6201899000002413,None,,,,,,,,816,24,M,R,2026-02-25_11h40.07.219,VisualSearch_2526_3,,2025.2.4,2026-02-25 11h40.07.545474 +0100,
vertical.xlsx,The target is tilted.,135,96,0,12,0,1,1,1,0,0,0,0,0,0,0,0,1,3,4,135,space,4.653314399999999,None,0,1,0.5863085000000865,None,space,1.225173199999972,None,0,0,0,1,,,,,12,0,96,6,195.3310451000002,,,,,,,,,,,,,,,,,,,,,195.31585780000023,195.3310451000002,195.8148041000004,195.8200198000004,195.83926310000015,196.4318430000003,,,,,196.43203220000032,196.44723820000036,196.6472288,196.63132410000026,195.83926310000015,,,,,,,,0,1,0.5863085000000865,None,,,,,,,,816,24,M,R,2026-02-25_11h40.07.219,VisualSearch_2526_3,,2025.2.4,2026-02-25 11h40.07.545474 +0100,
vertical.xlsx,The target is tilted.,135,97,1,12,0,0,0,0,0,0,0,0,0,0,0,0,1,1,1,135,space,4.653314399999999,None,0,1,0.6613577000002806,None,space,1.225173199999972,None,0,0,0,1,,,,,12,1,97,7,196.6472288,,,,,,,,,,,,,,,,,,,,,196.63205330000028,196.6472288,197.1312210000001,197.13593040000023,197.15466230000038,197.83176630000025,,,,,197.8319574000002,197.84727770000018,198.04730880000034,198.03117810000003,197.15466230000038,,,,,,,,0,1,0.6613577000002806,None,,,,,,,,816,24,M,R,2026-02-25_11h40.07.219,VisualSearch_2526_3,,2025.2.4,2026-02-25 11h40.07.545474 +0100,
vertical.xlsx,The target is tilted.,135,98,2,12,0,1,1,1,1,1,1,1,1,1,1,1,1,11,12,135,space,4.653314399999999,None,0,1,1.2211715000003096,None,space,1.225173199999972,None,0,0,0,1,,,,,12,2,98,4,198.04730880000034,,,,,,,,,,,,,,,,,,,,,198.03191940000033,198.04730880000034,198.5310867000003,198.53555830000005,198.5542190000001,199.7812259000002,,,,,199.7814169000003,199.7970937,199.9971015000001,199.98081170000023,198.5542190000001,,,,,,,,0,1,1.2211715000003096,None,,,,,,,,816,24,M,R,2026-02-25_11h40.07.219,VisualSearch_2526_3,,2025.2.4,2026-02-25 11h40.07.545474 +0100,
vertical.xlsx,The target is tilted.,135,99,3,12,0,1,1,1,1,1,1,1,0,0,0,0,1,7,8,135,space,4.653314399999999,None,0,1,1.1273851999999351,None,space,1.225173199999972,None,0,0,0,1,,,,,12,3,99,5,199.9971015000001,,,,,,,,,,,,,,,,,,,,,199.9815238000001,199.9971015000001,200.4807605000001,200.48530430000028,200.49687370000038,201.63169060000018,,,,,201.63188350000019,201.64646760000005,201.8468429000004,201.83024530000012,200.49687370000038,,,,,,,,0,1,1.1273851999999351,None,,,,,,,,816,24,M,R,2026-02-25_11h40.07.219,VisualSearch_2526_3,,2025.2.4,2026-02-25 11h40.07.545474 +0100,
vertical.xlsx,The target is tilted.,135,100,4,12,1,0,0,0,0,0,0,0,0,0,0,0,0,0,1,135,space,4.653314399999999,None,1,1,0.5061054000002514,None,space,1.225173199999972,None,0,0,0,1,,,,,12,4,100,3,201.8468429000004,,,,,,,,,,,,,,,,,,,,,201.8309903000004,201.8468429000004,202.33038670000042,202.3350329,202.35283270000036,202.86425910000025,,,,,202.86446400000023,202.87931930000013,203.07959200000005,203.0638630000003,202.35283270000036,,,,,,,,1,1,0.5061054000002514,None,,,,,,,,816,24,M,R,2026-02-25_11h40.07.219,VisualSearch_2526_3,,2025.2.4,2026-02-25 11h40.07.545474 +0100,
vertical.xlsx,The target is tilted.,135,101,5,12,1,1,1,1,1,1,1,1,1,1,1,1,0,11,12,135,space,4.653314399999999,None,1,1,0.5303017000001091,None,space,1.225173199999972,None,0,0,0,1,,,,,12,5,101,0,203.07959200000005,,,,,,,,,,,,,,,,,,,,,203.06455370000003,203.07959200000005,203.5638452000003,203.56842600000027,203.5861457000001,204.1305457000003,,,,,204.1307370000004,204.1464374000002,204.34644480000043,204.3299519000002,203.5861457000001,,,,,,,,1,1,0.5303017000001091,None,,,,,,,,816,24,M,R,2026-02-25_11h40.07.219,VisualSearch_2526_3,,2025.2.4,2026-02-25 11h40.07.545474 +0100,
vertical.xlsx,The target is tilted.,135,102,6,12,1,1,1,1,1,1,1,1,0,0,0,0,0,7,8,135,space,4.653314399999999,None,0,0,0.8101078999998208,None,space,1.225173199999972,None,0,0,0,1,,,,,12,6,102,1,204.34644480000043,,,,,,,,,,,,,,,,,,,,,204.33076580000034,204.34644480000043,204.82998610000004,204.83451680000007,204.8534338000004,205.6802948000004,,,,,205.68049040000005,205.6962070000004,205.89601660000017,205.87986740000042,204.8534338000004,,,,,,,,0,0,0.8101078999998208,None,,,,,,,,816,24,M,R,2026-02-25_11h40.07.219,VisualSearch_2526_3,,2025.2.4,2026-02-25 11h40.07.545474 +0100,
vertical.xlsx,The target is tilted.,135,103,7,12,1,1,1,1,0,0,0,0,0,0,0,0,0,3,4,135,space,4.653314399999999,None,0,0,0.7181470000000445,None,space,1.225173199999972,None,0,0,0,1,,,,,12,7,103,2,205.89601660000017,,,,,,,,,,,,,,,,,,,,,205.8806096000003,205.89601660000017,206.37964730000022,206.38427580000007,206.40318770000022,207.1304624000004,,,,,207.1306526000003,207.14543860000003,207.34595080000008,207.32973250000032,206.40318770000022,,,,,,,,0,0,0.7181470000000445,None,,,,,,,,816,24,M,R,2026-02-25_11h40.07.219,VisualSearch_2526_3,,2025.2.4,2026-02-25 11h40.07.545474 +0100,
vertical.xlsx,The target is tilted.,135,104,0,13,1,1,1,1,1,1,1,1,0,0,0,0,0,7,8,135,space,4.653314399999999,None,1,1,0.7276772999998684,None,space,1.225173199999972,None,0,0,0,1,,,,,13,0,104,1,207.34595080000008,,,,,,,,,,,,,,,,,,,,,207.33043850000013,207.34595080000008,207.82952240000031,207.83413990000008,207.85306800000035,208.59698160000016,,,,,208.59716990000015,208.61247960000037,208.81245040000022,208.79641900000024,207.85306800000035,,,,,,,,1,1,0.7276772999998684,None,,,,,,,,816,24,M,R,2026-02-25_11h40.07.219,VisualSearch_2526_3,,2025.2.4,2026-02-25 11h40.07.545474 +0100,
vertical.xlsx,The target is tilted.,135,105,1,13,0,0,0,0,0,0,0,0,0,0,0,0,1,1,1,135,space,4.653314399999999,None,0,1,0.6255190999995648,None,space,1.225173199999972,None,0,0,0,1,,,,,13,1,105,7,208.81245040000022,,,,,,,,,,,,,,,,,,,,,208.79723220000005,208.81245040000022,209.2959665000003,209.29974360000006,209.31227520000039,209.94680110000036,,,,,209.94698930000004,209.96192390000033,210.16181620000043,210.1458458000002,209.31227520000039,,,,,,,,0,1,0.6255190999995648,None,,,,,,,,816,24,M,R,2026-02-25_11h40.07.219,VisualSearch_2526_3,,2025.2.4,2026-02-25 11h40.07.545474 +0100,
vertical.xlsx,The target is tilted.,135,106,2,13,1,0,0,0,0,0,0,0,0,0,0,0,0,0,1,135,space,4.653314399999999,None,1,1,0.45221559999981764,None,space,1.225173199999972,None,0,0,0,1,,,,,13,2,106,3,210.16181620000043,,,,,,,,,,,,,,,,,,,,,210.14655110000012,210.16181620000043,210.64611680000007,210.6508233000004,210.66973460000008,211.129868,,,,,211.13007060000018,211.14524470000015,211.34479470000042,211.32837280000012,210.66973460000008,,,,,,,,1,1,0.45221559999981764,None,,,,,,,,816,24,M,R,2026-02-25_11h40.07.219,VisualSearch_2526_3,,2025.2.4,2026-02-25 11h40.07.545474 +0100,
vertical.xlsx,The target is tilted.,135,107,3,13,0,1,1,1,0,0,0,0,0,0,0,0,1,3,4,135,space,4.653314399999999,None,0,1,0.5973337999998876,None,space,1.225173199999972,None,0,0,0,1,,,,,13,3,107,6,211.34479470000042,,,,,,,,,,,,,,,,,,,,,211.32896970000002,211.34479470000042,211.82924980000007,211.8338675,211.85265700000036,212.4622714000002,,,,,212.46245450000015,212.4784179000003,212.67870240000002,212.66254800000024,211.85265700000036,,,,,,,,0,1,0.5973337999998876,None,,,,,,,,816,24,M,R,2026-02-25_11h40.07.219,VisualSearch_2526_3,,2025.2.4,2026-02-25 11h40.07.545474 +0100,
vertical.xlsx,The target is tilted.,135,108,4,13,1,1,1,1,1,1,1,1,1,1,1,1,0,11,12,135,space,4.653314399999999,None,0,0,0.9963238999998794,None,space,1.225173199999972,None,0,0,0,1,,,,,13,4,108,0,212.67870240000002,,,,,,,,,,,,,,,,,,,,,212.6633595000003,212.67870240000002,213.16232820000005,213.1669498000001,213.18574210000043,214.19660550000026,,,,,214.1967977000004,214.21165150000024,214.4115296,214.3952677000002,213.18574210000043,,,,,,,,0,0,0.9963238999998794,None,,,,,,,,816,24,M,R,2026-02-25_11h40.07.219,VisualSearch_2526_3,,2025.2.4,2026-02-25 11h40.07.545474 +0100,
vertical.xlsx,The target is tilted.,135,109,5,13,0,1,1,1,1,1,1,1,0,0,0,0,1,7,8,135,space,4.653314399999999,None,0,1,0.6546059999996032,None,space,1.225173199999972,None,0,0,0,1,,,,,13,5,109,5,214.4115296,,,,,,,,,,,,,,,,,,,,,214.3959791000002,214.4115296,214.89552500000036,214.90010840000014,214.91859300000033,215.57918040000004,,,,,215.57936800000016,215.59444500000018,215.7948422000004,215.7788842,214.91859300000033,,,,,,,,0,1,0.6546059999996032,None,,,,,,,,816,24,M,R,2026-02-25_11h40.07.219,VisualSearch_2526_3,,2025.2.4,2026-02-25 11h40.07.545474 +0100,
vertical.xlsx,The target is tilted.,135,110,6,13,1,1,1,1,0,0,0,0,0,0,0,0,0,3,4,135,space,4.653314399999999,None,1,1,0.46527249999962805,None,space,1.225173199999972,None,0,0,0,1,,,,,13,6,110,2,215.7948422000004,,,,,,,,,,,,,,,,,,,,,215.7796945,215.7948422000004,216.27854350000007,216.2831970000002,216.30194440000014,216.7790901000003,,,,,216.77927800000043,216.79430700000012,216.99458400000003,216.9786408,216.30194440000014,,,,,,,,1,1,0.46527249999962805,None,,,,,,,,816,24,M,R,2026-02-25_11h40.07.219,VisualSearch_2526_3,,2025.2.4,2026-02-25 11h40.07.545474 +0100,
vertical.xlsx,The target is tilted.,135,111,7,13,0,1,1,1,1,1,1,1,1,1,1,1,1,11,12,135,space,4.653314399999999,None,0,1,1.5128249000003962,None,space,1.225173199999972,None,0,0,0,1,,,,,13,7,111,4,216.99458400000003,,,,,,,,,,,,,,,,,,,,,216.97937560000037,216.99458400000003,217.4784267,217.48306040000034,217.5022014000001,219.02876660000038,,,,,219.0289554000001,219.04405420000012,219.24424510000017,219.22820000000002,217.5022014000001,,,,,,,,0,1,1.5128249000003962,None,,,,,,,,816,24,M,R,2026-02-25_11h40.07.219,VisualSearch_2526_3,,2025.2.4,2026-02-25 11h40.07.545474 +0100,
vertical.xlsx,The target is tilted.,135,112,0,14,0,1,1,1,0,0,0,0,0,0,0,0,1,3,4,135,space,4.653314399999999,None,0,1,0.6031426999998075,None,space,1.225173199999972,None,0,0,0,1,,,,,14,0,112,6,219.24424510000017,,,,,,,,,,,,,,,,,,,,,219.2289426000002,219.24424510000017,219.72834280000006,219.7334724000002,219.7453499000003,220.36181830000032,,,,,220.36200750000035,220.37719860000016,220.57758590000003,220.56141640000033,219.7453499000003,,,,,,,,0,1,0.6031426999998075,None,,,,,,,,816,24,M,R,2026-02-25_11h40.07.219,VisualSearch_2526_3,,2025.2.4,2026-02-25 11h40.07.545474 +0100,
vertical.xlsx,The target is tilted.,135,113,1,14,1,1,1,1,0,0,0,0,0,0,0,0,0,3,4,135,space,4.653314399999999,None,1,1,0.5607988000001569,None,space,1.225173199999972,None,0,0,0,1,,,,,14,1,113,2,220.57758590000003,,,,,,,,,,,,,,,,,,,,,220.56222790000038,220.57758590000003,221.0612060000003,221.06590500000038,221.08477840000023,221.66171740000027,,,,,221.66190910000023,221.6772536000003,221.8773196000002,221.86102240000037,221.08477840000023,,,,,,,,1,1,0.5607988000001569,None,,,,,,,,816,24,M,R,2026-02-25_11h40.07.219,VisualSearch_2526_3,,2025.2.4,2026-02-25 11h40.07.545474 +0100,
vertical.xlsx,The target is tilted.,135,114,2,14,1,1,1,1,1,1,1,1,1,1,1,1,0,11,12,135,space,4.653314399999999,None,1,1,0.5534848000002057,None,space,1.225173199999972,None,0,0,0,1,,,,,14,2,114,0,221.8773196000002,,,,,,,,,,,,,,,,,,,,,221.86178040000004,221.8773196000002,222.36116630000015,222.36591660000022,222.3771045000003,222.94488600000022,,,,,222.94507750000002,222.9602807000001,223.16034130000025,223.14425370000026,222.3771045000003,,,,,,,,1,1,0.5534848000002057,None,,,,,,,,816,24,M,R,2026-02-25_11h40.07.219,VisualSearch_2526_3,,2025.2.4,2026-02-25 11h40.07.545474 +0100,
vertical.xlsx,The target is tilted.,135,115,3,14,0,1,1,1,1,1,1,1,0,0,0,0,1,7,8,135,space,4.653314399999999,None,0,1,0.9768022000002929,None,space,1.225173199999972,None,0,0,0,1,,,,,14,3,115,5,223.16034130000025,,,,,,,,,,,,,,,,,,,,,223.1450633000004,223.16034130000025,223.6438793000002,223.6485143,223.66738110000006,224.66115470000022,,,,,224.66134730000022,224.67682000000013,224.8766101000001,224.86078010000028,223.66738110000006,,,,,,,,0,1,0.9768022000002929,None,,,,,,,,816,24,M,R,2026-02-25_11h40.07.219,VisualSearch_2526_3,,2025.2.4,2026-02-25 11h40.07.545474 +0100,
vertical.xlsx,The target is tilted.,135,116,4,14,1,0,0,0,0,0,0,0,0,0,0,0,0,0,1,135,space,4.653314399999999,None,1,1,0.5780273999998826,None,space,1.225173199999972,None,0,0,0,1,,,,,14,4,116,3,224.8766101000001,,,,,,,,,,,,,,,,,,,,,224.86162140000033,224.8766101000001,225.3604524000002,225.36518520000027,225.3839270000003,225.9773814,,,,,225.9775735000003,225.99336400000038,226.19333870000037,226.17723260000002,225.3839270000003,,,,,,,,1,1,0.5780273999998826,None,,,,,,,,816,24,M,R,2026-02-25_11h40.07.219,VisualSearch_2526_3,,2025.2.4,2026-02-25 11h40.07.545474 +0100,
vertical.xlsx,The target is tilted.,135,117,5,14,0,0,0,0,0,0,0,0,0,0,0,0,1,1,1,135,space,4.653314399999999,None,0,1,0.5652614999999059,None,space,1.225173199999972,None,0,0,0,1,,,,,14,5,117,7,226.19333870000037,,,,,,,,,,,,,,,,,,,,,226.1779517,226.19333870000037,226.67705260000002,226.68165110000018,226.70056030000023,227.27682350000032,,,,,227.2770061000001,227.2925110000001,227.49314380000033,227.47694950000005,226.70056030000023,,,,,,,,0,1,0.5652614999999059,None,,,,,,,,816,24,M,R,2026-02-25_11h40.07.219,VisualSearch_2526_3,,2025.2.4,2026-02-25 11h40.07.545474 +0100,
vertical.xlsx,The target is tilted.,135,118,6,14,1,1,1,1,1,1,1,1,0,0,0,0,0,7,8,135,space,4.653314399999999,None,1,1,0.572325500000261,None,space,1.225173199999972,None,0,0,0,1,,,,,14,6,118,1,227.49314380000033,,,,,,,,,,,,,,,,,,,,,227.47769540000036,227.49314380000033,227.97694360000014,227.98152960000016,228.0002012,228.57703500000025,,,,,228.57723560000022,228.59276780000027,228.7928984,228.77649100000008,228.0002012,,,,,,,,1,1,0.572325500000261,None,,,,,,,,816,24,M,R,2026-02-25_11h40.07.219,VisualSearch_2526_3,,2025.2.4,2026-02-25 11h40.07.545474 +0100,
vertical.xlsx,The target is tilted.,135,119,7,14,0,1,1,1,1,1,1,1,1,1,1,1,1,11,12,135,space,4.653314399999999,None,0,1,0.7575956999999107,None,space,1.225173199999972,None,0,0,0,1,,,,,14,7,119,4,228.7928984,,,,,,,,,,,,,,,,,,,,,228.77724230000013,228.7928984,229.2768271,229.28124950000029,229.29929370000036,230.0601413000004,,,,,230.0603285000002,230.0759718000004,230.2983965000003,230.2598683000001,229.29929370000036,,,,,,,,0,1,0.7575956999999107,None,,,,,,,,816,24,M,R,2026-02-25_11h40.07.219,VisualSearch_2526_3,,2025.2.4,2026-02-25 11h40.07.545474 +0100,
vertical.xlsx,The target is tilted.,135,0,0,0,,,,,,,,,,,,,,,,,space,4.653314399999999,None,,,,,space,1.225173199999972,None,0,0,0,1,,,,,,,,,,,,,,,,,,,,,,,,,,,,,,,,,,,,,,,,,,,,,,,,,,,,,,,,,,,,,,,816,24,M,R,2026-02-25_11h40.07.219,VisualSearch_2526_3,,2025.2.4,2026-02-25 11h40.07.545474 +0100,
tilted.xlsx,The target is tilted.,117,0,0,0,1,1,1,1,1,1,1,1,0,0,0,0,0,7,8,117,space,4.284785400000146,None,1,1,0.7448114000003443,None,,,,0,1,1,0,0,0,0,1,,,,,234.62794890000032,,,,,,,,,,,,,,,230.2983965000003,230.2983965000003,230.2983965000003,space,4.284785400000146,None,234.6236310000004,234.62794890000032,235.10899990000007,235.1137335000003,235.13180900000043,235.89279430000033,1,1,0.7448114000003443,None,235.89298810000037,235.9082440000002,236.10869230000026,236.0925989000002,,,,,,,,,,,,,,,,,,,,816,24,M,R,2026-02-25_11h40.07.219,VisualSearch_2526_3,,2025.2.4,2026-02-25 11h40.07.545474 +0100,
tilted.xlsx,The target is tilted.,117,1,1,0,0,1,1,1,0,0,0,0,0,0,0,0,1,3,4,117,space,4.284785400000146,None,0,1,1.0052178999999342,None,,,,0,1,1,0,0,1,1,6,,,,,236.10869230000026,,,,,,,,,,,,,,,,,,,,,236.09335230000033,236.10869230000026,236.59233360000007,236.59696200000008,236.61562600000025,237.62587620000022,0,1,1.0052178999999342,None,237.6260932,237.6416075000002,237.84163950000038,237.8255234000003,236.61562600000025,,,,,,,,,,,,,,,,,,,816,24,M,R,2026-02-25_11h40.07.219,VisualSearch_2526_3,,2025.2.4,2026-02-25 11h40.07.545474 +0100,
tilted.xlsx,The target is tilted.,117,2,2,0,1,0,0,0,0,0,0,0,0,0,0,0,0,0,1,117,space,4.284785400000146,None,1,1,0.6071704000000864,None,,,,0,1,1,0,0,2,2,3,,,,,237.84163950000038,,,,,,,,,,,,,,,,,,,,,237.8262123000004,237.84163950000038,238.32565060000024,238.33071080000036,238.3441644000004,238.9588289000003,1,1,0.6071704000000864,None,238.95901490000006,238.97445480000033,239.1746223,239.15826080000033,238.3441644000004,,,,,,,,,,,,,,,,,,,816,24,M,R,2026-02-25_11h40.07.219,VisualSearch_2526_3,,2025.2.4,2026-02-25 11h40.07.545474 +0100,
tilted.xlsx,The target is tilted.,117,3,3,0,0,1,1,1,1,1,1,1,0,0,0,0,1,7,8,117,space,4.284785400000146,None,1,0,1.103660199999922,None,,,,0,1,1,0,0,3,3,5,,,,,239.1746223,,,,,,,,,,,,,,,,,,,,,239.1589530000001,239.1746223,239.65865640000038,239.66314720000037,239.6820584000002,240.7919594,1,0,1.103660199999922,None,240.79215420000037,240.8077403000002,241.00777440000002,240.99176210000041,239.6820584000002,,,,,,,,,,,,,,,,,,,816,24,M,R,2026-02-25_11h40.07.219,VisualSearch_2526_3,,2025.2.4,2026-02-25 11h40.07.545474 +0100,
tilted.xlsx,The target is tilted.,117,4,4,0,0,1,1,1,1,1,1,1,1,1,1,1,1,11,12,117,space,4.284785400000146,None,1,0,2.0022156999998515,None,,,,0,1,1,0,0,4,4,4,,,,,241.00777440000002,,,,,,,,,,,,,,,,,,,,,240.9924920000003,241.00777440000002,241.49157680000008,241.49620390000018,241.51505850000012,243.5252684000002,1,0,2.0022156999998515,None,243.5254645,243.5406624000002,243.74059220000026,243.7238027000003,241.51505850000012,,,,,,,,,,,,,,,,,,,816,24,M,R,2026-02-25_11h40.07.219,VisualSearch_2526_3,,2025.2.4,2026-02-25 11h40.07.545474 +0100,
tilted.xlsx,The target is tilted.,117,5,5,0,0,0,0,0,0,0,0,0,0,0,0,0,1,1,1,117,space,4.284785400000146,None,0,1,0.6116187000002355,None,,,,0,1,1,0,0,5,5,7,,,,,243.74059220000026,,,,,,,,,,,,,,,,,,,,,243.7242328000002,243.74059220000026,244.22445560000006,244.22915730000022,244.24523050000016,244.85837420000007,0,1,0.6116187000002355,None,244.8585604,244.87390760000017,245.0740262000004,245.0579990000001,244.24523050000016,,,,,,,,,,,,,,,,,,,816,24,M,R,2026-02-25_11h40.07.219,VisualSearch_2526_3,,2025.2.4,2026-02-25 11h40.07.545474 +0100,
tilted.xlsx,The target is tilted.,117,6,6,0,1,1,1,1,0,0,0,0,0,0,0,0,0,3,4,117,space,4.284785400000146,None,1,1,0.6558835999999246,None,,,,0,1,1,0,0,6,6,2,,,,,245.0740262000004,,,,,,,,,,,,,,,,,,,,,245.0586542000001,245.0740262000004,245.55796810000038,245.56321320000006,245.58257690000028,246.2415022,1,1,0.6558835999999246,None,246.24168400000008,246.25694750000002,246.4571909000001,246.4409756,245.58257690000028,,,,,,,,,,,,,,,,,,,816,24,M,R,2026-02-25_11h40.07.219,VisualSearch_2526_3,,2025.2.4,2026-02-25 11h40.07.545474 +0100,
tilted.xlsx,The target is tilted.,117,7,7,0,1,1,1,1,1,1,1,1,1,1,1,1,0,11,12,117,space,4.284785400000146,None,1,1,2.876837400000113,None,,,,0,1,1,0,0,7,7,0,,,,,246.4571909000001,,,,,,,,,,,,,,,,,,,,,246.44172300000037,246.4571909000001,246.9406995000004,246.9452425000004,246.9640932000002,249.85783570000012,1,1,2.876837400000113,None,249.85805310000023,249.87292930000012,250.07328030000008,250.05693240000028,246.9640932000002,,,,,,,,,,,,,,,,,,,816,24,M,R,2026-02-25_11h40.07.219,VisualSearch_2526_3,,2025.2.4,2026-02-25 11h40.07.545474 +0100,
tilted.xlsx,The target is tilted.,117,0,0,0,0,1,1,1,1,1,1,1,0,0,0,0,1,7,8,117,space,4.284785400000146,None,1,0,0.6637951999996403,None,space,6.598579299999983,None,0,1,1,0,,,,,0,0,0,5,256.69211680000035,,,,,,,,,,,,,,,,,,,,,256.68832710000015,256.69211680000035,257.1892237000002,257.1938570000002,257.21247170000015,257.8900043000003,,,,,257.8902283000002,257.90534760000037,258.10550460000013,258.0892920000001,,250.06369470000027,250.07328030000008,250.07328030000008,256.67309250000017,space,6.598579299999983,None,1,0,0.6637951999996403,None,,,,,,,,816,24,M,R,2026-02-25_11h40.07.219,VisualSearch_2526_3,,2025.2.4,2026-02-25 11h40.07.545474 +0100,
tilted.xlsx,The target is tilted.,117,1,1,0,0,1,1,1,0,0,0,0,0,0,0,0,1,3,4,117,space,4.284785400000146,None,0,1,0.6360063000001901,None,space,6.598579299999983,None,0,1,1,0,,,,,0,1,1,6,258.10550460000013,,,,,,,,,,,,,,,,,,,,,258.0899951000001,258.10550460000013,258.5892283000003,258.5938529,258.6126575000003,259.2560370000001,,,,,259.2562288000004,259.2717386000004,259.4719487000002,259.4557738000003,258.6126575000003,,,,,,,,0,1,0.6360063000001901,None,,,,,,,,816,24,M,R,2026-02-25_11h40.07.219,VisualSearch_2526_3,,2025.2.4,2026-02-25 11h40.07.545474 +0100,
tilted.xlsx,The target is tilted.,117,2,2,0,1,1,1,1,1,1,1,1,1,1,1,1,0,11,12,117,space,4.284785400000146,None,1,1,3.458893900000021,None,space,6.598579299999983,None,0,1,1,0,,,,,0,2,2,0,259.4719487000002,,,,,,,,,,,,,,,,,,,,,259.45651380000027,259.4719487000002,259.95578290000003,259.96036410000033,259.97843330000023,263.43902890000027,,,,,263.43921720000026,263.4545938000001,263.6548275,263.63867610000034,259.97843330000023,,,,,,,,1,1,3.458893900000021,None,,,,,,,,816,24,M,R,2026-02-25_11h40.07.219,VisualSearch_2526_3,,2025.2.4,2026-02-25 11h40.07.545474 +0100,
tilted.xlsx,The target is tilted.,117,3,3,0,1,0,0,0,0,0,0,0,0,0,0,0,0,0,1,117,space,4.284785400000146,None,1,1,0.9274825000002238,None,space,6.598579299999983,None,0,1,1,0,,,,,0,3,3,3,263.6548275,,,,,,,,,,,,,,,,,,,,,263.63947700000017,263.6548275,264.13845930000025,264.1430633,264.1624246000001,265.105505,,,,,265.10569910000004,265.121032,265.3210718,265.3047329000001,264.1624246000001,,,,,,,,1,1,0.9274825000002238,None,,,,,,,,816,24,M,R,2026-02-25_11h40.07.219,VisualSearch_2526_3,,2025.2.4,2026-02-25 11h40.07.545474 +0100,
tilted.xlsx,The target is tilted.,117,4,4,0,0,1,1,1,1,1,1,1,1,1,1,1,1,11,12,117,space,4.284785400000146,None,1,0,0.9192635999997947,None,space,6.598579299999983,None,0,1,1,0,,,,,0,4,4,4,265.3210718,,,,,,,,,,,,,,,,,,,,,265.30555460000005,265.3210718,265.8051618000004,265.80983830000014,265.8277102000002,266.75526530000025,,,,,266.7554560000003,266.7706463000004,266.97078230000034,266.95466090000036,265.8277102000002,,,,,,,,1,0,0.9192635999997947,None,,,,,,,,816,24,M,R,2026-02-25_11h40.07.219,VisualSearch_2526_3,,2025.2.4,2026-02-25 11h40.07.545474 +0100,
tilted.xlsx,The target is tilted.,117,5,5,0,1,1,1,1,1,1,1,1,0,0,0,0,0,7,8,117,space,4.284785400000146,None,1,1,0.9728189000002203,None,space,6.598579299999983,None,0,1,1,0,,,,,0,5,5,1,266.97078230000034,,,,,,,,,,,,,,,,,,,,,266.9554089000003,266.97078230000034,267.45467810000036,267.45950070000026,267.4785847000003,268.4546701000004,,,,,268.4548781000003,268.4705124000002,268.6705156000003,268.6544581000003,267.4785847000003,,,,,,,,1,1,0.9728189000002203,None,,,,,,,,816,24,M,R,2026-02-25_11h40.07.219,VisualSearch_2526_3,,2025.2.4,2026-02-25 11h40.07.545474 +0100,
tilted.xlsx,The target is tilted.,117,6,6,0,0,0,0,0,0,0,0,0,0,0,0,0,1,1,1,117,space,4.284785400000146,None,0,1,0.7713111999996727,None,space,6.598579299999983,None,0,1,1,0,,,,,0,6,6,7,268.6705156000003,,,,,,,,,,,,,,,,,,,,,268.6552521000003,268.6705156000003,269.1542966000002,269.15893140000026,269.1777484000004,269.95436070000005,,,,,269.9545542000001,269.9702735000001,270.1701044000001,270.154094,269.1777484000004,,,,,,,,0,1,0.7713111999996727,None,,,,,,,,816,24,M,R,2026-02-25_11h40.07.219,VisualSearch_2526_3,,2025.2.4,2026-02-25 11h40.07.545474 +0100,
tilted.xlsx,The target is tilted.,117,7,7,0,1,1,1,1,0,0,0,0,0,0,0,0,0,3,4,117,space,4.284785400000146,None,1,1,0.9119621999998344,None,space,6.598579299999983,None,0,1,1,0,,,,,0,7,7,2,270.1701044000001,,,,,,,,,,,,,,,,,,,,,270.1548984000001,270.1701044000001,270.6547099000004,270.6596528,270.67863620000026,271.6059081000003,,,,,271.6062127,271.6197503000003,271.8199346000001,271.8035906,270.67863620000026,,,,,,,,1,1,0.9119621999998344,None,,,,,,,,816,24,M,R,2026-02-25_11h40.07.219,VisualSearch_2526_3,,2025.2.4,2026-02-25 11h40.07.545474 +0100,
tilted.xlsx,The target is tilted.,117,8,0,1,0,1,1,1,1,1,1,1,1,1,1,1,1,11,12,117,space,4.284785400000146,None,1,0,3.705969300000106,None,space,6.598579299999983,None,0,1,1,0,,,,,1,0,8,4,271.8199346000001,,,,,,,,,,,,,,,,,,,,,271.8040513000001,271.8199346000001,272.3035888000004,272.3080804000001,272.31983820000005,276.03706900000043,,,,,276.0372665,276.0524723000003,276.25274720000016,276.2365291000001,272.31983820000005,,,,,,,,1,0,3.705969300000106,None,,,,,,,,816,24,M,R,2026-02-25_11h40.07.219,VisualSearch_2526_3,,2025.2.4,2026-02-25 11h40.07.545474 +0100,
tilted.xlsx,The target is tilted.,117,9,1,1,0,1,1,1,1,1,1,1,0,0,0,0,1,7,8,117,space,4.284785400000146,None,1,0,2.1233343999997487,None,space,6.598579299999983,None,0,1,1,0,,,,,1,1,9,5,276.25274720000016,,,,,,,,,,,,,,,,,,,,,276.2373341000002,276.25274720000016,276.7359944,276.7390671000003,276.75263270000005,278.88686320000033,,,,,278.88708320000023,278.90238590000035,279.1020848000003,279.0856278000001,276.75263270000005,,,,,,,,1,0,2.1233343999997487,None,,,,,,,,816,24,M,R,2026-02-25_11h40.07.219,VisualSearch_2526_3,,2025.2.4,2026-02-25 11h40.07.545474 +0100,
tilted.xlsx,The target is tilted.,117,10,2,1,0,0,0,0,0,0,0,0,0,0,0,0,1,1,1,117,space,4.284785400000146,None,0,1,0.5682269000003544,None,space,6.598579299999983,None,0,1,1,0,,,,,1,2,10,7,279.1020848000003,,,,,,,,,,,,,,,,,,,,,279.08605190000026,279.1020848000003,279.5863121000002,279.5913848,279.61026400000037,280.18672400000014,,,,,280.1869173,280.2018512000004,280.4021689000001,280.3858255,279.61026400000037,,,,,,,,0,1,0.5682269000003544,None,,,,,,,,816,24,M,R,2026-02-25_11h40.07.219,VisualSearch_2526_3,,2025.2.4,2026-02-25 11h40.07.545474 +0100,
tilted.xlsx,The target is tilted.,117,11,3,1,1,0,0,0,0,0,0,0,0,0,0,0,0,0,1,117,space,4.284785400000146,None,1,1,0.563536799999838,None,space,6.598579299999983,None,0,1,1,0,,,,,1,3,11,3,280.4021689000001,,,,,,,,,,,,,,,,,,,,,280.3866595000004,280.4021689000001,280.8860552000001,280.8907025000003,280.9095663000003,281.4863970000001,,,,,281.48658780000005,281.5019489000001,281.7021903,281.68606100000034,280.9095663000003,,,,,,,,1,1,0.563536799999838,None,,,,,,,,816,24,M,R,2026-02-25_11h40.07.219,VisualSearch_2526_3,,2025.2.4,2026-02-25 11h40.07.545474 +0100,
tilted.xlsx,The target is tilted.,117,12,4,1,1,1,1,1,1,1,1,1,1,1,1,1,0,11,12,117,space,4.284785400000146,None,0,0,3.560244799999964,None,space,6.598579299999983,None,0,1,1,0,,,,,1,4,12,0,281.7021903,,,,,,,,,,,,,,,,,,,,,281.68688440000005,281.7021903,282.1857831000002,282.19033070000023,282.2090465000001,285.7859368000004,,,,,285.7861275,285.8013299000004,286.00129730000026,285.98548870000013,282.2090465000001,,,,,,,,0,0,3.560244799999964,None,,,,,,,,816,24,M,R,2026-02-25_11h40.07.219,VisualSearch_2526_3,,2025.2.4,2026-02-25 11h40.07.545474 +0100,
tilted.xlsx,The target is tilted.,117,13,5,1,1,1,1,1,0,0,0,0,0,0,0,0,0,3,4,117,space,4.284785400000146,None,1,1,1.2793298999999934,None,space,6.598579299999983,None,0,1,1,0,,,,,1,5,13,2,286.00129730000026,,,,,,,,,,,,,,,,,,,,,285.98630330000015,286.00129730000026,286.48532250000017,286.48990030000004,286.5088664,287.8014251000004,,,,,287.8016289000002,287.81742120000035,288.0180055000001,288.0016837000003,286.5088664,,,,,,,,1,1,1.2793298999999934,None,,,,,,,,816,24,M,R,2026-02-25_11h40.07.219,VisualSearch_2526_3,,2025.2.4,2026-02-25 11h40.07.545474 +0100,
tilted.xlsx,The target is tilted.,117,14,6,1,1,1,1,1,1,1,1,1,0,0,0,0,0,7,8,117,space,4.284785400000146,None,1,1,2.0095633000000817,None,space,6.598579299999983,None,0,1,1,0,,,,,1,6,14,1,288.0180055000001,,,,,,,,,,,,,,,,,,,,,288.0025211000002,288.0180055000001,288.5015205000004,288.5059037000001,288.51761000000033,290.5352776000004,,,,,290.53546240000014,290.5507437000001,290.7507217000002,290.73423630000025,288.51761000000033,,,,,,,,1,1,2.0095633000000817,None,,,,,,,,816,24,M,R,2026-02-25_11h40.07.219,VisualSearch_2526_3,,2025.2.4,2026-02-25 11h40.07.545474 +0100,
tilted.xlsx,The target is tilted.,117,15,7,1,0,1,1,1,0,0,0,0,0,0,0,0,1,3,4,117,space,4.284785400000146,None,0,1,1.1766034000002037,None,space,6.598579299999983,None,0,1,1,0,,,,,1,7,15,6,290.7507217000002,,,,,,,,,,,,,,,,,,,,,290.7347679000004,290.7507217000002,291.23467770000025,291.2395846000004,291.25789760000043,292.45146030000024,,,,,292.4516507000003,292.4668299,292.6670296000002,292.65076550000003,291.25789760000043,,,,,,,,0,1,1.1766034000002037,None,,,,,,,,816,24,M,R,2026-02-25_11h40.07.219,VisualSearch_2526_3,,2025.2.4,2026-02-25 11h40.07.545474 +0100,
tilted.xlsx,The target is tilted.,117,16,0,2,1,1,1,1,1,1,1,1,0,0,0,0,0,7,8,117,space,4.284785400000146,None,1,1,0.8447080000000824,None,space,6.598579299999983,None,0,1,1,0,,,,,2,0,16,1,292.6670296000002,,,,,,,,,,,,,,,,,,,,,292.6515711000002,292.6670296000002,293.15115570000034,293.15616100000034,293.1756112000003,294.03481790000023,,,,,294.0350128,294.05017190000035,294.2502155000002,294.2342699000001,293.1756112000003,,,,,,,,1,1,0.8447080000000824,None,,,,,,,,816,24,M,R,2026-02-25_11h40.07.219,VisualSearch_2526_3,,2025.2.4,2026-02-25 11h40.07.545474 +0100,
tilted.xlsx,The target is tilted.,117,17,1,2,0,0,0,0,0,0,0,0,0,0,0,0,1,1,1,117,space,4.284785400000146,None,0,1,0.6186923999998726,None,space,6.598579299999983,None,0,1,1,0,,,,,2,1,17,7,294.2502155000002,,,,,,,,,,,,,,,,,,,,,294.23508630000015,294.2502155000002,294.7341024000002,294.73870220000026,294.7578856,295.3842082000001,,,,,295.38440000000037,295.3999348000002,295.5997996000001,295.58396230000017,294.7578856,,,,,,,,0,1,0.6186923999998726,None,,,,,,,,816,24,M,R,2026-02-25_11h40.07.219,VisualSearch_2526_3,,2025.2.4,2026-02-25 11h40.07.545474 +0100,
tilted.xlsx,The target is tilted.,117,18,2,2,1,1,1,1,0,0,0,0,0,0,0,0,0,3,4,117,space,4.284785400000146,None,1,1,0.8842781999996987,None,space,6.598579299999983,None,0,1,1,0,,,,,2,2,18,2,295.5997996000001,,,,,,,,,,,,,,,,,,,,,295.58470590000024,295.5997996000001,296.0838205,296.08825860000024,296.1062215000002,297.00059320000037,,,,,297.0007840000003,297.01638090000006,297.2165200000004,297.2000300000004,296.1062215000002,,,,,,,,1,1,0.8842781999996987,None,,,,,,,,816,24,M,R,2026-02-25_11h40.07.219,VisualSearch_2526_3,,2025.2.4,2026-02-25 11h40.07.545474 +0100,
tilted.xlsx,The target is tilted.,117,19,3,2,0,1,1,1,0,0,0,0,0,0,0,0,1,3,4,117,space,4.284785400000146,None,0,1,1.2551838999997926,None,space,6.598579299999983,None,0,1,1,0,,,,,2,3,19,6,297.2165200000004,,,,,,,,,,,,,,,,,,,,,297.2007966000001,297.2165200000004,297.7001488000001,297.70475720000013,297.7234738000002,298.9839899000003,,,,,298.9841971000001,298.99936960000014,299.1993542,299.18271460000005,297.7234738000002,,,,,,,,0,1,1.2551838999997926,None,,,,,,,,816,24,M,R,2026-02-25_11h40.07.219,VisualSearch_2526_3,,2025.2.4,2026-02-25 11h40.07.545474 +0100,
tilted.xlsx,The target is tilted.,117,20,4,2,1,1,1,1,1,1,1,1,1,1,1,1,0,11,12,117,space,4.284785400000146,None,1,1,1.260618699999668,None,space,6.598579299999983,None,0,1,1,0,,,,,2,4,20,0,299.1993542,,,,,,,,,,,,,,,,,,,,,299.1831592000003,299.1993542,299.6832768000004,299.6878711000004,299.70659430000023,300.98334030000024,,,,,300.9836385000003,300.9991277000004,301.19932070000004,301.1831017000004,299.70659430000023,,,,,,,,1,1,1.260618699999668,None,,,,,,,,816,24,M,R,2026-02-25_11h40.07.219,VisualSearch_2526_3,,2025.2.4,2026-02-25 11h40.07.545474 +0100,
tilted.xlsx,The target is tilted.,117,21,5,2,0,1,1,1,1,1,1,1,0,0,0,0,1,7,8,117,space,4.284785400000146,None,0,1,2.7425601999998435,None,space,6.598579299999983,None,0,1,1,0,,,,,2,5,21,5,301.19932070000004,,,,,,,,,,,,,,,,,,,,,301.18387310000026,301.19932070000004,301.6826863000001,301.6872464000003,301.69901960000016,304.44957030000023,,,,,304.4497640000004,304.46505260000004,304.6655232000003,304.6494386000004,301.69901960000016,,,,,,,,0,1,2.7425601999998435,None,,,,,,,,816,24,M,R,2026-02-25_11h40.07.219,VisualSearch_2526_3,,2025.2.4,2026-02-25 11h40.07.545474 +0100,
tilted.xlsx,The target is tilted.,117,22,6,2,0,1,1,1,1,1,1,1,1,1,1,1,1,11,12,117,space,4.284785400000146,None,1,0,1.8650935999999092,None,space,6.598579299999983,None,0,1,1,0,,,,,2,6,22,4,304.6655232000003,,,,,,,,,,,,,,,,,,,,,304.6502902000002,304.6655232000003,305.1491702000003,305.1536407000003,305.1718202000002,307.0495371000002,,,,,307.0497280000004,307.06486510000013,307.26506800000016,307.2486584000003,305.1718202000002,,,,,,,,1,0,1.8650935999999092,None,,,,,,,,816,24,M,R,2026-02-25_11h40.07.219,VisualSearch_2526_3,,2025.2.4,2026-02-25 11h40.07.545474 +0100,
tilted.xlsx,The target is tilted.,117,23,7,2,1,0,0,0,0,0,0,0,0,0,0,0,0,0,1,117,space,4.284785400000146,None,1,1,0.7958162999998422,None,space,6.598579299999983,None,0,1,1,0,,,,,2,7,23,3,307.26506800000016,,,,,,,,,,,,,,,,,,,,,307.2494902000003,307.26506800000016,307.7487334000002,307.7533276000004,307.7720145000003,308.5826694000002,,,,,308.5828606,308.5981590000001,308.79825170000004,308.78204840000035,307.7720145000003,,,,,,,,1,1,0.7958162999998422,None,,,,,,,,816,24,M,R,2026-02-25_11h40.07.219,VisualSearch_2526_3,,2025.2.4,2026-02-25 11h40.07.545474 +0100,
tilted.xlsx,The target is tilted.,117,24,0,3,0,0,0,0,0,0,0,0,0,0,0,0,1,1,1,117,space,4.284785400000146,None,0,1,0.8373838999996224,None,space,6.598579299999983,None,0,1,1,0,,,,,3,0,24,7,308.79825170000004,,,,,,,,,,,,,,,,,,,,,308.7827699000004,308.79825170000004,309.2821875000004,309.28699810000035,309.3050967000004,310.1491275000003,,,,,310.1493195000003,310.16472920000024,310.3643543000003,310.3483798000002,309.3050967000004,,,,,,,,0,1,0.8373838999996224,None,,,,,,,,816,24,M,R,2026-02-25_11h40.07.219,VisualSearch_2526_3,,2025.2.4,2026-02-25 11h40.07.545474 +0100,
tilted.xlsx,The target is tilted.,117,25,1,3,0,1,1,1,0,0,0,0,0,0,0,0,1,3,4,117,space,4.284785400000146,None,0,1,1.335606899999675,None,space,6.598579299999983,None,0,1,1,0,,,,,3,1,25,6,310.3643543000003,,,,,,,,,,,,,,,,,,,,,310.34913370000004,310.3643543000003,310.8484778000002,310.85302090000005,310.8716094000001,312.21520250000003,,,,,312.2153913000002,312.23076400000036,312.4310504,312.41504870000017,310.8716094000001,,,,,,,,0,1,1.335606899999675,None,,,,,,,,816,24,M,R,2026-02-25_11h40.07.219,VisualSearch_2526_3,,2025.2.4,2026-02-25 11h40.07.545474 +0100,
tilted.xlsx,The target is tilted.,117,26,2,3,0,1,1,1,1,1,1,1,1,1,1,1,1,11,12,117,space,4.284785400000146,None,1,0,0.9691616999998587,None,space,6.598579299999983,None,0,1,1,0,,,,,3,2,26,4,312.4310504,,,,,,,,,,,,,,,,,,,,,312.4158354000001,312.4310504,312.91475330000003,312.91937050000024,312.9340619000004,313.9152492000003,,,,,313.9154364000001,313.93076070000006,314.1307386000003,314.11481730000014,312.9340619000004,,,,,,,,1,0,0.9691616999998587,None,,,,,,,,816,24,M,R,2026-02-25_11h40.07.219,VisualSearch_2526_3,,2025.2.4,2026-02-25 11h40.07.545474 +0100,
tilted.xlsx,The target is tilted.,117,27,3,3,1,1,1,1,1,1,1,1,1,1,1,1,0,11,12,117,space,4.284785400000146,None,1,1,1.3561793999997462,None,space,6.598579299999983,None,0,1,1,0,,,,,3,3,27,0,314.1307386000003,,,,,,,,,,,,,,,,,,,,,314.11563540000043,314.1307386000003,314.6141679000002,314.61888980000003,314.63760550000006,315.9978252000001,,,,,315.9980139000004,316.0138756000001,316.2135414000004,316.19764750000013,314.63760550000006,,,,,,,,1,1,1.3561793999997462,None,,,,,,,,816,24,M,R,2026-02-25_11h40.07.219,VisualSearch_2526_3,,2025.2.4,2026-02-25 11h40.07.545474 +0100,
tilted.xlsx,The target is tilted.,117,28,4,3,0,1,1,1,1,1,1,1,0,0,0,0,1,7,8,117,space,4.284785400000146,None,0,1,1.9439569999999549,None,space,6.598579299999983,None,0,1,1,0,,,,,3,4,28,5,316.2135414000004,,,,,,,,,,,,,,,,,,,,,316.1984633000002,316.2135414000004,316.69789130000026,316.70266600000014,316.72158370000034,318.68109440000035,,,,,318.6812863,318.69663430000037,318.8965965000002,318.8806185000003,316.72158370000034,,,,,,,,0,1,1.9439569999999549,None,,,,,,,,816,24,M,R,2026-02-25_11h40.07.219,VisualSearch_2526_3,,2025.2.4,2026-02-25 11h40.07.545474 +0100,
tilted.xlsx,The target is tilted.,117,29,5,3,1,1,1,1,0,0,0,0,0,0,0,0,0,3,4,117,space,4.284785400000146,None,0,0,0.9677083999999923,None,space,6.598579299999983,None,0,1,1,0,,,,,3,5,29,2,318.8965965000002,,,,,,,,,,,,,,,,,,,,,318.8814665,318.8965965000002,319.38026770000033,319.38532520000035,319.40378770000007,320.3804964000001,,,,,320.3807035,320.39654910000036,320.59629740000037,320.58058660000006,319.40378770000007,,,,,,,,0,0,0.9677083999999923,None,,,,,,,,816,24,M,R,2026-02-25_11h40.07.219,VisualSearch_2526_3,,2025.2.4,2026-02-25 11h40.07.545474 +0100,
tilted.xlsx,The target is tilted.,117,30,6,3,1,0,0,0,0,0,0,0,0,0,0,0,0,0,1,117,space,4.284785400000146,None,1,1,0.824426399999993,None,space,6.598579299999983,None,0,1,1,0,,,,,3,6,30,3,320.59629740000037,,,,,,,,,,,,,,,,,,,,,320.58136680000007,320.59629740000037,321.0800568000004,321.08497940000007,321.09901000000036,321.93039910000016,,,,,321.93059110000013,321.9462099000002,322.1462997000003,322.1298447000004,321.09901000000036,,,,,,,,1,1,0.824426399999993,None,,,,,,,,816,24,M,R,2026-02-25_11h40.07.219,VisualSearch_2526_3,,2025.2.4,2026-02-25 11h40.07.545474 +0100,
tilted.xlsx,The target is tilted.,117,31,7,3,1,1,1,1,1,1,1,1,0,0,0,0,0,7,8,117,space,4.284785400000146,None,1,1,2.825077599999986,None,space,6.598579299999983,None,0,1,1,0,,,,,3,7,31,1,322.1462997000003,,,,,,,,,,,,,,,,,,,,,322.13057500000014,322.1462997000003,322.6299547000003,322.63458470000023,322.6533932000002,325.4799987000001,,,,,325.48018930000035,325.4957717000002,325.6958092,325.67981050000026,322.6533932000002,,,,,,,,1,1,2.825077599999986,None,,,,,,,,816,24,M,R,2026-02-25_11h40.07.219,VisualSearch_2526_3,,2025.2.4,2026-02-25 11h40.07.545474 +0100,
tilted.xlsx,The target is tilted.,117,32,0,4,0,1,1,1,0,0,0,0,0,0,0,0,1,3,4,117,space,4.284785400000146,None,0,1,0.8665075000003526,None,space,6.598579299999983,None,0,1,1,0,,,,,4,0,32,6,325.6958092,,,,,,,,,,,,,,,,,,,,,325.68057750000025,325.6958092,326.17964930000016,326.1842197000001,326.20323310000003,327.0800680000002,,,,,327.08025910000015,327.0952420000003,327.29560420000007,327.27951140000005,326.20323310000003,,,,,,,,0,1,0.8665075000003526,None,,,,,,,,816,24,M,R,2026-02-25_11h40.07.219,VisualSearch_2526_3,,2025.2.4,2026-02-25 11h40.07.545474 +0100,
tilted.xlsx,The target is tilted.,117,33,1,4,1,0,0,0,0,0,0,0,0,0,0,0,0,0,1,117,space,4.284785400000146,None,1,1,0.7719210000000203,None,space,6.598579299999983,None,0,1,1,0,,,,,4,1,33,3,327.29560420000007,,,,,,,,,,,,,,,,,,,,,327.2802345,327.29560420000007,327.77950480000027,327.7844073000001,327.8032472,328.57943680000017,,,,,328.58015430000023,328.5954058000002,328.7952796000004,328.7795054000003,327.8032472,,,,,,,,1,1,0.7719210000000203,None,,,,,,,,816,24,M,R,2026-02-25_11h40.07.219,VisualSearch_2526_3,,2025.2.4,2026-02-25 11h40.07.545474 +0100,
tilted.xlsx,The target is tilted.,117,34,2,4,0,0,0,0,0,0,0,0,0,0,0,0,1,1,1,117,space,4.284785400000146,None,0,1,0.6842695000000276,None,space,6.598579299999983,None,0,1,1,0,,,,,4,2,34,7,328.7952796000004,,,,,,,,,,,,,,,,,,,,,328.78032900000017,328.7952796000004,329.2787293000001,329.28317300000026,329.29521220000015,329.9962489000004,,,,,329.9964387,330.0118273000003,330.2117095000003,330.19563300000027,329.29521220000015,,,,,,,,0,1,0.6842695000000276,None,,,,,,,,816,24,M,R,2026-02-25_11h40.07.219,VisualSearch_2526_3,,2025.2.4,2026-02-25 11h40.07.545474 +0100,
