file_name,block_instructions,target_example,thisN,thisTrialN,thisRepN,target_presence,opacity_1,opacity_2,opacity_3,opacity_4,opacity_5,opacity_6,opacity_7,opacity_8,opacity_9,opacity_10,opacity_11,opacity_12,n_distract,n_items,target_ori,key_resp_4.keys,key_resp_4.rt,key_resp_4.duration,key_resp.keys,key_resp.corr,key_resp.rt,key_resp.duration,key_resp_5.keys,key_resp_5.rt,key_resp_5.duration,blocks.thisRepN,blocks.thisTrialN,blocks.thisN,blocks.thisIndex,practice_trials.thisRepN,practice_trials.thisTrialN,practice_trials.thisN,practice_trials.thisIndex,trials.thisRepN,trials.thisTrialN,trials.thisN,trials.thisIndex,thisRow.t,notes,Welcome.started,WelcomeText.started,key_resp_2.started,Welcome.stopped,key_resp_2.keys,key_resp_2.rt,key_resp_2.duration,InformedConsent.started,text_4.started,InformedConsent.stopped,key_resp_6.keys,key_resp_6.rt,key_resp_6.duration,key_resp_4.started,example_target.started,text_3.started,blocks.key_resp_4.keys,blocks.key_resp_4.rt,blocks.key_resp_4.duration,FixCross.started,fixCross.started,FixCross.stopped,Stimulus.started,key_resp.started,Stimulus.stopped,practice_trials.key_resp.keys,practice_trials.key_resp.corr,practice_trials.key_resp.rt,practice_trials.key_resp.duration,BlankScreen.started,text.started,text.stopped,BlankScreen.stopped,fixCross.stopped,ExperimentStart.started,text_2.started,key_resp_5.started,ExperimentStart.stopped,blocks.key_resp_5.keys,blocks.key_resp_5.rt,blocks.key_resp_5.duration,trials.key_resp.keys,trials.key_resp.corr,trials.key_resp.rt,trials.key_resp.duration,Thanks.started,ThankYou.started,key_resp_3.started,Thanks.stopped,key_resp_3.keys,key_resp_3.rt,key_resp_3.duration,participant,leeftijd,gender,links/rechtshandig,date,expName,expVersion,psychopyVersion,expStart,
,,,,,,,,,,,,,,,,,,,,,,,,,,,,,,,,,,,,,,,,,,,,,,0.03327949999993507,0.052111599999989267,0.052111599999989267,34.88639030000013,space,34.80571269999973,None,,,,,,,,,,,,,,,,,,,,,,,,,,,,,,,,,,,,,,,,,,,,,,817,23,M,R,2026-02-25_11h51.37.865,VisualSearch_2526_3,,2025.2.4,2026-02-25 11h51.38.180311 +0100,
,,,,,,,,,,,,,,,,,,,,,,,,,,,,,,,,,,,,,,,,,,,,,,,,,,,,,34.88649260000011,34.893111699999736,50.60533149999992,y,15.715394199999992,None,,,,,,,,,,,,,,,,,,,,,,,,,,,,,,,,,,,,,,,,817,23,M,R,2026-02-25_11h51.37.865,VisualSearch_2526_3,,2025.2.4,2026-02-25 11h51.38.180311 +0100,
tilted.xlsx,The target is tilted.,117,0,0,0,1,1,1,1,0,0,0,0,0,0,0,0,0,3,4,117,space,11.07483480000019,None,1,1,1.9269328000000314,None,,,,0,0,0,0,0,0,0,2,,,,,61.73656519999986,,,,,,,,,,,,,,,50.631586999999854,50.631586999999854,50.631586999999854,space,11.07483480000019,None,61.73180939999975,61.73656519999986,62.22009919999982,62.225244199999906,62.244662999999946,64.18730779999987,1,1,1.9269328000000314,None,64.18752300000006,64.20282020000013,64.4027615,64.38620159999982,,,,,,,,,,,,,,,,,,,,817,23,M,R,2026-02-25_11h51.37.865,VisualSearch_2526_3,,2025.2.4,2026-02-25 11h51.38.180311 +0100,
tilted.xlsx,The target is tilted.,117,1,1,0,0,0,0,0,0,0,0,0,0,0,0,0,1,1,1,117,space,11.07483480000019,None,0,1,0.809320000000298,None,,,,0,0,0,0,0,1,1,7,,,,,64.4027615,,,,,,,,,,,,,,,,,,,,,64.38662840000006,64.4027615,64.88645559999986,64.89140159999988,64.90610659999993,65.71989889999986,0,1,0.809320000000298,None,65.72010529999989,65.7359249000001,65.93585389999998,65.91903199999979,64.90610659999993,,,,,,,,,,,,,,,,,,,817,23,M,R,2026-02-25_11h51.37.865,VisualSearch_2526_3,,2025.2.4,2026-02-25 11h51.38.180311 +0100,
tilted.xlsx,The target is tilted.,117,2,2,0,1,1,1,1,1,1,1,1,1,1,1,1,0,11,12,117,space,11.07483480000019,None,1,1,1.6576498999997966,None,,,,0,0,0,0,0,2,2,0,,,,,65.93585389999998,,,,,,,,,,,,,,,,,,,,,65.91942789999985,65.93585389999998,66.41971520000016,66.42448349999995,66.43554779999977,68.10297390000005,1,1,1.6576498999997966,None,68.10316169999987,68.11823219999997,68.31878599999982,68.30264549999993,66.43554779999977,,,,,,,,,,,,,,,,,,,817,23,M,R,2026-02-25_11h51.37.865,VisualSearch_2526_3,,2025.2.4,2026-02-25 11h51.38.180311 +0100,
tilted.xlsx,The target is tilted.,117,3,3,0,1,0,0,0,0,0,0,0,0,0,0,0,0,0,1,117,space,11.07483480000019,None,1,1,0.640913200000341,None,,,,0,0,0,0,0,3,3,3,,,,,68.31878599999982,,,,,,,,,,,,,,,,,,,,,68.30333169999994,68.31878599999982,68.80263109999987,68.80720979999978,68.82692869999983,69.46925770000007,1,1,0.640913200000341,None,69.46940099999983,69.4848219999999,69.68493869999975,69.66904870000008,68.82692869999983,,,,,,,,,,,,,,,,,,,817,23,M,R,2026-02-25_11h51.37.865,VisualSearch_2526_3,,2025.2.4,2026-02-25 11h51.38.180311 +0100,
tilted.xlsx,The target is tilted.,117,4,4,0,0,1,1,1,1,1,1,1,0,0,0,0,1,7,8,117,space,11.07483480000019,None,0,1,2.957179399999859,None,,,,0,0,0,0,0,4,4,5,,,,,69.68493869999975,,,,,,,,,,,,,,,,,,,,,69.66972709999982,69.68493869999975,70.16870489999974,70.17336109999997,70.19243869999991,73.15262829999983,0,1,2.957179399999859,None,73.15283150000005,73.16764999999987,73.36776770000006,73.35197659999994,70.19243869999991,,,,,,,,,,,,,,,,,,,817,23,M,R,2026-02-25_11h51.37.865,VisualSearch_2526_3,,2025.2.4,2026-02-25 11h51.38.180311 +0100,
tilted.xlsx,The target is tilted.,117,5,5,0,1,1,1,1,1,1,1,1,0,0,0,0,0,7,8,117,space,11.07483480000019,None,1,1,0.9726685999999063,None,,,,0,0,0,0,0,5,5,1,,,,,73.36776770000006,,,,,,,,,,,,,,,,,,,,,73.35268910000013,73.36776770000006,73.85191510000004,73.8565749999998,73.87587320000011,74.85191880000002,1,1,0.9726685999999063,None,74.85210670000015,74.86740120000013,75.0674868000001,75.05175009999994,73.87587320000011,,,,,,,,,,,,,,,,,,,817,23,M,R,2026-02-25_11h51.37.865,VisualSearch_2526_3,,2025.2.4,2026-02-25 11h51.38.180311 +0100,
tilted.xlsx,The target is tilted.,117,6,6,0,0,1,1,1,1,1,1,1,1,1,1,1,1,11,12,117,space,11.07483480000019,None,0,1,2.7369739999999183,None,,,,0,0,0,0,0,6,6,4,,,,,75.0674868000001,,,,,,,,,,,,,,,,,,,,,75.05240939999976,75.0674868000001,75.55167549999987,75.55631809999977,75.57548730000008,78.31842229999984,0,1,2.7369739999999183,None,78.31861160000017,78.33358360000011,78.53357760000017,78.51755520000006,75.57548730000008,,,,,,,,,,,,,,,,,,,817,23,M,R,2026-02-25_11h51.37.865,VisualSearch_2526_3,,2025.2.4,2026-02-25 11h51.38.180311 +0100,
tilted.xlsx,The target is tilted.,117,7,7,0,0,1,1,1,0,0,0,0,0,0,0,0,1,3,4,117,space,11.07483480000019,None,0,1,1.3340410999999222,None,,,,0,0,0,0,0,7,7,6,,,,,78.53357760000017,,,,,,,,,,,,,,,,,,,,,78.5182104999999,78.53357760000017,79.01811529999986,79.02307250000013,79.0415081000001,80.38490249999995,0,1,1.3340410999999222,None,80.38509470000008,80.3999429999999,80.60038450000002,80.58429429999978,79.0415081000001,,,,,,,,,,,,,,,,,,,817,23,M,R,2026-02-25_11h51.37.865,VisualSearch_2526_3,,2025.2.4,2026-02-25 11h51.38.180311 +0100,
tilted.xlsx,The target is tilted.,117,0,0,0,1,1,1,1,0,0,0,0,0,0,0,0,0,3,4,117,space,11.07483480000019,None,1,1,0.8091583999998875,None,space,3.1145016000000396,None,0,0,0,0,,,,,0,0,0,2,83.75510940000004,,,,,,,,,,,,,,,,,,,,,83.75083409999979,83.75510940000004,84.23357279999982,84.23822449999989,84.25752329999978,85.08302490000005,,,,,85.08314680000012,85.09920869999996,,85.2834041000001,,80.59117049999986,80.60038450000002,80.60038450000002,83.71752849999984,space,3.1145016000000396,None,1,1,0.8091583999998875,None,,,,,,,,817,23,M,R,2026-02-25_11h51.37.865,VisualSearch_2526_3,,2025.2.4,2026-02-25 11h51.38.180311 +0100,
tilted.xlsx,The target is tilted.,117,1,1,0,0,0,0,0,0,0,0,0,0,0,0,0,1,1,1,117,space,11.07483480000019,None,0,1,0.7063858000001346,None,space,3.1145016000000396,None,0,0,0,0,,,,,0,1,1,7,85.29960900000015,,,,,,,,,,,,,,,,,,,,,85.28417579999996,85.29960900000015,85.78335070000003,85.78840149999996,85.80766829999993,86.51731380000001,,,,,86.51751100000001,86.53241200000002,86.73244829999976,86.71679409999979,,,,,,,,,0,1,0.7063858000001346,None,,,,,,,,817,23,M,R,2026-02-25_11h51.37.865,VisualSearch_2526_3,,2025.2.4,2026-02-25 11h51.38.180311 +0100,
tilted.xlsx,The target is tilted.,117,2,2,0,1,1,1,1,1,1,1,1,0,0,0,0,0,7,8,117,space,11.07483480000019,None,1,1,0.740246500000012,None,space,3.1145016000000396,None,0,0,0,0,,,,,0,2,2,1,86.73244829999976,,,,,,,,,,,,,,,,,,,,,86.71751390000009,86.73244829999976,87.21672450000005,87.22121449999986,87.23963219999996,87.98349749999988,,,,,87.98369550000007,87.99864509999998,88.1993023,88.18284749999975,87.23963219999996,,,,,,,,1,1,0.740246500000012,None,,,,,,,,817,23,M,R,2026-02-25_11h51.37.865,VisualSearch_2526_3,,2025.2.4,2026-02-25 11h51.38.180311 +0100,
tilted.xlsx,The target is tilted.,117,3,3,0,1,1,1,1,1,1,1,1,1,1,1,1,0,11,12,117,space,11.07483480000019,None,0,0,2.2332612999998673,None,space,3.1145016000000396,None,0,0,0,0,,,,,0,3,3,0,88.1993023,,,,,,,,,,,,,,,,,,,,,88.18359400000008,88.1993023,88.68297639999992,88.68771960000004,88.70694249999997,90.95001259999981,,,,,90.95021349999979,90.96514720000005,91.16551070000014,91.14955819999977,88.70694249999997,,,,,,,,0,0,2.2332612999998673,None,,,,,,,,817,23,M,R,2026-02-25_11h51.37.865,VisualSearch_2526_3,,2025.2.4,2026-02-25 11h51.38.180311 +0100,
tilted.xlsx,The target is tilted.,117,4,4,0,0,1,1,1,1,1,1,1,0,0,0,0,1,7,8,117,space,11.07483480000019,None,0,1,2.1713507999998,None,space,3.1145016000000396,None,0,0,0,0,,,,,0,4,4,5,91.16551070000014,,,,,,,,,,,,,,,,,,,,,91.15036830000008,91.16551070000014,91.64944999999989,91.65478099999973,91.67435299999988,93.84924719999981,,,,,93.8494482000001,93.86467189999985,94.06522080000013,94.0489179000001,91.67435299999988,,,,,,,,0,1,2.1713507999998,None,,,,,,,,817,23,M,R,2026-02-25_11h51.37.865,VisualSearch_2526_3,,2025.2.4,2026-02-25 11h51.38.180311 +0100,
tilted.xlsx,The target is tilted.,117,5,5,0,0,1,1,1,1,1,1,1,1,1,1,1,1,11,12,117,space,11.07483480000019,None,1,0,1.4302145999999993,None,space,3.1145016000000396,None,0,0,0,0,,,,,0,5,5,4,94.06522080000013,,,,,,,,,,,,,,,,,,,,,94.04973400000017,94.06522080000013,94.54852660000006,94.55304590000014,94.57211629999983,96.01538410000012,,,,,96.01560669999981,96.0311415000001,96.23157170000013,96.21544110000013,94.57211629999983,,,,,,,,1,0,1.4302145999999993,None,,,,,,,,817,23,M,R,2026-02-25_11h51.37.865,VisualSearch_2526_3,,2025.2.4,2026-02-25 11h51.38.180311 +0100,
tilted.xlsx,The target is tilted.,117,6,6,0,1,0,0,0,0,0,0,0,0,0,0,0,0,0,1,117,space,11.07483480000019,None,1,1,0.9732449999996788,None,space,3.1145016000000396,None,0,0,0,0,,,,,0,6,6,3,96.23157170000013,,,,,,,,,,,,,,,,,,,,,96.21616529999983,96.23157170000013,96.71498079999992,96.71957220000013,96.73930250000012,97.71586930000012,,,,,97.71610539999983,97.73059120000016,97.93140790000007,97.91510049999988,96.73930250000012,,,,,,,,1,1,0.9732449999996788,None,,,,,,,,817,23,M,R,2026-02-25_11h51.37.865,VisualSearch_2526_3,,2025.2.4,2026-02-25 11h51.38.180311 +0100,
tilted.xlsx,The target is tilted.,117,7,7,0,0,1,1,1,0,0,0,0,0,0,0,0,1,3,4,117,space,11.07483480000019,None,0,1,1.2944845000001806,None,space,3.1145016000000396,None,0,0,0,0,,,,,0,7,7,6,97.93140790000007,,,,,,,,,,,,,,,,,,,,,97.91589410000006,97.93140790000007,98.41514879999977,98.41975869999987,98.43909480000002,99.74816210000017,,,,,99.7483914999998,99.7638437999999,99.96420279999984,99.94796970000016,98.43909480000002,,,,,,,,0,1,1.2944845000001806,None,,,,,,,,817,23,M,R,2026-02-25_11h51.37.865,VisualSearch_2526_3,,2025.2.4,2026-02-25 11h51.38.180311 +0100,
tilted.xlsx,The target is tilted.,117,8,0,1,1,1,1,1,1,1,1,1,0,0,0,0,0,7,8,117,space,11.07483480000019,None,1,1,1.7371785999998792,None,space,3.1145016000000396,None,0,0,0,0,,,,,1,0,8,1,99.96420279999984,,,,,,,,,,,,,,,,,,,,,99.94874930000015,99.96420279999984,100.44774280000001,100.45223899999974,100.46473999999989,102.21453350000002,,,,,102.21473900000001,102.23014439999997,102.43043630000011,102.41442800000004,100.46473999999989,,,,,,,,1,1,1.7371785999998792,None,,,,,,,,817,23,M,R,2026-02-25_11h51.37.865,VisualSearch_2526_3,,2025.2.4,2026-02-25 11h51.38.180311 +0100,
tilted.xlsx,The target is tilted.,117,9,1,1,1,0,0,0,0,0,0,0,0,0,0,0,0,0,1,117,space,11.07483480000019,None,1,1,0.7922828000000663,None,space,3.1145016000000396,None,0,0,0,0,,,,,1,1,9,3,102.43043630000011,,,,,,,,,,,,,,,,,,,,,102.41516580000007,102.43043630000011,102.9144354,102.91888840000001,102.93744060000017,103.73149569999987,,,,,103.73169359999974,103.7465929,103.94712579999987,103.93083079999997,102.93744060000017,,,,,,,,1,1,0.7922828000000663,None,,,,,,,,817,23,M,R,2026-02-25_11h51.37.865,VisualSearch_2526_3,,2025.2.4,2026-02-25 11h51.38.180311 +0100,
tilted.xlsx,The target is tilted.,117,10,2,1,0,1,1,1,0,0,0,0,0,0,0,0,1,3,4,117,space,11.07483480000019,None,0,1,0.9403712000002997,None,space,3.1145016000000396,None,0,0,0,0,,,,,1,2,10,6,103.94712579999987,,,,,,,,,,,,,,,,,,,,,103.93158110000013,103.94712579999987,104.43077829999993,104.4358572000001,104.45497530000011,105.39800149999974,,,,,105.3982130999998,105.41306989999975,105.61323989999983,105.59733099999994,104.45497530000011,,,,,,,,0,1,0.9403712000002997,None,,,,,,,,817,23,M,R,2026-02-25_11h51.37.865,VisualSearch_2526_3,,2025.2.4,2026-02-25 11h51.38.180311 +0100,
tilted.xlsx,The target is tilted.,117,11,3,1,0,1,1,1,1,1,1,1,0,0,0,0,1,7,8,117,space,11.07483480000019,None,0,1,2.1084930000001805,None,space,3.1145016000000396,None,0,0,0,0,,,,,1,3,11,5,105.61323989999983,,,,,,,,,,,,,,,,,,,,,105.5980955,105.61323989999983,106.09752019999996,106.10366579999982,106.12380489999987,108.2470242999998,,,,,108.24722250000013,108.26262859999997,108.46317640000007,108.44701799999984,106.12380489999987,,,,,,,,0,1,2.1084930000001805,None,,,,,,,,817,23,M,R,2026-02-25_11h51.37.865,VisualSearch_2526_3,,2025.2.4,2026-02-25 11h51.38.180311 +0100,
tilted.xlsx,The target is tilted.,117,12,4,1,0,1,1,1,1,1,1,1,1,1,1,1,1,11,12,117,space,11.07483480000019,None,0,1,2.6919834000000264,None,space,3.1145016000000396,None,0,0,0,0,,,,,1,4,12,4,108.46317640000007,,,,,,,,,,,,,,,,,,,,,108.44773880000002,108.46317640000007,108.94624309999972,108.94894369999975,108.96282699999983,111.66383169999972,,,,,111.66407040000013,111.67884069999991,111.87926229999994,111.86321139999973,108.96282699999983,,,,,,,,0,1,2.6919834000000264,None,,,,,,,,817,23,M,R,2026-02-25_11h51.37.865,VisualSearch_2526_3,,2025.2.4,2026-02-25 11h51.38.180311 +0100,
tilted.xlsx,The target is tilted.,117,13,5,1,1,1,1,1,1,1,1,1,1,1,1,1,0,11,12,117,space,11.07483480000019,None,0,0,1.662804800000231,None,space,3.1145016000000396,None,0,0,0,0,,,,,1,5,13,0,111.87926229999994,,,,,,,,,,,,,,,,,,,,,111.86393120000002,111.87926229999994,112.36302389999992,112.36766020000005,112.3844494,114.06283750000011,,,,,114.06304480000017,114.0785049000001,114.27869310000005,114.26235210000004,112.3844494,,,,,,,,0,0,1.662804800000231,None,,,,,,,,817,23,M,R,2026-02-25_11h51.37.865,VisualSearch_2526_3,,2025.2.4,2026-02-25 11h51.38.180311 +0100,
tilted.xlsx,The target is tilted.,117,14,6,1,0,0,0,0,0,0,0,0,0,0,0,0,1,1,1,117,space,11.07483480000019,None,0,1,0.8474481000002925,None,space,3.1145016000000396,None,0,0,0,0,,,,,1,6,14,7,114.27869310000005,,,,,,,,,,,,,,,,,,,,,114.26309570000012,114.27869310000005,114.76279399999976,114.7672892999999,114.78583789999993,115.64589459999979,,,,,115.64612979999993,115.66155889999982,115.86187019999988,115.84513289999995,114.78583789999993,,,,,,,,0,1,0.8474481000002925,None,,,,,,,,817,23,M,R,2026-02-25_11h51.37.865,VisualSearch_2526_3,,2025.2.4,2026-02-25 11h51.38.180311 +0100,
tilted.xlsx,The target is tilted.,117,15,7,1,1,1,1,1,0,0,0,0,0,0,0,0,0,3,4,117,space,11.07483480000019,None,1,1,0.966540200000054,None,space,3.1145016000000396,None,0,0,0,0,,,,,1,7,15,2,115.86187019999988,,,,,,,,,,,,,,,,,,,,,115.84556299999986,115.86187019999988,116.34589159999996,116.35047170000007,116.36574359999986,117.34534750000012,,,,,117.34549919999972,117.36122250000017,117.56188939999993,117.54584650000015,116.36574359999986,,,,,,,,1,1,0.966540200000054,None,,,,,,,,817,23,M,R,2026-02-25_11h51.37.865,VisualSearch_2526_3,,2025.2.4,2026-02-25 11h51.38.180311 +0100,
tilted.xlsx,The target is tilted.,117,16,0,2,0,1,1,1,1,1,1,1,0,0,0,0,1,7,8,117,space,11.07483480000019,None,0,1,2.560795699999744,None,space,3.1145016000000396,None,0,0,0,0,,,,,2,0,16,5,117.56188939999993,,,,,,,,,,,,,,,,,,,,,117.54667280000012,117.56188939999993,118.04522540000016,118.04974579999998,118.06830189999982,120.6448934,,,,,120.64505129999998,120.66079300000001,120.86074210000015,120.84463700000015,118.06830189999982,,,,,,,,0,1,2.560795699999744,None,,,,,,,,817,23,M,R,2026-02-25_11h51.37.865,VisualSearch_2526_3,,2025.2.4,2026-02-25 11h51.38.180311 +0100,
tilted.xlsx,The target is tilted.,117,17,1,2,1,1,1,1,1,1,1,1,0,0,0,0,0,7,8,117,space,11.07483480000019,None,1,1,1.9474688999998762,None,space,3.1145016000000396,None,0,0,0,0,,,,,2,1,17,1,120.86074210000015,,,,,,,,,,,,,,,,,,,,,120.84515120000015,120.86074210000015,121.34505309999986,121.34965639999973,121.36893759999975,123.32860260000007,,,,,123.32879950000006,123.34381649999978,123.54428169999983,123.52796820000003,121.36893759999975,,,,,,,,1,1,1.9474688999998762,None,,,,,,,,817,23,M,R,2026-02-25_11h51.37.865,VisualSearch_2526_3,,2025.2.4,2026-02-25 11h51.38.180311 +0100,
tilted.xlsx,The target is tilted.,117,18,2,2,1,1,1,1,0,0,0,0,0,0,0,0,0,3,4,117,space,11.07483480000019,None,1,1,0.9812600999998722,None,space,3.1145016000000396,None,0,0,0,0,,,,,2,2,18,2,123.54428169999983,,,,,,,,,,,,,,,,,,,,,123.52870209999992,123.54428169999983,124.02823669999998,124.0326955999999,124.04405390000011,125.02850320000016,,,,,125.02873009999985,125.04343059999974,125.24410510000007,125.22798650000004,124.04405390000011,,,,,,,,1,1,0.9812600999998722,None,,,,,,,,817,23,M,R,2026-02-25_11h51.37.865,VisualSearch_2526_3,,2025.2.4,2026-02-25 11h51.38.180311 +0100,
tilted.xlsx,The target is tilted.,117,19,3,2,1,1,1,1,1,1,1,1,1,1,1,1,0,11,12,117,space,11.07483480000019,None,1,1,0.8265885000000708,None,space,3.1145016000000396,None,0,0,0,0,,,,,2,3,19,0,125.24410510000007,,,,,,,,,,,,,,,,,,,,,125.22868879999987,125.24410510000007,125.72807060000014,125.73330679999981,125.75178619999997,126.59434999999985,,,,,126.59457810000004,126.61002000000008,126.81041509999977,126.79413999999997,125.75178619999997,,,,,,,,1,1,0.8265885000000708,None,,,,,,,,817,23,M,R,2026-02-25_11h51.37.865,VisualSearch_2526_3,,2025.2.4,2026-02-25 11h51.38.180311 +0100,
tilted.xlsx,The target is tilted.,117,20,4,2,0,0,0,0,0,0,0,0,0,0,0,0,1,1,1,117,space,11.07483480000019,None,0,1,0.617964000000029,None,space,3.1145016000000396,None,0,0,0,0,,,,,2,4,20,7,126.81041509999977,,,,,,,,,,,,,,,,,,,,,126.79490069999974,126.81041509999977,127.29493189999994,127.29960549999987,127.31882450000012,127.94443939999974,,,,,127.9446339000001,127.95961450000004,128.16002309999976,128.14412689999972,127.31882450000012,,,,,,,,0,1,0.617964000000029,None,,,,,,,,817,23,M,R,2026-02-25_11h51.37.865,VisualSearch_2526_3,,2025.2.4,2026-02-25 11h51.38.180311 +0100,
tilted.xlsx,The target is tilted.,117,21,5,2,0,1,1,1,0,0,0,0,0,0,0,0,1,3,4,117,space,11.07483480000019,None,0,1,0.9064100000000508,None,space,3.1145016000000396,None,0,0,0,0,,,,,2,5,21,6,128.16002309999976,,,,,,,,,,,,,,,,,,,,,128.14492960000007,128.16002309999976,128.64410709999993,128.64872839999998,128.6683251999998,129.5779963,,,,,129.57820570000013,129.5928745000001,129.79345190000004,129.77719100000013,128.6683251999998,,,,,,,,0,1,0.9064100000000508,None,,,,,,,,817,23,M,R,2026-02-25_11h51.37.865,VisualSearch_2526_3,,2025.2.4,2026-02-25 11h51.38.180311 +0100,
tilted.xlsx,The target is tilted.,117,22,6,2,0,1,1,1,1,1,1,1,1,1,1,1,1,11,12,117,space,11.07483480000019,None,0,1,3.0724968999998055,None,space,3.1145016000000396,None,0,0,0,0,,,,,2,6,22,4,129.79345190000004,,,,,,,,,,,,,,,,,,,,,129.77794790000007,129.79345190000004,130.2771604999998,130.28177019999976,130.30124049999995,133.37663659999998,,,,,133.3767812000001,133.39225750000014,133.59290650000003,133.57664969999996,130.30124049999995,,,,,,,,0,1,3.0724968999998055,None,,,,,,,,817,23,M,R,2026-02-25_11h51.37.865,VisualSearch_2526_3,,2025.2.4,2026-02-25 11h51.38.180311 +0100,
tilted.xlsx,The target is tilted.,117,23,7,2,1,0,0,0,0,0,0,0,0,0,0,0,0,0,1,117,space,11.07483480000019,None,1,1,0.6890566000001854,None,space,3.1145016000000396,None,0,0,0,0,,,,,2,7,23,3,133.59290650000003,,,,,,,,,,,,,,,,,,,,,133.5774121999998,133.59290650000003,134.07689159999973,134.08191679999982,134.10139609999987,134.79381460000013,,,,,134.79401460000008,134.80885579999995,135.00911589999987,134.9928157999998,134.10139609999987,,,,,,,,1,1,0.6890566000001854,None,,,,,,,,817,23,M,R,2026-02-25_11h51.37.865,VisualSearch_2526_3,,2025.2.4,2026-02-25 11h51.38.180311 +0100,
tilted.xlsx,The target is tilted.,117,24,0,3,0,1,1,1,0,0,0,0,0,0,0,0,1,3,4,117,space,11.07483480000019,None,0,1,0.8528953000000001,None,space,3.1145016000000396,None,0,0,0,0,,,,,3,0,24,6,135.00911589999987,,,,,,,,,,,,,,,,,,,,,134.99355620000006,135.00911589999987,135.4926934,135.49742049999986,135.51666010000008,136.3768328000001,,,,,136.37703090000014,136.39201379999986,136.59248160000016,136.57633869999972,135.51666010000008,,,,,,,,0,1,0.8528953000000001,None,,,,,,,,817,23,M,R,2026-02-25_11h51.37.865,VisualSearch_2526_3,,2025.2.4,2026-02-25 11h51.38.180311 +0100,
tilted.xlsx,The target is tilted.,117,25,1,3,1,1,1,1,0,0,0,0,0,0,0,0,0,3,4,117,space,11.07483480000019,None,1,1,0.8676550999998653,None,space,3.1145016000000396,None,0,0,0,0,,,,,3,1,25,2,136.59248160000016,,,,,,,,,,,,,,,,,,,,,136.57706460000009,136.59248160000016,137.07546730000013,137.0785151,137.09214190000012,137.97598119999975,,,,,137.97618650000004,137.9917390999999,138.19216060000008,138.17573790000006,137.09214190000012,,,,,,,,1,1,0.8676550999998653,None,,,,,,,,817,23,M,R,2026-02-25_11h51.37.865,VisualSearch_2526_3,,2025.2.4,2026-02-25 11h51.38.180311 +0100,
tilted.xlsx,The target is tilted.,117,26,2,3,1,1,1,1,1,1,1,1,0,0,0,0,0,7,8,117,space,11.07483480000019,None,1,1,0.7891592999999375,None,space,3.1145016000000396,None,0,0,0,0,,,,,3,2,26,1,138.19216060000008,,,,,,,,,,,,,,,,,,,,,138.1764807999998,138.19216060000008,138.67539859999988,138.67808890000015,138.69187699999975,139.49313589999974,,,,,139.49333519999982,139.50803899999983,139.70835829999987,139.69194419999985,138.69187699999975,,,,,,,,1,1,0.7891592999999375,None,,,,,,,,817,23,M,R,2026-02-25_11h51.37.865,VisualSearch_2526_3,,2025.2.4,2026-02-25 11h51.38.180311 +0100,
tilted.xlsx,The target is tilted.,117,27,3,3,1,1,1,1,1,1,1,1,1,1,1,1,0,11,12,117,space,11.07483480000019,None,1,1,2.3021668000001227,None,space,3.1145016000000396,None,0,0,0,0,,,,,3,3,27,0,139.70835829999987,,,,,,,,,,,,,,,,,,,,,139.6923714999998,139.70835829999987,140.19236520000004,140.19761990000006,140.21702340000002,142.5259919,,,,,142.52619809999987,142.54108180000003,142.7415262999998,142.72547010000017,140.21702340000002,,,,,,,,1,1,2.3021668000001227,None,,,,,,,,817,23,M,R,2026-02-25_11h51.37.865,VisualSearch_2526_3,,2025.2.4,2026-02-25 11h51.38.180311 +0100,
tilted.xlsx,The target is tilted.,117,28,4,3,0,1,1,1,1,1,1,1,1,1,1,1,1,11,12,117,space,11.07483480000019,None,0,1,2.0528754000001754,None,space,3.1145016000000396,None,0,0,0,0,,,,,3,4,28,4,142.7415262999998,,,,,,,,,,,,,,,,,,,,,142.7261779999999,142.7415262999998,143.22549769999978,143.23063279999997,143.24985659999993,145.30854109999973,,,,,145.30873870000005,145.32380150000017,145.52453220000007,145.50829019999992,143.24985659999993,,,,,,,,0,1,2.0528754000001754,None,,,,,,,,817,23,M,R,2026-02-25_11h51.37.865,VisualSearch_2526_3,,2025.2.4,2026-02-25 11h51.38.180311 +0100,
tilted.xlsx,The target is tilted.,117,29,5,3,1,0,0,0,0,0,0,0,0,0,0,0,0,0,1,117,space,11.07483480000019,None,1,1,0.6984882000001562,None,space,3.1145016000000396,None,0,0,0,0,,,,,3,5,29,3,145.52453220000007,,,,,,,,,,,,,,,,,,,,,145.5091256999999,145.52453220000007,146.0080822,146.0132748000001,146.03241389999994,146.7420444999998,,,,,146.74223889999985,146.75716749999992,146.95755759999975,146.94136560000015,146.03241389999994,,,,,,,,1,1,0.6984882000001562,None,,,,,,,,817,23,M,R,2026-02-25_11h51.37.865,VisualSearch_2526_3,,2025.2.4,2026-02-25 11h51.38.180311 +0100,
tilted.xlsx,The target is tilted.,117,30,6,3,0,0,0,0,0,0,0,0,0,0,0,0,1,1,1,117,space,11.07483480000019,None,0,1,0.5311600999998518,None,space,3.1145016000000396,None,0,0,0,0,,,,,3,6,30,7,146.95755759999975,,,,,,,,,,,,,,,,,,,,,146.9421044999999,146.95755759999975,147.44148689999975,147.44593780000014,147.45869249999987,147.9918232,,,,,147.99203519999992,148.00675880000017,148.20705210000006,148.19122659999994,147.45869249999987,,,,,,,,0,1,0.5311600999998518,None,,,,,,,,817,23,M,R,2026-02-25_11h51.37.865,VisualSearch_2526_3,,2025.2.4,2026-02-25 11h51.38.180311 +0100,
tilted.xlsx,The target is tilted.,117,31,7,3,0,1,1,1,1,1,1,1,0,0,0,0,1,7,8,117,space,11.07483480000019,None,0,1,1.4777045999999245,None,space,3.1145016000000396,None,0,0,0,0,,,,,3,7,31,5,148.20705210000006,,,,,,,,,,,,,,,,,,,,,148.1920796999998,148.20705210000006,148.69128790000013,148.6959821999999,148.71024429999989,150.1912311000001,,,,,150.19143029999987,150.2066334000001,150.4071669,150.39098830000012,148.71024429999989,,,,,,,,0,1,1.4777045999999245,None,,,,,,,,817,23,M,R,2026-02-25_11h51.37.865,VisualSearch_2526_3,,2025.2.4,2026-02-25 11h51.38.180311 +0100,
tilted.xlsx,The target is tilted.,117,32,0,4,1,1,1,1,1,1,1,1,0,0,0,0,0,7,8,117,space,11.07483480000019,None,0,0,2.0465549000000465,None,space,3.1145016000000396,None,0,0,0,0,,,,,4,0,32,1,150.4071669,,,,,,,,,,,,,,,,,,,,,150.39169850000008,150.4071669,150.8909018999998,150.89552490000005,150.91511029999992,152.97405339999978,,,,,152.97425440000006,152.98961610000015,153.190063,153.1739908999998,150.91511029999992,,,,,,,,0,0,2.0465549000000465,None,,,,,,,,817,23,M,R,2026-02-25_11h51.37.865,VisualSearch_2526_3,,2025.2.4,2026-02-25 11h51.38.180311 +0100,
tilted.xlsx,The target is tilted.,117,33,1,4,0,0,0,0,0,0,0,0,0,0,0,0,1,1,1,117,space,11.07483480000019,None,0,1,0.6439586000001327,None,space,3.1145016000000396,None,0,0,0,0,,,,,4,1,33,7,153.190063,,,,,,,,,,,,,,,,,,,,,153.1747350999999,153.190063,153.67371569999978,153.67836350000016,153.69743310000013,154.35702600000013,,,,,154.357254,154.37266659999977,154.57275789999994,154.55688830000008,153.69743310000013,,,,,,,,0,1,0.6439586000001327,None,,,,,,,,817,23,M,R,2026-02-25_11h51.37.865,VisualSearch_2526_3,,2025.2.4,2026-02-25 11h51.38.180311 +0100,
tilted.xlsx,The target is tilted.,117,34,2,4,0,1,1,1,1,1,1,1,1,1,1,1,1,11,12,117,space,11.07483480000019,None,0,1,2.3514172000000144,None,space,3.1145016000000396,None,0,0,0,0,,,,,4,2,34,4,154.57275789999994,,,,,,,,,,,,,,,,,,,,,154.5577346,154.57275789999994,155.0562700999999,155.05890279999994,155.07257570000002,157.4399426,,,,,157.44018159999996,157.45557999999983,157.65606679999973,157.63983670000016,155.07257570000002,,,,,,,,0,1,2.3514172000000144,None,,,,,,,,817,23,M,R,2026-02-25_11h51.37.865,VisualSearch_2526_3,,2025.2.4,2026-02-25 11h51.38.180311 +0100,
tilted.xlsx,The target is tilted.,117,35,3,4,0,1,1,1,1,1,1,1,0,0,0,0,1,7,8,117,space,11.07483480000019,None,0,1,1.684795000000122,None,space,3.1145016000000396,None,0,0,0,0,,,,,4,3,35,5,157.65606679999973,,,,,,,,,,,,,,,,,,,,,157.64055800000006,157.65606679999973,158.13897829999996,158.1416534,158.15536740000016,159.85624069999994,,,,,159.8564698,159.87192679999998,160.07206889999998,160.05635159999974,158.15536740000016,,,,,,,,0,1,1.684795000000122,None,,,,,,,,817,23,M,R,2026-02-25_11h51.37.865,VisualSearch_2526_3,,2025.2.4,2026-02-25 11h51.38.180311 +0100,
tilted.xlsx,The target is tilted.,117,36,4,4,1,1,1,1,0,0,0,0,0,0,0,0,0,3,4,117,space,11.07483480000019,None,1,1,0.9058792999999241,None,space,3.1145016000000396,None,0,0,0,0,,,,,4,4,36,2,160.07206889999998,,,,,,,,,,,,,,,,,,,,,160.0570717999999,160.07206889999998,160.55636679999998,160.5615975999999,160.58071840000002,161.4896134999999,,,,,161.4897648000001,161.50510110000005,161.70561580000003,161.68948649999993,160.58071840000002,,,,,,,,1,1,0.9058792999999241,None,,,,,,,,817,23,M,R,2026-02-25_11h51.37.865,VisualSearch_2526_3,,2025.2.4,2026-02-25 11h51.38.180311 +0100,
tilted.xlsx,The target is tilted.,117,37,5,4,1,0,0,0,0,0,0,0,0,0,0,0,0,0,1,117,space,11.07483480000019,None,1,1,0.6569221999998263,None,space,3.1145016000000396,None,0,0,0,0,,,,,4,5,37,3,161.70561580000003,,,,,,,,,,,,,,,,,,,,,161.69030179999982,161.70561580000003,162.18928210000013,162.19377729999997,162.21263820000013,162.87290769999981,,,,,162.87310849999994,162.88815999999997,163.08855289999974,163.07242159999987,162.21263820000013,,,,,,,,1,1,0.6569221999998263,None,,,,,,,,817,23,M,R,2026-02-25_11h51.37.865,VisualSearch_2526_3,,2025.2.4,2026-02-25 11h51.38.180311 +0100,
tilted.xlsx,The target is tilted.,117,38,6,4,0,1,1,1,0,0,0,0,0,0,0,0,1,3,4,117,space,11.07483480000019,None,0,1,0.7739471999998386,None,space,3.1145016000000396,None,0,0,0,0,,,,,4,6,38,6,163.08855289999974,,,,,,,,,,,,,,,,,,,,,163.07316319999973,163.08855289999974,163.57262919999994,163.57748200000015,163.5879587999998,164.3729475,,,,,164.37314789999982,164.38795889999983,164.5880613999998,164.57212560000016,163.5879587999998,,,,,,,,0,1,0.7739471999998386,None,,,,,,,,817,23,M,R,2026-02-25_11h51.37.865,VisualSearch_2526_3,,2025.2.4,2026-02-25 11h51.38.180311 +0100,
tilted.xlsx,The target is tilted.,117,39,7,4,1,1,1,1,1,1,1,1,1,1,1,1,0,11,12,117,space,11.07483480000019,None,1,1,1.001039100000071,None,space,3.1145016000000396,None,0,0,0,0,,,,,4,7,39,0,164.5880613999998,,,,,,,,,,,,,,,,,,,,,164.57285249999995,164.5880613999998,165.07226839999976,165.07684919999974,165.09607430000005,166.1059194999998,,,,,166.1061209999998,166.12107830000014,166.3215694999999,166.30544150000014,165.09607430000005,,,,,,,,1,1,1.001039100000071,None,,,,,,,,817,23,M,R,2026-02-25_11h51.37.865,VisualSearch_2526_3,,2025.2.4,2026-02-25 11h51.38.180311 +0100,
tilted.xlsx,The target is tilted.,117,40,0,5,0,1,1,1,1,1,1,1,0,0,0,0,1,7,8,117,space,11.07483480000019,None,0,1,1.331364300000132,None,space,3.1145016000000396,None,0,0,0,0,,,,,5,0,40,5,166.3215694999999,,,,,,,,,,,,,,,,,,,,,166.30616809999992,166.3215694999999,166.80511519999982,166.80886869999995,166.82712739999988,168.1717875999998,,,,,168.17198849999977,168.18736709999985,168.38751349999984,168.3712746000001,166.82712739999988,,,,,,,,0,1,1.331364300000132,None,,,,,,,,817,23,M,R,2026-02-25_11h51.37.865,VisualSearch_2526_3,,2025.2.4,2026-02-25 11h51.38.180311 +0100,
tilted.xlsx,The target is tilted.,117,41,1,5,1,0,0,0,0,0,0,0,0,0,0,0,0,0,1,117,space,11.07483480000019,None,1,1,0.7244929999997112,None,space,3.1145016000000396,None,0,0,0,0,,,,,5,1,41,3,168.38751349999984,,,,,,,,,,,,,,,,,,,,,168.3720275999999,168.38751349999984,168.87137780000012,168.87610059999997,168.89549119999992,169.62214970000014,,,,,169.62234910000006,169.63722229999985,169.83751699999993,169.82155580000017,168.89549119999992,,,,,,,,1,1,0.7244929999997112,None,,,,,,,,817,23,M,R,2026-02-25_11h51.37.865,VisualSearch_2526_3,,2025.2.4,2026-02-25 11h51.38.180311 +0100,
tilted.xlsx,The target is tilted.,117,42,2,5,1,1,1,1,0,0,0,0,0,0,0,0,0,3,4,117,space,11.07483480000019,None,1,1,0.8894322999999531,None,space,3.1145016000000396,None,0,0,0,0,,,,,5,2,42,2,169.83751699999993,,,,,,,,,,,,,,,,,,,,,169.8222836,169.83751699999993,170.32147069999974,170.32590570000002,170.3443102000001,171.2381731999999,,,,,171.23837150000008,171.25332930000013,171.45394450000003,171.43795420000015,170.3443102000001,,,,,,,,1,1,0.8894322999999531,None,,,,,,,,817,23,M,R,2026-02-25_11h51.37.865,VisualSearch_2526_3,,2025.2.4,2026-02-25 11h51.38.180311 +0100,
tilted.xlsx,The target is tilted.,117,43,3,5,0,1,1,1,0,0,0,0,0,0,0,0,1,3,4,117,space,11.07483480000019,None,0,1,0.7247545999998692,None,space,3.1145016000000396,None,0,0,0,0,,,,,5,3,43,6,171.45394450000003,,,,,,,,,,,,,,,,,,,,,171.43870949999973,171.45394450000003,171.93784189999997,171.94259779999993,171.96168649999981,172.68846269999995,,,,,172.6886973999999,172.7032405,172.90394379999998,172.88778790000015,171.96168649999981,,,,,,,,0,1,0.7247545999998692,None,,,,,,,,817,23,M,R,2026-02-25_11h51.37.865,VisualSearch_2526_3,,2025.2.4,2026-02-25 11h51.38.180311 +0100,
tilted.xlsx,The target is tilted.,117,44,4,5,0,0,0,0,0,0,0,0,0,0,0,0,1,1,1,117,space,11.07483480000019,None,0,1,0.5297051999996256,None,space,3.1145016000000396,None,0,0,0,0,,,,,5,4,44,7,172.90394379999998,,,,,,,,,,,,,,,,,,,,,172.88850599999978,172.90394379999998,173.38770169999998,173.39227040000014,173.4115099999999,173.95455270000002,,,,,173.95484570000008,173.96991609999986,174.17043740000008,174.15427390000013,173.4115099999999,,,,,,,,0,1,0.5297051999996256,None,,,,,,,,817,23,M,R,2026-02-25_11h51.37.865,VisualSearch_2526_3,,2025.2.4,2026-02-25 11h51.38.180311 +0100,
tilted.xlsx,The target is tilted.,117,45,5,5,1,1,1,1,1,1,1,1,0,0,0,0,0,7,8,117,space,11.07483480000019,None,1,1,0.5859642000000349,None,space,3.1145016000000396,None,0,0,0,0,,,,,5,5,45,1,174.17043740000008,,,,,,,,,,,,,,,,,,,,,174.15513439999995,174.17043740000008,174.6541957999998,174.65877550000005,174.67853819999982,175.27092330000005,,,,,175.27112559999978,175.28629809999984,175.48679859999993,175.47043600000006,174.67853819999982,,,,,,,,1,1,0.5859642000000349,None,,,,,,,,817,23,M,R,2026-02-25_11h51.37.865,VisualSearch_2526_3,,2025.2.4,2026-02-25 11h51.38.180311 +0100,
tilted.xlsx,The target is tilted.,117,46,6,5,1,1,1,1,1,1,1,1,1,1,1,1,0,11,12,117,space,11.07483480000019,None,1,1,0.7468494999998256,None,space,3.1145016000000396,None,0,0,0,0,,,,,5,6,46,0,175.48679859999993,,,,,,,,,,,,,,,,,,,,,175.47115810000014,175.48679859999993,175.97071770000002,175.97514300000012,175.98673599999984,176.7374120999998,,,,,176.73808659999986,176.75261809999984,176.95336300000008,176.93715139999995,175.98673599999984,,,,,,,,1,1,0.7468494999998256,None,,,,,,,,817,23,M,R,2026-02-25_11h51.37.865,VisualSearch_2526_3,,2025.2.4,2026-02-25 11h51.38.180311 +0100,
tilted.xlsx,The target is tilted.,117,47,7,5,0,1,1,1,1,1,1,1,1,1,1,1,1,11,12,117,space,11.07483480000019,None,0,1,1.8688898999998855,None,space,3.1145016000000396,None,0,0,0,0,,,,,5,7,47,4,176.95336300000008,,,,,,,,,,,,,,,,,,,,,176.93790439999975,176.95336300000008,177.4369286000001,177.4414910999999,177.46060720000014,179.3372949999998,,,,,179.33749709999984,179.3524735000001,179.55232530000012,179.53680069999973,177.46060720000014,,,,,,,,0,1,1.8688898999998855,None,,,,,,,,817,23,M,R,2026-02-25_11h51.37.865,VisualSearch_2526_3,,2025.2.4,2026-02-25 11h51.38.180311 +0100,
tilted.xlsx,The target is tilted.,117,48,0,6,1,1,1,1,1,1,1,1,0,0,0,0,0,7,8,117,space,11.07483480000019,None,1,1,1.0263473999998496,None,space,3.1145016000000396,None,0,0,0,0,,,,,6,0,48,1,179.55232530000012,,,,,,,,,,,,,,,,,,,,,179.53759469999977,179.55232530000012,180.03676129999985,180.04131340000004,180.06055979999974,181.10254910000003,,,,,181.10267049999993,181.11877909999976,181.3190893000001,181.3028478000001,180.06055979999974,,,,,,,,1,1,1.0263473999998496,None,,,,,,,,817,23,M,R,2026-02-25_11h51.37.865,VisualSearch_2526_3,,2025.2.4,2026-02-25 11h51.38.180311 +0100,
tilted.xlsx,The target is tilted.,117,49,1,6,1,0,0,0,0,0,0,0,0,0,0,0,0,0,1,117,space,11.07483480000019,None,1,1,0.5680477999999312,None,space,3.1145016000000396,None,0,0,0,0,,,,,6,1,49,3,181.3190893000001,,,,,,,,,,,,,,,,,,,,,181.30356410000013,181.3190893000001,181.80297149999979,181.80773499999987,181.8269522999999,182.4036197999999,,,,,182.40388519999988,182.4186651,182.6191988999999,182.60300670000015,,,,,,,,,1,1,0.5680477999999312,None,,,,,,,,817,23,M,R,2026-02-25_11h51.37.865,VisualSearch_2526_3,,2025.2.4,2026-02-25 11h51.38.180311 +0100,
tilted.xlsx,The target is tilted.,117,50,2,6,0,0,0,0,0,0,0,0,0,0,0,0,1,1,1,117,space,11.07483480000019,None,0,1,0.520487299999786,None,space,3.1145016000000396,None,0,0,0,0,,,,,6,2,50,7,182.6191988999999,,,,,,,,,,,,,,,,,,,,,182.60373500000014,182.6191988999999,183.10242530000005,183.10449879999987,183.11891149999974,183.6531746999999,,,,,183.65337450000015,183.6685434000001,183.86889459999975,183.85293520000005,183.11891149999974,,,,,,,,0,1,0.520487299999786,None,,,,,,,,817,23,M,R,2026-02-25_11h51.37.865,VisualSearch_2526_3,,2025.2.4,2026-02-25 11h51.38.180311 +0100,
tilted.xlsx,The target is tilted.,117,51,3,6,0,1,1,1,1,1,1,1,0,0,0,0,1,7,8,117,space,11.07483480000019,None,0,1,1.6487237000001187,None,space,3.1145016000000396,None,0,0,0,0,,,,,6,3,51,5,183.86889459999975,,,,,,,,,,,,,,,,,,,,,183.85365349999984,183.86889459999975,184.35249919999978,184.35645320000003,184.37600359999988,186.0352714999999,,,,,186.03536609999992,186.05134659999976,,186.23573959999976,184.37600359999988,,,,,,,,0,1,1.6487237000001187,None,,,,,,,,817,23,M,R,2026-02-25_11h51.37.865,VisualSearch_2526_3,,2025.2.4,2026-02-25 11h51.38.180311 +0100,
tilted.xlsx,The target is tilted.,117,52,4,6,1,1,1,1,1,1,1,1,1,1,1,1,0,11,12,117,space,11.07483480000019,None,0,0,2.3369376000000557,None,space,3.1145016000000396,None,0,0,0,0,,,,,6,4,52,0,186.25206130000015,,,,,,,,,,,,,,,,,,,,,186.23660729999983,186.25206130000015,186.73571450000009,186.74071270000013,186.7517767999998,189.10221180000008,,,,,189.1024137999998,189.11792419999983,189.31802329999982,189.30227819999982,,,,,,,,,0,0,2.3369376000000557,None,,,,,,,,817,23,M,R,2026-02-25_11h51.37.865,VisualSearch_2526_3,,2025.2.4,2026-02-25 11h51.38.180311 +0100,
tilted.xlsx,The target is tilted.,117,53,5,6,1,1,1,1,0,0,0,0,0,0,0,0,0,3,4,117,space,11.07483480000019,None,1,1,0.7098415999998906,None,space,3.1145016000000396,None,0,0,0,0,,,,,6,5,53,2,189.31802329999982,,,,,,,,,,,,,,,,,,,,,189.30310389999977,189.31802329999982,189.80189399999972,189.80694080000012,189.82540410000001,190.551868,,,,,190.55209409999998,190.56748770000013,190.7676821,190.75186669999994,189.82540410000001,,,,,,,,1,1,0.7098415999998906,None,,,,,,,,817,23,M,R,2026-02-25_11h51.37.865,VisualSearch_2526_3,,2025.2.4,2026-02-25 11h51.38.180311 +0100,
tilted.xlsx,The target is tilted.,117,54,6,6,0,1,1,1,0,0,0,0,0,0,0,0,1,3,4,117,space,11.07483480000019,None,0,1,0.7848875999998199,None,space,3.1145016000000396,None,0,0,0,0,,,,,6,6,54,6,190.7676821,,,,,,,,,,,,,,,,,,,,,190.75261799999998,190.7676821,191.25135009999985,191.25403370000004,191.26756509999996,192.06832880000002,,,,,192.06856130000006,192.08399580000014,192.28455589999976,192.26800159999993,191.26756509999996,,,,,,,,0,1,0.7848875999998199,None,,,,,,,,817,23,M,R,2026-02-25_11h51.37.865,VisualSearch_2526_3,,2025.2.4,2026-02-25 11h51.38.180311 +0100,
tilted.xlsx,The target is tilted.,117,55,7,6,0,1,1,1,1,1,1,1,1,1,1,1,1,11,12,117,space,11.07483480000019,None,0,1,1.711572199999864,None,space,3.1145016000000396,None,0,0,0,0,,,,,6,7,55,4,192.28455589999976,,,,,,,,,,,,,,,,,,,,,192.26873840000007,192.28455589999976,192.76727559999972,192.76988679999977,192.7838031000001,194.50164180000002,,,,,194.50186570000005,194.51700889999984,194.71710589999975,194.70095379999975,192.7838031000001,,,,,,,,0,1,1.711572199999864,None,,,,,,,,817,23,M,R,2026-02-25_11h51.37.865,VisualSearch_2526_3,,2025.2.4,2026-02-25 11h51.38.180311 +0100,
tilted.xlsx,The target is tilted.,117,56,0,7,0,1,1,1,1,1,1,1,0,0,0,0,1,7,8,117,space,11.07483480000019,None,0,1,1.1220229000000472,None,space,3.1145016000000396,None,0,0,0,0,,,,,7,0,56,5,194.71710589999975,,,,,,,,,,,,,,,,,,,,,194.70166199999994,194.71710589999975,195.20115989999977,195.20563170000014,195.22407410000005,196.35149039999988,,,,,196.35170449999987,196.36674390000007,196.5672338999998,196.55068149999988,195.22407410000005,,,,,,,,0,1,1.1220229000000472,None,,,,,,,,817,23,M,R,2026-02-25_11h51.37.865,VisualSearch_2526_3,,2025.2.4,2026-02-25 11h51.38.180311 +0100,
tilted.xlsx,The target is tilted.,117,57,1,7,0,1,1,1,1,1,1,1,1,1,1,1,1,11,12,117,space,11.07483480000019,None,0,1,1.823014300000068,None,space,3.1145016000000396,None,0,0,0,0,,,,,7,1,57,4,196.5672338999998,,,,,,,,,,,,,,,,,,,,,196.55112610000015,196.5672338999998,197.05082889999994,197.0558434999998,197.0756206000001,198.90133370000012,,,,,198.9015488,198.9163794000001,199.1169289999998,199.10083540000005,197.0756206000001,,,,,,,,0,1,1.823014300000068,None,,,,,,,,817,23,M,R,2026-02-25_11h51.37.865,VisualSearch_2526_3,,2025.2.4,2026-02-25 11h51.38.180311 +0100,
tilted.xlsx,The target is tilted.,117,58,2,7,0,0,0,0,0,0,0,0,0,0,0,0,1,1,1,117,space,11.07483480000019,None,0,1,0.4956873999999516,None,space,3.1145016000000396,None,0,0,0,0,,,,,7,2,58,7,199.1169289999998,,,,,,,,,,,,,,,,,,,,,199.10163779999993,199.1169289999998,199.59976499999993,199.60245529999975,199.61657379999997,200.11743100000012,,,,,200.11763770000016,200.13289989999976,200.33307650000006,200.3172657,199.61657379999997,,,,,,,,0,1,0.4956873999999516,None,,,,,,,,817,23,M,R,2026-02-25_11h51.37.865,VisualSearch_2526_3,,2025.2.4,2026-02-25 11h51.38.180311 +0100,
tilted.xlsx,The target is tilted.,117,59,3,7,1,1,1,1,1,1,1,1,0,0,0,0,0,7,8,117,space,11.07483480000019,None,1,1,1.575741999999991,None,space,3.1145016000000396,None,0,0,0,0,,,,,7,3,59,1,200.33307650000006,,,,,,,,,,,,,,,,,,,,,200.31798549999985,200.33307650000006,200.81721179999977,200.82209680000005,200.84052199999996,202.41689480000014,,,,,202.4169926999998,202.432769,202.6330428000001,202.61624110000002,200.84052199999996,,,,,,,,1,1,1.575741999999991,None,,,,,,,,817,23,M,R,2026-02-25_11h51.37.865,VisualSearch_2526_3,,2025.2.4,2026-02-25 11h51.38.180311 +0100,
tilted.xlsx,The target is tilted.,117,60,4,7,1,1,1,1,1,1,1,1,1,1,1,1,0,11,12,117,space,11.07483480000019,None,0,0,1.7924795000003542,None,space,3.1145016000000396,None,0,0,0,0,,,,,7,4,60,0,202.6330428000001,,,,,,,,,,,,,,,,,,,,,202.6167700000001,202.6330428000001,203.11675530000002,203.1217883999998,203.14255079999975,204.94930040000008,,,,,204.94941990000007,204.9657505,,205.14960010000004,203.14255079999975,,,,,,,,0,0,1.7924795000003542,None,,,,,,,,817,23,M,R,2026-02-25_11h51.37.865,VisualSearch_2526_3,,2025.2.4,2026-02-25 11h51.38.180311 +0100,
tilted.xlsx,The target is tilted.,117,61,5,7,1,0,0,0,0,0,0,0,0,0,0,0,0,0,1,117,space,11.07483480000019,None,1,1,0.7319465000000491,None,space,3.1145016000000396,None,0,0,0,0,,,,,7,5,61,3,205.1659770000001,,,,,,,,,,,,,,,,,,,,,205.1504761000001,205.1659770000001,205.64956080000002,205.65431219999982,205.67258300000003,206.41629019999982,,,,,206.4165164000001,206.43194129999983,206.632161,206.61645940000017,,,,,,,,,1,1,0.7319465000000491,None,,,,,,,,817,23,M,R,2026-02-25_11h51.37.865,VisualSearch_2526_3,,2025.2.4,2026-02-25 11h51.38.180311 +0100,
tilted.xlsx,The target is tilted.,117,62,6,7,1,1,1,1,0,0,0,0,0,0,0,0,0,3,4,117,space,11.07483480000019,None,1,1,0.7030006999998477,None,space,3.1145016000000396,None,0,0,0,0,,,,,7,6,62,2,206.632161,,,,,,,,,,,,,,,,,,,,,206.61729130000003,206.632161,207.11625950000007,207.12084689999983,207.13992759999974,207.84969610000007,,,,,207.8498866,207.86510120000003,208.0655969999998,208.0493388,207.13992759999974,,,,,,,,1,1,0.7030006999998477,None,,,,,,,,817,23,M,R,2026-02-25_11h51.37.865,VisualSearch_2526_3,,2025.2.4,2026-02-25 11h51.38.180311 +0100,
tilted.xlsx,The target is tilted.,117,63,7,7,0,1,1,1,0,0,0,0,0,0,0,0,1,3,4,117,space,11.07483480000019,None,0,1,0.7981944999996813,None,space,3.1145016000000396,None,0,0,0,0,,,,,7,7,63,6,208.0655969999998,,,,,,,,,,,,,,,,,,,,,208.05008369999996,208.0655969999998,208.54933110000002,208.5539146000001,208.57300989999976,209.38315439999997,,,,,209.38334829999985,209.39798070000006,209.59859670000014,209.58250020000014,208.57300989999976,,,,,,,,0,1,0.7981944999996813,None,,,,,,,,817,23,M,R,2026-02-25_11h51.37.865,VisualSearch_2526_3,,2025.2.4,2026-02-25 11h51.38.180311 +0100,
tilted.xlsx,The target is tilted.,117,64,0,8,1,1,1,1,1,1,1,1,0,0,0,0,0,7,8,117,space,11.07483480000019,None,1,1,2.15203560000009,None,space,3.1145016000000396,None,0,0,0,0,,,,,8,0,64,1,209.59859670000014,,,,,,,,,,,,,,,,,,,,,209.58332250000012,209.59859670000014,210.08242710000013,210.0870230999999,210.10644479999974,212.26496420000012,,,,,212.26509239999996,212.28093549999994,212.48104039999998,212.46531760000016,210.10644479999974,,,,,,,,1,1,2.15203560000009,None,,,,,,,,817,23,M,R,2026-02-25_11h51.37.865,VisualSearch_2526_3,,2025.2.4,2026-02-25 11h51.38.180311 +0100,
tilted.xlsx,The target is tilted.,117,65,1,8,0,1,1,1,1,1,1,1,1,1,1,1,1,11,12,117,space,11.07483480000019,None,0,1,1.9023959999999533,None,space,3.1145016000000396,None,0,0,0,0,,,,,8,1,65,4,212.48104039999998,,,,,,,,,,,,,,,,,,,,,212.4665117999998,212.48104039999998,212.9653804999998,212.97024280000005,212.98944290000009,214.89920230000007,,,,,214.89945249999982,214.91409399999975,215.1145891000001,215.09808740000017,212.98944290000009,,,,,,,,0,1,1.9023959999999533,None,,,,,,,,817,23,M,R,2026-02-25_11h51.37.865,VisualSearch_2526_3,,2025.2.4,2026-02-25 11h51.38.180311 +0100,
tilted.xlsx,The target is tilted.,117,66,2,8,1,0,0,0,0,0,0,0,0,0,0,0,0,0,1,117,space,11.07483480000019,None,1,1,0.703831799999989,None,space,3.1145016000000396,None,0,0,0,0,,,,,8,2,66,3,215.1145891000001,,,,,,,,,,,,,,,,,,,,,215.0988081999999,215.1145891000001,215.59812269999975,215.60341070000004,215.62259110000014,216.33209929999975,,,,,216.33230709999998,216.34721420000005,216.54746609999984,216.53134150000005,215.62259110000014,,,,,,,,1,1,0.703831799999989,None,,,,,,,,817,23,M,R,2026-02-25_11h51.37.865,VisualSearch_2526_3,,2025.2.4,2026-02-25 11h51.38.180311 +0100,
tilted.xlsx,The target is tilted.,117,67,3,8,1,1,1,1,0,0,0,0,0,0,0,0,0,3,4,117,space,11.07483480000019,None,1,1,0.8769701999999597,None,space,3.1145016000000396,None,0,0,0,0,,,,,8,3,67,2,216.54746609999984,,,,,,,,,,,,,,,,,,,,,216.53209049999987,216.54746609999984,217.03164579999975,217.03653480000003,217.05548439999984,217.94741599999998,,,,,217.94753469999978,217.96394090000013,218.16420919999973,218.14782979999973,217.05548439999984,,,,,,,,1,1,0.8769701999999597,None,,,,,,,,817,23,M,R,2026-02-25_11h51.37.865,VisualSearch_2526_3,,2025.2.4,2026-02-25 11h51.38.180311 +0100,
tilted.xlsx,The target is tilted.,117,68,4,8,0,0,0,0,0,0,0,0,0,0,0,0,1,1,1,117,space,11.07483480000019,None,0,1,0.6220216000001528,None,space,3.1145016000000396,None,0,0,0,0,,,,,8,4,68,7,218.16420919999973,,,,,,,,,,,,,,,,,,,,,218.14864820000003,218.16420919999973,218.64800349999996,218.65302109999993,218.66389639999989,219.29834219999975,,,,,219.2985392999999,219.31325900000002,219.51363009999977,219.4980397999998,,,,,,,,,0,1,0.6220216000001528,None,,,,,,,,817,23,M,R,2026-02-25_11h51.37.865,VisualSearch_2526_3,,2025.2.4,2026-02-25 11h51.38.180311 +0100,
tilted.xlsx,The target is tilted.,117,69,5,8,0,1,1,1,1,1,1,1,0,0,0,0,1,7,8,117,space,11.07483480000019,None,0,1,1.3703648000000612,None,space,3.1145016000000396,None,0,0,0,0,,,,,8,5,69,5,219.51363009999977,,,,,,,,,,,,,,,,,,,,,219.49887409999974,219.51363009999977,219.9978390000001,220.00237119999974,220.02140430000009,221.39810179999995,,,,,221.39829340000006,221.41317029999982,221.61357610000005,221.5973823999998,220.02140430000009,,,,,,,,0,1,1.3703648000000612,None,,,,,,,,817,23,M,R,2026-02-25_11h51.37.865,VisualSearch_2526_3,,2025.2.4,2026-02-25 11h51.38.180311 +0100,
tilted.xlsx,The target is tilted.,117,70,6,8,0,1,1,1,0,0,0,0,0,0,0,0,1,3,4,117,space,11.07483480000019,None,0,1,0.9144773000002715,None,space,3.1145016000000396,None,0,0,0,0,,,,,8,6,70,6,221.61357610000005,,,,,,,,,,,,,,,,,,,,,221.59810359999983,221.61357610000005,222.09743619999972,222.10156419999976,222.1134664000001,223.03127989999984,,,,,223.0314715999998,223.04604770000014,223.2467547000001,223.23065880000013,222.1134664000001,,,,,,,,0,1,0.9144773000002715,None,,,,,,,,817,23,M,R,2026-02-25_11h51.37.865,VisualSearch_2526_3,,2025.2.4,2026-02-25 11h51.38.180311 +0100,
tilted.xlsx,The target is tilted.,117,71,7,8,1,1,1,1,1,1,1,1,1,1,1,1,0,11,12,117,space,11.07483480000019,None,1,1,2.515253699999903,None,space,3.1145016000000396,None,0,0,0,0,,,,,8,7,71,0,223.2467547000001,,,,,,,,,,,,,,,,,,,,,223.23149990000002,223.2467547000001,223.7303394999999,223.73484240000016,223.75369060000003,226.28062090000003,,,,,226.28081229999998,226.29564840000012,226.4963161999999,226.4802897999998,223.75369060000003,,,,,,,,1,1,2.515253699999903,None,,,,,,,,817,23,M,R,2026-02-25_11h51.37.865,VisualSearch_2526_3,,2025.2.4,2026-02-25 11h51.38.180311 +0100,
tilted.xlsx,The target is tilted.,117,72,0,9,0,1,1,1,1,1,1,1,0,0,0,0,1,7,8,117,space,11.07483480000019,None,0,1,1.9021747000001596,None,space,3.1145016000000396,None,0,0,0,0,,,,,9,0,72,5,226.4963161999999,,,,,,,,,,,,,,,,,,,,,226.48111089999975,226.4963161999999,226.9800298,226.98463219999985,227.00342709999995,228.91362949999984,,,,,228.91383229999974,228.92873629999985,229.12922590000016,229.1131104000001,227.00342709999995,,,,,,,,0,1,1.9021747000001596,None,,,,,,,,817,23,M,R,2026-02-25_11h51.37.865,VisualSearch_2526_3,,2025.2.4,2026-02-25 11h51.38.180311 +0100,
tilted.xlsx,The target is tilted.,117,73,1,9,0,1,1,1,0,0,0,0,0,0,0,0,1,3,4,117,space,11.07483480000019,None,0,1,1.0334742000000006,None,space,3.1145016000000396,None,0,0,0,0,,,,,9,1,73,6,229.12922590000016,,,,,,,,,,,,,,,,,,,,,229.11453419999998,229.12922590000016,229.61309380000012,229.6188563999999,229.63808729999982,230.68006909999986,,,,,230.68026229999987,230.6951457,230.89574949999997,230.87961769999993,229.63808729999982,,,,,,,,0,1,1.0334742000000006,None,,,,,,,,817,23,M,R,2026-02-25_11h51.37.865,VisualSearch_2526_3,,2025.2.4,2026-02-25 11h51.38.180311 +0100,
tilted.xlsx,The target is tilted.,117,74,2,9,0,1,1,1,1,1,1,1,1,1,1,1,1,11,12,117,space,11.07483480000019,None,0,1,2.6936750999998367,None,space,3.1145016000000396,None,0,0,0,0,,,,,9,2,74,4,230.89574949999997,,,,,,,,,,,,,,,,,,,,,230.8804224999999,230.89574949999997,231.37935509999988,231.38386459999992,231.4026386999999,234.11164789999975,,,,,234.11176389999991,234.12826180000002,,234.31190620000007,231.4026386999999,,,,,,,,0,1,2.6936750999998367,None,,,,,,,,817,23,M,R,2026-02-25_11h51.37.865,VisualSearch_2526_3,,2025.2.4,2026-02-25 11h51.38.180311 +0100,
tilted.xlsx,The target is tilted.,117,75,3,9,1,0,0,0,0,0,0,0,0,0,0,0,0,0,1,117,space,11.07483480000019,None,1,1,0.6908463999998276,None,space,3.1145016000000396,None,0,0,0,0,,,,,9,3,75,3,234.3284223999999,,,,,,,,,,,,,,,,,,,,,234.31245609999996,234.3284223999999,234.81180349999977,234.8162827000001,234.83065099999976,235.52920270000004,,,,,235.5293944,235.54447889999983,235.74499269999978,235.72872559999996,234.83065099999976,,,,,,,,1,1,0.6908463999998276,None,,,,,,,,817,23,M,R,2026-02-25_11h51.37.865,VisualSearch_2526_3,,2025.2.4,2026-02-25 11h51.38.180311 +0100,
tilted.xlsx,The target is tilted.,117,76,4,9,1,1,1,1,1,1,1,1,0,0,0,0,0,7,8,117,space,11.07483480000019,None,1,1,1.3772250000001804,None,space,3.1145016000000396,None,0,0,0,0,,,,,9,4,76,1,235.74499269999978,,,,,,,,,,,,,,,,,,,,,235.72946939999974,235.74499269999978,236.2287465999998,236.2336335,236.24473880000005,237.62855179999997,,,,,237.62874209999973,237.64393900000005,237.84447109999974,237.82825559999992,236.24473880000005,,,,,,,,1,1,1.3772250000001804,None,,,,,,,,817,23,M,R,2026-02-25_11h51.37.865,VisualSearch_2526_3,,2025.2.4,2026-02-25 11h51.38.180311 +0100,
tilted.xlsx,The target is tilted.,117,77,5,9,1,1,1,1,1,1,1,1,1,1,1,1,0,11,12,117,space,11.07483480000019,None,0,0,1.483675200000107,None,space,3.1145016000000396,None,0,0,0,0,,,,,9,5,77,0,237.84447109999974,,,,,,,,,,,,,,,,,,,,,237.82895599999983,237.84447109999974,238.32814289999988,238.33279119999997,238.3527681999999,239.84555950000004,,,,,239.84578479999982,239.86055320000014,240.06104400000004,240.0449251,238.3527681999999,,,,,,,,0,0,1.483675200000107,None,,,,,,,,817,23,M,R,2026-02-25_11h51.37.865,VisualSearch_2526_3,,2025.2.4,2026-02-25 11h51.38.180311 +0100,
tilted.xlsx,The target is tilted.,117,78,6,9,1,1,1,1,0,0,0,0,0,0,0,0,0,3,4,117,space,11.07483480000019,None,1,1,0.6613938000000417,None,space,3.1145016000000396,None,0,0,0,0,,,,,9,6,78,2,240.06104400000004,,,,,,,,,,,,,,,,,,,,,240.04563199999984,240.06104400000004,240.5450692999998,240.54991659999996,240.5687257999998,241.24464179999995,,,,,241.2448776000001,241.26028570000017,241.46015039999975,241.44402720000016,240.5687257999998,,,,,,,,1,1,0.6613938000000417,None,,,,,,,,817,23,M,R,2026-02-25_11h51.37.865,VisualSearch_2526_3,,2025.2.4,2026-02-25 11h51.38.180311 +0100,
tilted.xlsx,The target is tilted.,117,79,7,9,0,0,0,0,0,0,0,0,0,0,0,0,1,1,1,117,space,11.07483480000019,None,0,1,0.5567537000001721,None,space,3.1145016000000396,None,0,0,0,0,,,,,9,7,79,7,241.46015039999975,,,,,,,,,,,,,,,,,,,,,241.44449510000004,241.46015039999975,241.9446165999998,241.94909659999985,241.96794999999975,242.52807529999973,,,,,242.52826259999983,242.5432440999998,242.744009,242.72795889999998,241.96794999999975,,,,,,,,0,1,0.5567537000001721,None,,,,,,,,817,23,M,R,2026-02-25_11h51.37.865,VisualSearch_2526_3,,2025.2.4,2026-02-25 11h51.38.180311 +0100,
tilted.xlsx,The target is tilted.,117,80,0,10,1,0,0,0,0,0,0,0,0,0,0,0,0,0,1,117,space,11.07483480000019,None,1,1,0.9087039999999433,None,space,3.1145016000000396,None,0,0,0,0,,,,,10,0,80,3,242.744009,,,,,,,,,,,,,,,,,,,,,242.72881879999977,242.744009,243.2278256999998,243.23231600000008,243.25115129999995,244.1619867999998,,,,,244.16217929999993,244.17664030000014,244.37637659999973,244.36037769999984,243.25115129999995,,,,,,,,1,1,0.9087039999999433,None,,,,,,,,817,23,M,R,2026-02-25_11h51.37.865,VisualSearch_2526_3,,2025.2.4,2026-02-25 11h51.38.180311 +0100,
tilted.xlsx,The target is tilted.,117,81,1,10,0,1,1,1,0,0,0,0,0,0,0,0,1,3,4,117,space,11.07483480000019,None,0,1,0.7867685000001075,None,space,3.1145016000000396,None,0,0,0,0,,,,,10,1,81,6,244.37637659999973,,,,,,,,,,,,,,,,,,,,,244.36098519999996,244.37637659999973,244.86063209999975,244.86512549999998,244.88402099999985,245.67794819999972,,,,,245.67813979999983,245.69306740000002,245.89346440000008,245.87744209999983,244.88402099999985,,,,,,,,0,1,0.7867685000001075,None,,,,,,,,817,23,M,R,2026-02-25_11h51.37.865,VisualSearch_2526_3,,2025.2.4,2026-02-25 11h51.38.180311 +0100,
tilted.xlsx,The target is tilted.,117,82,2,10,0,1,1,1,1,1,1,1,1,1,1,1,1,11,12,117,space,11.07483480000019,None,0,1,2.4013465000002725,None,space,3.1145016000000396,None,0,0,0,0,,,,,10,2,82,4,245.89346440000008,,,,,,,,,,,,,,,,,,,,,245.8781439999998,245.89346440000008,246.37736540000014,246.38185870000007,246.40150119999998,248.8108456,,,,,248.81105190000017,248.82591980000007,249.0264459,249.0102754999998,246.40150119999998,,,,,,,,0,1,2.4013465000002725,None,,,,,,,,817,23,M,R,2026-02-25_11h51.37.865,VisualSearch_2526_3,,2025.2.4,2026-02-25 11h51.38.180311 +0100,
tilted.xlsx,The target is tilted.,117,83,3,10,1,1,1,1,0,0,0,0,0,0,0,0,0,3,4,117,space,11.07483480000019,None,1,1,0.7402970999996796,None,space,3.1145016000000396,None,0,0,0,0,,,,,10,3,83,2,249.0264459,,,,,,,,,,,,,,,,,,,,,249.01108470000008,249.0264459,249.5102579999998,249.51524800000016,249.53389049999987,250.27740719999974,,,,,250.2776334,250.29235359999984,250.49236789999986,250.47663220000004,249.53389049999987,,,,,,,,1,1,0.7402970999996796,None,,,,,,,,817,23,M,R,2026-02-25_11h51.37.865,VisualSearch_2526_3,,2025.2.4,2026-02-25 11h51.38.180311 +0100,
tilted.xlsx,The target is tilted.,117,84,4,10,1,1,1,1,1,1,1,1,0,0,0,0,0,7,8,117,space,11.07483480000019,None,0,0,1.5255606000000625,None,space,3.1145016000000396,None,0,0,0,0,,,,,10,4,84,1,250.49236789999986,,,,,,,,,,,,,,,,,,,,,250.4774465999999,250.49236789999986,250.9766679999998,250.9811811999998,251.00003900000002,252.5269017999999,,,,,252.52709090000008,252.5425153000001,252.74258329999975,252.72637899999972,251.00003900000002,,,,,,,,0,0,1.5255606000000625,None,,,,,,,,817,23,M,R,2026-02-25_11h51.37.865,VisualSearch_2526_3,,2025.2.4,2026-02-25 11h51.38.180311 +0100,
tilted.xlsx,The target is tilted.,117,85,5,10,0,1,1,1,1,1,1,1,0,0,0,0,1,7,8,117,space,11.07483480000019,None,0,1,1.6396881999999096,None,space,3.1145016000000396,None,0,0,0,0,,,,,10,5,85,5,252.74258329999975,,,,,,,,,,,,,,,,,,,,,252.72717740000007,252.74258329999975,253.2264654999999,253.23114510000005,253.25061520000008,254.8934033999999,,,,,254.89361259999987,254.90874630000008,255.1086276000001,255.09272039999996,253.25061520000008,,,,,,,,0,1,1.6396881999999096,None,,,,,,,,817,23,M,R,2026-02-25_11h51.37.865,VisualSearch_2526_3,,2025.2.4,2026-02-25 11h51.38.180311 +0100,
tilted.xlsx,The target is tilted.,117,86,6,10,1,1,1,1,1,1,1,1,1,1,1,1,0,11,12,117,space,11.07483480000019,None,1,1,1.0162185999997746,None,space,3.1145016000000396,None,0,0,0,0,,,,,10,6,86,0,255.1086276000001,,,,,,,,,,,,,,,,,,,,,255.0935129999998,255.1086276000001,255.59253480000007,255.59734500000013,255.61645679999992,256.64305719999993,,,,,256.6432485999999,256.65854579999996,256.85865749999994,256.84263239999973,255.61645679999992,,,,,,,,1,1,1.0162185999997746,None,,,,,,,,817,23,M,R,2026-02-25_11h51.37.865,VisualSearch_2526_3,,2025.2.4,2026-02-25 11h51.38.180311 +0100,
tilted.xlsx,The target is tilted.,117,87,7,10,0,0,0,0,0,0,0,0,0,0,0,0,1,1,1,117,space,11.07483480000019,None,0,1,0.5661982999999964,None,space,3.1145016000000396,None,0,0,0,0,,,,,10,7,87,7,256.85865749999994,,,,,,,,,,,,,,,,,,,,,256.84344150000015,256.85865749999994,257.3423337999998,257.3469276000001,257.36533710000003,257.94292659999974,,,,,257.94314269999995,257.9582602999999,258.15793110000004,258.1418834000001,257.36533710000003,,,,,,,,0,1,0.5661982999999964,None,,,,,,,,817,23,M,R,2026-02-25_11h51.37.865,VisualSearch_2526_3,,2025.2.4,2026-02-25 11h51.38.180311 +0100,
tilted.xlsx,The target is tilted.,117,88,0,11,0,1,1,1,1,1,1,1,1,1,1,1,1,11,12,117,space,11.07483480000019,None,1,0,1.4380959000000075,None,space,3.1145016000000396,None,0,0,0,0,,,,,11,0,88,4,258.15793110000004,,,,,,,,,,,,,,,,,,,,,258.1425991000001,258.15793110000004,258.64223649999985,258.64675149999994,258.6656081000001,260.1091842999999,,,,,260.10937409999997,260.12462529999993,260.3248174999999,260.30830349999997,258.6656081000001,,,,,,,,1,0,1.4380959000000075,None,,,,,,,,817,23,M,R,2026-02-25_11h51.37.865,VisualSearch_2526_3,,2025.2.4,2026-02-25 11h51.38.180311 +0100,
tilted.xlsx,The target is tilted.,117,89,1,11,0,1,1,1,1,1,1,1,0,0,0,0,1,7,8,117,space,11.07483480000019,None,0,1,1.5299301000000014,None,space,3.1145016000000396,None,0,0,0,0,,,,,11,1,89,5,260.3248174999999,,,,,,,,,,,,,,,,,,,,,260.30904210000017,260.3248174999999,260.8082866,260.8127494999999,260.8317594,262.37560010000016,,,,,262.3757953999998,262.3911889000001,262.59112400000004,262.57510709999997,260.8317594,,,,,,,,0,1,1.5299301000000014,None,,,,,,,,817,23,M,R,2026-02-25_11h51.37.865,VisualSearch_2526_3,,2025.2.4,2026-02-25 11h51.38.180311 +0100,
tilted.xlsx,The target is tilted.,117,90,2,11,0,0,0,0,0,0,0,0,0,0,0,0,1,1,1,117,space,11.07483480000019,None,0,1,0.5461906999998973,None,space,3.1145016000000396,None,0,0,0,0,,,,,11,2,90,7,262.59112400000004,,,,,,,,,,,,,,,,,,,,,262.5759195999999,262.59112400000004,263.0749160999999,263.07926599999973,263.0975588000001,263.6580205,,,,,263.6581820000001,263.6741007999999,263.8743522,263.8582329999999,263.0975588000001,,,,,,,,0,1,0.5461906999998973,None,,,,,,,,817,23,M,R,2026-02-25_11h51.37.865,VisualSearch_2526_3,,2025.2.4,2026-02-25 11h51.38.180311 +0100,
tilted.xlsx,The target is tilted.,117,91,3,11,1,1,1,1,1,1,1,1,1,1,1,1,0,11,12,117,space,11.07483480000019,None,0,0,2.0537828000001355,None,space,3.1145016000000396,None,0,0,0,0,,,,,11,3,91,0,263.8743522,,,,,,,,,,,,,,,,,,,,,263.8590396999998,263.8743522,264.3577190000001,264.36220479999974,264.38108009999996,266.44163130000015,,,,,266.4418249999999,266.4572417999998,266.6572000000001,266.6406505,264.38108009999996,,,,,,,,0,0,2.0537828000001355,None,,,,,,,,817,23,M,R,2026-02-25_11h51.37.865,VisualSearch_2526_3,,2025.2.4,2026-02-25 11h51.38.180311 +0100,
tilted.xlsx,The target is tilted.,117,92,4,11,1,0,0,0,0,0,0,0,0,0,0,0,0,0,1,117,space,11.07483480000019,None,1,1,0.6609634000001279,None,space,3.1145016000000396,None,0,0,0,0,,,,,11,4,92,3,266.6572000000001,,,,,,,,,,,,,,,,,,,,,266.6413856999998,266.6572000000001,267.14114119999977,267.1461856000001,267.16518429999996,267.8414465999999,,,,,267.8416380999997,267.8570629999999,268.05674510000017,268.04101630000014,267.16518429999996,,,,,,,,1,1,0.6609634000001279,None,,,,,,,,817,23,M,R,2026-02-25_11h51.37.865,VisualSearch_2526_3,,2025.2.4,2026-02-25 11h51.38.180311 +0100,
tilted.xlsx,The target is tilted.,117,93,5,11,1,1,1,1,0,0,0,0,0,0,0,0,0,3,4,117,space,11.07483480000019,None,1,1,0.7888388000001214,None,space,3.1145016000000396,None,0,0,0,0,,,,,11,5,93,2,268.05674510000017,,,,,,,,,,,,,,,,,,,,,268.04181040000003,268.05674510000017,268.5408745999998,268.5456393999998,268.5645277999997,269.35754799999995,,,,,269.3577384,269.37332909999986,269.5735574999999,269.5574809,268.5645277999997,,,,,,,,1,1,0.7888388000001214,None,,,,,,,,817,23,M,R,2026-02-25_11h51.37.865,VisualSearch_2526_3,,2025.2.4,2026-02-25 11h51.38.180311 +0100,
tilted.xlsx,The target is tilted.,117,94,6,11,1,1,1,1,1,1,1,1,0,0,0,0,0,7,8,117,space,11.07483480000019,None,1,1,1.8596631000000343,None,space,3.1145016000000396,None,0,0,0,0,,,,,11,6,94,1,269.5735574999999,,,,,,,,,,,,,,,,,,,,,269.55827580000005,269.5735574999999,270.05725299999995,270.06167670000013,270.0805191999998,271.95704250000017,,,,,271.9571777000001,271.9729655000001,272.17312089999996,272.15688999999975,270.0805191999998,,,,,,,,1,1,1.8596631000000343,None,,,,,,,,817,23,M,R,2026-02-25_11h51.37.865,VisualSearch_2526_3,,2025.2.4,2026-02-25 11h51.38.180311 +0100,
tilted.xlsx,The target is tilted.,117,95,7,11,0,1,1,1,0,0,0,0,0,0,0,0,1,3,4,117,space,11.07483480000019,None,0,1,0.9812720999998419,None,space,3.1145016000000396,None,0,0,0,0,,,,,11,7,95,6,272.17312089999996,,,,,,,,,,,,,,,,,,,,,272.1576673999998,272.17312089999996,272.6568542,272.6617676000001,272.68086540000013,273.67396370000006,,,,,273.6741575000001,273.6891830999998,273.8895199999997,273.8731115999999,272.68086540000013,,,,,,,,0,1,0.9812720999998419,None,,,,,,,,817,23,M,R,2026-02-25_11h51.37.865,VisualSearch_2526_3,,2025.2.4,2026-02-25 11h51.38.180311 +0100,
tilted.xlsx,The target is tilted.,117,96,0,12,0,1,1,1,1,1,1,1,0,0,0,0,1,7,8,117,space,11.07483480000019,None,0,1,1.3630405999997492,None,space,3.1145016000000396,None,0,0,0,0,,,,,12,0,96,5,273.8895199999997,,,,,,,,,,,,,,,,,,,,,273.8739922,273.8895199999997,274.3733850999997,274.37771239999984,274.39587530000017,275.77378420000014,,,,,275.77400529999977,275.78891429999976,275.98913649999986,275.97299029999976,274.39587530000017,,,,,,,,0,1,1.3630405999997492,None,,,,,,,,817,23,M,R,2026-02-25_11h51.37.865,VisualSearch_2526_3,,2025.2.4,2026-02-25 11h51.38.180311 +0100,
tilted.xlsx,The target is tilted.,117,97,1,12,0,0,0,0,0,0,0,0,0,0,0,0,1,1,1,117,space,11.07483480000019,None,0,1,0.6813592000003155,None,space,3.1145016000000396,None,0,0,0,0,,,,,12,1,97,7,275.98913649999986,,,,,,,,,,,,,,,,,,,,,275.9738219999999,275.98913649999986,276.4729459,276.477351,276.4930782000001,277.19003829999974,,,,,277.1902356999999,277.20565829999987,277.4057339000001,277.38945890000014,276.4930782000001,,,,,,,,0,1,0.6813592000003155,None,,,,,,,,817,23,M,R,2026-02-25_11h51.37.865,VisualSearch_2526_3,,2025.2.4,2026-02-25 11h51.38.180311 +0100,
tilted.xlsx,The target is tilted.,117,98,2,12,0,1,1,1,0,0,0,0,0,0,0,0,1,3,4,117,space,11.07483480000019,None,0,1,0.6920270999999047,None,space,3.1145016000000396,None,0,0,0,0,,,,,12,2,98,6,277.4057339000001,,,,,,,,,,,,,,,,,,,,,277.3902051,277.4057339000001,277.88940300000013,277.89398230000006,277.91278490000013,278.60645079999995,,,,,278.6066433000001,278.62206100000003,278.8222273000001,278.80625610000016,277.91278490000013,,,,,,,,0,1,0.6920270999999047,None,,,,,,,,817,23,M,R,2026-02-25_11h51.37.865,VisualSearch_2526_3,,2025.2.4,2026-02-25 11h51.38.180311 +0100,
tilted.xlsx,The target is tilted.,117,99,3,12,1,1,1,1,0,0,0,0,0,0,0,0,0,3,4,117,space,11.07483480000019,None,0,0,0.7866106000001309,None,space,3.1145016000000396,None,0,0,0,0,,,,,12,3,99,2,278.8222273000001,,,,,,,,,,,,,,,,,,,,,278.80704779999996,278.8222273000001,279.3061308000001,279.3110501000001,279.3218619999998,280.123063,,,,,280.1232565,280.1385357999998,280.3384538999999,280.3223681999998,279.3218619999998,,,,,,,,0,0,0.7866106000001309,None,,,,,,,,817,23,M,R,2026-02-25_11h51.37.865,VisualSearch_2526_3,,2025.2.4,2026-02-25 11h51.38.180311 +0100,
tilted.xlsx,The target is tilted.,117,100,4,12,1,1,1,1,1,1,1,1,0,0,0,0,0,7,8,117,space,11.07483480000019,None,0,0,3.1868647000001147,None,space,3.1145016000000396,None,0,0,0,0,,,,,12,4,100,1,280.3384538999999,,,,,,,,,,,,,,,,,,,,,280.32318840000016,280.3384538999999,280.82232810000005,280.82688929999995,280.8456662999997,284.0391789,,,,,284.0393727999999,284.05432870000004,284.25467160000017,284.2382134999998,280.8456662999997,,,,,,,,0,0,3.1868647000001147,None,,,,,,,,817,23,M,R,2026-02-25_11h51.37.865,VisualSearch_2526_3,,2025.2.4,2026-02-25 11h51.38.180311 +0100,
tilted.xlsx,The target is tilted.,117,101,5,12,1,0,0,0,0,0,0,0,0,0,0,0,0,0,1,117,space,11.07483480000019,None,1,1,0.7114137999997183,None,space,3.1145016000000396,None,0,0,0,0,,,,,12,5,101,3,284.25467160000017,,,,,,,,,,,,,,,,,,,,,284.2389613,284.25467160000017,284.73846390000017,284.74280999999974,284.7608399999999,285.4886803999998,,,,,285.4888854000001,285.50447639999993,285.70428200000015,285.6883130000001,284.7608399999999,,,,,,,,1,1,0.7114137999997183,None,,,,,,,,817,23,M,R,2026-02-25_11h51.37.865,VisualSearch_2526_3,,2025.2.4,2026-02-25 11h51.38.180311 +0100,
tilted.xlsx,The target is tilted.,117,102,6,12,0,1,1,1,1,1,1,1,1,1,1,1,1,11,12,117,space,11.07483480000019,None,0,1,3.9930128999999397,None,space,3.1145016000000396,None,0,0,0,0,,,,,12,6,102,4,285.70428200000015,,,,,,,,,,,,,,,,,,,,,285.6893718000001,285.70428200000015,286.1880649999998,286.19258850000006,286.21190609999985,290.221579,,,,,290.22177569999985,290.2371045,290.43701379999993,290.4209657000001,286.21190609999985,,,,,,,,0,1,3.9930128999999397,None,,,,,,,,817,23,M,R,2026-02-25_11h51.37.865,VisualSearch_2526_3,,2025.2.4,2026-02-25 11h51.38.180311 +0100,
tilted.xlsx,The target is tilted.,117,103,7,12,1,1,1,1,1,1,1,1,1,1,1,1,0,11,12,117,space,11.07483480000019,None,1,1,1.4991116000001057,None,space,3.1145016000000396,None,0,0,0,0,,,,,12,7,103,0,290.43701379999993,,,,,,,,,,,,,,,,,,,,,290.42172189999974,290.43701379999993,290.92093250000016,290.9253927,290.94411720000016,292.4546279000001,,,,,292.4548239999999,292.4702084999999,292.6700655999998,292.6531801000001,290.94411720000016,,,,,,,,1,1,1.4991116000001057,None,,,,,,,,817,23,M,R,2026-02-25_11h51.37.865,VisualSearch_2526_3,,2025.2.4,2026-02-25 11h51.38.180311 +0100,
tilted.xlsx,The target is tilted.,117,104,0,13,0,1,1,1,0,0,0,0,0,0,0,0,1,3,4,117,space,11.07483480000019,None,0,1,0.6935761999998249,None,space,3.1145016000000396,None,0,0,0,0,,,,,13,0,104,6,292.6700655999998,,,,,,,,,,,,,,,,,,,,,292.6536179,292.6700655999998,293.15401459999975,293.1584809000001,293.1773285999998,293.8875726000001,,,,,293.8876919999998,293.90328839999984,294.1028796999999,294.08681750000005,293.1773285999998,,,,,,,,0,1,0.6935761999998249,None,,,,,,,,817,23,M,R,2026-02-25_11h51.37.865,VisualSearch_2526_3,,2025.2.4,2026-02-25 11h51.38.180311 +0100,
tilted.xlsx,The target is tilted.,117,105,1,13,1,1,1,1,1,1,1,1,1,1,1,1,0,11,12,117,space,11.07483480000019,None,1,1,0.749505599999793,None,space,3.1145016000000396,None,0,0,0,0,,,,,13,1,105,0,294.1028796999999,,,,,,,,,,,,,,,,,,,,,294.087575,294.1028796999999,294.58714229999987,294.5916256999999,294.6105867000001,295.37089549999973,,,,,295.3710880999997,295.3864371999998,295.5864585999998,295.5704222999998,294.6105867000001,,,,,,,,1,1,0.749505599999793,None,,,,,,,,817,23,M,R,2026-02-25_11h51.37.865,VisualSearch_2526_3,,2025.2.4,2026-02-25 11h51.38.180311 +0100,
tilted.xlsx,The target is tilted.,117,106,2,13,0,1,1,1,1,1,1,1,0,0,0,0,1,7,8,117,space,11.07483480000019,None,0,1,1.6521660999997039,None,space,3.1145016000000396,None,0,0,0,0,,,,,13,2,106,5,295.5864585999998,,,,,,,,,,,,,,,,,,,,,295.5712143999999,295.5864585999998,296.0700794999998,296.0745373,296.08622379999997,297.75392329999977,,,,,297.7541173999998,297.7694339999998,297.96920599999976,297.9526652999998,296.08622379999997,,,,,,,,0,1,1.6521660999997039,None,,,,,,,,817,23,M,R,2026-02-25_11h51.37.865,VisualSearch_2526_3,,2025.2.4,2026-02-25 11h51.38.180311 +0100,
tilted.xlsx,The target is tilted.,117,107,3,13,0,0,0,0,0,0,0,0,0,0,0,0,1,1,1,117,space,11.07483480000019,None,0,1,0.626544499999909,None,space,3.1145016000000396,None,0,0,0,0,,,,,13,3,107,7,297.96920599999976,,,,,,,,,,,,,,,,,,,,,297.9532334999999,297.96920599999976,298.45322179999994,298.4580222999998,298.47691769999983,299.1202607,,,,,299.1204659,299.1359917,299.33594379999977,299.31990929999984,298.47691769999983,,,,,,,,0,1,0.626544499999909,None,,,,,,,,817,23,M,R,2026-02-25_11h51.37.865,VisualSearch_2526_3,,2025.2.4,2026-02-25 11h51.38.180311 +0100,
tilted.xlsx,The target is tilted.,117,108,4,13,0,1,1,1,1,1,1,1,1,1,1,1,1,11,12,117,space,11.07483480000019,None,0,1,2.4755694999998923,None,space,3.1145016000000396,None,0,0,0,0,,,,,13,4,108,4,299.33594379999977,,,,,,,,,,,,,,,,,,,,,299.32072489999973,299.33594379999977,299.81964400000015,299.82410279999976,299.8420648000001,302.31950770000003,,,,,302.3197159000001,302.33521599999995,302.5355414999999,302.51947199999995,299.8420648000001,,,,,,,,0,1,2.4755694999998923,None,,,,,,,,817,23,M,R,2026-02-25_11h51.37.865,VisualSearch_2526_3,,2025.2.4,2026-02-25 11h51.38.180311 +0100,
tilted.xlsx,The target is tilted.,117,109,5,13,1,1,1,1,1,1,1,1,0,0,0,0,0,7,8,117,space,11.07483480000019,None,0,0,1.384306800000104,None,space,3.1145016000000396,None,0,0,0,0,,,,,13,5,109,1,302.5355414999999,,,,,,,,,,,,,,,,,,,,,302.52038719999973,302.5355414999999,303.019362,303.0241296999998,303.04301050000004,304.4362476000001,,,,,304.4364396000001,304.45144930000015,304.6515684000001,304.6358123,303.04301050000004,,,,,,,,0,0,1.384306800000104,None,,,,,,,,817,23,M,R,2026-02-25_11h51.37.865,VisualSearch_2526_3,,2025.2.4,2026-02-25 11h51.38.180311 +0100,
tilted.xlsx,The target is tilted.,117,110,6,13,1,0,0,0,0,0,0,0,0,0,0,0,0,0,1,117,space,11.07483480000019,None,1,1,0.6779249999999593,None,space,3.1145016000000396,None,0,0,0,0,,,,,13,6,110,3,304.6515684000001,,,,,,,,,,,,,,,,,,,,,304.63660419999997,304.6515684000001,305.13561260000006,305.1399719000001,305.1579486999999,305.8528017999997,,,,,305.8530185999998,305.86820979999993,306.0680947000001,306.0520855999998,305.1579486999999,,,,,,,,1,1,0.6779249999999593,None,,,,,,,,817,23,M,R,2026-02-25_11h51.37.865,VisualSearch_2526_3,,2025.2.4,2026-02-25 11h51.38.180311 +0100,
tilted.xlsx,The target is tilted.,117,111,7,13,1,1,1,1,0,0,0,0,0,0,0,0,0,3,4,117,space,11.07483480000019,None,1,1,0.8278457000001254,None,space,3.1145016000000396,None,0,0,0,0,,,,,13,7,111,2,306.0680947000001,,,,,,,,,,,,,,,,,,,,,306.0528089999998,306.0680947000001,306.5518619999998,306.55626410000013,306.57474709999997,307.4188319,,,,,307.4190266999999,307.43468989999974,307.6347022,307.61818270000003,306.57474709999997,,,,,,,,1,1,0.8278457000001254,None,,,,,,,,817,23,M,R,2026-02-25_11h51.37.865,VisualSearch_2526_3,,2025.2.4,2026-02-25 11h51.38.180311 +0100,
tilted.xlsx,The target is tilted.,117,112,0,14,0,1,1,1,0,0,0,0,0,0,0,0,1,3,4,117,space,11.07483480000019,None,0,1,1.1287695999999414,None,space,3.1145016000000396,None,0,0,0,0,,,,,14,0,112,6,307.6347022,,,,,,,,,,,,,,,,,,,,,307.6189380999999,307.6347022,308.1181438999997,308.1226753000001,308.1416703,309.28547590000016,,,,,309.28567139999996,309.30097509999996,309.50113699999974,309.48504060000005,308.1416703,,,,,,,,0,1,1.1287695999999414,None,,,,,,,,817,23,M,R,2026-02-25_11h51.37.865,VisualSearch_2526_3,,2025.2.4,2026-02-25 11h51.38.180311 +0100,
tilted.xlsx,The target is tilted.,117,113,1,14,1,0,0,0,0,0,0,0,0,0,0,0,0,0,1,117,space,11.07483480000019,None,1,1,0.5028725000001941,None,space,3.1145016000000396,None,0,0,0,0,,,,,14,1,113,3,309.50113699999974,,,,,,,,,,,,,,,,,,,,,309.48582129999977,309.50113699999974,309.9849853999999,309.98969499999976,310.00875110000015,310.51855079999996,,,,,310.51873909999995,310.53420289999985,310.7342576000001,310.7180481999999,310.00875110000015,,,,,,,,1,1,0.5028725000001941,None,,,,,,,,817,23,M,R,2026-02-25_11h51.37.865,VisualSearch_2526_3,,2025.2.4,2026-02-25 11h51.38.180311 +0100,
tilted.xlsx,The target is tilted.,117,114,2,14,0,0,0,0,0,0,0,0,0,0,0,0,1,1,1,117,space,11.07483480000019,None,0,1,0.6065074000002824,None,space,3.1145016000000396,None,0,0,0,0,,,,,14,2,114,7,310.7342576000001,,,,,,,,,,,,,,,,,,,,,310.71880469999996,310.7342576000001,311.21720099999993,311.21976300000006,311.2340933999999,311.8518921,,,,,311.85208669999975,311.86708050000016,312.06743819999974,312.0510881,311.2340933999999,,,,,,,,0,1,0.6065074000002824,None,,,,,,,,817,23,M,R,2026-02-25_11h51.37.865,VisualSearch_2526_3,,2025.2.4,2026-02-25 11h51.38.180311 +0100,
tilted.xlsx,The target is tilted.,117,115,3,14,1,1,1,1,1,1,1,1,1,1,1,1,0,11,12,117,space,11.07483480000019,None,0,0,2.331824200000028,None,space,3.1145016000000396,None,0,0,0,0,,,,,14,3,115,0,312.06743819999974,,,,,,,,,,,,,,,,,,,,,312.0518216999999,312.06743819999974,312.5512733999999,312.55560849999983,312.5672580999999,314.9009587999999,,,,,314.90118110000003,314.9166037,315.1169245000001,315.1010176,312.5672580999999,,,,,,,,0,0,2.331824200000028,None,,,,,,,,817,23,M,R,2026-02-25_11h51.37.865,VisualSearch_2526_3,,2025.2.4,2026-02-25 11h51.38.180311 +0100,
tilted.xlsx,The target is tilted.,117,116,4,14,0,1,1,1,1,1,1,1,1,1,1,1,1,11,12,117,space,11.07483480000019,None,0,1,2.9492003000000295,None,space,3.1145016000000396,None,0,0,0,0,,,,,14,4,116,4,315.1169245000001,,,,,,,,,,,,,,,,,,,,,315.10226209999973,315.1169245000001,315.6009398000001,315.6061896000001,315.6250918999999,318.58419790000016,,,,,318.58440710000013,318.5995592999998,318.79981829999997,318.78380019999986,315.6250918999999,,,,,,,,0,1,2.9492003000000295,None,,,,,,,,817,23,M,R,2026-02-25_11h51.37.865,VisualSearch_2526_3,,2025.2.4,2026-02-25 11h51.38.180311 +0100,
tilted.xlsx,The target is tilted.,117,117,5,14,0,1,1,1,1,1,1,1,0,0,0,0,1,7,8,117,space,11.07483480000019,None,0,1,1.482701900000393,None,space,3.1145016000000396,None,0,0,0,0,,,,,14,5,117,5,318.79981829999997,,,,,,,,,,,,,,,,,,,,,318.78463899999997,318.79981829999997,319.28346439999996,319.2881354000001,319.30672019999975,320.79988730000014,,,,,320.8000170999999,320.81595070000003,321.01634049999984,321.0001079999997,319.30672019999975,,,,,,,,0,1,1.482701900000393,None,,,,,,,,817,23,M,R,2026-02-25_11h51.37.865,VisualSearch_2526_3,,2025.2.4,2026-02-25 11h51.38.180311 +0100,
tilted.xlsx,The target is tilted.,117,118,6,14,1,1,1,1,0,0,0,0,0,0,0,0,0,3,4,117,space,11.07483480000019,None,1,1,0.9638264999998682,None,space,3.1145016000000396,None,0,0,0,0,,,,,14,6,118,2,321.01634049999984,,,,,,,,,,,,,,,,,,,,,321.0009120999998,321.01634049999984,321.50014550000014,321.5049997000001,321.51749519999976,322.4835614999997,,,,,322.4836962999998,322.49906729999975,322.69882610000013,322.6823301999998,321.51749519999976,,,,,,,,1,1,0.9638264999998682,None,,,,,,,,817,23,M,R,2026-02-25_11h51.37.865,VisualSearch_2526_3,,2025.2.4,2026-02-25 11h51.38.180311 +0100,
tilted.xlsx,The target is tilted.,117,119,7,14,1,1,1,1,1,1,1,1,0,0,0,0,0,7,8,117,space,11.07483480000019,None,0,0,1.4603495999999723,None,space,3.1145016000000396,None,0,0,0,0,,,,,14,7,119,1,322.69882610000013,,,,,,,,,,,,,,,,,,,,,322.68271079999977,322.69882610000013,323.1831671,323.18815129999984,323.20732610000005,324.6833492999999,,,,,324.68355680000013,324.6988274,324.9190881999998,324.88286689999995,323.20732610000005,,,,,,,,0,0,1.4603495999999723,None,,,,,,,,817,23,M,R,2026-02-25_11h51.37.865,VisualSearch_2526_3,,2025.2.4,2026-02-25 11h51.38.180311 +0100,
tilted.xlsx,The target is tilted.,117,0,0,0,,,,,,,,,,,,,,,,,space,11.07483480000019,None,,,,,space,3.1145016000000396,None,0,0,0,0,,,,,,,,,,,,,,,,,,,,,,,,,,,,,,,,,,,,,,,,,,,,,,,,,,,,,,,,,,,,,,,817,23,M,R,2026-02-25_11h51.37.865,VisualSearch_2526_3,,2025.2.4,2026-02-25 11h51.38.180311 +0100,
vertical.xlsx,The target is tilted.,135,0,0,0,0,0,0,0,0,0,0,0,0,0,0,0,1,1,1,135,space,7.880906999999752,None,0,1,0.7385017999999945,None,,,,0,1,1,1,0,0,0,7,,,,,332.84967300000017,,,,,,,,,,,,,,,324.9190881999998,324.9190881999998,324.9190881999998,space,7.880906999999752,None,332.8457712999998,332.84967300000017,333.33138180000014,333.3361196999999,333.35490919999984,334.09831959999974,0,1,0.7385017999999945,None,334.0985043999999,334.1142276999999,334.3138469999999,334.29798960000016,,,,,,,,,,,,,,,,,,,,817,23,M,R,2026-02-25_11h51.37.865,VisualSearch_2526_3,,2025.2.4,2026-02-25 11h51.38.180311 +0100,
vertical.xlsx,The target is tilted.,135,1,1,0,0,1,1,1,1,1,1,1,0,0,0,0,1,7,8,135,space,7.880906999999752,None,0,1,1.4898516000002928,None,,,,0,1,1,1,0,1,1,5,,,,,334.3138469999999,,,,,,,,,,,,,,,,,,,,,334.2986627,334.3138469999999,334.79725069999995,334.7998585,334.81365460000006,336.3151079999998,0,1,1.4898516000002928,None,336.31529360000013,336.3305071,336.5306313000001,336.5145091999998,334.81365460000006,,,,,,,,,,,,,,,,,,,817,23,M,R,2026-02-25_11h51.37.865,VisualSearch_2526_3,,2025.2.4,2026-02-25 11h51.38.180311 +0100,
vertical.xlsx,The target is tilted.,135,2,2,0,0,1,1,1,0,0,0,0,0,0,0,0,1,3,4,135,space,7.880906999999752,None,0,1,0.7915337999997973,None,,,,0,1,1,1,0,2,2,6,,,,,336.5306313000001,,,,,,,,,,,,,,,,,,,,,336.5152214999998,336.5306313000001,337.0143414999998,337.01886019999984,337.0377419000001,337.8313798999998,0,1,0.7915337999997973,None,337.8315641999998,337.84705159999976,338.04719239999986,338.0307951,337.0377419000001,,,,,,,,,,,,,,,,,,,817,23,M,R,2026-02-25_11h51.37.865,VisualSearch_2526_3,,2025.2.4,2026-02-25 11h51.38.180311 +0100,
vertical.xlsx,The target is tilted.,135,3,3,0,0,1,1,1,1,1,1,1,1,1,1,1,1,11,12,135,space,7.880906999999752,None,0,1,1.2832111000002442,None,,,,0,1,1,1,0,3,3,4,,,,,338.04719239999986,,,,,,,,,,,,,,,,,,,,,338.03146620000007,338.04719239999986,338.5308295,338.5355163999998,338.5541567,339.8473657999998,0,1,1.2832111000002442,None,339.84749299999976,339.8629559000001,340.06340020000016,340.0473671999998,338.5541567,,,,,,,,,,,,,,,,,,,817,23,M,R,2026-02-25_11h51.37.865,VisualSearch_2526_3,,2025.2.4,2026-02-25 11h51.38.180311 +0100,
vertical.xlsx,The target is tilted.,135,4,4,0,1,1,1,1,1,1,1,1,1,1,1,1,0,11,12,135,space,7.880906999999752,None,1,1,0.7245612000001529,None,,,,0,1,1,1,0,4,4,0,,,,,340.06340020000016,,,,,,,,,,,,,,,,,,,,,340.04800780000005,340.06340020000016,340.5472227999999,340.5516925000002,340.5710724999999,341.29762530000016,1,1,0.7245612000001529,None,341.29781019999973,341.3132138000001,341.51312499999995,341.49697259999994,340.5710724999999,,,,,,,,,,,,,,,,,,,817,23,M,R,2026-02-25_11h51.37.865,VisualSearch_2526_3,,2025.2.4,2026-02-25 11h51.38.180311 +0100,
vertical.xlsx,The target is tilted.,135,5,5,0,1,1,1,1,0,0,0,0,0,0,0,0,0,3,4,135,space,7.880906999999752,None,1,1,0.629089699999895,None,,,,0,1,1,1,0,5,5,2,,,,,341.51312499999995,,,,,,,,,,,,,,,,,,,,,341.49764700000014,341.51312499999995,341.99675290000005,342.00120100000004,342.02001199999995,342.66410399999995,1,1,0.629089699999895,None,342.6643927,342.67954580000014,342.87933369999973,342.86357050000015,342.02001199999995,,,,,,,,,,,,,,,,,,,817,23,M,R,2026-02-25_11h51.37.865,VisualSearch_2526_3,,2025.2.4,2026-02-25 11h51.38.180311 +0100,
vertical.xlsx,The target is tilted.,135,6,6,0,1,0,0,0,0,0,0,0,0,0,0,0,0,0,1,135,space,7.880906999999752,None,1,1,0.5246885999999904,None,,,,0,1,1,1,0,6,6,3,,,,,342.87933369999973,,,,,,,,,,,,,,,,,,,,,342.86421100000007,342.87933369999973,343.36364790000016,343.3683698,343.37944319999997,343.9139374000001,1,1,0.5246885999999904,None,343.91411789999984,343.92922150000004,344.1294918999997,344.11290370000006,343.37944319999997,,,,,,,,,,,,,,,,,,,817,23,M,R,2026-02-25_11h51.37.865,VisualSearch_2526_3,,2025.2.4,2026-02-25 11h51.38.180311 +0100,
vertical.xlsx,The target is tilted.,135,7,7,0,1,1,1,1,1,1,1,1,0,0,0,0,0,7,8,135,space,7.880906999999752,None,1,1,0.7505780999999843,None,,,,0,1,1,1,0,7,7,1,,,,,344.1294918999997,,,,,,,,,,,,,,,,,,,,,344.1135868000001,344.1294918999997,344.61324520000016,344.61774990000004,344.6369059999997,345.39705760000015,1,1,0.7505780999999843,None,345.3972410000001,345.4122778000001,345.61265219999996,345.5961932,344.6369059999997,,,,,,,,,,,,,,,,,,,817,23,M,R,2026-02-25_11h51.37.865,VisualSearch_2526_3,,2025.2.4,2026-02-25 11h51.38.180311 +0100,
vertical.xlsx,The target is tilted.,135,0,0,0,0,0,0,0,0,0,0,0,0,0,0,0,1,1,1,135,space,7.880906999999752,None,0,1,0.6994119999999384,None,space,1.5438543000000209,None,0,1,1,1,,,,,0,0,0,7,347.20242759999974,,,,,,,,,,,,,,,,,,,,,347.19748919999984,347.20242759999974,347.67884430000004,347.68332550000014,347.7021501999998,348.4133446999999,,,,,348.4135375999999,348.4288416999998,348.62883150000016,348.6127139,,345.60307220000004,345.61265219999996,345.61265219999996,347.16323999999986,space,1.5438543000000209,None,0,1,0.6994119999999384,None,,,,,,,,817,23,M,R,2026-02-25_11h51.37.865,VisualSearch_2526_3,,2025.2.4,2026-02-25 11h51.38.180311 +0100,
vertical.xlsx,The target is tilted.,135,1,1,0,0,1,1,1,1,1,1,1,0,0,0,0,1,7,8,135,space,7.880906999999752,None,0,1,1.232597000000169,None,space,1.5438543000000209,None,0,1,1,1,,,,,0,1,1,5,348.62883150000016,,,,,,,,,,,,,,,,,,,,,348.61342920000016,348.62883150000016,349.1120084999998,349.1157168,349.13378190000003,350.3795700999999,,,,,350.37976789999993,350.3951207,350.5953718999999,350.57890880000014,349.13378190000003,,,,,,,,0,1,1.232597000000169,None,,,,,,,,817,23,M,R,2026-02-25_11h51.37.865,VisualSearch_2526_3,,2025.2.4,2026-02-25 11h51.38.180311 +0100,
vertical.xlsx,The target is tilted.,135,2,2,0,1,1,1,1,1,1,1,1,1,1,1,1,0,11,12,135,space,7.880906999999752,None,1,1,0.7195822000003318,None,space,1.5438543000000209,None,0,1,1,1,,,,,0,2,2,0,350.5953718999999,,,,,,,,,,,,,,,,,,,,,350.5796412999998,350.5953718999999,351.07889160000013,351.0832541999998,351.09498189999977,351.82937360000005,,,,,351.8295655000002,351.84503240000004,352.0450679999999,352.02899019999995,351.09498189999977,,,,,,,,1,1,0.7195822000003318,None,,,,,,,,817,23,M,R,2026-02-25_11h51.37.865,VisualSearch_2526_3,,2025.2.4,2026-02-25 11h51.38.180311 +0100,
vertical.xlsx,The target is tilted.,135,3,3,0,1,1,1,1,1,1,1,1,0,0,0,0,0,7,8,135,space,7.880906999999752,None,1,1,0.9374935999999252,None,space,1.5438543000000209,None,0,1,1,1,,,,,0,3,3,1,352.0450679999999,,,,,,,,,,,,,,,,,,,,,352.0297999999998,352.0450679999999,352.52889400000004,352.5336754,352.54483040000014,353.49591250000003,,,,,353.49610470000016,353.51134460000003,353.71147070000006,353.69531430000006,352.54483040000014,,,,,,,,1,1,0.9374935999999252,None,,,,,,,,817,23,M,R,2026-02-25_11h51.37.865,VisualSearch_2526_3,,2025.2.4,2026-02-25 11h51.38.180311 +0100,
vertical.xlsx,The target is tilted.,135,4,4,0,1,0,0,0,0,0,0,0,0,0,0,0,0,0,1,135,space,7.880906999999752,None,1,1,0.5009998000000451,None,space,1.5438543000000209,None,0,1,1,1,,,,,0,4,4,3,353.71147070000006,,,,,,,,,,,,,,,,,,,,,353.6960248999999,353.71147070000006,354.1949577999999,354.1993515999998,354.21837689999984,354.7280676999999,,,,,354.7281850999998,354.7444246,354.94452920000003,354.92827320000015,354.21837689999984,,,,,,,,1,1,0.5009998000000451,None,,,,,,,,817,23,M,R,2026-02-25_11h51.37.865,VisualSearch_2526_3,,2025.2.4,2026-02-25 11h51.38.180311 +0100,
vertical.xlsx,The target is tilted.,135,5,5,0,0,1,1,1,1,1,1,1,1,1,1,1,1,11,12,135,space,7.880906999999752,None,0,1,1.1310450999999375,None,space,1.5438543000000209,None,0,1,1,1,,,,,0,5,5,4,354.94452920000003,,,,,,,,,,,,,,,,,,,,,354.9290777000001,354.94452920000003,355.4282401999999,355.4328894,355.4444024999998,356.5787448000001,,,,,356.5789384999998,356.59408529999973,356.79439779999984,356.77803649999987,355.4444024999998,,,,,,,,0,1,1.1310450999999375,None,,,,,,,,817,23,M,R,2026-02-25_11h51.37.865,VisualSearch_2526_3,,2025.2.4,2026-02-25 11h51.38.180311 +0100,
vertical.xlsx,The target is tilted.,135,6,6,0,0,1,1,1,0,0,0,0,0,0,0,0,1,3,4,135,space,7.880906999999752,None,0,1,0.6181959000000461,None,space,1.5438543000000209,None,0,1,1,1,,,,,0,6,6,6,356.79439779999984,,,,,,,,,,,,,,,,,,,,,356.7787708000001,356.79439779999984,357.2781245000001,357.28249430000005,357.29430569999977,357.9282674000001,,,,,357.92846229999986,357.94420420000006,358.1441301,358.12783320000017,357.29430569999977,,,,,,,,0,1,0.6181959000000461,None,,,,,,,,817,23,M,R,2026-02-25_11h51.37.865,VisualSearch_2526_3,,2025.2.4,2026-02-25 11h51.38.180311 +0100,
vertical.xlsx,The target is tilted.,135,7,7,0,1,1,1,1,0,0,0,0,0,0,0,0,0,3,4,135,space,7.880906999999752,None,1,1,0.6491485000001376,None,space,1.5438543000000209,None,0,1,1,1,,,,,0,7,7,2,358.1441301,,,,,,,,,,,,,,,,,,,,,358.1285625999999,358.1441301,358.62825239999984,358.63301009999986,358.6439412,359.29467909999994,,,,,359.29489379999995,359.31065949999993,359.5102320000001,359.49454689999993,358.6439412,,,,,,,,1,1,0.6491485000001376,None,,,,,,,,817,23,M,R,2026-02-25_11h51.37.865,VisualSearch_2526_3,,2025.2.4,2026-02-25 11h51.38.180311 +0100,
vertical.xlsx,The target is tilted.,135,8,0,1,1,1,1,1,1,1,1,1,1,1,1,1,0,11,12,135,space,7.880906999999752,None,1,1,0.7048125000001164,None,space,1.5438543000000209,None,0,1,1,1,,,,,1,0,8,0,359.5102320000001,,,,,,,,,,,,,,,,,,,,,359.4952622999999,359.5102320000001,359.99459190000016,359.9997798999998,360.0188054,360.7279582000001,,,,,360.72814689999996,360.74363319999975,360.9438872999999,360.92744390000007,360.0188054,,,,,,,,1,1,0.7048125000001164,None,,,,,,,,817,23,M,R,2026-02-25_11h51.37.865,VisualSearch_2526_3,,2025.2.4,2026-02-25 11h51.38.180311 +0100,
vertical.xlsx,The target is tilted.,135,9,1,1,1,0,0,0,0,0,0,0,0,0,0,0,0,0,1,135,space,7.880906999999752,None,1,1,0.48680100000001403,None,space,1.5438543000000209,None,0,1,1,1,,,,,1,1,9,3,360.9438872999999,,,,,,,,,,,,,,,,,,,,,360.9282551000001,360.9438872999999,361.4275669999997,361.4321116000001,361.4509941000001,361.9446918999997,,,,,361.9448822999998,361.96024239999997,362.1600171,362.14425429999983,361.4509941000001,,,,,,,,1,1,0.48680100000001403,None,,,,,,,,817,23,M,R,2026-02-25_11h51.37.865,VisualSearch_2526_3,,2025.2.4,2026-02-25 11h51.38.180311 +0100,
vertical.xlsx,The target is tilted.,135,10,2,1,1,1,1,1,0,0,0,0,0,0,0,0,0,3,4,135,space,7.880906999999752,None,1,1,0.5900934999999663,None,space,1.5438543000000209,None,0,1,1,1,,,,,1,2,10,2,362.1600171,,,,,,,,,,,,,,,,,,,,,362.14505229999986,362.1600171,362.64399679999997,362.6487124999999,362.6677163999998,363.26085120000016,,,,,363.260996,363.2766837999998,363.47638860000006,363.46055720000004,362.6677163999998,,,,,,,,1,1,0.5900934999999663,None,,,,,,,,817,23,M,R,2026-02-25_11h51.37.865,VisualSearch_2526_3,,2025.2.4,2026-02-25 11h51.38.180311 +0100,
vertical.xlsx,The target is tilted.,135,11,3,1,0,1,1,1,1,1,1,1,0,0,0,0,1,7,8,135,space,7.880906999999752,None,0,1,0.6214685000004465,None,space,1.5438543000000209,None,0,1,1,1,,,,,1,3,11,5,363.47638860000006,,,,,,,,,,,,,,,,,,,,,363.4612941999999,363.47638860000006,363.9604988000001,363.9651531999998,363.98400589999983,364.6108730000001,,,,,364.6110642999997,364.62644390000014,364.8263139999999,364.8103781,363.98400589999983,,,,,,,,0,1,0.6214685000004465,None,,,,,,,,817,23,M,R,2026-02-25_11h51.37.865,VisualSearch_2526_3,,2025.2.4,2026-02-25 11h51.38.180311 +0100,
vertical.xlsx,The target is tilted.,135,12,4,1,0,0,0,0,0,0,0,0,0,0,0,0,1,1,1,135,space,7.880906999999752,None,0,1,0.6541583999996874,None,space,1.5438543000000209,None,0,1,1,1,,,,,1,4,12,7,364.8263139999999,,,,,,,,,,,,,,,,,,,,,364.81112059999987,364.8263139999999,365.3101719000001,365.3148581999999,365.3339040000001,365.9940136,,,,,365.9942049000001,366.00964810000005,366.20949870000004,366.1928432999998,365.3339040000001,,,,,,,,0,1,0.6541583999996874,None,,,,,,,,817,23,M,R,2026-02-25_11h51.37.865,VisualSearch_2526_3,,2025.2.4,2026-02-25 11h51.38.180311 +0100,
vertical.xlsx,The target is tilted.,135,13,5,1,1,1,1,1,1,1,1,1,0,0,0,0,0,7,8,135,space,7.880906999999752,None,1,1,0.48677600000019083,None,space,1.5438543000000209,None,0,1,1,1,,,,,1,5,13,1,366.20949870000004,,,,,,,,,,,,,,,,,,,,,366.1933036999999,366.20949870000004,366.69369629999983,366.69853139999987,366.7168142999999,367.2109271999998,,,,,367.2111412999998,367.22618120000016,367.42620239999997,367.4101093999998,366.7168142999999,,,,,,,,1,1,0.48677600000019083,None,,,,,,,,817,23,M,R,2026-02-25_11h51.37.865,VisualSearch_2526_3,,2025.2.4,2026-02-25 11h51.38.180311 +0100,
vertical.xlsx,The target is tilted.,135,14,6,1,0,1,1,1,0,0,0,0,0,0,0,0,1,3,4,135,space,7.880906999999752,None,0,1,0.5534572999999909,None,space,1.5438543000000209,None,0,1,1,1,,,,,1,6,14,6,367.42620239999997,,,,,,,,,,,,,,,,,,,,,367.41079919999993,367.42620239999997,367.9098691999998,367.91427399999975,367.9323602999998,368.4938483000001,,,,,368.4940409999999,368.50891809999985,368.7092625,368.69304209999973,367.9323602999998,,,,,,,,0,1,0.5534572999999909,None,,,,,,,,817,23,M,R,2026-02-25_11h51.37.865,VisualSearch_2526_3,,2025.2.4,2026-02-25 11h51.38.180311 +0100,
vertical.xlsx,The target is tilted.,135,15,7,1,0,1,1,1,1,1,1,1,1,1,1,1,1,11,12,135,space,7.880906999999752,None,0,1,0.9439273000002686,None,space,1.5438543000000209,None,0,1,1,1,,,,,1,7,15,4,368.7092625,,,,,,,,,,,,,,,,,,,,,368.69381369999974,368.7092625,369.1931146000002,369.19747719999987,369.21556789999977,370.1766536,,,,,370.1768234000001,370.19239149999976,370.3925279,370.37640939999983,369.21556789999977,,,,,,,,0,1,0.9439273000002686,None,,,,,,,,817,23,M,R,2026-02-25_11h51.37.865,VisualSearch_2526_3,,2025.2.4,2026-02-25 11h51.38.180311 +0100,
vertical.xlsx,The target is tilted.,135,16,0,2,1,0,0,0,0,0,0,0,0,0,0,0,0,0,1,135,space,7.880906999999752,None,1,1,0.5772145999999339,None,space,1.5438543000000209,None,0,1,1,1,,,,,2,0,16,3,370.3925279,,,,,,,,,,,,,,,,,,,,,370.3772005999999,370.3925279,370.87629849999985,370.8807072999998,370.89887769999996,371.4931228999999,,,,,371.4933178000001,371.5088525000001,371.7089261000001,371.6929359999999,370.89887769999996,,,,,,,,1,1,0.5772145999999339,None,,,,,,,,817,23,M,R,2026-02-25_11h51.37.865,VisualSearch_2526_3,,2025.2.4,2026-02-25 11h51.38.180311 +0100,
vertical.xlsx,The target is tilted.,135,17,1,2,1,1,1,1,0,0,0,0,0,0,0,0,0,3,4,135,space,7.880906999999752,None,1,1,0.6606213000000025,None,space,1.5438543000000209,None,0,1,1,1,,,,,2,1,17,2,371.7089261000001,,,,,,,,,,,,,,,,,,,,,371.6937254999998,371.7089261000001,372.1928048999998,372.19746369999984,372.2169441000001,372.89315750000014,,,,,372.89335600000004,372.90844400000015,373.10864360000005,373.0926319,372.2169441000001,,,,,,,,1,1,0.6606213000000025,None,,,,,,,,817,23,M,R,2026-02-25_11h51.37.865,VisualSearch_2526_3,,2025.2.4,2026-02-25 11h51.38.180311 +0100,
vertical.xlsx,The target is tilted.,135,18,2,2,0,1,1,1,0,0,0,0,0,0,0,0,1,3,4,135,space,7.880906999999752,None,0,1,0.5861030999999457,None,space,1.5438543000000209,None,0,1,1,1,,,,,2,2,18,6,373.10864360000005,,,,,,,,,,,,,,,,,,,,,373.09337330000017,373.10864360000005,373.59248449999996,373.5968724999998,373.61510569999973,374.2094754,,,,,374.20966469999985,374.22506509999994,374.4252253999998,374.40892110000004,373.61510569999973,,,,,,,,0,1,0.5861030999999457,None,,,,,,,,817,23,M,R,2026-02-25_11h51.37.865,VisualSearch_2526_3,,2025.2.4,2026-02-25 11h51.38.180311 +0100,
vertical.xlsx,The target is tilted.,135,19,3,2,1,1,1,1,1,1,1,1,0,0,0,0,0,7,8,135,space,7.880906999999752,None,1,1,0.5519414999998844,None,space,1.5438543000000209,None,0,1,1,1,,,,,2,3,19,1,374.4252253999998,,,,,,,,,,,,,,,,,,,,,374.4096641000001,374.4252253999998,374.9084981000001,374.91105719999996,374.9249755999999,375.49278890000005,,,,,375.49298229999977,375.5081841000001,375.70816950000017,375.69221419999985,374.9249755999999,,,,,,,,1,1,0.5519414999998844,None,,,,,,,,817,23,M,R,2026-02-25_11h51.37.865,VisualSearch_2526_3,,2025.2.4,2026-02-25 11h51.38.180311 +0100,
vertical.xlsx,The target is tilted.,135,20,4,2,0,1,1,1,1,1,1,1,0,0,0,0,1,7,8,135,space,7.880906999999752,None,0,1,1.1667726999999104,None,space,1.5438543000000209,None,0,1,1,1,,,,,2,4,20,5,375.70816950000017,,,,,,,,,,,,,,,,,,,,,375.6930069,375.70816950000017,376.19195230000014,376.1964450999999,376.21542569999974,377.39247579999983,,,,,377.3926673000001,377.4079569999999,377.6077556,377.5919678,376.21542569999974,,,,,,,,0,1,1.1667726999999104,None,,,,,,,,817,23,M,R,2026-02-25_11h51.37.865,VisualSearch_2526_3,,2025.2.4,2026-02-25 11h51.38.180311 +0100,
vertical.xlsx,The target is tilted.,135,21,5,2,0,0,0,0,0,0,0,0,0,0,0,0,1,1,1,135,space,7.880906999999752,None,0,1,0.4853686999999809,None,space,1.5438543000000209,None,0,1,1,1,,,,,2,5,21,7,377.6077556,,,,,,,,,,,,,,,,,,,,,377.59267899999986,377.6077556,378.0913764000002,378.0958353000001,378.10750849999977,378.60927159999983,,,,,378.6095028999998,378.62418160000016,378.82461120000016,378.80821509999987,378.10750849999977,,,,,,,,0,1,0.4853686999999809,None,,,,,,,,817,23,M,R,2026-02-25_11h51.37.865,VisualSearch_2526_3,,2025.2.4,2026-02-25 11h51.38.180311 +0100,
vertical.xlsx,The target is tilted.,135,22,6,2,1,1,1,1,1,1,1,1,1,1,1,1,0,11,12,135,space,7.880906999999752,None,1,1,0.8945777999997517,None,space,1.5438543000000209,None,0,1,1,1,,,,,2,6,22,0,378.82461120000016,,,,,,,,,,,,,,,,,,,,,378.8090603999999,378.82461120000016,379.30822579999995,379.3122736,379.3247526,380.22507829999995,,,,,380.2257884999999,380.24064199999975,380.4406310999998,380.4249759999998,379.3247526,,,,,,,,1,1,0.8945777999997517,None,,,,,,,,817,23,M,R,2026-02-25_11h51.37.865,VisualSearch_2526_3,,2025.2.4,2026-02-25 11h51.38.180311 +0100,
vertical.xlsx,The target is tilted.,135,23,7,2,0,1,1,1,1,1,1,1,1,1,1,1,1,11,12,135,space,7.880906999999752,None,0,1,0.9733534000001782,None,space,1.5438543000000209,None,0,1,1,1,,,,,2,7,23,4,380.4406310999998,,,,,,,,,,,,,,,,,,,,,380.4257730999998,380.4406310999998,380.924853,380.92933159999984,380.9485891999998,381.92391199999975,,,,,381.9239991999998,381.94137279999995,,382.14048390000016,380.9485891999998,,,,,,,,0,1,0.9733534000001782,None,,,,,,,,817,23,M,R,2026-02-25_11h51.37.865,VisualSearch_2526_3,,2025.2.4,2026-02-25 11h51.38.180311 +0100,
vertical.xlsx,The target is tilted.,135,24,0,3,0,1,1,1,0,0,0,0,0,0,0,0,1,3,4,135,space,7.880906999999752,None,0,1,0.554588099999819,None,space,1.5438543000000209,None,0,1,1,1,,,,,3,0,24,6,382.15676799999983,,,,,,,,,,,,,,,,,,,,,382.1408738,382.15676799999983,382.6401133999998,382.6427742999999,382.6566383999998,383.2250592999999,,,,,383.2252515,383.24045509999996,383.44052509999983,383.42409880000014,,,,,,,,,0,1,0.554588099999819,None,,,,,,,,817,23,M,R,2026-02-25_11h51.37.865,VisualSearch_2526_3,,2025.2.4,2026-02-25 11h51.38.180311 +0100,
vertical.xlsx,The target is tilted.,135,25,1,3,0,0,0,0,0,0,0,0,0,0,0,0,1,1,1,135,space,7.880906999999752,None,0,1,0.565486299999975,None,space,1.5438543000000209,None,0,1,1,1,,,,,3,1,25,7,383.44052509999983,,,,,,,,,,,,,,,,,,,,,383.42463899999984,383.44052509999983,383.92413639999995,383.92928070000016,383.94389009999986,384.52481469999975,,,,,384.52500740000005,384.54033040000013,384.74045579999984,384.7240437999999,383.94389009999986,,,,,,,,0,1,0.565486299999975,None,,,,,,,,817,23,M,R,2026-02-25_11h51.37.865,VisualSearch_2526_3,,2025.2.4,2026-02-25 11h51.38.180311 +0100,
vertical.xlsx,The target is tilted.,135,26,2,3,1,1,1,1,0,0,0,0,0,0,0,0,0,3,4,135,space,7.880906999999752,None,1,1,0.6986127000000124,None,space,1.5438543000000209,None,0,1,1,1,,,,,3,2,26,2,384.74045579999984,,,,,,,,,,,,,,,,,,,,,384.7249834999998,384.74045579999984,385.2239396,385.22851579999997,385.24781269999994,385.95804640000006,,,,,385.95826810000017,385.973152,386.1735531999998,386.1573250000001,385.24781269999994,,,,,,,,1,1,0.6986127000000124,None,,,,,,,,817,23,M,R,2026-02-25_11h51.37.865,VisualSearch_2526_3,,2025.2.4,2026-02-25 11h51.38.180311 +0100,
vertical.xlsx,The target is tilted.,135,27,3,3,1,1,1,1,1,1,1,1,0,0,0,0,0,7,8,135,space,7.880906999999752,None,1,1,0.7104361000001518,None,space,1.5438543000000209,None,0,1,1,1,,,,,3,3,27,1,386.1735531999998,,,,,,,,,,,,,,,,,,,,,386.1580666,386.1735531999998,386.65726859999995,386.66169679999985,386.68060400000013,387.40765999999985,,,,,387.40785019999976,387.42319540000017,387.62334710000005,387.60735680000016,386.68060400000013,,,,,,,,1,1,0.7104361000001518,None,,,,,,,,817,23,M,R,2026-02-25_11h51.37.865,VisualSearch_2526_3,,2025.2.4,2026-02-25 11h51.38.180311 +0100,
vertical.xlsx,The target is tilted.,135,28,4,3,1,1,1,1,1,1,1,1,1,1,1,1,0,11,12,135,space,7.880906999999752,None,1,1,0.927378200000021,None,space,1.5438543000000209,None,0,1,1,1,,,,,3,4,28,0,387.62334710000005,,,,,,,,,,,,,,,,,,,,,387.60825699999987,387.62334710000005,388.10659369999985,388.11136750000014,388.13024319999977,389.07422210000004,,,,,389.07441830000016,389.0896552999998,389.28971809999985,389.27339930000016,388.13024319999977,,,,,,,,1,1,0.927378200000021,None,,,,,,,,817,23,M,R,2026-02-25_11h51.37.865,VisualSearch_2526_3,,2025.2.4,2026-02-25 11h51.38.180311 +0100,
vertical.xlsx,The target is tilted.,135,29,5,3,0,1,1,1,1,1,1,1,0,0,0,0,1,7,8,135,space,7.880906999999752,None,0,1,0.7334048999996412,None,space,1.5438543000000209,None,0,1,1,1,,,,,3,5,29,5,389.28971809999985,,,,,,,,,,,,,,,,,,,,,389.2741452,389.28971809999985,389.7731233999998,389.77582059999986,389.79225640000004,390.5406379000001,,,,,390.5408314000001,390.55621519999977,390.7563328000001,390.74016010000014,389.79225640000004,,,,,,,,0,1,0.7334048999996412,None,,,,,,,,817,23,M,R,2026-02-25_11h51.37.865,VisualSearch_2526_3,,2025.2.4,2026-02-25 11h51.38.180311 +0100,
vertical.xlsx,The target is tilted.,135,30,6,3,1,0,0,0,0,0,0,0,0,0,0,0,0,0,1,135,space,7.880906999999752,None,1,1,0.6153771999997844,None,space,1.5438543000000209,None,0,1,1,1,,,,,3,6,30,3,390.7563328000001,,,,,,,,,,,,,,,,,,,,,390.7409769000001,390.7563328000001,391.2400942999998,391.24505169999975,391.2632279999998,391.8898092999998,,,,,391.88996700000007,391.9058709000001,392.1059786999999,392.08996639999987,391.2632279999998,,,,,,,,1,1,0.6153771999997844,None,,,,,,,,817,23,M,R,2026-02-25_11h51.37.865,VisualSearch_2526_3,,2025.2.4,2026-02-25 11h51.38.180311 +0100,
vertical.xlsx,The target is tilted.,135,31,7,3,0,1,1,1,1,1,1,1,1,1,1,1,1,11,12,135,space,7.880906999999752,None,0,1,1.707612799999879,None,space,1.5438543000000209,None,0,1,1,1,,,,,3,7,31,4,392.1059786999999,,,,,,,,,,,,,,,,,,,,,392.0907695000001,392.1059786999999,392.5899295999998,392.59476319999976,392.61269820000007,394.3225474000001,,,,,394.32270389999985,394.33882730000005,394.53890790000014,394.52237190000005,392.61269820000007,,,,,,,,0,1,1.707612799999879,None,,,,,,,,817,23,M,R,2026-02-25_11h51.37.865,VisualSearch_2526_3,,2025.2.4,2026-02-25 11h51.38.180311 +0100,
vertical.xlsx,The target is tilted.,135,32,0,4,0,0,0,0,0,0,0,0,0,0,0,0,1,1,1,135,space,7.880906999999752,None,0,1,0.8374355000000833,None,space,1.5438543000000209,None,0,1,1,1,,,,,4,0,32,7,394.53890790000014,,,,,,,,,,,,,,,,,,,,,394.5231273999998,394.53890790000014,395.02282430000014,395.0272448999999,395.04003109999985,395.8898015999998,,,,,395.88999550000017,395.90528540000014,396.10499690000006,396.0885880000001,395.04003109999985,,,,,,,,0,1,0.8374355000000833,None,,,,,,,,817,23,M,R,2026-02-25_11h51.37.865,VisualSearch_2526_3,,2025.2.4,2026-02-25 11h51.38.180311 +0100,
vertical.xlsx,The target is tilted.,135,33,1,4,1,1,1,1,1,1,1,1,0,0,0,0,0,7,8,135,space,7.880906999999752,None,1,1,1.00210560000005,None,space,1.5438543000000209,None,0,1,1,1,,,,,4,1,33,1,396.10499690000006,,,,,,,,,,,,,,,,,,,,,396.0890273,396.10499690000006,396.58912610000016,396.59376250000014,396.6063186000001,397.62301019999995,,,,,397.62320569999974,397.6381808000001,397.83822929999997,397.8223269,396.6063186000001,,,,,,,,1,1,1.00210560000005,None,,,,,,,,817,23,M,R,2026-02-25_11h51.37.865,VisualSearch_2526_3,,2025.2.4,2026-02-25 11h51.38.180311 +0100,
vertical.xlsx,The target is tilted.,135,34,2,4,1,1,1,1,0,0,0,0,0,0,0,0,0,3,4,135,space,7.880906999999752,None,1,1,0.7226985999996032,None,space,1.5438543000000209,None,0,1,1,1,,,,,4,2,34,2,397.83822929999997,,,,,,,,,,,,,,,,,,,,,397.82307690000016,397.83822929999997,398.3222473999999,398.32684329999984,398.3461272999998,399.07245139999986,,,,,399.07264499999974,399.08826120000003,399.2881373,399.27221240000017,398.3461272999998,,,,,,,,1,1,0.7226985999996032,None,,,,,,,,817,23,M,R,2026-02-25_11h51.37.865,VisualSearch_2526_3,,2025.2.4,2026-02-25 11h51.38.180311 +0100,
