file_name,block_instructions,target_example,thisN,thisTrialN,thisRepN,target_presence,opacity_1,opacity_2,opacity_3,opacity_4,opacity_5,opacity_6,opacity_7,opacity_8,opacity_9,opacity_10,opacity_11,opacity_12,n_distract,n_items,target_ori,key_resp_4.keys,key_resp_4.rt,key_resp_4.duration,key_resp.keys,key_resp.corr,key_resp.rt,key_resp.duration,key_resp_5.keys,key_resp_5.rt,key_resp_5.duration,blocks.thisRepN,blocks.thisTrialN,blocks.thisN,blocks.thisIndex,practice_trials.thisRepN,practice_trials.thisTrialN,practice_trials.thisN,practice_trials.thisIndex,trials.thisRepN,trials.thisTrialN,trials.thisN,trials.thisIndex,thisRow.t,notes,Welcome.started,WelcomeText.started,key_resp_2.started,Welcome.stopped,key_resp_2.keys,key_resp_2.rt,key_resp_2.duration,InformedConsent.started,text_4.started,InformedConsent.stopped,key_resp_6.keys,key_resp_6.rt,key_resp_6.duration,key_resp_4.started,example_target.started,text_3.started,blocks.key_resp_4.keys,blocks.key_resp_4.rt,blocks.key_resp_4.duration,FixCross.started,fixCross.started,FixCross.stopped,Stimulus.started,key_resp.started,Stimulus.stopped,practice_trials.key_resp.keys,practice_trials.key_resp.corr,practice_trials.key_resp.rt,practice_trials.key_resp.duration,BlankScreen.started,text.started,text.stopped,BlankScreen.stopped,fixCross.stopped,ExperimentStart.started,text_2.started,key_resp_5.started,ExperimentStart.stopped,blocks.key_resp_5.keys,blocks.key_resp_5.rt,blocks.key_resp_5.duration,trials.key_resp.keys,trials.key_resp.corr,trials.key_resp.rt,trials.key_resp.duration,Thanks.started,ThankYou.started,key_resp_3.started,Thanks.stopped,key_resp_3.keys,key_resp_3.rt,key_resp_3.duration,participant,leeftijd,gender,links/rechtshandig,date,expName,expVersion,psychopyVersion,expStart,
,,,,,,,,,,,,,,,,,,,,,,,,,,,,,,,,,,,,,,,,,,,,,,0.03413339999951859,0.04860019999978249,0.04860019999978249,40.65552370000023,space,40.5824118999999,None,,,,,,,,,,,,,,,,,,,,,,,,,,,,,,,,,,,,,,,,,,,,,,818,23,M,L,2026-02-25_12h04.03.136,VisualSearch_2526_3,,2025.2.4,2026-02-25 12h04.03.439501 +0100,
,,,,,,,,,,,,,,,,,,,,,,,,,,,,,,,,,,,,,,,,,,,,,,,,,,,,,40.6556572999998,40.6632810000001,51.6741406000001,y,11.007447299999512,None,,,,,,,,,,,,,,,,,,,,,,,,,,,,,,,,,,,,,,,,818,23,M,L,2026-02-25_12h04.03.136,VisualSearch_2526_3,,2025.2.4,2026-02-25 12h04.03.439501 +0100,
tilted.xlsx,The target is tilted.,117,0,0,0,0,0,0,0,0,0,0,0,0,0,0,0,1,1,1,117,space,5.17974729999969,None,0,1,0.5846382999998241,None,,,,0,0,0,0,0,0,0,7,,,,,56.94335789999968,,,,,,,,,,,,,,,51.71969850000005,51.71969850000005,51.71969850000005,space,5.17974729999969,None,56.93741969999974,56.94335789999968,57.42258479999964,57.427725100000316,57.44668869999987,58.04005469999993,0,1,0.5846382999998241,None,58.04028879999987,58.0555803999996,58.255359699999644,58.23900450000019,,,,,,,,,,,,,,,,,,,,818,23,M,L,2026-02-25_12h04.03.136,VisualSearch_2526_3,,2025.2.4,2026-02-25 12h04.03.439501 +0100,
tilted.xlsx,The target is tilted.,117,1,1,0,0,1,1,1,1,1,1,1,0,0,0,0,1,7,8,117,space,5.17974729999969,None,0,1,2.5838707000002614,None,,,,0,0,0,0,0,1,1,5,,,,,58.255359699999644,,,,,,,,,,,,,,,,,,,,,58.23943119999967,58.255359699999644,58.73853690000033,58.74116640000011,58.75536360000024,61.35589830000026,0,1,2.5838707000002614,None,61.356092799999715,61.371448699999746,61.57115210000029,61.55485399999998,58.75536360000024,,,,,,,,,,,,,,,,,,,818,23,M,L,2026-02-25_12h04.03.136,VisualSearch_2526_3,,2025.2.4,2026-02-25 12h04.03.439501 +0100,
tilted.xlsx,The target is tilted.,117,2,2,0,0,1,1,1,1,1,1,1,1,1,1,1,1,11,12,117,space,5.17974729999969,None,0,1,2.5379093999999895,None,,,,0,0,0,0,0,2,2,4,,,,,61.57115210000029,,,,,,,,,,,,,,,,,,,,,61.55525399999988,61.57115210000029,62.055515600000035,62.06078290000005,62.08034940000016,64.62182099999973,0,1,2.5379093999999895,None,64.6220100999999,64.6375694999997,64.83803259999968,64.82174909999958,62.08034940000016,,,,,,,,,,,,,,,,,,,818,23,M,L,2026-02-25_12h04.03.136,VisualSearch_2526_3,,2025.2.4,2026-02-25 12h04.03.439501 +0100,
tilted.xlsx,The target is tilted.,117,3,3,0,1,1,1,1,1,1,1,1,0,0,0,0,0,7,8,117,space,5.17974729999969,None,1,1,0.9403897000001962,None,,,,0,0,0,0,0,3,3,1,,,,,64.83803259999968,,,,,,,,,,,,,,,,,,,,,64.8224551000003,64.83803259999968,65.32167550000031,65.32632629999989,65.34522899999956,66.28902079999989,1,1,0.9403897000001962,None,66.2892495999995,66.30366179999965,66.50440069999968,66.48823119999997,65.34522899999956,,,,,,,,,,,,,,,,,,,818,23,M,L,2026-02-25_12h04.03.136,VisualSearch_2526_3,,2025.2.4,2026-02-25 12h04.03.439501 +0100,
tilted.xlsx,The target is tilted.,117,4,4,0,1,1,1,1,1,1,1,1,1,1,1,1,0,11,12,117,space,5.17974729999969,None,1,1,1.5803734000000986,None,,,,0,0,0,0,0,4,4,0,,,,,66.50440069999968,,,,,,,,,,,,,,,,,,,,,66.48891430000003,66.50440069999968,66.9877391,66.99231289999989,67.0050457999996,68.58861139999954,1,1,1.5803734000000986,None,68.58882449999965,68.60358840000026,68.80407360000027,68.78789779999988,67.0050457999996,,,,,,,,,,,,,,,,,,,818,23,M,L,2026-02-25_12h04.03.136,VisualSearch_2526_3,,2025.2.4,2026-02-25 12h04.03.439501 +0100,
tilted.xlsx,The target is tilted.,117,5,5,0,1,1,1,1,0,0,0,0,0,0,0,0,0,3,4,117,space,5.17974729999969,None,1,1,0.656035800000609,None,,,,0,0,0,0,0,5,5,2,,,,,68.80407360000027,,,,,,,,,,,,,,,,,,,,,68.78855589999966,68.80407360000027,69.28770340000028,69.29217040000003,69.30378740000015,69.9715285000002,1,1,0.656035800000609,None,69.97171549999985,69.98662609999974,70.18717209999977,70.17095599999993,69.30378740000015,,,,,,,,,,,,,,,,,,,818,23,M,L,2026-02-25_12h04.03.136,VisualSearch_2526_3,,2025.2.4,2026-02-25 12h04.03.439501 +0100,
tilted.xlsx,The target is tilted.,117,6,6,0,1,0,0,0,0,0,0,0,0,0,0,0,0,0,1,117,space,5.17974729999969,None,1,1,0.4748778000002858,None,,,,0,0,0,0,0,6,6,3,,,,,70.18717209999977,,,,,,,,,,,,,,,,,,,,,70.17165180000029,70.18717209999977,70.67086029999973,70.67543719999958,70.69445129999986,71.1713823,1,1,0.4748778000002858,None,71.17157179999958,71.18659469999966,71.38704179999968,71.37070680000033,70.69445129999986,,,,,,,,,,,,,,,,,,,818,23,M,L,2026-02-25_12h04.03.136,VisualSearch_2526_3,,2025.2.4,2026-02-25 12h04.03.439501 +0100,
tilted.xlsx,The target is tilted.,117,7,7,0,0,1,1,1,0,0,0,0,0,0,0,0,1,3,4,117,space,5.17974729999969,None,0,1,0.7452217999998538,None,,,,0,0,0,0,0,7,7,6,,,,,71.38704179999968,,,,,,,,,,,,,,,,,,,,,71.37142409999979,71.38704179999968,71.87073539999983,71.87535920000028,71.89441369999986,72.65442609999991,0,1,0.7452217999998538,None,72.65461820000019,72.66967149999982,72.8698747999997,72.85398280000027,71.89441369999986,,,,,,,,,,,,,,,,,,,818,23,M,L,2026-02-25_12h04.03.136,VisualSearch_2526_3,,2025.2.4,2026-02-25 12h04.03.439501 +0100,
tilted.xlsx,The target is tilted.,117,0,0,0,1,1,1,1,1,1,1,1,1,1,1,1,0,11,12,117,space,5.17974729999969,None,1,1,3.544079499999498,None,space,6.6371196000000054,None,0,0,0,0,,,,,0,0,0,0,79.55800589999944,,,,,,,,,,,,,,,,,,,,,79.55363860000034,79.55800589999944,80.03609489999963,80.04071500000009,80.05960080000023,83.61913410000034,,,,,83.61933990000034,83.63475730000027,83.83537239999987,83.81909379999979,,72.86096249999991,72.8698747999997,72.8698747999997,79.51996020000024,space,6.6371196000000054,None,1,1,3.544079499999498,None,,,,,,,,818,23,M,L,2026-02-25_12h04.03.136,VisualSearch_2526_3,,2025.2.4,2026-02-25 12h04.03.439501 +0100,
tilted.xlsx,The target is tilted.,117,1,1,0,0,1,1,1,1,1,1,1,0,0,0,0,1,7,8,117,space,5.17974729999969,None,0,1,2.9041393999996217,None,space,6.6371196000000054,None,0,0,0,0,,,,,0,1,1,5,83.83537239999987,,,,,,,,,,,,,,,,,,,,,83.81981160000032,83.83537239999987,84.31904459999987,84.32357729999967,84.34272319999945,87.25250320000032,,,,,87.25269620000017,87.26756269999987,87.46805239999958,87.45180879999953,84.34272319999945,,,,,,,,0,1,2.9041393999996217,None,,,,,,,,818,23,M,L,2026-02-25_12h04.03.136,VisualSearch_2526_3,,2025.2.4,2026-02-25 12h04.03.439501 +0100,
tilted.xlsx,The target is tilted.,117,2,2,0,1,0,0,0,0,0,0,0,0,0,0,0,0,0,1,117,space,5.17974729999969,None,1,1,1.0742417999999816,None,space,6.6371196000000054,None,0,0,0,0,,,,,0,2,2,3,87.46805239999958,,,,,,,,,,,,,,,,,,,,,87.45255720000023,87.46805239999958,87.95097470000019,87.95359800000006,87.96769260000019,89.05224949999956,,,,,89.05244279999988,89.06725689999985,89.26782720000028,89.25158999999985,87.96769260000019,,,,,,,,1,1,1.0742417999999816,None,,,,,,,,818,23,M,L,2026-02-25_12h04.03.136,VisualSearch_2526_3,,2025.2.4,2026-02-25 12h04.03.439501 +0100,
tilted.xlsx,The target is tilted.,117,3,3,0,0,0,0,0,0,0,0,0,0,0,0,0,1,1,1,117,space,5.17974729999969,None,0,1,0.6391493999999511,None,space,6.6371196000000054,None,0,0,0,0,,,,,0,3,3,7,89.26782720000028,,,,,,,,,,,,,,,,,,,,,89.25234189999992,89.26782720000028,89.75148699999954,89.75608060000013,89.77506480000011,90.41842519999955,,,,,90.41861830000016,90.43352789999972,90.63428699999986,90.61791129999983,89.77506480000011,,,,,,,,0,1,0.6391493999999511,None,,,,,,,,818,23,M,L,2026-02-25_12h04.03.136,VisualSearch_2526_3,,2025.2.4,2026-02-25 12h04.03.439501 +0100,
tilted.xlsx,The target is tilted.,117,4,4,0,0,1,1,1,0,0,0,0,0,0,0,0,1,3,4,117,space,5.17974729999969,None,0,1,1.331716900000174,None,space,6.6371196000000054,None,0,0,0,0,,,,,0,4,4,6,90.63428699999986,,,,,,,,,,,,,,,,,,,,,90.61866699999973,90.63428699999986,91.11741470000015,91.12005799999952,91.13355169999977,92.46848479999971,,,,,92.46867819999989,92.48352119999981,92.68379469999945,92.6674879000002,91.13355169999977,,,,,,,,0,1,1.331716900000174,None,,,,,,,,818,23,M,L,2026-02-25_12h04.03.136,VisualSearch_2526_3,,2025.2.4,2026-02-25 12h04.03.439501 +0100,
tilted.xlsx,The target is tilted.,117,5,5,0,1,1,1,1,0,0,0,0,0,0,0,0,0,3,4,117,space,5.17974729999969,None,1,1,0.7454112000004898,None,space,6.6371196000000054,None,0,0,0,0,,,,,0,5,5,2,92.68379469999945,,,,,,,,,,,,,,,,,,,,,92.66822870000033,92.68379469999945,93.16786880000018,93.1726821000002,93.19191279999995,93.95092459999978,,,,,93.95114939999985,93.96662939999987,94.16706429999977,94.15089509999962,93.19191279999995,,,,,,,,1,1,0.7454112000004898,None,,,,,,,,818,23,M,L,2026-02-25_12h04.03.136,VisualSearch_2526_3,,2025.2.4,2026-02-25 12h04.03.439501 +0100,
tilted.xlsx,The target is tilted.,117,6,6,0,0,1,1,1,1,1,1,1,1,1,1,1,1,11,12,117,space,5.17974729999969,None,0,1,3.8144468999998935,None,space,6.6371196000000054,None,0,0,0,0,,,,,0,6,6,4,94.16706429999977,,,,,,,,,,,,,,,,,,,,,94.15167839999958,94.16706429999977,94.65080269999999,94.65544460000001,94.66688929999964,98.48432320000029,,,,,98.4845577999995,98.49928360000013,98.6995496999998,98.68318219999946,94.66688929999964,,,,,,,,0,1,3.8144468999998935,None,,,,,,,,818,23,M,L,2026-02-25_12h04.03.136,VisualSearch_2526_3,,2025.2.4,2026-02-25 12h04.03.439501 +0100,
tilted.xlsx,The target is tilted.,117,7,7,0,1,1,1,1,1,1,1,1,0,0,0,0,0,7,8,117,space,5.17974729999969,None,1,1,1.5241845999998986,None,space,6.6371196000000054,None,0,0,0,0,,,,,0,7,7,1,98.6995496999998,,,,,,,,,,,,,,,,,,,,,98.68394199999966,98.6995496999998,99.1836358999999,99.28012149999995,99.28995649999979,100.81738769999993,,,,,100.81759330000023,100.83228959999997,101.03276949999963,101.01683299999968,99.28995649999979,,,,,,,,1,1,1.5241845999998986,None,,,,,,,,818,23,M,L,2026-02-25_12h04.03.136,VisualSearch_2526_3,,2025.2.4,2026-02-25 12h04.03.439501 +0100,
tilted.xlsx,The target is tilted.,117,8,0,1,0,1,1,1,1,1,1,1,1,1,1,1,1,11,12,117,space,5.17974729999969,None,0,1,3.540825400000358,None,space,6.6371196000000054,None,0,0,0,0,,,,,1,0,8,4,101.03276949999963,,,,,,,,,,,,,,,,,,,,,101.01762359999975,101.03276949999963,101.51646299999993,101.5209302000003,101.5392869999996,105.08339749999959,,,,,105.08361669999977,105.09840009999971,105.29888239999946,105.28270280000015,101.5392869999996,,,,,,,,0,1,3.540825400000358,None,,,,,,,,818,23,M,L,2026-02-25_12h04.03.136,VisualSearch_2526_3,,2025.2.4,2026-02-25 12h04.03.439501 +0100,
tilted.xlsx,The target is tilted.,117,9,1,1,0,1,1,1,0,0,0,0,0,0,0,0,1,3,4,117,space,5.17974729999969,None,0,1,0.7874174999997194,None,space,6.6371196000000054,None,0,0,0,0,,,,,1,1,9,6,105.29888239999946,,,,,,,,,,,,,,,,,,,,,105.28342169999996,105.29888239999946,105.78255439999975,105.78724789999978,105.80644209999991,106.59937829999944,,,,,106.59959580000032,106.61452120000013,106.81534569999985,106.79916959999991,105.80644209999991,,,,,,,,0,1,0.7874174999997194,None,,,,,,,,818,23,M,L,2026-02-25_12h04.03.136,VisualSearch_2526_3,,2025.2.4,2026-02-25 12h04.03.439501 +0100,
tilted.xlsx,The target is tilted.,117,10,2,1,1,1,1,1,0,0,0,0,0,0,0,0,0,3,4,117,space,5.17974729999969,None,1,1,0.6815255000001343,None,space,6.6371196000000054,None,0,0,0,0,,,,,1,2,10,2,106.81534569999985,,,,,,,,,,,,,,,,,,,,,106.79987369999981,106.81534569999985,107.29906349999965,107.30369770000016,107.32285849999971,108.01585169999998,,,,,108.01604849999967,108.03126059999977,108.23168329999953,108.21559569999954,107.32285849999971,,,,,,,,1,1,0.6815255000001343,None,,,,,,,,818,23,M,L,2026-02-25_12h04.03.136,VisualSearch_2526_3,,2025.2.4,2026-02-25 12h04.03.439501 +0100,
tilted.xlsx,The target is tilted.,117,11,3,1,1,1,1,1,1,1,1,1,0,0,0,0,0,7,8,117,space,5.17974729999969,None,0,0,1.9995550000003277,None,space,6.6371196000000054,None,0,0,0,0,,,,,1,3,11,1,108.23168329999953,,,,,,,,,,,,,,,,,,,,,108.21637250000003,108.23168329999953,108.71548650000022,108.72012410000025,108.73920129999988,110.74860329999956,,,,,110.74872380000033,110.76398820000031,110.96475339999961,110.94869259999996,108.73920129999988,,,,,,,,0,0,1.9995550000003277,None,,,,,,,,818,23,M,L,2026-02-25_12h04.03.136,VisualSearch_2526_3,,2025.2.4,2026-02-25 12h04.03.439501 +0100,
tilted.xlsx,The target is tilted.,117,12,4,1,0,1,1,1,1,1,1,1,0,0,0,0,1,7,8,117,space,5.17974729999969,None,0,1,2.1782841000003828,None,space,6.6371196000000054,None,0,0,0,0,,,,,1,4,12,5,110.96475339999961,,,,,,,,,,,,,,,,,,,,,110.94950179999978,110.96475339999961,111.44859389999965,111.45371460000024,111.47271459999956,113.66438199999993,,,,,113.66452509999999,113.68029149999984,113.88055629999963,113.86457220000011,111.47271459999956,,,,,,,,0,1,2.1782841000003828,None,,,,,,,,818,23,M,L,2026-02-25_12h04.03.136,VisualSearch_2526_3,,2025.2.4,2026-02-25 12h04.03.439501 +0100,
tilted.xlsx,The target is tilted.,117,13,5,1,1,0,0,0,0,0,0,0,0,0,0,0,0,0,1,117,space,5.17974729999969,None,0,0,0.4557588999996369,None,space,6.6371196000000054,None,0,0,0,0,,,,,1,5,13,3,113.88055629999963,,,,,,,,,,,,,,,,,,,,,113.86529859999973,113.88055629999963,114.36487990000023,114.3697916000001,114.38062879999961,114.8484655000002,,,,,114.84866369999963,114.86339619999944,115.06394100000034,115.04776649999985,114.38062879999961,,,,,,,,0,0,0.4557588999996369,None,,,,,,,,818,23,M,L,2026-02-25_12h04.03.136,VisualSearch_2526_3,,2025.2.4,2026-02-25 12h04.03.439501 +0100,
tilted.xlsx,The target is tilted.,117,14,6,1,0,0,0,0,0,0,0,0,0,0,0,0,1,1,1,117,space,5.17974729999969,None,0,1,0.7729093999996621,None,space,6.6371196000000054,None,0,0,0,0,,,,,1,6,14,7,115.06394100000034,,,,,,,,,,,,,,,,,,,,,115.04848820000007,115.06394100000034,115.54788009999993,115.55246499999976,115.57170140000017,116.34821490000013,,,,,116.3484097999999,116.36322019999989,116.56352489999972,116.54769880000003,115.57170140000017,,,,,,,,0,1,0.7729093999996621,None,,,,,,,,818,23,M,L,2026-02-25_12h04.03.136,VisualSearch_2526_3,,2025.2.4,2026-02-25 12h04.03.439501 +0100,
tilted.xlsx,The target is tilted.,117,15,7,1,1,1,1,1,1,1,1,1,1,1,1,1,0,11,12,117,space,5.17974729999969,None,1,1,1.8974523999995654,None,space,6.6371196000000054,None,0,0,0,0,,,,,1,7,15,0,116.56352489999972,,,,,,,,,,,,,,,,,,,,,116.54847239999981,116.56352489999972,117.0477148,117.05226700000003,117.0720180999997,118.98126169999978,,,,,118.98145620000014,118.9963514000001,119.19676489999983,119.18072829999983,117.0720180999997,,,,,,,,1,1,1.8974523999995654,None,,,,,,,,818,23,M,L,2026-02-25_12h04.03.136,VisualSearch_2526_3,,2025.2.4,2026-02-25 12h04.03.439501 +0100,
tilted.xlsx,The target is tilted.,117,16,0,2,1,1,1,1,1,1,1,1,0,0,0,0,0,7,8,117,space,5.17974729999969,None,1,1,0.6994905000001381,None,space,6.6371196000000054,None,0,0,0,0,,,,,2,0,16,1,119.19676489999983,,,,,,,,,,,,,,,,,,,,,119.18160069999976,119.19676489999983,119.68046820000018,119.68512349999946,119.7046064999995,120.41417649999948,,,,,120.41436760000033,120.42929039999945,120.62981859999945,120.61373889999959,119.7046064999995,,,,,,,,1,1,0.6994905000001381,None,,,,,,,,818,23,M,L,2026-02-25_12h04.03.136,VisualSearch_2526_3,,2025.2.4,2026-02-25 12h04.03.439501 +0100,
tilted.xlsx,The target is tilted.,117,17,1,2,0,1,1,1,1,1,1,1,0,0,0,0,1,7,8,117,space,5.17974729999969,None,0,1,3.2497355000004973,None,space,6.6371196000000054,None,0,0,0,0,,,,,2,1,17,5,120.62981859999945,,,,,,,,,,,,,,,,,,,,,120.61447659999976,120.62981859999945,121.11365070000011,121.11833539999952,121.13725559999966,124.39716839999983,,,,,124.39736290000019,124.41223679999985,124.61266530000012,124.59666099999959,121.13725559999966,,,,,,,,0,1,3.2497355000004973,None,,,,,,,,818,23,M,L,2026-02-25_12h04.03.136,VisualSearch_2526_3,,2025.2.4,2026-02-25 12h04.03.439501 +0100,
tilted.xlsx,The target is tilted.,117,18,2,2,0,1,1,1,0,0,0,0,0,0,0,0,1,3,4,117,space,5.17974729999969,None,0,1,0.7646457999999257,None,space,6.6371196000000054,None,0,0,0,0,,,,,2,2,18,6,124.61266530000012,,,,,,,,,,,,,,,,,,,,,124.59738399999969,124.61266530000012,125.09609670000009,125.10059769999953,125.11937059999946,125.89631920000011,,,,,125.89654289999999,125.91202479999993,126.1122421,126.09628629999952,125.11937059999946,,,,,,,,0,1,0.7646457999999257,None,,,,,,,,818,23,M,L,2026-02-25_12h04.03.136,VisualSearch_2526_3,,2025.2.4,2026-02-25 12h04.03.439501 +0100,
tilted.xlsx,The target is tilted.,117,19,3,2,1,0,0,0,0,0,0,0,0,0,0,0,0,0,1,117,space,5.17974729999969,None,1,1,0.5779566999999588,None,space,6.6371196000000054,None,0,0,0,0,,,,,2,3,19,3,126.1122421,,,,,,,,,,,,,,,,,,,,,126.09707499999968,126.1122421,126.59600789999968,126.59979300000032,126.61231390000012,127.19679449999967,,,,,127.1969896999999,127.21188170000005,127.41236039999967,127.39635029999954,126.61231390000012,,,,,,,,1,1,0.5779566999999588,None,,,,,,,,818,23,M,L,2026-02-25_12h04.03.136,VisualSearch_2526_3,,2025.2.4,2026-02-25 12h04.03.439501 +0100,
tilted.xlsx,The target is tilted.,117,20,4,2,1,1,1,1,0,0,0,0,0,0,0,0,0,3,4,117,space,5.17974729999969,None,1,1,0.6224643000005017,None,space,6.6371196000000054,None,0,0,0,0,,,,,2,4,20,2,127.41236039999967,,,,,,,,,,,,,,,,,,,,,127.39715939999951,127.41236039999967,127.89591680000012,127.90054749999945,127.91958030000023,128.54626839999946,,,,,128.54646330000014,128.56167559999994,128.76218880000033,128.7459461999997,127.91958030000023,,,,,,,,1,1,0.6224643000005017,None,,,,,,,,818,23,M,L,2026-02-25_12h04.03.136,VisualSearch_2526_3,,2025.2.4,2026-02-25 12h04.03.439501 +0100,
tilted.xlsx,The target is tilted.,117,21,5,2,0,1,1,1,1,1,1,1,1,1,1,1,1,11,12,117,space,5.17974729999969,None,0,1,3.9292563999997583,None,space,6.6371196000000054,None,0,0,0,0,,,,,2,5,21,4,128.76218880000033,,,,,,,,,,,,,,,,,,,,,128.74671169999965,128.76218880000033,129.24601100000018,129.2505768000001,129.26994240000022,133.21289350000006,,,,,133.21310819999962,133.2276482999996,133.42806670000027,133.41195619999962,129.26994240000022,,,,,,,,0,1,3.9292563999997583,None,,,,,,,,818,23,M,L,2026-02-25_12h04.03.136,VisualSearch_2526_3,,2025.2.4,2026-02-25 12h04.03.439501 +0100,
tilted.xlsx,The target is tilted.,117,22,6,2,1,1,1,1,1,1,1,1,1,1,1,1,0,11,12,117,space,5.17974729999969,None,0,0,2.9397586000004594,None,space,6.6371196000000054,None,0,0,0,0,,,,,2,6,22,0,133.42806670000027,,,,,,,,,,,,,,,,,,,,,133.4127179999996,133.42806670000027,133.9118225000002,133.91628330000003,133.93449899999996,136.8783824000002,,,,,136.87857449999956,136.89379759999974,137.09429389999968,137.0781447999998,133.93449899999996,,,,,,,,0,0,2.9397586000004594,None,,,,,,,,818,23,M,L,2026-02-25_12h04.03.136,VisualSearch_2526_3,,2025.2.4,2026-02-25 12h04.03.439501 +0100,
tilted.xlsx,The target is tilted.,117,23,7,2,0,0,0,0,0,0,0,0,0,0,0,0,1,1,1,117,space,5.17974729999969,None,0,1,0.6683726000001116,None,space,6.6371196000000054,None,0,0,0,0,,,,,2,7,23,7,137.09429389999968,,,,,,,,,,,,,,,,,,,,,137.07889389999946,137.09429389999968,137.5781035,137.58273069999996,137.6020080999997,138.2784413999998,,,,,138.2786374999996,138.29363920000014,138.4941073,138.47811739999997,137.6020080999997,,,,,,,,0,1,0.6683726000001116,None,,,,,,,,818,23,M,L,2026-02-25_12h04.03.136,VisualSearch_2526_3,,2025.2.4,2026-02-25 12h04.03.439501 +0100,
tilted.xlsx,The target is tilted.,117,24,0,3,0,1,1,1,1,1,1,1,1,1,1,1,1,11,12,117,space,5.17974729999969,None,0,1,3.2051060000003417,None,space,6.6371196000000054,None,0,0,0,0,,,,,3,0,24,4,138.4941073,,,,,,,,,,,,,,,,,,,,,138.47885229999974,138.4941073,138.97784989999946,138.98242449999998,139.0014615,142.21090600000025,,,,,142.21109999999953,142.2263611999997,142.42688429999998,142.4105681000001,139.0014615,,,,,,,,0,1,3.2051060000003417,None,,,,,,,,818,23,M,L,2026-02-25_12h04.03.136,VisualSearch_2526_3,,2025.2.4,2026-02-25 12h04.03.439501 +0100,
tilted.xlsx,The target is tilted.,117,25,1,3,0,0,0,0,0,0,0,0,0,0,0,0,1,1,1,117,space,5.17974729999969,None,0,1,0.5748966000001019,None,space,6.6371196000000054,None,0,0,0,0,,,,,3,1,25,7,142.42688429999998,,,,,,,,,,,,,,,,,,,,,142.41130280000016,142.42688429999998,142.9103600999997,142.9149139000001,142.9339719999998,143.51104459999988,,,,,143.51124329999948,143.52596220000032,143.72667850000016,143.71035239999946,142.9339719999998,,,,,,,,0,1,0.5748966000001019,None,,,,,,,,818,23,M,L,2026-02-25_12h04.03.136,VisualSearch_2526_3,,2025.2.4,2026-02-25 12h04.03.439501 +0100,
tilted.xlsx,The target is tilted.,117,26,2,3,0,1,1,1,0,0,0,0,0,0,0,0,1,3,4,117,space,5.17974729999969,None,0,1,1.1417750000000524,None,space,6.6371196000000054,None,0,0,0,0,,,,,3,2,26,6,143.72667850000016,,,,,,,,,,,,,,,,,,,,,143.7110778999995,143.72667850000016,144.21030410000003,144.21476499999972,144.23302009999952,145.37762550000025,,,,,145.3778524999998,145.39240299999983,145.59309870000016,145.5769551000003,144.23302009999952,,,,,,,,0,1,1.1417750000000524,None,,,,,,,,818,23,M,L,2026-02-25_12h04.03.136,VisualSearch_2526_3,,2025.2.4,2026-02-25 12h04.03.439501 +0100,
tilted.xlsx,The target is tilted.,117,27,3,3,1,1,1,1,1,1,1,1,1,1,1,1,0,11,12,117,space,5.17974729999969,None,1,1,1.6313497999999527,None,space,6.6371196000000054,None,0,0,0,0,,,,,3,3,27,0,145.59309870000016,,,,,,,,,,,,,,,,,,,,,145.57765629999994,145.59309870000016,146.07686879999983,146.08141729999988,146.1003541,147.74265920000016,,,,,147.7427749999997,147.75883179999983,,147.94299880000017,146.1003541,,,,,,,,1,1,1.6313497999999527,None,,,,,,,,818,23,M,L,2026-02-25_12h04.03.136,VisualSearch_2526_3,,2025.2.4,2026-02-25 12h04.03.439501 +0100,
tilted.xlsx,The target is tilted.,117,28,4,3,1,1,1,1,1,1,1,1,0,0,0,0,0,7,8,117,space,5.17974729999969,None,0,0,2.5224966000005224,None,space,6.6371196000000054,None,0,0,0,0,,,,,3,4,28,1,147.9590307999997,,,,,,,,,,,,,,,,,,,,,147.9437514000001,147.9590307999997,148.4430556999996,148.4476880000002,148.45882340000026,150.99330279999958,,,,,150.9934975999995,151.0084552999997,151.20864299999994,151.19272910000018,148.45882340000026,,,,,,,,0,0,2.5224966000005224,None,,,,,,,,818,23,M,L,2026-02-25_12h04.03.136,VisualSearch_2526_3,,2025.2.4,2026-02-25 12h04.03.439501 +0100,
tilted.xlsx,The target is tilted.,117,29,5,3,1,1,1,1,0,0,0,0,0,0,0,0,0,3,4,117,space,5.17974729999969,None,1,1,0.6838439000002836,None,space,6.6371196000000054,None,0,0,0,0,,,,,3,5,29,2,151.20864299999994,,,,,,,,,,,,,,,,,,,,,151.19348660000014,151.20864299999994,151.69272980000005,151.6979639000001,151.71676109999953,152.40985780000028,,,,,152.41005589999986,152.4249362999999,152.62501199999951,152.60924160000013,151.71676109999953,,,,,,,,1,1,0.6838439000002836,None,,,,,,,,818,23,M,L,2026-02-25_12h04.03.136,VisualSearch_2526_3,,2025.2.4,2026-02-25 12h04.03.439501 +0100,
tilted.xlsx,The target is tilted.,117,30,6,3,0,1,1,1,1,1,1,1,0,0,0,0,1,7,8,117,space,5.17974729999969,None,0,1,3.2103274000000965,None,space,6.6371196000000054,None,0,0,0,0,,,,,3,6,30,5,152.62501199999951,,,,,,,,,,,,,,,,,,,,,152.60998349999954,152.62501199999951,153.10911320000014,153.11366869999983,153.1325022000001,156.3581339000002,,,,,156.3582534999996,156.37467190000007,,156.5584816999999,153.1325022000001,,,,,,,,0,1,3.2103274000000965,None,,,,,,,,818,23,M,L,2026-02-25_12h04.03.136,VisualSearch_2526_3,,2025.2.4,2026-02-25 12h04.03.439501 +0100,
tilted.xlsx,The target is tilted.,117,31,7,3,1,0,0,0,0,0,0,0,0,0,0,0,0,0,1,117,space,5.17974729999969,None,1,1,0.5524144999999407,None,space,6.6371196000000054,None,0,0,0,0,,,,,3,7,31,3,156.57445370000005,,,,,,,,,,,,,,,,,,,,,156.55931150000015,156.57445370000005,157.05843129999994,157.06313930000033,157.08212699999967,157.64246159999948,,,,,157.64265559999967,157.65729269999974,157.85778870000013,157.84190599999965,,,,,,,,,1,1,0.5524144999999407,None,,,,,,,,818,23,M,L,2026-02-25_12h04.03.136,VisualSearch_2526_3,,2025.2.4,2026-02-25 12h04.03.439501 +0100,
tilted.xlsx,The target is tilted.,117,32,0,4,0,1,1,1,0,0,0,0,0,0,0,0,1,3,4,117,space,5.17974729999969,None,0,1,1.3291052000004129,None,space,6.6371196000000054,None,0,0,0,0,,,,,4,0,32,6,157.85778870000013,,,,,,,,,,,,,,,,,,,,,157.84262549999949,157.85778870000013,158.3417085000001,158.34645610000007,158.3654816999997,159.70822859999953,,,,,159.70846170000004,159.72391229999994,159.92432720000033,159.90822529999969,158.3654816999997,,,,,,,,0,1,1.3291052000004129,None,,,,,,,,818,23,M,L,2026-02-25_12h04.03.136,VisualSearch_2526_3,,2025.2.4,2026-02-25 12h04.03.439501 +0100,
tilted.xlsx,The target is tilted.,117,33,1,4,1,1,1,1,0,0,0,0,0,0,0,0,0,3,4,117,space,5.17974729999969,None,1,1,0.7282479000004969,None,space,6.6371196000000054,None,0,0,0,0,,,,,4,1,33,2,159.92432720000033,,,,,,,,,,,,,,,,,,,,,159.90895139999975,159.92432720000033,160.40799119999974,160.41257330000008,160.43167259999973,161.1739921999997,,,,,161.17406759999994,161.19067670000004,,161.37445149999985,160.43167259999973,,,,,,,,1,1,0.7282479000004969,None,,,,,,,,818,23,M,L,2026-02-25_12h04.03.136,VisualSearch_2526_3,,2025.2.4,2026-02-25 12h04.03.439501 +0100,
tilted.xlsx,The target is tilted.,117,34,2,4,1,0,0,0,0,0,0,0,0,0,0,0,0,0,1,117,space,5.17974729999969,None,1,1,0.620042900000044,None,space,6.6371196000000054,None,0,0,0,0,,,,,4,2,34,3,161.39073949999965,,,,,,,,,,,,,,,,,,,,,161.3752714000002,161.39073949999965,161.8742390999996,161.87883469999997,161.89775099999952,162.52507689999948,,,,,162.52527509999982,162.54023030000008,162.74059880000004,162.7244725999999,,,,,,,,,1,1,0.620042900000044,None,,,,,,,,818,23,M,L,2026-02-25_12h04.03.136,VisualSearch_2526_3,,2025.2.4,2026-02-25 12h04.03.439501 +0100,
tilted.xlsx,The target is tilted.,117,35,3,4,1,1,1,1,1,1,1,1,1,1,1,1,0,11,12,117,space,5.17974729999969,None,1,1,1.7545115000002625,None,space,6.6371196000000054,None,0,0,0,0,,,,,4,3,35,0,162.74059880000004,,,,,,,,,,,,,,,,,,,,,162.72530110000025,162.74059880000004,163.22406030000002,163.22684769999978,163.24035300000014,165.00747899999988,,,,,165.0076882000003,165.0231315000001,165.22342130000015,165.20737050000025,163.24035300000014,,,,,,,,1,1,1.7545115000002625,None,,,,,,,,818,23,M,L,2026-02-25_12h04.03.136,VisualSearch_2526_3,,2025.2.4,2026-02-25 12h04.03.439501 +0100,
tilted.xlsx,The target is tilted.,117,36,4,4,1,1,1,1,1,1,1,1,0,0,0,0,0,7,8,117,space,5.17974729999969,None,0,0,1.7834835000003295,None,space,6.6371196000000054,None,0,0,0,0,,,,,4,4,36,1,165.22342130000015,,,,,,,,,,,,,,,,,,,,,165.20813269999962,165.22342130000015,165.70733860000018,165.71194680000008,165.73106709999956,167.52435989999958,,,,,167.52455670000018,167.53942459999962,167.7397820999995,167.72367020000002,165.73106709999956,,,,,,,,0,0,1.7834835000003295,None,,,,,,,,818,23,M,L,2026-02-25_12h04.03.136,VisualSearch_2526_3,,2025.2.4,2026-02-25 12h04.03.439501 +0100,
tilted.xlsx,The target is tilted.,117,37,5,4,0,1,1,1,1,1,1,1,1,1,1,1,1,11,12,117,space,5.17974729999969,None,0,1,8.61699039999985,None,space,6.6371196000000054,None,0,0,0,0,,,,,4,5,37,4,167.7397820999995,,,,,,,,,,,,,,,,,,,,,167.72448209999948,167.7397820999995,168.22386430000006,168.2288880999995,168.24770400000034,176.87299789999997,,,,,176.87321809999958,176.88810719999947,177.0887229,177.07260990000032,168.24770400000034,,,,,,,,0,1,8.61699039999985,None,,,,,,,,818,23,M,L,2026-02-25_12h04.03.136,VisualSearch_2526_3,,2025.2.4,2026-02-25 12h04.03.439501 +0100,
tilted.xlsx,The target is tilted.,117,38,6,4,0,1,1,1,1,1,1,1,0,0,0,0,1,7,8,117,space,5.17974729999969,None,0,1,2.087359099999958,None,space,6.6371196000000054,None,0,0,0,0,,,,,4,6,38,5,177.0887229,,,,,,,,,,,,,,,,,,,,,177.0734192,177.0887229,177.57227650000004,177.57705139999962,177.5962884999999,179.68924059999972,,,,,179.6894338000002,179.7044235000003,179.90467290000015,179.8884005,177.5962884999999,,,,,,,,0,1,2.087359099999958,None,,,,,,,,818,23,M,L,2026-02-25_12h04.03.136,VisualSearch_2526_3,,2025.2.4,2026-02-25 12h04.03.439501 +0100,
tilted.xlsx,The target is tilted.,117,39,7,4,0,0,0,0,0,0,0,0,0,0,0,0,1,1,1,117,space,5.17974729999969,None,0,1,0.45267340000009426,None,space,6.6371196000000054,None,0,0,0,0,,,,,4,7,39,7,179.90467290000015,,,,,,,,,,,,,,,,,,,,,179.88912549999986,179.90467290000015,180.38861329999963,180.39314409999952,180.41180910000003,180.87248960000034,,,,,180.87268620000032,180.88754020000033,181.08802980000019,181.07174000000032,180.41180910000003,,,,,,,,0,1,0.45267340000009426,None,,,,,,,,818,23,M,L,2026-02-25_12h04.03.136,VisualSearch_2526_3,,2025.2.4,2026-02-25 12h04.03.439501 +0100,
tilted.xlsx,The target is tilted.,117,40,0,5,0,0,0,0,0,0,0,0,0,0,0,0,1,1,1,117,space,5.17974729999969,None,0,1,0.5376653999992413,None,space,6.6371196000000054,None,0,0,0,0,,,,,5,0,40,7,181.08802980000019,,,,,,,,,,,,,,,,,,,,,181.07258399999955,181.08802980000019,181.57173969999985,181.57635389999996,181.5952596999996,182.13889800000015,,,,,182.13909239999975,182.1540242000001,182.3545527999995,182.33830849999958,181.5952596999996,,,,,,,,0,1,0.5376653999992413,None,,,,,,,,818,23,M,L,2026-02-25_12h04.03.136,VisualSearch_2526_3,,2025.2.4,2026-02-25 12h04.03.439501 +0100,
tilted.xlsx,The target is tilted.,117,41,1,5,0,1,1,1,1,1,1,1,0,0,0,0,1,7,8,117,space,5.17974729999969,None,0,1,2.176926000000094,None,space,6.6371196000000054,None,0,0,0,0,,,,,5,1,41,5,182.3545527999995,,,,,,,,,,,,,,,,,,,,,182.33906449999995,182.3545527999995,182.83821179999995,182.84289669999998,182.86204180000004,185.05461000000014,,,,,185.05485210000006,185.070248,185.27072320000025,185.2546623999997,182.86204180000004,,,,,,,,0,1,2.176926000000094,None,,,,,,,,818,23,M,L,2026-02-25_12h04.03.136,VisualSearch_2526_3,,2025.2.4,2026-02-25 12h04.03.439501 +0100,
tilted.xlsx,The target is tilted.,117,42,2,5,0,1,1,1,0,0,0,0,0,0,0,0,1,3,4,117,space,5.17974729999969,None,0,1,0.8466434000001755,None,space,6.6371196000000054,None,0,0,0,0,,,,,5,2,42,6,185.27072320000025,,,,,,,,,,,,,,,,,,,,,185.25545259999944,185.27072320000025,185.75441989999945,185.75931859999946,185.77831080000033,186.63866549999966,,,,,186.63886679999996,186.6533561999995,186.8538894000003,186.83766089999972,185.77831080000033,,,,,,,,0,1,0.8466434000001755,None,,,,,,,,818,23,M,L,2026-02-25_12h04.03.136,VisualSearch_2526_3,,2025.2.4,2026-02-25 12h04.03.439501 +0100,
tilted.xlsx,The target is tilted.,117,43,3,5,1,0,0,0,0,0,0,0,0,0,0,0,0,0,1,117,space,5.17974729999969,None,1,1,0.5788818999999421,None,space,6.6371196000000054,None,0,0,0,0,,,,,5,3,43,3,186.8538894000003,,,,,,,,,,,,,,,,,,,,,186.83844119999958,186.8538894000003,187.33770319999985,187.3425013999995,187.3613177999996,187.95427800000016,,,,,187.95450859999983,187.96991049999997,188.17028930000015,188.1538413999997,187.3613177999996,,,,,,,,1,1,0.5788818999999421,None,,,,,,,,818,23,M,L,2026-02-25_12h04.03.136,VisualSearch_2526_3,,2025.2.4,2026-02-25 12h04.03.439501 +0100,
tilted.xlsx,The target is tilted.,117,44,4,5,1,1,1,1,0,0,0,0,0,0,0,0,0,3,4,117,space,5.17974729999969,None,1,1,1.137220300000081,None,space,6.6371196000000054,None,0,0,0,0,,,,,5,4,44,2,188.17028930000015,,,,,,,,,,,,,,,,,,,,,188.15437329999986,188.17028930000015,188.65339380000023,188.65600059999997,188.67006820000006,189.82056910000028,,,,,189.8207892999999,189.83626670000012,190.03676970000015,190.02043679999952,188.67006820000006,,,,,,,,1,1,1.137220300000081,None,,,,,,,,818,23,M,L,2026-02-25_12h04.03.136,VisualSearch_2526_3,,2025.2.4,2026-02-25 12h04.03.439501 +0100,
tilted.xlsx,The target is tilted.,117,45,5,5,1,1,1,1,1,1,1,1,1,1,1,1,0,11,12,117,space,5.17974729999969,None,1,1,0.8987686999998914,None,space,6.6371196000000054,None,0,0,0,0,,,,,5,5,45,0,190.03676970000015,,,,,,,,,,,,,,,,,,,,,190.02118950000022,190.03676970000015,190.52053909999995,190.52530789999946,190.5440222999996,191.45432699999947,,,,,191.45452060000025,191.46936170000026,191.66964009999992,191.65365209999982,190.5440222999996,,,,,,,,1,1,0.8987686999998914,None,,,,,,,,818,23,M,L,2026-02-25_12h04.03.136,VisualSearch_2526_3,,2025.2.4,2026-02-25 12h04.03.439501 +0100,
tilted.xlsx,The target is tilted.,117,46,6,5,0,1,1,1,1,1,1,1,1,1,1,1,1,11,12,117,space,5.17974729999969,None,0,1,3.557599900000241,None,space,6.6371196000000054,None,0,0,0,0,,,,,5,6,46,4,191.66964009999992,,,,,,,,,,,,,,,,,,,,,191.6544240000003,191.66964009999992,192.15329969999948,192.15801869999996,192.1774378,195.7370119999996,,,,,195.73720520000006,195.75209939999968,195.95239649999985,195.9363830000002,192.1774378,,,,,,,,0,1,3.557599900000241,None,,,,,,,,818,23,M,L,2026-02-25_12h04.03.136,VisualSearch_2526_3,,2025.2.4,2026-02-25 12h04.03.439501 +0100,
tilted.xlsx,The target is tilted.,117,47,7,5,1,1,1,1,1,1,1,1,0,0,0,0,0,7,8,117,space,5.17974729999969,None,0,0,2.573198400000365,None,space,6.6371196000000054,None,0,0,0,0,,,,,5,7,47,1,195.95239649999985,,,,,,,,,,,,,,,,,,,,,195.93723219999993,195.95239649999985,196.43637279999984,196.44089759999952,196.4596276000002,199.03617639999993,,,,,199.03637139999955,199.0513963000003,199.25207820000014,199.23550989999967,196.4596276000002,,,,,,,,0,0,2.573198400000365,None,,,,,,,,818,23,M,L,2026-02-25_12h04.03.136,VisualSearch_2526_3,,2025.2.4,2026-02-25 12h04.03.439501 +0100,
tilted.xlsx,The target is tilted.,117,48,0,6,1,0,0,0,0,0,0,0,0,0,0,0,0,0,1,117,space,5.17974729999969,None,1,1,0.5208564000004117,None,space,6.6371196000000054,None,0,0,0,0,,,,,6,0,48,3,199.25207820000014,,,,,,,,,,,,,,,,,,,,,199.23623580000003,199.25207820000014,199.73545999999988,199.73999279999953,199.75762419999955,200.28606239999954,,,,,200.28625589999956,200.30151829999977,200.5019302999999,200.4857175999996,199.75762419999955,,,,,,,,1,1,0.5208564000004117,None,,,,,,,,818,23,M,L,2026-02-25_12h04.03.136,VisualSearch_2526_3,,2025.2.4,2026-02-25 12h04.03.439501 +0100,
tilted.xlsx,The target is tilted.,117,49,1,6,1,1,1,1,0,0,0,0,0,0,0,0,0,3,4,117,space,5.17974729999969,None,1,1,0.548591600000691,None,space,6.6371196000000054,None,0,0,0,0,,,,,6,1,49,2,200.5019302999999,,,,,,,,,,,,,,,,,,,,,200.4864932999999,200.5019302999999,200.98584669999946,200.99104549999993,201.01050789999954,201.5695378999999,,,,,201.56973209999978,201.58459369999946,201.78504169999997,201.76897709999957,201.01050789999954,,,,,,,,1,1,0.548591600000691,None,,,,,,,,818,23,M,L,2026-02-25_12h04.03.136,VisualSearch_2526_3,,2025.2.4,2026-02-25 12h04.03.439501 +0100,
tilted.xlsx,The target is tilted.,117,50,2,6,1,1,1,1,1,1,1,1,0,0,0,0,0,7,8,117,space,5.17974729999969,None,1,1,0.8098969999991823,None,space,6.6371196000000054,None,0,0,0,0,,,,,6,2,50,1,201.78504169999997,,,,,,,,,,,,,,,,,,,,,201.76971330000015,201.78504169999997,202.2687195999997,202.27333610000005,202.29224179999983,203.11869419999948,,,,,203.11891399999968,203.13436009999987,203.33488699999998,203.31804420000026,202.29224179999983,,,,,,,,1,1,0.8098969999991823,None,,,,,,,,818,23,M,L,2026-02-25_12h04.03.136,VisualSearch_2526_3,,2025.2.4,2026-02-25 12h04.03.439501 +0100,
tilted.xlsx,The target is tilted.,117,51,3,6,0,1,1,1,1,1,1,1,1,1,1,1,1,11,12,117,space,5.17974729999969,None,0,1,4.71392349999951,None,space,6.6371196000000054,None,0,0,0,0,,,,,6,3,51,4,203.33488699999998,,,,,,,,,,,,,,,,,,,,,203.3185813,203.33488699999998,203.8185500999998,203.8231138000001,203.84219550000034,208.5685180999999,,,,,208.5687122999998,208.58333829999992,208.78390630000013,208.76797569999962,203.84219550000034,,,,,,,,0,1,4.71392349999951,None,,,,,,,,818,23,M,L,2026-02-25_12h04.03.136,VisualSearch_2526_3,,2025.2.4,2026-02-25 12h04.03.439501 +0100,
tilted.xlsx,The target is tilted.,117,52,4,6,0,1,1,1,0,0,0,0,0,0,0,0,1,3,4,117,space,5.17974729999969,None,0,1,0.7529587999997602,None,space,6.6371196000000054,None,0,0,0,0,,,,,6,4,52,6,208.78390630000013,,,,,,,,,,,,,,,,,,,,,208.76870169999984,208.78390630000013,209.2678232999997,209.2723215999995,209.2913413999995,210.05159209999965,,,,,210.05178549999982,210.06671430000006,210.2672093000001,210.25108869999985,209.2913413999995,,,,,,,,0,1,0.7529587999997602,None,,,,,,,,818,23,M,L,2026-02-25_12h04.03.136,VisualSearch_2526_3,,2025.2.4,2026-02-25 12h04.03.439501 +0100,
tilted.xlsx,The target is tilted.,117,53,5,6,0,1,1,1,1,1,1,1,0,0,0,0,1,7,8,117,space,5.17974729999969,None,0,1,2.156307000000197,None,space,6.6371196000000054,None,0,0,0,0,,,,,6,5,53,5,210.2672093000001,,,,,,,,,,,,,,,,,,,,,210.25194620000002,210.2672093000001,210.75080059999982,210.75547740000002,210.7743356000001,212.93421680000029,,,,,212.93440779999946,212.94968030000018,213.14973029999965,213.1337166000003,210.7743356000001,,,,,,,,0,1,2.156307000000197,None,,,,,,,,818,23,M,L,2026-02-25_12h04.03.136,VisualSearch_2526_3,,2025.2.4,2026-02-25 12h04.03.439501 +0100,
tilted.xlsx,The target is tilted.,117,54,6,6,0,0,0,0,0,0,0,0,0,0,0,0,1,1,1,117,space,5.17974729999969,None,0,1,0.5453238999998575,None,space,6.6371196000000054,None,0,0,0,0,,,,,6,6,54,7,213.14973029999965,,,,,,,,,,,,,,,,,,,,,213.13446010000007,213.14973029999965,213.63384419999966,213.6385690999996,213.65741139999955,214.21718090000013,,,,,214.21737759999996,214.23278269999992,214.43327210000007,214.41715909999948,213.65741139999955,,,,,,,,0,1,0.5453238999998575,None,,,,,,,,818,23,M,L,2026-02-25_12h04.03.136,VisualSearch_2526_3,,2025.2.4,2026-02-25 12h04.03.439501 +0100,
tilted.xlsx,The target is tilted.,117,55,7,6,1,1,1,1,1,1,1,1,1,1,1,1,0,11,12,117,space,5.17974729999969,None,1,1,2.7811304000006203,None,space,6.6371196000000054,None,0,0,0,0,,,,,6,7,55,0,214.43327210000007,,,,,,,,,,,,,,,,,,,,,214.4178869999996,214.43327210000007,214.91704389999995,214.92155660000026,214.94061539999984,217.73338890000014,,,,,217.7335936999998,217.74894760000006,217.94917199999963,217.93341189999956,214.94061539999984,,,,,,,,1,1,2.7811304000006203,None,,,,,,,,818,23,M,L,2026-02-25_12h04.03.136,VisualSearch_2526_3,,2025.2.4,2026-02-25 12h04.03.439501 +0100,
tilted.xlsx,The target is tilted.,117,56,0,7,0,1,1,1,0,0,0,0,0,0,0,0,1,3,4,117,space,5.17974729999969,None,0,1,0.7253385000003618,None,space,6.6371196000000054,None,0,0,0,0,,,,,7,0,56,6,217.94917199999963,,,,,,,,,,,,,,,,,,,,,217.9342942000003,217.94917199999963,218.4330404000002,218.43822769999952,218.4565008999998,219.18359210000017,,,,,219.18378529999973,219.19872149999992,219.39905790000012,219.38297799999964,218.4565008999998,,,,,,,,0,1,0.7253385000003618,None,,,,,,,,818,23,M,L,2026-02-25_12h04.03.136,VisualSearch_2526_3,,2025.2.4,2026-02-25 12h04.03.439501 +0100,
tilted.xlsx,The target is tilted.,117,57,1,7,1,1,1,1,0,0,0,0,0,0,0,0,0,3,4,117,space,5.17974729999969,None,0,0,2.458857999999964,None,space,6.6371196000000054,None,0,0,0,0,,,,,7,1,57,2,219.39905790000012,,,,,,,,,,,,,,,,,,,,,219.38371339999958,219.39905790000012,219.88259480000033,219.88587319999988,219.90459379999993,222.36685690000013,,,,,222.3670546000003,222.3814223999998,222.58212509999976,222.56596179999997,219.90459379999993,,,,,,,,0,0,2.458857999999964,None,,,,,,,,818,23,M,L,2026-02-25_12h04.03.136,VisualSearch_2526_3,,2025.2.4,2026-02-25 12h04.03.439501 +0100,
tilted.xlsx,The target is tilted.,117,58,2,7,0,1,1,1,1,1,1,1,1,1,1,1,1,11,12,117,space,5.17974729999969,None,0,1,4.052793400000155,None,space,6.6371196000000054,None,0,0,0,0,,,,,7,2,58,4,222.58212509999976,,,,,,,,,,,,,,,,,,,,,222.5667029999995,222.58212509999976,223.0658685999997,223.07046549999995,223.08937779999997,227.14901180000015,,,,,227.1492121000001,227.16402319999997,227.36477939999986,227.3486028999996,223.08937779999997,,,,,,,,0,1,4.052793400000155,None,,,,,,,,818,23,M,L,2026-02-25_12h04.03.136,VisualSearch_2526_3,,2025.2.4,2026-02-25 12h04.03.439501 +0100,
tilted.xlsx,The target is tilted.,117,59,3,7,1,1,1,1,1,1,1,1,0,0,0,0,0,7,8,117,space,5.17974729999969,None,1,1,2.9079173000000083,None,space,6.6371196000000054,None,0,0,0,0,,,,,7,3,59,1,227.36477939999986,,,,,,,,,,,,,,,,,,,,,227.3493312999999,227.36477939999986,227.84787460000007,227.8504965000002,227.86441769999965,230.78198939999947,,,,,230.78218180000022,230.79713139999967,230.99703539999973,230.9808683000001,227.86441769999965,,,,,,,,1,1,2.9079173000000083,None,,,,,,,,818,23,M,L,2026-02-25_12h04.03.136,VisualSearch_2526_3,,2025.2.4,2026-02-25 12h04.03.439501 +0100,
tilted.xlsx,The target is tilted.,117,60,4,7,0,1,1,1,1,1,1,1,0,0,0,0,1,7,8,117,space,5.17974729999969,None,0,1,2.2439321000001655,None,space,6.6371196000000054,None,0,0,0,0,,,,,7,4,60,5,230.99703539999973,,,,,,,,,,,,,,,,,,,,,230.98124600000028,230.99703539999973,231.4816125999996,231.48708269999952,231.50625519999994,233.7643852000001,,,,,233.76463859999967,233.77998899999966,233.98044339999979,233.9641206999995,231.50625519999994,,,,,,,,0,1,2.2439321000001655,None,,,,,,,,818,23,M,L,2026-02-25_12h04.03.136,VisualSearch_2526_3,,2025.2.4,2026-02-25 12h04.03.439501 +0100,
tilted.xlsx,The target is tilted.,117,61,5,7,0,0,0,0,0,0,0,0,0,0,0,0,1,1,1,117,space,5.17974729999969,None,0,1,0.5535730999999942,None,space,6.6371196000000054,None,0,0,0,0,,,,,7,5,61,7,233.98044339999979,,,,,,,,,,,,,,,,,,,,,233.96492839999974,233.98044339999979,234.4644441999999,234.46960279999985,234.4886974000001,235.048006,,,,,235.04819990000033,235.0631403999996,235.26313289999962,235.24730399999953,234.4886974000001,,,,,,,,0,1,0.5535730999999942,None,,,,,,,,818,23,M,L,2026-02-25_12h04.03.136,VisualSearch_2526_3,,2025.2.4,2026-02-25 12h04.03.439501 +0100,
tilted.xlsx,The target is tilted.,117,62,6,7,1,1,1,1,1,1,1,1,1,1,1,1,0,11,12,117,space,5.17974729999969,None,1,1,3.3891242999998212,None,space,6.6371196000000054,None,0,0,0,0,,,,,7,6,62,0,235.26313289999962,,,,,,,,,,,,,,,,,,,,,235.24812999999995,235.26313289999962,235.74747579999985,235.75280329999987,235.76604359999965,239.16401339999993,,,,,239.1642026999998,239.1790318000003,239.37941150000006,239.36343969999962,235.76604359999965,,,,,,,,1,1,3.3891242999998212,None,,,,,,,,818,23,M,L,2026-02-25_12h04.03.136,VisualSearch_2526_3,,2025.2.4,2026-02-25 12h04.03.439501 +0100,
tilted.xlsx,The target is tilted.,117,63,7,7,1,0,0,0,0,0,0,0,0,0,0,0,0,0,1,117,space,5.17974729999969,None,1,1,0.6695607000001473,None,space,6.6371196000000054,None,0,0,0,0,,,,,7,7,63,3,239.37941150000006,,,,,,,,,,,,,,,,,,,,,239.36419699999988,239.37941150000006,239.86352819999956,239.86794089999967,239.87949109999954,240.5630702999997,,,,,240.56320309999955,240.57886559999952,240.77920059999997,240.76340590000018,239.87949109999954,,,,,,,,1,1,0.6695607000001473,None,,,,,,,,818,23,M,L,2026-02-25_12h04.03.136,VisualSearch_2526_3,,2025.2.4,2026-02-25 12h04.03.439501 +0100,
tilted.xlsx,The target is tilted.,117,64,0,8,0,1,1,1,1,1,1,1,0,0,0,0,1,7,8,117,space,5.17974729999969,None,0,1,3.7677570999994714,None,space,6.6371196000000054,None,0,0,0,0,,,,,8,0,64,5,240.77920059999997,,,,,,,,,,,,,,,,,,,,,240.7641993999996,240.77920059999997,241.26334549999956,241.2679951,241.2867070000002,245.06341090000024,,,,,245.06363880000026,245.07816189999994,245.27846409999984,245.2627338000002,241.2867070000002,,,,,,,,0,1,3.7677570999994714,None,,,,,,,,818,23,M,L,2026-02-25_12h04.03.136,VisualSearch_2526_3,,2025.2.4,2026-02-25 12h04.03.439501 +0100,
tilted.xlsx,The target is tilted.,117,65,1,8,0,1,1,1,0,0,0,0,0,0,0,0,1,3,4,117,space,5.17974729999969,None,0,1,0.8388929000002463,None,space,6.6371196000000054,None,0,0,0,0,,,,,8,1,65,6,245.27846409999984,,,,,,,,,,,,,,,,,,,,,245.26345560000027,245.27846409999984,245.7624440999998,245.76704509999945,245.78690469999947,246.6293880000003,,,,,246.62958939999953,246.64466019999963,246.8451415999998,246.82925019999948,245.78690469999947,,,,,,,,0,1,0.8388929000002463,None,,,,,,,,818,23,M,L,2026-02-25_12h04.03.136,VisualSearch_2526_3,,2025.2.4,2026-02-25 12h04.03.439501 +0100,
tilted.xlsx,The target is tilted.,117,66,2,8,1,1,1,1,0,0,0,0,0,0,0,0,0,3,4,117,space,5.17974729999969,None,1,1,0.7570573000002696,None,space,6.6371196000000054,None,0,0,0,0,,,,,8,2,66,2,246.8451415999998,,,,,,,,,,,,,,,,,,,,,246.83006490000025,246.8451415999998,247.32903449999958,247.33368960000007,247.35248890000003,248.11285140000018,,,,,248.11304370000016,248.12797859999955,248.32845689999976,248.31224969999948,247.35248890000003,,,,,,,,1,1,0.7570573000002696,None,,,,,,,,818,23,M,L,2026-02-25_12h04.03.136,VisualSearch_2526_3,,2025.2.4,2026-02-25 12h04.03.439501 +0100,
tilted.xlsx,The target is tilted.,117,67,3,8,0,1,1,1,1,1,1,1,1,1,1,1,1,11,12,117,space,5.17974729999969,None,0,1,4.694171899999674,None,space,6.6371196000000054,None,0,0,0,0,,,,,8,3,67,4,248.32845689999976,,,,,,,,,,,,,,,,,,,,,248.31300029999966,248.32845689999976,248.8123526999998,248.81739169999946,248.83608619999995,253.5448733000003,,,,,253.54506880000008,253.56045799999993,253.76058889999968,253.744232,248.83608619999995,,,,,,,,0,1,4.694171899999674,None,,,,,,,,818,23,M,L,2026-02-25_12h04.03.136,VisualSearch_2526_3,,2025.2.4,2026-02-25 12h04.03.439501 +0100,
tilted.xlsx,The target is tilted.,117,68,4,8,1,0,0,0,0,0,0,0,0,0,0,0,0,0,1,117,space,5.17974729999969,None,1,1,0.5039535000005344,None,space,6.6371196000000054,None,0,0,0,0,,,,,8,4,68,3,253.76058889999968,,,,,,,,,,,,,,,,,,,,,253.74467730000015,253.76058889999968,254.2444489999998,254.24903339999946,254.26793780000025,254.77846390000013,,,,,254.77865509999992,254.79379569999946,254.99384959999952,254.97794539999995,254.26793780000025,,,,,,,,1,1,0.5039535000005344,None,,,,,,,,818,23,M,L,2026-02-25_12h04.03.136,VisualSearch_2526_3,,2025.2.4,2026-02-25 12h04.03.439501 +0100,
tilted.xlsx,The target is tilted.,117,69,5,8,1,1,1,1,1,1,1,1,0,0,0,0,0,7,8,117,space,5.17974729999969,None,1,1,1.4470685999995112,None,space,6.6371196000000054,None,0,0,0,0,,,,,8,5,69,1,254.99384959999952,,,,,,,,,,,,,,,,,,,,,254.9787108999999,254.99384959999952,255.4780012000001,255.48248849999982,255.50133519999963,256.9606678,,,,,256.9607995999995,256.9765312999998,257.17705099999966,257.1608997000003,255.50133519999963,,,,,,,,1,1,1.4470685999995112,None,,,,,,,,818,23,M,L,2026-02-25_12h04.03.136,VisualSearch_2526_3,,2025.2.4,2026-02-25 12h04.03.439501 +0100,
tilted.xlsx,The target is tilted.,117,70,6,8,0,0,0,0,0,0,0,0,0,0,0,0,1,1,1,117,space,5.17974729999969,None,0,1,0.5351418999998714,None,space,6.6371196000000054,None,0,0,0,0,,,,,8,6,70,7,257.17705099999966,,,,,,,,,,,,,,,,,,,,,257.1616336999996,257.17705099999966,257.6609116999998,257.66534559999945,257.6833472999997,258.22806219999984,,,,,258.22826259999965,258.2432401999995,258.4437261000003,258.4276111999998,257.6833472999997,,,,,,,,0,1,0.5351418999998714,None,,,,,,,,818,23,M,L,2026-02-25_12h04.03.136,VisualSearch_2526_3,,2025.2.4,2026-02-25 12h04.03.439501 +0100,
tilted.xlsx,The target is tilted.,117,71,7,8,1,1,1,1,1,1,1,1,1,1,1,1,0,11,12,117,space,5.17974729999969,None,1,1,4.179397699999754,None,space,6.6371196000000054,None,0,0,0,0,,,,,8,7,71,0,258.4437261000003,,,,,,,,,,,,,,,,,,,,,258.42843559999983,258.4437261000003,258.92750090000027,258.9318407999999,258.95036079999954,263.14344470000015,,,,,263.14366040000004,263.1590983999995,263.35942350000005,263.3433869999999,258.95036079999954,,,,,,,,1,1,4.179397699999754,None,,,,,,,,818,23,M,L,2026-02-25_12h04.03.136,VisualSearch_2526_3,,2025.2.4,2026-02-25 12h04.03.439501 +0100,
tilted.xlsx,The target is tilted.,117,72,0,9,0,0,0,0,0,0,0,0,0,0,0,0,1,1,1,117,space,5.17974729999969,None,0,1,0.6011952999997447,None,space,6.6371196000000054,None,0,0,0,0,,,,,9,0,72,7,263.35942350000005,,,,,,,,,,,,,,,,,,,,,263.34413459999996,263.35942350000005,263.84266690000004,263.8452078,263.85900200000015,264.47666000000027,,,,,264.47685189999993,264.49227429999974,264.6927667,264.6765925999998,263.85900200000015,,,,,,,,0,1,0.6011952999997447,None,,,,,,,,818,23,M,L,2026-02-25_12h04.03.136,VisualSearch_2526_3,,2025.2.4,2026-02-25 12h04.03.439501 +0100,
tilted.xlsx,The target is tilted.,117,73,1,9,0,1,1,1,1,1,1,1,1,1,1,1,1,11,12,117,space,5.17974729999969,None,0,1,7.830227200000081,None,space,6.6371196000000054,None,0,0,0,0,,,,,9,1,73,4,264.6927667,,,,,,,,,,,,,,,,,,,,,264.67732909999995,264.6927667,265.1765230000001,265.1816177999999,265.2003345000003,273.0424069999999,,,,,273.04259529999945,273.05777339999986,273.25819859999956,273.24193360000027,265.2003345000003,,,,,,,,0,1,7.830227200000081,None,,,,,,,,818,23,M,L,2026-02-25_12h04.03.136,VisualSearch_2526_3,,2025.2.4,2026-02-25 12h04.03.439501 +0100,
tilted.xlsx,The target is tilted.,117,74,2,9,1,1,1,1,0,0,0,0,0,0,0,0,0,3,4,117,space,5.17974729999969,None,1,1,0.8656401999996888,None,space,6.6371196000000054,None,0,0,0,0,,,,,9,2,74,2,273.25819859999956,,,,,,,,,,,,,,,,,,,,,273.24269449999974,273.25819859999956,273.7418703000003,273.7463054,273.7579684000002,274.62575769999967,,,,,274.6259449999998,274.6408388,274.8411193000002,274.8251602999999,273.7579684000002,,,,,,,,1,1,0.8656401999996888,None,,,,,,,,818,23,M,L,2026-02-25_12h04.03.136,VisualSearch_2526_3,,2025.2.4,2026-02-25 12h04.03.439501 +0100,
tilted.xlsx,The target is tilted.,117,75,3,9,1,1,1,1,1,1,1,1,0,0,0,0,0,7,8,117,space,5.17974729999969,None,1,1,1.2232081000001926,None,space,6.6371196000000054,None,0,0,0,0,,,,,9,3,75,1,274.8411193000002,,,,,,,,,,,,,,,,,,,,,274.8258992000001,274.8411193000002,275.32501760000014,275.3295460999998,275.34896149999986,276.57533220000005,,,,,276.57552380000016,276.5903324000001,276.79095979999965,276.7749695000002,275.34896149999986,,,,,,,,1,1,1.2232081000001926,None,,,,,,,,818,23,M,L,2026-02-25_12h04.03.136,VisualSearch_2526_3,,2025.2.4,2026-02-25 12h04.03.439501 +0100,
tilted.xlsx,The target is tilted.,117,76,4,9,1,0,0,0,0,0,0,0,0,0,0,0,0,0,1,117,space,5.17974729999969,None,1,1,0.7604811000001064,None,space,6.6371196000000054,None,0,0,0,0,,,,,9,4,76,3,276.79095979999965,,,,,,,,,,,,,,,,,,,,,276.7758011999995,276.79095979999965,277.2749152999995,277.2792325999999,277.29728309999973,278.0747070999996,,,,,278.07489689999966,278.09034900000006,278.29076299999997,278.2747215999998,277.29728309999973,,,,,,,,1,1,0.7604811000001064,None,,,,,,,,818,23,M,L,2026-02-25_12h04.03.136,VisualSearch_2526_3,,2025.2.4,2026-02-25 12h04.03.439501 +0100,
tilted.xlsx,The target is tilted.,117,77,5,9,0,1,1,1,0,0,0,0,0,0,0,0,1,3,4,117,space,5.17974729999969,None,0,1,1.1900184000005538,None,space,6.6371196000000054,None,0,0,0,0,,,,,9,5,77,6,278.29076299999997,,,,,,,,,,,,,,,,,,,,,278.27541850000034,278.29076299999997,278.7746092999996,278.77911049999966,278.7978627000002,279.9912740999998,,,,,279.9914632,280.0067385000002,280.20719569999983,280.1912788999998,278.7978627000002,,,,,,,,0,1,1.1900184000005538,None,,,,,,,,818,23,M,L,2026-02-25_12h04.03.136,VisualSearch_2526_3,,2025.2.4,2026-02-25 12h04.03.439501 +0100,
tilted.xlsx,The target is tilted.,117,78,6,9,1,1,1,1,1,1,1,1,1,1,1,1,0,11,12,117,space,5.17974729999969,None,1,1,1.9165376000000833,None,space,6.6371196000000054,None,0,0,0,0,,,,,9,6,78,0,280.20719569999983,,,,,,,,,,,,,,,,,,,,,280.1919683999995,280.20719569999983,280.69091879999996,280.6954189999997,280.7149343000001,282.6412456999997,,,,,282.64143559999957,282.6563551999998,282.8568022999998,282.84052969999993,280.7149343000001,,,,,,,,1,1,1.9165376000000833,None,,,,,,,,818,23,M,L,2026-02-25_12h04.03.136,VisualSearch_2526_3,,2025.2.4,2026-02-25 12h04.03.439501 +0100,
tilted.xlsx,The target is tilted.,117,79,7,9,0,1,1,1,1,1,1,1,0,0,0,0,1,7,8,117,space,5.17974729999969,None,0,1,4.403331900000012,None,space,6.6371196000000054,None,0,0,0,0,,,,,9,7,79,5,282.8568022999998,,,,,,,,,,,,,,,,,,,,,282.8412767,282.8568022999998,283.34027830000014,283.3447774999995,283.36360950000017,287.7740493000001,,,,,287.77426579999974,287.78893400000015,287.98903299999984,287.9736340999998,283.36360950000017,,,,,,,,0,1,4.403331900000012,None,,,,,,,,818,23,M,L,2026-02-25_12h04.03.136,VisualSearch_2526_3,,2025.2.4,2026-02-25 12h04.03.439501 +0100,
tilted.xlsx,The target is tilted.,117,80,0,10,0,0,0,0,0,0,0,0,0,0,0,0,1,1,1,117,space,5.17974729999969,None,0,1,0.6129579000007652,None,space,6.6371196000000054,None,0,0,0,0,,,,,10,0,80,7,287.98903299999984,,,,,,,,,,,,,,,,,,,,,287.9743939,287.98903299999984,288.4733989999995,288.4784067999999,288.4963663999997,289.12240569999994,,,,,289.1225194999997,289.1389958,289.33889069999987,289.32266340000024,288.4963663999997,,,,,,,,0,1,0.6129579000007652,None,,,,,,,,818,23,M,L,2026-02-25_12h04.03.136,VisualSearch_2526_3,,2025.2.4,2026-02-25 12h04.03.439501 +0100,
tilted.xlsx,The target is tilted.,117,81,1,10,1,1,1,1,0,0,0,0,0,0,0,0,0,3,4,117,space,5.17974729999969,None,1,1,0.7697064000003593,None,space,6.6371196000000054,None,0,0,0,0,,,,,10,1,81,2,289.33889069999987,,,,,,,,,,,,,,,,,,,,,289.32313030000023,289.33889069999987,289.8228546999999,289.82811429999947,289.84072279999964,290.62284759999966,,,,,290.6230703000001,290.6385349000002,290.8391177000003,290.82282380000015,,,,,,,,,1,1,0.7697064000003593,None,,,,,,,,818,23,M,L,2026-02-25_12h04.03.136,VisualSearch_2526_3,,2025.2.4,2026-02-25 12h04.03.439501 +0100,
tilted.xlsx,The target is tilted.,117,82,2,10,1,1,1,1,1,1,1,1,0,0,0,0,0,7,8,117,space,5.17974729999969,None,1,1,0.8267678000001979,None,space,6.6371196000000054,None,0,0,0,0,,,,,10,2,82,1,290.8391177000003,,,,,,,,,,,,,,,,,,,,,290.8235787000003,290.8391177000003,291.3223089000003,291.3267581,291.3417717000002,292.17297450000024,,,,,292.1731645,292.1883834999999,292.3887391999997,292.37265060000027,291.3417717000002,,,,,,,,1,1,0.8267678000001979,None,,,,,,,,818,23,M,L,2026-02-25_12h04.03.136,VisualSearch_2526_3,,2025.2.4,2026-02-25 12h04.03.439501 +0100,
tilted.xlsx,The target is tilted.,117,83,3,10,1,1,1,1,1,1,1,1,1,1,1,1,0,11,12,117,space,5.17974729999969,None,1,1,1.0878413000000364,None,space,6.6371196000000054,None,0,0,0,0,,,,,10,3,83,0,292.3887391999997,,,,,,,,,,,,,,,,,,,,,292.3733629999997,292.3887391999997,292.87254889999986,292.87708849999945,292.89568450000024,293.9895397,,,,,293.98972950000007,294.00471670000024,294.20524149999983,294.1891273000001,292.89568450000024,,,,,,,,1,1,1.0878413000000364,None,,,,,,,,818,23,M,L,2026-02-25_12h04.03.136,VisualSearch_2526_3,,2025.2.4,2026-02-25 12h04.03.439501 +0100,
tilted.xlsx,The target is tilted.,117,84,4,10,0,1,1,1,0,0,0,0,0,0,0,0,1,3,4,117,space,5.17974729999969,None,0,1,1.9775227999998606,None,space,6.6371196000000054,None,0,0,0,0,,,,,10,4,84,6,294.20524149999983,,,,,,,,,,,,,,,,,,,,,294.18982460000007,294.20524149999983,294.68904610000027,294.6928436999997,294.70476150000013,296.6892883999999,,,,,296.68947949999983,296.7044826000001,296.90477649999957,296.88866659999985,294.70476150000013,,,,,,,,0,1,1.9775227999998606,None,,,,,,,,818,23,M,L,2026-02-25_12h04.03.136,VisualSearch_2526_3,,2025.2.4,2026-02-25 12h04.03.439501 +0100,
tilted.xlsx,The target is tilted.,117,85,5,10,1,0,0,0,0,0,0,0,0,0,0,0,0,0,1,117,space,5.17974729999969,None,1,1,0.6048941999997623,None,space,6.6371196000000054,None,0,0,0,0,,,,,10,5,85,3,296.90477649999957,,,,,,,,,,,,,,,,,,,,,296.8893962000002,296.90477649999957,297.38862599999993,297.39318430000003,297.4120197000002,298.02237849999983,,,,,298.0225682999999,298.03809699999965,298.2379854999999,298.22176539999964,297.4120197000002,,,,,,,,1,1,0.6048941999997623,None,,,,,,,,818,23,M,L,2026-02-25_12h04.03.136,VisualSearch_2526_3,,2025.2.4,2026-02-25 12h04.03.439501 +0100,
tilted.xlsx,The target is tilted.,117,86,6,10,0,1,1,1,1,1,1,1,1,1,1,1,1,11,12,117,space,5.17974729999969,None,0,1,3.234969699999965,None,space,6.6371196000000054,None,0,0,0,0,,,,,10,6,86,4,298.2379854999999,,,,,,,,,,,,,,,,,,,,,298.22252169999956,298.2379854999999,298.72140109999964,298.7258947999999,298.74460089999957,301.9886532999999,,,,,301.9888503000002,302.0040105999997,302.20412789999955,302.18798030000016,298.74460089999957,,,,,,,,0,1,3.234969699999965,None,,,,,,,,818,23,M,L,2026-02-25_12h04.03.136,VisualSearch_2526_3,,2025.2.4,2026-02-25 12h04.03.439501 +0100,
tilted.xlsx,The target is tilted.,117,87,7,10,0,1,1,1,1,1,1,1,0,0,0,0,1,7,8,117,space,5.17974729999969,None,0,1,2.7189908000000287,None,space,6.6371196000000054,None,0,0,0,0,,,,,10,7,87,5,302.20412789999955,,,,,,,,,,,,,,,,,,,,,302.1886961,302.20412789999955,302.6879133000002,302.69242209999993,302.7118537999995,305.43801189999976,,,,,305.43819879999955,305.45324400000027,305.6536248000002,305.63745629999994,302.7118537999995,,,,,,,,0,1,2.7189908000000287,None,,,,,,,,818,23,M,L,2026-02-25_12h04.03.136,VisualSearch_2526_3,,2025.2.4,2026-02-25 12h04.03.439501 +0100,
tilted.xlsx,The target is tilted.,117,88,0,11,1,1,1,1,1,1,1,1,1,1,1,1,0,11,12,117,space,5.17974729999969,None,1,1,0.8176054000005024,None,space,6.6371196000000054,None,0,0,0,0,,,,,11,0,88,0,305.6536248000002,,,,,,,,,,,,,,,,,,,,,305.63817259999996,305.6536248000002,306.13718900000003,306.1419625999997,306.16083770000023,306.9877416999998,,,,,306.98792909999975,307.0033330999995,307.20337070000005,307.18719280000005,306.16083770000023,,,,,,,,1,1,0.8176054000005024,None,,,,,,,,818,23,M,L,2026-02-25_12h04.03.136,VisualSearch_2526_3,,2025.2.4,2026-02-25 12h04.03.439501 +0100,
tilted.xlsx,The target is tilted.,117,89,1,11,0,0,0,0,0,0,0,0,0,0,0,0,1,1,1,117,space,5.17974729999969,None,0,1,0.5618696999999884,None,space,6.6371196000000054,None,0,0,0,0,,,,,11,1,89,7,307.20337070000005,,,,,,,,,,,,,,,,,,,,,307.1879841,307.20337070000005,307.68683450000026,307.6903949999996,307.7031433000002,308.27092079999966,,,,,308.27111009999953,308.2861501999996,308.4865541999998,308.4702828999998,307.7031433000002,,,,,,,,0,1,0.5618696999999884,None,,,,,,,,818,23,M,L,2026-02-25_12h04.03.136,VisualSearch_2526_3,,2025.2.4,2026-02-25 12h04.03.439501 +0100,
tilted.xlsx,The target is tilted.,117,90,2,11,1,1,1,1,0,0,0,0,0,0,0,0,0,3,4,117,space,5.17974729999969,None,0,0,1.0592436999995698,None,space,6.6371196000000054,None,0,0,0,0,,,,,11,2,90,2,308.4865541999998,,,,,,,,,,,,,,,,,,,,,308.47103139999945,308.4865541999998,308.96996729999955,308.9743771000003,308.98615169999994,310.05402630000026,,,,,310.0542153999995,310.06922940000004,310.2689376999997,310.25247859999945,308.98615169999994,,,,,,,,0,0,1.0592436999995698,None,,,,,,,,818,23,M,L,2026-02-25_12h04.03.136,VisualSearch_2526_3,,2025.2.4,2026-02-25 12h04.03.439501 +0100,
tilted.xlsx,The target is tilted.,117,91,3,11,0,1,1,1,1,1,1,1,1,1,1,1,1,11,12,117,space,5.17974729999969,None,0,1,5.407123799999681,None,space,6.6371196000000054,None,0,0,0,0,,,,,11,3,91,4,310.2689376999997,,,,,,,,,,,,,,,,,,,,,310.25294049999957,310.2689376999997,310.7530141999996,310.7575260000003,310.7761746999995,316.18659469999966,,,,,316.18682100000024,316.2020081999999,316.40175180000006,316.3854570000003,310.7761746999995,,,,,,,,0,1,5.407123799999681,None,,,,,,,,818,23,M,L,2026-02-25_12h04.03.136,VisualSearch_2526_3,,2025.2.4,2026-02-25 12h04.03.439501 +0100,
tilted.xlsx,The target is tilted.,117,92,4,11,0,1,1,1,1,1,1,1,0,0,0,0,1,7,8,117,space,5.17974729999969,None,0,1,3.378847300000416,None,space,6.6371196000000054,None,0,0,0,0,,,,,11,4,92,5,316.40175180000006,,,,,,,,,,,,,,,,,,,,,316.3861802000001,316.40175180000006,316.88543130000016,316.89013739999973,316.90721870000016,320.30253410000023,,,,,320.3027251000003,320.31810810000025,320.5179313999997,320.50214679999954,316.90721870000016,,,,,,,,0,1,3.378847300000416,None,,,,,,,,818,23,M,L,2026-02-25_12h04.03.136,VisualSearch_2526_3,,2025.2.4,2026-02-25 12h04.03.439501 +0100,
tilted.xlsx,The target is tilted.,117,93,5,11,1,0,0,0,0,0,0,0,0,0,0,0,0,0,1,117,space,5.17974729999969,None,1,1,0.5404444000005242,None,space,6.6371196000000054,None,0,0,0,0,,,,,11,5,93,3,320.5179313999997,,,,,,,,,,,,,,,,,,,,,320.50294920000033,320.5179313999997,321.0019149,321.0066549000003,321.0253125999998,321.5687544000002,,,,,321.5689413,321.5845767999999,321.78459529999964,321.7684055,321.0253125999998,,,,,,,,1,1,0.5404444000005242,None,,,,,,,,818,23,M,L,2026-02-25_12h04.03.136,VisualSearch_2526_3,,2025.2.4,2026-02-25 12h04.03.439501 +0100,
tilted.xlsx,The target is tilted.,117,94,6,11,0,1,1,1,0,0,0,0,0,0,0,0,1,3,4,117,space,5.17974729999969,None,0,1,0.8981691999997565,None,space,6.6371196000000054,None,0,0,0,0,,,,,11,6,94,6,321.78459529999964,,,,,,,,,,,,,,,,,,,,,321.7691600999997,321.78459529999964,322.2684597999996,322.2730682000001,322.29178299999967,323.20209460000024,,,,,323.20228339999994,323.21745180000016,323.41756069999974,323.40188130000024,322.29178299999967,,,,,,,,0,1,0.8981691999997565,None,,,,,,,,818,23,M,L,2026-02-25_12h04.03.136,VisualSearch_2526_3,,2025.2.4,2026-02-25 12h04.03.439501 +0100,
tilted.xlsx,The target is tilted.,117,95,7,11,1,1,1,1,1,1,1,1,0,0,0,0,0,7,8,117,space,5.17974729999969,None,1,1,2.994461800000863,None,space,6.6371196000000054,None,0,0,0,0,,,,,11,7,95,1,323.41756069999974,,,,,,,,,,,,,,,,,,,,,323.4025736000003,323.41756069999974,323.90118359999997,323.9059305999999,323.9246942,326.9349616999998,,,,,326.93515209999987,326.9504882000001,327.1504732000003,327.1344945999999,323.9246942,,,,,,,,1,1,2.994461800000863,None,,,,,,,,818,23,M,L,2026-02-25_12h04.03.136,VisualSearch_2526_3,,2025.2.4,2026-02-25 12h04.03.439501 +0100,
tilted.xlsx,The target is tilted.,117,96,0,12,0,0,0,0,0,0,0,0,0,0,0,0,1,1,1,117,space,5.17974729999969,None,0,1,0.5808342999998786,None,space,6.6371196000000054,None,0,0,0,0,,,,,12,0,96,7,327.1504732000003,,,,,,,,,,,,,,,,,,,,,327.13532529999975,327.1504732000003,327.6342530000002,327.63902899999994,327.6575793000002,328.2514314,,,,,328.25161899999966,328.26695459999974,328.4667073999999,328.45095260000016,327.6575793000002,,,,,,,,0,1,0.5808342999998786,None,,,,,,,,818,23,M,L,2026-02-25_12h04.03.136,VisualSearch_2526_3,,2025.2.4,2026-02-25 12h04.03.439501 +0100,
tilted.xlsx,The target is tilted.,117,97,1,12,0,1,1,1,0,0,0,0,0,0,0,0,1,3,4,117,space,5.17974729999969,None,0,1,0.7739455000000817,None,space,6.6371196000000054,None,0,0,0,0,,,,,12,1,97,6,328.4667073999999,,,,,,,,,,,,,,,,,,,,,328.4517608999995,328.4667073999999,328.9507931999997,328.9556494999997,328.97347809999974,329.7508773999998,,,,,329.75108629999977,329.76674449999973,329.96685720000005,329.95101330000034,328.97347809999974,,,,,,,,0,1,0.7739455000000817,None,,,,,,,,818,23,M,L,2026-02-25_12h04.03.136,VisualSearch_2526_3,,2025.2.4,2026-02-25 12h04.03.439501 +0100,
tilted.xlsx,The target is tilted.,117,98,2,12,0,1,1,1,1,1,1,1,1,1,1,1,1,11,12,117,space,5.17974729999969,None,0,1,4.045443900000464,None,space,6.6371196000000054,None,0,0,0,0,,,,,12,2,98,4,329.96685720000005,,,,,,,,,,,,,,,,,,,,,329.95183240000006,329.96685720000005,330.45024360000025,330.45495200000005,330.47413869999946,334.53386299999966,,,,,334.534052,334.54907660000026,334.7492161,334.7334553999999,330.47413869999946,,,,,,,,0,1,4.045443900000464,None,,,,,,,,818,23,M,L,2026-02-25_12h04.03.136,VisualSearch_2526_3,,2025.2.4,2026-02-25 12h04.03.439501 +0100,
tilted.xlsx,The target is tilted.,117,99,3,12,1,1,1,1,1,1,1,1,0,0,0,0,0,7,8,117,space,5.17974729999969,None,1,1,2.001100800000131,None,space,6.6371196000000054,None,0,0,0,0,,,,,12,3,99,1,334.7492161,,,,,,,,,,,,,,,,,,,,,334.7342843999995,334.7492161,335.23240579999947,335.23406840000007,335.2487562999995,337.26677070000005,,,,,337.2669636999999,337.2824273999995,337.4821591,337.4663553999999,335.2487562999995,,,,,,,,1,1,2.001100800000131,None,,,,,,,,818,23,M,L,2026-02-25_12h04.03.136,VisualSearch_2526_3,,2025.2.4,2026-02-25 12h04.03.439501 +0100,
tilted.xlsx,The target is tilted.,117,100,4,12,1,1,1,1,1,1,1,1,1,1,1,1,0,11,12,117,space,5.17974729999969,None,1,1,3.7762712000003376,None,space,6.6371196000000054,None,0,0,0,0,,,,,12,4,100,0,337.4821591,,,,,,,,,,,,,,,,,,,,,337.4671591999995,337.4821591,337.9663324000003,337.9715021000002,337.9913273000002,341.7828348000003,,,,,341.7830260999999,341.7983568999998,341.9985655999999,341.9824434000002,337.9913273000002,,,,,,,,1,1,3.7762712000003376,None,,,,,,,,818,23,M,L,2026-02-25_12h04.03.136,VisualSearch_2526_3,,2025.2.4,2026-02-25 12h04.03.439501 +0100,
tilted.xlsx,The target is tilted.,117,101,5,12,0,1,1,1,1,1,1,1,0,0,0,0,1,7,8,117,space,5.17974729999969,None,0,1,3.670611999999892,None,space,6.6371196000000054,None,0,0,0,0,,,,,12,5,101,5,341.9985655999999,,,,,,,,,,,,,,,,,,,,,341.9832362999996,341.9985655999999,342.48213899999973,342.48773939999955,342.5063490000002,346.18209490000027,,,,,346.1822849,346.1976255999998,346.3972133999996,346.3817541999997,342.5063490000002,,,,,,,,0,1,3.670611999999892,None,,,,,,,,818,23,M,L,2026-02-25_12h04.03.136,VisualSearch_2526_3,,2025.2.4,2026-02-25 12h04.03.439501 +0100,
tilted.xlsx,The target is tilted.,117,102,6,12,1,0,0,0,0,0,0,0,0,0,0,0,0,0,1,117,space,5.17974729999969,None,1,1,0.6692770999998174,None,space,6.6371196000000054,None,0,0,0,0,,,,,12,6,102,3,346.3972133999996,,,,,,,,,,,,,,,,,,,,,346.38255169999957,346.3972133999996,346.88151949999974,346.88617499999964,346.90551309999955,347.58193010000014,,,,,347.5821176999998,347.59730539999964,347.7976110999998,347.78137659999993,346.90551309999955,,,,,,,,1,1,0.6692770999998174,None,,,,,,,,818,23,M,L,2026-02-25_12h04.03.136,VisualSearch_2526_3,,2025.2.4,2026-02-25 12h04.03.439501 +0100,
tilted.xlsx,The target is tilted.,117,103,7,12,1,1,1,1,0,0,0,0,0,0,0,0,0,3,4,117,space,5.17974729999969,None,1,1,0.7205678000000262,None,space,6.6371196000000054,None,0,0,0,0,,,,,12,7,103,2,347.7976110999998,,,,,,,,,,,,,,,,,,,,,347.7821240000003,347.7976110999998,348.28096540000024,348.28559479999967,348.3043300999998,349.03164110000034,,,,,349.0318299999999,349.04732129999957,349.24673579999944,349.23132579999947,348.3043300999998,,,,,,,,1,1,0.7205678000000262,None,,,,,,,,818,23,M,L,2026-02-25_12h04.03.136,VisualSearch_2526_3,,2025.2.4,2026-02-25 12h04.03.439501 +0100,
tilted.xlsx,The target is tilted.,117,104,0,13,1,1,1,1,1,1,1,1,1,1,1,1,0,11,12,117,space,5.17974729999969,None,1,1,4.64145230000031,None,space,6.6371196000000054,None,0,0,0,0,,,,,13,0,104,0,349.24673579999944,,,,,,,,,,,,,,,,,,,,,349.2321380000003,349.24673579999944,349.7310902999998,349.73576330000014,349.75486290000026,354.3977213999997,,,,,354.39791030000015,354.4131459,354.6132107000003,354.59693960000004,349.75486290000026,,,,,,,,1,1,4.64145230000031,None,,,,,,,,818,23,M,L,2026-02-25_12h04.03.136,VisualSearch_2526_3,,2025.2.4,2026-02-25 12h04.03.439501 +0100,
tilted.xlsx,The target is tilted.,117,105,1,13,0,1,1,1,0,0,0,0,0,0,0,0,1,3,4,117,space,5.17974729999969,None,0,1,2.0198497999999745,None,space,6.6371196000000054,None,0,0,0,0,,,,,13,1,105,6,354.6132107000003,,,,,,,,,,,,,,,,,,,,,354.5976872000001,354.6132107000003,355.09676260000015,355.0998453000002,355.1147410000003,357.14707009999984,,,,,357.1472587999997,357.16262879999977,357.3628867999996,357.34715869999945,355.1147410000003,,,,,,,,0,1,2.0198497999999745,None,,,,,,,,818,23,M,L,2026-02-25_12h04.03.136,VisualSearch_2526_3,,2025.2.4,2026-02-25 12h04.03.439501 +0100,
tilted.xlsx,The target is tilted.,117,106,2,13,0,1,1,1,1,1,1,1,0,0,0,0,1,7,8,117,space,5.17974729999969,None,0,1,3.3033696000002237,None,space,6.6371196000000054,None,0,0,0,0,,,,,13,2,106,5,357.3628867999996,,,,,,,,,,,,,,,,,,,,,357.34829360000003,357.3628867999996,357.8467596999999,357.85157939999954,357.87098369999967,361.17995449999944,,,,,361.1801605999999,361.1955888000002,361.39568039999995,361.3797857999998,357.87098369999967,,,,,,,,0,1,3.3033696000002237,None,,,,,,,,818,23,M,L,2026-02-25_12h04.03.136,VisualSearch_2526_3,,2025.2.4,2026-02-25 12h04.03.439501 +0100,
tilted.xlsx,The target is tilted.,117,107,3,13,0,1,1,1,1,1,1,1,1,1,1,1,1,11,12,117,space,5.17974729999969,None,0,1,2.758844500000123,None,space,6.6371196000000054,None,0,0,0,0,,,,,13,3,107,4,361.39568039999995,,,,,,,,,,,,,,,,,,,,,361.3805255999996,361.39568039999995,361.8794988999998,361.8841633000002,361.90284859999974,364.6788911000003,,,,,364.67906779999976,364.6948083999996,364.89513009999973,364.87895670000034,361.90284859999974,,,,,,,,0,1,2.758844500000123,None,,,,,,,,818,23,M,L,2026-02-25_12h04.03.136,VisualSearch_2526_3,,2025.2.4,2026-02-25 12h04.03.439501 +0100,
tilted.xlsx,The target is tilted.,117,108,4,13,1,1,1,1,1,1,1,1,0,0,0,0,0,7,8,117,space,5.17974729999969,None,1,1,0.8305428000003303,None,space,6.6371196000000054,None,0,0,0,0,,,,,13,4,108,1,364.89513009999973,,,,,,,,,,,,,,,,,,,,,364.8797005999995,364.89513009999973,365.3785439000003,365.38324889999967,365.4019693,366.2455823999999,,,,,366.24571509999987,366.2614308000002,366.46160789999976,366.44538850000026,365.4019693,,,,,,,,1,1,0.8305428000003303,None,,,,,,,,818,23,M,L,2026-02-25_12h04.03.136,VisualSearch_2526_3,,2025.2.4,2026-02-25 12h04.03.439501 +0100,
tilted.xlsx,The target is tilted.,117,109,5,13,1,1,1,1,0,0,0,0,0,0,0,0,0,3,4,117,space,5.17974729999969,None,1,1,0.6442917000003945,None,space,6.6371196000000054,None,0,0,0,0,,,,,13,5,109,2,366.46160789999976,,,,,,,,,,,,,,,,,,,,,366.4462118000001,366.46160789999976,366.94542720000027,366.9502915000003,366.96895179999956,367.6291725000001,,,,,367.6293617000001,367.64472229999956,367.84426149999945,367.8280655999997,366.96895179999956,,,,,,,,1,1,0.6442917000003945,None,,,,,,,,818,23,M,L,2026-02-25_12h04.03.136,VisualSearch_2526_3,,2025.2.4,2026-02-25 12h04.03.439501 +0100,
tilted.xlsx,The target is tilted.,117,110,6,13,1,0,0,0,0,0,0,0,0,0,0,0,0,0,1,117,space,5.17974729999969,None,1,1,0.4415209999997387,None,space,6.6371196000000054,None,0,0,0,0,,,,,13,6,110,3,367.84426149999945,,,,,,,,,,,,,,,,,,,,,367.82879929999945,367.84426149999945,368.32797930000015,368.3327171000001,368.3444833000003,368.7961342999997,,,,,368.7963238000002,368.8109492000003,369.01118320000023,368.9951685999995,368.3444833000003,,,,,,,,1,1,0.4415209999997387,None,,,,,,,,818,23,M,L,2026-02-25_12h04.03.136,VisualSearch_2526_3,,2025.2.4,2026-02-25 12h04.03.439501 +0100,
tilted.xlsx,The target is tilted.,117,111,7,13,0,0,0,0,0,0,0,0,0,0,0,0,1,1,1,117,space,5.17974729999969,None,0,1,0.6398643000002266,None,space,6.6371196000000054,None,0,0,0,0,,,,,13,7,111,7,369.01118320000023,,,,,,,,,,,,,,,,,,,,,368.9958964999996,369.01118320000023,369.4950521999999,369.49955169999976,369.51757160000034,370.1617605000001,,,,,370.1619794999997,370.1776417000001,370.37771599999996,370.3614832000003,369.51757160000034,,,,,,,,0,1,0.6398643000002266,None,,,,,,,,818,23,M,L,2026-02-25_12h04.03.136,VisualSearch_2526_3,,2025.2.4,2026-02-25 12h04.03.439501 +0100,
tilted.xlsx,The target is tilted.,117,112,0,14,0,1,1,1,1,1,1,1,0,0,0,0,1,7,8,117,space,5.17974729999969,None,0,1,2.1761608999995588,None,space,6.6371196000000054,None,0,0,0,0,,,,,14,0,112,5,370.37771599999996,,,,,,,,,,,,,,,,,,,,,370.3622333000003,370.37771599999996,370.86135209999975,370.8665486,370.8844928999997,373.06168629999956,,,,,373.06188269999984,373.0772340000003,373.27730410000004,373.26116209999964,370.8844928999997,,,,,,,,0,1,2.1761608999995588,None,,,,,,,,818,23,M,L,2026-02-25_12h04.03.136,VisualSearch_2526_3,,2025.2.4,2026-02-25 12h04.03.439501 +0100,
tilted.xlsx,The target is tilted.,117,113,1,14,1,1,1,1,1,1,1,1,0,0,0,0,0,7,8,117,space,5.17974729999969,None,1,1,1.6126157999997304,None,space,6.6371196000000054,None,0,0,0,0,,,,,14,1,113,1,373.27730410000004,,,,,,,,,,,,,,,,,,,,,373.2618599999996,373.27730410000004,373.76099109999996,373.7656357999995,373.78429909999977,375.4113569000001,,,,,375.41154800000004,375.4269138999998,375.6268946,375.6108720000002,373.78429909999977,,,,,,,,1,1,1.6126157999997304,None,,,,,,,,818,23,M,L,2026-02-25_12h04.03.136,VisualSearch_2526_3,,2025.2.4,2026-02-25 12h04.03.439501 +0100,
tilted.xlsx,The target is tilted.,117,114,2,14,0,1,1,1,1,1,1,1,1,1,1,1,1,11,12,117,space,5.17974729999969,None,0,1,4.043345600000066,None,space,6.6371196000000054,None,0,0,0,0,,,,,14,2,114,4,375.6268946,,,,,,,,,,,,,,,,,,,,,375.6116984,375.6268946,376.1107628,376.1155474999996,376.13376719999997,380.1935913999996,,,,,380.1937458000002,380.2095287000002,380.409318,380.3935983000001,376.13376719999997,,,,,,,,0,1,4.043345600000066,None,,,,,,,,818,23,M,L,2026-02-25_12h04.03.136,VisualSearch_2526_3,,2025.2.4,2026-02-25 12h04.03.439501 +0100,
tilted.xlsx,The target is tilted.,117,115,3,14,0,1,1,1,0,0,0,0,0,0,0,0,1,3,4,117,space,5.17974729999969,None,0,1,0.8205275999998776,None,space,6.6371196000000054,None,0,0,0,0,,,,,14,3,115,6,380.409318,,,,,,,,,,,,,,,,,,,,,380.39440509999986,380.409318,380.89330150000023,380.8979761999999,380.91733229999954,381.74353229999997,,,,,381.74372200000016,381.75922720000017,381.95900100000017,381.9434971999999,380.91733229999954,,,,,,,,0,1,0.8205275999998776,None,,,,,,,,818,23,M,L,2026-02-25_12h04.03.136,VisualSearch_2526_3,,2025.2.4,2026-02-25 12h04.03.439501 +0100,
tilted.xlsx,The target is tilted.,117,116,4,14,0,0,0,0,0,0,0,0,0,0,0,0,1,1,1,117,space,5.17974729999969,None,0,1,0.5053456000005099,None,space,6.6371196000000054,None,0,0,0,0,,,,,14,4,116,7,381.95900100000017,,,,,,,,,,,,,,,,,,,,,381.9441866999996,381.95900100000017,382.44315559999995,382.4479473000001,382.4666451000003,382.9769518000003,,,,,382.97714300000007,382.9923858000002,383.19264920000023,383.17622029999984,382.4666451000003,,,,,,,,0,1,0.5053456000005099,None,,,,,,,,818,23,M,L,2026-02-25_12h04.03.136,VisualSearch_2526_3,,2025.2.4,2026-02-25 12h04.03.439501 +0100,
tilted.xlsx,The target is tilted.,117,117,5,14,1,1,1,1,1,1,1,1,1,1,1,1,0,11,12,117,space,5.17974729999969,None,1,1,0.9843052999995052,None,space,6.6371196000000054,None,0,0,0,0,,,,,14,5,117,0,383.19264920000023,,,,,,,,,,,,,,,,,,,,,383.17695749999984,383.19264920000023,383.6763818999998,383.6811203999996,383.6959329000001,384.6930405000003,,,,,384.69323239999994,384.7088437000002,384.90903249999974,384.89276379999956,383.6959329000001,,,,,,,,1,1,0.9843052999995052,None,,,,,,,,818,23,M,L,2026-02-25_12h04.03.136,VisualSearch_2526_3,,2025.2.4,2026-02-25 12h04.03.439501 +0100,
tilted.xlsx,The target is tilted.,117,118,6,14,1,0,0,0,0,0,0,0,0,0,0,0,0,0,1,117,space,5.17974729999969,None,1,1,0.6136315000003378,None,space,6.6371196000000054,None,0,0,0,0,,,,,14,6,118,3,384.90903249999974,,,,,,,,,,,,,,,,,,,,,384.8935432999997,384.90903249999974,385.39241200000015,385.3960962000001,385.41402219999964,386.0430011999997,,,,,386.04319250000026,386.05837079999947,386.2585283999997,386.24261449999995,385.41402219999964,,,,,,,,1,1,0.6136315000003378,None,,,,,,,,818,23,M,L,2026-02-25_12h04.03.136,VisualSearch_2526_3,,2025.2.4,2026-02-25 12h04.03.439501 +0100,
tilted.xlsx,The target is tilted.,117,119,7,14,1,1,1,1,0,0,0,0,0,0,0,0,0,3,4,117,space,5.17974729999969,None,1,1,0.7301269999998112,None,space,6.6371196000000054,None,0,0,0,0,,,,,14,7,119,2,386.2585283999997,,,,,,,,,,,,,,,,,,,,,386.24336330000006,386.2585283999997,386.7425072999995,386.74715670000023,386.76580319999994,387.50963279999996,,,,,387.50982099999965,387.52513199999976,387.7477880999995,387.7091271999998,386.76580319999994,,,,,,,,1,1,0.7301269999998112,None,,,,,,,,818,23,M,L,2026-02-25_12h04.03.136,VisualSearch_2526_3,,2025.2.4,2026-02-25 12h04.03.439501 +0100,
tilted.xlsx,The target is tilted.,117,0,0,0,,,,,,,,,,,,,,,,,space,5.17974729999969,None,,,,,space,6.6371196000000054,None,0,0,0,0,,,,,,,,,,,,,,,,,,,,,,,,,,,,,,,,,,,,,,,,,,,,,,,,,,,,,,,,,,,,,,,818,23,M,L,2026-02-25_12h04.03.136,VisualSearch_2526_3,,2025.2.4,2026-02-25 12h04.03.439501 +0100,
vertical.xlsx,The target is tilted.,135,0,0,0,0,1,1,1,0,0,0,0,0,0,0,0,1,3,4,135,space,10.469665599999644,None,0,1,0.9668123000001287,None,,,,0,1,1,1,0,0,0,6,,,,,398.25744589999977,,,,,,,,,,,,,,,387.7477880999995,387.7477880999995,387.7477880999995,space,10.469665599999644,None,398.25314890000027,398.25744589999977,398.74026270000013,398.7450743999998,398.7645966,399.7412113999999,0,1,0.9668123000001287,None,399.7413964999996,399.75675349999983,399.95687480000015,399.94061950000014,,,,,,,,,,,,,,,,,,,,818,23,M,L,2026-02-25_12h04.03.136,VisualSearch_2526_3,,2025.2.4,2026-02-25 12h04.03.439501 +0100,
vertical.xlsx,The target is tilted.,135,1,1,0,1,1,1,1,1,1,1,1,0,0,0,0,0,7,8,135,space,10.469665599999644,None,1,1,0.6841831000001548,None,,,,0,1,1,1,0,1,1,1,,,,,399.95687480000015,,,,,,,,,,,,,,,,,,,,,399.9413902999995,399.95687480000015,400.4405286000001,400.4452430000001,400.46383330000026,401.1577454999997,1,1,0.6841831000001548,None,401.15795640000033,401.1733459999996,401.37330159999965,401.35719270000027,400.46383330000026,,,,,,,,,,,,,,,,,,,818,23,M,L,2026-02-25_12h04.03.136,VisualSearch_2526_3,,2025.2.4,2026-02-25 12h04.03.439501 +0100,
vertical.xlsx,The target is tilted.,135,2,2,0,0,0,0,0,0,0,0,0,0,0,0,0,1,1,1,135,space,10.469665599999644,None,0,1,0.5488306999995984,None,,,,0,1,1,1,0,2,2,7,,,,,401.37330159999965,,,,,,,,,,,,,,,,,,,,,401.3578398999998,401.37330159999965,401.85703569999987,401.8616427999996,401.8802313999995,402.4407523,0,1,0.5488306999995984,None,402.4409477999998,402.4563712999998,402.65638239999953,402.64012399999956,401.8802313999995,,,,,,,,,,,,,,,,,,,818,23,M,L,2026-02-25_12h04.03.136,VisualSearch_2526_3,,2025.2.4,2026-02-25 12h04.03.439501 +0100,
vertical.xlsx,The target is tilted.,135,3,3,0,0,1,1,1,1,1,1,1,1,1,1,1,1,11,12,135,space,10.469665599999644,None,0,1,0.8336036999999124,None,,,,0,1,1,1,0,3,3,4,,,,,402.65638239999953,,,,,,,,,,,,,,,,,,,,,402.64081689999966,402.65638239999953,403.13995109999996,403.1450083999998,403.16357770000013,404.0072578999998,0,1,0.8336036999999124,None,404.0074389000001,404.0229010000003,404.22288469999967,404.2066192000002,403.16357770000013,,,,,,,,,,,,,,,,,,,818,23,M,L,2026-02-25_12h04.03.136,VisualSearch_2526_3,,2025.2.4,2026-02-25 12h04.03.439501 +0100,
vertical.xlsx,The target is tilted.,135,4,4,0,1,1,1,1,1,1,1,1,1,1,1,1,0,11,12,135,space,10.469665599999644,None,1,1,0.5264211000003343,None,,,,0,1,1,1,0,4,4,0,,,,,404.22288469999967,,,,,,,,,,,,,,,,,,,,,404.20731720000003,404.22288469999967,404.7067040000002,404.71141139999963,404.73070180000013,405.27376110000023,1,1,0.5264211000003343,None,405.2739435000003,405.289076,405.48913470000025,405.4731925999995,404.73070180000013,,,,,,,,,,,,,,,,,,,818,23,M,L,2026-02-25_12h04.03.136,VisualSearch_2526_3,,2025.2.4,2026-02-25 12h04.03.439501 +0100,
vertical.xlsx,The target is tilted.,135,5,5,0,0,1,1,1,1,1,1,1,0,0,0,0,1,7,8,135,space,10.469665599999644,None,0,1,0.9355325000005905,None,,,,0,1,1,1,0,5,5,5,,,,,405.48913470000025,,,,,,,,,,,,,,,,,,,,,405.4738625,405.48913470000025,405.97266039999977,405.9753836,405.98903939999946,406.9400995999995,0,1,0.9355325000005905,None,406.9402838999995,406.9556685999996,407.1557524,407.1394948999996,405.98903939999946,,,,,,,,,,,,,,,,,,,818,23,M,L,2026-02-25_12h04.03.136,VisualSearch_2526_3,,2025.2.4,2026-02-25 12h04.03.439501 +0100,
vertical.xlsx,The target is tilted.,135,6,6,0,1,0,0,0,0,0,0,0,0,0,0,0,0,0,1,135,space,10.469665599999644,None,1,1,0.38996270000006916,None,,,,0,1,1,1,0,6,6,3,,,,,407.1557524,,,,,,,,,,,,,,,,,,,,,407.1401982999996,407.1557524,407.63941760000034,407.6439399000001,407.65551940000023,408.0567192999997,1,1,0.38996270000006916,None,408.0569015000001,408.07188119999955,408.2723626999996,408.2561604000002,407.65551940000023,,,,,,,,,,,,,,,,,,,818,23,M,L,2026-02-25_12h04.03.136,VisualSearch_2526_3,,2025.2.4,2026-02-25 12h04.03.439501 +0100,
vertical.xlsx,The target is tilted.,135,7,7,0,1,1,1,1,0,0,0,0,0,0,0,0,0,3,4,135,space,10.469665599999644,None,1,1,0.5341192000005321,None,,,,0,1,1,1,0,7,7,2,,,,,408.2723626999996,,,,,,,,,,,,,,,,,,,,,408.25684529999944,408.2723626999996,408.7556953000003,408.7604947,408.7791933999997,409.3232097,1,1,0.5341192000005321,None,409.3233905999996,409.33878170000025,409.5388866000003,409.5222907999996,408.7791933999997,,,,,,,,,,,,,,,,,,,818,23,M,L,2026-02-25_12h04.03.136,VisualSearch_2526_3,,2025.2.4,2026-02-25 12h04.03.439501 +0100,
vertical.xlsx,The target is tilted.,135,0,0,0,1,1,1,1,1,1,1,1,1,1,1,1,0,11,12,135,space,10.469665599999644,None,1,1,1.3124355999998443,None,space,3.709645300000375,None,0,1,1,1,,,,,0,0,0,0,413.2921422999998,,,,,,,,,,,,,,,,,,,,,413.28792090000024,413.2921422999998,413.77144510000016,413.77611780000007,413.79469450000033,415.1223930999995,,,,,415.12258399999973,415.1378695000003,415.3379643999997,415.3219170000002,,409.5284985999997,409.5388866000003,409.5388866000003,413.2558092999998,space,3.709645300000375,None,1,1,1.3124355999998443,None,,,,,,,,818,23,M,L,2026-02-25_12h04.03.136,VisualSearch_2526_3,,2025.2.4,2026-02-25 12h04.03.439501 +0100,
vertical.xlsx,The target is tilted.,135,1,1,0,1,1,1,1,1,1,1,1,0,0,0,0,0,7,8,135,space,10.469665599999644,None,1,1,0.5543250000000626,None,space,3.709645300000375,None,0,1,1,1,,,,,0,1,1,1,415.3379643999997,,,,,,,,,,,,,,,,,,,,,415.32260959999985,415.3379643999997,415.8216771999996,415.82632769999964,415.8452363999995,416.40556469999956,,,,,416.4057555999998,416.42073400000027,416.6206381000002,416.6047374,415.8452363999995,,,,,,,,1,1,0.5543250000000626,None,,,,,,,,818,23,M,L,2026-02-25_12h04.03.136,VisualSearch_2526_3,,2025.2.4,2026-02-25 12h04.03.439501 +0100,
vertical.xlsx,The target is tilted.,135,2,2,0,0,1,1,1,1,1,1,1,1,1,1,1,1,11,12,135,space,10.469665599999644,None,0,1,1.2312832999996317,None,space,3.709645300000375,None,0,1,1,1,,,,,0,2,2,4,416.6206381000002,,,,,,,,,,,,,,,,,,,,,416.6054414,416.6206381000002,417.10490479999953,417.1095027000001,417.1288058,418.3719332999999,,,,,418.37212009999985,418.38753240000005,418.58753819999947,418.57125730000007,417.1288058,,,,,,,,0,1,1.2312832999996317,None,,,,,,,,818,23,M,L,2026-02-25_12h04.03.136,VisualSearch_2526_3,,2025.2.4,2026-02-25 12h04.03.439501 +0100,
vertical.xlsx,The target is tilted.,135,3,3,0,1,1,1,1,0,0,0,0,0,0,0,0,0,3,4,135,space,10.469665599999644,None,1,1,0.5314186000005066,None,space,3.709645300000375,None,0,1,1,1,,,,,0,3,3,2,418.58753819999947,,,,,,,,,,,,,,,,,,,,,418.5720143999997,418.58753819999947,419.0711762000001,419.0759191999996,419.0946305999996,419.63840419999997,,,,,419.63859330000014,419.65402429999995,419.8540215000003,419.83780409999963,419.0946305999996,,,,,,,,1,1,0.5314186000005066,None,,,,,,,,818,23,M,L,2026-02-25_12h04.03.136,VisualSearch_2526_3,,2025.2.4,2026-02-25 12h04.03.439501 +0100,
vertical.xlsx,The target is tilted.,135,4,4,0,0,0,0,0,0,0,0,0,0,0,0,0,1,1,1,135,space,10.469665599999644,None,0,1,0.5435536999993928,None,space,3.709645300000375,None,0,1,1,1,,,,,0,4,4,7,419.8540215000003,,,,,,,,,,,,,,,,,,,,,419.8385628999995,419.8540215000003,420.33767290000014,420.3423452999996,420.3613872999995,420.92153320000034,,,,,420.9217241999995,420.9370435999999,421.13714699999946,421.1209233999998,420.3613872999995,,,,,,,,0,1,0.5435536999993928,None,,,,,,,,818,23,M,L,2026-02-25_12h04.03.136,VisualSearch_2526_3,,2025.2.4,2026-02-25 12h04.03.439501 +0100,
vertical.xlsx,The target is tilted.,135,5,5,0,0,1,1,1,0,0,0,0,0,0,0,0,1,3,4,135,space,10.469665599999644,None,0,1,0.5630887999996048,None,space,3.709645300000375,None,0,1,1,1,,,,,0,5,5,6,421.13714699999946,,,,,,,,,,,,,,,,,,,,,421.12174830000004,421.13714699999946,421.6207956999997,421.62543000000005,421.6369738000003,422.2043074000003,,,,,422.20451069999945,422.2202178999996,422.4203001999995,422.4039157999996,421.6369738000003,,,,,,,,0,1,0.5630887999996048,None,,,,,,,,818,23,M,L,2026-02-25_12h04.03.136,VisualSearch_2526_3,,2025.2.4,2026-02-25 12h04.03.439501 +0100,
vertical.xlsx,The target is tilted.,135,6,6,0,0,1,1,1,1,1,1,1,0,0,0,0,1,7,8,135,space,10.469665599999644,None,0,1,0.8943841000000248,None,space,3.709645300000375,None,0,1,1,1,,,,,0,6,6,5,422.4203001999995,,,,,,,,,,,,,,,,,,,,,422.4047340999996,422.4203001999995,422.90369629999987,422.9081309000003,422.92637039999954,423.8373859000003,,,,,423.8375390000001,423.8531089999997,424.05334330000005,424.0372663999997,422.92637039999954,,,,,,,,0,1,0.8943841000000248,None,,,,,,,,818,23,M,L,2026-02-25_12h04.03.136,VisualSearch_2526_3,,2025.2.4,2026-02-25 12h04.03.439501 +0100,
vertical.xlsx,The target is tilted.,135,7,7,0,1,0,0,0,0,0,0,0,0,0,0,0,0,0,1,135,space,10.469665599999644,None,1,1,0.4213771999993696,None,space,3.709645300000375,None,0,1,1,1,,,,,0,7,7,3,424.05334330000005,,,,,,,,,,,,,,,,,,,,,424.03798129999996,424.05334330000005,424.5367048999997,424.53940090000015,424.55309190000025,424.98749659999976,,,,,424.9876902999995,425.0030799999995,425.2032290999996,425.18728029999966,424.55309190000025,,,,,,,,1,1,0.4213771999993696,None,,,,,,,,818,23,M,L,2026-02-25_12h04.03.136,VisualSearch_2526_3,,2025.2.4,2026-02-25 12h04.03.439501 +0100,
vertical.xlsx,The target is tilted.,135,8,0,1,1,1,1,1,0,0,0,0,0,0,0,0,0,3,4,135,space,10.469665599999644,None,1,1,0.4242801000000327,None,space,3.709645300000375,None,0,1,1,1,,,,,1,0,8,2,425.2032290999996,,,,,,,,,,,,,,,,,,,,,425.1880056,425.2032290999996,425.6868644999995,425.69147950000024,425.7102961999999,426.1375946999997,,,,,426.13781149999977,426.15297459999965,426.3531221000003,426.3370452999998,425.7102961999999,,,,,,,,1,1,0.4242801000000327,None,,,,,,,,818,23,M,L,2026-02-25_12h04.03.136,VisualSearch_2526_3,,2025.2.4,2026-02-25 12h04.03.439501 +0100,
vertical.xlsx,The target is tilted.,135,9,1,1,0,1,1,1,0,0,0,0,0,0,0,0,1,3,4,135,space,10.469665599999644,None,0,1,0.633861700000125,None,space,3.709645300000375,None,0,1,1,1,,,,,1,1,9,6,426.3531221000003,,,,,,,,,,,,,,,,,,,,,426.3378383999998,426.3531221000003,426.83694229999946,426.8415398999996,426.8602480999998,427.50398159999986,,,,,427.5041676000001,427.5194296999998,427.71947569999975,427.70286659999965,426.8602480999998,,,,,,,,0,1,0.633861700000125,None,,,,,,,,818,23,M,L,2026-02-25_12h04.03.136,VisualSearch_2526_3,,2025.2.4,2026-02-25 12h04.03.439501 +0100,
vertical.xlsx,The target is tilted.,135,10,2,1,0,1,1,1,1,1,1,1,1,1,1,1,1,11,12,135,space,10.469665599999644,None,0,1,1.0173238999996101,None,space,3.709645300000375,None,0,1,1,1,,,,,1,2,10,4,427.71947569999975,,,,,,,,,,,,,,,,,,,,,427.7035913999998,427.71947569999975,428.2032438999995,428.2079034999997,428.2268586,429.25371799999994,,,,,429.2539053999999,429.26924679999956,429.46906880000006,429.45306170000003,428.2268586,,,,,,,,0,1,1.0173238999996101,None,,,,,,,,818,23,M,L,2026-02-25_12h04.03.136,VisualSearch_2526_3,,2025.2.4,2026-02-25 12h04.03.439501 +0100,
vertical.xlsx,The target is tilted.,135,11,3,1,1,0,0,0,0,0,0,0,0,0,0,0,0,0,1,135,space,10.469665599999644,None,1,1,0.3873306000004959,None,space,3.709645300000375,None,0,1,1,1,,,,,1,3,11,3,429.46906880000006,,,,,,,,,,,,,,,,,,,,,429.4538179000001,429.46906880000006,429.9528602999999,429.9573565999999,429.9689777000003,430.3697450999998,,,,,430.36993639999946,430.38550269999996,430.5858198999995,430.56952959999944,429.9689777000003,,,,,,,,1,1,0.3873306000004959,None,,,,,,,,818,23,M,L,2026-02-25_12h04.03.136,VisualSearch_2526_3,,2025.2.4,2026-02-25 12h04.03.439501 +0100,
vertical.xlsx,The target is tilted.,135,12,4,1,1,1,1,1,1,1,1,1,0,0,0,0,0,7,8,135,space,10.469665599999644,None,1,1,0.6181570000007923,None,space,3.709645300000375,None,0,1,1,1,,,,,1,4,12,1,430.5858198999995,,,,,,,,,,,,,,,,,,,,,430.5703438999999,430.5858198999995,431.06967149999946,431.0743259999999,431.09306540000034,431.7200458999996,,,,,431.7202451000003,431.73530029999984,431.93546309999965,431.91957319999983,431.09306540000034,,,,,,,,1,1,0.6181570000007923,None,,,,,,,,818,23,M,L,2026-02-25_12h04.03.136,VisualSearch_2526_3,,2025.2.4,2026-02-25 12h04.03.439501 +0100,
vertical.xlsx,The target is tilted.,135,13,5,1,0,1,1,1,1,1,1,1,0,0,0,0,1,7,8,135,space,10.469665599999644,None,0,1,0.5663368000004994,None,space,3.709645300000375,None,0,1,1,1,,,,,1,5,13,5,431.93546309999965,,,,,,,,,,,,,,,,,,,,,431.92032819999986,431.93546309999965,432.4193765,432.42398440000034,432.4437031999996,433.0188151000002,,,,,433.01892940000016,433.0352034999996,,433.2190541,432.4437031999996,,,,,,,,0,1,0.5663368000004994,None,,,,,,,,818,23,M,L,2026-02-25_12h04.03.136,VisualSearch_2526_3,,2025.2.4,2026-02-25 12h04.03.439501 +0100,
vertical.xlsx,The target is tilted.,135,14,6,1,0,0,0,0,0,0,0,0,0,0,0,0,1,1,1,135,space,10.469665599999644,None,0,1,0.5097667999998521,None,space,3.709645300000375,None,0,1,1,1,,,,,1,6,14,7,433.2354333000003,,,,,,,,,,,,,,,,,,,,,433.2197999,433.2354333000003,433.7190889000003,433.7237296000003,433.7424234,434.26925140000003,,,,,434.26944230000026,434.2851604999996,434.48487939999995,434.46923549999974,433.7424234,,,,,,,,0,1,0.5097667999998521,None,,,,,,,,818,23,M,L,2026-02-25_12h04.03.136,VisualSearch_2526_3,,2025.2.4,2026-02-25 12h04.03.439501 +0100,
vertical.xlsx,The target is tilted.,135,15,7,1,1,1,1,1,1,1,1,1,1,1,1,1,0,11,12,135,space,10.469665599999644,None,1,1,1.139928599999621,None,space,3.709645300000375,None,0,1,1,1,,,,,1,7,15,0,434.48487939999995,,,,,,,,,,,,,,,,,,,,,434.4699617999995,434.48487939999995,434.9691868,434.9739712999999,434.9849542000002,436.1360840999996,,,,,436.13627240000005,436.1514072,436.3515636000002,436.33547780000026,434.9849542000002,,,,,,,,1,1,1.139928599999621,None,,,,,,,,818,23,M,L,2026-02-25_12h04.03.136,VisualSearch_2526_3,,2025.2.4,2026-02-25 12h04.03.439501 +0100,
vertical.xlsx,The target is tilted.,135,16,0,2,0,1,1,1,1,1,1,1,0,0,0,0,1,7,8,135,space,10.469665599999644,None,0,1,1.4313354000005347,None,space,3.709645300000375,None,0,1,1,1,,,,,2,0,16,5,436.3515636000002,,,,,,,,,,,,,,,,,,,,,436.33627069999966,436.3515636000002,436.8353625,436.8401561999999,436.8590346000001,438.3014052999997,,,,,438.3015201999997,438.3177890999996,,438.50163470000007,436.8590346000001,,,,,,,,0,1,1.4313354000005347,None,,,,,,,,818,23,M,L,2026-02-25_12h04.03.136,VisualSearch_2526_3,,2025.2.4,2026-02-25 12h04.03.439501 +0100,
vertical.xlsx,The target is tilted.,135,17,1,2,0,1,1,1,0,0,0,0,0,0,0,0,1,3,4,135,space,10.469665599999644,None,0,1,0.5177704000006997,None,space,3.709645300000375,None,0,1,1,1,,,,,2,1,17,6,438.5178513999999,,,,,,,,,,,,,,,,,,,,,438.50239429999965,438.5178513999999,439.0018892999997,439.00683389999995,439.0248808999995,439.5519598000001,,,,,439.5521756999997,439.56779129999995,439.7679343,439.7517742,439.0248808999995,,,,,,,,0,1,0.5177704000006997,None,,,,,,,,818,23,M,L,2026-02-25_12h04.03.136,VisualSearch_2526_3,,2025.2.4,2026-02-25 12h04.03.439501 +0100,
vertical.xlsx,The target is tilted.,135,18,2,2,0,1,1,1,1,1,1,1,1,1,1,1,1,11,12,135,space,10.469665599999644,None,0,1,1.063476900000751,None,space,3.709645300000375,None,0,1,1,1,,,,,2,2,18,4,439.7679343,,,,,,,,,,,,,,,,,,,,,439.75261150000006,439.7679343,440.25152199999957,440.2561218999999,440.2740297999999,441.35197739999967,,,,,441.3521638000002,441.36748549999993,441.5675302999998,441.55123039999944,440.2740297999999,,,,,,,,0,1,1.063476900000751,None,,,,,,,,818,23,M,L,2026-02-25_12h04.03.136,VisualSearch_2526_3,,2025.2.4,2026-02-25 12h04.03.439501 +0100,
vertical.xlsx,The target is tilted.,135,19,3,2,1,0,0,0,0,0,0,0,0,0,0,0,0,0,1,135,space,10.469665599999644,None,0,0,0.4953583000005892,None,space,3.709645300000375,None,0,1,1,1,,,,,2,3,19,3,441.5675302999998,,,,,,,,,,,,,,,,,,,,,441.5519740999998,441.5675302999998,442.05123399999957,442.05586289999974,442.06737950000024,442.5684205999996,,,,,442.5686089999999,442.5840446000002,442.7840047999998,442.76779759999954,442.06737950000024,,,,,,,,0,0,0.4953583000005892,None,,,,,,,,818,23,M,L,2026-02-25_12h04.03.136,VisualSearch_2526_3,,2025.2.4,2026-02-25 12h04.03.439501 +0100,
vertical.xlsx,The target is tilted.,135,20,4,2,1,1,1,1,0,0,0,0,0,0,0,0,0,3,4,135,space,10.469665599999644,None,1,1,0.5049611000004006,None,space,3.709645300000375,None,0,1,1,1,,,,,2,4,20,2,442.7840047999998,,,,,,,,,,,,,,,,,,,,,442.7685719000001,442.7840047999998,443.2679619999999,443.2727058999999,443.2837717000002,443.80159300000014,,,,,443.80178030000025,443.8171354999995,444.01724769999964,444.0006136000002,443.2837717000002,,,,,,,,1,1,0.5049611000004006,None,,,,,,,,818,23,M,L,2026-02-25_12h04.03.136,VisualSearch_2526_3,,2025.2.4,2026-02-25 12h04.03.439501 +0100,
vertical.xlsx,The target is tilted.,135,21,5,2,0,0,0,0,0,0,0,0,0,0,0,0,1,1,1,135,space,10.469665599999644,None,0,1,0.5839137000002665,None,space,3.709645300000375,None,0,1,1,1,,,,,2,5,21,7,444.01724769999964,,,,,,,,,,,,,,,,,,,,,444.00136010000006,444.01724769999964,444.5006820999997,444.5052853999996,444.52225949999956,445.1181134999997,,,,,445.1183143999997,445.1337235000001,445.3335103999998,445.3174498999997,444.52225949999956,,,,,,,,0,1,0.5839137000002665,None,,,,,,,,818,23,M,L,2026-02-25_12h04.03.136,VisualSearch_2526_3,,2025.2.4,2026-02-25 12h04.03.439501 +0100,
vertical.xlsx,The target is tilted.,135,22,6,2,1,1,1,1,1,1,1,1,0,0,0,0,0,7,8,135,space,10.469665599999644,None,1,1,0.5897551999996722,None,space,3.709645300000375,None,0,1,1,1,,,,,2,6,22,1,445.3335103999998,,,,,,,,,,,,,,,,,,,,,445.3182286000001,445.3335103999998,445.8175204999998,445.82206959999985,445.8334480000003,446.4346515999996,,,,,446.4348393999999,446.4497908000003,446.6499643999996,446.63401520000025,445.8334480000003,,,,,,,,1,1,0.5897551999996722,None,,,,,,,,818,23,M,L,2026-02-25_12h04.03.136,VisualSearch_2526_3,,2025.2.4,2026-02-25 12h04.03.439501 +0100,
vertical.xlsx,The target is tilted.,135,23,7,2,1,1,1,1,1,1,1,1,1,1,1,1,0,11,12,135,space,10.469665599999644,None,1,1,0.9900161999994452,None,space,3.709645300000375,None,0,1,1,1,,,,,2,7,23,0,446.6499643999996,,,,,,,,,,,,,,,,,,,,,446.6348003000003,446.6499643999996,447.1339373999999,447.1386217999998,447.1574473999999,448.1506784000003,,,,,448.1508660999998,448.16616449999947,448.3666781000002,448.35041959999944,447.1574473999999,,,,,,,,1,1,0.9900161999994452,None,,,,,,,,818,23,M,L,2026-02-25_12h04.03.136,VisualSearch_2526_3,,2025.2.4,2026-02-25 12h04.03.439501 +0100,
vertical.xlsx,The target is tilted.,135,24,0,3,1,0,0,0,0,0,0,0,0,0,0,0,0,0,1,135,space,10.469665599999644,None,1,1,0.45550510000066424,None,space,3.709645300000375,None,0,1,1,1,,,,,3,0,24,3,448.3666781000002,,,,,,,,,,,,,,,,,,,,,448.3512343000002,448.3666781000002,448.85016279999945,448.8549327999999,448.8736638999999,449.33416529999977,,,,,449.3343672000001,449.3496537000001,449.54936949999956,449.53365229999963,448.8736638999999,,,,,,,,1,1,0.45550510000066424,None,,,,,,,,818,23,M,L,2026-02-25_12h04.03.136,VisualSearch_2526_3,,2025.2.4,2026-02-25 12h04.03.439501 +0100,
vertical.xlsx,The target is tilted.,135,25,1,3,1,1,1,1,1,1,1,1,0,0,0,0,0,7,8,135,space,10.469665599999644,None,1,1,0.5304386999996495,None,space,3.709645300000375,None,0,1,1,1,,,,,3,1,25,1,449.54936949999956,,,,,,,,,,,,,,,,,,,,,449.5343812000001,449.54936949999956,450.0332123999997,450.0373262000003,450.0560840999997,450.6002937000003,,,,,450.6004850999998,450.6161093999999,450.8161322999995,450.7999761000001,450.0560840999997,,,,,,,,1,1,0.5304386999996495,None,,,,,,,,818,23,M,L,2026-02-25_12h04.03.136,VisualSearch_2526_3,,2025.2.4,2026-02-25 12h04.03.439501 +0100,
vertical.xlsx,The target is tilted.,135,26,2,3,0,1,1,1,1,1,1,1,0,0,0,0,1,7,8,135,space,10.469665599999644,None,0,1,1.0658133000006274,None,space,3.709645300000375,None,0,1,1,1,,,,,3,2,26,5,450.8161322999995,,,,,,,,,,,,,,,,,,,,,450.80070609999984,450.8161322999995,451.29967339999985,451.3043695999995,451.3233608999999,452.4002380000002,,,,,452.4004275999996,452.4159145000003,452.6160302999997,452.59970989999965,451.3233608999999,,,,,,,,0,1,1.0658133000006274,None,,,,,,,,818,23,M,L,2026-02-25_12h04.03.136,VisualSearch_2526_3,,2025.2.4,2026-02-25 12h04.03.439501 +0100,
vertical.xlsx,The target is tilted.,135,27,3,3,1,1,1,1,1,1,1,1,1,1,1,1,0,11,12,135,space,10.469665599999644,None,1,1,0.6567110999994838,None,space,3.709645300000375,None,0,1,1,1,,,,,3,3,27,0,452.6160302999997,,,,,,,,,,,,,,,,,,,,,452.60053139999945,452.6160302999997,453.09951939999974,453.10408860000007,453.12359990000004,453.7836373,,,,,453.78385999999955,453.7987215000003,453.9991166,453.98292630000014,453.12359990000004,,,,,,,,1,1,0.6567110999994838,None,,,,,,,,818,23,M,L,2026-02-25_12h04.03.136,VisualSearch_2526_3,,2025.2.4,2026-02-25 12h04.03.439501 +0100,
vertical.xlsx,The target is tilted.,135,28,4,3,1,1,1,1,0,0,0,0,0,0,0,0,0,3,4,135,space,10.469665599999644,None,1,1,0.5387140000002546,None,space,3.709645300000375,None,0,1,1,1,,,,,3,4,28,2,453.9991166,,,,,,,,,,,,,,,,,,,,,453.9836414000001,453.9991166,454.4826581999996,454.4876654999998,454.50551929999983,455.05002650000006,,,,,455.0502150000002,455.0652234999998,455.26564340000004,455.24949339999966,454.50551929999983,,,,,,,,1,1,0.5387140000002546,None,,,,,,,,818,23,M,L,2026-02-25_12h04.03.136,VisualSearch_2526_3,,2025.2.4,2026-02-25 12h04.03.439501 +0100,
vertical.xlsx,The target is tilted.,135,29,5,3,0,1,1,1,0,0,0,0,0,0,0,0,1,3,4,135,space,10.469665599999644,None,0,1,0.5784795999998096,None,space,3.709645300000375,None,0,1,1,1,,,,,3,5,29,6,455.26564340000004,,,,,,,,,,,,,,,,,,,,,455.2502330999996,455.26564340000004,455.7489734999999,455.7534703000001,455.77160920000006,456.36650199999985,,,,,456.36668699999973,456.3819861000002,456.5820894999997,456.5658719000003,455.77160920000006,,,,,,,,0,1,0.5784795999998096,None,,,,,,,,818,23,M,L,2026-02-25_12h04.03.136,VisualSearch_2526_3,,2025.2.4,2026-02-25 12h04.03.439501 +0100,
vertical.xlsx,The target is tilted.,135,30,6,3,0,1,1,1,1,1,1,1,1,1,1,1,1,11,12,135,space,10.469665599999644,None,0,1,1.0106094000002486,None,space,3.709645300000375,None,0,1,1,1,,,,,3,6,30,4,456.5820894999997,,,,,,,,,,,,,,,,,,,,,456.5666312000003,456.5820894999997,457.0656982999999,457.07021480000003,457.08823669999947,458.1162723999996,,,,,458.11646219999966,458.13167499999963,458.3318154999997,458.31578179999997,457.08823669999947,,,,,,,,0,1,1.0106094000002486,None,,,,,,,,818,23,M,L,2026-02-25_12h04.03.136,VisualSearch_2526_3,,2025.2.4,2026-02-25 12h04.03.439501 +0100,
vertical.xlsx,The target is tilted.,135,31,7,3,0,0,0,0,0,0,0,0,0,0,0,0,1,1,1,135,space,10.469665599999644,None,0,1,0.5454767000001084,None,space,3.709645300000375,None,0,1,1,1,,,,,3,7,31,7,458.3318154999997,,,,,,,,,,,,,,,,,,,,,458.31668079999963,458.3318154999997,458.8151743999997,458.8196640999995,458.83786749999945,459.3994084999995,,,,,459.39959869999984,459.41502330000003,459.61477099999956,459.5981093999999,458.83786749999945,,,,,,,,0,1,0.5454767000001084,None,,,,,,,,818,23,M,L,2026-02-25_12h04.03.136,VisualSearch_2526_3,,2025.2.4,2026-02-25 12h04.03.439501 +0100,
vertical.xlsx,The target is tilted.,135,32,0,4,0,1,1,1,0,0,0,0,0,0,0,0,1,3,4,135,space,10.469665599999644,None,0,1,1.425302599999668,None,space,3.709645300000375,None,0,1,1,1,,,,,4,0,32,6,459.61477099999956,,,,,,,,,,,,,,,,,,,,,459.59854780000023,459.61477099999956,460.0985029000003,460.1035632000003,460.11558609999975,461.5490910999997,,,,,461.5492760999996,461.5642932999999,461.7646827999997,461.7485440999999,460.11558609999975,,,,,,,,0,1,1.425302599999668,None,,,,,,,,818,23,M,L,2026-02-25_12h04.03.136,VisualSearch_2526_3,,2025.2.4,2026-02-25 12h04.03.439501 +0100,
vertical.xlsx,The target is tilted.,135,33,1,4,1,1,1,1,1,1,1,1,1,1,1,1,0,11,12,135,space,10.469665599999644,None,1,1,1.1499573999999484,None,space,3.709645300000375,None,0,1,1,1,,,,,4,1,33,0,461.7646827999997,,,,,,,,,,,,,,,,,,,,,461.74926179999966,461.7646827999997,462.2481259999995,462.25195669999994,462.2698843999997,463.43218549999983,,,,,463.43237789999966,463.44766699999946,463.64778430000024,463.6316889999998,462.2698843999997,,,,,,,,1,1,1.1499573999999484,None,,,,,,,,818,23,M,L,2026-02-25_12h04.03.136,VisualSearch_2526_3,,2025.2.4,2026-02-25 12h04.03.439501 +0100,
vertical.xlsx,The target is tilted.,135,34,2,4,1,0,0,0,0,0,0,0,0,0,0,0,0,0,1,135,space,10.469665599999644,None,1,1,0.7605489000006855,None,space,3.709645300000375,None,0,1,1,1,,,,,4,2,34,3,463.64778430000024,,,,,,,,,,,,,,,,,,,,,463.6325004,463.64778430000024,464.1311963999997,464.1359666999997,464.1546693999999,464.9319515999996,,,,,464.93214029999945,464.94748939999954,465.14751669999987,465.13125669999954,464.1546693999999,,,,,,,,1,1,0.7605489000006855,None,,,,,,,,818,23,M,L,2026-02-25_12h04.03.136,VisualSearch_2526_3,,2025.2.4,2026-02-25 12h04.03.439501 +0100,
