file_name,block_instructions,target_example,thisN,thisTrialN,thisRepN,target_presence,opacity_1,opacity_2,opacity_3,opacity_4,opacity_5,opacity_6,opacity_7,opacity_8,opacity_9,opacity_10,opacity_11,opacity_12,n_distract,n_items,target_ori,key_resp_4.keys,key_resp_4.rt,key_resp_4.duration,key_resp.keys,key_resp.corr,key_resp.rt,key_resp.duration,key_resp_5.keys,key_resp_5.rt,key_resp_5.duration,blocks.thisRepN,blocks.thisTrialN,blocks.thisN,blocks.thisIndex,practice_trials.thisRepN,practice_trials.thisTrialN,practice_trials.thisN,practice_trials.thisIndex,trials.thisRepN,trials.thisTrialN,trials.thisN,trials.thisIndex,thisRow.t,notes,Welcome.started,WelcomeText.started,key_resp_2.started,Welcome.stopped,key_resp_2.keys,key_resp_2.rt,key_resp_2.duration,InformedConsent.started,text_4.started,InformedConsent.stopped,key_resp_6.keys,key_resp_6.rt,key_resp_6.duration,key_resp_4.started,example_target.started,text_3.started,blocks.key_resp_4.keys,blocks.key_resp_4.rt,blocks.key_resp_4.duration,FixCross.started,fixCross.started,FixCross.stopped,Stimulus.started,key_resp.started,Stimulus.stopped,practice_trials.key_resp.keys,practice_trials.key_resp.corr,practice_trials.key_resp.rt,practice_trials.key_resp.duration,BlankScreen.started,text.started,text.stopped,BlankScreen.stopped,fixCross.stopped,ExperimentStart.started,text_2.started,key_resp_5.started,ExperimentStart.stopped,blocks.key_resp_5.keys,blocks.key_resp_5.rt,blocks.key_resp_5.duration,trials.key_resp.keys,trials.key_resp.corr,trials.key_resp.rt,trials.key_resp.duration,Thanks.started,ThankYou.started,key_resp_3.started,Thanks.stopped,key_resp_3.keys,key_resp_3.rt,key_resp_3.duration,participant,leeftijd,gender,links/rechtshandig,date,expName,expVersion,psychopyVersion,expStart,
,,,,,,,,,,,,,,,,,,,,,,,,,,,,,,,,,,,,,,,,,,,,,,0.04378840000026685,0.05815660000007483,0.05815660000007483,28.374398500000098,space,28.29714089999925,None,,,,,,,,,,,,,,,,,,,,,,,,,,,,,,,,,,,,,,,,,,,,,,819,22,v,R,2026-02-25_12h17.07.184,VisualSearch_2526_3,,2025.2.4,2026-02-25 12h17.07.503114 +0100,
,,,,,,,,,,,,,,,,,,,,,,,,,,,,,,,,,,,,,,,,,,,,,,,,,,,,,28.374536100000114,28.382483100000172,34.06019760000072,y,5.683483400000114,None,,,,,,,,,,,,,,,,,,,,,,,,,,,,,,,,,,,,,,,,819,22,v,R,2026-02-25_12h17.07.184,VisualSearch_2526_3,,2025.2.4,2026-02-25 12h17.07.503114 +0100,
tilted.xlsx,The target is tilted.,117,0,0,0,0,1,1,1,1,1,1,1,0,0,0,0,1,7,8,117,space,19.58673970000018,None,1,0,4.339077700000416,None,,,,0,0,0,0,0,0,0,5,,,,,53.73020960000031,,,,,,,,,,,,,,,34.10255550000056,34.10255550000056,34.10255550000056,space,19.58673970000018,None,53.72345350000069,53.73020960000031,54.207311900000605,54.2126758000004,54.23174259999996,58.57412600000043,1,0,4.339077700000416,None,58.574324200000774,58.58960999999999,58.78971940000065,58.77369210000052,,,,,,,,,,,,,,,,,,,,819,22,v,R,2026-02-25_12h17.07.184,VisualSearch_2526_3,,2025.2.4,2026-02-25 12h17.07.503114 +0100,
tilted.xlsx,The target is tilted.,117,1,1,0,0,1,1,1,0,0,0,0,0,0,0,0,1,3,4,117,space,19.58673970000018,None,0,1,1.0055099999999584,None,,,,0,0,0,0,0,1,1,6,,,,,58.78971940000065,,,,,,,,,,,,,,,,,,,,,58.77443240000048,58.78971940000065,59.273487400000704,59.27814430000035,59.29703289999998,60.30684740000015,0,1,1.0055099999999584,None,60.3070387000007,60.32268930000009,60.522812900000645,60.50655189999998,59.29703289999998,,,,,,,,,,,,,,,,,,,819,22,v,R,2026-02-25_12h17.07.184,VisualSearch_2526_3,,2025.2.4,2026-02-25 12h17.07.503114 +0100,
tilted.xlsx,The target is tilted.,117,2,2,0,1,0,0,0,0,0,0,0,0,0,0,0,0,0,1,117,space,19.58673970000018,None,1,1,0.6185891000004631,None,,,,0,0,0,0,0,2,2,3,,,,,60.522812900000645,,,,,,,,,,,,,,,,,,,,,60.50729870000032,60.522812900000645,61.0063454000001,61.01093690000016,61.0299827000008,61.656693500000074,1,1,0.6185891000004631,None,61.656885300000795,61.6718548000008,61.87252500000068,61.856275500000265,61.0299827000008,,,,,,,,,,,,,,,,,,,819,22,v,R,2026-02-25_12h17.07.184,VisualSearch_2526_3,,2025.2.4,2026-02-25 12h17.07.503114 +0100,
tilted.xlsx,The target is tilted.,117,3,3,0,1,1,1,1,1,1,1,1,1,1,1,1,0,11,12,117,space,19.58673970000018,None,1,1,2.34205700000075,None,,,,0,0,0,0,0,3,3,0,,,,,61.87252500000068,,,,,,,,,,,,,,,,,,,,,61.85696470000039,61.87252500000068,62.35624590000043,62.36072500000046,62.37230120000004,64.72322359999998,1,1,2.34205700000075,None,64.72341520000009,64.73823940000057,64.93878100000074,64.92241430000013,62.37230120000004,,,,,,,,,,,,,,,,,,,819,22,v,R,2026-02-25_12h17.07.184,VisualSearch_2526_3,,2025.2.4,2026-02-25 12h17.07.503114 +0100,
tilted.xlsx,The target is tilted.,117,4,4,0,1,1,1,1,0,0,0,0,0,0,0,0,0,3,4,117,space,19.58673970000018,None,1,1,0.8712474000003567,None,,,,0,0,0,0,0,4,4,2,,,,,64.93878100000074,,,,,,,,,,,,,,,,,,,,,64.92321290000018,64.93878100000074,65.42276020000008,65.42744250000032,65.44711650000045,66.32261490000019,1,1,0.8712474000003567,None,66.32280450000053,66.33808670000053,66.53849280000031,66.52230650000001,65.44711650000045,,,,,,,,,,,,,,,,,,,819,22,v,R,2026-02-25_12h17.07.184,VisualSearch_2526_3,,2025.2.4,2026-02-25 12h17.07.503114 +0100,
tilted.xlsx,The target is tilted.,117,5,5,0,0,1,1,1,1,1,1,1,1,1,1,1,1,11,12,117,space,19.58673970000018,None,0,1,3.085417399999642,None,,,,0,0,0,0,0,5,5,4,,,,,66.53849280000031,,,,,,,,,,,,,,,,,,,,,66.52297500000077,66.53849280000031,67.0222231000007,67.02676320000046,67.04563640000015,70.1390562000006,0,1,3.085417399999642,None,70.13925040000049,70.15418190000037,70.35430300000007,70.33864930000072,67.04563640000015,,,,,,,,,,,,,,,,,,,819,22,v,R,2026-02-25_12h17.07.184,VisualSearch_2526_3,,2025.2.4,2026-02-25 12h17.07.503114 +0100,
tilted.xlsx,The target is tilted.,117,6,6,0,0,0,0,0,0,0,0,0,0,0,0,0,1,1,1,117,space,19.58673970000018,None,0,1,0.7351151000002574,None,,,,0,0,0,0,0,6,6,7,,,,,70.35430300000007,,,,,,,,,,,,,,,,,,,,,70.33942170000046,70.35430300000007,70.83839910000006,70.84304810000049,70.8620991000007,71.6050423000006,0,1,0.7351151000002574,None,71.60523170000033,71.62064790000022,71.82106100000055,71.80467670000053,70.8620991000007,,,,,,,,,,,,,,,,,,,819,22,v,R,2026-02-25_12h17.07.184,VisualSearch_2526_3,,2025.2.4,2026-02-25 12h17.07.503114 +0100,
tilted.xlsx,The target is tilted.,117,7,7,0,1,1,1,1,1,1,1,1,0,0,0,0,0,7,8,117,space,19.58673970000018,None,1,1,1.6105922000006103,None,,,,0,0,0,0,0,7,7,1,,,,,71.82106100000055,,,,,,,,,,,,,,,,,,,,,71.80522530000053,71.82106100000055,72.3044961000005,72.3084445000004,72.3208564000006,73.9386912,1,1,1.6105922000006103,None,73.93891070000063,73.95368450000024,74.15408939999998,74.1379265000005,72.3208564000006,,,,,,,,,,,,,,,,,,,819,22,v,R,2026-02-25_12h17.07.184,VisualSearch_2526_3,,2025.2.4,2026-02-25 12h17.07.503114 +0100,
tilted.xlsx,The target is tilted.,117,0,0,0,1,1,1,1,0,0,0,0,0,0,0,0,0,3,4,117,space,19.58673970000018,None,0,0,2.6644954000003054,None,space,3.9168902999999773,None,0,0,0,0,,,,,0,0,0,2,78.11947450000025,,,,,,,,,,,,,,,,,,,,,78.1152144000007,78.11947450000025,78.60384160000012,78.6085305000006,78.62773950000064,81.3042146000007,,,,,81.3044187000005,81.31928540000081,81.51950360000046,81.50377600000047,,74.14489820000017,74.15408939999998,74.15408939999998,78.08722610000041,space,3.9168902999999773,None,0,0,2.6644954000003054,None,,,,,,,,819,22,v,R,2026-02-25_12h17.07.184,VisualSearch_2526_3,,2025.2.4,2026-02-25 12h17.07.503114 +0100,
tilted.xlsx,The target is tilted.,117,1,1,0,0,1,1,1,1,1,1,1,0,0,0,0,1,7,8,117,space,19.58673970000018,None,0,1,2.083849900000132,None,space,3.9168902999999773,None,0,0,0,0,,,,,0,1,1,5,81.51950360000046,,,,,,,,,,,,,,,,,,,,,81.50457880000067,81.51950360000046,82.00369380000029,82.00869600000078,82.02776560000075,84.1205314000008,,,,,84.1207430000004,84.13530760000049,84.3360029000005,84.31986400000005,82.02776560000075,,,,,,,,0,1,2.083849900000132,None,,,,,,,,819,22,v,R,2026-02-25_12h17.07.184,VisualSearch_2526_3,,2025.2.4,2026-02-25 12h17.07.503114 +0100,
tilted.xlsx,The target is tilted.,117,2,2,0,0,1,1,1,1,1,1,1,1,1,1,1,1,11,12,117,space,19.58673970000018,None,0,1,3.191891499999656,None,space,3.9168902999999773,None,0,0,0,0,,,,,0,2,2,4,84.3360029000005,,,,,,,,,,,,,,,,,,,,,84.32057490000079,84.3360029000005,84.81955060000018,84.82458510000015,84.84277670000029,88.03616500000044,,,,,88.03636430000006,88.05161350000071,88.2517583000008,88.23569720000069,84.84277670000029,,,,,,,,0,1,3.191891499999656,None,,,,,,,,819,22,v,R,2026-02-25_12h17.07.184,VisualSearch_2526_3,,2025.2.4,2026-02-25 12h17.07.503114 +0100,
tilted.xlsx,The target is tilted.,117,3,3,0,0,0,0,0,0,0,0,0,0,0,0,0,1,1,1,117,space,19.58673970000018,None,0,1,0.5879451999999219,None,space,3.9168902999999773,None,0,0,0,0,,,,,0,3,3,7,88.2517583000008,,,,,,,,,,,,,,,,,,,,,88.23642760000075,88.2517583000008,88.73551540000062,88.73998850000044,88.7518568000005,89.35249660000045,,,,,89.35271680000005,89.36809930000072,89.56847920000018,89.55242679999992,88.7518568000005,,,,,,,,0,1,0.5879451999999219,None,,,,,,,,819,22,v,R,2026-02-25_12h17.07.184,VisualSearch_2526_3,,2025.2.4,2026-02-25 12h17.07.503114 +0100,
tilted.xlsx,The target is tilted.,117,4,4,0,1,1,1,1,1,1,1,1,0,0,0,0,0,7,8,117,space,19.58673970000018,None,1,1,0.6253809999998339,None,space,3.9168902999999773,None,0,0,0,0,,,,,0,4,4,1,89.56847920000018,,,,,,,,,,,,,,,,,,,,,89.55330410000079,89.56847920000018,90.05239940000047,90.05700750000051,90.07621040000049,90.70298189999994,,,,,90.7031861000005,90.71794769999997,90.91822150000007,90.90226080000048,90.07621040000049,,,,,,,,1,1,0.6253809999998339,None,,,,,,,,819,22,v,R,2026-02-25_12h17.07.184,VisualSearch_2526_3,,2025.2.4,2026-02-25 12h17.07.503114 +0100,
tilted.xlsx,The target is tilted.,117,5,5,0,0,1,1,1,0,0,0,0,0,0,0,0,1,3,4,117,space,19.58673970000018,None,0,1,1.6866050000007817,None,space,3.9168902999999773,None,0,0,0,0,,,,,0,5,5,6,90.91822150000007,,,,,,,,,,,,,,,,,,,,,90.90306990000045,90.91822150000007,91.40216380000038,91.40692410000065,91.42625520000001,93.11920950000058,,,,,93.11941420000039,93.13402410000072,93.3347819999999,93.31845180000073,91.42625520000001,,,,,,,,0,1,1.6866050000007817,None,,,,,,,,819,22,v,R,2026-02-25_12h17.07.184,VisualSearch_2526_3,,2025.2.4,2026-02-25 12h17.07.503114 +0100,
tilted.xlsx,The target is tilted.,117,6,6,0,1,0,0,0,0,0,0,0,0,0,0,0,0,0,1,117,space,19.58673970000018,None,1,1,0.5952674000000115,None,space,3.9168902999999773,None,0,0,0,0,,,,,0,6,6,3,93.3347819999999,,,,,,,,,,,,,,,,,,,,,93.31920230000014,93.3347819999999,93.8186467000005,93.82356729999992,93.84233260000019,94.45162330000039,,,,,94.4517848000005,94.46711790000063,94.66756160000023,94.65178450000076,93.84233260000019,,,,,,,,1,1,0.5952674000000115,None,,,,,,,,819,22,v,R,2026-02-25_12h17.07.184,VisualSearch_2526_3,,2025.2.4,2026-02-25 12h17.07.503114 +0100,
tilted.xlsx,The target is tilted.,117,7,7,0,1,1,1,1,1,1,1,1,1,1,1,1,0,11,12,117,space,19.58673970000018,None,1,1,0.7525622000002841,None,space,3.9168902999999773,None,0,0,0,0,,,,,0,7,7,0,94.66756160000023,,,,,,,,,,,,,,,,,,,,,94.65249470000072,94.66756160000023,95.15164910000021,95.15630240000064,95.17548870000064,95.93544700000075,,,,,95.9356458000002,95.9505050000007,96.15054240000063,96.13441640000019,95.17548870000064,,,,,,,,1,1,0.7525622000002841,None,,,,,,,,819,22,v,R,2026-02-25_12h17.07.184,VisualSearch_2526_3,,2025.2.4,2026-02-25 12h17.07.503114 +0100,
tilted.xlsx,The target is tilted.,117,8,0,1,1,1,1,1,0,0,0,0,0,0,0,0,0,3,4,117,space,19.58673970000018,None,1,1,0.946663400000034,None,space,3.9168902999999773,None,0,0,0,0,,,,,1,0,8,2,96.15054240000063,,,,,,,,,,,,,,,,,,,,,96.13516440000058,96.15054240000063,96.6346966000001,96.63932490000025,96.65625420000015,97.70143780000035,,,,,97.70154150000053,97.70502390000001,97.91739200000029,97.90114090000043,96.65625420000015,,,,,,,,1,1,0.946663400000034,None,,,,,,,,819,22,v,R,2026-02-25_12h17.07.184,VisualSearch_2526_3,,2025.2.4,2026-02-25 12h17.07.503114 +0100,
tilted.xlsx,The target is tilted.,117,9,1,1,0,1,1,1,1,1,1,1,0,0,0,0,1,7,8,117,space,19.58673970000018,None,0,1,2.007160500000282,None,space,3.9168902999999773,None,0,0,0,0,,,,,1,1,9,5,97.91739200000029,,,,,,,,,,,,,,,,,,,,,97.90189180000016,97.91739200000029,98.40100650000022,98.40569820000019,98.42467380000016,100.43489020000015,,,,,100.43512530000044,100.44988030000059,100.65049249999993,100.63444789999994,98.42467380000016,,,,,,,,0,1,2.007160500000282,None,,,,,,,,819,22,v,R,2026-02-25_12h17.07.184,VisualSearch_2526_3,,2025.2.4,2026-02-25 12h17.07.503114 +0100,
tilted.xlsx,The target is tilted.,117,10,2,1,1,1,1,1,1,1,1,1,0,0,0,0,0,7,8,117,space,19.58673970000018,None,1,1,2.1338888999998744,None,space,3.9168902999999773,None,0,0,0,0,,,,,1,2,10,1,100.65049249999993,,,,,,,,,,,,,,,,,,,,,100.63524130000042,100.65049249999993,101.13412870000047,101.13869479999994,101.15760020000016,103.3010561000001,,,,,103.30125260000023,103.31614790000003,103.51635090000036,103.50009380000029,101.15760020000016,,,,,,,,1,1,2.1338888999998744,None,,,,,,,,819,22,v,R,2026-02-25_12h17.07.184,VisualSearch_2526_3,,2025.2.4,2026-02-25 12h17.07.503114 +0100,
tilted.xlsx,The target is tilted.,117,11,3,1,0,1,1,1,1,1,1,1,1,1,1,1,1,11,12,117,space,19.58673970000018,None,1,0,1.70567999999912,None,space,3.9168902999999773,None,0,0,0,0,,,,,1,3,11,4,103.51635090000036,,,,,,,,,,,,,,,,,,,,,103.50088460000006,103.51635090000036,104.0003155000004,104.00496500000008,104.0243857000005,105.73359750000054,,,,,105.73379610000029,105.7490757000005,105.94965230000071,105.93351150000035,104.0243857000005,,,,,,,,1,0,1.70567999999912,None,,,,,,,,819,22,v,R,2026-02-25_12h17.07.184,VisualSearch_2526_3,,2025.2.4,2026-02-25 12h17.07.503114 +0100,
tilted.xlsx,The target is tilted.,117,12,4,1,0,0,0,0,0,0,0,0,0,0,0,0,1,1,1,117,space,19.58673970000018,None,0,1,0.6641927999999098,None,space,3.9168902999999773,None,0,0,0,0,,,,,1,4,12,7,105.94965230000071,,,,,,,,,,,,,,,,,,,,,105.93421480000052,105.94965230000071,106.43327320000026,106.4377357000003,106.44926110000051,107.1165404000003,,,,,107.11678050000046,107.1323396000007,107.33262809999997,107.31607729999996,106.44926110000051,,,,,,,,0,1,0.6641927999999098,None,,,,,,,,819,22,v,R,2026-02-25_12h17.07.184,VisualSearch_2526_3,,2025.2.4,2026-02-25 12h17.07.503114 +0100,
tilted.xlsx,The target is tilted.,117,13,5,1,1,0,0,0,0,0,0,0,0,0,0,0,0,0,1,117,space,19.58673970000018,None,1,1,0.6960095000004003,None,space,3.9168902999999773,None,0,0,0,0,,,,,1,5,13,3,107.33262809999997,,,,,,,,,,,,,,,,,,,,,107.31657730000006,107.33262809999997,107.81609770000068,107.82065090000015,107.83772600000066,108.54933960000017,,,,,108.5494735000002,108.56521080000039,108.76569780000045,108.7497671000001,107.83772600000066,,,,,,,,1,1,0.6960095000004003,None,,,,,,,,819,22,v,R,2026-02-25_12h17.07.184,VisualSearch_2526_3,,2025.2.4,2026-02-25 12h17.07.503114 +0100,
tilted.xlsx,The target is tilted.,117,14,6,1,1,1,1,1,1,1,1,1,1,1,1,1,0,11,12,117,space,19.58673970000018,None,0,0,2.4562916000004407,None,space,3.9168902999999773,None,0,0,0,0,,,,,1,6,14,0,108.76569780000045,,,,,,,,,,,,,,,,,,,,,108.75055350000002,108.76569780000045,109.24971069999992,109.25414730000011,109.27248790000067,111.73290700000052,,,,,111.73311960000046,111.7482731,111.94872420000047,111.93293150000045,109.27248790000067,,,,,,,,0,0,2.4562916000004407,None,,,,,,,,819,22,v,R,2026-02-25_12h17.07.184,VisualSearch_2526_3,,2025.2.4,2026-02-25 12h17.07.503114 +0100,
tilted.xlsx,The target is tilted.,117,15,7,1,0,1,1,1,0,0,0,0,0,0,0,0,1,3,4,117,space,19.58673970000018,None,0,1,0.8602209000000585,None,space,3.9168902999999773,None,0,0,0,0,,,,,1,7,15,6,111.94872420000047,,,,,,,,,,,,,,,,,,,,,111.9337884000006,111.94872420000047,112.43276700000024,112.43788960000074,112.45276970000032,113.3163398000006,,,,,113.31653900000038,113.33114130000013,113.5318784000001,113.51538110000001,112.45276970000032,,,,,,,,0,1,0.8602209000000585,None,,,,,,,,819,22,v,R,2026-02-25_12h17.07.184,VisualSearch_2526_3,,2025.2.4,2026-02-25 12h17.07.503114 +0100,
tilted.xlsx,The target is tilted.,117,16,0,2,0,1,1,1,1,1,1,1,0,0,0,0,1,7,8,117,space,19.58673970000018,None,0,1,1.8476098999999522,None,space,3.9168902999999773,None,0,0,0,0,,,,,2,0,16,5,113.5318784000001,,,,,,,,,,,,,,,,,,,,,113.51616520000061,113.5318784000001,114.0156723,114.02025660000072,114.03979470000013,115.8992661000002,,,,,115.8994674000005,115.91433810000035,116.1148490000005,116.09809949999999,114.03979470000013,,,,,,,,0,1,1.8476098999999522,None,,,,,,,,819,22,v,R,2026-02-25_12h17.07.184,VisualSearch_2526_3,,2025.2.4,2026-02-25 12h17.07.503114 +0100,
tilted.xlsx,The target is tilted.,117,17,1,2,1,1,1,1,1,1,1,1,0,0,0,0,0,7,8,117,space,19.58673970000018,None,1,1,1.7368034999999509,None,space,3.9168902999999773,None,0,0,0,0,,,,,2,1,17,1,116.1148490000005,,,,,,,,,,,,,,,,,,,,,116.09854220000034,116.1148490000005,116.59826220000014,116.60158630000024,116.61597530000017,118.36434460000055,,,,,118.36446660000001,118.3808667000003,,118.56490200000007,116.61597530000017,,,,,,,,1,1,1.7368034999999509,None,,,,,,,,819,22,v,R,2026-02-25_12h17.07.184,VisualSearch_2526_3,,2025.2.4,2026-02-25 12h17.07.503114 +0100,
tilted.xlsx,The target is tilted.,117,18,2,2,0,1,1,1,1,1,1,1,1,1,1,1,1,11,12,117,space,19.58673970000018,None,0,1,3.063319500000034,None,space,3.9168902999999773,None,0,0,0,0,,,,,2,2,18,4,118.58115440000074,,,,,,,,,,,,,,,,,,,,,118.56575220000013,118.58115440000074,119.06472380000014,119.06936769999993,119.08843849999994,122.1646023000003,,,,,122.16481720000047,122.18020990000059,122.38066180000078,122.36459800000011,,,,,,,,,0,1,3.063319500000034,None,,,,,,,,819,22,v,R,2026-02-25_12h17.07.184,VisualSearch_2526_3,,2025.2.4,2026-02-25 12h17.07.503114 +0100,
tilted.xlsx,The target is tilted.,117,19,3,2,1,1,1,1,0,0,0,0,0,0,0,0,0,3,4,117,space,19.58673970000018,None,1,1,0.8675613000004887,None,space,3.9168902999999773,None,0,0,0,0,,,,,2,3,19,2,122.38066180000078,,,,,,,,,,,,,,,,,,,,,122.36538710000059,122.38066180000078,122.86447520000002,122.86934920000022,122.88839150000058,123.76427100000001,,,,,123.76439260000006,123.77971740000066,123.98027249999996,123.96445680000033,122.88839150000058,,,,,,,,1,1,0.8675613000004887,None,,,,,,,,819,22,v,R,2026-02-25_12h17.07.184,VisualSearch_2526_3,,2025.2.4,2026-02-25 12h17.07.503114 +0100,
tilted.xlsx,The target is tilted.,117,20,4,2,1,0,0,0,0,0,0,0,0,0,0,0,0,0,1,117,space,19.58673970000018,None,1,1,0.5627672999999049,None,space,3.9168902999999773,None,0,0,0,0,,,,,2,4,20,3,123.98027249999996,,,,,,,,,,,,,,,,,,,,,123.9658601000001,123.98027249999996,124.46404650000022,124.46896820000075,124.48806590000004,125.0633826000003,,,,,125.06349890000001,125.07992160000049,,125.26382560000002,124.48806590000004,,,,,,,,1,1,0.5627672999999049,None,,,,,,,,819,22,v,R,2026-02-25_12h17.07.184,VisualSearch_2526_3,,2025.2.4,2026-02-25 12h17.07.503114 +0100,
tilted.xlsx,The target is tilted.,117,21,5,2,0,1,1,1,0,0,0,0,0,0,0,0,1,3,4,117,space,19.58673970000018,None,0,1,1.0400256000002628,None,space,3.9168902999999773,None,0,0,0,0,,,,,2,5,21,6,125.28016210000078,,,,,,,,,,,,,,,,,,,,,125.26458690000072,125.28016210000078,125.76379670000006,125.76845420000063,125.78831790000004,126.83101480000005,,,,,126.83122640000056,126.84611010000026,127.04656510000041,127.03041220000068,,,,,,,,,0,1,1.0400256000002628,None,,,,,,,,819,22,v,R,2026-02-25_12h17.07.184,VisualSearch_2526_3,,2025.2.4,2026-02-25 12h17.07.503114 +0100,
tilted.xlsx,The target is tilted.,117,22,6,2,0,0,0,0,0,0,0,0,0,0,0,0,1,1,1,117,space,19.58673970000018,None,0,1,0.7732129000005443,None,space,3.9168902999999773,None,0,0,0,0,,,,,2,6,22,7,127.04656510000041,,,,,,,,,,,,,,,,,,,,,127.03112360000068,127.04656510000041,127.53025350000007,127.53494430000046,127.55405430000064,128.33054040000025,,,,,128.33073910000076,128.3458902000002,128.5456937000008,128.53036860000066,127.55405430000064,,,,,,,,0,1,0.7732129000005443,None,,,,,,,,819,22,v,R,2026-02-25_12h17.07.184,VisualSearch_2526_3,,2025.2.4,2026-02-25 12h17.07.503114 +0100,
tilted.xlsx,The target is tilted.,117,23,7,2,1,1,1,1,1,1,1,1,1,1,1,1,0,11,12,117,space,19.58673970000018,None,1,1,1.4607511000003797,None,space,3.9168902999999773,None,0,0,0,0,,,,,2,7,23,0,128.5456937000008,,,,,,,,,,,,,,,,,,,,,128.53123310000046,128.5456937000008,129.03028730000005,129.0354571000007,129.05444720000014,130.5299130000003,,,,,130.53018610000072,130.54556450000018,130.7459232000001,130.72990410000057,129.05444720000014,,,,,,,,1,1,1.4607511000003797,None,,,,,,,,819,22,v,R,2026-02-25_12h17.07.184,VisualSearch_2526_3,,2025.2.4,2026-02-25 12h17.07.503114 +0100,
tilted.xlsx,The target is tilted.,117,24,0,3,0,0,0,0,0,0,0,0,0,0,0,0,1,1,1,117,space,19.58673970000018,None,0,1,0.5458332999996856,None,space,3.9168902999999773,None,0,0,0,0,,,,,3,0,24,7,130.7459232000001,,,,,,,,,,,,,,,,,,,,,130.7306109000001,130.7459232000001,131.22977850000007,131.23443060000045,131.25343560000056,131.81303800000023,,,,,131.81327370000054,131.8286349,132.02910800000063,132.0129308000005,131.25343560000056,,,,,,,,0,1,0.5458332999996856,None,,,,,,,,819,22,v,R,2026-02-25_12h17.07.184,VisualSearch_2526_3,,2025.2.4,2026-02-25 12h17.07.503114 +0100,
tilted.xlsx,The target is tilted.,117,25,1,3,0,1,1,1,0,0,0,0,0,0,0,0,1,3,4,117,space,19.58673970000018,None,0,1,1.01435070000025,None,space,3.9168902999999773,None,0,0,0,0,,,,,3,1,25,6,132.02910800000063,,,,,,,,,,,,,,,,,,,,,132.01365720000013,132.02910800000063,132.51299749999998,132.51762730000064,132.53714949999994,133.56347559999995,,,,,133.56367520000003,133.57844640000076,133.77891500000078,133.76259460000074,132.53714949999994,,,,,,,,0,1,1.01435070000025,None,,,,,,,,819,22,v,R,2026-02-25_12h17.07.184,VisualSearch_2526_3,,2025.2.4,2026-02-25 12h17.07.503114 +0100,
tilted.xlsx,The target is tilted.,117,26,2,3,1,0,0,0,0,0,0,0,0,0,0,0,0,0,1,117,space,19.58673970000018,None,1,1,0.555270599999858,None,space,3.9168902999999773,None,0,0,0,0,,,,,3,2,26,3,133.77891500000078,,,,,,,,,,,,,,,,,,,,,133.76330870000038,133.77891500000078,134.26265370000056,134.2672934000002,134.2864010000003,134.8461128000008,,,,,134.8463098000002,134.86159130000033,135.06205180000052,135.0455664000001,134.2864010000003,,,,,,,,1,1,0.555270599999858,None,,,,,,,,819,22,v,R,2026-02-25_12h17.07.184,VisualSearch_2526_3,,2025.2.4,2026-02-25 12h17.07.503114 +0100,
tilted.xlsx,The target is tilted.,117,27,3,3,1,1,1,1,0,0,0,0,0,0,0,0,0,3,4,117,space,19.58673970000018,None,1,1,0.7268439999998009,None,space,3.9168902999999773,None,0,0,0,0,,,,,3,3,27,2,135.06205180000052,,,,,,,,,,,,,,,,,,,,,135.04631790000076,135.06205180000052,135.54565690000072,135.55037429999993,135.5694035000006,136.3123895000008,,,,,136.31262289999995,136.32804380000016,136.52855570000065,136.51236900000004,135.5694035000006,,,,,,,,1,1,0.7268439999998009,None,,,,,,,,819,22,v,R,2026-02-25_12h17.07.184,VisualSearch_2526_3,,2025.2.4,2026-02-25 12h17.07.503114 +0100,
tilted.xlsx,The target is tilted.,117,28,4,3,0,1,1,1,1,1,1,1,1,1,1,1,1,11,12,117,space,19.58673970000018,None,1,0,1.5760768000000098,None,space,3.9168902999999773,None,0,0,0,0,,,,,3,4,28,4,136.52855570000065,,,,,,,,,,,,,,,,,,,,,136.51313830000072,136.52855570000065,137.01237970000057,137.01686750000044,137.0350642000003,138.61223490000066,,,,,138.6123847000008,138.62774700000045,138.82813140000053,138.81188680000014,137.0350642000003,,,,,,,,1,0,1.5760768000000098,None,,,,,,,,819,22,v,R,2026-02-25_12h17.07.184,VisualSearch_2526_3,,2025.2.4,2026-02-25 12h17.07.503114 +0100,
tilted.xlsx,The target is tilted.,117,29,5,3,1,1,1,1,1,1,1,1,0,0,0,0,0,7,8,117,space,19.58673970000018,None,1,1,1.2528560000000653,None,space,3.9168902999999773,None,0,0,0,0,,,,,3,5,29,1,138.82813140000053,,,,,,,,,,,,,,,,,,,,,138.81271370000013,138.82813140000053,139.3120284000006,139.31664350000028,139.33567530000073,140.5957371000004,,,,,140.59593660000064,140.61084269999992,140.81114200000047,140.79477709999992,139.33567530000073,,,,,,,,1,1,1.2528560000000653,None,,,,,,,,819,22,v,R,2026-02-25_12h17.07.184,VisualSearch_2526_3,,2025.2.4,2026-02-25 12h17.07.503114 +0100,
tilted.xlsx,The target is tilted.,117,30,6,3,1,1,1,1,1,1,1,1,1,1,1,1,0,11,12,117,space,19.58673970000018,None,1,1,1.1394516999998814,None,space,3.9168902999999773,None,0,0,0,0,,,,,3,6,30,0,140.81114200000047,,,,,,,,,,,,,,,,,,,,,140.79554200000075,140.81114200000047,141.2950892000008,141.29973000000064,141.31874770000013,142.46183890000066,,,,,142.4620377000001,142.47721710000042,142.67766230000052,142.6615294000003,141.31874770000013,,,,,,,,1,1,1.1394516999998814,None,,,,,,,,819,22,v,R,2026-02-25_12h17.07.184,VisualSearch_2526_3,,2025.2.4,2026-02-25 12h17.07.503114 +0100,
tilted.xlsx,The target is tilted.,117,31,7,3,0,1,1,1,1,1,1,1,0,0,0,0,1,7,8,117,space,19.58673970000018,None,0,1,1.8547714000005726,None,space,3.9168902999999773,None,0,0,0,0,,,,,3,7,31,5,142.67766230000052,,,,,,,,,,,,,,,,,,,,,142.66225020000002,142.67766230000052,143.16116820000025,143.16578140000001,143.1845045,145.04511490000004,,,,,145.04531810000026,145.05993240000043,145.26035649999994,145.24451080000017,143.1845045,,,,,,,,0,1,1.8547714000005726,None,,,,,,,,819,22,v,R,2026-02-25_12h17.07.184,VisualSearch_2526_3,,2025.2.4,2026-02-25 12h17.07.503114 +0100,
tilted.xlsx,The target is tilted.,117,32,0,4,1,1,1,1,1,1,1,1,0,0,0,0,0,7,8,117,space,19.58673970000018,None,1,1,1.143668499999876,None,space,3.9168902999999773,None,0,0,0,0,,,,,4,0,32,1,145.26035649999994,,,,,,,,,,,,,,,,,,,,,145.24523410000074,145.26035649999994,145.74444050000056,145.74904630000037,145.76722539999992,146.92717620000076,,,,,146.92732440000054,146.94350250000025,147.1437435000007,147.12752060000003,145.76722539999992,,,,,,,,1,1,1.143668499999876,None,,,,,,,,819,22,v,R,2026-02-25_12h17.07.184,VisualSearch_2526_3,,2025.2.4,2026-02-25 12h17.07.503114 +0100,
tilted.xlsx,The target is tilted.,117,33,1,4,0,0,0,0,0,0,0,0,0,0,0,0,1,1,1,117,space,19.58673970000018,None,0,1,0.6114908999998079,None,space,3.9168902999999773,None,0,0,0,0,,,,,4,1,33,7,147.1437435000007,,,,,,,,,,,,,,,,,,,,,147.12827860000016,147.1437435000007,147.6271071000001,147.62977390000015,147.64306320000014,148.26104269999996,,,,,148.26124490000075,148.27633940000032,148.4768057000001,148.46076770000036,147.64306320000014,,,,,,,,0,1,0.6114908999998079,None,,,,,,,,819,22,v,R,2026-02-25_12h17.07.184,VisualSearch_2526_3,,2025.2.4,2026-02-25 12h17.07.503114 +0100,
tilted.xlsx,The target is tilted.,117,34,2,4,0,1,1,1,0,0,0,0,0,0,0,0,1,3,4,117,space,19.58673970000018,None,0,1,1.167628600000171,None,space,3.9168902999999773,None,0,0,0,0,,,,,4,2,34,6,148.4768057000001,,,,,,,,,,,,,,,,,,,,,148.46148530000028,148.4768057000001,148.96063800000047,148.9654186000007,148.98444820000077,150.16100000000006,,,,,150.1611995000003,150.17612980000013,150.3764809000004,150.36045000000013,148.98444820000077,,,,,,,,0,1,1.167628600000171,None,,,,,,,,819,22,v,R,2026-02-25_12h17.07.184,VisualSearch_2526_3,,2025.2.4,2026-02-25 12h17.07.503114 +0100,
tilted.xlsx,The target is tilted.,117,35,3,4,0,1,1,1,1,1,1,1,1,1,1,1,1,11,12,117,space,19.58673970000018,None,0,1,1.3198333000000275,None,space,3.9168902999999773,None,0,0,0,0,,,,,4,3,35,4,150.3764809000004,,,,,,,,,,,,,,,,,,,,,150.36126330000025,150.3764809000004,150.86035979999997,150.86505800000032,150.88396700000067,152.21071420000044,,,,,152.2109177000002,152.22557790000064,152.42598780000026,152.40983039999992,150.88396700000067,,,,,,,,0,1,1.3198333000000275,None,,,,,,,,819,22,v,R,2026-02-25_12h17.07.184,VisualSearch_2526_3,,2025.2.4,2026-02-25 12h17.07.503114 +0100,
tilted.xlsx,The target is tilted.,117,36,4,4,1,0,0,0,0,0,0,0,0,0,0,0,0,0,1,117,space,19.58673970000018,None,1,1,0.7902854000003572,None,space,3.9168902999999773,None,0,0,0,0,,,,,4,4,36,3,152.42598780000026,,,,,,,,,,,,,,,,,,,,,152.41038800000024,152.42598780000026,152.91023870000026,152.9155167000008,152.93518870000025,153.72696780000024,,,,,153.7271668000003,153.74220260000038,153.94278490000033,153.92641490000005,152.93518870000025,,,,,,,,1,1,0.7902854000003572,None,,,,,,,,819,22,v,R,2026-02-25_12h17.07.184,VisualSearch_2526_3,,2025.2.4,2026-02-25 12h17.07.503114 +0100,
tilted.xlsx,The target is tilted.,117,37,5,4,1,1,1,1,0,0,0,0,0,0,0,0,0,3,4,117,space,19.58673970000018,None,1,1,0.8348153999995702,None,space,3.9168902999999773,None,0,0,0,0,,,,,4,5,37,2,153.94278490000033,,,,,,,,,,,,,,,,,,,,,153.9271744000007,153.94278490000033,154.426246,154.43073020000065,154.44247520000044,155.2930655,,,,,155.2932705000003,155.30871130000014,155.5092295000004,155.49312680000003,154.44247520000044,,,,,,,,1,1,0.8348153999995702,None,,,,,,,,819,22,v,R,2026-02-25_12h17.07.184,VisualSearch_2526_3,,2025.2.4,2026-02-25 12h17.07.503114 +0100,
tilted.xlsx,The target is tilted.,117,38,6,4,1,1,1,1,1,1,1,1,1,1,1,1,0,11,12,117,space,19.58673970000018,None,1,1,0.6823552000005293,None,space,3.9168902999999773,None,0,0,0,0,,,,,4,6,38,0,155.5092295000004,,,,,,,,,,,,,,,,,,,,,155.49385450000045,155.5092295000004,155.99307490000047,155.99748790000012,156.00894810000045,156.69349150000016,,,,,156.69369350000034,156.7084715000001,156.90901360000043,156.89292100000057,156.00894810000045,,,,,,,,1,1,0.6823552000005293,None,,,,,,,,819,22,v,R,2026-02-25_12h17.07.184,VisualSearch_2526_3,,2025.2.4,2026-02-25 12h17.07.503114 +0100,
tilted.xlsx,The target is tilted.,117,39,7,4,0,1,1,1,1,1,1,1,0,0,0,0,1,7,8,117,space,19.58673970000018,None,0,1,1.2488627000002452,None,space,3.9168902999999773,None,0,0,0,0,,,,,4,7,39,5,156.90901360000043,,,,,,,,,,,,,,,,,,,,,156.89362340000025,156.90901360000043,157.39266270000007,157.39734810000027,157.41623580000032,158.6762466,,,,,158.67644860000019,158.69157650000034,158.89194840000073,158.87562830000024,157.41623580000032,,,,,,,,0,1,1.2488627000002452,None,,,,,,,,819,22,v,R,2026-02-25_12h17.07.184,VisualSearch_2526_3,,2025.2.4,2026-02-25 12h17.07.503114 +0100,
tilted.xlsx,The target is tilted.,117,40,0,5,0,1,1,1,1,1,1,1,1,1,1,1,1,11,12,117,space,19.58673970000018,None,0,1,1.8801391000006333,None,space,3.9168902999999773,None,0,0,0,0,,,,,5,0,40,4,158.89194840000073,,,,,,,,,,,,,,,,,,,,,158.87633030000052,158.89194840000073,159.37569110000004,159.38019280000026,159.39833640000052,161.2922249000003,,,,,161.29243020000013,161.3078613000007,161.5083706000005,161.49225640000077,159.39833640000052,,,,,,,,0,1,1.8801391000006333,None,,,,,,,,819,22,v,R,2026-02-25_12h17.07.184,VisualSearch_2526_3,,2025.2.4,2026-02-25 12h17.07.503114 +0100,
tilted.xlsx,The target is tilted.,117,41,1,5,1,1,1,1,1,1,1,1,0,0,0,0,0,7,8,117,space,19.58673970000018,None,0,0,1.8562087999998766,None,space,3.9168902999999773,None,0,0,0,0,,,,,5,1,41,1,161.5083706000005,,,,,,,,,,,,,,,,,,,,,161.49303260000033,161.5083706000005,161.9920477000005,161.99672009999995,162.01582190000045,163.8753888000001,,,,,163.8756224000008,163.89085070000056,164.09103700000014,164.0748035000006,162.01582190000045,,,,,,,,0,0,1.8562087999998766,None,,,,,,,,819,22,v,R,2026-02-25_12h17.07.184,VisualSearch_2526_3,,2025.2.4,2026-02-25 12h17.07.503114 +0100,
tilted.xlsx,The target is tilted.,117,42,2,5,1,1,1,1,0,0,0,0,0,0,0,0,0,3,4,117,space,19.58673970000018,None,1,1,0.6722465000002558,None,space,3.9168902999999773,None,0,0,0,0,,,,,5,2,42,2,164.09103700000014,,,,,,,,,,,,,,,,,,,,,164.0753188000008,164.09103700000014,164.57532470000024,164.5803650000007,164.59975120000036,165.27532830000018,,,,,165.2755304000002,165.2904322000004,165.49117840000054,165.47476450000067,164.59975120000036,,,,,,,,1,1,0.6722465000002558,None,,,,,,,,819,22,v,R,2026-02-25_12h17.07.184,VisualSearch_2526_3,,2025.2.4,2026-02-25 12h17.07.503114 +0100,
tilted.xlsx,The target is tilted.,117,43,3,5,0,0,0,0,0,0,0,0,0,0,0,0,1,1,1,117,space,19.58673970000018,None,0,1,0.5698787000001175,None,space,3.9168902999999773,None,0,0,0,0,,,,,5,3,43,7,165.49117840000054,,,,,,,,,,,,,,,,,,,,,165.47552950000045,165.49117840000054,165.97494260000076,165.97949880000033,165.99852780000037,166.57533670000066,,,,,166.57553499999995,166.59044240000003,166.79030650000004,166.77474110000003,165.99852780000037,,,,,,,,0,1,0.5698787000001175,None,,,,,,,,819,22,v,R,2026-02-25_12h17.07.184,VisualSearch_2526_3,,2025.2.4,2026-02-25 12h17.07.503114 +0100,
tilted.xlsx,The target is tilted.,117,44,4,5,1,0,0,0,0,0,0,0,0,0,0,0,0,0,1,117,space,19.58673970000018,None,1,1,0.5682019000005312,None,space,3.9168902999999773,None,0,0,0,0,,,,,5,4,44,3,166.79030650000004,,,,,,,,,,,,,,,,,,,,,166.77545610000016,166.79030650000004,167.27426020000075,167.27691490000052,167.29059340000003,167.87457930000073,,,,,167.8747987000006,167.8901848000005,168.09059180000077,168.07436510000025,167.29059340000003,,,,,,,,1,1,0.5682019000005312,None,,,,,,,,819,22,v,R,2026-02-25_12h17.07.184,VisualSearch_2526_3,,2025.2.4,2026-02-25 12h17.07.503114 +0100,
tilted.xlsx,The target is tilted.,117,45,5,5,0,1,1,1,0,0,0,0,0,0,0,0,1,3,4,117,space,19.58673970000018,None,0,1,0.8381343000000925,None,space,3.9168902999999773,None,0,0,0,0,,,,,5,5,45,6,168.09059180000077,,,,,,,,,,,,,,,,,,,,,168.07509160000063,168.09059180000077,168.57459569999992,168.57925780000005,168.5981954000008,169.44156210000074,,,,,169.44178050000028,169.45673380000062,169.65715920000002,169.64084750000075,168.5981954000008,,,,,,,,0,1,0.8381343000000925,None,,,,,,,,819,22,v,R,2026-02-25_12h17.07.184,VisualSearch_2526_3,,2025.2.4,2026-02-25 12h17.07.503114 +0100,
tilted.xlsx,The target is tilted.,117,46,6,5,0,1,1,1,1,1,1,1,0,0,0,0,1,7,8,117,space,19.58673970000018,None,0,1,1.751794200000404,None,space,3.9168902999999773,None,0,0,0,0,,,,,5,6,46,5,169.65715920000002,,,,,,,,,,,,,,,,,,,,,169.6415876000001,169.65715920000002,170.14100990000043,170.14564640000026,170.16452900000058,171.92463230000067,,,,,171.92483340000035,171.93967690000045,172.1401747,172.12406470000042,170.16452900000058,,,,,,,,0,1,1.751794200000404,None,,,,,,,,819,22,v,R,2026-02-25_12h17.07.184,VisualSearch_2526_3,,2025.2.4,2026-02-25 12h17.07.503114 +0100,
tilted.xlsx,The target is tilted.,117,47,7,5,1,1,1,1,1,1,1,1,1,1,1,1,0,11,12,117,space,19.58673970000018,None,1,1,1.1413289000001896,None,space,3.9168902999999773,None,0,0,0,0,,,,,5,7,47,0,172.1401747,,,,,,,,,,,,,,,,,,,,,172.1247667000007,172.1401747,172.6237525000006,172.62832120000076,172.6471590000001,173.79159130000062,,,,,173.7917965000006,173.8061000000007,174.00650100000075,173.9904103000008,172.6471590000001,,,,,,,,1,1,1.1413289000001896,None,,,,,,,,819,22,v,R,2026-02-25_12h17.07.184,VisualSearch_2526_3,,2025.2.4,2026-02-25 12h17.07.503114 +0100,
tilted.xlsx,The target is tilted.,117,48,0,6,1,1,1,1,1,1,1,1,0,0,0,0,0,7,8,117,space,19.58673970000018,None,1,1,1.893344299999626,None,space,3.9168902999999773,None,0,0,0,0,,,,,6,0,48,1,174.00650100000075,,,,,,,,,,,,,,,,,,,,,173.99111320000065,174.00650100000075,174.49029550000068,174.49485900000036,174.51370900000074,176.42323880000004,,,,,176.4234538999999,176.43885040000077,176.6394852000003,176.62327110000024,174.51370900000074,,,,,,,,1,1,1.893344299999626,None,,,,,,,,819,22,v,R,2026-02-25_12h17.07.184,VisualSearch_2526_3,,2025.2.4,2026-02-25 12h17.07.503114 +0100,
tilted.xlsx,The target is tilted.,117,49,1,6,0,1,1,1,1,1,1,1,1,1,1,1,1,11,12,117,space,19.58673970000018,None,0,1,2.2733280000002196,None,space,3.9168902999999773,None,0,0,0,0,,,,,6,1,49,4,176.6394852000003,,,,,,,,,,,,,,,,,,,,,176.62402620000012,176.6394852000003,177.1232241000007,177.12792489999993,177.1467007000001,179.42312650000076,,,,,179.4233245000005,179.43857790000038,179.6391717000006,179.62311880000016,177.1467007000001,,,,,,,,0,1,2.2733280000002196,None,,,,,,,,819,22,v,R,2026-02-25_12h17.07.184,VisualSearch_2526_3,,2025.2.4,2026-02-25 12h17.07.503114 +0100,
tilted.xlsx,The target is tilted.,117,50,2,6,0,1,1,1,1,1,1,1,0,0,0,0,1,7,8,117,space,19.58673970000018,None,0,1,1.9208442999997715,None,space,3.9168902999999773,None,0,0,0,0,,,,,6,2,50,5,179.6391717000006,,,,,,,,,,,,,,,,,,,,,179.62390529999993,179.6391717000006,180.1228041000004,180.12737520000064,180.14626260000023,182.07324360000075,,,,,182.07348060000004,182.08824000000004,182.28871210000034,182.27259589999994,180.14626260000023,,,,,,,,0,1,1.9208442999997715,None,,,,,,,,819,22,v,R,2026-02-25_12h17.07.184,VisualSearch_2526_3,,2025.2.4,2026-02-25 12h17.07.503114 +0100,
tilted.xlsx,The target is tilted.,117,51,3,6,0,0,0,0,0,0,0,0,0,0,0,0,1,1,1,117,space,19.58673970000018,None,0,1,0.5751957000002221,None,space,3.9168902999999773,None,0,0,0,0,,,,,6,3,51,7,182.28871210000034,,,,,,,,,,,,,,,,,,,,,182.27333110000018,182.28871210000034,182.77248409999993,182.7769261000003,182.79566290000002,183.3729525000008,,,,,183.3731527,183.38805030000003,183.58821640000042,183.5724609000008,182.79566290000002,,,,,,,,0,1,0.5751957000002221,None,,,,,,,,819,22,v,R,2026-02-25_12h17.07.184,VisualSearch_2526_3,,2025.2.4,2026-02-25 12h17.07.503114 +0100,
tilted.xlsx,The target is tilted.,117,52,4,6,0,1,1,1,0,0,0,0,0,0,0,0,1,3,4,117,space,19.58673970000018,None,0,1,0.7698006000000532,None,space,3.9168902999999773,None,0,0,0,0,,,,,6,4,52,6,183.58821640000042,,,,,,,,,,,,,,,,,,,,,183.57315880000078,183.58821640000042,184.0718826000002,184.07635720000053,184.09372320000057,184.87244220000048,,,,,184.87263960000018,184.88783580000018,185.0882814000006,185.07223130000057,184.09372320000057,,,,,,,,0,1,0.7698006000000532,None,,,,,,,,819,22,v,R,2026-02-25_12h17.07.184,VisualSearch_2526_3,,2025.2.4,2026-02-25 12h17.07.503114 +0100,
tilted.xlsx,The target is tilted.,117,53,5,6,1,0,0,0,0,0,0,0,0,0,0,0,0,0,1,117,space,19.58673970000018,None,1,1,0.5412556999999651,None,space,3.9168902999999773,None,0,0,0,0,,,,,6,5,53,3,185.0882814000006,,,,,,,,,,,,,,,,,,,,,185.07304490000024,185.0882814000006,185.5716155,185.5760538000004,185.59473490000073,186.13928420000047,,,,,186.13948170000003,186.15430620000006,186.35477210000045,186.33811370000058,185.59473490000073,,,,,,,,1,1,0.5412556999999651,None,,,,,,,,819,22,v,R,2026-02-25_12h17.07.184,VisualSearch_2526_3,,2025.2.4,2026-02-25 12h17.07.503114 +0100,
tilted.xlsx,The target is tilted.,117,54,6,6,1,1,1,1,1,1,1,1,1,1,1,1,0,11,12,117,space,19.58673970000018,None,0,0,1.7623671000001195,None,space,3.9168902999999773,None,0,0,0,0,,,,,6,6,54,0,186.35477210000045,,,,,,,,,,,,,,,,,,,,,186.33881680000013,186.35477210000045,186.8386029000003,186.8432758000008,186.86238930000036,188.63768470000014,,,,,188.63780850000057,188.65424050000001,,188.83793270000024,186.86238930000036,,,,,,,,0,0,1.7623671000001195,None,,,,,,,,819,22,v,R,2026-02-25_12h17.07.184,VisualSearch_2526_3,,2025.2.4,2026-02-25 12h17.07.503114 +0100,
tilted.xlsx,The target is tilted.,117,55,7,6,1,1,1,1,0,0,0,0,0,0,0,0,0,3,4,117,space,19.58673970000018,None,0,0,0.5770192999998471,None,space,3.9168902999999773,None,0,0,0,0,,,,,6,7,55,2,188.85441270000047,,,,,,,,,,,,,,,,,,,,,188.83875500000067,188.85441270000047,189.33800710000014,189.34263670000018,189.35789999999997,189.93837540000004,,,,,189.9385781000001,189.95381030000044,190.1542758000005,190.13797980000072,,,,,,,,,0,0,0.5770192999998471,None,,,,,,,,819,22,v,R,2026-02-25_12h17.07.184,VisualSearch_2526_3,,2025.2.4,2026-02-25 12h17.07.503114 +0100,
tilted.xlsx,The target is tilted.,117,56,0,7,0,0,0,0,0,0,0,0,0,0,0,0,1,1,1,117,space,19.58673970000018,None,0,1,0.595078199999989,None,space,3.9168902999999773,None,0,0,0,0,,,,,7,0,56,7,190.1542758000005,,,,,,,,,,,,,,,,,,,,,190.13871890000064,190.1542758000005,190.63763749999998,190.64224270000068,190.66117380000014,191.2712119000007,,,,,191.27144570000019,191.2869197,191.48741690000043,191.47120320000067,190.66117380000014,,,,,,,,0,1,0.595078199999989,None,,,,,,,,819,22,v,R,2026-02-25_12h17.07.184,VisualSearch_2526_3,,2025.2.4,2026-02-25 12h17.07.503114 +0100,
tilted.xlsx,The target is tilted.,117,57,1,7,0,1,1,1,1,1,1,1,1,1,1,1,1,11,12,117,space,19.58673970000018,None,0,1,2.184656299999915,None,space,3.9168902999999773,None,0,0,0,0,,,,,7,1,57,4,191.48741690000043,,,,,,,,,,,,,,,,,,,,,191.47197270000015,191.48741690000043,191.97108200000002,191.97561730000052,191.9871372000007,194.18749520000074,,,,,194.18771020000077,194.20315860000028,194.40367930000048,194.38739950000036,191.9871372000007,,,,,,,,0,1,2.184656299999915,None,,,,,,,,819,22,v,R,2026-02-25_12h17.07.184,VisualSearch_2526_3,,2025.2.4,2026-02-25 12h17.07.503114 +0100,
tilted.xlsx,The target is tilted.,117,58,2,7,0,1,1,1,0,0,0,0,0,0,0,0,1,3,4,117,space,19.58673970000018,None,0,1,0.9609411000001273,None,space,3.9168902999999773,None,0,0,0,0,,,,,7,2,58,6,194.40367930000048,,,,,,,,,,,,,,,,,,,,,194.38817689999996,194.40367930000048,194.88739390000046,194.8919736000007,194.91080409999995,195.88698999999997,,,,,195.8871325,195.90267590000076,196.10337190000064,196.08719250000013,194.91080409999995,,,,,,,,0,1,0.9609411000001273,None,,,,,,,,819,22,v,R,2026-02-25_12h17.07.184,VisualSearch_2526_3,,2025.2.4,2026-02-25 12h17.07.503114 +0100,
tilted.xlsx,The target is tilted.,117,59,3,7,1,1,1,1,1,1,1,1,0,0,0,0,0,7,8,117,space,19.58673970000018,None,1,1,1.6981676999994306,None,space,3.9168902999999773,None,0,0,0,0,,,,,7,3,59,1,196.10337190000064,,,,,,,,,,,,,,,,,,,,,196.0879214000006,196.10337190000064,196.58714790000067,196.59177080000063,196.61058540000067,198.3207812999999,,,,,198.32097950000025,198.33586670000022,198.5363726000005,198.52062389999992,196.61058540000067,,,,,,,,1,1,1.6981676999994306,None,,,,,,,,819,22,v,R,2026-02-25_12h17.07.184,VisualSearch_2526_3,,2025.2.4,2026-02-25 12h17.07.503114 +0100,
tilted.xlsx,The target is tilted.,117,60,4,7,1,1,1,1,0,0,0,0,0,0,0,0,0,3,4,117,space,19.58673970000018,None,1,1,0.8122149999999237,None,space,3.9168902999999773,None,0,0,0,0,,,,,7,4,60,2,198.5363726000005,,,,,,,,,,,,,,,,,,,,,198.52166530000068,198.5363726000005,199.02012410000043,199.02522750000026,199.04441840000072,199.8700561000005,,,,,199.87024760000077,199.88564320000023,200.08601110000018,200.06992600000012,199.04441840000072,,,,,,,,1,1,0.8122149999999237,None,,,,,,,,819,22,v,R,2026-02-25_12h17.07.184,VisualSearch_2526_3,,2025.2.4,2026-02-25 12h17.07.503114 +0100,
tilted.xlsx,The target is tilted.,117,61,5,7,1,0,0,0,0,0,0,0,0,0,0,0,0,0,1,117,space,19.58673970000018,None,1,1,0.8617388999991817,None,space,3.9168902999999773,None,0,0,0,0,,,,,7,5,61,3,200.08601110000018,,,,,,,,,,,,,,,,,,,,,200.07075820000045,200.08601110000018,200.56977350000034,200.57435990000067,200.5931713,201.46978930000023,,,,,201.47000759999992,201.48547300000064,201.6856396000003,201.66962610000064,200.5931713,,,,,,,,1,1,0.8617388999991817,None,,,,,,,,819,22,v,R,2026-02-25_12h17.07.184,VisualSearch_2526_3,,2025.2.4,2026-02-25 12h17.07.503114 +0100,
tilted.xlsx,The target is tilted.,117,62,6,7,0,1,1,1,1,1,1,1,0,0,0,0,1,7,8,117,space,19.58673970000018,None,0,1,2.260110600000189,None,space,3.9168902999999773,None,0,0,0,0,,,,,7,6,62,5,201.6856396000003,,,,,,,,,,,,,,,,,,,,,201.67046670000036,201.6856396000003,202.16977530000077,202.17451470000015,202.19317649999994,204.4687459000006,,,,,204.46886710000035,204.48514120000073,,204.66903249999996,202.19317649999994,,,,,,,,0,1,2.260110600000189,None,,,,,,,,819,22,v,R,2026-02-25_12h17.07.184,VisualSearch_2526_3,,2025.2.4,2026-02-25 12h17.07.503114 +0100,
tilted.xlsx,The target is tilted.,117,63,7,7,1,1,1,1,1,1,1,1,1,1,1,1,0,11,12,117,space,19.58673970000018,None,1,1,1.6402335000002495,None,space,3.9168902999999773,None,0,0,0,0,,,,,7,7,63,0,204.6852445000004,,,,,,,,,,,,,,,,,,,,,204.6697763000002,204.6852445000004,205.16888540000036,205.17353189999994,205.19237410000005,206.83591849999993,,,,,206.83611720000044,206.85134970000036,207.05139150000014,207.0352937000007,205.19237410000005,,,,,,,,1,1,1.6402335000002495,None,,,,,,,,819,22,v,R,2026-02-25_12h17.07.184,VisualSearch_2526_3,,2025.2.4,2026-02-25 12h17.07.503114 +0100,
tilted.xlsx,The target is tilted.,117,64,0,8,1,1,1,1,0,0,0,0,0,0,0,0,0,3,4,117,space,19.58673970000018,None,0,0,1.2415279000006194,None,space,3.9168902999999773,None,0,0,0,0,,,,,8,0,64,2,207.05139150000014,,,,,,,,,,,,,,,,,,,,,207.03600710000046,207.05139150000014,207.53568050000013,207.5402763000002,207.55910399999993,208.80266790000042,,,,,208.80287769999995,208.81782040000053,209.0182502000007,209.0020768000004,207.55910399999993,,,,,,,,0,0,1.2415279000006194,None,,,,,,,,819,22,v,R,2026-02-25_12h17.07.184,VisualSearch_2526_3,,2025.2.4,2026-02-25 12h17.07.503114 +0100,
tilted.xlsx,The target is tilted.,117,65,1,8,0,1,1,1,0,0,0,0,0,0,0,0,1,3,4,117,space,19.58673970000018,None,0,1,0.9008880000001227,None,space,3.9168902999999773,None,0,0,0,0,,,,,8,1,65,6,209.0182502000007,,,,,,,,,,,,,,,,,,,,,209.0027800000007,209.0182502000007,209.50202200000058,209.50656359999994,209.52551590000076,210.43578520000028,,,,,210.4359809000007,210.45088020000003,210.65129650000017,210.6351420000001,209.52551590000076,,,,,,,,0,1,0.9008880000001227,None,,,,,,,,819,22,v,R,2026-02-25_12h17.07.184,VisualSearch_2526_3,,2025.2.4,2026-02-25 12h17.07.503114 +0100,
tilted.xlsx,The target is tilted.,117,66,2,8,1,1,1,1,1,1,1,1,1,1,1,1,0,11,12,117,space,19.58673970000018,None,1,1,1.4232978000000003,None,space,3.9168902999999773,None,0,0,0,0,,,,,8,2,66,0,210.65129650000017,,,,,,,,,,,,,,,,,,,,,210.63586310000028,210.65129650000017,211.13510510000015,211.13971560000027,211.15850360000059,212.58518260000073,,,,,212.5853786000007,212.60053310000058,212.80109150000044,212.7850758000004,211.15850360000059,,,,,,,,1,1,1.4232978000000003,None,,,,,,,,819,22,v,R,2026-02-25_12h17.07.184,VisualSearch_2526_3,,2025.2.4,2026-02-25 12h17.07.503114 +0100,
tilted.xlsx,The target is tilted.,117,67,3,8,0,1,1,1,1,1,1,1,1,1,1,1,1,11,12,117,space,19.58673970000018,None,0,1,2.904742400000032,None,space,3.9168902999999773,None,0,0,0,0,,,,,8,3,67,4,212.80109150000044,,,,,,,,,,,,,,,,,,,,,212.7858812000004,212.80109150000044,213.28486350000003,213.28943750000053,213.30819280000014,216.21826610000062,,,,,216.21848260000024,216.23309940000036,216.43384920000062,216.4174010000006,213.30819280000014,,,,,,,,0,1,2.904742400000032,None,,,,,,,,819,22,v,R,2026-02-25_12h17.07.184,VisualSearch_2526_3,,2025.2.4,2026-02-25 12h17.07.503114 +0100,
tilted.xlsx,The target is tilted.,117,68,4,8,0,1,1,1,1,1,1,1,0,0,0,0,1,7,8,117,space,19.58673970000018,None,1,0,1.724165499999799,None,space,3.9168902999999773,None,0,0,0,0,,,,,8,4,68,5,216.43384920000062,,,,,,,,,,,,,,,,,,,,,216.4179363000003,216.43384920000062,216.91758830000072,216.92203880000034,216.9406613000001,218.66793899999993,,,,,218.66815040000074,218.68301450000035,218.88360720000037,218.86715800000002,216.9406613000001,,,,,,,,1,0,1.724165499999799,None,,,,,,,,819,22,v,R,2026-02-25_12h17.07.184,VisualSearch_2526_3,,2025.2.4,2026-02-25 12h17.07.503114 +0100,
tilted.xlsx,The target is tilted.,117,69,5,8,1,1,1,1,1,1,1,1,0,0,0,0,0,7,8,117,space,19.58673970000018,None,0,0,3.457207099999323,None,space,3.9168902999999773,None,0,0,0,0,,,,,8,5,69,1,218.88360720000037,,,,,,,,,,,,,,,,,,,,,218.86789900000076,218.88360720000037,219.3674006000001,219.37236570000005,219.39121780000005,222.85071330000028,,,,,222.8509169000008,222.86576850000074,223.06614590000027,223.05011340000055,219.39121780000005,,,,,,,,0,0,3.457207099999323,None,,,,,,,,819,22,v,R,2026-02-25_12h17.07.184,VisualSearch_2526_3,,2025.2.4,2026-02-25 12h17.07.503114 +0100,
tilted.xlsx,The target is tilted.,117,70,6,8,1,0,0,0,0,0,0,0,0,0,0,0,0,0,1,117,space,19.58673970000018,None,1,1,0.6878569000000425,None,space,3.9168902999999773,None,0,0,0,0,,,,,8,6,70,3,223.06614590000027,,,,,,,,,,,,,,,,,,,,,223.0509006000002,223.06614590000027,223.54981120000048,223.55438540000068,223.5733321000007,224.26708600000075,,,,,224.26728660000026,224.28217360000053,224.48267850000047,224.46636560000024,223.5733321000007,,,,,,,,1,1,0.6878569000000425,None,,,,,,,,819,22,v,R,2026-02-25_12h17.07.184,VisualSearch_2526_3,,2025.2.4,2026-02-25 12h17.07.503114 +0100,
tilted.xlsx,The target is tilted.,117,71,7,8,0,0,0,0,0,0,0,0,0,0,0,0,1,1,1,117,space,19.58673970000018,None,0,1,0.5626166000001831,None,space,3.9168902999999773,None,0,0,0,0,,,,,8,7,71,7,224.48267850000047,,,,,,,,,,,,,,,,,,,,,224.46711830000004,224.48267850000047,224.96627630000057,224.97089550000055,224.98967410000023,225.56585799999993,,,,,225.5659841000006,225.58182900000065,225.78252820000034,225.76616869999998,224.98967410000023,,,,,,,,0,1,0.5626166000001831,None,,,,,,,,819,22,v,R,2026-02-25_12h17.07.184,VisualSearch_2526_3,,2025.2.4,2026-02-25 12h17.07.503114 +0100,
tilted.xlsx,The target is tilted.,117,72,0,9,1,1,1,1,1,1,1,1,1,1,1,1,0,11,12,117,space,19.58673970000018,None,1,1,1.4843362000001434,None,space,3.9168902999999773,None,0,0,0,0,,,,,9,0,72,0,225.78252820000034,,,,,,,,,,,,,,,,,,,,,225.76692380000077,225.78252820000034,226.2661564,226.27055180000025,226.28229370000008,227.782287,,,,,227.7824066000003,227.79821840000022,,227.9826051,226.28229370000008,,,,,,,,1,1,1.4843362000001434,None,,,,,,,,819,22,v,R,2026-02-25_12h17.07.184,VisualSearch_2526_3,,2025.2.4,2026-02-25 12h17.07.503114 +0100,
tilted.xlsx,The target is tilted.,117,73,1,9,1,1,1,1,1,1,1,1,0,0,0,0,0,7,8,117,space,19.58673970000018,None,1,1,1.7255721999999878,None,space,3.9168902999999773,None,0,0,0,0,,,,,9,1,73,1,227.99890850000065,,,,,,,,,,,,,,,,,,,,,227.98346530000072,227.99890850000065,228.4825948000007,228.48777080000036,228.50759110000035,230.24898790000043,,,,,230.24923340000078,230.2646949,230.46511790000022,230.4489833000007,,,,,,,,,1,1,1.7255721999999878,None,,,,,,,,819,22,v,R,2026-02-25_12h17.07.184,VisualSearch_2526_3,,2025.2.4,2026-02-25 12h17.07.503114 +0100,
tilted.xlsx,The target is tilted.,117,74,2,9,0,1,1,1,1,1,1,1,0,0,0,0,1,7,8,117,space,19.58673970000018,None,1,0,1.1611401000000114,None,space,3.9168902999999773,None,0,0,0,0,,,,,9,2,74,5,230.46511790000022,,,,,,,,,,,,,,,,,,,,,230.4497265,230.46511790000022,230.94894680000016,230.95342000000073,230.97142390000045,232.14875180000035,,,,,232.1489618000005,232.16443450000043,232.36494670000047,232.34880909999993,230.97142390000045,,,,,,,,1,0,1.1611401000000114,None,,,,,,,,819,22,v,R,2026-02-25_12h17.07.184,VisualSearch_2526_3,,2025.2.4,2026-02-25 12h17.07.503114 +0100,
tilted.xlsx,The target is tilted.,117,75,3,9,1,1,1,1,0,0,0,0,0,0,0,0,0,3,4,117,space,19.58673970000018,None,1,1,1.0571550000004208,None,space,3.9168902999999773,None,0,0,0,0,,,,,9,3,75,2,232.36494670000047,,,,,,,,,,,,,,,,,,,,,232.34954930000004,232.36494670000047,232.84866779999993,232.8532995000005,232.87213200000042,233.93251820000023,,,,,233.9327445000008,233.9472676000005,234.14795400000003,234.13183290000052,232.87213200000042,,,,,,,,1,1,1.0571550000004208,None,,,,,,,,819,22,v,R,2026-02-25_12h17.07.184,VisualSearch_2526_3,,2025.2.4,2026-02-25 12h17.07.503114 +0100,
tilted.xlsx,The target is tilted.,117,76,4,9,0,1,1,1,1,1,1,1,1,1,1,1,1,11,12,117,space,19.58673970000018,None,0,1,2.7207164000001285,None,space,3.9168902999999773,None,0,0,0,0,,,,,9,4,76,4,234.14795400000003,,,,,,,,,,,,,,,,,,,,,234.13256280000041,234.14795400000003,234.63138740000068,234.63422010000068,234.64775230000032,237.38132190000033,,,,,237.3815499000002,237.3970175000004,237.5973399000004,237.5812622000003,234.64775230000032,,,,,,,,0,1,2.7207164000001285,None,,,,,,,,819,22,v,R,2026-02-25_12h17.07.184,VisualSearch_2526_3,,2025.2.4,2026-02-25 12h17.07.503114 +0100,
tilted.xlsx,The target is tilted.,117,77,5,9,1,0,0,0,0,0,0,0,0,0,0,0,0,0,1,117,space,19.58673970000018,None,1,1,0.6831326999999874,None,space,3.9168902999999773,None,0,0,0,0,,,,,9,5,77,3,237.5973399000004,,,,,,,,,,,,,,,,,,,,,237.58201520000057,237.5973399000004,238.0815758000008,238.08605520000037,238.1042724000008,238.79839730000003,,,,,238.79859130000023,238.8134958999999,239.0139865000001,238.99786370000038,238.1042724000008,,,,,,,,1,1,0.6831326999999874,None,,,,,,,,819,22,v,R,2026-02-25_12h17.07.184,VisualSearch_2526_3,,2025.2.4,2026-02-25 12h17.07.503114 +0100,
tilted.xlsx,The target is tilted.,117,78,6,9,0,0,0,0,0,0,0,0,0,0,0,0,1,1,1,117,space,19.58673970000018,None,0,1,0.6289145000000644,None,space,3.9168902999999773,None,0,0,0,0,,,,,9,6,78,7,239.0139865000001,,,,,,,,,,,,,,,,,,,,,238.9986985000005,239.0139865000001,239.49754440000015,239.50186370000029,239.5136966,240.14813910000066,,,,,240.1483487000005,240.16327450000063,240.36376100000052,240.34754460000022,239.5136966,,,,,,,,0,1,0.6289145000000644,None,,,,,,,,819,22,v,R,2026-02-25_12h17.07.184,VisualSearch_2526_3,,2025.2.4,2026-02-25 12h17.07.503114 +0100,
tilted.xlsx,The target is tilted.,117,79,7,9,0,1,1,1,0,0,0,0,0,0,0,0,1,3,4,117,space,19.58673970000018,None,0,1,1.0278010000001814,None,space,3.9168902999999773,None,0,0,0,0,,,,,9,7,79,6,240.36376100000052,,,,,,,,,,,,,,,,,,,,,240.34829760000048,240.36376100000052,240.84718710000016,240.8516894000004,240.87040909999996,241.9140539,,,,,241.91424730000017,241.92963430000054,242.13021340000068,242.11418970000068,240.87040909999996,,,,,,,,0,1,1.0278010000001814,None,,,,,,,,819,22,v,R,2026-02-25_12h17.07.184,VisualSearch_2526_3,,2025.2.4,2026-02-25 12h17.07.503114 +0100,
tilted.xlsx,The target is tilted.,117,80,0,10,1,0,0,0,0,0,0,0,0,0,0,0,0,0,1,117,space,19.58673970000018,None,1,1,0.5928063000001202,None,space,3.9168902999999773,None,0,0,0,0,,,,,10,0,80,3,242.13021340000068,,,,,,,,,,,,,,,,,,,,,242.11500109999997,242.13021340000068,242.61397990000023,242.6184363000002,242.6370147000007,243.23114200000055,,,,,243.23133510000025,243.2461430000003,243.44658450000043,243.4303871000002,242.6370147000007,,,,,,,,1,1,0.5928063000001202,None,,,,,,,,819,22,v,R,2026-02-25_12h17.07.184,VisualSearch_2526_3,,2025.2.4,2026-02-25 12h17.07.503114 +0100,
tilted.xlsx,The target is tilted.,117,81,1,10,0,1,1,1,1,1,1,1,1,1,1,1,1,11,12,117,space,19.58673970000018,None,0,1,2.5846959999998944,None,space,3.9168902999999773,None,0,0,0,0,,,,,10,1,81,4,243.44658450000043,,,,,,,,,,,,,,,,,,,,,243.43114220000007,243.44658450000043,243.93031240000073,243.93492050000077,243.95411420000073,246.5472361000002,,,,,246.5474279,246.56235580000066,246.76284310000028,246.74637800000073,243.95411420000073,,,,,,,,0,1,2.5846959999998944,None,,,,,,,,819,22,v,R,2026-02-25_12h17.07.184,VisualSearch_2526_3,,2025.2.4,2026-02-25 12h17.07.503114 +0100,
tilted.xlsx,The target is tilted.,117,82,2,10,0,1,1,1,0,0,0,0,0,0,0,0,1,3,4,117,space,19.58673970000018,None,0,1,1.0899404000001596,None,space,3.9168902999999773,None,0,0,0,0,,,,,10,2,82,6,246.76284310000028,,,,,,,,,,,,,,,,,,,,,246.74710190000042,246.76284310000028,247.24648190000062,247.2509501000004,247.26917800000047,248.36330110000017,,,,,248.3634916000001,248.37878050000018,248.57927950000067,248.56310900000062,247.26917800000047,,,,,,,,0,1,1.0899404000001596,None,,,,,,,,819,22,v,R,2026-02-25_12h17.07.184,VisualSearch_2526_3,,2025.2.4,2026-02-25 12h17.07.503114 +0100,
tilted.xlsx,The target is tilted.,117,83,3,10,0,1,1,1,1,1,1,1,0,0,0,0,1,7,8,117,space,19.58673970000018,None,0,1,2.2110586999997395,None,space,3.9168902999999773,None,0,0,0,0,,,,,10,3,83,5,248.57927950000067,,,,,,,,,,,,,,,,,,,,,248.56382630000007,248.57927950000067,249.06309899999997,249.0675686000004,249.08623570000054,251.3126942000008,,,,,251.3128970000007,251.3283538000005,251.52847230000043,251.51258730000063,249.08623570000054,,,,,,,,0,1,2.2110586999997395,None,,,,,,,,819,22,v,R,2026-02-25_12h17.07.184,VisualSearch_2526_3,,2025.2.4,2026-02-25 12h17.07.503114 +0100,
tilted.xlsx,The target is tilted.,117,84,4,10,0,0,0,0,0,0,0,0,0,0,0,0,1,1,1,117,space,19.58673970000018,None,0,1,1.2268402999998216,None,space,3.9168902999999773,None,0,0,0,0,,,,,10,4,84,7,251.52847230000043,,,,,,,,,,,,,,,,,,,,,251.51334709999992,251.52847230000043,252.01278290000027,252.0176207000004,252.03635850000046,253.27971789999992,,,,,253.27991569999995,253.29524710000078,253.49519039999996,253.47916350000014,252.03635850000046,,,,,,,,0,1,1.2268402999998216,None,,,,,,,,819,22,v,R,2026-02-25_12h17.07.184,VisualSearch_2526_3,,2025.2.4,2026-02-25 12h17.07.503114 +0100,
tilted.xlsx,The target is tilted.,117,85,5,10,1,1,1,1,0,0,0,0,0,0,0,0,0,3,4,117,space,19.58673970000018,None,1,1,1.0772203999995327,None,space,3.9168902999999773,None,0,0,0,0,,,,,10,5,85,2,253.49519039999996,,,,,,,,,,,,,,,,,,,,,253.47998170000028,253.49519039999996,253.97897720000037,253.98357770000075,254.00267520000034,255.0960053000008,,,,,255.09619999999995,255.11157360000016,255.31134800000018,255.29538760000014,254.00267520000034,,,,,,,,1,1,1.0772203999995327,None,,,,,,,,819,22,v,R,2026-02-25_12h17.07.184,VisualSearch_2526_3,,2025.2.4,2026-02-25 12h17.07.503114 +0100,
tilted.xlsx,The target is tilted.,117,86,6,10,1,1,1,1,1,1,1,1,1,1,1,1,0,11,12,117,space,19.58673970000018,None,1,1,0.9567513000001782,None,space,3.9168902999999773,None,0,0,0,0,,,,,10,6,86,0,255.31134800000018,,,,,,,,,,,,,,,,,,,,,255.29611920000025,255.31134800000018,255.79532990000007,255.7998335000002,255.81872470000053,256.77882190000037,,,,,256.7790165000006,256.7944935000005,256.99469490000047,256.97851210000044,255.81872470000053,,,,,,,,1,1,0.9567513000001782,None,,,,,,,,819,22,v,R,2026-02-25_12h17.07.184,VisualSearch_2526_3,,2025.2.4,2026-02-25 12h17.07.503114 +0100,
tilted.xlsx,The target is tilted.,117,87,7,10,1,1,1,1,1,1,1,1,0,0,0,0,0,7,8,117,space,19.58673970000018,None,1,1,0.7379305999993448,None,space,3.9168902999999773,None,0,0,0,0,,,,,10,7,87,1,256.99469490000047,,,,,,,,,,,,,,,,,,,,,256.9792623000003,256.99469490000047,257.4782660000001,257.48277450000023,257.50153800000044,258.24561770000037,,,,,258.2458273000002,258.2609059000006,258.46117159999994,258.44497649999994,257.50153800000044,,,,,,,,1,1,0.7379305999993448,None,,,,,,,,819,22,v,R,2026-02-25_12h17.07.184,VisualSearch_2526_3,,2025.2.4,2026-02-25 12h17.07.503114 +0100,
tilted.xlsx,The target is tilted.,117,88,0,11,0,1,1,1,1,1,1,1,0,0,0,0,1,7,8,117,space,19.58673970000018,None,0,1,2.5512326000007306,None,space,3.9168902999999773,None,0,0,0,0,,,,,11,0,88,5,258.46117159999994,,,,,,,,,,,,,,,,,,,,,258.4457291000008,258.46117159999994,258.9444181000008,258.9488474,258.96754090000013,261.5284829000002,,,,,261.52867380000043,261.5436649000003,261.7440095000002,261.7278930000002,258.96754090000013,,,,,,,,0,1,2.5512326000007306,None,,,,,,,,819,22,v,R,2026-02-25_12h17.07.184,VisualSearch_2526_3,,2025.2.4,2026-02-25 12h17.07.503114 +0100,
tilted.xlsx,The target is tilted.,117,89,1,11,1,1,1,1,0,0,0,0,0,0,0,0,0,3,4,117,space,19.58673970000018,None,1,1,1.0256271999996898,None,space,3.9168902999999773,None,0,0,0,0,,,,,11,1,89,2,261.7440095000002,,,,,,,,,,,,,,,,,,,,,261.7286114000008,261.7440095000002,262.2277610000001,262.2323847000007,262.2509499000007,263.2781562,,,,,263.2783515000001,263.2937159000003,263.49386330000016,263.4777569000007,262.2509499000007,,,,,,,,1,1,1.0256271999996898,None,,,,,,,,819,22,v,R,2026-02-25_12h17.07.184,VisualSearch_2526_3,,2025.2.4,2026-02-25 12h17.07.503114 +0100,
tilted.xlsx,The target is tilted.,117,90,2,11,0,0,0,0,0,0,0,0,0,0,0,0,1,1,1,117,space,19.58673970000018,None,0,1,0.6051084999999148,None,space,3.9168902999999773,None,0,0,0,0,,,,,11,2,90,7,263.49386330000016,,,,,,,,,,,,,,,,,,,,,263.4785741000005,263.49386330000016,263.97748279999996,263.9819503000008,264.00114230000054,264.6111342000004,,,,,264.6113260000002,264.6266753,264.8268697000003,264.8107626000001,264.00114230000054,,,,,,,,0,1,0.6051084999999148,None,,,,,,,,819,22,v,R,2026-02-25_12h17.07.184,VisualSearch_2526_3,,2025.2.4,2026-02-25 12h17.07.503114 +0100,
tilted.xlsx,The target is tilted.,117,91,3,11,1,1,1,1,1,1,1,1,1,1,1,1,0,11,12,117,space,19.58673970000018,None,1,1,2.3832153999992443,None,space,3.9168902999999773,None,0,0,0,0,,,,,11,3,91,0,264.8268697000003,,,,,,,,,,,,,,,,,,,,,264.8115719000007,264.8268697000003,265.3105574000001,265.31507450000026,265.33378130000074,267.72754050000003,,,,,267.72774990000016,267.7427796000002,267.9426723000006,267.9265047000008,265.33378130000074,,,,,,,,1,1,2.3832153999992443,None,,,,,,,,819,22,v,R,2026-02-25_12h17.07.184,VisualSearch_2526_3,,2025.2.4,2026-02-25 12h17.07.503114 +0100,
tilted.xlsx,The target is tilted.,117,92,4,11,1,1,1,1,1,1,1,1,0,0,0,0,0,7,8,117,space,19.58673970000018,None,1,1,1.2020333999998911,None,space,3.9168902999999773,None,0,0,0,0,,,,,11,4,92,1,267.9426723000006,,,,,,,,,,,,,,,,,,,,,267.92723380000007,267.9426723000006,268.4270581999999,268.4319432000002,268.45087480000075,269.66064350000033,,,,,269.66083440000057,269.6759630000006,269.8760663000003,269.8601815000002,268.45087480000075,,,,,,,,1,1,1.2020333999998911,None,,,,,,,,819,22,v,R,2026-02-25_12h17.07.184,VisualSearch_2526_3,,2025.2.4,2026-02-25 12h17.07.503114 +0100,
tilted.xlsx,The target is tilted.,117,93,5,11,0,1,1,1,0,0,0,0,0,0,0,0,1,3,4,117,space,19.58673970000018,None,0,1,0.6386339999999109,None,space,3.9168902999999773,None,0,0,0,0,,,,,11,5,93,6,269.8760663000003,,,,,,,,,,,,,,,,,,,,,269.86100930000066,269.8760663000003,270.35992520000036,270.3651281000002,270.38368770000034,271.02659230000063,,,,,271.0267104000004,271.04248780000034,271.2427121999999,271.22615900000073,270.38368770000034,,,,,,,,0,1,0.6386339999999109,None,,,,,,,,819,22,v,R,2026-02-25_12h17.07.184,VisualSearch_2526_3,,2025.2.4,2026-02-25 12h17.07.503114 +0100,
tilted.xlsx,The target is tilted.,117,94,6,11,1,0,0,0,0,0,0,0,0,0,0,0,0,0,1,117,space,19.58673970000018,None,1,1,0.5755742000001192,None,space,3.9168902999999773,None,0,0,0,0,,,,,11,6,94,3,271.2427121999999,,,,,,,,,,,,,,,,,,,,,271.2268677000002,271.2427121999999,271.7262509000002,271.73080070000015,271.7495684000005,272.32693720000043,,,,,272.3271360000008,272.3425307000007,272.5425135000005,272.5263433,271.7495684000005,,,,,,,,1,1,0.5755742000001192,None,,,,,,,,819,22,v,R,2026-02-25_12h17.07.184,VisualSearch_2526_3,,2025.2.4,2026-02-25 12h17.07.503114 +0100,
tilted.xlsx,The target is tilted.,117,95,7,11,0,1,1,1,1,1,1,1,1,1,1,1,1,11,12,117,space,19.58673970000018,None,0,1,2.672449699999561,None,space,3.9168902999999773,None,0,0,0,0,,,,,11,7,95,4,272.5425135000005,,,,,,,,,,,,,,,,,,,,,272.52708950000033,272.5425135000005,273.0259139,273.03045030000067,273.0493408000002,275.7261083000003,,,,,275.72631380000075,275.741943,275.94202680000035,275.92563580000024,273.0493408000002,,,,,,,,0,1,2.672449699999561,None,,,,,,,,819,22,v,R,2026-02-25_12h17.07.184,VisualSearch_2526_3,,2025.2.4,2026-02-25 12h17.07.503114 +0100,
tilted.xlsx,The target is tilted.,117,96,0,12,0,1,1,1,0,0,0,0,0,0,0,0,1,3,4,117,space,19.58673970000018,None,0,1,1.2221583000000464,None,space,3.9168902999999773,None,0,0,0,0,,,,,12,0,96,6,275.94202680000035,,,,,,,,,,,,,,,,,,,,,275.92636290000064,275.94202680000035,276.4254722000005,276.43001580000055,276.44862450000073,277.6760649000007,,,,,277.6762736999999,277.69138250000015,277.8915726000005,277.8755957000003,276.44862450000073,,,,,,,,0,1,1.2221583000000464,None,,,,,,,,819,22,v,R,2026-02-25_12h17.07.184,VisualSearch_2526_3,,2025.2.4,2026-02-25 12h17.07.503114 +0100,
tilted.xlsx,The target is tilted.,117,97,1,12,1,1,1,1,1,1,1,1,1,1,1,1,0,11,12,117,space,19.58673970000018,None,1,1,1.811666000000514,None,space,3.9168902999999773,None,0,0,0,0,,,,,12,1,97,0,277.8915726000005,,,,,,,,,,,,,,,,,,,,,277.8763568000004,277.8915726000005,278.3756155000001,278.3801147000004,278.3988981000002,280.2259481000001,,,,,280.2261660000004,280.24091110000063,280.4414002000003,280.4252653000003,278.3988981000002,,,,,,,,1,1,1.811666000000514,None,,,,,,,,819,22,v,R,2026-02-25_12h17.07.184,VisualSearch_2526_3,,2025.2.4,2026-02-25 12h17.07.503114 +0100,
tilted.xlsx,The target is tilted.,117,98,2,12,0,1,1,1,1,1,1,1,0,0,0,0,1,7,8,117,space,19.58673970000018,None,0,1,2.0092275999995763,None,space,3.9168902999999773,None,0,0,0,0,,,,,12,2,98,5,280.4414002000003,,,,,,,,,,,,,,,,,,,,,280.4259882000006,280.4414002000003,280.92530200000056,280.93036930000017,280.94908810000015,282.97550260000025,,,,,282.9757180000006,282.99091990000034,283.1909682000005,283.1747009999999,280.94908810000015,,,,,,,,0,1,2.0092275999995763,None,,,,,,,,819,22,v,R,2026-02-25_12h17.07.184,VisualSearch_2526_3,,2025.2.4,2026-02-25 12h17.07.503114 +0100,
tilted.xlsx,The target is tilted.,117,99,3,12,1,0,0,0,0,0,0,0,0,0,0,0,0,0,1,117,space,19.58673970000018,None,1,1,0.8401889000006122,None,space,3.9168902999999773,None,0,0,0,0,,,,,12,3,99,3,283.1909682000005,,,,,,,,,,,,,,,,,,,,,283.1754245000002,283.1909682000005,283.6748290000005,283.6793841000008,283.6981706000006,284.54167550000057,,,,,284.5418681000001,284.55728870000075,284.7573858000005,284.7411873000001,283.6981706000006,,,,,,,,1,1,0.8401889000006122,None,,,,,,,,819,22,v,R,2026-02-25_12h17.07.184,VisualSearch_2526_3,,2025.2.4,2026-02-25 12h17.07.503114 +0100,
tilted.xlsx,The target is tilted.,117,100,4,12,0,0,0,0,0,0,0,0,0,0,0,0,1,1,1,117,space,19.58673970000018,None,0,1,0.524976599999718,None,space,3.9168902999999773,None,0,0,0,0,,,,,12,4,100,7,284.7573858000005,,,,,,,,,,,,,,,,,,,,,284.7419503000001,284.7573858000005,285.2412611,285.24574100000063,285.2637476,285.7922414000004,,,,,285.79255009999997,285.8072114000006,286.00723990000006,285.99082760000056,285.2637476,,,,,,,,0,1,0.524976599999718,None,,,,,,,,819,22,v,R,2026-02-25_12h17.07.184,VisualSearch_2526_3,,2025.2.4,2026-02-25 12h17.07.503114 +0100,
tilted.xlsx,The target is tilted.,117,101,5,12,1,1,1,1,0,0,0,0,0,0,0,0,0,3,4,117,space,19.58673970000018,None,1,1,0.7402799000001323,None,space,3.9168902999999773,None,0,0,0,0,,,,,12,5,101,2,286.00723990000006,,,,,,,,,,,,,,,,,,,,,285.9915923000008,286.00723990000006,286.49101300000075,286.4954850000004,286.51428530000067,287.2579551000008,,,,,287.2581504,287.2730704000005,287.4738367,287.4577145000003,286.51428530000067,,,,,,,,1,1,0.7402799000001323,None,,,,,,,,819,22,v,R,2026-02-25_12h17.07.184,VisualSearch_2526_3,,2025.2.4,2026-02-25 12h17.07.503114 +0100,
tilted.xlsx,The target is tilted.,117,102,6,12,0,1,1,1,1,1,1,1,1,1,1,1,1,11,12,117,space,19.58673970000018,None,0,1,2.0723354000001564,None,space,3.9168902999999773,None,0,0,0,0,,,,,12,6,102,4,287.4738367,,,,,,,,,,,,,,,,,,,,,287.45849950000047,287.4738367,287.95742320000045,287.96193590000075,287.98068110000077,290.05747169999995,,,,,290.05766870000025,290.0731880000003,290.2732977000005,290.25703710000016,287.98068110000077,,,,,,,,0,1,2.0723354000001564,None,,,,,,,,819,22,v,R,2026-02-25_12h17.07.184,VisualSearch_2526_3,,2025.2.4,2026-02-25 12h17.07.503114 +0100,
tilted.xlsx,The target is tilted.,117,103,7,12,1,1,1,1,1,1,1,1,0,0,0,0,0,7,8,117,space,19.58673970000018,None,1,1,1.140790399999787,None,space,3.9168902999999773,None,0,0,0,0,,,,,12,7,103,1,290.2732977000005,,,,,,,,,,,,,,,,,,,,,290.25777240000025,290.2732977000005,290.75701560000016,290.7616181000003,290.7802255000006,291.92427150000003,,,,,291.92448610000065,291.9393262000003,292.13932060000025,292.12365950000003,290.7802255000006,,,,,,,,1,1,1.140790399999787,None,,,,,,,,819,22,v,R,2026-02-25_12h17.07.184,VisualSearch_2526_3,,2025.2.4,2026-02-25 12h17.07.503114 +0100,
tilted.xlsx,The target is tilted.,117,104,0,13,1,1,1,1,0,0,0,0,0,0,0,0,0,3,4,117,space,19.58673970000018,None,1,1,0.7258672000007209,None,space,3.9168902999999773,None,0,0,0,0,,,,,13,0,104,2,292.13932060000025,,,,,,,,,,,,,,,,,,,,,292.12439260000065,292.13932060000025,292.6229830000002,292.62745730000006,292.6461807000005,293.3733899000008,,,,,293.3735256,293.38916080000035,293.5890773000001,293.57320640000034,292.6461807000005,,,,,,,,1,1,0.7258672000007209,None,,,,,,,,819,22,v,R,2026-02-25_12h17.07.184,VisualSearch_2526_3,,2025.2.4,2026-02-25 12h17.07.503114 +0100,
tilted.xlsx,The target is tilted.,117,105,1,13,1,0,0,0,0,0,0,0,0,0,0,0,0,0,1,117,space,19.58673970000018,None,1,1,0.517931999999746,None,space,3.9168902999999773,None,0,0,0,0,,,,,13,1,105,3,293.5890773000001,,,,,,,,,,,,,,,,,,,,,293.5739435000005,293.5890773000001,294.07337430000007,294.0778405000001,294.0965698,294.62368180000067,,,,,294.6238761000004,294.63896320000003,294.83927829999993,294.8231386000007,294.0965698,,,,,,,,1,1,0.517931999999746,None,,,,,,,,819,22,v,R,2026-02-25_12h17.07.184,VisualSearch_2526_3,,2025.2.4,2026-02-25 12h17.07.503114 +0100,
tilted.xlsx,The target is tilted.,117,106,2,13,1,1,1,1,1,1,1,1,0,0,0,0,0,7,8,117,space,19.58673970000018,None,1,1,1.9691379999994751,None,space,3.9168902999999773,None,0,0,0,0,,,,,13,2,106,1,294.83927829999993,,,,,,,,,,,,,,,,,,,,,294.8238848000001,294.83927829999993,295.3233379000003,295.3278719,295.3470797,297.32333820000076,,,,,297.32353070000045,297.33896730000015,297.5389746999999,297.52290410000023,295.3470797,,,,,,,,1,1,1.9691379999994751,None,,,,,,,,819,22,v,R,2026-02-25_12h17.07.184,VisualSearch_2526_3,,2025.2.4,2026-02-25 12h17.07.503114 +0100,
tilted.xlsx,The target is tilted.,117,107,3,13,0,0,0,0,0,0,0,0,0,0,0,0,1,1,1,117,space,19.58673970000018,None,0,1,0.692511199999899,None,space,3.9168902999999773,None,0,0,0,0,,,,,13,3,107,7,297.5389746999999,,,,,,,,,,,,,,,,,,,,,297.52371100000073,297.5389746999999,298.02295630000026,298.0276644000005,298.0465101,298.75620830000025,,,,,298.75639910000064,298.77202430000034,298.9721115000002,298.9556883000005,298.0465101,,,,,,,,0,1,0.692511199999899,None,,,,,,,,819,22,v,R,2026-02-25_12h17.07.184,VisualSearch_2526_3,,2025.2.4,2026-02-25 12h17.07.503114 +0100,
tilted.xlsx,The target is tilted.,117,108,4,13,1,1,1,1,1,1,1,1,1,1,1,1,0,11,12,117,space,19.58673970000018,None,0,0,2.9778143000003183,None,space,3.9168902999999773,None,0,0,0,0,,,,,13,4,108,0,298.9721115000002,,,,,,,,,,,,,,,,,,,,,298.9565405000003,298.9721115000002,299.4557098000005,299.4604208999999,299.47911040000054,302.47261830000025,,,,,302.47281640000074,302.48817860000054,302.6878101000002,302.67204760000004,299.47911040000054,,,,,,,,0,0,2.9778143000003183,None,,,,,,,,819,22,v,R,2026-02-25_12h17.07.184,VisualSearch_2526_3,,2025.2.4,2026-02-25 12h17.07.503114 +0100,
tilted.xlsx,The target is tilted.,117,109,5,13,0,1,1,1,1,1,1,1,1,1,1,1,1,11,12,117,space,19.58673970000018,None,0,1,1.750789500000792,None,space,3.9168902999999773,None,0,0,0,0,,,,,13,5,109,4,302.6878101000002,,,,,,,,,,,,,,,,,,,,,302.6728855000001,302.6878101000002,303.1720341,303.17651620000015,303.1959428,304.95569240000077,,,,,304.9558885000006,304.97079080000003,305.17102520000026,305.15484470000047,303.1959428,,,,,,,,0,1,1.750789500000792,None,,,,,,,,819,22,v,R,2026-02-25_12h17.07.184,VisualSearch_2526_3,,2025.2.4,2026-02-25 12h17.07.503114 +0100,
tilted.xlsx,The target is tilted.,117,110,6,13,0,1,1,1,1,1,1,1,0,0,0,0,1,7,8,117,space,19.58673970000018,None,0,1,2.3789170000000013,None,space,3.9168902999999773,None,0,0,0,0,,,,,13,6,110,5,305.17102520000026,,,,,,,,,,,,,,,,,,,,,305.1555621000007,305.17102520000026,305.65493460000016,305.65926800000034,305.67099320000034,308.0550995000003,,,,,308.05530799999997,308.0706957000002,308.2706932000001,308.2544611000003,305.67099320000034,,,,,,,,0,1,2.3789170000000013,None,,,,,,,,819,22,v,R,2026-02-25_12h17.07.184,VisualSearch_2526_3,,2025.2.4,2026-02-25 12h17.07.503114 +0100,
tilted.xlsx,The target is tilted.,117,111,7,13,0,1,1,1,0,0,0,0,0,0,0,0,1,3,4,117,space,19.58673970000018,None,0,1,0.7978595999993559,None,space,3.9168902999999773,None,0,0,0,0,,,,,13,7,111,6,308.2706932000001,,,,,,,,,,,,,,,,,,,,,308.25520589999996,308.2706932000001,308.75449000000026,308.75883909999993,308.77055350000046,309.5717402,,,,,309.5719631000002,309.5868055000001,309.7869739000007,309.7702136000007,308.77055350000046,,,,,,,,0,1,0.7978595999993559,None,,,,,,,,819,22,v,R,2026-02-25_12h17.07.184,VisualSearch_2526_3,,2025.2.4,2026-02-25 12h17.07.503114 +0100,
tilted.xlsx,The target is tilted.,117,112,0,14,1,1,1,1,1,1,1,1,0,0,0,0,0,7,8,117,space,19.58673970000018,None,1,1,1.1756098000005295,None,space,3.9168902999999773,None,0,0,0,0,,,,,14,0,112,1,309.7869739000007,,,,,,,,,,,,,,,,,,,,,309.7706396000003,309.7869739000007,310.27106300000014,310.27587960000074,310.2918244000002,311.4709829000003,,,,,311.47118000000046,311.4868083000001,311.6866228000008,311.6707099000005,310.2918244000002,,,,,,,,1,1,1.1756098000005295,None,,,,,,,,819,22,v,R,2026-02-25_12h17.07.184,VisualSearch_2526_3,,2025.2.4,2026-02-25 12h17.07.503114 +0100,
tilted.xlsx,The target is tilted.,117,113,1,14,0,1,1,1,1,1,1,1,1,1,1,1,1,11,12,117,space,19.58673970000018,None,0,1,1.878498000000036,None,space,3.9168902999999773,None,0,0,0,0,,,,,14,1,113,4,311.6866228000008,,,,,,,,,,,,,,,,,,,,,311.6715170000007,311.6866228000008,312.1707384000001,312.17526369999996,312.1940075000002,314.0875353000001,,,,,314.08772820000013,314.10313750000023,314.3032000000003,314.2868404999999,312.1940075000002,,,,,,,,0,1,1.878498000000036,None,,,,,,,,819,22,v,R,2026-02-25_12h17.07.184,VisualSearch_2526_3,,2025.2.4,2026-02-25 12h17.07.503114 +0100,
tilted.xlsx,The target is tilted.,117,114,2,14,0,1,1,1,1,1,1,1,0,0,0,0,1,7,8,117,space,19.58673970000018,None,0,1,1.5474405999993905,None,space,3.9168902999999773,None,0,0,0,0,,,,,14,2,114,5,314.3032000000003,,,,,,,,,,,,,,,,,,,,,314.28766760000053,314.3032000000003,314.7870714999999,314.79236579999997,314.8112955000006,316.3707092000004,,,,,316.3709133000002,316.3861583000007,316.5859682,316.5698110000003,314.8112955000006,,,,,,,,0,1,1.5474405999993905,None,,,,,,,,819,22,v,R,2026-02-25_12h17.07.184,VisualSearch_2526_3,,2025.2.4,2026-02-25 12h17.07.503114 +0100,
tilted.xlsx,The target is tilted.,117,115,3,14,1,1,1,1,0,0,0,0,0,0,0,0,0,3,4,117,space,19.58673970000018,None,1,1,1.1551685999993424,None,space,3.9168902999999773,None,0,0,0,0,,,,,14,3,115,2,316.5859682,,,,,,,,,,,,,,,,,,,,,316.57062380000025,316.5859682,317.0701257999999,317.0746938000002,317.08667310000055,318.2537028000006,,,,,318.2538951000006,318.2689239000001,318.4693268000001,318.4531069000004,317.08667310000055,,,,,,,,1,1,1.1551685999993424,None,,,,,,,,819,22,v,R,2026-02-25_12h17.07.184,VisualSearch_2526_3,,2025.2.4,2026-02-25 12h17.07.503114 +0100,
tilted.xlsx,The target is tilted.,117,116,4,14,0,1,1,1,0,0,0,0,0,0,0,0,1,3,4,117,space,19.58673970000018,None,0,1,1.1482231999998476,None,space,3.9168902999999773,None,0,0,0,0,,,,,14,4,116,6,318.4693268000001,,,,,,,,,,,,,,,,,,,,,318.4538427000007,318.4693268000001,318.95298770000045,318.95752260000063,318.97685550000006,320.1367285000006,,,,,320.13694620000024,320.15199230000053,320.3519272000003,320.3358296000006,318.97685550000006,,,,,,,,0,1,1.1482231999998476,None,,,,,,,,819,22,v,R,2026-02-25_12h17.07.184,VisualSearch_2526_3,,2025.2.4,2026-02-25 12h17.07.503114 +0100,
tilted.xlsx,The target is tilted.,117,117,5,14,0,0,0,0,0,0,0,0,0,0,0,0,1,1,1,117,space,19.58673970000018,None,0,1,0.5084446000000753,None,space,3.9168902999999773,None,0,0,0,0,,,,,14,5,117,7,320.3519272000003,,,,,,,,,,,,,,,,,,,,,320.3366814000001,320.3519272000003,320.8359782000007,320.8405683000001,320.8585275000005,321.3700789000004,,,,,321.3702854000003,321.3851159000005,321.58509760000015,321.5694261000008,320.8585275000005,,,,,,,,0,1,0.5084446000000753,None,,,,,,,,819,22,v,R,2026-02-25_12h17.07.184,VisualSearch_2526_3,,2025.2.4,2026-02-25 12h17.07.503114 +0100,
tilted.xlsx,The target is tilted.,117,118,6,14,1,1,1,1,1,1,1,1,1,1,1,1,0,11,12,117,space,19.58673970000018,None,1,1,0.9432742000008147,None,space,3.9168902999999773,None,0,0,0,0,,,,,14,6,118,0,321.58509760000015,,,,,,,,,,,,,,,,,,,,,321.57027520000065,321.58509760000015,322.0693030000002,322.0737575000003,322.09259050000037,323.05306590000055,,,,,323.0532649000006,323.0685467000003,323.2685519000006,323.2524527000005,322.09259050000037,,,,,,,,1,1,0.9432742000008147,None,,,,,,,,819,22,v,R,2026-02-25_12h17.07.184,VisualSearch_2526_3,,2025.2.4,2026-02-25 12h17.07.503114 +0100,
tilted.xlsx,The target is tilted.,117,119,7,14,1,0,0,0,0,0,0,0,0,0,0,0,0,0,1,117,space,19.58673970000018,None,1,1,0.6523876999999629,None,space,3.9168902999999773,None,0,0,0,0,,,,,14,7,119,3,323.2685519000006,,,,,,,,,,,,,,,,,,,,,323.25316400000065,323.2685519000006,323.7521654000002,323.7568069000008,323.7756345000007,324.4361779999999,,,,,324.43637260000014,324.4513321000004,324.6692645000003,324.63501480000014,323.7756345000007,,,,,,,,1,1,0.6523876999999629,None,,,,,,,,819,22,v,R,2026-02-25_12h17.07.184,VisualSearch_2526_3,,2025.2.4,2026-02-25 12h17.07.503114 +0100,
tilted.xlsx,The target is tilted.,117,0,0,0,,,,,,,,,,,,,,,,,space,19.58673970000018,None,,,,,space,3.9168902999999773,None,0,0,0,0,,,,,,,,,,,,,,,,,,,,,,,,,,,,,,,,,,,,,,,,,,,,,,,,,,,,,,,,,,,,,,,819,22,v,R,2026-02-25_12h17.07.184,VisualSearch_2526_3,,2025.2.4,2026-02-25 12h17.07.503114 +0100,
vertical.xlsx,The target is tilted.,135,0,0,0,1,1,1,1,1,1,1,1,0,0,0,0,0,7,8,135,space,4.4716021999993245,None,1,1,0.8009498999999778,None,,,,0,1,1,1,0,0,0,1,,,,,329.18739040000037,,,,,,,,,,,,,,,324.6692645000003,324.6692645000003,324.6692645000003,space,4.4716021999993245,None,329.1827903000003,329.18739040000037,329.6680096,329.67313080000076,329.6918751000003,330.5019990999999,1,1,0.8009498999999778,None,330.5021929000004,330.5174558000008,330.7174875999999,330.7013884000007,,,,,,,,,,,,,,,,,,,,819,22,v,R,2026-02-25_12h17.07.184,VisualSearch_2526_3,,2025.2.4,2026-02-25 12h17.07.503114 +0100,
vertical.xlsx,The target is tilted.,135,1,1,0,0,1,1,1,1,1,1,1,0,0,0,0,1,7,8,135,space,4.4716021999993245,None,0,1,1.1251325000002907,None,,,,0,1,1,1,0,1,1,5,,,,,330.7174875999999,,,,,,,,,,,,,,,,,,,,,330.70207130000017,330.7174875999999,331.20119180000074,331.20569390000037,331.22498050000013,332.35173510000004,0,1,1.1251325000002907,None,332.3519401000003,332.3669620999999,332.5672714000002,332.5510640000002,331.22498050000013,,,,,,,,,,,,,,,,,,,819,22,v,R,2026-02-25_12h17.07.184,VisualSearch_2526_3,,2025.2.4,2026-02-25 12h17.07.503114 +0100,
vertical.xlsx,The target is tilted.,135,2,2,0,0,1,1,1,1,1,1,1,1,1,1,1,1,11,12,135,space,4.4716021999993245,None,0,1,2.380982700000459,None,,,,0,1,1,1,0,2,2,4,,,,,332.5672714000002,,,,,,,,,,,,,,,,,,,,,332.55183230000057,332.5672714000002,333.0506376000003,333.05505730000004,333.06692999999996,335.4512282000005,0,1,2.380982700000459,None,335.4514177000001,335.4665760000007,335.6668488000005,335.65045420000024,333.06692999999996,,,,,,,,,,,,,,,,,,,819,22,v,R,2026-02-25_12h17.07.184,VisualSearch_2526_3,,2025.2.4,2026-02-25 12h17.07.503114 +0100,
vertical.xlsx,The target is tilted.,135,3,3,0,0,0,0,0,0,0,0,0,0,0,0,0,1,1,1,135,space,4.4716021999993245,None,0,1,0.46816370000033203,None,,,,0,1,1,1,0,3,3,7,,,,,335.6668488000005,,,,,,,,,,,,,,,,,,,,,335.6511896000002,335.6668488000005,336.15058130000034,336.1552457000007,336.17400220000036,336.6510479000008,0,1,0.46816370000033203,None,336.65123350000067,336.6664988000002,336.86659360000067,336.8505124000003,336.17400220000036,,,,,,,,,,,,,,,,,,,819,22,v,R,2026-02-25_12h17.07.184,VisualSearch_2526_3,,2025.2.4,2026-02-25 12h17.07.503114 +0100,
vertical.xlsx,The target is tilted.,135,4,4,0,1,1,1,1,1,1,1,1,1,1,1,1,0,11,12,135,space,4.4716021999993245,None,1,1,1.3373712000002342,None,,,,0,1,1,1,0,4,4,0,,,,,336.86659360000067,,,,,,,,,,,,,,,,,,,,,336.8511774000008,336.86659360000067,337.3505047000008,337.35490560000017,337.36635300000034,338.7173812000001,1,1,1.3373712000002342,None,338.71758150000005,338.73300740000013,338.9329766000001,338.91667980000057,337.36635300000034,,,,,,,,,,,,,,,,,,,819,22,v,R,2026-02-25_12h17.07.184,VisualSearch_2526_3,,2025.2.4,2026-02-25 12h17.07.503114 +0100,
vertical.xlsx,The target is tilted.,135,5,5,0,0,1,1,1,0,0,0,0,0,0,0,0,1,3,4,135,space,4.4716021999993245,None,0,1,0.8135001000000557,None,,,,0,1,1,1,0,5,5,6,,,,,338.9329766000001,,,,,,,,,,,,,,,,,,,,,338.91738460000033,338.9329766000001,339.4166926000007,339.42187340000055,339.434115,340.2507041000008,0,1,0.8135001000000557,None,340.2509228000008,340.2660013000004,340.4661737000006,340.4499985000002,339.434115,,,,,,,,,,,,,,,,,,,819,22,v,R,2026-02-25_12h17.07.184,VisualSearch_2526_3,,2025.2.4,2026-02-25 12h17.07.503114 +0100,
vertical.xlsx,The target is tilted.,135,6,6,0,1,0,0,0,0,0,0,0,0,0,0,0,0,0,1,135,space,4.4716021999993245,None,1,1,0.4026965000002747,None,,,,0,1,1,1,0,6,6,3,,,,,340.4661737000006,,,,,,,,,,,,,,,,,,,,,340.45063990000017,340.4661737000006,340.94986169999993,340.9544880000003,340.97319229999994,341.3837192000001,1,1,0.4026965000002747,None,341.38391800000045,341.39928240000063,341.5991591000002,341.5828455000001,340.97319229999994,,,,,,,,,,,,,,,,,,,819,22,v,R,2026-02-25_12h17.07.184,VisualSearch_2526_3,,2025.2.4,2026-02-25 12h17.07.503114 +0100,
vertical.xlsx,The target is tilted.,135,7,7,0,1,1,1,1,0,0,0,0,0,0,0,0,0,3,4,135,space,4.4716021999993245,None,1,1,0.6787738000002719,None,,,,0,1,1,1,0,7,7,2,,,,,341.5991591000002,,,,,,,,,,,,,,,,,,,,,341.5834494999999,341.5991591000002,342.0825168000001,342.0851268000006,342.09905340000023,342.78360450000037,1,1,0.6787738000002719,None,342.78379270000005,342.79878350000035,342.99914590000026,342.9828686000001,342.09905340000023,,,,,,,,,,,,,,,,,,,819,22,v,R,2026-02-25_12h17.07.184,VisualSearch_2526_3,,2025.2.4,2026-02-25 12h17.07.503114 +0100,
vertical.xlsx,The target is tilted.,135,0,0,0,0,0,0,0,0,0,0,0,0,0,0,0,1,1,1,135,space,4.4716021999993245,None,0,1,0.8227778000000399,None,space,1.4711761000007755,None,0,1,1,1,,,,,0,0,0,7,344.5239607000003,,,,,,,,,,,,,,,,,,,,,344.51782920000005,344.5239607000003,344.999143,345.0038697,345.0226267000007,345.84951790000014,,,,,345.8497245000008,345.86531900000045,346.0650843000003,346.04908479999995,,342.9901125000006,342.99914590000026,342.99914590000026,344.48299380000026,space,1.4711761000007755,None,0,1,0.8227778000000399,None,,,,,,,,819,22,v,R,2026-02-25_12h17.07.184,VisualSearch_2526_3,,2025.2.4,2026-02-25 12h17.07.503114 +0100,
vertical.xlsx,The target is tilted.,135,1,1,0,1,1,1,1,1,1,1,1,0,0,0,0,0,7,8,135,space,4.4716021999993245,None,1,1,1.321092299999691,None,space,1.4711761000007755,None,0,1,1,1,,,,,0,1,1,1,346.0650843000003,,,,,,,,,,,,,,,,,,,,,346.0498339000005,346.0650843000003,346.54903640000066,346.55357900000035,346.5723345000006,347.8989302,,,,,347.89904730000035,347.91487230000075,348.11508070000036,348.0990436000002,346.5723345000006,,,,,,,,1,1,1.321092299999691,None,,,,,,,,819,22,v,R,2026-02-25_12h17.07.184,VisualSearch_2526_3,,2025.2.4,2026-02-25 12h17.07.503114 +0100,
vertical.xlsx,The target is tilted.,135,2,2,0,1,1,1,1,1,1,1,1,1,1,1,1,0,11,12,135,space,4.4716021999993245,None,0,0,1.2440538999999262,None,space,1.4711761000007755,None,0,1,1,1,,,,,0,2,2,0,348.11508070000036,,,,,,,,,,,,,,,,,,,,,348.0998685000004,348.11508070000036,348.59879550000005,348.60339509999994,348.6220955000008,349.8825820000002,,,,,349.8827755000002,349.8980614000002,350.0980636000004,350.0819723000004,348.6220955000008,,,,,,,,0,0,1.2440538999999262,None,,,,,,,,819,22,v,R,2026-02-25_12h17.07.184,VisualSearch_2526_3,,2025.2.4,2026-02-25 12h17.07.503114 +0100,
vertical.xlsx,The target is tilted.,135,3,3,0,1,1,1,1,0,0,0,0,0,0,0,0,0,3,4,135,space,4.4716021999993245,None,1,1,0.5978233000005275,None,space,1.4711761000007755,None,0,1,1,1,,,,,0,3,3,2,350.0980636000004,,,,,,,,,,,,,,,,,,,,,350.08270840000023,350.0980636000004,350.58189500000026,350.5864624000005,350.60503920000065,351.2152920000008,,,,,351.2154470000005,351.23119730000053,351.4309325000004,351.4152335000008,350.60503920000065,,,,,,,,1,1,0.5978233000005275,None,,,,,,,,819,22,v,R,2026-02-25_12h17.07.184,VisualSearch_2526_3,,2025.2.4,2026-02-25 12h17.07.503114 +0100,
vertical.xlsx,The target is tilted.,135,4,4,0,0,1,1,1,1,1,1,1,0,0,0,0,1,7,8,135,space,4.4716021999993245,None,0,1,0.9741619999995237,None,space,1.4711761000007755,None,0,1,1,1,,,,,0,4,4,5,351.4309325000004,,,,,,,,,,,,,,,,,,,,,351.41598780000004,351.4309325000004,351.9150137000006,351.91947860000073,351.9368125000001,352.91513810000015,,,,,352.9153316000002,352.9308866000001,353.13105050000013,353.1148772000006,351.9368125000001,,,,,,,,0,1,0.9741619999995237,None,,,,,,,,819,22,v,R,2026-02-25_12h17.07.184,VisualSearch_2526_3,,2025.2.4,2026-02-25 12h17.07.503114 +0100,
vertical.xlsx,The target is tilted.,135,5,5,0,1,0,0,0,0,0,0,0,0,0,0,0,0,0,1,135,space,4.4716021999993245,None,1,1,0.41722069999923406,None,space,1.4711761000007755,None,0,1,1,1,,,,,0,5,5,3,353.13105050000013,,,,,,,,,,,,,,,,,,,,,353.1156484000003,353.13105050000013,353.61491860000024,353.6200994999999,353.6387704000008,354.06525910000073,,,,,354.0654490000006,354.08042079999996,354.28063629999997,354.26379350000025,353.6387704000008,,,,,,,,1,1,0.41722069999923406,None,,,,,,,,819,22,v,R,2026-02-25_12h17.07.184,VisualSearch_2526_3,,2025.2.4,2026-02-25 12h17.07.503114 +0100,
vertical.xlsx,The target is tilted.,135,6,6,0,0,1,1,1,1,1,1,1,1,1,1,1,1,11,12,135,space,4.4716021999993245,None,0,1,1.1481832999998005,None,space,1.4711761000007755,None,0,1,1,1,,,,,0,6,6,4,354.28063629999997,,,,,,,,,,,,,,,,,,,,,354.26430210000035,354.28063629999997,354.76474490000055,354.76976490000015,354.78879099999995,355.94834020000053,,,,,355.94853390000026,355.9635212000003,356.1639167000003,356.14729460000035,354.78879099999995,,,,,,,,0,1,1.1481832999998005,None,,,,,,,,819,22,v,R,2026-02-25_12h17.07.184,VisualSearch_2526_3,,2025.2.4,2026-02-25 12h17.07.503114 +0100,
vertical.xlsx,The target is tilted.,135,7,7,0,0,1,1,1,0,0,0,0,0,0,0,0,1,3,4,135,space,4.4716021999993245,None,0,1,0.6755935999999565,None,space,1.4711761000007755,None,0,1,1,1,,,,,0,7,7,6,356.1639167000003,,,,,,,,,,,,,,,,,,,,,356.1480420000007,356.1639167000003,356.647285,356.6501386,356.6637567000007,357.34816990000036,,,,,357.3483657000006,357.36364980000053,357.56360530000075,357.54752740000004,356.6637567000007,,,,,,,,0,1,0.6755935999999565,None,,,,,,,,819,22,v,R,2026-02-25_12h17.07.184,VisualSearch_2526_3,,2025.2.4,2026-02-25 12h17.07.503114 +0100,
vertical.xlsx,The target is tilted.,135,8,0,1,0,0,0,0,0,0,0,0,0,0,0,0,1,1,1,135,space,4.4716021999993245,None,0,1,0.5051389999998719,None,space,1.4711761000007755,None,0,1,1,1,,,,,1,0,8,7,357.56360530000075,,,,,,,,,,,,,,,,,,,,,357.5482705000004,357.56360530000075,358.0473333,358.0520034000001,358.0710525000004,358.58122510000067,,,,,358.5814221999999,358.5966246000007,358.79675769999994,358.7807835000003,358.0710525000004,,,,,,,,0,1,0.5051389999998719,None,,,,,,,,819,22,v,R,2026-02-25_12h17.07.184,VisualSearch_2526_3,,2025.2.4,2026-02-25 12h17.07.503114 +0100,
vertical.xlsx,The target is tilted.,135,9,1,1,1,0,0,0,0,0,0,0,0,0,0,0,0,0,1,135,space,4.4716021999993245,None,1,1,0.4189732999993794,None,space,1.4711761000007755,None,0,1,1,1,,,,,1,1,9,3,358.79675769999994,,,,,,,,,,,,,,,,,,,,,358.78148170000077,358.79675769999994,359.2802255000006,359.2847612000005,359.3033421,359.7312584000001,,,,,359.73147880000033,359.74655750000056,359.94624470000053,359.9305568,359.3033421,,,,,,,,1,1,0.4189732999993794,None,,,,,,,,819,22,v,R,2026-02-25_12h17.07.184,VisualSearch_2526_3,,2025.2.4,2026-02-25 12h17.07.503114 +0100,
vertical.xlsx,The target is tilted.,135,10,2,1,0,1,1,1,0,0,0,0,0,0,0,0,1,3,4,135,space,4.4716021999993245,None,0,1,1.4554072999999335,None,space,1.4711761000007755,None,0,1,1,1,,,,,1,2,10,6,359.94624470000053,,,,,,,,,,,,,,,,,,,,,359.9312753000004,359.94624470000053,360.4304340000008,360.4349544000006,360.4541188000003,361.9138006000003,,,,,361.9139928000004,361.92971620000026,362.1297925000008,362.11375380000027,360.4541188000003,,,,,,,,0,1,1.4554072999999335,None,,,,,,,,819,22,v,R,2026-02-25_12h17.07.184,VisualSearch_2526_3,,2025.2.4,2026-02-25 12h17.07.503114 +0100,
vertical.xlsx,The target is tilted.,135,11,3,1,1,1,1,1,0,0,0,0,0,0,0,0,0,3,4,135,space,4.4716021999993245,None,1,1,0.46632880000015575,None,space,1.4711761000007755,None,0,1,1,1,,,,,1,3,11,2,362.1297925000008,,,,,,,,,,,,,,,,,,,,,362.1145471,362.1297925000008,362.6135501000008,362.61824070000057,362.63710489999994,363.11393210000006,,,,,363.1141268000001,363.1295871000002,363.3294078000008,363.31306660000064,362.63710489999994,,,,,,,,1,1,0.46632880000015575,None,,,,,,,,819,22,v,R,2026-02-25_12h17.07.184,VisualSearch_2526_3,,2025.2.4,2026-02-25 12h17.07.503114 +0100,
vertical.xlsx,The target is tilted.,135,12,4,1,0,1,1,1,1,1,1,1,1,1,1,1,1,11,12,135,space,4.4716021999993245,None,0,1,1.1473244999997405,None,space,1.4711761000007755,None,0,1,1,1,,,,,1,4,12,4,363.3294078000008,,,,,,,,,,,,,,,,,,,,,363.31379710000056,363.3294078000008,363.81287020000036,363.81738399999995,363.83613270000023,364.9969321000008,,,,,364.99712610000006,365.01250770000024,365.2125629000002,365.19612159999997,363.83613270000023,,,,,,,,0,1,1.1473244999997405,None,,,,,,,,819,22,v,R,2026-02-25_12h17.07.184,VisualSearch_2526_3,,2025.2.4,2026-02-25 12h17.07.503114 +0100,
vertical.xlsx,The target is tilted.,135,13,5,1,0,1,1,1,1,1,1,1,0,0,0,0,1,7,8,135,space,4.4716021999993245,None,0,1,1.1986309999992955,None,space,1.4711761000007755,None,0,1,1,1,,,,,1,5,13,5,365.2125629000002,,,,,,,,,,,,,,,,,,,,,365.19688980000046,365.2125629000002,365.6963506000002,365.7011824000001,365.7123769,366.9134029000006,,,,,366.91359310000007,366.9286090000005,367.12904400000025,367.11269900000025,365.7123769,,,,,,,,0,1,1.1986309999992955,None,,,,,,,,819,22,v,R,2026-02-25_12h17.07.184,VisualSearch_2526_3,,2025.2.4,2026-02-25 12h17.07.503114 +0100,
vertical.xlsx,The target is tilted.,135,14,6,1,1,1,1,1,1,1,1,1,0,0,0,0,0,7,8,135,space,4.4716021999993245,None,1,1,0.733589800000118,None,space,1.4711761000007755,None,0,1,1,1,,,,,1,6,14,1,367.12904400000025,,,,,,,,,,,,,,,,,,,,,367.1134122000003,367.12904400000025,367.6126948000001,367.6172763000004,367.6363031000001,368.37977219999993,,,,,368.3799637000002,368.3951213,368.5948203000007,368.5794885000005,367.6363031000001,,,,,,,,1,1,0.733589800000118,None,,,,,,,,819,22,v,R,2026-02-25_12h17.07.184,VisualSearch_2526_3,,2025.2.4,2026-02-25 12h17.07.503114 +0100,
vertical.xlsx,The target is tilted.,135,15,7,1,1,1,1,1,1,1,1,1,1,1,1,1,0,11,12,135,space,4.4716021999993245,None,1,1,0.7730596000001242,None,space,1.4711761000007755,None,0,1,1,1,,,,,1,7,15,0,368.5948203000007,,,,,,,,,,,,,,,,,,,,,368.58027440000023,368.5948203000007,369.07940430000053,369.08410230000027,369.09490690000075,369.8795575000004,,,,,369.8797480000003,369.89499930000056,370.0951367000007,370.0790102000001,369.09490690000075,,,,,,,,1,1,0.7730596000001242,None,,,,,,,,819,22,v,R,2026-02-25_12h17.07.184,VisualSearch_2526_3,,2025.2.4,2026-02-25 12h17.07.503114 +0100,
vertical.xlsx,The target is tilted.,135,16,0,2,0,1,1,1,1,1,1,1,1,1,1,1,1,11,12,135,space,4.4716021999993245,None,0,1,1.119311899999957,None,space,1.4711761000007755,None,0,1,1,1,,,,,2,0,16,4,370.0951367000007,,,,,,,,,,,,,,,,,,,,,370.07976430000053,370.0951367000007,370.57881390000057,370.5833911,370.6021339000008,371.7293950000003,,,,,371.7296086000006,371.74464740000076,371.94507760000033,371.92880440000044,370.6021339000008,,,,,,,,0,1,1.119311899999957,None,,,,,,,,819,22,v,R,2026-02-25_12h17.07.184,VisualSearch_2526_3,,2025.2.4,2026-02-25 12h17.07.503114 +0100,
vertical.xlsx,The target is tilted.,135,17,1,2,1,1,1,1,1,1,1,1,1,1,1,1,0,11,12,135,space,4.4716021999993245,None,0,0,1.4062369000002946,None,space,1.4711761000007755,None,0,1,1,1,,,,,2,1,17,0,371.94507760000033,,,,,,,,,,,,,,,,,,,,,371.92954869999994,371.94507760000033,372.42845860000034,372.43294349999996,372.45159930000045,373.8616511,,,,,373.86171580000064,373.8774039,374.07788920000075,374.06142270000055,372.45159930000045,,,,,,,,0,0,1.4062369000002946,None,,,,,,,,819,22,v,R,2026-02-25_12h17.07.184,VisualSearch_2526_3,,2025.2.4,2026-02-25 12h17.07.503114 +0100,
vertical.xlsx,The target is tilted.,135,18,2,2,1,1,1,1,0,0,0,0,0,0,0,0,0,3,4,135,space,4.4716021999993245,None,0,0,0.5743558000003759,None,space,1.4711761000007755,None,0,1,1,1,,,,,2,2,18,2,374.07788920000075,,,,,,,,,,,,,,,,,,,,,374.0617168000008,374.07788920000075,374.56103520000033,374.56280270000025,374.5776969000008,375.16241790000004,,,,,375.16264910000064,375.17768200000046,375.37788160000036,375.3614400000006,374.5776969000008,,,,,,,,0,0,0.5743558000003759,None,,,,,,,,819,22,v,R,2026-02-25_12h17.07.184,VisualSearch_2526_3,,2025.2.4,2026-02-25 12h17.07.503114 +0100,
vertical.xlsx,The target is tilted.,135,19,3,2,1,1,1,1,1,1,1,1,0,0,0,0,0,7,8,135,space,4.4716021999993245,None,1,1,0.7138107000000673,None,space,1.4711761000007755,None,0,1,1,1,,,,,2,3,19,1,375.37788160000036,,,,,,,,,,,,,,,,,,,,,375.36232460000065,375.37788160000036,375.86176290000003,375.8668754,375.887796,376.6121526000006,,,,,376.6123735000001,376.62727780000023,376.8271220000006,376.8111177999999,375.887796,,,,,,,,1,1,0.7138107000000673,None,,,,,,,,819,22,v,R,2026-02-25_12h17.07.184,VisualSearch_2526_3,,2025.2.4,2026-02-25 12h17.07.503114 +0100,
vertical.xlsx,The target is tilted.,135,20,4,2,0,1,1,1,1,1,1,1,0,0,0,0,1,7,8,135,space,4.4716021999993245,None,0,1,0.6765445999999429,None,space,1.4711761000007755,None,0,1,1,1,,,,,2,4,20,5,376.8271220000006,,,,,,,,,,,,,,,,,,,,,376.81187410000075,376.8271220000006,377.3115348000001,377.31665990000056,377.3354139000003,378.02837590000036,,,,,378.0285683000002,378.0440862000005,378.24411130000044,378.22807270000067,377.3354139000003,,,,,,,,0,1,0.6765445999999429,None,,,,,,,,819,22,v,R,2026-02-25_12h17.07.184,VisualSearch_2526_3,,2025.2.4,2026-02-25 12h17.07.503114 +0100,
vertical.xlsx,The target is tilted.,135,21,5,2,0,1,1,1,0,0,0,0,0,0,0,0,1,3,4,135,space,4.4716021999993245,None,0,1,0.6661562999997841,None,space,1.4711761000007755,None,0,1,1,1,,,,,2,5,21,6,378.24411130000044,,,,,,,,,,,,,,,,,,,,,378.22887489999994,378.24411130000044,378.72747320000053,378.7319587000002,378.7506964000004,379.42832930000077,,,,,379.4285225000003,379.44353300000057,379.64387460000034,379.62783710000076,378.7506964000004,,,,,,,,0,1,0.6661562999997841,None,,,,,,,,819,22,v,R,2026-02-25_12h17.07.184,VisualSearch_2526_3,,2025.2.4,2026-02-25 12h17.07.503114 +0100,
vertical.xlsx,The target is tilted.,135,22,6,2,1,0,0,0,0,0,0,0,0,0,0,0,0,0,1,135,space,4.4716021999993245,None,1,1,0.47339329999977053,None,space,1.4711761000007755,None,0,1,1,1,,,,,2,6,22,3,379.64387460000034,,,,,,,,,,,,,,,,,,,,,379.62866209999993,379.64387460000034,380.12766360000023,380.1322983,380.15105050000057,380.62768159999996,,,,,380.6278731000002,380.6436831000001,380.84362469999996,380.8271555000001,380.15105050000057,,,,,,,,1,1,0.47339329999977053,None,,,,,,,,819,22,v,R,2026-02-25_12h17.07.184,VisualSearch_2526_3,,2025.2.4,2026-02-25 12h17.07.503114 +0100,
vertical.xlsx,The target is tilted.,135,23,7,2,0,0,0,0,0,0,0,0,0,0,0,0,1,1,1,135,space,4.4716021999993245,None,0,1,0.6597158000004129,None,space,1.4711761000007755,None,0,1,1,1,,,,,2,7,23,7,380.84362469999996,,,,,,,,,,,,,,,,,,,,,380.8278581000004,380.84362469999996,381.32708580000053,381.32969050000065,381.34344390000024,382.0109216999999,,,,,382.0111151000001,382.02656690000003,382.22675230000004,382.2107339000004,381.34344390000024,,,,,,,,0,1,0.6597158000004129,None,,,,,,,,819,22,v,R,2026-02-25_12h17.07.184,VisualSearch_2526_3,,2025.2.4,2026-02-25 12h17.07.503114 +0100,
vertical.xlsx,The target is tilted.,135,24,0,3,1,1,1,1,1,1,1,1,0,0,0,0,0,7,8,135,space,4.4716021999993245,None,1,1,1.0305378000002747,None,space,1.4711761000007755,None,0,1,1,1,,,,,3,0,24,1,382.22675230000004,,,,,,,,,,,,,,,,,,,,,382.21145610000076,382.22675230000004,382.7106237000007,382.71523120000074,382.7339099999999,383.7773986000002,,,,,383.77759180000066,383.7929118000002,383.99309580000045,383.9770791000001,382.7339099999999,,,,,,,,1,1,1.0305378000002747,None,,,,,,,,819,22,v,R,2026-02-25_12h17.07.184,VisualSearch_2526_3,,2025.2.4,2026-02-25 12h17.07.503114 +0100,
vertical.xlsx,The target is tilted.,135,25,1,3,1,1,1,1,1,1,1,1,1,1,1,1,0,11,12,135,space,4.4716021999993245,None,0,0,0.8879694000006566,None,space,1.4711761000007755,None,0,1,1,1,,,,,3,1,25,0,383.99309580000045,,,,,,,,,,,,,,,,,,,,,383.9778272000003,383.99309580000045,384.4765305000001,384.4811447000002,384.49774120000075,385.3941867000003,,,,,385.3943782000006,385.4093195000005,385.60956970000007,385.59345810000013,384.49774120000075,,,,,,,,0,0,0.8879694000006566,None,,,,,,,,819,22,v,R,2026-02-25_12h17.07.184,VisualSearch_2526_3,,2025.2.4,2026-02-25 12h17.07.503114 +0100,
vertical.xlsx,The target is tilted.,135,26,2,3,0,1,1,1,0,0,0,0,0,0,0,0,1,3,4,135,space,4.4716021999993245,None,0,1,0.9119589000001724,None,space,1.4711761000007755,None,0,1,1,1,,,,,3,2,26,6,385.60956970000007,,,,,,,,,,,,,,,,,,,,,385.59420930000033,385.60956970000007,386.0930822,386.0957146999999,386.1093572,387.02709400000003,,,,,387.02728620000016,387.04276500000014,387.2425006000003,387.2264726000003,386.1093572,,,,,,,,0,1,0.9119589000001724,None,,,,,,,,819,22,v,R,2026-02-25_12h17.07.184,VisualSearch_2526_3,,2025.2.4,2026-02-25 12h17.07.503114 +0100,
vertical.xlsx,The target is tilted.,135,27,3,3,0,0,0,0,0,0,0,0,0,0,0,0,1,1,1,135,space,4.4716021999993245,None,0,1,0.5144898999997167,None,space,1.4711761000007755,None,0,1,1,1,,,,,3,3,27,7,387.2425006000003,,,,,,,,,,,,,,,,,,,,,387.22720350000054,387.2425006000003,387.7264051000002,387.7309785000007,387.74972049999997,388.2767483000007,,,,,388.2769409000002,388.29255510000075,388.4926406000004,388.47622500000034,387.74972049999997,,,,,,,,0,1,0.5144898999997167,None,,,,,,,,819,22,v,R,2026-02-25_12h17.07.184,VisualSearch_2526_3,,2025.2.4,2026-02-25 12h17.07.503114 +0100,
vertical.xlsx,The target is tilted.,135,28,4,3,1,1,1,1,0,0,0,0,0,0,0,0,0,3,4,135,space,4.4716021999993245,None,1,1,0.47204229999988456,None,space,1.4711761000007755,None,0,1,1,1,,,,,3,4,28,2,388.4926406000004,,,,,,,,,,,,,,,,,,,,,388.4769388000004,388.4926406000004,388.97630500000014,388.9799602000003,388.9934591000001,389.4768040000008,,,,,389.4770103999999,389.4924183000003,389.69250080000074,389.67590930000006,388.9934591000001,,,,,,,,1,1,0.47204229999988456,None,,,,,,,,819,22,v,R,2026-02-25_12h17.07.184,VisualSearch_2526_3,,2025.2.4,2026-02-25 12h17.07.503114 +0100,
vertical.xlsx,The target is tilted.,135,29,5,3,0,1,1,1,1,1,1,1,1,1,1,1,1,11,12,135,space,4.4716021999993245,None,0,1,0.9924392000002626,None,space,1.4711761000007755,None,0,1,1,1,,,,,3,5,29,4,389.69250080000074,,,,,,,,,,,,,,,,,,,,,389.6766279000003,389.69250080000074,390.17589810000027,390.18048200000067,390.1992818000008,391.19324210000013,,,,,391.1934314,391.20870360000026,391.4082242000004,391.3919523000004,390.1992818000008,,,,,,,,0,1,0.9924392000002626,None,,,,,,,,819,22,v,R,2026-02-25_12h17.07.184,VisualSearch_2526_3,,2025.2.4,2026-02-25 12h17.07.503114 +0100,
vertical.xlsx,The target is tilted.,135,30,6,3,0,1,1,1,1,1,1,1,0,0,0,0,1,7,8,135,space,4.4716021999993245,None,0,1,1.2267618000005314,None,space,1.4711761000007755,None,0,1,1,1,,,,,3,6,30,5,391.4082242000004,,,,,,,,,,,,,,,,,,,,,391.39243540000007,391.4082242000004,391.8928676000005,391.89785269999993,391.91665450000073,393.15970520000064,,,,,393.1599120000001,393.1751438000001,393.37507860000005,393.35905730000013,391.91665450000073,,,,,,,,0,1,1.2267618000005314,None,,,,,,,,819,22,v,R,2026-02-25_12h17.07.184,VisualSearch_2526_3,,2025.2.4,2026-02-25 12h17.07.503114 +0100,
vertical.xlsx,The target is tilted.,135,31,7,3,1,0,0,0,0,0,0,0,0,0,0,0,0,0,1,135,space,4.4716021999993245,None,1,1,0.6739660000002914,None,space,1.4711761000007755,None,0,1,1,1,,,,,3,7,31,3,393.37507860000005,,,,,,,,,,,,,,,,,,,,,393.35983340000075,393.37507860000005,393.8589288000003,393.86346760000015,393.8823015000007,394.5595518,,,,,394.55974420000075,394.5746951000001,394.7751137000005,394.7589187000003,393.8823015000007,,,,,,,,1,1,0.6739660000002914,None,,,,,,,,819,22,v,R,2026-02-25_12h17.07.184,VisualSearch_2526_3,,2025.2.4,2026-02-25 12h17.07.503114 +0100,
vertical.xlsx,The target is tilted.,135,32,0,4,0,1,1,1,1,1,1,1,1,1,1,1,1,11,12,135,space,4.4716021999993245,None,0,1,1.0652933999999732,None,space,1.4711761000007755,None,0,1,1,1,,,,,4,0,32,4,394.7751137000005,,,,,,,,,,,,,,,,,,,,,394.7596302000002,394.7751137000005,395.2584686,395.2630385000002,395.28179960000034,396.3591712000007,,,,,396.3593653000007,396.3747876000007,396.57480140000007,396.55858250000074,395.28179960000034,,,,,,,,0,1,1.0652933999999732,None,,,,,,,,819,22,v,R,2026-02-25_12h17.07.184,VisualSearch_2526_3,,2025.2.4,2026-02-25 12h17.07.503114 +0100,
vertical.xlsx,The target is tilted.,135,33,1,4,0,1,1,1,0,0,0,0,0,0,0,0,1,3,4,135,space,4.4716021999993245,None,0,1,0.6086034999998446,None,space,1.4711761000007755,None,0,1,1,1,,,,,4,1,33,6,396.57480140000007,,,,,,,,,,,,,,,,,,,,,396.55934400000024,396.57480140000007,397.0586452000007,397.06316330000027,397.08182579999993,397.69238470000073,,,,,397.6925770000007,397.70768900000076,397.9079606000005,397.89179420000073,397.08182579999993,,,,,,,,0,1,0.6086034999998446,None,,,,,,,,819,22,v,R,2026-02-25_12h17.07.184,VisualSearch_2526_3,,2025.2.4,2026-02-25 12h17.07.503114 +0100,
