file_name,block_instructions,target_example,thisN,thisTrialN,thisRepN,target_presence,opacity_1,opacity_2,opacity_3,opacity_4,opacity_5,opacity_6,opacity_7,opacity_8,opacity_9,opacity_10,opacity_11,opacity_12,n_distract,n_items,target_ori,key_resp_4.keys,key_resp_4.rt,key_resp_4.duration,key_resp.keys,key_resp.corr,key_resp.rt,key_resp.duration,key_resp_5.keys,key_resp_5.rt,key_resp_5.duration,blocks.thisRepN,blocks.thisTrialN,blocks.thisN,blocks.thisIndex,practice_trials.thisRepN,practice_trials.thisTrialN,practice_trials.thisN,practice_trials.thisIndex,trials.thisRepN,trials.thisTrialN,trials.thisN,trials.thisIndex,thisRow.t,notes,Welcome.started,WelcomeText.started,key_resp_2.started,Welcome.stopped,key_resp_2.keys,key_resp_2.rt,key_resp_2.duration,InformedConsent.started,text_4.started,InformedConsent.stopped,key_resp_6.keys,key_resp_6.rt,key_resp_6.duration,key_resp_4.started,example_target.started,text_3.started,blocks.key_resp_4.keys,blocks.key_resp_4.rt,blocks.key_resp_4.duration,FixCross.started,fixCross.started,FixCross.stopped,Stimulus.started,key_resp.started,Stimulus.stopped,practice_trials.key_resp.keys,practice_trials.key_resp.corr,practice_trials.key_resp.rt,practice_trials.key_resp.duration,BlankScreen.started,text.started,text.stopped,BlankScreen.stopped,fixCross.stopped,ExperimentStart.started,text_2.started,key_resp_5.started,ExperimentStart.stopped,blocks.key_resp_5.keys,blocks.key_resp_5.rt,blocks.key_resp_5.duration,trials.key_resp.keys,trials.key_resp.corr,trials.key_resp.rt,trials.key_resp.duration,Thanks.started,ThankYou.started,key_resp_3.started,Thanks.stopped,key_resp_3.keys,key_resp_3.rt,key_resp_3.duration,participant,leeftijd,gender,links/rechtshandig,date,expName,expVersion,psychopyVersion,expStart,
,,,,,,,,,,,,,,,,,,,,,,,,,,,,,,,,,,,,,,,,,,,,,,0.028283100000408012,0.046291600000586186,0.046291600000586186,5.698064500000328,space,5.635769100000289,None,,,,,,,,,,,,,,,,,,,,,,,,,,,,,,,,,,,,,,,,,,,,,,820,19,M,R,2026-02-25_12h29.02.473,VisualSearch_2526_3,,2025.2.4,2026-02-25 12h29.02.780757 +0100,
,,,,,,,,,,,,,,,,,,,,,,,,,,,,,,,,,,,,,,,,,,,,,,,,,,,,,5.698203500000091,5.7070081000001665,8.552028500000233,y,2.849116200000026,None,,,,,,,,,,,,,,,,,,,,,,,,,,,,,,,,,,,,,,,,820,19,M,R,2026-02-25_12h29.02.473,VisualSearch_2526_3,,2025.2.4,2026-02-25 12h29.02.780757 +0100,
tilted.xlsx,The target is tilted.,117,0,0,0,1,0,0,0,0,0,0,0,0,0,0,0,0,0,1,117,space,5.216294599999856,None,1,1,0.7082755000001271,None,,,,0,0,0,0,0,0,0,3,,,,,13.8546237999999,,,,,,,,,,,,,,,8.598716299999978,8.598716299999978,8.598716299999978,space,5.216294599999856,None,13.848417700000027,13.8546237999999,14.333899700000075,14.338686099999904,14.356987600000139,15.067948599999909,1,1,0.7082755000001271,None,15.068188100000043,15.083473499999855,15.283341700000165,15.267456200000197,,,,,,,,,,,,,,,,,,,,820,19,M,R,2026-02-25_12h29.02.473,VisualSearch_2526_3,,2025.2.4,2026-02-25 12h29.02.780757 +0100,
tilted.xlsx,The target is tilted.,117,1,1,0,0,1,1,1,1,1,1,1,1,1,1,1,1,11,12,117,space,5.216294599999856,None,0,1,2.303229199999805,None,,,,0,0,0,0,0,1,1,4,,,,,15.283341700000165,,,,,,,,,,,,,,,,,,,,,15.268295099999705,15.283341700000165,15.766885000000002,15.771476200000507,15.783323100000416,18.100855200000296,0,1,2.303229199999805,None,18.101061399999708,18.116260100000545,18.316435300000194,18.300039100000504,15.783323100000416,,,,,,,,,,,,,,,,,,,820,19,M,R,2026-02-25_12h29.02.473,VisualSearch_2526_3,,2025.2.4,2026-02-25 12h29.02.780757 +0100,
tilted.xlsx,The target is tilted.,117,2,2,0,0,1,1,1,0,0,0,0,0,0,0,0,1,3,4,117,space,5.216294599999856,None,0,1,0.8702771999996912,None,,,,0,0,0,0,0,2,2,6,,,,,18.316435300000194,,,,,,,,,,,,,,,,,,,,,18.300773400000253,18.316435300000194,18.800101100000575,18.80470729999979,18.8238022000005,19.700570599999992,0,1,0.8702771999996912,None,19.700759199999993,19.715627499999755,19.916179400000146,19.90000990000044,18.8238022000005,,,,,,,,,,,,,,,,,,,820,19,M,R,2026-02-25_12h29.02.473,VisualSearch_2526_3,,2025.2.4,2026-02-25 12h29.02.780757 +0100,
tilted.xlsx,The target is tilted.,117,3,3,0,1,1,1,1,0,0,0,0,0,0,0,0,0,3,4,117,space,5.216294599999856,None,1,1,0.8860101000000213,None,,,,0,0,0,0,0,3,3,2,,,,,19.916179400000146,,,,,,,,,,,,,,,,,,,,,19.90066509999997,19.916179400000146,20.40014059999976,20.405015600000297,20.41587559999971,21.31641170000057,1,1,0.8860101000000213,None,21.316573199999766,21.331926800000474,21.532552300000134,21.516401400000177,20.41587559999971,,,,,,,,,,,,,,,,,,,820,19,M,R,2026-02-25_12h29.02.473,VisualSearch_2526_3,,2025.2.4,2026-02-25 12h29.02.780757 +0100,
tilted.xlsx,The target is tilted.,117,4,4,0,0,0,0,0,0,0,0,0,0,0,0,0,1,1,1,117,space,5.216294599999856,None,0,1,0.5760923000007097,None,,,,0,0,0,0,0,4,4,7,,,,,21.532552300000134,,,,,,,,,,,,,,,,,,,,,21.517090899999857,21.532552300000134,22.016332500000317,22.02106350000031,22.040492600000107,22.63289050000003,0,1,0.5760923000007097,None,22.633127500000228,22.64856719999989,22.848941899999772,22.832762600000024,22.040492600000107,,,,,,,,,,,,,,,,,,,820,19,M,R,2026-02-25_12h29.02.473,VisualSearch_2526_3,,2025.2.4,2026-02-25 12h29.02.780757 +0100,
tilted.xlsx,The target is tilted.,117,5,5,0,1,1,1,1,1,1,1,1,0,0,0,0,0,7,8,117,space,5.216294599999856,None,1,1,1.359841100000267,None,,,,0,0,0,0,0,5,5,1,,,,,22.848941899999772,,,,,,,,,,,,,,,,,,,,,22.833749500000522,22.848941899999772,23.332670700000563,23.337595200000578,23.356779700000516,24.732011500000226,1,1,1.359841100000267,None,24.73212860000058,24.748480299999756,24.948798600000373,24.932281899999907,23.356779700000516,,,,,,,,,,,,,,,,,,,820,19,M,R,2026-02-25_12h29.02.473,VisualSearch_2526_3,,2025.2.4,2026-02-25 12h29.02.780757 +0100,
tilted.xlsx,The target is tilted.,117,6,6,0,0,1,1,1,1,1,1,1,0,0,0,0,1,7,8,117,space,5.216294599999856,None,0,1,2.5919951000005312,None,,,,0,0,0,0,0,6,6,5,,,,,24.948798600000373,,,,,,,,,,,,,,,,,,,,,24.932983499999864,24.948798600000373,25.4323830000003,25.437561599999754,25.455750900000567,28.04899590000059,0,1,2.5919951000005312,None,28.049183400000402,28.064491199999793,28.264935299999706,28.24871609999991,25.455750900000567,,,,,,,,,,,,,,,,,,,820,19,M,R,2026-02-25_12h29.02.473,VisualSearch_2526_3,,2025.2.4,2026-02-25 12h29.02.780757 +0100,
tilted.xlsx,The target is tilted.,117,7,7,0,1,1,1,1,1,1,1,1,1,1,1,1,0,11,12,117,space,5.216294599999856,None,1,1,1.7602084999998624,None,,,,0,0,0,0,0,7,7,0,,,,,28.264935299999706,,,,,,,,,,,,,,,,,,,,,28.249390800000583,28.264935299999706,28.74893990000055,28.754153099999712,28.766287100000227,30.531597500000316,1,1,1.7602084999998624,None,30.53171420000035,30.547241500000382,30.74746039999991,30.731976600000053,28.766287100000227,,,,,,,,,,,,,,,,,,,820,19,M,R,2026-02-25_12h29.02.473,VisualSearch_2526_3,,2025.2.4,2026-02-25 12h29.02.780757 +0100,
tilted.xlsx,The target is tilted.,117,0,0,0,0,0,0,0,0,0,0,0,0,0,0,0,1,1,1,117,space,5.216294599999856,None,0,1,0.9168101999994178,None,space,1.0020865999995294,None,0,0,0,0,,,,,0,0,0,7,31.789899700000205,,,,,,,,,,,,,,,,,,,,,31.786005800000567,31.789899700000205,32.26459530000011,32.26937139999973,32.28867850000006,33.214592000000266,,,,,33.21474660000058,33.230231399999866,33.43090519999987,33.4147125999998,,30.740051499999936,30.74746039999991,30.74746039999991,31.764189600000464,space,1.0020865999995294,None,0,1,0.9168101999994178,None,,,,,,,,820,19,M,R,2026-02-25_12h29.02.473,VisualSearch_2526_3,,2025.2.4,2026-02-25 12h29.02.780757 +0100,
tilted.xlsx,The target is tilted.,117,1,1,0,0,1,1,1,0,0,0,0,0,0,0,0,1,3,4,117,space,5.216294599999856,None,0,1,0.7057058000000325,None,space,1.0020865999995294,None,0,0,0,0,,,,,0,1,1,6,33.43090519999987,,,,,,,,,,,,,,,,,,,,,33.41545480000059,33.43090519999987,33.914686000000074,33.91917509999985,33.937598999999864,34.6483661000002,,,,,34.64856520000012,34.66349799999989,34.863997700000255,34.847945000000436,33.937598999999864,,,,,,,,0,1,0.7057058000000325,None,,,,,,,,820,19,M,R,2026-02-25_12h29.02.473,VisualSearch_2526_3,,2025.2.4,2026-02-25 12h29.02.780757 +0100,
tilted.xlsx,The target is tilted.,117,2,2,0,0,1,1,1,1,1,1,1,1,1,1,1,1,11,12,117,space,5.216294599999856,None,0,1,3.1670014999999694,None,space,1.0020865999995294,None,0,0,0,0,,,,,0,2,2,4,34.863997700000255,,,,,,,,,,,,,,,,,,,,,34.84864629999993,34.863997700000255,35.347540100000515,35.35212330000013,35.37118310000005,38.54767880000054,,,,,38.54787870000018,38.56299020000006,38.76329260000057,38.74714420000055,35.37118310000005,,,,,,,,0,1,3.1670014999999694,None,,,,,,,,820,19,M,R,2026-02-25_12h29.02.473,VisualSearch_2526_3,,2025.2.4,2026-02-25 12h29.02.780757 +0100,
tilted.xlsx,The target is tilted.,117,3,3,0,1,1,1,1,1,1,1,1,0,0,0,0,0,7,8,117,space,5.216294599999856,None,1,1,1.1963070000001608,None,space,1.0020865999995294,None,0,0,0,0,,,,,0,3,3,1,38.76329260000057,,,,,,,,,,,,,,,,,,,,,38.747887499999706,38.76329260000057,39.24726350000037,39.252478399999745,39.27152720000049,40.48035989999971,,,,,40.48058519999995,40.49607980000019,40.69655779999994,40.68051089999972,39.27152720000049,,,,,,,,1,1,1.1963070000001608,None,,,,,,,,820,19,M,R,2026-02-25_12h29.02.473,VisualSearch_2526_3,,2025.2.4,2026-02-25 12h29.02.780757 +0100,
tilted.xlsx,The target is tilted.,117,4,4,0,1,1,1,1,1,1,1,1,1,1,1,1,0,11,12,117,space,5.216294599999856,None,0,0,2.1018291000000318,None,space,1.0020865999995294,None,0,0,0,0,,,,,0,4,4,0,40.69655779999994,,,,,,,,,,,,,,,,,,,,,40.681262799999786,40.69655779999994,41.18019129999993,41.18480939999972,41.20401889999994,43.31437939999978,,,,,43.31457909999972,43.328920500000095,43.52948379999998,43.51322429999982,41.20401889999994,,,,,,,,0,0,2.1018291000000318,None,,,,,,,,820,19,M,R,2026-02-25_12h29.02.473,VisualSearch_2526_3,,2025.2.4,2026-02-25 12h29.02.780757 +0100,
tilted.xlsx,The target is tilted.,117,5,5,0,1,0,0,0,0,0,0,0,0,0,0,0,0,0,1,117,space,5.216294599999856,None,1,1,0.5938404999997147,None,space,1.0020865999995294,None,0,0,0,0,,,,,0,5,5,3,43.52948379999998,,,,,,,,,,,,,,,,,,,,,43.51405580000028,43.52948379999998,44.012930800000504,44.017582100000254,44.03650480000033,44.6467945000004,,,,,44.646994200000336,44.66213010000047,44.86249240000052,44.846455400000195,44.03650480000033,,,,,,,,1,1,0.5938404999997147,None,,,,,,,,820,19,M,R,2026-02-25_12h29.02.473,VisualSearch_2526_3,,2025.2.4,2026-02-25 12h29.02.780757 +0100,
tilted.xlsx,The target is tilted.,117,6,6,0,0,1,1,1,1,1,1,1,0,0,0,0,1,7,8,117,space,5.216294599999856,None,0,1,1.687478299999384,None,space,1.0020865999995294,None,0,0,0,0,,,,,0,6,6,5,44.86249240000052,,,,,,,,,,,,,,,,,,,,,44.8472711000004,44.86249240000052,45.34640579999996,45.35110369999984,45.37011970000003,47.06338229999983,,,,,47.06358270000055,47.07816600000024,47.27893690000019,47.26257750000059,45.37011970000003,,,,,,,,0,1,1.687478299999384,None,,,,,,,,820,19,M,R,2026-02-25_12h29.02.473,VisualSearch_2526_3,,2025.2.4,2026-02-25 12h29.02.780757 +0100,
tilted.xlsx,The target is tilted.,117,7,7,0,1,1,1,1,0,0,0,0,0,0,0,0,0,3,4,117,space,5.216294599999856,None,0,0,0.8858984000007695,None,space,1.0020865999995294,None,0,0,0,0,,,,,0,7,7,2,47.27893690000019,,,,,,,,,,,,,,,,,,,,,47.26331500000015,47.27893690000019,47.76236620000054,47.76706960000047,47.78620320000027,48.68021670000053,,,,,48.68041420000009,48.694788300000255,48.89528150000024,48.87918179999997,47.78620320000027,,,,,,,,0,0,0.8858984000007695,None,,,,,,,,820,19,M,R,2026-02-25_12h29.02.473,VisualSearch_2526_3,,2025.2.4,2026-02-25 12h29.02.780757 +0100,
tilted.xlsx,The target is tilted.,117,8,0,1,1,1,1,1,1,1,1,1,0,0,0,0,0,7,8,117,space,5.216294599999856,None,0,0,2.4908298000000286,None,space,1.0020865999995294,None,0,0,0,0,,,,,1,0,8,1,48.89528150000024,,,,,,,,,,,,,,,,,,,,,48.87993280000046,48.89528150000024,49.379194900000584,49.384259100000236,49.40330069999982,51.89614369999981,,,,,51.896518900000046,51.911183600000186,52.11115280000013,52.09533929999998,49.40330069999982,,,,,,,,0,0,2.4908298000000286,None,,,,,,,,820,19,M,R,2026-02-25_12h29.02.473,VisualSearch_2526_3,,2025.2.4,2026-02-25 12h29.02.780757 +0100,
tilted.xlsx,The target is tilted.,117,9,1,1,1,1,1,1,1,1,1,1,1,1,1,1,0,11,12,117,space,5.216294599999856,None,1,1,1.7438916000000972,None,space,1.0020865999995294,None,0,0,0,0,,,,,1,1,9,0,52.11115280000013,,,,,,,,,,,,,,,,,,,,,52.096165400000245,52.11115280000013,52.594815700000254,52.599439300000085,52.61860870000055,54.37837130000025,,,,,54.37862920000043,54.393866100000196,54.59452990000045,54.57833720000053,52.61860870000055,,,,,,,,1,1,1.7438916000000972,None,,,,,,,,820,19,M,R,2026-02-25_12h29.02.473,VisualSearch_2526_3,,2025.2.4,2026-02-25 12h29.02.780757 +0100,
tilted.xlsx,The target is tilted.,117,10,2,1,0,1,1,1,0,0,0,0,0,0,0,0,1,3,4,117,space,5.216294599999856,None,0,1,1.053839500000322,None,space,1.0020865999995294,None,0,0,0,0,,,,,1,2,10,6,54.59452990000045,,,,,,,,,,,,,,,,,,,,,54.57914440000059,54.59452990000045,55.07817320000049,55.082882300000165,55.101876800000355,56.16179920000013,,,,,56.16199560000041,56.17717670000002,56.37759660000029,56.36098700000002,55.101876800000355,,,,,,,,0,1,1.053839500000322,None,,,,,,,,820,19,M,R,2026-02-25_12h29.02.473,VisualSearch_2526_3,,2025.2.4,2026-02-25 12h29.02.780757 +0100,
tilted.xlsx,The target is tilted.,117,11,3,1,1,0,0,0,0,0,0,0,0,0,0,0,0,0,1,117,space,5.216294599999856,None,1,1,0.5621316000006118,None,space,1.0020865999995294,None,0,0,0,0,,,,,1,3,11,3,56.37759660000029,,,,,,,,,,,,,,,,,,,,,56.36174750000009,56.37759660000029,56.86132600000019,56.865856800000074,56.88260280000031,57.46127539999998,,,,,57.46149779999996,57.476948399999856,57.67712159999974,57.66111809999984,56.88260280000031,,,,,,,,1,1,0.5621316000006118,None,,,,,,,,820,19,M,R,2026-02-25_12h29.02.473,VisualSearch_2526_3,,2025.2.4,2026-02-25 12h29.02.780757 +0100,
tilted.xlsx,The target is tilted.,117,12,4,1,1,1,1,1,0,0,0,0,0,0,0,0,0,3,4,117,space,5.216294599999856,None,1,1,0.6935310999997455,None,space,1.0020865999995294,None,0,0,0,0,,,,,1,4,12,2,57.67712159999974,,,,,,,,,,,,,,,,,,,,,57.66196310000032,57.67712159999974,58.16139040000053,58.1663752000004,58.18466520000038,58.89385020000009,,,,,58.89397170000029,58.910378100000344,,59.09432480000032,58.18466520000038,,,,,,,,1,1,0.6935310999997455,None,,,,,,,,820,19,M,R,2026-02-25_12h29.02.473,VisualSearch_2526_3,,2025.2.4,2026-02-25 12h29.02.780757 +0100,
tilted.xlsx,The target is tilted.,117,13,5,1,0,1,1,1,1,1,1,1,1,1,1,1,1,11,12,117,space,5.216294599999856,None,0,1,3.8098906000004717,None,space,1.0020865999995294,None,0,0,0,0,,,,,1,5,13,4,59.1106219000003,,,,,,,,,,,,,,,,,,,,,59.09560320000037,59.1106219000003,59.594079800000145,59.59870940000019,59.61772360000032,63.443162499999744,,,,,63.443284900000435,63.459726500000215,,63.64360720000059,,,,,,,,,0,1,3.8098906000004717,None,,,,,,,,820,19,M,R,2026-02-25_12h29.02.473,VisualSearch_2526_3,,2025.2.4,2026-02-25 12h29.02.780757 +0100,
tilted.xlsx,The target is tilted.,117,14,6,1,0,0,0,0,0,0,0,0,0,0,0,0,1,1,1,117,space,5.216294599999856,None,0,1,0.6915555999994467,None,space,1.0020865999995294,None,0,0,0,0,,,,,1,6,14,7,63.65995050000038,,,,,,,,,,,,,,,,,,,,,63.64450949999991,63.65995050000038,64.14350060000015,64.14860709999994,64.1676594999999,64.86017880000054,,,,,64.86029830000007,64.87577380000039,65.07632079999985,65.06013580000035,,,,,,,,,0,1,0.6915555999994467,None,,,,,,,,820,19,M,R,2026-02-25_12h29.02.473,VisualSearch_2526_3,,2025.2.4,2026-02-25 12h29.02.780757 +0100,
tilted.xlsx,The target is tilted.,117,15,7,1,0,1,1,1,1,1,1,1,0,0,0,0,1,7,8,117,space,5.216294599999856,None,0,1,2.354780600000595,None,space,1.0020865999995294,None,0,0,0,0,,,,,1,7,15,5,65.07632079999985,,,,,,,,,,,,,,,,,,,,,65.06088499999987,65.07632079999985,65.56023060000007,65.56491499999993,65.58443549999993,67.94342810000035,,,,,67.94364020000012,67.95878170000015,68.1592284999997,68.14307129999997,65.58443549999993,,,,,,,,0,1,2.354780600000595,None,,,,,,,,820,19,M,R,2026-02-25_12h29.02.473,VisualSearch_2526_3,,2025.2.4,2026-02-25 12h29.02.780757 +0100,
tilted.xlsx,The target is tilted.,117,16,0,2,0,1,1,1,0,0,0,0,0,0,0,0,1,3,4,117,space,5.216294599999856,None,0,1,1.0150720000001456,None,space,1.0020865999995294,None,0,0,0,0,,,,,2,0,16,6,68.1592284999997,,,,,,,,,,,,,,,,,,,,,68.14380950000032,68.1592284999997,68.64300340000045,68.64755400000013,68.65920929999993,69.67678599999999,,,,,69.67699520000042,69.69181209999988,69.89239230000021,69.8763699000001,68.65920929999993,,,,,,,,0,1,1.0150720000001456,None,,,,,,,,820,19,M,R,2026-02-25_12h29.02.473,VisualSearch_2526_3,,2025.2.4,2026-02-25 12h29.02.780757 +0100,
tilted.xlsx,The target is tilted.,117,17,1,2,0,1,1,1,1,1,1,1,1,1,1,1,1,11,12,117,space,5.216294599999856,None,0,1,3.789060000000063,None,space,1.0020865999995294,None,0,0,0,0,,,,,2,1,17,4,69.89239230000021,,,,,,,,,,,,,,,,,,,,,69.8771671000004,69.89239230000021,70.37621790000048,70.38079999999991,70.3917878000002,74.19258549999995,,,,,74.19278269999995,74.2079076,74.40795700000035,74.39189850000002,70.3917878000002,,,,,,,,0,1,3.789060000000063,None,,,,,,,,820,19,M,R,2026-02-25_12h29.02.473,VisualSearch_2526_3,,2025.2.4,2026-02-25 12h29.02.780757 +0100,
tilted.xlsx,The target is tilted.,117,18,2,2,0,0,0,0,0,0,0,0,0,0,0,0,1,1,1,117,space,5.216294599999856,None,0,1,0.6886764999999286,None,space,1.0020865999995294,None,0,0,0,0,,,,,2,2,18,7,74.40795700000035,,,,,,,,,,,,,,,,,,,,,74.3926919000005,74.40795700000035,74.89199030000054,74.89665719999994,74.91572300000007,75.60903830000007,,,,,75.6092365000004,75.62432090000038,75.82490860000053,75.80895640000017,74.91572300000007,,,,,,,,0,1,0.6886764999999286,None,,,,,,,,820,19,M,R,2026-02-25_12h29.02.473,VisualSearch_2526_3,,2025.2.4,2026-02-25 12h29.02.780757 +0100,
tilted.xlsx,The target is tilted.,117,19,3,2,1,1,1,1,1,1,1,1,0,0,0,0,0,7,8,117,space,5.216294599999856,None,1,1,1.287760100000014,None,space,1.0020865999995294,None,0,0,0,0,,,,,2,3,19,1,75.82490860000053,,,,,,,,,,,,,,,,,,,,,75.80979620000016,75.82490860000053,76.30863020000015,76.31326020000051,76.33229250000022,77.62559740000052,,,,,77.62581080000018,77.64075010000033,77.84118529999978,77.82528910000019,76.33229250000022,,,,,,,,1,1,1.287760100000014,None,,,,,,,,820,19,M,R,2026-02-25_12h29.02.473,VisualSearch_2526_3,,2025.2.4,2026-02-25 12h29.02.780757 +0100,
tilted.xlsx,The target is tilted.,117,20,4,2,1,1,1,1,0,0,0,0,0,0,0,0,0,3,4,117,space,5.216294599999856,None,1,1,0.6122593000000052,None,space,1.0020865999995294,None,0,0,0,0,,,,,2,4,20,2,77.84118529999978,,,,,,,,,,,,,,,,,,,,,77.82609680000041,77.84118529999978,78.32498149999992,78.32971220000036,78.34919770000033,78.97485169999982,,,,,78.97507880000012,78.99049819999982,79.19063710000046,79.17484090000016,78.34919770000033,,,,,,,,1,1,0.6122593000000052,None,,,,,,,,820,19,M,R,2026-02-25_12h29.02.473,VisualSearch_2526_3,,2025.2.4,2026-02-25 12h29.02.780757 +0100,
tilted.xlsx,The target is tilted.,117,21,5,2,0,1,1,1,1,1,1,1,0,0,0,0,1,7,8,117,space,5.216294599999856,None,0,1,1.3943976000000475,None,space,1.0020865999995294,None,0,0,0,0,,,,,2,5,21,5,79.19063710000046,,,,,,,,,,,,,,,,,,,,,79.17561260000002,79.19063710000046,79.67476100000022,79.67954310000005,79.69901370000025,81.10789769999974,,,,,81.10812499999975,81.12354940000023,81.32400630000029,81.30754950000028,79.69901370000025,,,,,,,,0,1,1.3943976000000475,None,,,,,,,,820,19,M,R,2026-02-25_12h29.02.473,VisualSearch_2526_3,,2025.2.4,2026-02-25 12h29.02.780757 +0100,
tilted.xlsx,The target is tilted.,117,22,6,2,1,0,0,0,0,0,0,0,0,0,0,0,0,0,1,117,space,5.216294599999856,None,1,1,0.6295118999996703,None,space,1.0020865999995294,None,0,0,0,0,,,,,2,6,22,3,81.32400630000029,,,,,,,,,,,,,,,,,,,,,81.30829460000041,81.32400630000029,81.80808390000038,81.81331790000058,81.83156520000011,82.47437369999989,,,,,82.47460030000002,82.48999499999991,82.69047030000002,82.67426249999971,81.83156520000011,,,,,,,,1,1,0.6295118999996703,None,,,,,,,,820,19,M,R,2026-02-25_12h29.02.473,VisualSearch_2526_3,,2025.2.4,2026-02-25 12h29.02.780757 +0100,
tilted.xlsx,The target is tilted.,117,23,7,2,1,1,1,1,1,1,1,1,1,1,1,1,0,11,12,117,space,5.216294599999856,None,1,1,0.7625520000001416,None,space,1.0020865999995294,None,0,0,0,0,,,,,2,7,23,0,82.69047030000002,,,,,,,,,,,,,,,,,,,,,82.67500500000006,82.69047030000002,83.17429859999993,83.17879340000036,83.19778020000012,83.9737513,,,,,83.97387309999976,83.98968640000021,84.18990819999999,84.17357249999986,83.19778020000012,,,,,,,,1,1,0.7625520000001416,None,,,,,,,,820,19,M,R,2026-02-25_12h29.02.473,VisualSearch_2526_3,,2025.2.4,2026-02-25 12h29.02.780757 +0100,
tilted.xlsx,The target is tilted.,117,24,0,3,1,1,1,1,1,1,1,1,1,1,1,1,0,11,12,117,space,5.216294599999856,None,0,0,2.541895899999872,None,space,1.0020865999995294,None,0,0,0,0,,,,,3,0,24,0,84.18990819999999,,,,,,,,,,,,,,,,,,,,,84.17409950000001,84.18990819999999,84.6739878999997,84.67944650000027,84.69917280000027,87.25643620000028,,,,,87.2565569999997,87.27296780000052,,87.45689540000058,,,,,,,,,0,0,2.541895899999872,None,,,,,,,,820,19,M,R,2026-02-25_12h29.02.473,VisualSearch_2526_3,,2025.2.4,2026-02-25 12h29.02.780757 +0100,
tilted.xlsx,The target is tilted.,117,25,1,3,1,0,0,0,0,0,0,0,0,0,0,0,0,0,1,117,space,5.216294599999856,None,1,1,0.4981270999996923,None,space,1.0020865999995294,None,0,0,0,0,,,,,3,1,25,3,87.4731769,,,,,,,,,,,,,,,,,,,,,87.45777980000003,87.4731769,87.95684940000046,87.96158070000001,87.98046590000013,88.49077130000023,,,,,88.49097220000021,88.50585190000038,88.70640770000045,88.6900029999997,87.98046590000013,,,,,,,,1,1,0.4981270999996923,None,,,,,,,,820,19,M,R,2026-02-25_12h29.02.473,VisualSearch_2526_3,,2025.2.4,2026-02-25 12h29.02.780757 +0100,
tilted.xlsx,The target is tilted.,117,26,2,3,1,1,1,1,0,0,0,0,0,0,0,0,0,3,4,117,space,5.216294599999856,None,1,1,0.8890198999997665,None,space,1.0020865999995294,None,0,0,0,0,,,,,3,2,26,2,88.70640770000045,,,,,,,,,,,,,,,,,,,,,88.69082080000044,88.70640770000045,89.19009449999976,89.19523589999972,89.21359660000053,90.10626120000052,,,,,90.10638420000032,90.12209090000033,,90.3065219,89.21359660000053,,,,,,,,1,1,0.8890198999997665,None,,,,,,,,820,19,M,R,2026-02-25_12h29.02.473,VisualSearch_2526_3,,2025.2.4,2026-02-25 12h29.02.780757 +0100,
tilted.xlsx,The target is tilted.,117,27,3,3,0,1,1,1,1,1,1,1,0,0,0,0,1,7,8,117,space,5.216294599999856,None,0,1,2.5883559000003515,None,space,1.0020865999995294,None,0,0,0,0,,,,,3,3,27,5,90.32283950000055,,,,,,,,,,,,,,,,,,,,,90.3074058000002,90.32283950000055,90.80662080000002,90.81153489999997,90.83114250000017,93.42306009999993,,,,,93.42325950000031,93.43847970000024,93.63894260000052,93.62264260000029,90.83114250000017,,,,,,,,0,1,2.5883559000003515,None,,,,,,,,820,19,M,R,2026-02-25_12h29.02.473,VisualSearch_2526_3,,2025.2.4,2026-02-25 12h29.02.780757 +0100,
tilted.xlsx,The target is tilted.,117,28,4,3,1,1,1,1,1,1,1,1,0,0,0,0,0,7,8,117,space,5.216294599999856,None,1,1,1.8265779000003022,None,space,1.0020865999995294,None,0,0,0,0,,,,,3,4,28,1,93.63894260000052,,,,,,,,,,,,,,,,,,,,,93.62339169999996,93.63894260000052,94.12265930000012,94.1272183000001,94.13875189999999,95.97269159999996,,,,,95.97288720000051,95.98788860000059,96.18859450000036,96.17211020000013,94.13875189999999,,,,,,,,1,1,1.8265779000003022,None,,,,,,,,820,19,M,R,2026-02-25_12h29.02.473,VisualSearch_2526_3,,2025.2.4,2026-02-25 12h29.02.780757 +0100,
tilted.xlsx,The target is tilted.,117,29,5,3,0,1,1,1,1,1,1,1,1,1,1,1,1,11,12,117,space,5.216294599999856,None,0,1,2.176367400000345,None,space,1.0020865999995294,None,0,0,0,0,,,,,3,5,29,4,96.18859450000036,,,,,,,,,,,,,,,,,,,,,96.17286100000001,96.18859450000036,96.67196760000024,96.6765789000001,96.69584329999998,98.88869380000051,,,,,98.88892149999992,98.9042943000004,99.10449410000001,99.08868619999976,96.69584329999998,,,,,,,,0,1,2.176367400000345,None,,,,,,,,820,19,M,R,2026-02-25_12h29.02.473,VisualSearch_2526_3,,2025.2.4,2026-02-25 12h29.02.780757 +0100,
tilted.xlsx,The target is tilted.,117,30,6,3,0,1,1,1,0,0,0,0,0,0,0,0,1,3,4,117,space,5.216294599999856,None,0,1,0.8046716000008018,None,space,1.0020865999995294,None,0,0,0,0,,,,,3,6,30,6,99.10449410000001,,,,,,,,,,,,,,,,,,,,,99.08953530000053,99.10449410000001,99.58796110000003,99.59211109999978,99.61139360000016,100.4216821,,,,,100.42180420000022,100.43729859999985,100.63781199999994,100.62190689999989,99.61139360000016,,,,,,,,0,1,0.8046716000008018,None,,,,,,,,820,19,M,R,2026-02-25_12h29.02.473,VisualSearch_2526_3,,2025.2.4,2026-02-25 12h29.02.780757 +0100,
tilted.xlsx,The target is tilted.,117,31,7,3,0,0,0,0,0,0,0,0,0,0,0,0,1,1,1,117,space,5.216294599999856,None,0,1,0.5537376000002041,None,space,1.0020865999995294,None,0,0,0,0,,,,,3,7,31,7,100.63781199999994,,,,,,,,,,,,,,,,,,,,,100.62263470000016,100.63781199999994,101.12180189999981,101.1264713999999,101.1455788000003,101.70550569999978,,,,,101.7057047999997,101.72066530000029,101.9211508999997,101.90493820000029,101.1455788000003,,,,,,,,0,1,0.5537376000002041,None,,,,,,,,820,19,M,R,2026-02-25_12h29.02.473,VisualSearch_2526_3,,2025.2.4,2026-02-25 12h29.02.780757 +0100,
tilted.xlsx,The target is tilted.,117,32,0,4,0,1,1,1,1,1,1,1,1,1,1,1,1,11,12,117,space,5.216294599999856,None,0,1,3.0587781000003815,None,space,1.0020865999995294,None,0,0,0,0,,,,,4,0,32,4,101.9211508999997,,,,,,,,,,,,,,,,,,,,,101.90570879999996,101.9211508999997,102.40442549999989,102.40909720000036,102.4281418999999,105.48826980000013,,,,,105.48846940000021,105.50316620000012,105.70362459999978,105.68798630000038,102.4281418999999,,,,,,,,0,1,3.0587781000003815,None,,,,,,,,820,19,M,R,2026-02-25_12h29.02.473,VisualSearch_2526_3,,2025.2.4,2026-02-25 12h29.02.780757 +0100,
tilted.xlsx,The target is tilted.,117,33,1,4,1,1,1,1,0,0,0,0,0,0,0,0,0,3,4,117,space,5.216294599999856,None,1,1,0.643607100000736,None,space,1.0020865999995294,None,0,0,0,0,,,,,4,1,33,2,105.70362459999978,,,,,,,,,,,,,,,,,,,,,105.68880270000045,105.70362459999978,106.18774500000018,106.19242589999976,106.21133790000022,106.87046869999995,,,,,106.87061660000018,106.88639620000049,107.08666429999994,107.07088910000039,106.21133790000022,,,,,,,,1,1,0.643607100000736,None,,,,,,,,820,19,M,R,2026-02-25_12h29.02.473,VisualSearch_2526_3,,2025.2.4,2026-02-25 12h29.02.780757 +0100,
tilted.xlsx,The target is tilted.,117,34,2,4,0,1,1,1,0,0,0,0,0,0,0,0,1,3,4,117,space,5.216294599999856,None,0,1,0.8381147000000055,None,space,1.0020865999995294,None,0,0,0,0,,,,,4,2,34,6,107.08666429999994,,,,,,,,,,,,,,,,,,,,,107.07162450000033,107.08666429999994,107.57090429999971,107.57564540000021,107.59489440000016,108.43766080000023,,,,,108.4378800000004,108.45276900000044,108.6534799000001,108.6374022,107.59489440000016,,,,,,,,0,1,0.8381147000000055,None,,,,,,,,820,19,M,R,2026-02-25_12h29.02.473,VisualSearch_2526_3,,2025.2.4,2026-02-25 12h29.02.780757 +0100,
tilted.xlsx,The target is tilted.,117,35,3,4,1,1,1,1,1,1,1,1,0,0,0,0,0,7,8,117,space,5.216294599999856,None,1,1,0.6543170000004466,None,space,1.0020865999995294,None,0,0,0,0,,,,,4,3,35,1,108.6534799000001,,,,,,,,,,,,,,,,,,,,,108.63813110000046,108.6534799000001,109.13749240000016,109.14231310000014,109.15297910000027,109.8204338000005,,,,,109.82067389999975,109.83590509999976,110.0365953999999,110.02053570000044,109.15297910000027,,,,,,,,1,1,0.6543170000004466,None,,,,,,,,820,19,M,R,2026-02-25_12h29.02.473,VisualSearch_2526_3,,2025.2.4,2026-02-25 12h29.02.780757 +0100,
tilted.xlsx,The target is tilted.,117,36,4,4,0,1,1,1,1,1,1,1,0,0,0,0,1,7,8,117,space,5.216294599999856,None,0,1,1.6523901999998998,None,space,1.0020865999995294,None,0,0,0,0,,,,,4,4,36,5,110.0365953999999,,,,,,,,,,,,,,,,,,,,,110.02125870000054,110.0365953999999,110.52045110000017,110.52504930000032,110.5439065999999,112.20405010000013,,,,,112.20427120000022,112.2190999000004,112.4194164999999,112.40348470000026,110.5439065999999,,,,,,,,0,1,1.6523901999998998,None,,,,,,,,820,19,M,R,2026-02-25_12h29.02.473,VisualSearch_2526_3,,2025.2.4,2026-02-25 12h29.02.780757 +0100,
tilted.xlsx,The target is tilted.,117,37,5,4,0,0,0,0,0,0,0,0,0,0,0,0,1,1,1,117,space,5.216294599999856,None,0,1,0.5472853999999643,None,space,1.0020865999995294,None,0,0,0,0,,,,,4,5,37,7,112.4194164999999,,,,,,,,,,,,,,,,,,,,,112.4042159999999,112.4194164999999,112.9035356000004,112.90811570000005,112.91947020000043,113.47017190000042,,,,,113.47036540000045,113.48541449999993,113.6861227999998,113.66957960000036,112.91947020000043,,,,,,,,0,1,0.5472853999999643,None,,,,,,,,820,19,M,R,2026-02-25_12h29.02.473,VisualSearch_2526_3,,2025.2.4,2026-02-25 12h29.02.780757 +0100,
tilted.xlsx,The target is tilted.,117,38,6,4,1,1,1,1,1,1,1,1,1,1,1,1,0,11,12,117,space,5.216294599999856,None,1,1,2.6200102000002516,None,space,1.0020865999995294,None,0,0,0,0,,,,,4,6,38,0,113.6861227999998,,,,,,,,,,,,,,,,,,,,,113.67034130000047,113.6861227999998,114.17000499999995,114.17524440000034,114.19123589999981,116.82007410000006,,,,,116.82027290000042,116.83497790000001,117.03547230000004,117.01934750000055,114.19123589999981,,,,,,,,1,1,2.6200102000002516,None,,,,,,,,820,19,M,R,2026-02-25_12h29.02.473,VisualSearch_2526_3,,2025.2.4,2026-02-25 12h29.02.780757 +0100,
tilted.xlsx,The target is tilted.,117,39,7,4,1,0,0,0,0,0,0,0,0,0,0,0,0,0,1,117,space,5.216294599999856,None,1,1,0.5052742999996553,None,space,1.0020865999995294,None,0,0,0,0,,,,,4,7,39,3,117.03547230000004,,,,,,,,,,,,,,,,,,,,,117.02006390000042,117.03547230000004,117.51958540000032,117.52439520000007,117.54261769999994,118.05307640000046,,,,,118.05327660000057,118.06822600000032,118.26912710000033,118.25230780000038,117.54261769999994,,,,,,,,1,1,0.5052742999996553,None,,,,,,,,820,19,M,R,2026-02-25_12h29.02.473,VisualSearch_2526_3,,2025.2.4,2026-02-25 12h29.02.780757 +0100,
tilted.xlsx,The target is tilted.,117,40,0,5,0,0,0,0,0,0,0,0,0,0,0,0,1,1,1,117,space,5.216294599999856,None,0,1,0.5576866999999766,None,space,1.0020865999995294,None,0,0,0,0,,,,,5,0,40,7,118.26912710000033,,,,,,,,,,,,,,,,,,,,,118.25304770000002,118.26912710000033,118.75225709999995,118.75683089999984,118.77571559999978,119.3365173000002,,,,,119.33672949999982,119.35144769999988,119.55163950000042,119.53571629999988,118.77571559999978,,,,,,,,0,1,0.5576866999999766,None,,,,,,,,820,19,M,R,2026-02-25_12h29.02.473,VisualSearch_2526_3,,2025.2.4,2026-02-25 12h29.02.780757 +0100,
tilted.xlsx,The target is tilted.,117,41,1,5,0,1,1,1,0,0,0,0,0,0,0,0,1,3,4,117,space,5.216294599999856,None,0,1,1.1251462000000174,None,space,1.0020865999995294,None,0,0,0,0,,,,,5,1,41,6,119.55163950000042,,,,,,,,,,,,,,,,,,,,,119.53649510000014,119.55163950000042,120.03501000000051,120.03812949999974,120.05154420000054,121.1861971999997,,,,,121.18645120000019,121.2012020000002,121.4014358000004,121.38562079999974,120.05154420000054,,,,,,,,0,1,1.1251462000000174,None,,,,,,,,820,19,M,R,2026-02-25_12h29.02.473,VisualSearch_2526_3,,2025.2.4,2026-02-25 12h29.02.780757 +0100,
tilted.xlsx,The target is tilted.,117,42,2,5,0,1,1,1,1,1,1,1,0,0,0,0,1,7,8,117,space,5.216294599999856,None,0,1,1.8456338999994841,None,space,1.0020865999995294,None,0,0,0,0,,,,,5,2,42,5,121.4014358000004,,,,,,,,,,,,,,,,,,,,,121.38644440000007,121.4014358000004,121.88559040000018,121.8908607000003,121.90974389999974,123.76798899999994,,,,,123.76811270000053,123.78442600000017,,123.96844030000011,121.90974389999974,,,,,,,,0,1,1.8456338999994841,None,,,,,,,,820,19,M,R,2026-02-25_12h29.02.473,VisualSearch_2526_3,,2025.2.4,2026-02-25 12h29.02.780757 +0100,
tilted.xlsx,The target is tilted.,117,43,3,5,1,1,1,1,1,1,1,1,0,0,0,0,0,7,8,117,space,5.216294599999856,None,1,1,2.2197329000000536,None,space,1.0020865999995294,None,0,0,0,0,,,,,5,3,43,1,123.98470610000004,,,,,,,,,,,,,,,,,,,,,123.96930150000026,123.98470610000004,124.46822330000032,124.47292079999988,124.49190050000016,126.71869010000046,,,,,126.71889180000016,126.73374599999988,126.93386389999978,126.917958,,,,,,,,,1,1,2.2197329000000536,None,,,,,,,,820,19,M,R,2026-02-25_12h29.02.473,VisualSearch_2526_3,,2025.2.4,2026-02-25 12h29.02.780757 +0100,
tilted.xlsx,The target is tilted.,117,44,4,5,0,1,1,1,1,1,1,1,1,1,1,1,1,11,12,117,space,5.216294599999856,None,0,1,2.7453589000006104,None,space,1.0020865999995294,None,0,0,0,0,,,,,5,4,44,4,126.93386389999978,,,,,,,,,,,,,,,,,,,,,126.9186953999997,126.93386389999978,127.41778650000015,127.42274989999987,127.43397350000032,130.1847617000003,,,,,130.1849586999997,130.19995930000005,130.4004090999997,130.38412789999984,127.43397350000032,,,,,,,,0,1,2.7453589000006104,None,,,,,,,,820,19,M,R,2026-02-25_12h29.02.473,VisualSearch_2526_3,,2025.2.4,2026-02-25 12h29.02.780757 +0100,
tilted.xlsx,The target is tilted.,117,45,5,5,1,1,1,1,0,0,0,0,0,0,0,0,0,3,4,117,space,5.216294599999856,None,1,1,1.137687100000221,None,space,1.0020865999995294,None,0,0,0,0,,,,,5,5,45,2,130.4004090999997,,,,,,,,,,,,,,,,,,,,,130.38484310000058,130.4004090999997,130.88414170000033,130.88883330000044,130.90830540000024,132.05108629999995,,,,,132.05128440000044,132.0660979000004,132.26616639999975,132.25037229999998,130.90830540000024,,,,,,,,1,1,1.137687100000221,None,,,,,,,,820,19,M,R,2026-02-25_12h29.02.473,VisualSearch_2526_3,,2025.2.4,2026-02-25 12h29.02.780757 +0100,
tilted.xlsx,The target is tilted.,117,46,6,5,1,1,1,1,1,1,1,1,1,1,1,1,0,11,12,117,space,5.216294599999856,None,0,0,2.601509199999782,None,space,1.0020865999995294,None,0,0,0,0,,,,,5,6,46,0,132.26616639999975,,,,,,,,,,,,,,,,,,,,,132.2509031999998,132.26616639999975,132.7507168000002,132.7559965999999,132.7756502000002,135.3840766000003,,,,,135.3842794000002,135.39918949999992,135.5992422999998,135.58333670000047,132.7756502000002,,,,,,,,0,0,2.601509199999782,None,,,,,,,,820,19,M,R,2026-02-25_12h29.02.473,VisualSearch_2526_3,,2025.2.4,2026-02-25 12h29.02.780757 +0100,
tilted.xlsx,The target is tilted.,117,47,7,5,1,0,0,0,0,0,0,0,0,0,0,0,0,0,1,117,space,5.216294599999856,None,1,1,0.5676577000003817,None,space,1.0020865999995294,None,0,0,0,0,,,,,5,7,47,3,135.5992422999998,,,,,,,,,,,,,,,,,,,,,135.5840764000004,135.5992422999998,136.08335570000054,136.08800390000033,136.10740480000004,136.6838832000003,,,,,136.6840812999999,136.69897899999978,136.8995012000005,136.88322349999999,136.10740480000004,,,,,,,,1,1,0.5676577000003817,None,,,,,,,,820,19,M,R,2026-02-25_12h29.02.473,VisualSearch_2526_3,,2025.2.4,2026-02-25 12h29.02.780757 +0100,
tilted.xlsx,The target is tilted.,117,48,0,6,1,1,1,1,0,0,0,0,0,0,0,0,0,3,4,117,space,5.216294599999856,None,1,1,0.733633999999256,None,space,1.0020865999995294,None,0,0,0,0,,,,,6,0,48,2,136.8995012000005,,,,,,,,,,,,,,,,,,,,,136.88395370000035,136.8995012000005,137.38316570000006,137.38762469999983,137.40588339999977,138.1503776999998,,,,,138.15057650000017,138.1654238000001,138.36577240000042,138.35003860000052,137.40588339999977,,,,,,,,1,1,0.733633999999256,None,,,,,,,,820,19,M,R,2026-02-25_12h29.02.473,VisualSearch_2526_3,,2025.2.4,2026-02-25 12h29.02.780757 +0100,
tilted.xlsx,The target is tilted.,117,49,1,6,1,1,1,1,1,1,1,1,1,1,1,1,0,11,12,117,space,5.216294599999856,None,1,1,1.982290699999794,None,space,1.0020865999995294,None,0,0,0,0,,,,,6,1,49,0,138.36577240000042,,,,,,,,,,,,,,,,,,,,,138.3507393,138.36577240000042,138.84990029999972,138.8554006000004,138.87362230000053,140.86661840000033,,,,,140.86682070000006,140.88169840000046,141.0819615999999,141.06534190000002,138.87362230000053,,,,,,,,1,1,1.982290699999794,None,,,,,,,,820,19,M,R,2026-02-25_12h29.02.473,VisualSearch_2526_3,,2025.2.4,2026-02-25 12h29.02.780757 +0100,
tilted.xlsx,The target is tilted.,117,50,2,6,1,0,0,0,0,0,0,0,0,0,0,0,0,0,1,117,space,5.216294599999856,None,1,1,0.5330711000005977,None,space,1.0020865999995294,None,0,0,0,0,,,,,6,2,50,3,141.0819615999999,,,,,,,,,,,,,,,,,,,,,141.0657645000001,141.0819615999999,141.56595160000052,141.57070730000032,141.5897571000005,142.13313689999995,,,,,142.13335749999987,142.1479788000006,142.34807509999973,142.33241869999983,141.5897571000005,,,,,,,,1,1,0.5330711000005977,None,,,,,,,,820,19,M,R,2026-02-25_12h29.02.473,VisualSearch_2526_3,,2025.2.4,2026-02-25 12h29.02.780757 +0100,
tilted.xlsx,The target is tilted.,117,51,3,6,1,1,1,1,1,1,1,1,0,0,0,0,0,7,8,117,space,5.216294599999856,None,1,1,1.7289146000002802,None,space,1.0020865999995294,None,0,0,0,0,,,,,6,3,51,1,142.34807509999973,,,,,,,,,,,,,,,,,,,,,142.3330007000004,142.34807509999973,142.83212819999972,142.83722430000034,142.85580120000031,144.59884599999987,,,,,144.5990681000003,144.61448290000044,144.81488850000005,144.79875859999993,142.85580120000031,,,,,,,,1,1,1.7289146000002802,None,,,,,,,,820,19,M,R,2026-02-25_12h29.02.473,VisualSearch_2526_3,,2025.2.4,2026-02-25 12h29.02.780757 +0100,
tilted.xlsx,The target is tilted.,117,52,4,6,0,1,1,1,1,1,1,1,1,1,1,1,1,11,12,117,space,5.216294599999856,None,0,1,2.878836500000034,None,space,1.0020865999995294,None,0,0,0,0,,,,,6,4,52,4,144.81488850000005,,,,,,,,,,,,,,,,,,,,,144.79948810000042,144.81488850000005,145.29873390000012,145.30322239999987,145.32140909999998,148.2151496000006,,,,,148.2153515,148.2306419000006,148.43089239999972,148.41468059999988,145.32140909999998,,,,,,,,0,1,2.878836500000034,None,,,,,,,,820,19,M,R,2026-02-25_12h29.02.473,VisualSearch_2526_3,,2025.2.4,2026-02-25 12h29.02.780757 +0100,
tilted.xlsx,The target is tilted.,117,53,5,6,0,1,1,1,1,1,1,1,0,0,0,0,1,7,8,117,space,5.216294599999856,None,0,1,1.8442604000001666,None,space,1.0020865999995294,None,0,0,0,0,,,,,6,5,53,5,148.43089239999972,,,,,,,,,,,,,,,,,,,,,148.4154137000005,148.43089239999972,148.91505330000018,148.92021810000006,148.93905890000042,150.797509,,,,,150.7976338999997,150.81347879999976,151.01410730000043,150.9978590999999,148.93905890000042,,,,,,,,0,1,1.8442604000001666,None,,,,,,,,820,19,M,R,2026-02-25_12h29.02.473,VisualSearch_2526_3,,2025.2.4,2026-02-25 12h29.02.780757 +0100,
tilted.xlsx,The target is tilted.,117,54,6,6,0,0,0,0,0,0,0,0,0,0,0,0,1,1,1,117,space,5.216294599999856,None,0,1,0.5673033000002761,None,space,1.0020865999995294,None,0,0,0,0,,,,,6,6,54,7,151.01410730000043,,,,,,,,,,,,,,,,,,,,,150.99871859999985,151.01410730000043,151.4978670999999,151.50271390000034,151.52113720000034,152.09845870000026,,,,,152.0987027000001,152.11341970000012,152.31398119999994,152.29781850000018,151.52113720000034,,,,,,,,0,1,0.5673033000002761,None,,,,,,,,820,19,M,R,2026-02-25_12h29.02.473,VisualSearch_2526_3,,2025.2.4,2026-02-25 12h29.02.780757 +0100,
tilted.xlsx,The target is tilted.,117,55,7,6,0,1,1,1,0,0,0,0,0,0,0,0,1,3,4,117,space,5.216294599999856,None,0,1,0.6250737999998819,None,space,1.0020865999995294,None,0,0,0,0,,,,,6,7,55,6,152.31398119999994,,,,,,,,,,,,,,,,,,,,,152.2985862000005,152.31398119999994,152.79775140000038,152.8021862000005,152.8199985000001,153.44843039999978,,,,,153.4486495000001,153.46326940000017,153.66364500000054,153.64754249999987,152.8199985000001,,,,,,,,0,1,0.6250737999998819,None,,,,,,,,820,19,M,R,2026-02-25_12h29.02.473,VisualSearch_2526_3,,2025.2.4,2026-02-25 12h29.02.780757 +0100,
tilted.xlsx,The target is tilted.,117,56,0,7,1,1,1,1,1,1,1,1,0,0,0,0,0,7,8,117,space,5.216294599999856,None,1,1,2.016455799999676,None,space,1.0020865999995294,None,0,0,0,0,,,,,7,0,56,1,153.66364500000054,,,,,,,,,,,,,,,,,,,,,153.64831890000005,153.66364500000054,154.1475707999998,154.15223010000045,154.1716591000004,156.1978183000001,,,,,156.19801470000039,156.2128429000004,156.4132881000005,156.39727349999976,154.1716591000004,,,,,,,,1,1,2.016455799999676,None,,,,,,,,820,19,M,R,2026-02-25_12h29.02.473,VisualSearch_2526_3,,2025.2.4,2026-02-25 12h29.02.780757 +0100,
tilted.xlsx,The target is tilted.,117,57,1,7,0,0,0,0,0,0,0,0,0,0,0,0,1,1,1,117,space,5.216294599999856,None,0,1,0.5859083999994255,None,space,1.0020865999995294,None,0,0,0,0,,,,,7,1,57,7,156.4132881000005,,,,,,,,,,,,,,,,,,,,,156.39811120000013,156.4132881000005,156.89719250000053,156.90184430000045,156.92071360000045,157.5141494999998,,,,,157.5143489000002,157.52938450000056,157.72955420000017,157.7133518999999,156.92071360000045,,,,,,,,0,1,0.5859083999994255,None,,,,,,,,820,19,M,R,2026-02-25_12h29.02.473,VisualSearch_2526_3,,2025.2.4,2026-02-25 12h29.02.780757 +0100,
tilted.xlsx,The target is tilted.,117,58,2,7,0,1,1,1,1,1,1,1,0,0,0,0,1,7,8,117,space,5.216294599999856,None,0,1,2.826731999999538,None,space,1.0020865999995294,None,0,0,0,0,,,,,7,2,58,5,157.72955420000017,,,,,,,,,,,,,,,,,,,,,157.71410319999995,157.72955420000017,158.21317590000035,158.21585080000023,158.22956930000055,161.06376960000034,,,,,161.06397240000024,161.07889500000056,161.27931210000042,161.26306620000014,158.22956930000055,,,,,,,,0,1,2.826731999999538,None,,,,,,,,820,19,M,R,2026-02-25_12h29.02.473,VisualSearch_2526_3,,2025.2.4,2026-02-25 12h29.02.780757 +0100,
tilted.xlsx,The target is tilted.,117,59,3,7,1,0,0,0,0,0,0,0,0,0,0,0,0,0,1,117,space,5.216294599999856,None,1,1,0.514330300000438,None,space,1.0020865999995294,None,0,0,0,0,,,,,7,3,59,3,161.27931210000042,,,,,,,,,,,,,,,,,,,,,161.26379650000035,161.27931210000042,161.7632051999999,161.76825699999972,161.78703060000043,162.31242939999993,,,,,162.31255039999996,162.32890570000018,162.5288571000001,162.5128020000002,161.78703060000043,,,,,,,,1,1,0.514330300000438,None,,,,,,,,820,19,M,R,2026-02-25_12h29.02.473,VisualSearch_2526_3,,2025.2.4,2026-02-25 12h29.02.780757 +0100,
tilted.xlsx,The target is tilted.,117,60,4,7,0,1,1,1,1,1,1,1,1,1,1,1,1,11,12,117,space,5.216294599999856,None,0,1,3.0422311000002082,None,space,1.0020865999995294,None,0,0,0,0,,,,,7,4,60,4,162.5288571000001,,,,,,,,,,,,,,,,,,,,,162.5135564000002,162.5288571000001,163.01278900000034,163.01734810000016,163.03561790000003,166.07980240000052,,,,,166.0805237000004,166.09453480000047,166.29521120000027,166.27914370000053,163.03561790000003,,,,,,,,0,1,3.0422311000002082,None,,,,,,,,820,19,M,R,2026-02-25_12h29.02.473,VisualSearch_2526_3,,2025.2.4,2026-02-25 12h29.02.780757 +0100,
tilted.xlsx,The target is tilted.,117,61,5,7,1,1,1,1,1,1,1,1,1,1,1,1,0,11,12,117,space,5.216294599999856,None,1,1,0.6688584000003175,None,space,1.0020865999995294,None,0,0,0,0,,,,,7,5,61,0,166.29521120000027,,,,,,,,,,,,,,,,,,,,,166.27986800000053,166.29521120000027,166.7789561999998,166.78362209999977,166.80251279999993,167.4795193,,,,,167.4797123999997,167.49466230000053,167.69511450000027,167.67888940000012,166.80251279999993,,,,,,,,1,1,0.6688584000003175,None,,,,,,,,820,19,M,R,2026-02-25_12h29.02.473,VisualSearch_2526_3,,2025.2.4,2026-02-25 12h29.02.780757 +0100,
tilted.xlsx,The target is tilted.,117,62,6,7,0,1,1,1,0,0,0,0,0,0,0,0,1,3,4,117,space,5.216294599999856,None,0,1,0.9316791000001103,None,space,1.0020865999995294,None,0,0,0,0,,,,,7,6,62,6,167.69511450000027,,,,,,,,,,,,,,,,,,,,,167.67964329999995,167.69511450000027,168.1789490000001,168.18378310000026,168.20261329999994,169.1457903999999,,,,,169.14598380000007,169.1610010000004,169.3613666000001,169.34523189999982,168.20261329999994,,,,,,,,0,1,0.9316791000001103,None,,,,,,,,820,19,M,R,2026-02-25_12h29.02.473,VisualSearch_2526_3,,2025.2.4,2026-02-25 12h29.02.780757 +0100,
tilted.xlsx,The target is tilted.,117,63,7,7,1,1,1,1,0,0,0,0,0,0,0,0,0,3,4,117,space,5.216294599999856,None,1,1,0.771759999999631,None,space,1.0020865999995294,None,0,0,0,0,,,,,7,7,63,2,169.3613666000001,,,,,,,,,,,,,,,,,,,,,169.34597459999986,169.3613666000001,169.8444330000002,169.8471072000002,169.86114859999998,170.6451119000003,,,,,170.6453431,170.66053230000034,170.86122890000024,170.84494480000012,169.86114859999998,,,,,,,,1,1,0.771759999999631,None,,,,,,,,820,19,M,R,2026-02-25_12h29.02.473,VisualSearch_2526_3,,2025.2.4,2026-02-25 12h29.02.780757 +0100,
tilted.xlsx,The target is tilted.,117,64,0,8,0,1,1,1,0,0,0,0,0,0,0,0,1,3,4,117,space,5.216294599999856,None,0,1,0.7136747000004107,None,space,1.0020865999995294,None,0,0,0,0,,,,,8,0,64,6,170.86122890000024,,,,,,,,,,,,,,,,,,,,,170.8456888999999,170.86122890000024,171.34533490000013,171.35027230000014,171.36088240000026,172.07855139999992,,,,,172.07878309999978,172.09391630000027,172.29392689999986,172.27789209999992,171.36088240000026,,,,,,,,0,1,0.7136747000004107,None,,,,,,,,820,19,M,R,2026-02-25_12h29.02.473,VisualSearch_2526_3,,2025.2.4,2026-02-25 12h29.02.780757 +0100,
tilted.xlsx,The target is tilted.,117,65,1,8,0,0,0,0,0,0,0,0,0,0,0,0,1,1,1,117,space,5.216294599999856,None,0,1,0.6459728999998333,None,space,1.0020865999995294,None,0,0,0,0,,,,,8,1,65,7,172.29392689999986,,,,,,,,,,,,,,,,,,,,,172.2786117000005,172.29392689999986,172.77814750000016,172.78275230000054,172.80174030000035,173.4613315000006,,,,,173.46156190000056,173.47707080000055,173.67739820000043,173.6615327999998,172.80174030000035,,,,,,,,0,1,0.6459728999998333,None,,,,,,,,820,19,M,R,2026-02-25_12h29.02.473,VisualSearch_2526_3,,2025.2.4,2026-02-25 12h29.02.780757 +0100,
tilted.xlsx,The target is tilted.,117,66,2,8,0,1,1,1,1,1,1,1,0,0,0,0,1,7,8,117,space,5.216294599999856,None,0,1,1.9629271000003428,None,space,1.0020865999995294,None,0,0,0,0,,,,,8,2,66,5,173.67739820000043,,,,,,,,,,,,,,,,,,,,,173.66228450000017,173.67739820000043,174.16146370000024,174.1660892,174.17808520000017,176.14464680000037,,,,,176.1448436999999,176.15998760000002,176.36057309999978,176.3443913000001,174.17808520000017,,,,,,,,0,1,1.9629271000003428,None,,,,,,,,820,19,M,R,2026-02-25_12h29.02.473,VisualSearch_2526_3,,2025.2.4,2026-02-25 12h29.02.780757 +0100,
tilted.xlsx,The target is tilted.,117,67,3,8,1,1,1,1,1,1,1,1,1,1,1,1,0,11,12,117,space,5.216294599999856,None,1,1,3.0109824000001026,None,space,1.0020865999995294,None,0,0,0,0,,,,,8,3,67,0,176.36057309999978,,,,,,,,,,,,,,,,,,,,,176.34520859999975,176.36057309999978,176.84424800000033,176.84913529999994,176.86794569999984,179.89368420000028,,,,,179.89382010000008,179.9093273999997,180.11005230000046,180.0936528000002,176.86794569999984,,,,,,,,1,1,3.0109824000001026,None,,,,,,,,820,19,M,R,2026-02-25_12h29.02.473,VisualSearch_2526_3,,2025.2.4,2026-02-25 12h29.02.780757 +0100,
tilted.xlsx,The target is tilted.,117,68,4,8,1,1,1,1,0,0,0,0,0,0,0,0,0,3,4,117,space,5.216294599999856,None,1,1,0.8222734999999375,None,space,1.0020865999995294,None,0,0,0,0,,,,,8,4,68,2,180.11005230000046,,,,,,,,,,,,,,,,,,,,,180.09445340000002,180.11005230000046,180.59387070000048,180.5990394999999,180.61701360000006,181.44390759999987,,,,,181.44411500000024,181.45926080000027,181.65952130000005,181.64331270000002,180.61701360000006,,,,,,,,1,1,0.8222734999999375,None,,,,,,,,820,19,M,R,2026-02-25_12h29.02.473,VisualSearch_2526_3,,2025.2.4,2026-02-25 12h29.02.780757 +0100,
tilted.xlsx,The target is tilted.,117,69,5,8,1,0,0,0,0,0,0,0,0,0,0,0,0,0,1,117,space,5.216294599999856,None,1,1,0.509164499999315,None,space,1.0020865999995294,None,0,0,0,0,,,,,8,5,69,3,181.65952130000005,,,,,,,,,,,,,,,,,,,,,181.64405179999994,181.65952130000005,182.14348900000005,182.14809570000034,182.16767359999994,182.69340809999994,,,,,182.69364620000033,182.7089575,182.90936060000058,182.8933090999999,182.16767359999994,,,,,,,,1,1,0.509164499999315,None,,,,,,,,820,19,M,R,2026-02-25_12h29.02.473,VisualSearch_2526_3,,2025.2.4,2026-02-25 12h29.02.780757 +0100,
tilted.xlsx,The target is tilted.,117,70,6,8,0,1,1,1,1,1,1,1,1,1,1,1,1,11,12,117,space,5.216294599999856,None,0,1,2.6220853000004354,None,space,1.0020865999995294,None,0,0,0,0,,,,,8,6,70,4,182.90936060000058,,,,,,,,,,,,,,,,,,,,,182.89404900000045,182.90936060000058,183.39310449999994,183.39755740000055,183.41551979999986,186.04326159999982,,,,,186.0434578000004,186.05865090000043,186.2591425999999,186.24289670000053,183.41551979999986,,,,,,,,0,1,2.6220853000004354,None,,,,,,,,820,19,M,R,2026-02-25_12h29.02.473,VisualSearch_2526_3,,2025.2.4,2026-02-25 12h29.02.780757 +0100,
tilted.xlsx,The target is tilted.,117,71,7,8,1,1,1,1,1,1,1,1,0,0,0,0,0,7,8,117,space,5.216294599999856,None,1,1,2.2079093000002104,None,space,1.0020865999995294,None,0,0,0,0,,,,,8,7,71,1,186.2591425999999,,,,,,,,,,,,,,,,,,,,,186.24371169999995,186.2591425999999,186.74273710000034,186.74729240000033,186.76521479999974,188.97580389999985,,,,,188.9759113,188.99134630000026,189.1919022000002,189.1754473000001,186.76521479999974,,,,,,,,1,1,2.2079093000002104,None,,,,,,,,820,19,M,R,2026-02-25_12h29.02.473,VisualSearch_2526_3,,2025.2.4,2026-02-25 12h29.02.780757 +0100,
tilted.xlsx,The target is tilted.,117,72,0,9,0,1,1,1,1,1,1,1,1,1,1,1,1,11,12,117,space,5.216294599999856,None,0,1,2.573286900000312,None,space,1.0020865999995294,None,0,0,0,0,,,,,9,0,72,4,189.1919022000002,,,,,,,,,,,,,,,,,,,,,189.17616989999988,189.1919022000002,189.6758964999999,189.68047230000047,189.69931999999972,192.27600510000048,,,,,192.27620000000024,192.29107730000032,192.49141260000033,192.47536070000024,189.69931999999972,,,,,,,,0,1,2.573286900000312,None,,,,,,,,820,19,M,R,2026-02-25_12h29.02.473,VisualSearch_2526_3,,2025.2.4,2026-02-25 12h29.02.780757 +0100,
tilted.xlsx,The target is tilted.,117,73,1,9,1,1,1,1,1,1,1,1,0,0,0,0,0,7,8,117,space,5.216294599999856,None,1,1,1.718080700000428,None,space,1.0020865999995294,None,0,0,0,0,,,,,9,1,73,1,192.49141260000033,,,,,,,,,,,,,,,,,,,,,192.47607470000003,192.49141260000033,192.9753795000006,192.97988760000044,192.9988196000004,194.7256325999997,,,,,194.7258253,194.74071749999985,194.94122549999975,194.9250645000002,192.9988196000004,,,,,,,,1,1,1.718080700000428,None,,,,,,,,820,19,M,R,2026-02-25_12h29.02.473,VisualSearch_2526_3,,2025.2.4,2026-02-25 12h29.02.780757 +0100,
tilted.xlsx,The target is tilted.,117,74,2,9,1,1,1,1,1,1,1,1,1,1,1,1,0,11,12,117,space,5.216294599999856,None,1,1,0.9095818000005238,None,space,1.0020865999995294,None,0,0,0,0,,,,,9,2,74,0,194.94122549999975,,,,,,,,,,,,,,,,,,,,,194.92578580000009,194.94122549999975,195.42492990000028,195.42949730000055,195.44854310000028,196.37426210000012,,,,,196.37435129999994,196.39029560000017,,196.57462940000005,195.44854310000028,,,,,,,,1,1,0.9095818000005238,None,,,,,,,,820,19,M,R,2026-02-25_12h29.02.473,VisualSearch_2526_3,,2025.2.4,2026-02-25 12h29.02.780757 +0100,
tilted.xlsx,The target is tilted.,117,75,3,9,0,1,1,1,0,0,0,0,0,0,0,0,1,3,4,117,space,5.216294599999856,None,0,1,0.7046707999998034,None,space,1.0020865999995294,None,0,0,0,0,,,,,9,3,75,6,196.5909904,,,,,,,,,,,,,,,,,,,,,196.57537109999976,196.5909904,197.07458700000007,197.07904700000017,197.09767530000045,197.80857050000031,,,,,197.80876069999977,197.8236139999999,198.02402119999988,198.00798099999975,197.09767530000045,,,,,,,,0,1,0.7046707999998034,None,,,,,,,,820,19,M,R,2026-02-25_12h29.02.473,VisualSearch_2526_3,,2025.2.4,2026-02-25 12h29.02.780757 +0100,
tilted.xlsx,The target is tilted.,117,76,4,9,0,1,1,1,1,1,1,1,0,0,0,0,1,7,8,117,space,5.216294599999856,None,0,1,2.2488275999994585,None,space,1.0020865999995294,None,0,0,0,0,,,,,9,4,76,5,198.02402119999988,,,,,,,,,,,,,,,,,,,,,198.0087155000001,198.02402119999988,198.50771520000035,198.51228590000028,198.53101930000048,200.79126989999986,,,,,200.79146279999986,200.80651149999994,201.00702749999982,200.9908873000004,198.53101930000048,,,,,,,,0,1,2.2488275999994585,None,,,,,,,,820,19,M,R,2026-02-25_12h29.02.473,VisualSearch_2526_3,,2025.2.4,2026-02-25 12h29.02.780757 +0100,
tilted.xlsx,The target is tilted.,117,77,5,9,1,0,0,0,0,0,0,0,0,0,0,0,0,0,1,117,space,5.216294599999856,None,1,1,0.5991006000003836,None,space,1.0020865999995294,None,0,0,0,0,,,,,9,5,77,3,201.00702749999982,,,,,,,,,,,,,,,,,,,,,200.9916277000002,201.00702749999982,201.4904077000001,201.49514199999976,201.51401520000036,202.1245842999997,,,,,202.12477560000025,202.13961480000034,202.34015120000004,202.32398960000046,201.51401520000036,,,,,,,,1,1,0.5991006000003836,None,,,,,,,,820,19,M,R,2026-02-25_12h29.02.473,VisualSearch_2526_3,,2025.2.4,2026-02-25 12h29.02.780757 +0100,
tilted.xlsx,The target is tilted.,117,78,6,9,0,0,0,0,0,0,0,0,0,0,0,0,1,1,1,117,space,5.216294599999856,None,0,1,0.5623857999999018,None,space,1.0020865999995294,None,0,0,0,0,,,,,9,6,78,7,202.34015120000004,,,,,,,,,,,,,,,,,,,,,202.32472529999995,202.34015120000004,202.82388270000047,202.82845120000002,202.84786590000022,203.4237836000002,,,,,203.42402570000013,203.4394282000003,203.63997110000037,203.62371840000014,202.84786590000022,,,,,,,,0,1,0.5623857999999018,None,,,,,,,,820,19,M,R,2026-02-25_12h29.02.473,VisualSearch_2526_3,,2025.2.4,2026-02-25 12h29.02.780757 +0100,
tilted.xlsx,The target is tilted.,117,79,7,9,1,1,1,1,0,0,0,0,0,0,0,0,0,3,4,117,space,5.216294599999856,None,1,1,0.7538561000001209,None,space,1.0020865999995294,None,0,0,0,0,,,,,9,7,79,2,203.63997110000037,,,,,,,,,,,,,,,,,,,,,203.62445690000004,203.63997110000037,204.12360179999996,204.12795030000052,204.1398054000001,204.90683480000007,,,,,204.90703420000045,204.92250090000016,205.12298230000033,205.10687099999996,204.1398054000001,,,,,,,,1,1,0.7538561000001209,None,,,,,,,,820,19,M,R,2026-02-25_12h29.02.473,VisualSearch_2526_3,,2025.2.4,2026-02-25 12h29.02.780757 +0100,
tilted.xlsx,The target is tilted.,117,80,0,10,0,1,1,1,1,1,1,1,1,1,1,1,1,11,12,117,space,5.216294599999856,None,1,0,2.569192599999951,None,space,1.0020865999995294,None,0,0,0,0,,,,,10,0,80,4,205.12298230000033,,,,,,,,,,,,,,,,,,,,,205.10769429999982,205.12298230000033,205.60652219999974,205.61103540000022,205.62981469999977,208.20703909999975,,,,,208.2072318999999,208.22210749999977,208.42235119999987,208.4062057000001,205.62981469999977,,,,,,,,1,0,2.569192599999951,None,,,,,,,,820,19,M,R,2026-02-25_12h29.02.473,VisualSearch_2526_3,,2025.2.4,2026-02-25 12h29.02.780757 +0100,
tilted.xlsx,The target is tilted.,117,81,1,10,0,1,1,1,0,0,0,0,0,0,0,0,1,3,4,117,space,5.216294599999856,None,0,1,1.1045634000001883,None,space,1.0020865999995294,None,0,0,0,0,,,,,10,1,81,6,208.42235119999987,,,,,,,,,,,,,,,,,,,,,208.40697760000057,208.42235119999987,208.90578730000016,208.91016260000015,208.92229300000054,210.03903160000027,,,,,210.0391510999998,210.0551545999997,,210.23930010000004,208.92229300000054,,,,,,,,0,1,1.1045634000001883,None,,,,,,,,820,19,M,R,2026-02-25_12h29.02.473,VisualSearch_2526_3,,2025.2.4,2026-02-25 12h29.02.780757 +0100,
tilted.xlsx,The target is tilted.,117,82,2,10,0,1,1,1,1,1,1,1,0,0,0,0,1,7,8,117,space,5.216294599999856,None,0,1,2.383100999999442,None,space,1.0020865999995294,None,0,0,0,0,,,,,10,2,82,5,210.2556439,,,,,,,,,,,,,,,,,,,,,210.24006610000015,210.2556439,210.73925409999993,210.7438149999998,210.75963010000032,213.1556902000002,,,,,213.15593350000017,213.1713733000006,213.37162050000006,213.35552300000018,,,,,,,,,0,1,2.383100999999442,None,,,,,,,,820,19,M,R,2026-02-25_12h29.02.473,VisualSearch_2526_3,,2025.2.4,2026-02-25 12h29.02.780757 +0100,
tilted.xlsx,The target is tilted.,117,83,3,10,0,0,0,0,0,0,0,0,0,0,0,0,1,1,1,117,space,5.216294599999856,None,0,1,0.49027920000025915,None,space,1.0020865999995294,None,0,0,0,0,,,,,10,3,83,7,213.37162050000006,,,,,,,,,,,,,,,,,,,,,213.3563237999997,213.37162050000006,213.85582630000044,213.8609002000003,213.87604720000036,214.37247370000023,,,,,214.37266420000014,214.38830860000053,214.5885005,214.5720640999998,213.87604720000036,,,,,,,,0,1,0.49027920000025915,None,,,,,,,,820,19,M,R,2026-02-25_12h29.02.473,VisualSearch_2526_3,,2025.2.4,2026-02-25 12h29.02.780757 +0100,
tilted.xlsx,The target is tilted.,117,84,4,10,1,0,0,0,0,0,0,0,0,0,0,0,0,0,1,117,space,5.216294599999856,None,1,1,0.503648200000498,None,space,1.0020865999995294,None,0,0,0,0,,,,,10,4,84,3,214.5885005,,,,,,,,,,,,,,,,,,,,,214.57286939999995,214.5885005,215.0719798,215.07650269999976,215.09533050000027,215.6059819000002,,,,,215.60617060000004,215.62119170000005,215.82157780000034,215.8054530999998,215.09533050000027,,,,,,,,1,1,0.503648200000498,None,,,,,,,,820,19,M,R,2026-02-25_12h29.02.473,VisualSearch_2526_3,,2025.2.4,2026-02-25 12h29.02.780757 +0100,
tilted.xlsx,The target is tilted.,117,85,5,10,1,1,1,1,1,1,1,1,0,0,0,0,0,7,8,117,space,5.216294599999856,None,0,0,1.9594600999998875,None,space,1.0020865999995294,None,0,0,0,0,,,,,10,5,85,1,215.82157780000034,,,,,,,,,,,,,,,,,,,,,215.8061563000001,215.82157780000034,216.30538410000008,216.30994250000003,216.32859400000052,218.3055715999999,,,,,218.30576660000042,218.32113670000035,218.52129590000004,218.50490890000037,216.32859400000052,,,,,,,,0,0,1.9594600999998875,None,,,,,,,,820,19,M,R,2026-02-25_12h29.02.473,VisualSearch_2526_3,,2025.2.4,2026-02-25 12h29.02.780757 +0100,
tilted.xlsx,The target is tilted.,117,86,6,10,1,1,1,1,1,1,1,1,1,1,1,1,0,11,12,117,space,5.216294599999856,None,0,0,2.103462299999592,None,space,1.0020865999995294,None,0,0,0,0,,,,,10,6,86,0,218.52129590000004,,,,,,,,,,,,,,,,,,,,,218.50572079999984,218.52129590000004,219.00488740000037,219.00955470000008,219.02831960000003,221.1385663000001,,,,,221.13875970000026,221.15408970000044,221.3537580000002,221.3370973000001,219.02831960000003,,,,,,,,0,0,2.103462299999592,None,,,,,,,,820,19,M,R,2026-02-25_12h29.02.473,VisualSearch_2526_3,,2025.2.4,2026-02-25 12h29.02.780757 +0100,
tilted.xlsx,The target is tilted.,117,87,7,10,1,1,1,1,0,0,0,0,0,0,0,0,0,3,4,117,space,5.216294599999856,None,1,1,1.0016052999999374,None,space,1.0020865999995294,None,0,0,0,0,,,,,10,7,87,2,221.3537580000002,,,,,,,,,,,,,,,,,,,,,221.33752710000044,221.3537580000002,221.83794990000024,221.84233740000036,221.8533526000001,222.8715812999999,,,,,222.87179639999977,222.88710080000055,223.0872573000006,223.07119950000015,221.8533526000001,,,,,,,,1,1,1.0016052999999374,None,,,,,,,,820,19,M,R,2026-02-25_12h29.02.473,VisualSearch_2526_3,,2025.2.4,2026-02-25 12h29.02.780757 +0100,
tilted.xlsx,The target is tilted.,117,88,0,11,0,1,1,1,0,0,0,0,0,0,0,0,1,3,4,117,space,5.216294599999856,None,0,1,0.6734360000000379,None,space,1.0020865999995294,None,0,0,0,0,,,,,11,0,88,6,223.0872573000006,,,,,,,,,,,,,,,,,,,,,223.07201750000058,223.0872573000006,223.5709735999999,223.57545440000013,223.59424940000008,224.2710176999999,,,,,224.2712093,224.28683189999992,224.48707269999977,224.47062710000046,223.59424940000008,,,,,,,,0,1,0.6734360000000379,None,,,,,,,,820,19,M,R,2026-02-25_12h29.02.473,VisualSearch_2526_3,,2025.2.4,2026-02-25 12h29.02.780757 +0100,
tilted.xlsx,The target is tilted.,117,89,1,11,1,1,1,1,1,1,1,1,1,1,1,1,0,11,12,117,space,5.216294599999856,None,1,1,1.4854422999997041,None,space,1.0020865999995294,None,0,0,0,0,,,,,11,1,89,0,224.48707269999977,,,,,,,,,,,,,,,,,,,,,224.47136039999987,224.48707269999977,224.97049080000033,224.97494160000042,224.9940856000003,226.4877802000001,,,,,226.48797170000034,226.50294630000008,226.7033218000006,226.6871001999998,224.9940856000003,,,,,,,,1,1,1.4854422999997041,None,,,,,,,,820,19,M,R,2026-02-25_12h29.02.473,VisualSearch_2526_3,,2025.2.4,2026-02-25 12h29.02.780757 +0100,
tilted.xlsx,The target is tilted.,117,90,2,11,0,1,1,1,1,1,1,1,0,0,0,0,1,7,8,117,space,5.216294599999856,None,0,1,1.492622499999925,None,space,1.0020865999995294,None,0,0,0,0,,,,,11,2,90,5,226.7033218000006,,,,,,,,,,,,,,,,,,,,,226.6878428,226.7033218000006,227.18681990000005,227.19055320000007,227.2027521,228.7039721000001,,,,,228.7041631000002,228.7195597,228.91929260000052,228.90348150000045,227.2027521,,,,,,,,0,1,1.492622499999925,None,,,,,,,,820,19,M,R,2026-02-25_12h29.02.473,VisualSearch_2526_3,,2025.2.4,2026-02-25 12h29.02.780757 +0100,
tilted.xlsx,The target is tilted.,117,91,3,11,0,0,0,0,0,0,0,0,0,0,0,0,1,1,1,117,space,5.216294599999856,None,0,1,0.5615076999993107,None,space,1.0020865999995294,None,0,0,0,0,,,,,11,3,91,7,228.91929260000052,,,,,,,,,,,,,,,,,,,,,228.9042102000003,228.91929260000052,229.40334220000022,229.40793089999988,229.4266220999998,230.00390340000013,,,,,230.0040994000001,230.0194166000001,230.2196125999999,230.20340320000014,229.4266220999998,,,,,,,,0,1,0.5615076999993107,None,,,,,,,,820,19,M,R,2026-02-25_12h29.02.473,VisualSearch_2526_3,,2025.2.4,2026-02-25 12h29.02.780757 +0100,
tilted.xlsx,The target is tilted.,117,92,4,11,0,1,1,1,1,1,1,1,1,1,1,1,1,11,12,117,space,5.216294599999856,None,0,1,1.9471389999998792,None,space,1.0020865999995294,None,0,0,0,0,,,,,11,4,92,4,230.2196125999999,,,,,,,,,,,,,,,,,,,,,230.2042362000002,230.2196125999999,230.70325950000006,230.7081906000003,230.72682140000052,232.6868417000005,,,,,232.68703580000056,232.70209309999973,232.9024314999997,232.8864794000001,230.72682140000052,,,,,,,,0,1,1.9471389999998792,None,,,,,,,,820,19,M,R,2026-02-25_12h29.02.473,VisualSearch_2526_3,,2025.2.4,2026-02-25 12h29.02.780757 +0100,
tilted.xlsx,The target is tilted.,117,93,5,11,1,0,0,0,0,0,0,0,0,0,0,0,0,0,1,117,space,5.216294599999856,None,1,1,0.5076163000003362,None,space,1.0020865999995294,None,0,0,0,0,,,,,11,5,93,3,232.9024314999997,,,,,,,,,,,,,,,,,,,,,232.8872749000002,232.9024314999997,233.38632899999993,233.3912935999997,233.40945379999994,233.92015830000037,,,,,233.9203703000003,233.93533800000023,234.13560169999982,234.11895360000017,233.40945379999994,,,,,,,,1,1,0.5076163000003362,None,,,,,,,,820,19,M,R,2026-02-25_12h29.02.473,VisualSearch_2526_3,,2025.2.4,2026-02-25 12h29.02.780757 +0100,
tilted.xlsx,The target is tilted.,117,94,6,11,1,1,1,1,1,1,1,1,0,0,0,0,0,7,8,117,space,5.216294599999856,None,1,1,0.8746778999993694,None,space,1.0020865999995294,None,0,0,0,0,,,,,11,6,94,1,234.13560169999982,,,,,,,,,,,,,,,,,,,,,234.11969080000017,234.13560169999982,234.61939350000011,234.6238242999998,234.64231459999974,235.51972750000004,,,,,235.51992109999992,235.53508520000014,235.73539249999976,235.7191668000005,234.64231459999974,,,,,,,,1,1,0.8746778999993694,None,,,,,,,,820,19,M,R,2026-02-25_12h29.02.473,VisualSearch_2526_3,,2025.2.4,2026-02-25 12h29.02.780757 +0100,
tilted.xlsx,The target is tilted.,117,95,7,11,1,1,1,1,0,0,0,0,0,0,0,0,0,3,4,117,space,5.216294599999856,None,1,1,0.7437104000000545,None,space,1.0020865999995294,None,0,0,0,0,,,,,11,7,95,2,235.73539249999976,,,,,,,,,,,,,,,,,,,,,235.7199381999999,235.73539249999976,236.21869210000023,236.22139680000055,236.23457820000021,236.98601990000043,,,,,236.9862095999997,237.00151929999993,237.2016338000003,237.1858529000001,236.23457820000021,,,,,,,,1,1,0.7437104000000545,None,,,,,,,,820,19,M,R,2026-02-25_12h29.02.473,VisualSearch_2526_3,,2025.2.4,2026-02-25 12h29.02.780757 +0100,
tilted.xlsx,The target is tilted.,117,96,0,12,1,0,0,0,0,0,0,0,0,0,0,0,0,0,1,117,space,5.216294599999856,None,1,1,0.5147421000001486,None,space,1.0020865999995294,None,0,0,0,0,,,,,12,0,96,3,237.2016338000003,,,,,,,,,,,,,,,,,,,,,237.18663509999988,237.2016338000003,237.68560950000028,237.69021659999999,237.70924340000056,238.23609420000048,,,,,238.23628220000046,238.25127049999992,238.45128010000008,238.43550589999995,237.70924340000056,,,,,,,,1,1,0.5147421000001486,None,,,,,,,,820,19,M,R,2026-02-25_12h29.02.473,VisualSearch_2526_3,,2025.2.4,2026-02-25 12h29.02.780757 +0100,
tilted.xlsx,The target is tilted.,117,97,1,12,1,1,1,1,1,1,1,1,1,1,1,1,0,11,12,117,space,5.216294599999856,None,1,1,1.011757000000216,None,space,1.0020865999995294,None,0,0,0,0,,,,,12,1,97,0,238.45128010000008,,,,,,,,,,,,,,,,,,,,,238.43624890000046,238.45128010000008,238.9353602000001,238.9403530999998,238.95735630000036,239.9850750000005,,,,,239.98521919999985,240.00113789999978,240.2012590000004,240.18501040000046,238.95735630000036,,,,,,,,1,1,1.011757000000216,None,,,,,,,,820,19,M,R,2026-02-25_12h29.02.473,VisualSearch_2526_3,,2025.2.4,2026-02-25 12h29.02.780757 +0100,
tilted.xlsx,The target is tilted.,117,98,2,12,0,1,1,1,1,1,1,1,1,1,1,1,1,11,12,117,space,5.216294599999856,None,0,1,1.9464477000001352,None,space,1.0020865999995294,None,0,0,0,0,,,,,12,2,98,4,240.2012590000004,,,,,,,,,,,,,,,,,,,,,240.18580459999976,240.2012590000004,240.68511490000037,240.6898940000001,240.70871650000026,242.66888780000045,,,,,242.66911960000016,242.6840130999999,242.88432850000027,242.8681661999999,240.70871650000026,,,,,,,,0,1,1.9464477000001352,None,,,,,,,,820,19,M,R,2026-02-25_12h29.02.473,VisualSearch_2526_3,,2025.2.4,2026-02-25 12h29.02.780757 +0100,
tilted.xlsx,The target is tilted.,117,99,3,12,1,1,1,1,1,1,1,1,0,0,0,0,0,7,8,117,space,5.216294599999856,None,1,1,1.1477656999995816,None,space,1.0020865999995294,None,0,0,0,0,,,,,12,3,99,1,242.88432850000027,,,,,,,,,,,,,,,,,,,,,242.86892410000019,242.88432850000027,243.36813380000058,243.37295840000024,243.3917081999998,244.5515316000001,,,,,244.5516749999997,244.56746740000017,244.7672422000005,244.7513359000004,243.3917081999998,,,,,,,,1,1,1.1477656999995816,None,,,,,,,,820,19,M,R,2026-02-25_12h29.02.473,VisualSearch_2526_3,,2025.2.4,2026-02-25 12h29.02.780757 +0100,
tilted.xlsx,The target is tilted.,117,100,4,12,0,1,1,1,1,1,1,1,0,0,0,0,1,7,8,117,space,5.216294599999856,None,0,1,1.391098800000691,None,space,1.0020865999995294,None,0,0,0,0,,,,,12,4,100,5,244.7672422000005,,,,,,,,,,,,,,,,,,,,,244.75202919999992,244.7672422000005,245.25111949999973,245.2555755000003,245.26722109999992,246.66822740000043,,,,,246.66841810000005,246.6833561000003,246.8837527000005,246.8676317999998,245.26722109999992,,,,,,,,0,1,1.391098800000691,None,,,,,,,,820,19,M,R,2026-02-25_12h29.02.473,VisualSearch_2526_3,,2025.2.4,2026-02-25 12h29.02.780757 +0100,
tilted.xlsx,The target is tilted.,117,101,5,12,0,1,1,1,0,0,0,0,0,0,0,0,1,3,4,117,space,5.216294599999856,None,0,1,0.7845269999997981,None,space,1.0020865999995294,None,0,0,0,0,,,,,12,5,101,6,246.8837527000005,,,,,,,,,,,,,,,,,,,,,246.86836289999974,246.8837527000005,247.36759470000015,247.37210770000002,247.39148130000012,248.18462790000012,,,,,248.18481919999977,248.2002112,248.39980250000008,248.38373219999994,247.39148130000012,,,,,,,,0,1,0.7845269999997981,None,,,,,,,,820,19,M,R,2026-02-25_12h29.02.473,VisualSearch_2526_3,,2025.2.4,2026-02-25 12h29.02.780757 +0100,
tilted.xlsx,The target is tilted.,117,102,6,12,1,1,1,1,0,0,0,0,0,0,0,0,0,3,4,117,space,5.216294599999856,None,1,1,0.7129402000000482,None,space,1.0020865999995294,None,0,0,0,0,,,,,12,6,102,2,248.39980250000008,,,,,,,,,,,,,,,,,,,,,248.38446639999984,248.39980250000008,248.88393520000045,248.88849300000038,248.90713890000006,249.63446079999994,,,,,249.63465559999986,249.64972860000034,249.8500393000004,249.83384130000013,248.90713890000006,,,,,,,,1,1,0.7129402000000482,None,,,,,,,,820,19,M,R,2026-02-25_12h29.02.473,VisualSearch_2526_3,,2025.2.4,2026-02-25 12h29.02.780757 +0100,
tilted.xlsx,The target is tilted.,117,103,7,12,0,0,0,0,0,0,0,0,0,0,0,0,1,1,1,117,space,5.216294599999856,None,0,1,0.6055168000002595,None,space,1.0020865999995294,None,0,0,0,0,,,,,12,7,103,7,249.8500393000004,,,,,,,,,,,,,,,,,,,,,249.83456490000026,249.8500393000004,250.3335305999999,250.33799689999978,250.35664270000052,250.9675428999999,,,,,250.96774819999973,250.98281740000039,251.18304249999983,251.16706599999998,250.35664270000052,,,,,,,,0,1,0.6055168000002595,None,,,,,,,,820,19,M,R,2026-02-25_12h29.02.473,VisualSearch_2526_3,,2025.2.4,2026-02-25 12h29.02.780757 +0100,
tilted.xlsx,The target is tilted.,117,104,0,13,1,1,1,1,0,0,0,0,0,0,0,0,0,3,4,117,space,5.216294599999856,None,1,1,0.848820600000181,None,space,1.0020865999995294,None,0,0,0,0,,,,,13,0,104,2,251.18304249999983,,,,,,,,,,,,,,,,,,,,,251.1677891999998,251.18304249999983,251.66720309999982,251.67212240000026,251.6908209000003,252.55071020000014,,,,,252.55091720000019,252.56630659999973,252.76620860000003,252.75013430000035,251.6908209000003,,,,,,,,1,1,0.848820600000181,None,,,,,,,,820,19,M,R,2026-02-25_12h29.02.473,VisualSearch_2526_3,,2025.2.4,2026-02-25 12h29.02.780757 +0100,
tilted.xlsx,The target is tilted.,117,105,1,13,1,1,1,1,1,1,1,1,1,1,1,1,0,11,12,117,space,5.216294599999856,None,1,1,1.588506099999904,None,space,1.0020865999995294,None,0,0,0,0,,,,,13,1,105,0,252.76620860000003,,,,,,,,,,,,,,,,,,,,,252.75087170000006,252.76620860000003,253.24995730000046,253.25447840000015,253.27318650000052,254.8669643000003,,,,,254.86716030000025,254.88217570000052,255.08252840000023,255.0664553000006,253.27318650000052,,,,,,,,1,1,1.588506099999904,None,,,,,,,,820,19,M,R,2026-02-25_12h29.02.473,VisualSearch_2526_3,,2025.2.4,2026-02-25 12h29.02.780757 +0100,
tilted.xlsx,The target is tilted.,117,106,2,13,0,1,1,1,1,1,1,1,0,0,0,0,1,7,8,117,space,5.216294599999856,None,0,1,1.4113234999995257,None,space,1.0020865999995294,None,0,0,0,0,,,,,13,2,106,5,255.08252840000023,,,,,,,,,,,,,,,,,,,,,255.06720610000048,255.08252840000023,255.5664512000003,255.57087520000005,255.5889240000006,257.01676339999995,,,,,257.0169563999998,257.03215720000026,257.2321641999997,257.21611630000007,255.5889240000006,,,,,,,,0,1,1.4113234999995257,None,,,,,,,,820,19,M,R,2026-02-25_12h29.02.473,VisualSearch_2526_3,,2025.2.4,2026-02-25 12h29.02.780757 +0100,
tilted.xlsx,The target is tilted.,117,107,3,13,0,0,0,0,0,0,0,0,0,0,0,0,1,1,1,117,space,5.216294599999856,None,0,1,0.6116296000000148,None,space,1.0020865999995294,None,0,0,0,0,,,,,13,3,107,7,257.2321641999997,,,,,,,,,,,,,,,,,,,,,257.2169339000002,257.2321641999997,257.7159603,257.72087100000044,257.7388811999999,258.3665595000002,,,,,258.3667519999999,258.3819684,258.5820373000006,258.56595280000056,257.7388811999999,,,,,,,,0,1,0.6116296000000148,None,,,,,,,,820,19,M,R,2026-02-25_12h29.02.473,VisualSearch_2526_3,,2025.2.4,2026-02-25 12h29.02.780757 +0100,
tilted.xlsx,The target is tilted.,117,108,4,13,0,1,1,1,0,0,0,0,0,0,0,0,1,3,4,117,space,5.216294599999856,None,0,1,0.8206141000000571,None,space,1.0020865999995294,None,0,0,0,0,,,,,13,4,108,6,258.5820373000006,,,,,,,,,,,,,,,,,,,,,258.5667322999998,258.5820373000006,259.06578230000014,259.0702968000005,259.0888550999998,259.9161653000001,,,,,259.9163543000004,259.9318837999999,260.1318376999998,260.1156538000005,259.0888550999998,,,,,,,,0,1,0.8206141000000571,None,,,,,,,,820,19,M,R,2026-02-25_12h29.02.473,VisualSearch_2526_3,,2025.2.4,2026-02-25 12h29.02.780757 +0100,
tilted.xlsx,The target is tilted.,117,109,5,13,0,1,1,1,1,1,1,1,1,1,1,1,1,11,12,117,space,5.216294599999856,None,0,1,1.9010762999996587,None,space,1.0020865999995294,None,0,0,0,0,,,,,13,5,109,4,260.1318376999998,,,,,,,,,,,,,,,,,,,,,260.1164182000002,260.1318376999998,260.6158424000005,260.62083299999995,260.63119150000057,262.5491262000005,,,,,262.5493305,262.5648338000001,262.76444119999996,262.7486974000003,260.63119150000057,,,,,,,,0,1,1.9010762999996587,None,,,,,,,,820,19,M,R,2026-02-25_12h29.02.473,VisualSearch_2526_3,,2025.2.4,2026-02-25 12h29.02.780757 +0100,
tilted.xlsx,The target is tilted.,117,110,6,13,1,0,0,0,0,0,0,0,0,0,0,0,0,0,1,117,space,5.216294599999856,None,1,1,0.6101584999996703,None,space,1.0020865999995294,None,0,0,0,0,,,,,13,6,110,3,262.76444119999996,,,,,,,,,,,,,,,,,,,,,262.7494336999998,262.76444119999996,263.2488635999998,263.25384680000025,263.2725102000004,263.8989733999997,,,,,263.89918190000026,263.914495,264.1146168000005,264.09850520000055,263.2725102000004,,,,,,,,1,1,0.6101584999996703,None,,,,,,,,820,19,M,R,2026-02-25_12h29.02.473,VisualSearch_2526_3,,2025.2.4,2026-02-25 12h29.02.780757 +0100,
tilted.xlsx,The target is tilted.,117,111,7,13,1,1,1,1,1,1,1,1,0,0,0,0,0,7,8,117,space,5.216294599999856,None,0,0,1.4859999999998763,None,space,1.0020865999995294,None,0,0,0,0,,,,,13,7,111,1,264.1146168000005,,,,,,,,,,,,,,,,,,,,,264.0992352000003,264.1146168000005,264.5982700000004,264.60337489999984,264.6220553000003,266.1149996000004,,,,,266.1151924000005,266.13098850000006,266.3310056999999,266.31493090000004,264.6220553000003,,,,,,,,0,0,1.4859999999998763,None,,,,,,,,820,19,M,R,2026-02-25_12h29.02.473,VisualSearch_2526_3,,2025.2.4,2026-02-25 12h29.02.780757 +0100,
tilted.xlsx,The target is tilted.,117,112,0,14,1,1,1,1,1,1,1,1,0,0,0,0,0,7,8,117,space,5.216294599999856,None,1,1,1.0568835000003673,None,space,1.0020865999995294,None,0,0,0,0,,,,,14,0,112,1,266.3310056999999,,,,,,,,,,,,,,,,,,,,,266.31565169999976,266.3310056999999,266.8147157000003,266.81939349999993,266.8381143000006,267.8983754000001,,,,,267.8985666999997,267.91399640000054,268.1140694000005,268.0978739000002,266.8381143000006,,,,,,,,1,1,1.0568835000003673,None,,,,,,,,820,19,M,R,2026-02-25_12h29.02.473,VisualSearch_2526_3,,2025.2.4,2026-02-25 12h29.02.780757 +0100,
tilted.xlsx,The target is tilted.,117,113,1,14,1,1,1,1,0,0,0,0,0,0,0,0,0,3,4,117,space,5.216294599999856,None,1,1,0.8959224999998696,None,space,1.0020865999995294,None,0,0,0,0,,,,,14,1,113,2,268.1140694000005,,,,,,,,,,,,,,,,,,,,,268.09861270000056,268.1140694000005,268.59756220000054,268.60198390000005,268.62000799999987,269.5316663000003,,,,,269.5318618000001,269.5471126000002,269.7471218999999,269.73111940000035,268.62000799999987,,,,,,,,1,1,0.8959224999998696,None,,,,,,,,820,19,M,R,2026-02-25_12h29.02.473,VisualSearch_2526_3,,2025.2.4,2026-02-25 12h29.02.780757 +0100,
tilted.xlsx,The target is tilted.,117,114,2,14,0,1,1,1,1,1,1,1,0,0,0,0,1,7,8,117,space,5.216294599999856,None,0,1,1.716074199999639,None,space,1.0020865999995294,None,0,0,0,0,,,,,14,2,114,5,269.7471218999999,,,,,,,,,,,,,,,,,,,,,269.73219549999976,269.7471218999999,270.23067270000047,270.23393959999976,270.25222310000026,271.9812810000003,,,,,271.9814763000004,271.9968340000005,272.19652270000006,272.1807552999999,270.25222310000026,,,,,,,,0,1,1.716074199999639,None,,,,,,,,820,19,M,R,2026-02-25_12h29.02.473,VisualSearch_2526_3,,2025.2.4,2026-02-25 12h29.02.780757 +0100,
tilted.xlsx,The target is tilted.,117,115,3,14,1,0,0,0,0,0,0,0,0,0,0,0,0,0,1,117,space,5.216294599999856,None,1,1,0.548234500000035,None,space,1.0020865999995294,None,0,0,0,0,,,,,14,3,115,3,272.19652270000006,,,,,,,,,,,,,,,,,,,,,272.1816073,272.19652270000006,272.68067280000014,272.68523319999986,272.7040496999998,273.26447819999976,,,,,273.2647588,273.2795143000003,273.4800206,273.4637966999999,272.7040496999998,,,,,,,,1,1,0.548234500000035,None,,,,,,,,820,19,M,R,2026-02-25_12h29.02.473,VisualSearch_2526_3,,2025.2.4,2026-02-25 12h29.02.780757 +0100,
tilted.xlsx,The target is tilted.,117,116,4,14,0,1,1,1,0,0,0,0,0,0,0,0,1,3,4,117,space,5.216294599999856,None,0,1,0.7148305000000619,None,space,1.0020865999995294,None,0,0,0,0,,,,,14,4,116,6,273.4800206,,,,,,,,,,,,,,,,,,,,,273.46452430000045,273.4800206,273.96349980000014,273.9679742999997,273.9866092000002,274.71420409999973,,,,,274.71440210000037,274.7297558999999,274.9298236000004,274.91358050000053,273.9866092000002,,,,,,,,0,1,0.7148305000000619,None,,,,,,,,820,19,M,R,2026-02-25_12h29.02.473,VisualSearch_2526_3,,2025.2.4,2026-02-25 12h29.02.780757 +0100,
tilted.xlsx,The target is tilted.,117,117,5,14,1,1,1,1,1,1,1,1,1,1,1,1,0,11,12,117,space,5.216294599999856,None,1,1,1.5219724999997197,None,space,1.0020865999995294,None,0,0,0,0,,,,,14,5,117,0,274.9298236000004,,,,,,,,,,,,,,,,,,,,,274.9143095999998,274.9298236000004,275.4134793000003,275.4180395000003,275.4367930999997,276.96358820000023,,,,,276.96379380000053,276.9793824999997,277.1790823000001,277.16270280000026,275.4367930999997,,,,,,,,1,1,1.5219724999997197,None,,,,,,,,820,19,M,R,2026-02-25_12h29.02.473,VisualSearch_2526_3,,2025.2.4,2026-02-25 12h29.02.780757 +0100,
tilted.xlsx,The target is tilted.,117,118,6,14,0,0,0,0,0,0,0,0,0,0,0,0,1,1,1,117,space,5.216294599999856,None,0,1,0.5267597000001842,None,space,1.0020865999995294,None,0,0,0,0,,,,,14,6,118,7,277.1790823000001,,,,,,,,,,,,,,,,,,,,,277.1632489000003,277.1790823000001,277.66318560000036,277.6677773000001,277.68677300000036,278.2303947999999,,,,,278.23059139999987,278.24590679999983,278.44595260000006,278.42978949999997,277.68677300000036,,,,,,,,0,1,0.5267597000001842,None,,,,,,,,820,19,M,R,2026-02-25_12h29.02.473,VisualSearch_2526_3,,2025.2.4,2026-02-25 12h29.02.780757 +0100,
tilted.xlsx,The target is tilted.,117,119,7,14,0,1,1,1,1,1,1,1,1,1,1,1,1,11,12,117,space,5.216294599999856,None,0,1,1.552895499999977,None,space,1.0020865999995294,None,0,0,0,0,,,,,14,7,119,4,278.44595260000006,,,,,,,,,,,,,,,,,,,,,278.4305185000003,278.44595260000006,278.92969340000036,278.93415000000005,278.95289390000016,280.51328809999995,,,,,280.51347950000036,280.5289399000003,280.7498566000004,280.7125956,278.95289390000016,,,,,,,,0,1,1.552895499999977,None,,,,,,,,820,19,M,R,2026-02-25_12h29.02.473,VisualSearch_2526_3,,2025.2.4,2026-02-25 12h29.02.780757 +0100,
tilted.xlsx,The target is tilted.,117,0,0,0,,,,,,,,,,,,,,,,,space,5.216294599999856,None,,,,,space,1.0020865999995294,None,0,0,0,0,,,,,,,,,,,,,,,,,,,,,,,,,,,,,,,,,,,,,,,,,,,,,,,,,,,,,,,,,,,,,,,820,19,M,R,2026-02-25_12h29.02.473,VisualSearch_2526_3,,2025.2.4,2026-02-25 12h29.02.780757 +0100,
vertical.xlsx,The target is tilted.,135,0,0,0,1,1,1,1,0,0,0,0,0,0,0,0,0,3,4,135,space,2.3543228999997154,None,1,1,0.5016009999999369,None,,,,0,1,1,1,0,0,0,2,,,,,283.1470412999997,,,,,,,,,,,,,,,280.7498566000004,280.7498566000004,280.7498566000004,space,2.3543228999997154,None,283.1425555000005,283.1470412999997,283.62877089999984,283.63333299999977,283.65221139999994,284.1625088999999,1,1,0.5016009999999369,None,284.1626981999998,284.17847410000013,284.3785619999999,284.36196290000044,,,,,,,,,,,,,,,,,,,,820,19,M,R,2026-02-25_12h29.02.473,VisualSearch_2526_3,,2025.2.4,2026-02-25 12h29.02.780757 +0100,
vertical.xlsx,The target is tilted.,135,1,1,0,0,1,1,1,1,1,1,1,1,1,1,1,1,11,12,135,space,2.3543228999997154,None,0,1,1.6270849000002272,None,,,,0,1,1,1,0,1,1,4,,,,,284.3785619999999,,,,,,,,,,,,,,,,,,,,,284.36266650000016,284.3785619999999,284.86187320000045,284.86652779999986,284.8853420000005,286.52917460000026,0,1,1.6270849000002272,None,286.52936469999986,286.5446936999997,286.74460069999986,286.72857660000045,284.8853420000005,,,,,,,,,,,,,,,,,,,820,19,M,R,2026-02-25_12h29.02.473,VisualSearch_2526_3,,2025.2.4,2026-02-25 12h29.02.780757 +0100,
vertical.xlsx,The target is tilted.,135,2,2,0,0,1,1,1,0,0,0,0,0,0,0,0,1,3,4,135,space,2.3543228999997154,None,0,1,0.6088032000006933,None,,,,0,1,1,1,0,2,2,6,,,,,286.74460069999986,,,,,,,,,,,,,,,,,,,,,286.72924479999983,286.74460069999986,287.2283256999999,287.2328779999998,287.25164529999984,287.8619650999999,0,1,0.6088032000006933,None,287.8621473000003,287.8778523000001,288.0779462999999,288.06184740000026,287.25164529999984,,,,,,,,,,,,,,,,,,,820,19,M,R,2026-02-25_12h29.02.473,VisualSearch_2526_3,,2025.2.4,2026-02-25 12h29.02.780757 +0100,
vertical.xlsx,The target is tilted.,135,3,3,0,1,1,1,1,1,1,1,1,1,1,1,1,0,11,12,135,space,2.3543228999997154,None,1,1,0.43154539999977715,None,,,,0,1,1,1,0,3,3,0,,,,,288.0779462999999,,,,,,,,,,,,,,,,,,,,,288.0625135999999,288.0779462999999,288.5606966000005,288.56326460000037,288.57737220000035,289.01215630000024,1,1,0.43154539999977715,None,289.0123395999999,289.0277369000005,289.2276856999997,289.2117398999999,288.57737220000035,,,,,,,,,,,,,,,,,,,820,19,M,R,2026-02-25_12h29.02.473,VisualSearch_2526_3,,2025.2.4,2026-02-25 12h29.02.780757 +0100,
vertical.xlsx,The target is tilted.,135,4,4,0,1,1,1,1,1,1,1,1,0,0,0,0,0,7,8,135,space,2.3543228999997154,None,0,0,1.040491099999599,None,,,,0,1,1,1,0,4,4,1,,,,,289.2276856999997,,,,,,,,,,,,,,,,,,,,,289.2124805000003,289.2276856999997,289.71164450000015,289.716101,289.73477170000024,290.7783526000003,0,0,1.040491099999599,None,290.77853680000044,290.7939051000003,290.9941520000002,290.9779491999998,289.73477170000024,,,,,,,,,,,,,,,,,,,820,19,M,R,2026-02-25_12h29.02.473,VisualSearch_2526_3,,2025.2.4,2026-02-25 12h29.02.780757 +0100,
vertical.xlsx,The target is tilted.,135,5,5,0,0,1,1,1,1,1,1,1,0,0,0,0,1,7,8,135,space,2.3543228999997154,None,0,1,0.9738452000001416,None,,,,0,1,1,1,0,5,5,5,,,,,290.9941520000002,,,,,,,,,,,,,,,,,,,,,290.9786666,290.9941520000002,291.47791400000006,291.48255359999985,291.50147410000045,292.47830280000017,0,1,0.9738452000001416,None,292.4785152000004,292.4934662000005,292.69383780000044,292.67782350000016,291.50147410000045,,,,,,,,,,,,,,,,,,,820,19,M,R,2026-02-25_12h29.02.473,VisualSearch_2526_3,,2025.2.4,2026-02-25 12h29.02.780757 +0100,
vertical.xlsx,The target is tilted.,135,6,6,0,1,0,0,0,0,0,0,0,0,0,0,0,0,0,1,135,space,2.3543228999997154,None,1,1,0.4552970999993704,None,,,,0,1,1,1,0,6,6,3,,,,,292.69383780000044,,,,,,,,,,,,,,,,,,,,,292.6784832000003,292.69383780000044,293.1777308999999,293.1822468999999,293.2009100000005,293.66132780000044,1,1,0.4552970999993704,None,293.6615112999998,293.67707229999996,293.8770639000004,293.8609174000003,293.2009100000005,,,,,,,,,,,,,,,,,,,820,19,M,R,2026-02-25_12h29.02.473,VisualSearch_2526_3,,2025.2.4,2026-02-25 12h29.02.780757 +0100,
vertical.xlsx,The target is tilted.,135,7,7,0,0,0,0,0,0,0,0,0,0,0,0,0,1,1,1,135,space,2.3543228999997154,None,1,0,0.44816220000029716,None,,,,0,1,1,1,0,7,7,7,,,,,293.8770639000004,,,,,,,,,,,,,,,,,,,,,293.8615907000003,293.8770639000004,294.36074670000016,294.3651139000003,294.3768869000005,294.8281549000003,1,0,0.44816220000029716,None,294.82834960000037,294.8432179000001,295.04353549999996,295.02709959999993,294.3768869000005,,,,,,,,,,,,,,,,,,,820,19,M,R,2026-02-25_12h29.02.473,VisualSearch_2526_3,,2025.2.4,2026-02-25 12h29.02.780757 +0100,
vertical.xlsx,The target is tilted.,135,0,0,0,0,0,0,0,0,0,0,0,0,0,0,0,1,1,1,135,space,2.3543228999997154,None,0,1,0.6691814000005252,None,space,0.9818033000001378,None,0,1,1,1,,,,,0,0,0,7,296.0645118000002,,,,,,,,,,,,,,,,,,,,,296.06025039999986,296.0645118000002,296.5436096000003,296.5482721999997,296.5670517999997,297.2434677000001,,,,,297.2435873000004,297.2592311999997,297.45988620000026,297.4439075999999,,295.03423759999987,295.04353549999996,295.04353549999996,296.02765890000046,space,0.9818033000001378,None,0,1,0.6691814000005252,None,,,,,,,,820,19,M,R,2026-02-25_12h29.02.473,VisualSearch_2526_3,,2025.2.4,2026-02-25 12h29.02.780757 +0100,
vertical.xlsx,The target is tilted.,135,1,1,0,1,1,1,1,0,0,0,0,0,0,0,0,0,3,4,135,space,2.3543228999997154,None,1,1,0.5584589000000051,None,space,0.9818033000001378,None,0,1,1,1,,,,,0,1,1,2,297.45988620000026,,,,,,,,,,,,,,,,,,,,,297.4447374000001,297.45988620000026,297.94367729999976,297.9480045,297.96648689999984,298.52750079999987,,,,,298.52770469999996,298.54294089999985,298.7429097000004,298.72688610000023,297.96648689999984,,,,,,,,1,1,0.5584589000000051,None,,,,,,,,820,19,M,R,2026-02-25_12h29.02.473,VisualSearch_2526_3,,2025.2.4,2026-02-25 12h29.02.780757 +0100,
vertical.xlsx,The target is tilted.,135,2,2,0,1,0,0,0,0,0,0,0,0,0,0,0,0,0,1,135,space,2.3543228999997154,None,1,1,0.48136329999942973,None,space,0.9818033000001378,None,0,1,1,1,,,,,0,2,2,3,298.7429097000004,,,,,,,,,,,,,,,,,,,,,298.7276485000002,298.7429097000004,299.2268119999999,299.2313036000005,299.25011859999995,299.74397640000007,,,,,299.7441705000001,299.7594601999999,299.9596475999997,299.94303430000036,299.25011859999995,,,,,,,,1,1,0.48136329999942973,None,,,,,,,,820,19,M,R,2026-02-25_12h29.02.473,VisualSearch_2526_3,,2025.2.4,2026-02-25 12h29.02.780757 +0100,
vertical.xlsx,The target is tilted.,135,3,3,0,0,1,1,1,1,1,1,1,0,0,0,0,1,7,8,135,space,2.3543228999997154,None,0,1,1.172529399999803,None,space,0.9818033000001378,None,0,1,1,1,,,,,0,3,3,5,299.9596475999997,,,,,,,,,,,,,,,,,,,,,299.9436291000002,299.9596475999997,300.44286379999994,300.4475087999999,300.4661092000006,301.64337630000045,,,,,301.6435717000004,301.6590965000005,301.8591236000002,301.8432074000002,300.4661092000006,,,,,,,,0,1,1.172529399999803,None,,,,,,,,820,19,M,R,2026-02-25_12h29.02.473,VisualSearch_2526_3,,2025.2.4,2026-02-25 12h29.02.780757 +0100,
vertical.xlsx,The target is tilted.,135,4,4,0,0,1,1,1,1,1,1,1,1,1,1,1,1,11,12,135,space,2.3543228999997154,None,0,1,0.6787574999998469,None,space,0.9818033000001378,None,0,1,1,1,,,,,0,4,4,4,301.8591236000002,,,,,,,,,,,,,,,,,,,,,301.8440394999998,301.8591236000002,302.3431547,302.3478703999999,302.36585170000035,303.06017620000057,,,,,303.0603686000004,303.07507350000014,303.2757609999999,303.2596357000002,302.36585170000035,,,,,,,,0,1,0.6787574999998469,None,,,,,,,,820,19,M,R,2026-02-25_12h29.02.473,VisualSearch_2526_3,,2025.2.4,2026-02-25 12h29.02.780757 +0100,
vertical.xlsx,The target is tilted.,135,5,5,0,1,1,1,1,1,1,1,1,0,0,0,0,0,7,8,135,space,2.3543228999997154,None,1,1,0.5742350999998962,None,space,0.9818033000001378,None,0,1,1,1,,,,,0,5,5,1,303.2757609999999,,,,,,,,,,,,,,,,,,,,,303.2603530000006,303.2757609999999,303.7595699000003,303.7640529,303.7827686999999,304.36010200000055,,,,,304.36032479999994,304.37519900000007,304.5755269000001,304.55924140000025,303.7827686999999,,,,,,,,1,1,0.5742350999998962,None,,,,,,,,820,19,M,R,2026-02-25_12h29.02.473,VisualSearch_2526_3,,2025.2.4,2026-02-25 12h29.02.780757 +0100,
vertical.xlsx,The target is tilted.,135,6,6,0,0,1,1,1,0,0,0,0,0,0,0,0,1,3,4,135,space,2.3543228999997154,None,0,1,0.5236094000001685,None,space,0.9818033000001378,None,0,1,1,1,,,,,0,6,6,6,304.5755269000001,,,,,,,,,,,,,,,,,,,,,304.5599739999998,304.5755269000001,305.0593408000004,305.0638592000005,305.0832046000005,305.6099275000006,,,,,305.6101408000004,305.62541370000054,305.8253414999999,305.8090665,305.0832046000005,,,,,,,,0,1,0.5236094000001685,None,,,,,,,,820,19,M,R,2026-02-25_12h29.02.473,VisualSearch_2526_3,,2025.2.4,2026-02-25 12h29.02.780757 +0100,
vertical.xlsx,The target is tilted.,135,7,7,0,1,1,1,1,1,1,1,1,1,1,1,1,0,11,12,135,space,2.3543228999997154,None,1,1,0.9125608000003922,None,space,0.9818033000001378,None,0,1,1,1,,,,,0,7,7,0,305.8253414999999,,,,,,,,,,,,,,,,,,,,,305.80983060000017,305.8253414999999,306.30923540000003,306.3137462000004,306.3326199000003,307.25956289999976,,,,,307.2597598000002,307.27507049999986,307.4751395000003,307.45875239999987,306.3326199000003,,,,,,,,1,1,0.9125608000003922,None,,,,,,,,820,19,M,R,2026-02-25_12h29.02.473,VisualSearch_2526_3,,2025.2.4,2026-02-25 12h29.02.780757 +0100,
vertical.xlsx,The target is tilted.,135,8,0,1,1,1,1,1,1,1,1,1,1,1,1,1,0,11,12,135,space,2.3543228999997154,None,1,1,0.722723799999585,None,space,0.9818033000001378,None,0,1,1,1,,,,,1,0,8,0,307.4751395000003,,,,,,,,,,,,,,,,,,,,,307.45960790000026,307.4751395000003,307.95898810000017,307.9635350999997,307.9822627000003,308.70909720000054,,,,,308.70928230000027,308.7248884999999,308.924935,308.90873160000046,307.9822627000003,,,,,,,,1,1,0.722723799999585,None,,,,,,,,820,19,M,R,2026-02-25_12h29.02.473,VisualSearch_2526_3,,2025.2.4,2026-02-25 12h29.02.780757 +0100,
vertical.xlsx,The target is tilted.,135,9,1,1,0,1,1,1,1,1,1,1,0,0,0,0,1,7,8,135,space,2.3543228999997154,None,0,1,0.7498624999998356,None,space,0.9818033000001378,None,0,1,1,1,,,,,1,1,9,5,308.924935,,,,,,,,,,,,,,,,,,,,,308.9095879000006,308.924935,309.40829660000054,309.4127152000001,309.43227620000016,310.19252140000026,,,,,310.1927125000002,310.20807590000004,310.4080396999998,310.39194920000045,309.43227620000016,,,,,,,,0,1,0.7498624999998356,None,,,,,,,,820,19,M,R,2026-02-25_12h29.02.473,VisualSearch_2526_3,,2025.2.4,2026-02-25 12h29.02.780757 +0100,
vertical.xlsx,The target is tilted.,135,10,2,1,0,1,1,1,1,1,1,1,1,1,1,1,1,11,12,135,space,2.3543228999997154,None,0,1,0.9486638999997012,None,space,0.9818033000001378,None,0,1,1,1,,,,,1,2,10,4,310.4080396999998,,,,,,,,,,,,,,,,,,,,,310.39270620000025,310.4080396999998,310.89187159999983,310.8962750999999,310.9147815000006,311.8745035000002,,,,,311.87463279999974,311.8904527000004,312.0906595000006,312.0746049999998,310.9147815000006,,,,,,,,0,1,0.9486638999997012,None,,,,,,,,820,19,M,R,2026-02-25_12h29.02.473,VisualSearch_2526_3,,2025.2.4,2026-02-25 12h29.02.780757 +0100,
vertical.xlsx,The target is tilted.,135,11,3,1,1,1,1,1,1,1,1,1,0,0,0,0,0,7,8,135,space,2.3543228999997154,None,1,1,0.4762448999999833,None,space,0.9818033000001378,None,0,1,1,1,,,,,1,3,11,1,312.0906595000006,,,,,,,,,,,,,,,,,,,,,312.0753650000006,312.0906595000006,312.5748186999999,312.57951670000057,312.59092150000015,313.07535610000014,,,,,313.0755430999998,313.0906749000005,313.29103120000036,313.2748194000005,,,,,,,,,1,1,0.4762448999999833,None,,,,,,,,820,19,M,R,2026-02-25_12h29.02.473,VisualSearch_2526_3,,2025.2.4,2026-02-25 12h29.02.780757 +0100,
vertical.xlsx,The target is tilted.,135,12,4,1,1,0,0,0,0,0,0,0,0,0,0,0,0,0,1,135,space,2.3543228999997154,None,1,1,0.42327840000052674,None,space,0.9818033000001378,None,0,1,1,1,,,,,1,4,12,3,313.29103120000036,,,,,,,,,,,,,,,,,,,,,313.27556110000023,313.29103120000036,313.7747516999998,313.77922769999986,313.79890010000054,314.2251446,,,,,314.22536390000005,314.24080589999994,314.44082270000035,314.42482999999993,313.79890010000054,,,,,,,,1,1,0.42327840000052674,None,,,,,,,,820,19,M,R,2026-02-25_12h29.02.473,VisualSearch_2526_3,,2025.2.4,2026-02-25 12h29.02.780757 +0100,
vertical.xlsx,The target is tilted.,135,13,5,1,0,1,1,1,0,0,0,0,0,0,0,0,1,3,4,135,space,2.3543228999997154,None,0,1,0.517445399999815,None,space,0.9818033000001378,None,0,1,1,1,,,,,1,5,13,6,314.44082270000035,,,,,,,,,,,,,,,,,,,,,314.4256551999997,314.44082270000035,314.9253286000003,314.93013130000054,314.94893310000043,315.4750363000003,,,,,315.47522260000005,315.4906345999998,315.69072849999975,315.6745473000001,314.94893310000043,,,,,,,,0,1,0.517445399999815,None,,,,,,,,820,19,M,R,2026-02-25_12h29.02.473,VisualSearch_2526_3,,2025.2.4,2026-02-25 12h29.02.780757 +0100,
vertical.xlsx,The target is tilted.,135,14,6,1,1,1,1,1,0,0,0,0,0,0,0,0,0,3,4,135,space,2.3543228999997154,None,1,1,0.6930263000003833,None,space,0.9818033000001378,None,0,1,1,1,,,,,1,6,14,2,315.69072849999975,,,,,,,,,,,,,,,,,,,,,315.67539490000036,315.69072849999975,316.1745273000006,316.17978870000024,316.1989893,316.9081821999998,,,,,316.9083717000003,316.9233860000004,317.1238037000003,317.1077575999998,316.1989893,,,,,,,,1,1,0.6930263000003833,None,,,,,,,,820,19,M,R,2026-02-25_12h29.02.473,VisualSearch_2526_3,,2025.2.4,2026-02-25 12h29.02.780757 +0100,
vertical.xlsx,The target is tilted.,135,15,7,1,0,0,0,0,0,0,0,0,0,0,0,0,1,1,1,135,space,2.3543228999997154,None,0,1,0.6625008000000889,None,space,0.9818033000001378,None,0,1,1,1,,,,,1,7,15,7,317.1238037000003,,,,,,,,,,,,,,,,,,,,,317.1085697999997,317.1238037000003,317.6075523999998,317.6121261999997,317.6235002000003,318.2911568999998,,,,,318.29134350000004,318.3069204000003,318.50653090000014,318.49080589999994,317.6235002000003,,,,,,,,0,1,0.6625008000000889,None,,,,,,,,820,19,M,R,2026-02-25_12h29.02.473,VisualSearch_2526_3,,2025.2.4,2026-02-25 12h29.02.780757 +0100,
vertical.xlsx,The target is tilted.,135,16,0,2,0,0,0,0,0,0,0,0,0,0,0,0,1,1,1,135,space,2.3543228999997154,None,0,1,0.3962930999996388,None,space,0.9818033000001378,None,0,1,1,1,,,,,2,0,16,7,318.50653090000014,,,,,,,,,,,,,,,,,,,,,318.49153190000015,318.50653090000014,318.9909015000003,318.9957942000001,319.00619319999987,319.40777830000025,,,,,319.4079806,319.42333320000034,319.6231198000005,319.6073231999999,319.00619319999987,,,,,,,,0,1,0.3962930999996388,None,,,,,,,,820,19,M,R,2026-02-25_12h29.02.473,VisualSearch_2526_3,,2025.2.4,2026-02-25 12h29.02.780757 +0100,
vertical.xlsx,The target is tilted.,135,17,1,2,1,1,1,1,0,0,0,0,0,0,0,0,0,3,4,135,space,2.3543228999997154,None,1,1,0.7386937999999645,None,space,0.9818033000001378,None,0,1,1,1,,,,,2,1,17,2,319.6231198000005,,,,,,,,,,,,,,,,,,,,,319.60802760000024,319.6231198000005,320.10724759999994,320.1117598000001,320.13056719999986,320.8742338000002,,,,,320.8744363000005,320.88974640000015,321.0899506000005,321.0737878,320.13056719999986,,,,,,,,1,1,0.7386937999999645,None,,,,,,,,820,19,M,R,2026-02-25_12h29.02.473,VisualSearch_2526_3,,2025.2.4,2026-02-25 12h29.02.780757 +0100,
vertical.xlsx,The target is tilted.,135,18,2,2,1,1,1,1,1,1,1,1,0,0,0,0,0,7,8,135,space,2.3543228999997154,None,1,1,0.6911087999997108,None,space,0.9818033000001378,None,0,1,1,1,,,,,2,2,18,1,321.0899506000005,,,,,,,,,,,,,,,,,,,,,321.0746237000003,321.0899506000005,321.5736023999998,321.5780276000005,321.59593360000054,322.2904574000004,,,,,322.29064629999993,322.3061925000002,322.50618959999974,322.4897228,321.59593360000054,,,,,,,,1,1,0.6911087999997108,None,,,,,,,,820,19,M,R,2026-02-25_12h29.02.473,VisualSearch_2526_3,,2025.2.4,2026-02-25 12h29.02.780757 +0100,
vertical.xlsx,The target is tilted.,135,19,3,2,1,1,1,1,1,1,1,1,1,1,1,1,0,11,12,135,space,2.3543228999997154,None,1,1,0.643859099999645,None,space,0.9818033000001378,None,0,1,1,1,,,,,2,3,19,0,322.50618959999974,,,,,,,,,,,,,,,,,,,,,322.49007660000007,322.50618959999974,322.9902843,322.99500030000036,323.00607020000007,323.65684150000016,,,,,323.6570641999997,323.67242309999983,323.8727544000003,323.85652070000015,323.00607020000007,,,,,,,,1,1,0.643859099999645,None,,,,,,,,820,19,M,R,2026-02-25_12h29.02.473,VisualSearch_2526_3,,2025.2.4,2026-02-25 12h29.02.780757 +0100,
vertical.xlsx,The target is tilted.,135,20,4,2,0,1,1,1,1,1,1,1,0,0,0,0,1,7,8,135,space,2.3543228999997154,None,0,1,0.8823200999995606,None,space,0.9818033000001378,None,0,1,1,1,,,,,2,4,20,5,323.8727544000003,,,,,,,,,,,,,,,,,,,,,323.8572488,323.8727544000003,324.3564842000005,324.3609428,324.3755047000004,325.2735984000001,,,,,325.2737877999998,325.2891709000005,325.4891948000004,325.47298990000036,324.3755047000004,,,,,,,,0,1,0.8823200999995606,None,,,,,,,,820,19,M,R,2026-02-25_12h29.02.473,VisualSearch_2526_3,,2025.2.4,2026-02-25 12h29.02.780757 +0100,
vertical.xlsx,The target is tilted.,135,21,5,2,0,1,1,1,1,1,1,1,1,1,1,1,1,11,12,135,space,2.3543228999997154,None,0,1,1.0333941999997478,None,space,0.9818033000001378,None,0,1,1,1,,,,,2,5,21,4,325.4891948000004,,,,,,,,,,,,,,,,,,,,,325.47375550000015,325.4891948000004,325.9728246000004,325.97762280000006,325.9890766999997,327.0400566999997,,,,,327.0402451,327.0552273000003,327.25562960000025,327.2395338000006,325.9890766999997,,,,,,,,0,1,1.0333941999997478,None,,,,,,,,820,19,M,R,2026-02-25_12h29.02.473,VisualSearch_2526_3,,2025.2.4,2026-02-25 12h29.02.780757 +0100,
vertical.xlsx,The target is tilted.,135,22,6,2,0,1,1,1,0,0,0,0,0,0,0,0,1,3,4,135,space,2.3543228999997154,None,0,1,0.5234183000002304,None,space,0.9818033000001378,None,0,1,1,1,,,,,2,6,22,6,327.25562960000025,,,,,,,,,,,,,,,,,,,,,327.2402404000004,327.25562960000025,327.73949919999995,327.7438606000005,327.76258060000055,328.28950390000045,,,,,328.28969380000035,328.3053024000001,328.50550290000047,328.48930459999974,327.76258060000055,,,,,,,,0,1,0.5234183000002304,None,,,,,,,,820,19,M,R,2026-02-25_12h29.02.473,VisualSearch_2526_3,,2025.2.4,2026-02-25 12h29.02.780757 +0100,
vertical.xlsx,The target is tilted.,135,23,7,2,1,0,0,0,0,0,0,0,0,0,0,0,0,0,1,135,space,2.3543228999997154,None,1,1,0.4108449000004839,None,space,0.9818033000001378,None,0,1,1,1,,,,,2,7,23,3,328.50550290000047,,,,,,,,,,,,,,,,,,,,,328.4900425000005,328.50550290000047,328.98883509999996,328.9933195000003,329.01226510000015,329.4397452000003,,,,,329.4399334999998,329.4550414000005,329.6553479000004,329.63906880000013,329.01226510000015,,,,,,,,1,1,0.4108449000004839,None,,,,,,,,820,19,M,R,2026-02-25_12h29.02.473,VisualSearch_2526_3,,2025.2.4,2026-02-25 12h29.02.780757 +0100,
vertical.xlsx,The target is tilted.,135,24,0,3,1,1,1,1,1,1,1,1,1,1,1,1,0,11,12,135,space,2.3543228999997154,None,1,1,0.8714378999993642,None,space,0.9818033000001378,None,0,1,1,1,,,,,3,0,24,0,329.6553479000004,,,,,,,,,,,,,,,,,,,,,329.63980210000045,329.6553479000004,330.1386696999998,330.14322119999997,330.1623454999999,331.0393782000001,,,,,331.0395638,331.05497209999976,331.25507819999984,331.23891150000054,330.1623454999999,,,,,,,,1,1,0.8714378999993642,None,,,,,,,,820,19,M,R,2026-02-25_12h29.02.473,VisualSearch_2526_3,,2025.2.4,2026-02-25 12h29.02.780757 +0100,
vertical.xlsx,The target is tilted.,135,25,1,3,0,1,1,1,1,1,1,1,0,0,0,0,1,7,8,135,space,2.3543228999997154,None,0,1,1.155834899999718,None,space,0.9818033000001378,None,0,1,1,1,,,,,3,1,25,5,331.25507819999984,,,,,,,,,,,,,,,,,,,,,331.23964630000046,331.25507819999984,331.7381512000002,331.74075410000023,331.7548022000001,332.9223308999999,,,,,332.9225210000004,332.9379981000002,333.13814960000036,333.1218753000003,331.7548022000001,,,,,,,,0,1,1.155834899999718,None,,,,,,,,820,19,M,R,2026-02-25_12h29.02.473,VisualSearch_2526_3,,2025.2.4,2026-02-25 12h29.02.780757 +0100,
vertical.xlsx,The target is tilted.,135,26,2,3,0,0,0,0,0,0,0,0,0,0,0,0,1,1,1,135,space,2.3543228999997154,None,1,0,0.5293672999996488,None,space,0.9818033000001378,None,0,1,1,1,,,,,3,2,26,7,333.13814960000036,,,,,,,,,,,,,,,,,,,,,333.1226293999998,333.13814960000036,333.62188270000024,333.6263085999999,333.64511930000026,334.18875350000053,,,,,334.18889519999993,334.2045641000004,334.40400409999984,334.3886515000004,333.64511930000026,,,,,,,,1,0,0.5293672999996488,None,,,,,,,,820,19,M,R,2026-02-25_12h29.02.473,VisualSearch_2526_3,,2025.2.4,2026-02-25 12h29.02.780757 +0100,
vertical.xlsx,The target is tilted.,135,27,3,3,1,0,0,0,0,0,0,0,0,0,0,0,0,0,1,135,space,2.3543228999997154,None,1,1,0.5968286000006628,None,space,0.9818033000001378,None,0,1,1,1,,,,,3,3,27,3,334.40400409999984,,,,,,,,,,,,,,,,,,,,,334.3894478000002,334.40400409999984,334.88848099999996,334.8930693000002,334.9109811999997,335.52223909999975,,,,,335.52243050000016,335.5376715000002,335.73739509999996,335.72133870000016,334.9109811999997,,,,,,,,1,1,0.5968286000006628,None,,,,,,,,820,19,M,R,2026-02-25_12h29.02.473,VisualSearch_2526_3,,2025.2.4,2026-02-25 12h29.02.780757 +0100,
vertical.xlsx,The target is tilted.,135,28,4,3,0,1,1,1,1,1,1,1,1,1,1,1,1,11,12,135,space,2.3543228999997154,None,0,1,1.345527100000254,None,space,0.9818033000001378,None,0,1,1,1,,,,,3,4,28,4,335.73739509999996,,,,,,,,,,,,,,,,,,,,,335.7220950000001,335.73739509999996,336.22152749999987,336.226044,336.2449223000003,337.6057761000002,,,,,337.6059728,337.6204423999998,337.82093239999995,337.80428870000014,336.2449223000003,,,,,,,,0,1,1.345527100000254,None,,,,,,,,820,19,M,R,2026-02-25_12h29.02.473,VisualSearch_2526_3,,2025.2.4,2026-02-25 12h29.02.780757 +0100,
vertical.xlsx,The target is tilted.,135,29,5,3,0,1,1,1,0,0,0,0,0,0,0,0,1,3,4,135,space,2.3543228999997154,None,0,1,0.5798206000008577,None,space,0.9818033000001378,None,0,1,1,1,,,,,3,5,29,6,337.82093239999995,,,,,,,,,,,,,,,,,,,,,337.8048810999999,337.82093239999995,338.30450440000004,338.3091538999997,338.3278790000004,338.92172370000026,,,,,338.9219142000002,338.93723339999997,339.1372971999999,339.12127280000004,338.3278790000004,,,,,,,,0,1,0.5798206000008577,None,,,,,,,,820,19,M,R,2026-02-25_12h29.02.473,VisualSearch_2526_3,,2025.2.4,2026-02-25 12h29.02.780757 +0100,
vertical.xlsx,The target is tilted.,135,30,6,3,1,1,1,1,0,0,0,0,0,0,0,0,0,3,4,135,space,2.3543228999997154,None,1,1,0.4894433999998,None,space,0.9818033000001378,None,0,1,1,1,,,,,3,6,30,2,339.1372971999999,,,,,,,,,,,,,,,,,,,,,339.12209820000044,339.1372971999999,339.6213088000004,339.6259699000002,339.6440014,340.13803350000035,,,,,340.1382319000004,340.1536907999998,340.3537398999997,340.3376853999998,339.6440014,,,,,,,,1,1,0.4894433999998,None,,,,,,,,820,19,M,R,2026-02-25_12h29.02.473,VisualSearch_2526_3,,2025.2.4,2026-02-25 12h29.02.780757 +0100,
vertical.xlsx,The target is tilted.,135,31,7,3,1,1,1,1,1,1,1,1,0,0,0,0,0,7,8,135,space,2.3543228999997154,None,1,1,0.5651059000001624,None,space,0.9818033000001378,None,0,1,1,1,,,,,3,7,31,1,340.3537398999997,,,,,,,,,,,,,,,,,,,,,340.3384262999998,340.3537398999997,340.8374494999998,340.8424014000002,340.8613228000004,341.4380166000001,,,,,341.43823580000026,341.45343260000027,341.6536292999999,341.6376038999997,340.8613228000004,,,,,,,,1,1,0.5651059000001624,None,,,,,,,,820,19,M,R,2026-02-25_12h29.02.473,VisualSearch_2526_3,,2025.2.4,2026-02-25 12h29.02.780757 +0100,
vertical.xlsx,The target is tilted.,135,32,0,4,0,1,1,1,1,1,1,1,1,1,1,1,1,11,12,135,space,2.3543228999997154,None,0,1,0.8751756999999998,None,space,0.9818033000001378,None,0,1,1,1,,,,,4,0,32,4,341.6536292999999,,,,,,,,,,,,,,,,,,,,,341.6385511999997,341.6536292999999,342.13742189999994,342.1419691000001,342.1606625000004,343.03807270000016,,,,,343.03827720000027,343.05320310000025,343.2534212999999,343.2373972000005,342.1606625000004,,,,,,,,0,1,0.8751756999999998,None,,,,,,,,820,19,M,R,2026-02-25_12h29.02.473,VisualSearch_2526_3,,2025.2.4,2026-02-25 12h29.02.780757 +0100,
vertical.xlsx,The target is tilted.,135,33,1,4,1,1,1,1,1,1,1,1,0,0,0,0,0,7,8,135,space,2.3543228999997154,None,1,1,1.732487399999627,None,space,0.9818033000001378,None,0,1,1,1,,,,,4,1,33,1,343.2534212999999,,,,,,,,,,,,,,,,,,,,,343.2382189,343.2534212999999,343.73708609999994,343.7427810999998,343.7615157,345.5041004000004,,,,,345.5042905999999,345.5193306000001,345.7194657,345.70365390000006,343.7615157,,,,,,,,1,1,1.732487399999627,None,,,,,,,,820,19,M,R,2026-02-25_12h29.02.473,VisualSearch_2526_3,,2025.2.4,2026-02-25 12h29.02.780757 +0100,
