file_name,block_instructions,target_example,thisN,thisTrialN,thisRepN,target_presence,opacity_1,opacity_2,opacity_3,opacity_4,opacity_5,opacity_6,opacity_7,opacity_8,opacity_9,opacity_10,opacity_11,opacity_12,n_distract,n_items,target_ori,key_resp_4.keys,key_resp_4.rt,key_resp_4.duration,key_resp.keys,key_resp.corr,key_resp.rt,key_resp.duration,key_resp_5.keys,key_resp_5.rt,key_resp_5.duration,blocks.thisRepN,blocks.thisTrialN,blocks.thisN,blocks.thisIndex,practice_trials.thisRepN,practice_trials.thisTrialN,practice_trials.thisN,practice_trials.thisIndex,trials.thisRepN,trials.thisTrialN,trials.thisN,trials.thisIndex,thisRow.t,notes,Welcome.started,WelcomeText.started,key_resp_2.started,Welcome.stopped,key_resp_2.keys,key_resp_2.rt,key_resp_2.duration,InformedConsent.started,text_4.started,InformedConsent.stopped,key_resp_6.keys,key_resp_6.rt,key_resp_6.duration,key_resp_4.started,example_target.started,text_3.started,blocks.key_resp_4.keys,blocks.key_resp_4.rt,blocks.key_resp_4.duration,FixCross.started,fixCross.started,FixCross.stopped,Stimulus.started,key_resp.started,Stimulus.stopped,practice_trials.key_resp.keys,practice_trials.key_resp.corr,practice_trials.key_resp.rt,practice_trials.key_resp.duration,BlankScreen.started,text.started,text.stopped,BlankScreen.stopped,fixCross.stopped,ExperimentStart.started,text_2.started,key_resp_5.started,ExperimentStart.stopped,blocks.key_resp_5.keys,blocks.key_resp_5.rt,blocks.key_resp_5.duration,trials.key_resp.keys,trials.key_resp.corr,trials.key_resp.rt,trials.key_resp.duration,Thanks.started,ThankYou.started,key_resp_3.started,Thanks.stopped,key_resp_3.keys,key_resp_3.rt,key_resp_3.duration,participant,leeftijd,gender,links/rechtshandig,date,expName,expVersion,psychopyVersion,expStart,
,,,,,,,,,,,,,,,,,,,,,,,,,,,,,,,,,,,,,,,,,,,,,,0.032890500000007705,0.05983209999999417,0.05983209999999417,70.3530326,space,70.15004509999994,None,,,,,,,,,,,,,,,,,,,,,,,,,,,,,,,,,,,,,,,,,,,,,,821,24,M,R,2026-02-18_11h10.44.787,VisualSearch_2526_3,,2025.2.4,2026-02-18 11h10.45.558293 +0100,
,,,,,,,,,,,,,,,,,,,,,,,,,,,,,,,,,,,,,,,,,,,,,,,,,,,,,70.3530859,70.35848269999997,79.38134170000001,y,9.012097799999992,None,,,,,,,,,,,,,,,,,,,,,,,,,,,,,,,,,,,,,,,,821,24,M,R,2026-02-18_11h10.44.787,VisualSearch_2526_3,,2025.2.4,2026-02-18 11h10.45.558293 +0100,
vertical.xlsx,The target is tilted.,135,0,0,0,1,1,1,1,1,1,1,1,1,1,1,1,0,11,12,135,space,8.984164799999917,None,1,1,1.1353869000000714,None,,,,0,0,0,1,0,0,0,0,,,,,88.57438649999995,,,,,,,,,,,,,,,79.51457759999994,79.51457759999994,79.51457759999994,space,8.984164799999917,None,88.56876369999998,88.57438649999995,89.02870859999996,89.03391979999992,89.05233409999994,90.19566320000001,1,1,1.1353869000000714,None,90.19585719999998,90.21139129999995,90.41138460000002,90.39475269999991,,,,,,,,,,,,,,,,,,,,821,24,M,R,2026-02-18_11h10.44.787,VisualSearch_2526_3,,2025.2.4,2026-02-18 11h10.45.558293 +0100,
vertical.xlsx,The target is tilted.,135,1,1,0,1,1,1,1,1,1,1,1,0,0,0,0,0,7,8,135,space,8.984164799999917,None,0,0,1.956460600000014,None,,,,0,0,0,1,0,1,1,1,,,,,90.41138460000002,,,,,,,,,,,,,,,,,,,,,90.39542649999999,90.41138460000002,90.89507149999997,90.90048769999999,90.9197835,92.87876069999993,0,0,1.956460600000014,None,92.87895639999999,92.89410239999995,93.09396270000002,93.07816279999997,90.9197835,,,,,,,,,,,,,,,,,,,821,24,M,R,2026-02-18_11h10.44.787,VisualSearch_2526_3,,2025.2.4,2026-02-18 11h10.45.558293 +0100,
vertical.xlsx,The target is tilted.,135,2,2,0,1,0,0,0,0,0,0,0,0,0,0,0,0,0,1,135,space,8.984164799999917,None,1,1,0.6133217000000286,None,,,,0,0,0,1,0,2,2,3,,,,,93.09396270000002,,,,,,,,,,,,,,,,,,,,,93.07887189999997,93.09396270000002,93.57737299999997,93.58002899999997,93.59396179999999,94.21198049999998,1,1,0.6133217000000286,None,94.21231769999997,94.22689979999996,94.42737719999991,94.41092909999998,93.59396179999999,,,,,,,,,,,,,,,,,,,821,24,M,R,2026-02-18_11h10.44.787,VisualSearch_2526_3,,2025.2.4,2026-02-18 11h10.45.558293 +0100,
vertical.xlsx,The target is tilted.,135,3,3,0,0,0,0,0,0,0,0,0,0,0,0,0,1,1,1,135,space,8.984164799999917,None,0,1,0.6959405000000061,None,,,,0,0,0,1,0,3,3,7,,,,,94.42737719999991,,,,,,,,,,,,,,,,,,,,,94.41164479999998,94.42737719999991,94.91101930000002,94.91563629999996,94.93375179999998,95.64423449999992,0,1,0.6959405000000061,None,95.64441639999995,95.65984659999992,95.86005829999999,95.84427540000001,94.93375179999998,,,,,,,,,,,,,,,,,,,821,24,M,R,2026-02-18_11h10.44.787,VisualSearch_2526_3,,2025.2.4,2026-02-18 11h10.45.558293 +0100,
vertical.xlsx,The target is tilted.,135,4,4,0,0,1,1,1,1,1,1,1,0,0,0,0,1,7,8,135,space,8.984164799999917,None,0,1,2.5054793000000473,None,,,,0,0,0,1,0,4,4,5,,,,,95.86005829999999,,,,,,,,,,,,,,,,,,,,,95.8451139,95.86005829999999,96.34432079999999,96.34952520000002,96.36893169999996,98.8777172,0,1,2.5054793000000473,None,98.87788839999996,98.89264729999991,99.09330539999996,99.07708969999999,96.36893169999996,,,,,,,,,,,,,,,,,,,821,24,M,R,2026-02-18_11h10.44.787,VisualSearch_2526_3,,2025.2.4,2026-02-18 11h10.45.558293 +0100,
vertical.xlsx,The target is tilted.,135,5,5,0,1,1,1,1,0,0,0,0,0,0,0,0,0,3,4,135,space,8.984164799999917,None,1,1,0.7869441000000279,None,,,,0,0,0,1,0,5,5,2,,,,,99.09330539999996,,,,,,,,,,,,,,,,,,,,,99.07775649999996,99.09330539999996,99.57707159999995,99.58166310000001,99.60326079999993,100.39360809999994,1,1,0.7869441000000279,None,100.39379269999995,100.40897180000002,100.60971059999997,100.5932123,99.60326079999993,,,,,,,,,,,,,,,,,,,821,24,M,R,2026-02-18_11h10.44.787,VisualSearch_2526_3,,2025.2.4,2026-02-18 11h10.45.558293 +0100,
vertical.xlsx,The target is tilted.,135,6,6,0,0,1,1,1,1,1,1,1,1,1,1,1,1,11,12,135,space,8.984164799999917,None,0,1,2.291199800000072,None,,,,0,0,0,1,0,6,6,4,,,,,100.60971059999997,,,,,,,,,,,,,,,,,,,,,100.59388919999992,100.60971059999997,101.09340269999996,101.0980657,101.11620269999992,103.41007679999996,0,1,2.291199800000072,None,103.41022989999999,103.4251693,103.62580029999992,103.60977079999998,101.11620269999992,,,,,,,,,,,,,,,,,,,821,24,M,R,2026-02-18_11h10.44.787,VisualSearch_2526_3,,2025.2.4,2026-02-18 11h10.45.558293 +0100,
vertical.xlsx,The target is tilted.,135,7,7,0,0,1,1,1,0,0,0,0,0,0,0,0,1,3,4,135,space,8.984164799999917,None,0,1,0.8263747000000876,None,,,,0,0,0,1,0,7,7,6,,,,,103.62580029999992,,,,,,,,,,,,,,,,,,,,,103.61044079999999,103.62580029999992,104.10961539999994,104.11411290000001,104.13100049999991,104.9595746,0,1,0.8263747000000876,None,104.95974349999995,104.97488179999993,105.17553739999994,105.15936399999998,104.13100049999991,,,,,,,,,,,,,,,,,,,821,24,M,R,2026-02-18_11h10.44.787,VisualSearch_2526_3,,2025.2.4,2026-02-18 11h10.45.558293 +0100,
vertical.xlsx,The target is tilted.,135,0,0,0,0,1,1,1,0,0,0,0,0,0,0,0,1,3,4,135,space,8.984164799999917,None,0,1,1.2136603999999807,None,space,1.5070727999999463,None,0,0,0,1,,,,,0,0,0,6,106.71563149999997,,,,,,,,,,,,,,,,,,,,,106.71160969999994,106.71563149999997,107.2087755,107.21448129999999,107.23531730000002,108.45953259999999,,,,,108.45973279999998,108.4743803,108.67496719999997,108.65875799999992,,105.16551679999998,105.17553739999994,105.17553739999994,106.69207759999995,space,1.5070727999999463,None,0,1,1.2136603999999807,None,,,,,,,,821,24,M,R,2026-02-18_11h10.44.787,VisualSearch_2526_3,,2025.2.4,2026-02-18 11h10.45.558293 +0100,
vertical.xlsx,The target is tilted.,135,1,1,0,1,1,1,1,1,1,1,1,1,1,1,1,0,11,12,135,space,8.984164799999917,None,0,0,1.8489938999999822,None,space,1.5070727999999463,None,0,0,0,1,,,,,0,1,1,0,108.67496719999997,,,,,,,,,,,,,,,,,,,,,108.65950309999994,108.67496719999997,109.15945909999994,109.16467379999995,109.18310509999992,111.04151730000001,,,,,111.04166190000001,111.05724239999995,111.25785599999995,111.24138269999992,109.18310509999992,,,,,,,,0,0,1.8489938999999822,None,,,,,,,,821,24,M,R,2026-02-18_11h10.44.787,VisualSearch_2526_3,,2025.2.4,2026-02-18 11h10.45.558293 +0100,
vertical.xlsx,The target is tilted.,135,2,2,0,1,1,1,1,0,0,0,0,0,0,0,0,0,3,4,135,space,8.984164799999917,None,1,1,0.9435781999999335,None,space,1.5070727999999463,None,0,0,0,1,,,,,0,2,2,2,111.25785599999995,,,,,,,,,,,,,,,,,,,,,111.24210369999992,111.25785599999995,111.74172649999991,111.7463285,111.76459260000001,112.72430559999998,,,,,112.72442839999997,112.74026309999999,112.94102769999995,112.9244847,111.76459260000001,,,,,,,,1,1,0.9435781999999335,None,,,,,,,,821,24,M,R,2026-02-18_11h10.44.787,VisualSearch_2526_3,,2025.2.4,2026-02-18 11h10.45.558293 +0100,
vertical.xlsx,The target is tilted.,135,3,3,0,0,0,0,0,0,0,0,0,0,0,0,0,1,1,1,135,space,8.984164799999917,None,0,1,0.6985558000000083,None,space,1.5070727999999463,None,0,0,0,1,,,,,0,3,3,7,112.94102769999995,,,,,,,,,,,,,,,,,,,,,112.92523329999995,112.94102769999995,113.42452609999998,113.42951849999997,113.44783069999994,114.15853989999994,,,,,114.15873749999992,114.17357359999994,114.37380829999995,114.35729700000002,113.44783069999994,,,,,,,,0,1,0.6985558000000083,None,,,,,,,,821,24,M,R,2026-02-18_11h10.44.787,VisualSearch_2526_3,,2025.2.4,2026-02-18 11h10.45.558293 +0100,
vertical.xlsx,The target is tilted.,135,4,4,0,1,0,0,0,0,0,0,0,0,0,0,0,0,0,1,135,space,8.984164799999917,None,1,1,0.7414098000000422,None,space,1.5070727999999463,None,0,0,0,1,,,,,0,4,4,3,114.37380829999995,,,,,,,,,,,,,,,,,,,,,114.35774279999998,114.37380829999995,114.85764289999997,114.86235309999995,114.87350819999995,115.62483120000002,,,,,115.6250268,115.64002319999997,115.8405464,115.82376820000002,114.87350819999995,,,,,,,,1,1,0.7414098000000422,None,,,,,,,,821,24,M,R,2026-02-18_11h10.44.787,VisualSearch_2526_3,,2025.2.4,2026-02-18 11h10.45.558293 +0100,
vertical.xlsx,The target is tilted.,135,5,5,0,0,1,1,1,1,1,1,1,1,1,1,1,1,11,12,135,space,8.984164799999917,None,0,1,2.488812199999984,None,space,1.5070727999999463,None,0,0,0,1,,,,,0,5,5,4,115.8405464,,,,,,,,,,,,,,,,,,,,,115.82430449999993,115.8405464,116.32435239999995,116.32950249999999,116.34929439999996,118.84083019999991,,,,,118.84100660000001,118.85601650000001,119.05663129999994,119.04056500000002,116.34929439999996,,,,,,,,0,1,2.488812199999984,None,,,,,,,,821,24,M,R,2026-02-18_11h10.44.787,VisualSearch_2526_3,,2025.2.4,2026-02-18 11h10.45.558293 +0100,
vertical.xlsx,The target is tilted.,135,6,6,0,1,1,1,1,1,1,1,1,0,0,0,0,0,7,8,135,space,8.984164799999917,None,1,1,1.6972844000000578,None,space,1.5070727999999463,None,0,0,0,1,,,,,0,6,6,1,119.05663129999994,,,,,,,,,,,,,,,,,,,,,119.04128449999996,119.05663129999994,119.5404251,119.54495159999999,119.56280359999994,121.27281219999998,,,,,121.27293409999993,121.28877160000002,121.48947199999998,121.47292279999999,119.56280359999994,,,,,,,,1,1,1.6972844000000578,None,,,,,,,,821,24,M,R,2026-02-18_11h10.44.787,VisualSearch_2526_3,,2025.2.4,2026-02-18 11h10.45.558293 +0100,
vertical.xlsx,The target is tilted.,135,7,7,0,0,1,1,1,1,1,1,1,0,0,0,0,1,7,8,135,space,8.984164799999917,None,0,1,1.6836118999999599,None,space,1.5070727999999463,None,0,0,0,1,,,,,0,7,7,5,121.48947199999998,,,,,,,,,,,,,,,,,,,,,121.4735091,121.48947199999998,121.9730075,121.97689919999993,121.99454429999992,123.69018219999998,,,,,123.69036259999996,123.7050491,123.90580879999993,123.88965069999995,121.99454429999992,,,,,,,,0,1,1.6836118999999599,None,,,,,,,,821,24,M,R,2026-02-18_11h10.44.787,VisualSearch_2526_3,,2025.2.4,2026-02-18 11h10.45.558293 +0100,
vertical.xlsx,The target is tilted.,135,8,0,1,0,1,1,1,0,0,0,0,0,0,0,0,1,3,4,135,space,8.984164799999917,None,0,1,1.0539311999999654,None,space,1.5070727999999463,None,0,0,0,1,,,,,1,0,8,6,123.90580879999993,,,,,,,,,,,,,,,,,,,,,123.89039149999996,123.90580879999993,124.38970399999994,124.39482139999996,124.413319,125.47320839999998,,,,,125.47340329999997,125.48835209999993,125.6884619,125.67246590000002,124.413319,,,,,,,,0,1,1.0539311999999654,None,,,,,,,,821,24,M,R,2026-02-18_11h10.44.787,VisualSearch_2526_3,,2025.2.4,2026-02-18 11h10.45.558293 +0100,
vertical.xlsx,The target is tilted.,135,9,1,1,1,1,1,1,0,0,0,0,0,0,0,0,0,3,4,135,space,8.984164799999917,None,1,1,1.1085877000000437,None,space,1.5070727999999463,None,0,0,0,1,,,,,1,1,9,2,125.6884619,,,,,,,,,,,,,,,,,,,,,125.67302889999996,125.6884619,126.17292950000001,126.17819609999992,126.19727699999999,127.3223643,,,,,127.32257379999999,127.33795879999991,127.53858159999993,127.52237029999992,126.19727699999999,,,,,,,,1,1,1.1085877000000437,None,,,,,,,,821,24,M,R,2026-02-18_11h10.44.787,VisualSearch_2526_3,,2025.2.4,2026-02-18 11h10.45.558293 +0100,
vertical.xlsx,The target is tilted.,135,10,2,1,0,0,0,0,0,0,0,0,0,0,0,0,1,1,1,135,space,8.984164799999917,None,0,1,0.9751217000000452,None,space,1.5070727999999463,None,0,0,0,1,,,,,1,2,10,7,127.53858159999993,,,,,,,,,,,,,,,,,,,,,127.52312529999995,127.53858159999993,128.02205359999994,128.02486,128.04114689999994,129.02275339999994,,,,,129.02295259999994,129.03783829999998,129.2383135,129.22218509999993,128.04114689999994,,,,,,,,0,1,0.9751217000000452,None,,,,,,,,821,24,M,R,2026-02-18_11h10.44.787,VisualSearch_2526_3,,2025.2.4,2026-02-18 11h10.45.558293 +0100,
vertical.xlsx,The target is tilted.,135,11,3,1,1,1,1,1,1,1,1,1,0,0,0,0,0,7,8,135,space,8.984164799999917,None,1,1,0.9951220000000376,None,space,1.5070727999999463,None,0,0,0,1,,,,,1,3,11,1,129.2383135,,,,,,,,,,,,,,,,,,,,,129.22291999999993,129.2383135,129.72216989999993,129.72715819999996,129.74574280000002,130.7551065,,,,,130.75529759999995,130.77074549999998,130.9713001,130.95498579999992,129.74574280000002,,,,,,,,1,1,0.9951220000000376,None,,,,,,,,821,24,M,R,2026-02-18_11h10.44.787,VisualSearch_2526_3,,2025.2.4,2026-02-18 11h10.45.558293 +0100,
vertical.xlsx,The target is tilted.,135,12,4,1,1,0,0,0,0,0,0,0,0,0,0,0,0,0,1,135,space,8.984164799999917,None,1,1,0.7948705999999675,None,space,1.5070727999999463,None,0,0,0,1,,,,,1,4,12,3,130.9713001,,,,,,,,,,,,,,,,,,,,,130.95573789999992,130.9713001,131.4550024,131.46024619999992,131.47875939999994,132.28833450000002,,,,,132.2885003,132.3037895,132.5043321999999,132.48827319999998,131.47875939999994,,,,,,,,1,1,0.7948705999999675,None,,,,,,,,821,24,M,R,2026-02-18_11h10.44.787,VisualSearch_2526_3,,2025.2.4,2026-02-18 11h10.45.558293 +0100,
vertical.xlsx,The target is tilted.,135,13,5,1,0,1,1,1,1,1,1,1,1,1,1,1,1,11,12,135,space,8.984164799999917,None,0,1,2.184486300000003,None,space,1.5070727999999463,None,0,0,0,1,,,,,1,5,13,4,132.5043321999999,,,,,,,,,,,,,,,,,,,,,132.4889809,132.5043321999999,132.98813619999999,132.99272899999994,133.01161249999996,135.20472459999996,,,,,135.20490819999998,135.21984959999997,135.42060149999998,135.40420269999993,133.01161249999996,,,,,,,,0,1,2.184486300000003,None,,,,,,,,821,24,M,R,2026-02-18_11h10.44.787,VisualSearch_2526_3,,2025.2.4,2026-02-18 11h10.45.558293 +0100,
vertical.xlsx,The target is tilted.,135,14,6,1,0,1,1,1,1,1,1,1,0,0,0,0,1,7,8,135,space,8.984164799999917,None,0,1,1.9356440999999904,None,space,1.5070727999999463,None,0,0,0,1,,,,,1,6,14,5,135.42060149999998,,,,,,,,,,,,,,,,,,,,,135.404947,135.42060149999998,135.90430949999995,135.90950679999992,135.9281529,137.87116649999996,,,,,137.8713477,137.88627539999993,138.08686579999994,138.07060760000002,135.9281529,,,,,,,,0,1,1.9356440999999904,None,,,,,,,,821,24,M,R,2026-02-18_11h10.44.787,VisualSearch_2526_3,,2025.2.4,2026-02-18 11h10.45.558293 +0100,
vertical.xlsx,The target is tilted.,135,15,7,1,1,1,1,1,1,1,1,1,1,1,1,1,0,11,12,135,space,8.984164799999917,None,1,1,1.4762126000000535,None,space,1.5070727999999463,None,0,0,0,1,,,,,1,7,15,0,138.08686579999994,,,,,,,,,,,,,,,,,,,,,138.0713535,138.08686579999994,138.570378,138.5748896,138.59199419999993,140.07082730000002,,,,,140.071005,140.08594949999997,140.2864596999999,140.2702637,138.59199419999993,,,,,,,,1,1,1.4762126000000535,None,,,,,,,,821,24,M,R,2026-02-18_11h10.44.787,VisualSearch_2526_3,,2025.2.4,2026-02-18 11h10.45.558293 +0100,
vertical.xlsx,The target is tilted.,135,16,0,2,1,0,0,0,0,0,0,0,0,0,0,0,0,0,1,135,space,8.984164799999917,None,1,1,0.739522299999976,None,space,1.5070727999999463,None,0,0,0,1,,,,,2,0,16,3,140.2864596999999,,,,,,,,,,,,,,,,,,,,,140.2710095,140.2864596999999,140.77044849999993,140.7755611,140.79421749999995,141.5363815999999,,,,,141.53650089999996,141.55220229999998,141.75303789999998,141.7368331,140.79421749999995,,,,,,,,1,1,0.739522299999976,None,,,,,,,,821,24,M,R,2026-02-18_11h10.44.787,VisualSearch_2526_3,,2025.2.4,2026-02-18 11h10.45.558293 +0100,
vertical.xlsx,The target is tilted.,135,17,1,2,1,1,1,1,1,1,1,1,0,0,0,0,0,7,8,135,space,8.984164799999917,None,1,1,1.1457016000000522,None,space,1.5070727999999463,None,0,0,0,1,,,,,2,1,17,1,141.75303789999998,,,,,,,,,,,,,,,,,,,,,141.73766769999997,141.75303789999998,142.2367969999999,142.2420745999999,142.26142959999993,143.41965240000002,,,,,143.41984989999992,143.4352146,143.63570049999998,143.619506,142.26142959999993,,,,,,,,1,1,1.1457016000000522,None,,,,,,,,821,24,M,R,2026-02-18_11h10.44.787,VisualSearch_2526_3,,2025.2.4,2026-02-18 11h10.45.558293 +0100,
vertical.xlsx,The target is tilted.,135,18,2,2,1,1,1,1,0,0,0,0,0,0,0,0,0,3,4,135,space,8.984164799999917,None,1,1,1.1937336999999388,None,space,1.5070727999999463,None,0,0,0,1,,,,,2,2,18,2,143.63570049999998,,,,,,,,,,,,,,,,,,,,,143.62022029999991,143.63570049999998,144.11934969999993,144.1232612,144.1411013999999,145.3361873,,,,,145.33636949999993,145.35164409999993,145.55229450000002,145.5359734,144.1411013999999,,,,,,,,1,1,1.1937336999999388,None,,,,,,,,821,24,M,R,2026-02-18_11h10.44.787,VisualSearch_2526_3,,2025.2.4,2026-02-18 11h10.45.558293 +0100,
vertical.xlsx,The target is tilted.,135,19,3,2,0,0,0,0,0,0,0,0,0,0,0,0,1,1,1,135,space,8.984164799999917,None,0,1,0.7998708000000079,None,space,1.5070727999999463,None,0,0,0,1,,,,,2,3,19,7,145.55229450000002,,,,,,,,,,,,,,,,,,,,,145.53671279999992,145.55229450000002,146.0361575999999,146.0412852999999,146.05995859999996,146.8696357,,,,,146.86983199999997,146.88471299999992,147.08516869999994,147.06928440000002,146.05995859999996,,,,,,,,0,1,0.7998708000000079,None,,,,,,,,821,24,M,R,2026-02-18_11h10.44.787,VisualSearch_2526_3,,2025.2.4,2026-02-18 11h10.45.558293 +0100,
vertical.xlsx,The target is tilted.,135,20,4,2,1,1,1,1,1,1,1,1,1,1,1,1,0,11,12,135,space,8.984164799999917,None,1,1,1.1445793000000322,None,space,1.5070727999999463,None,0,0,0,1,,,,,2,4,20,0,147.08516869999994,,,,,,,,,,,,,,,,,,,,,147.06999509999991,147.08516869999994,147.56880139999998,147.57248419999996,147.5881938,148.7361621,,,,,148.73635689999992,148.75117349999994,148.9517154,148.9354366,147.5881938,,,,,,,,1,1,1.1445793000000322,None,,,,,,,,821,24,M,R,2026-02-18_11h10.44.787,VisualSearch_2526_3,,2025.2.4,2026-02-18 11h10.45.558293 +0100,
vertical.xlsx,The target is tilted.,135,21,5,2,0,1,1,1,0,0,0,0,0,0,0,0,1,3,4,135,space,8.984164799999917,None,0,1,1.6492421000000377,None,space,1.5070727999999463,None,0,0,0,1,,,,,2,5,21,6,148.9517154,,,,,,,,,,,,,,,,,,,,,148.9361841,148.9517154,149.43558859999996,149.44081099999994,149.45967739999992,151.1189809,,,,,151.11915879999992,151.1340781,151.33413499999995,151.31806769999992,149.45967739999992,,,,,,,,0,1,1.6492421000000377,None,,,,,,,,821,24,M,R,2026-02-18_11h10.44.787,VisualSearch_2526_3,,2025.2.4,2026-02-18 11h10.45.558293 +0100,
vertical.xlsx,The target is tilted.,135,22,6,2,0,1,1,1,1,1,1,1,1,1,1,1,1,11,12,135,space,8.984164799999917,None,1,0,2.4278461000000107,None,space,1.5070727999999463,None,0,0,0,1,,,,,2,6,22,4,151.33413499999995,,,,,,,,,,,,,,,,,,,,,151.3187749,151.33413499999995,151.818625,151.82355159999997,151.8417617,154.28403349999996,,,,,154.28415280000002,154.2999856,154.50081699999998,154.48426499999994,151.8417617,,,,,,,,1,0,2.4278461000000107,None,,,,,,,,821,24,M,R,2026-02-18_11h10.44.787,VisualSearch_2526_3,,2025.2.4,2026-02-18 11h10.45.558293 +0100,
vertical.xlsx,The target is tilted.,135,23,7,2,0,1,1,1,1,1,1,1,0,0,0,0,1,7,8,135,space,8.984164799999917,None,0,1,3.6234550000000354,None,space,1.5070727999999463,None,0,0,0,1,,,,,2,7,23,5,154.50081699999998,,,,,,,,,,,,,,,,,,,,,154.48502399999995,154.50081699999998,154.9843968,154.98948739999992,155.00767439999993,158.6343878,,,,,158.63457970000002,158.64934129999995,158.8494286,158.83392649999996,155.00767439999993,,,,,,,,0,1,3.6234550000000354,None,,,,,,,,821,24,M,R,2026-02-18_11h10.44.787,VisualSearch_2526_3,,2025.2.4,2026-02-18 11h10.45.558293 +0100,
vertical.xlsx,The target is tilted.,135,24,0,3,0,1,1,1,0,0,0,0,0,0,0,0,1,3,4,135,space,8.984164799999917,None,0,1,0.8801703000000316,None,space,1.5070727999999463,None,0,0,0,1,,,,,3,0,24,6,158.8494286,,,,,,,,,,,,,,,,,,,,,158.8346355,158.8494286,159.33361849999994,159.3381938,159.35542799999996,160.24995449999994,,,,,160.25007499999992,160.26573059999998,160.4658986999999,160.44991579999999,159.35542799999996,,,,,,,,0,1,0.8801703000000316,None,,,,,,,,821,24,M,R,2026-02-18_11h10.44.787,VisualSearch_2526_3,,2025.2.4,2026-02-18 11h10.45.558293 +0100,
vertical.xlsx,The target is tilted.,135,25,1,3,0,1,1,1,1,1,1,1,1,1,1,1,1,11,12,135,space,8.984164799999917,None,0,1,2.9341167999999698,None,space,1.5070727999999463,None,0,0,0,1,,,,,3,1,25,4,160.4658986999999,,,,,,,,,,,,,,,,,,,,,160.45067949999998,160.4658986999999,160.95025750000002,160.95477929999993,160.9720441999999,163.91683469999998,,,,,163.91701389999992,163.9319468,164.13224459999992,164.11633849999998,160.9720441999999,,,,,,,,0,1,2.9341167999999698,None,,,,,,,,821,24,M,R,2026-02-18_11h10.44.787,VisualSearch_2526_3,,2025.2.4,2026-02-18 11h10.45.558293 +0100,
vertical.xlsx,The target is tilted.,135,26,2,3,0,1,1,1,1,1,1,1,0,0,0,0,1,7,8,135,space,8.984164799999917,None,0,1,3.1791848999999957,None,space,1.5070727999999463,None,0,0,0,1,,,,,3,2,26,5,164.13224459999992,,,,,,,,,,,,,,,,,,,,,164.11710199999993,164.13224459999992,164.61625819999995,164.62080159999994,164.63673499999993,167.83186379999995,,,,,167.8319841,167.8478334,168.04833680000002,168.03168879999998,164.63673499999993,,,,,,,,0,1,3.1791848999999957,None,,,,,,,,821,24,M,R,2026-02-18_11h10.44.787,VisualSearch_2526_3,,2025.2.4,2026-02-18 11h10.45.558293 +0100,
vertical.xlsx,The target is tilted.,135,27,3,3,1,1,1,1,1,1,1,1,0,0,0,0,0,7,8,135,space,8.984164799999917,None,1,1,1.1247979999999416,None,space,1.5070727999999463,None,0,0,0,1,,,,,3,3,27,1,168.04833680000002,,,,,,,,,,,,,,,,,,,,,168.03215690000002,168.04833680000002,168.53212109999993,168.53680929999996,168.5562873,169.6818758999999,,,,,169.68201049999993,169.6975172,169.8978333,169.88215909999997,,,,,,,,,1,1,1.1247979999999416,None,,,,,,,,821,24,M,R,2026-02-18_11h10.44.787,VisualSearch_2526_3,,2025.2.4,2026-02-18 11h10.45.558293 +0100,
vertical.xlsx,The target is tilted.,135,28,4,3,1,0,0,0,0,0,0,0,0,0,0,0,0,0,1,135,space,8.984164799999917,None,1,1,0.6376271999999972,None,space,1.5070727999999463,None,0,0,0,1,,,,,3,4,28,3,169.8978333,,,,,,,,,,,,,,,,,,,,,169.88287079999998,169.8978333,170.3821832,170.3874492,170.4060558,171.04905839999992,,,,,171.0492531,171.06393939999998,171.2645549,171.2485001,170.4060558,,,,,,,,1,1,0.6376271999999972,None,,,,,,,,821,24,M,R,2026-02-18_11h10.44.787,VisualSearch_2526_3,,2025.2.4,2026-02-18 11h10.45.558293 +0100,
vertical.xlsx,The target is tilted.,135,29,5,3,1,1,1,1,1,1,1,1,1,1,1,1,0,11,12,135,space,8.984164799999917,None,1,1,1.9030781999999817,None,space,1.5070727999999463,None,0,0,0,1,,,,,3,5,29,0,171.2645549,,,,,,,,,,,,,,,,,,,,,171.24923839999997,171.2645549,171.74853859999996,171.75361709999993,171.77222599999993,173.68192390000002,,,,,173.68210239999996,173.69700849999992,173.89760819999992,173.88143809999997,171.77222599999993,,,,,,,,1,1,1.9030781999999817,None,,,,,,,,821,24,M,R,2026-02-18_11h10.44.787,VisualSearch_2526_3,,2025.2.4,2026-02-18 11h10.45.558293 +0100,
vertical.xlsx,The target is tilted.,135,30,6,3,1,1,1,1,0,0,0,0,0,0,0,0,0,3,4,135,space,8.984164799999917,None,1,1,0.8973358000000644,None,space,1.5070727999999463,None,0,0,0,1,,,,,3,6,30,2,173.89760819999992,,,,,,,,,,,,,,,,,,,,,173.8821587,173.89760819999992,174.38092659999995,174.38550639999994,174.40408279999997,175.31395679999991,,,,,175.3140773,175.32992309999997,175.53059919999998,175.514092,174.40408279999997,,,,,,,,1,1,0.8973358000000644,None,,,,,,,,821,24,M,R,2026-02-18_11h10.44.787,VisualSearch_2526_3,,2025.2.4,2026-02-18 11h10.45.558293 +0100,
vertical.xlsx,The target is tilted.,135,31,7,3,0,0,0,0,0,0,0,0,0,0,0,0,1,1,1,135,space,8.984164799999917,None,0,1,0.6950284000000693,None,space,1.5070727999999463,None,0,0,0,1,,,,,3,7,31,7,175.53059919999998,,,,,,,,,,,,,,,,,,,,,175.51482449999992,175.53059919999998,176.0143256,176.0201432,176.03856999999994,176.7476689,,,,,176.74778989999993,176.76304919999995,176.96364629999994,176.94756069999994,176.03856999999994,,,,,,,,0,1,0.6950284000000693,None,,,,,,,,821,24,M,R,2026-02-18_11h10.44.787,VisualSearch_2526_3,,2025.2.4,2026-02-18 11h10.45.558293 +0100,
vertical.xlsx,The target is tilted.,135,32,0,4,0,1,1,1,0,0,0,0,0,0,0,0,1,3,4,135,space,8.984164799999917,None,0,1,0.9613018000000011,None,space,1.5070727999999463,None,0,0,0,1,,,,,4,0,32,6,176.96364629999994,,,,,,,,,,,,,,,,,,,,,176.94833599999993,176.96364629999994,177.44756159999997,177.45231209999997,177.47041919999992,178.44722449999995,,,,,178.44741729999998,178.46281199999999,178.66344619999995,178.64698429999999,177.47041919999992,,,,,,,,0,1,0.9613018000000011,None,,,,,,,,821,24,M,R,2026-02-18_11h10.44.787,VisualSearch_2526_3,,2025.2.4,2026-02-18 11h10.45.558293 +0100,
vertical.xlsx,The target is tilted.,135,33,1,4,0,0,0,0,0,0,0,0,0,0,0,0,1,1,1,135,space,8.984164799999917,None,0,1,0.5165266000001338,None,space,1.5070727999999463,None,0,0,0,1,,,,,4,1,33,7,178.66344619999995,,,,,,,,,,,,,,,,,,,,,178.6475668999999,178.66344619999995,179.14701739999987,179.1517197999999,179.16903789999992,179.6976984999999,,,,,179.69789409999998,179.71266839999998,179.91330870000002,179.89706980000005,179.16903789999992,,,,,,,,0,1,0.5165266000001338,None,,,,,,,,821,24,M,R,2026-02-18_11h10.44.787,VisualSearch_2526_3,,2025.2.4,2026-02-18 11h10.45.558293 +0100,
vertical.xlsx,The target is tilted.,135,34,2,4,1,1,1,1,0,0,0,0,0,0,0,0,0,3,4,135,space,8.984164799999917,None,1,1,0.6674103999998806,None,space,1.5070727999999463,None,0,0,0,1,,,,,4,2,34,2,179.91330870000002,,,,,,,,,,,,,,,,,,,,,179.89780999999994,179.91330870000002,180.39713669999992,180.40226940000002,180.42049629999997,181.0974286999999,,,,,181.09762569999998,181.11228559999995,181.31290969999986,181.2967051999999,180.42049629999997,,,,,,,,1,1,0.6674103999998806,None,,,,,,,,821,24,M,R,2026-02-18_11h10.44.787,VisualSearch_2526_3,,2025.2.4,2026-02-18 11h10.45.558293 +0100,
vertical.xlsx,The target is tilted.,135,35,3,4,1,1,1,1,1,1,1,1,0,0,0,0,0,7,8,135,space,8.984164799999917,None,1,1,1.0391803999998501,None,space,1.5070727999999463,None,0,0,0,1,,,,,4,3,35,1,181.31290969999986,,,,,,,,,,,,,,,,,,,,,181.29744499999993,181.31290969999986,181.79688609999994,181.80198369999994,181.82026399999995,182.86344400000007,,,,,182.86362059999988,182.87878720000003,183.0794234,183.0631292999999,181.82026399999995,,,,,,,,1,1,1.0391803999998501,None,,,,,,,,821,24,M,R,2026-02-18_11h10.44.787,VisualSearch_2526_3,,2025.2.4,2026-02-18 11h10.45.558293 +0100,
vertical.xlsx,The target is tilted.,135,36,4,4,1,1,1,1,1,1,1,1,1,1,1,1,0,11,12,135,space,8.984164799999917,None,1,1,1.0423118999999588,None,space,1.5070727999999463,None,0,0,0,1,,,,,4,4,36,0,183.0794234,,,,,,,,,,,,,,,,,,,,,183.06385849999992,183.0794234,183.56334379999998,183.56873760000008,183.58761219999997,184.64620390000005,,,,,184.64639620000003,184.66182230000004,184.8619260999999,184.8454314999999,183.58761219999997,,,,,,,,1,1,1.0423118999999588,None,,,,,,,,821,24,M,R,2026-02-18_11h10.44.787,VisualSearch_2526_3,,2025.2.4,2026-02-18 11h10.45.558293 +0100,
vertical.xlsx,The target is tilted.,135,37,5,4,0,1,1,1,1,1,1,1,0,0,0,0,1,7,8,135,space,8.984164799999917,None,0,1,1.693842499999846,None,space,1.5070727999999463,None,0,0,0,1,,,,,4,5,37,5,184.8619260999999,,,,,,,,,,,,,,,,,,,,,184.84589920000008,184.8619260999999,185.34597559999997,185.35127799999987,185.36896849999994,187.07897630000002,,,,,187.0791483999999,187.09470110000007,187.29535540000006,187.27913839999997,185.36896849999994,,,,,,,,0,1,1.693842499999846,None,,,,,,,,821,24,M,R,2026-02-18_11h10.44.787,VisualSearch_2526_3,,2025.2.4,2026-02-18 11h10.45.558293 +0100,
vertical.xlsx,The target is tilted.,135,38,6,4,1,0,0,0,0,0,0,0,0,0,0,0,0,0,1,135,space,8.984164799999917,None,1,1,0.5794068000000152,None,space,1.5070727999999463,None,0,0,0,1,,,,,4,6,38,3,187.29535540000006,,,,,,,,,,,,,,,,,,,,,187.27990419999992,187.29535540000006,187.77910040000006,187.7836737,187.80248660000007,188.39554329999987,,,,,188.39575539999987,188.41111810000007,188.61171450000006,188.59558749999997,187.80248660000007,,,,,,,,1,1,0.5794068000000152,None,,,,,,,,821,24,M,R,2026-02-18_11h10.44.787,VisualSearch_2526_3,,2025.2.4,2026-02-18 11h10.45.558293 +0100,
vertical.xlsx,The target is tilted.,135,39,7,4,0,1,1,1,1,1,1,1,1,1,1,1,1,11,12,135,space,8.984164799999917,None,0,1,1.7767215000001215,None,space,1.5070727999999463,None,0,0,0,1,,,,,4,7,39,4,188.61171450000006,,,,,,,,,,,,,,,,,,,,,188.5963617,188.61171450000006,189.09487139999987,189.09796400000005,189.1116838999999,190.89569189999997,,,,,190.89586889999987,190.91077199999995,191.11139509999998,191.09521849999987,189.1116838999999,,,,,,,,0,1,1.7767215000001215,None,,,,,,,,821,24,M,R,2026-02-18_11h10.44.787,VisualSearch_2526_3,,2025.2.4,2026-02-18 11h10.45.558293 +0100,
vertical.xlsx,The target is tilted.,135,40,0,5,0,1,1,1,1,1,1,1,0,0,0,0,1,7,8,135,space,8.984164799999917,None,0,1,1.8515705999998318,None,space,1.5070727999999463,None,0,0,0,1,,,,,5,0,40,5,191.11139509999998,,,,,,,,,,,,,,,,,,,,,191.0959547,191.11139509999998,191.59518849999995,191.6002822999999,191.6191128999999,193.47869530000003,,,,,193.47887409999998,193.49362329999985,193.69417479999993,193.6777594,191.6191128999999,,,,,,,,0,1,1.8515705999998318,None,,,,,,,,821,24,M,R,2026-02-18_11h10.44.787,VisualSearch_2526_3,,2025.2.4,2026-02-18 11h10.45.558293 +0100,
vertical.xlsx,The target is tilted.,135,41,1,5,0,0,0,0,0,0,0,0,0,0,0,0,1,1,1,135,space,8.984164799999917,None,0,1,0.5687777000000551,None,space,1.5070727999999463,None,0,0,0,1,,,,,5,1,41,7,193.69417479999993,,,,,,,,,,,,,,,,,,,,,193.6784894,193.69417479999993,194.17812149999986,194.18264649999992,194.20031199999994,194.77858019999985,,,,,194.77877769999986,194.7935720999999,194.99368909999998,194.97787419999986,194.20031199999994,,,,,,,,0,1,0.5687777000000551,None,,,,,,,,821,24,M,R,2026-02-18_11h10.44.787,VisualSearch_2526_3,,2025.2.4,2026-02-18 11h10.45.558293 +0100,
vertical.xlsx,The target is tilted.,135,42,2,5,1,1,1,1,0,0,0,0,0,0,0,0,0,3,4,135,space,8.984164799999917,None,1,1,0.5473495999999614,None,space,1.5070727999999463,None,0,0,0,1,,,,,5,2,42,2,194.99368909999998,,,,,,,,,,,,,,,,,,,,,194.97864830000003,194.99368909999998,195.4777686,195.48308440000005,195.50229889999991,196.061144,,,,,196.06126599999993,196.07650160000003,196.27714049999986,196.26100580000002,195.50229889999991,,,,,,,,1,1,0.5473495999999614,None,,,,,,,,821,24,M,R,2026-02-18_11h10.44.787,VisualSearch_2526_3,,2025.2.4,2026-02-18 11h10.45.558293 +0100,
vertical.xlsx,The target is tilted.,135,43,3,5,1,0,0,0,0,0,0,0,0,0,0,0,0,0,1,135,space,8.984164799999917,None,1,1,0.6103760999999395,None,space,1.5070727999999463,None,0,0,0,1,,,,,5,3,43,3,196.27714049999986,,,,,,,,,,,,,,,,,,,,,196.26185459999988,196.27714049999986,196.7611892,196.7663568999999,196.78495299999986,197.41062149999993,,,,,197.41076040000007,197.42636079999988,197.62699309999994,197.61106919999997,196.78495299999986,,,,,,,,1,1,0.6103760999999395,None,,,,,,,,821,24,M,R,2026-02-18_11h10.44.787,VisualSearch_2526_3,,2025.2.4,2026-02-18 11h10.45.558293 +0100,
vertical.xlsx,The target is tilted.,135,44,4,5,0,1,1,1,0,0,0,0,0,0,0,0,1,3,4,135,space,8.984164799999917,None,0,1,0.9755751000000146,None,space,1.5070727999999463,None,0,0,0,1,,,,,5,4,44,6,197.62699309999994,,,,,,,,,,,,,,,,,,,,,197.61186479999992,197.62699309999994,198.1108933999999,198.11612300000002,198.13520659999995,199.12715419999995,,,,,199.12734460000001,199.14281159999996,199.34338759999991,199.3270766999999,198.13520659999995,,,,,,,,0,1,0.9755751000000146,None,,,,,,,,821,24,M,R,2026-02-18_11h10.44.787,VisualSearch_2526_3,,2025.2.4,2026-02-18 11h10.45.558293 +0100,
vertical.xlsx,The target is tilted.,135,45,5,5,1,1,1,1,1,1,1,1,0,0,0,0,0,7,8,135,space,8.984164799999917,None,0,0,1.531761200000119,None,space,1.5070727999999463,None,0,0,0,1,,,,,5,5,45,1,199.34338759999991,,,,,,,,,,,,,,,,,,,,,199.32782389999988,199.34338759999991,199.8267739999999,199.83129740000004,199.8495992999999,201.3939716,,,,,201.39414929999998,201.40913539999997,201.60964539999986,201.59360470000001,199.8495992999999,,,,,,,,0,0,1.531761200000119,None,,,,,,,,821,24,M,R,2026-02-18_11h10.44.787,VisualSearch_2526_3,,2025.2.4,2026-02-18 11h10.45.558293 +0100,
vertical.xlsx,The target is tilted.,135,46,6,5,1,1,1,1,1,1,1,1,1,1,1,1,0,11,12,135,space,8.984164799999917,None,1,1,1.3281718000000637,None,space,1.5070727999999463,None,0,0,0,1,,,,,5,6,46,0,201.60964539999986,,,,,,,,,,,,,,,,,,,,,201.59441749999996,201.60964539999986,202.09348499999987,202.0979393,202.11268769999992,203.44363739999994,,,,,203.44381929999986,203.4587093,203.6589434,203.64305919999993,202.11268769999992,,,,,,,,1,1,1.3281718000000637,None,,,,,,,,821,24,M,R,2026-02-18_11h10.44.787,VisualSearch_2526_3,,2025.2.4,2026-02-18 11h10.45.558293 +0100,
vertical.xlsx,The target is tilted.,135,47,7,5,0,1,1,1,1,1,1,1,1,1,1,1,1,11,12,135,space,8.984164799999917,None,0,1,2.5775529000000006,None,space,1.5070727999999463,None,0,0,0,1,,,,,5,7,47,4,203.6589434,,,,,,,,,,,,,,,,,,,,,203.64378899999997,203.6589434,204.14279080000006,204.14594169999987,204.15900699999997,206.74312650000002,,,,,206.74330450000002,206.75820399999998,206.9588073,206.94259999999986,204.15900699999997,,,,,,,,0,1,2.5775529000000006,None,,,,,,,,821,24,M,R,2026-02-18_11h10.44.787,VisualSearch_2526_3,,2025.2.4,2026-02-18 11h10.45.558293 +0100,
vertical.xlsx,The target is tilted.,135,48,0,6,0,1,1,1,0,0,0,0,0,0,0,0,1,3,4,135,space,8.984164799999917,None,0,1,1.0782034999999723,None,space,1.5070727999999463,None,0,0,0,1,,,,,6,0,48,6,206.9588073,,,,,,,,,,,,,,,,,,,,,206.94337559999985,206.9588073,207.44280149999986,207.44794439999987,207.46660159999988,208.55845469999986,,,,,208.558577,208.57440539999993,,208.75880899999993,207.46660159999988,,,,,,,,0,1,1.0782034999999723,None,,,,,,,,821,24,M,R,2026-02-18_11h10.44.787,VisualSearch_2526_3,,2025.2.4,2026-02-18 11h10.45.558293 +0100,
vertical.xlsx,The target is tilted.,135,49,1,6,1,1,1,1,1,1,1,1,0,0,0,0,0,7,8,135,space,8.984164799999917,None,1,1,1.2286196000000018,None,space,1.5070727999999463,None,0,0,0,1,,,,,6,1,49,1,208.77475789999994,,,,,,,,,,,,,,,,,,,,,208.7595718,208.77475789999994,209.2582043,209.26131570000007,209.27699209999992,210.50890460000005,,,,,210.5090834,210.52431660000002,210.72475059999988,210.70865589999994,209.27699209999992,,,,,,,,1,1,1.2286196000000018,None,,,,,,,,821,24,M,R,2026-02-18_11h10.44.787,VisualSearch_2526_3,,2025.2.4,2026-02-18 11h10.45.558293 +0100,
vertical.xlsx,The target is tilted.,135,50,2,6,0,1,1,1,1,1,1,1,0,0,0,0,1,7,8,135,space,8.984164799999917,None,0,1,2.599477400000069,None,space,1.5070727999999463,None,0,0,0,1,,,,,6,2,50,5,210.72475059999988,,,,,,,,,,,,,,,,,,,,,210.7093929,210.72475059999988,211.20873570000003,211.21444329999986,211.23291640000002,213.84194839999986,,,,,213.84212589999993,213.857033,214.05762950000008,214.04148800000007,211.23291640000002,,,,,,,,0,1,2.599477400000069,None,,,,,,,,821,24,M,R,2026-02-18_11h10.44.787,VisualSearch_2526_3,,2025.2.4,2026-02-18 11h10.45.558293 +0100,
vertical.xlsx,The target is tilted.,135,51,3,6,1,1,1,1,1,1,1,1,1,1,1,1,0,11,12,135,space,8.984164799999917,None,0,0,2.0946625999999924,None,space,1.5070727999999463,None,0,0,0,1,,,,,6,3,51,0,214.05762950000008,,,,,,,,,,,,,,,,,,,,,214.04220779999991,214.05762950000008,214.54161640000007,214.54657029999998,214.56525469999997,216.67384319999996,,,,,216.67396469999994,216.68975009999986,216.8904015999999,216.8738613999999,214.56525469999997,,,,,,,,0,0,2.0946625999999924,None,,,,,,,,821,24,M,R,2026-02-18_11h10.44.787,VisualSearch_2526_3,,2025.2.4,2026-02-18 11h10.45.558293 +0100,
vertical.xlsx,The target is tilted.,135,52,4,6,1,0,0,0,0,0,0,0,0,0,0,0,0,0,1,135,space,8.984164799999917,None,1,1,0.7052955000001475,None,space,1.5070727999999463,None,0,0,0,1,,,,,6,4,52,3,216.8904015999999,,,,,,,,,,,,,,,,,,,,,216.87451979999992,216.8904015999999,217.37427839999987,217.3794097,217.39845190000005,218.10759289999987,,,,,218.10777080000003,218.12286659999995,218.3237259,218.30741289999992,217.39845190000005,,,,,,,,1,1,0.7052955000001475,None,,,,,,,,821,24,M,R,2026-02-18_11h10.44.787,VisualSearch_2526_3,,2025.2.4,2026-02-18 11h10.45.558293 +0100,
vertical.xlsx,The target is tilted.,135,53,5,6,1,1,1,1,0,0,0,0,0,0,0,0,0,3,4,135,space,8.984164799999917,None,1,1,0.990538000000015,None,space,1.5070727999999463,None,0,0,0,1,,,,,6,5,53,2,218.3237259,,,,,,,,,,,,,,,,,,,,,218.30814650000002,218.3237259,218.8069791999999,218.81162259999996,218.8291595999999,219.82390540000006,,,,,219.82408540000006,219.83927360000007,220.0395633999999,220.0238563999999,218.8291595999999,,,,,,,,1,1,0.990538000000015,None,,,,,,,,821,24,M,R,2026-02-18_11h10.44.787,VisualSearch_2526_3,,2025.2.4,2026-02-18 11h10.45.558293 +0100,
vertical.xlsx,The target is tilted.,135,54,6,6,0,1,1,1,1,1,1,1,1,1,1,1,1,11,12,135,space,8.984164799999917,None,0,1,4.551317200000085,None,space,1.5070727999999463,None,0,0,0,1,,,,,6,6,54,4,220.0395633999999,,,,,,,,,,,,,,,,,,,,,220.02456499999994,220.0395633999999,220.52379500000006,220.52860639999994,220.5464824999999,225.10672729999987,,,,,225.10690139999997,225.12168739999993,225.32257129999994,225.30616299999997,220.5464824999999,,,,,,,,0,1,4.551317200000085,None,,,,,,,,821,24,M,R,2026-02-18_11h10.44.787,VisualSearch_2526_3,,2025.2.4,2026-02-18 11h10.45.558293 +0100,
vertical.xlsx,The target is tilted.,135,55,7,6,0,0,0,0,0,0,0,0,0,0,0,0,1,1,1,135,space,8.984164799999917,None,0,1,0.6805127000000084,None,space,1.5070727999999463,None,0,0,0,1,,,,,6,7,55,7,225.32257129999994,,,,,,,,,,,,,,,,,,,,,225.30688600000008,225.32257129999994,225.80588769999986,225.8103799999999,225.82683700000007,226.52254349999998,,,,,226.52272319999997,226.53820129999986,226.73889729999996,226.72270690000005,225.82683700000007,,,,,,,,0,1,0.6805127000000084,None,,,,,,,,821,24,M,R,2026-02-18_11h10.44.787,VisualSearch_2526_3,,2025.2.4,2026-02-18 11h10.45.558293 +0100,
vertical.xlsx,The target is tilted.,135,56,0,7,1,1,1,1,1,1,1,1,0,0,0,0,0,7,8,135,space,8.984164799999917,None,1,1,1.9273254999998244,None,space,1.5070727999999463,None,0,0,0,1,,,,,7,0,56,1,226.73889729999996,,,,,,,,,,,,,,,,,,,,,226.7234509,226.73889729999996,227.2222288999999,227.2249073999999,227.23855000000003,229.1726913,,,,,229.1728682999999,229.18784000000005,229.388283,229.37154829999986,227.23855000000003,,,,,,,,1,1,1.9273254999998244,None,,,,,,,,821,24,M,R,2026-02-18_11h10.44.787,VisualSearch_2526_3,,2025.2.4,2026-02-18 11h10.45.558293 +0100,
vertical.xlsx,The target is tilted.,135,57,1,7,0,1,1,1,0,0,0,0,0,0,0,0,1,3,4,135,space,8.984164799999917,None,0,1,1.455341399999952,None,space,1.5070727999999463,None,0,0,0,1,,,,,7,1,57,6,229.388283,,,,,,,,,,,,,,,,,,,,,229.3719951999999,229.388283,229.87216829999988,229.8766779,229.8958149,231.3553422,,,,,231.35551899999996,231.37081349999994,231.57120229999987,231.55480139999986,229.8958149,,,,,,,,0,1,1.455341399999952,None,,,,,,,,821,24,M,R,2026-02-18_11h10.44.787,VisualSearch_2526_3,,2025.2.4,2026-02-18 11h10.45.558293 +0100,
vertical.xlsx,The target is tilted.,135,58,2,7,1,0,0,0,0,0,0,0,0,0,0,0,0,0,1,135,space,8.984164799999917,None,1,1,0.6656883000000562,None,space,1.5070727999999463,None,0,0,0,1,,,,,7,2,58,3,231.57120229999987,,,,,,,,,,,,,,,,,,,,,231.55527779999989,231.57120229999987,232.05503529999987,232.0605541,232.0810474,232.75537239999994,,,,,232.75556979999988,232.77070600000002,232.97122960000002,232.9548104999999,232.0810474,,,,,,,,1,1,0.6656883000000562,None,,,,,,,,821,24,M,R,2026-02-18_11h10.44.787,VisualSearch_2526_3,,2025.2.4,2026-02-18 11h10.45.558293 +0100,
vertical.xlsx,The target is tilted.,135,59,3,7,0,1,1,1,1,1,1,1,0,0,0,0,1,7,8,135,space,8.984164799999917,None,0,1,2.75697439999999,None,space,1.5070727999999463,None,0,0,0,1,,,,,7,3,59,5,232.97122960000002,,,,,,,,,,,,,,,,,,,,,232.9556270999999,232.97122960000002,233.45488980000005,233.46011569999996,233.47887739999987,236.23820569999998,,,,,236.23838039999987,236.25319059999993,236.4535742999999,236.4375611999999,233.47887739999987,,,,,,,,0,1,2.75697439999999,None,,,,,,,,821,24,M,R,2026-02-18_11h10.44.787,VisualSearch_2526_3,,2025.2.4,2026-02-18 11h10.45.558293 +0100,
vertical.xlsx,The target is tilted.,135,60,4,7,1,1,1,1,0,0,0,0,0,0,0,0,0,3,4,135,space,8.984164799999917,None,1,1,0.8999632999998539,None,space,1.5070727999999463,None,0,0,0,1,,,,,7,4,60,2,236.4535742999999,,,,,,,,,,,,,,,,,,,,,236.43802819999996,236.4535742999999,236.93701710000005,236.9398928999999,236.95327369999995,237.8547670999999,,,,,237.85497910000004,237.86990760000003,238.07011339999985,238.0539308,236.95327369999995,,,,,,,,1,1,0.8999632999998539,None,,,,,,,,821,24,M,R,2026-02-18_11h10.44.787,VisualSearch_2526_3,,2025.2.4,2026-02-18 11h10.45.558293 +0100,
vertical.xlsx,The target is tilted.,135,61,5,7,0,0,0,0,0,0,0,0,0,0,0,0,1,1,1,135,space,8.984164799999917,None,0,1,1.257016300000032,None,space,1.5070727999999463,None,0,0,0,1,,,,,7,5,61,7,238.07011339999985,,,,,,,,,,,,,,,,,,,,,238.05468380000002,238.07011339999985,238.55442459999995,238.55952079999997,238.57814140000005,239.8377086999999,,,,,239.83790469999985,239.85277059999999,240.05346209999993,240.03708759999995,238.57814140000005,,,,,,,,0,1,1.257016300000032,None,,,,,,,,821,24,M,R,2026-02-18_11h10.44.787,VisualSearch_2526_3,,2025.2.4,2026-02-18 11h10.45.558293 +0100,
vertical.xlsx,The target is tilted.,135,62,6,7,1,1,1,1,1,1,1,1,1,1,1,1,0,11,12,135,space,8.984164799999917,None,1,1,1.2401072000000113,None,space,1.5070727999999463,None,0,0,0,1,,,,,7,6,62,0,240.05346209999993,,,,,,,,,,,,,,,,,,,,,240.03784489999998,240.05346209999993,240.53727090000007,240.54236089999995,240.5609371999999,241.80367550000005,,,,,241.80385339999998,241.81906359999994,242.0196481999999,242.0035977,240.5609371999999,,,,,,,,1,1,1.2401072000000113,None,,,,,,,,821,24,M,R,2026-02-18_11h10.44.787,VisualSearch_2526_3,,2025.2.4,2026-02-18 11h10.45.558293 +0100,
vertical.xlsx,The target is tilted.,135,63,7,7,0,1,1,1,1,1,1,1,1,1,1,1,1,11,12,135,space,8.984164799999917,None,0,1,3.036923800000068,None,space,1.5070727999999463,None,0,0,0,1,,,,,7,7,63,4,242.0196481999999,,,,,,,,,,,,,,,,,,,,,242.00441339999998,242.0196481999999,242.50354659999994,242.50802729999987,242.52598009999997,245.56991919999996,,,,,245.57009689999995,245.58502550000003,245.78569249999987,245.76949009999998,242.52598009999997,,,,,,,,0,1,3.036923800000068,None,,,,,,,,821,24,M,R,2026-02-18_11h10.44.787,VisualSearch_2526_3,,2025.2.4,2026-02-18 11h10.45.558293 +0100,
vertical.xlsx,The target is tilted.,135,64,0,8,1,1,1,1,1,1,1,1,0,0,0,0,0,7,8,135,space,8.984164799999917,None,1,1,1.1147707999998602,None,space,1.5070727999999463,None,0,0,0,1,,,,,8,0,64,1,245.78569249999987,,,,,,,,,,,,,,,,,,,,,245.7702397999999,245.78569249999987,246.2694457,246.27402749999987,246.29181549999998,247.41918970000006,,,,,247.41936859999987,247.4347977,247.63532009999994,247.6192051999999,246.29181549999998,,,,,,,,1,1,1.1147707999998602,None,,,,,,,,821,24,M,R,2026-02-18_11h10.44.787,VisualSearch_2526_3,,2025.2.4,2026-02-18 11h10.45.558293 +0100,
vertical.xlsx,The target is tilted.,135,65,1,8,0,1,1,1,0,0,0,0,0,0,0,0,1,3,4,135,space,8.984164799999917,None,0,1,1.442261099999996,None,space,1.5070727999999463,None,0,0,0,1,,,,,8,1,65,6,247.63532009999994,,,,,,,,,,,,,,,,,,,,,247.61995060000004,247.63532009999994,248.1191784,248.12362400000006,248.14162190000002,249.5859501,,,,,249.58612670000002,249.601089,249.8016786999999,249.78545259999987,248.14162190000002,,,,,,,,0,1,1.442261099999996,None,,,,,,,,821,24,M,R,2026-02-18_11h10.44.787,VisualSearch_2526_3,,2025.2.4,2026-02-18 11h10.45.558293 +0100,
vertical.xlsx,The target is tilted.,135,66,2,8,1,1,1,1,0,0,0,0,0,0,0,0,0,3,4,135,space,8.984164799999917,None,1,1,0.9273034999998799,None,space,1.5070727999999463,None,0,0,0,1,,,,,8,2,66,2,249.8016786999999,,,,,,,,,,,,,,,,,,,,,249.78621709999993,249.8016786999999,250.28555159999996,250.2903131999999,250.3083219,251.25141800000006,,,,,251.2515383,251.26740900000004,251.46804559999987,251.45174240000006,250.3083219,,,,,,,,1,1,0.9273034999998799,None,,,,,,,,821,24,M,R,2026-02-18_11h10.44.787,VisualSearch_2526_3,,2025.2.4,2026-02-18 11h10.45.558293 +0100,
vertical.xlsx,The target is tilted.,135,67,3,8,0,1,1,1,1,1,1,1,1,1,1,1,1,11,12,135,space,8.984164799999917,None,0,1,2.335623799999894,None,space,1.5070727999999463,None,0,0,0,1,,,,,8,3,67,4,251.46804559999987,,,,,,,,,,,,,,,,,,,,,251.4524844,251.46804559999987,251.95179699999994,251.95706059999998,251.97553820000007,254.3184002999999,,,,,254.31857960000002,254.3337793999999,254.5338804999999,254.5180264999999,251.97553820000007,,,,,,,,0,1,2.335623799999894,None,,,,,,,,821,24,M,R,2026-02-18_11h10.44.787,VisualSearch_2526_3,,2025.2.4,2026-02-18 11h10.45.558293 +0100,
vertical.xlsx,The target is tilted.,135,68,4,8,1,1,1,1,1,1,1,1,1,1,1,1,0,11,12,135,space,8.984164799999917,None,0,0,2.441634000000022,None,space,1.5070727999999463,None,0,0,0,1,,,,,8,4,68,0,254.5338804999999,,,,,,,,,,,,,,,,,,,,,254.51876979999997,254.5338804999999,255.01766810000004,255.02221600000007,255.0393176,257.4843404999999,,,,,257.48452210000005,257.5000135999999,257.70034609999993,257.6839774,255.0393176,,,,,,,,0,0,2.441634000000022,None,,,,,,,,821,24,M,R,2026-02-18_11h10.44.787,VisualSearch_2526_3,,2025.2.4,2026-02-18 11h10.45.558293 +0100,
vertical.xlsx,The target is tilted.,135,69,5,8,1,0,0,0,0,0,0,0,0,0,0,0,0,0,1,135,space,8.984164799999917,None,1,1,0.5310210000000097,None,space,1.5070727999999463,None,0,0,0,1,,,,,8,5,69,3,257.70034609999993,,,,,,,,,,,,,,,,,,,,,257.68465459999993,257.70034609999993,258.18413169999985,258.1881670999999,258.20027949999985,258.7345341,,,,,258.73472059999995,258.7496389999999,258.9502044999999,258.9340202000001,258.20027949999985,,,,,,,,1,1,0.5310210000000097,None,,,,,,,,821,24,M,R,2026-02-18_11h10.44.787,VisualSearch_2526_3,,2025.2.4,2026-02-18 11h10.45.558293 +0100,
vertical.xlsx,The target is tilted.,135,70,6,8,0,1,1,1,1,1,1,1,0,0,0,0,1,7,8,135,space,8.984164799999917,None,0,1,2.6961413999999877,None,space,1.5070727999999463,None,0,0,0,1,,,,,8,6,70,5,258.9502044999999,,,,,,,,,,,,,,,,,,,,,258.9347602,258.9502044999999,259.4335687,259.4382092000001,259.4561853,262.1666255,,,,,262.16679479999993,262.1823317000001,262.3825259,262.3667069999999,259.4561853,,,,,,,,0,1,2.6961413999999877,None,,,,,,,,821,24,M,R,2026-02-18_11h10.44.787,VisualSearch_2526_3,,2025.2.4,2026-02-18 11h10.45.558293 +0100,
vertical.xlsx,The target is tilted.,135,71,7,8,0,0,0,0,0,0,0,0,0,0,0,0,1,1,1,135,space,8.984164799999917,None,0,1,0.7508015999999316,None,space,1.5070727999999463,None,0,0,0,1,,,,,8,7,71,7,262.3825259,,,,,,,,,,,,,,,,,,,,,262.3673716999999,262.3825259,262.86667349999993,262.87104210000007,262.882928,263.64970059999996,,,,,263.64985939999997,263.665383,263.8660454999999,263.8498972,262.882928,,,,,,,,0,1,0.7508015999999316,None,,,,,,,,821,24,M,R,2026-02-18_11h10.44.787,VisualSearch_2526_3,,2025.2.4,2026-02-18 11h10.45.558293 +0100,
vertical.xlsx,The target is tilted.,135,72,0,9,0,1,1,1,0,0,0,0,0,0,0,0,1,3,4,135,space,8.984164799999917,None,0,1,0.8760319999998956,None,space,1.5070727999999463,None,0,0,0,1,,,,,9,0,72,6,263.8660454999999,,,,,,,,,,,,,,,,,,,,,263.8506244,263.8660454999999,264.34960920000003,264.35410839999986,264.37057129999994,265.24987480000004,,,,,265.2500683999999,265.26526809999996,265.46580960000006,265.44962929999997,264.37057129999994,,,,,,,,0,1,0.8760319999998956,None,,,,,,,,821,24,M,R,2026-02-18_11h10.44.787,VisualSearch_2526_3,,2025.2.4,2026-02-18 11h10.45.558293 +0100,
vertical.xlsx,The target is tilted.,135,73,1,9,1,1,1,1,0,0,0,0,0,0,0,0,0,3,4,135,space,8.984164799999917,None,1,1,0.9025755000000117,None,space,1.5070727999999463,None,0,0,0,1,,,,,9,1,73,2,265.46580960000006,,,,,,,,,,,,,,,,,,,,,265.4503631,265.46580960000006,265.9495517999999,265.95446229999993,265.9723922999999,266.8833551,,,,,266.88354759999993,266.89815339999996,267.0984868999999,267.08266879999996,265.9723922999999,,,,,,,,1,1,0.9025755000000117,None,,,,,,,,821,24,M,R,2026-02-18_11h10.44.787,VisualSearch_2526_3,,2025.2.4,2026-02-18 11h10.45.558293 +0100,
vertical.xlsx,The target is tilted.,135,74,2,9,1,1,1,1,1,1,1,1,0,0,0,0,0,7,8,135,space,8.984164799999917,None,1,1,1.2472153000001072,None,space,1.5070727999999463,None,0,0,0,1,,,,,9,2,74,1,267.0984868999999,,,,,,,,,,,,,,,,,,,,,267.0834118,267.0984868999999,267.58289990000003,267.5880015,267.60642459999985,268.8663460999999,,,,,268.866534,268.88135369999986,269.0819091999999,269.0655176999999,267.60642459999985,,,,,,,,1,1,1.2472153000001072,None,,,,,,,,821,24,M,R,2026-02-18_11h10.44.787,VisualSearch_2526_3,,2025.2.4,2026-02-18 11h10.45.558293 +0100,
vertical.xlsx,The target is tilted.,135,75,3,9,0,1,1,1,1,1,1,1,0,0,0,0,1,7,8,135,space,8.984164799999917,None,0,1,1.5072273999999197,None,space,1.5070727999999463,None,0,0,0,1,,,,,9,3,75,5,269.0819091999999,,,,,,,,,,,,,,,,,,,,,269.0663124,269.0819091999999,269.5651995999999,269.5678381,269.5815934,271.0991830999999,,,,,271.0993572,271.1141014,271.3148062999999,271.2986871999999,269.5815934,,,,,,,,0,1,1.5072273999999197,None,,,,,,,,821,24,M,R,2026-02-18_11h10.44.787,VisualSearch_2526_3,,2025.2.4,2026-02-18 11h10.45.558293 +0100,
vertical.xlsx,The target is tilted.,135,76,4,9,0,1,1,1,1,1,1,1,1,1,1,1,1,11,12,135,space,8.984164799999917,None,0,1,1.8630306000000019,None,space,1.5070727999999463,None,0,0,0,1,,,,,9,4,76,4,271.3148062999999,,,,,,,,,,,,,,,,,,,,,271.29940970000007,271.3148062999999,271.79857730000003,271.8029961,271.82056250000005,273.6977373,,,,,273.6978566,273.71366650000004,273.9141735999999,273.89793510000004,271.82056250000005,,,,,,,,0,1,1.8630306000000019,None,,,,,,,,821,24,M,R,2026-02-18_11h10.44.787,VisualSearch_2526_3,,2025.2.4,2026-02-18 11h10.45.558293 +0100,
vertical.xlsx,The target is tilted.,135,77,5,9,0,0,0,0,0,0,0,0,0,0,0,0,1,1,1,135,space,8.984164799999917,None,0,1,0.6909564000000046,None,space,1.5070727999999463,None,0,0,0,1,,,,,9,5,77,7,273.9141735999999,,,,,,,,,,,,,,,,,,,,,273.8985006999999,273.9141735999999,274.3977479,274.40181899999993,274.4141425999999,275.11522919999993,,,,,275.1154228999999,275.13030819999994,275.3308878,275.31427400000007,274.4141425999999,,,,,,,,0,1,0.6909564000000046,None,,,,,,,,821,24,M,R,2026-02-18_11h10.44.787,VisualSearch_2526_3,,2025.2.4,2026-02-18 11h10.45.558293 +0100,
vertical.xlsx,The target is tilted.,135,78,6,9,1,1,1,1,1,1,1,1,1,1,1,1,0,11,12,135,space,8.984164799999917,None,0,0,2.119108499999811,None,space,1.5070727999999463,None,0,0,0,1,,,,,9,6,78,0,275.3308878,,,,,,,,,,,,,,,,,,,,,275.3150232999999,275.3308878,275.81440329999987,275.8196968,275.83801619999986,277.96456009999997,,,,,277.96473579999997,277.9797891999999,278.18038619999993,278.1641531,275.83801619999986,,,,,,,,0,0,2.119108499999811,None,,,,,,,,821,24,M,R,2026-02-18_11h10.44.787,VisualSearch_2526_3,,2025.2.4,2026-02-18 11h10.45.558293 +0100,
vertical.xlsx,The target is tilted.,135,79,7,9,1,0,0,0,0,0,0,0,0,0,0,0,0,0,1,135,space,8.984164799999917,None,1,1,0.5085137999999461,None,space,1.5070727999999463,None,0,0,0,1,,,,,9,7,79,3,278.18038619999993,,,,,,,,,,,,,,,,,,,,,278.16491670000005,278.18038619999993,278.6643016999999,278.6693662,278.6879093,279.19797399999993,,,,,279.19817809999995,279.2127094,279.41348259999995,279.39731529999995,278.6879093,,,,,,,,1,1,0.5085137999999461,None,,,,,,,,821,24,M,R,2026-02-18_11h10.44.787,VisualSearch_2526_3,,2025.2.4,2026-02-18 11h10.45.558293 +0100,
vertical.xlsx,The target is tilted.,135,80,0,10,0,1,1,1,0,0,0,0,0,0,0,0,1,3,4,135,space,8.984164799999917,None,0,1,0.886816299999964,None,space,1.5070727999999463,None,0,0,0,1,,,,,10,0,80,6,279.41348259999995,,,,,,,,,,,,,,,,,,,,,279.3980595999999,279.41348259999995,279.8970635999999,279.9011384999999,279.9168216999999,280.814312,,,,,280.8144883,280.8291962999999,281.02982870000005,281.0135559999999,279.9168216999999,,,,,,,,0,1,0.886816299999964,None,,,,,,,,821,24,M,R,2026-02-18_11h10.44.787,VisualSearch_2526_3,,2025.2.4,2026-02-18 11h10.45.558293 +0100,
vertical.xlsx,The target is tilted.,135,81,1,10,1,1,1,1,0,0,0,0,0,0,0,0,0,3,4,135,space,8.984164799999917,None,1,1,0.5793585999999777,None,space,1.5070727999999463,None,0,0,0,1,,,,,10,1,81,2,281.02982870000005,,,,,,,,,,,,,,,,,,,,,281.0142086000001,281.02982870000005,281.513786,281.51829339999995,281.53556320000007,282.1296898999999,,,,,282.1298081,282.14563309999994,282.346282,282.33010109999987,281.53556320000007,,,,,,,,1,1,0.5793585999999777,None,,,,,,,,821,24,M,R,2026-02-18_11h10.44.787,VisualSearch_2526_3,,2025.2.4,2026-02-18 11h10.45.558293 +0100,
vertical.xlsx,The target is tilted.,135,82,2,10,1,1,1,1,1,1,1,1,0,0,0,0,0,7,8,135,space,8.984164799999917,None,1,1,0.6419632999998157,None,space,1.5070727999999463,None,0,0,0,1,,,,,10,2,82,1,282.346282,,,,,,,,,,,,,,,,,,,,,282.3308460999999,282.346282,282.83007169999996,282.83461439999996,282.85376410000003,283.4972238999999,,,,,283.4974367,283.51208539999993,283.71277039999995,283.69692940000004,282.85376410000003,,,,,,,,1,1,0.6419632999998157,None,,,,,,,,821,24,M,R,2026-02-18_11h10.44.787,VisualSearch_2526_3,,2025.2.4,2026-02-18 11h10.45.558293 +0100,
vertical.xlsx,The target is tilted.,135,83,3,10,1,1,1,1,1,1,1,1,1,1,1,1,0,11,12,135,space,8.984164799999917,None,1,1,1.055702900000142,None,space,1.5070727999999463,None,0,0,0,1,,,,,10,3,83,0,283.71277039999995,,,,,,,,,,,,,,,,,,,,,283.69761790000007,283.71277039999995,284.1963817000001,284.2009619999999,284.2175187999999,285.27976850000005,,,,,285.27991729999985,285.29525109999986,285.4957311999999,285.47955120000006,284.2175187999999,,,,,,,,1,1,1.055702900000142,None,,,,,,,,821,24,M,R,2026-02-18_11h10.44.787,VisualSearch_2526_3,,2025.2.4,2026-02-18 11h10.45.558293 +0100,
vertical.xlsx,The target is tilted.,135,84,4,10,0,1,1,1,1,1,1,1,1,1,1,1,1,11,12,135,space,8.984164799999917,None,0,1,2.234753899999987,None,space,1.5070727999999463,None,0,0,0,1,,,,,10,4,84,4,285.4957311999999,,,,,,,,,,,,,,,,,,,,,285.4802838999999,285.4957311999999,285.97955750000006,285.98472360000005,286.0036777,288.2460693999999,,,,,288.2462662999999,288.2620958,288.4620404,288.4457582,286.0036777,,,,,,,,0,1,2.234753899999987,None,,,,,,,,821,24,M,R,2026-02-18_11h10.44.787,VisualSearch_2526_3,,2025.2.4,2026-02-18 11h10.45.558293 +0100,
vertical.xlsx,The target is tilted.,135,85,5,10,0,1,1,1,1,1,1,1,0,0,0,0,1,7,8,135,space,8.984164799999917,None,0,1,1.4029850999997961,None,space,1.5070727999999463,None,0,0,0,1,,,,,10,5,85,5,288.4620404,,,,,,,,,,,,,,,,,,,,,288.4466018999999,288.4620404,288.94566269999996,288.95011909999994,288.96798539999986,290.37942350000003,,,,,290.37962429999993,290.3949588999999,290.5949621,290.5788620000001,288.96798539999986,,,,,,,,0,1,1.4029850999997961,None,,,,,,,,821,24,M,R,2026-02-18_11h10.44.787,VisualSearch_2526_3,,2025.2.4,2026-02-18 11h10.45.558293 +0100,
vertical.xlsx,The target is tilted.,135,86,6,10,1,0,0,0,0,0,0,0,0,0,0,0,0,0,1,135,space,8.984164799999917,None,1,1,0.5436970999999176,None,space,1.5070727999999463,None,0,0,0,1,,,,,10,6,86,3,290.5949621,,,,,,,,,,,,,,,,,,,,,290.57958529999996,290.5949621,291.0789278,291.08405949999997,291.10236659999987,291.66256870000007,,,,,291.6627604,291.67803019999997,291.8779910999999,291.86206519999996,291.10236659999987,,,,,,,,1,1,0.5436970999999176,None,,,,,,,,821,24,M,R,2026-02-18_11h10.44.787,VisualSearch_2526_3,,2025.2.4,2026-02-18 11h10.45.558293 +0100,
vertical.xlsx,The target is tilted.,135,87,7,10,0,0,0,0,0,0,0,0,0,0,0,0,1,1,1,135,space,8.984164799999917,None,0,1,0.5212733000000753,None,space,1.5070727999999463,None,0,0,0,1,,,,,10,7,87,7,291.8779910999999,,,,,,,,,,,,,,,,,,,,,291.86279420000005,291.8779910999999,292.3619945999999,292.36646159999987,292.38417349999986,292.9122238,,,,,292.91241549999995,292.9275562999999,293.1276286,293.1119879999999,292.38417349999986,,,,,,,,0,1,0.5212733000000753,None,,,,,,,,821,24,M,R,2026-02-18_11h10.44.787,VisualSearch_2526_3,,2025.2.4,2026-02-18 11h10.45.558293 +0100,
vertical.xlsx,The target is tilted.,135,88,0,11,1,0,0,0,0,0,0,0,0,0,0,0,0,0,1,135,space,8.984164799999917,None,1,1,0.4978997000000618,None,space,1.5070727999999463,None,0,0,0,1,,,,,11,0,88,3,293.1276286,,,,,,,,,,,,,,,,,,,,,293.1127838,293.1276286,293.6118005999999,293.6168588999999,293.6357481,294.1455443,,,,,294.1457436999999,294.1606400999999,294.3612063999999,294.3446838,293.6357481,,,,,,,,1,1,0.4978997000000618,None,,,,,,,,821,24,M,R,2026-02-18_11h10.44.787,VisualSearch_2526_3,,2025.2.4,2026-02-18 11h10.45.558293 +0100,
vertical.xlsx,The target is tilted.,135,89,1,11,0,0,0,0,0,0,0,0,0,0,0,0,1,1,1,135,space,8.984164799999917,None,0,1,0.613403099999914,None,space,1.5070727999999463,None,0,0,0,1,,,,,11,1,89,7,294.3612063999999,,,,,,,,,,,,,,,,,,,,,294.3454942999999,294.3612063999999,294.8445388,294.84969449999994,294.86876489999986,295.4951742999999,,,,,295.49537110000006,295.5107588999999,295.7109482000001,295.69443580000006,294.86876489999986,,,,,,,,0,1,0.613403099999914,None,,,,,,,,821,24,M,R,2026-02-18_11h10.44.787,VisualSearch_2526_3,,2025.2.4,2026-02-18 11h10.45.558293 +0100,
vertical.xlsx,The target is tilted.,135,90,2,11,1,1,1,1,1,1,1,1,0,0,0,0,0,7,8,135,space,8.984164799999917,None,1,1,0.5559942999998384,None,space,1.5070727999999463,None,0,0,0,1,,,,,11,2,90,1,295.7109482000001,,,,,,,,,,,,,,,,,,,,,295.6952724999999,295.7109482000001,296.1943606,296.1994938999999,296.21871540000006,296.77814349999994,,,,,296.77833710000004,296.7935878999999,296.99390930000004,296.9778790999999,296.21871540000006,,,,,,,,1,1,0.5559942999998384,None,,,,,,,,821,24,M,R,2026-02-18_11h10.44.787,VisualSearch_2526_3,,2025.2.4,2026-02-18 11h10.45.558293 +0100,
vertical.xlsx,The target is tilted.,135,91,3,11,0,1,1,1,1,1,1,1,1,1,1,1,1,11,12,135,space,8.984164799999917,None,0,1,2.6096804999999677,None,space,1.5070727999999463,None,0,0,0,1,,,,,11,3,91,4,296.99390930000004,,,,,,,,,,,,,,,,,,,,,296.9786913999999,296.99390930000004,297.47785969999995,297.4830764999999,297.50153439999985,300.1267221999999,,,,,300.12684450000006,300.14320759999987,,300.3269614000001,297.50153439999985,,,,,,,,0,1,2.6096804999999677,None,,,,,,,,821,24,M,R,2026-02-18_11h10.44.787,VisualSearch_2526_3,,2025.2.4,2026-02-18 11h10.45.558293 +0100,
vertical.xlsx,The target is tilted.,135,92,4,11,1,1,1,1,1,1,1,1,1,1,1,1,0,11,12,135,space,8.984164799999917,None,1,1,1.4317361000000801,None,space,1.5070727999999463,None,0,0,0,1,,,,,11,4,92,0,300.3433929999999,,,,,,,,,,,,,,,,,,,,,300.32772049999994,300.3433929999999,300.82680000000005,300.831371,300.8432407999999,302.2773241,,,,,302.2775030999999,302.29291450000005,302.492894,302.4768554,300.8432407999999,,,,,,,,1,1,1.4317361000000801,None,,,,,,,,821,24,M,R,2026-02-18_11h10.44.787,VisualSearch_2526_3,,2025.2.4,2026-02-18 11h10.45.558293 +0100,
vertical.xlsx,The target is tilted.,135,93,5,11,1,1,1,1,0,0,0,0,0,0,0,0,0,3,4,135,space,8.984164799999917,None,1,1,0.8567957999998725,None,space,1.5070727999999463,None,0,0,0,1,,,,,11,5,93,2,302.492894,,,,,,,,,,,,,,,,,,,,,302.4775904999999,302.492894,302.9770357,302.98218829999996,303.00033889999986,303.8604401,,,,,303.86062790000005,303.87595899999997,304.07595820000006,304.05993420000004,303.00033889999986,,,,,,,,1,1,0.8567957999998725,None,,,,,,,,821,24,M,R,2026-02-18_11h10.44.787,VisualSearch_2526_3,,2025.2.4,2026-02-18 11h10.45.558293 +0100,
vertical.xlsx,The target is tilted.,135,94,6,11,0,1,1,1,1,1,1,1,0,0,0,0,1,7,8,135,space,8.984164799999917,None,0,1,1.557010400000081,None,space,1.5070727999999463,None,0,0,0,1,,,,,11,6,94,5,304.07595820000006,,,,,,,,,,,,,,,,,,,,,304.0606613,304.07595820000006,304.56000619999986,304.5647753999999,304.57584240000006,306.1434712,,,,,306.14366629999995,306.15892940000003,306.3588144,306.3430739999999,304.57584240000006,,,,,,,,0,1,1.557010400000081,None,,,,,,,,821,24,M,R,2026-02-18_11h10.44.787,VisualSearch_2526_3,,2025.2.4,2026-02-18 11h10.45.558293 +0100,
vertical.xlsx,The target is tilted.,135,95,7,11,0,1,1,1,0,0,0,0,0,0,0,0,1,3,4,135,space,8.984164799999917,None,0,1,1.0409723000000213,None,space,1.5070727999999463,None,0,0,0,1,,,,,11,7,95,6,306.3588144,,,,,,,,,,,,,,,,,,,,,306.3437833999999,306.3588144,306.8430406,306.8481423999999,306.8666641,307.9097984,,,,,307.90997519999996,307.92505570000003,308.12540820000004,308.10910119999994,306.8666641,,,,,,,,0,1,1.0409723000000213,None,,,,,,,,821,24,M,R,2026-02-18_11h10.44.787,VisualSearch_2526_3,,2025.2.4,2026-02-18 11h10.45.558293 +0100,
vertical.xlsx,The target is tilted.,135,96,0,12,0,1,1,1,1,1,1,1,1,1,1,1,1,11,12,135,space,8.984164799999917,None,0,1,2.4327789999999823,None,space,1.5070727999999463,None,0,0,0,1,,,,,12,0,96,4,308.12540820000004,,,,,,,,,,,,,,,,,,,,,308.10976389999996,308.12540820000004,308.6087794,308.61143730000003,308.62516000000005,311.05922050000004,,,,,311.0593959,311.07479409999996,311.27431009999987,311.2587639999999,308.62516000000005,,,,,,,,0,1,2.4327789999999823,None,,,,,,,,821,24,M,R,2026-02-18_11h10.44.787,VisualSearch_2526_3,,2025.2.4,2026-02-18 11h10.45.558293 +0100,
vertical.xlsx,The target is tilted.,135,97,1,12,0,1,1,1,1,1,1,1,0,0,0,0,1,7,8,135,space,8.984164799999917,None,0,1,1.955477799999926,None,space,1.5070727999999463,None,0,0,0,1,,,,,12,1,97,5,311.27431009999987,,,,,,,,,,,,,,,,,,,,,311.2594818,311.27431009999987,311.75864490000004,311.7632154999999,311.7808147999999,313.7421036999999,,,,,313.74227840000003,313.7577297999999,313.9577861,313.94159939999986,311.7808147999999,,,,,,,,0,1,1.955477799999926,None,,,,,,,,821,24,M,R,2026-02-18_11h10.44.787,VisualSearch_2526_3,,2025.2.4,2026-02-18 11h10.45.558293 +0100,
vertical.xlsx,The target is tilted.,135,98,2,12,0,1,1,1,0,0,0,0,0,0,0,0,1,3,4,135,space,8.984164799999917,None,0,1,0.6889957000000777,None,space,1.5070727999999463,None,0,0,0,1,,,,,12,2,98,6,313.9577861,,,,,,,,,,,,,,,,,,,,,313.94234830000005,313.9577861,314.4411992,314.44397189999995,314.45902079999996,315.15867579999986,,,,,315.1588677,315.1740043,315.3738269999999,315.35803680000004,314.45902079999996,,,,,,,,0,1,0.6889957000000777,None,,,,,,,,821,24,M,R,2026-02-18_11h10.44.787,VisualSearch_2526_3,,2025.2.4,2026-02-18 11h10.45.558293 +0100,
vertical.xlsx,The target is tilted.,135,99,3,12,1,1,1,1,0,0,0,0,0,0,0,0,0,3,4,135,space,8.984164799999917,None,1,1,0.7097728999999617,None,space,1.5070727999999463,None,0,0,0,1,,,,,12,3,99,2,315.3738269999999,,,,,,,,,,,,,,,,,,,,,315.35879269999987,315.3738269999999,315.8581807999999,315.8632769000001,315.8816540999999,316.6084529,,,,,316.60864820000006,316.62360579999995,316.82364039999993,316.80773249999993,315.8816540999999,,,,,,,,1,1,0.7097728999999617,None,,,,,,,,821,24,M,R,2026-02-18_11h10.44.787,VisualSearch_2526_3,,2025.2.4,2026-02-18 11h10.45.558293 +0100,
vertical.xlsx,The target is tilted.,135,100,4,12,0,0,0,0,0,0,0,0,0,0,0,0,1,1,1,135,space,8.984164799999917,None,1,0,0.5181324000000131,None,space,1.5070727999999463,None,0,0,0,1,,,,,12,4,100,7,316.82364039999993,,,,,,,,,,,,,,,,,,,,,316.80844679999996,316.82364039999993,317.3078401,317.31227179999996,317.3301824,317.8582406999999,,,,,317.85843320000004,317.87362269999994,318.0735972,318.0572689999999,317.3301824,,,,,,,,1,0,0.5181324000000131,None,,,,,,,,821,24,M,R,2026-02-18_11h10.44.787,VisualSearch_2526_3,,2025.2.4,2026-02-18 11h10.45.558293 +0100,
vertical.xlsx,The target is tilted.,135,101,5,12,1,1,1,1,1,1,1,1,1,1,1,1,0,11,12,135,space,8.984164799999917,None,1,1,0.7529985999999553,None,space,1.5070727999999463,None,0,0,0,1,,,,,12,5,101,0,318.0735972,,,,,,,,,,,,,,,,,,,,,318.05801329999986,318.0735972,318.55769469999996,318.56269539999994,318.58160529999986,319.34137929999997,,,,,319.34157660000005,319.3569235,319.5568957999999,319.54078400000003,318.58160529999986,,,,,,,,1,1,0.7529985999999553,None,,,,,,,,821,24,M,R,2026-02-18_11h10.44.787,VisualSearch_2526_3,,2025.2.4,2026-02-18 11h10.45.558293 +0100,
vertical.xlsx,The target is tilted.,135,102,6,12,1,1,1,1,1,1,1,1,0,0,0,0,0,7,8,135,space,8.984164799999917,None,1,1,1.1395244000000275,None,space,1.5070727999999463,None,0,0,0,1,,,,,12,6,102,1,319.5568957999999,,,,,,,,,,,,,,,,,,,,,319.54148699999996,319.5568957999999,320.04064059999996,320.04504309999993,320.0625663999999,321.20680990000005,,,,,321.2069483,321.2232191999999,321.42342729999996,321.4072165,320.0625663999999,,,,,,,,1,1,1.1395244000000275,None,,,,,,,,821,24,M,R,2026-02-18_11h10.44.787,VisualSearch_2526_3,,2025.2.4,2026-02-18 11h10.45.558293 +0100,
vertical.xlsx,The target is tilted.,135,103,7,12,1,0,0,0,0,0,0,0,0,0,0,0,0,0,1,135,space,8.984164799999917,None,1,1,0.7476375999999618,None,space,1.5070727999999463,None,0,0,0,1,,,,,12,7,103,3,321.42342729999996,,,,,,,,,,,,,,,,,,,,,321.4080306999999,321.42342729999996,321.90717819999986,321.91234669999994,321.9312502999999,322.69013930000006,,,,,322.6902814,322.70607589999986,322.9063779999999,322.89013550000004,321.9312502999999,,,,,,,,1,1,0.7476375999999618,None,,,,,,,,821,24,M,R,2026-02-18_11h10.44.787,VisualSearch_2526_3,,2025.2.4,2026-02-18 11h10.45.558293 +0100,
vertical.xlsx,The target is tilted.,135,104,0,13,1,1,1,1,1,1,1,1,0,0,0,0,0,7,8,135,space,8.984164799999917,None,1,1,1.1834286000000702,None,space,1.5070727999999463,None,0,0,0,1,,,,,13,0,104,1,322.9063779999999,,,,,,,,,,,,,,,,,,,,,322.8910286999999,322.9063779999999,323.39021920000005,323.39539990000003,323.4141396,324.6067409,,,,,324.6069181999999,324.6222593,324.82228269999996,324.8064827999999,323.4141396,,,,,,,,1,1,1.1834286000000702,None,,,,,,,,821,24,M,R,2026-02-18_11h10.44.787,VisualSearch_2526_3,,2025.2.4,2026-02-18 11h10.45.558293 +0100,
vertical.xlsx,The target is tilted.,135,105,1,13,0,0,0,0,0,0,0,0,0,0,0,0,1,1,1,135,space,8.984164799999917,None,0,1,0.6240197000001899,None,space,1.5070727999999463,None,0,0,0,1,,,,,13,1,105,7,324.82228269999996,,,,,,,,,,,,,,,,,,,,,324.8072244,324.82228269999996,325.3062474000001,325.3112945999999,325.3292483,325.95629110000004,,,,,325.95642440000006,325.97226350000005,326.17228039999986,326.1562157999999,325.3292483,,,,,,,,0,1,0.6240197000001899,None,,,,,,,,821,24,M,R,2026-02-18_11h10.44.787,VisualSearch_2526_3,,2025.2.4,2026-02-18 11h10.45.558293 +0100,
vertical.xlsx,The target is tilted.,135,106,2,13,0,1,1,1,1,1,1,1,0,0,0,0,1,7,8,135,space,8.984164799999917,None,0,1,1.592825400000038,None,space,1.5070727999999463,None,0,0,0,1,,,,,13,2,106,5,326.17228039999986,,,,,,,,,,,,,,,,,,,,,326.1569712999999,326.17228039999986,326.65624049999997,326.6611900999999,326.67402590000006,328.2730681999999,,,,,328.2732401999999,328.2887183,328.4887114999999,328.47251359999996,326.67402590000006,,,,,,,,0,1,1.592825400000038,None,,,,,,,,821,24,M,R,2026-02-18_11h10.44.787,VisualSearch_2526_3,,2025.2.4,2026-02-18 11h10.45.558293 +0100,
vertical.xlsx,The target is tilted.,135,107,3,13,0,1,1,1,0,0,0,0,0,0,0,0,1,3,4,135,space,8.984164799999917,None,0,1,0.6893944999999349,None,space,1.5070727999999463,None,0,0,0,1,,,,,13,3,107,6,328.4887114999999,,,,,,,,,,,,,,,,,,,,,328.4732615999999,328.4887114999999,328.9726994,328.97785150000004,328.99612449999995,329.6892485000001,,,,,329.6894422999999,329.70500949999996,329.9052122999999,329.88912830000004,328.99612449999995,,,,,,,,0,1,0.6893944999999349,None,,,,,,,,821,24,M,R,2026-02-18_11h10.44.787,VisualSearch_2526_3,,2025.2.4,2026-02-18 11h10.45.558293 +0100,
vertical.xlsx,The target is tilted.,135,108,4,13,0,1,1,1,1,1,1,1,1,1,1,1,1,11,12,135,space,8.984164799999917,None,0,1,2.419796099999985,None,space,1.5070727999999463,None,0,0,0,1,,,,,13,4,108,4,329.9052122999999,,,,,,,,,,,,,,,,,,,,,329.88994690000004,329.9052122999999,330.3888253,330.39502429999993,330.41315570000006,332.8394415,,,,,332.8396172999999,332.85447699999986,333.05407779999996,333.03782380000007,330.41315570000006,,,,,,,,0,1,2.419796099999985,None,,,,,,,,821,24,M,R,2026-02-18_11h10.44.787,VisualSearch_2526_3,,2025.2.4,2026-02-18 11h10.45.558293 +0100,
vertical.xlsx,The target is tilted.,135,109,5,13,1,1,1,1,0,0,0,0,0,0,0,0,0,3,4,135,space,8.984164799999917,None,1,1,0.6699610000000575,None,space,1.5070727999999463,None,0,0,0,1,,,,,13,5,109,2,333.05407779999996,,,,,,,,,,,,,,,,,,,,,333.0383790000001,333.05407779999996,333.5380232,333.54100270000004,333.55402419999996,334.2389828999999,,,,,334.2392012,334.2543005,334.4543257999999,334.43822120000004,333.55402419999996,,,,,,,,1,1,0.6699610000000575,None,,,,,,,,821,24,M,R,2026-02-18_11h10.44.787,VisualSearch_2526_3,,2025.2.4,2026-02-18 11h10.45.558293 +0100,
vertical.xlsx,The target is tilted.,135,110,6,13,1,1,1,1,1,1,1,1,1,1,1,1,0,11,12,135,space,8.984164799999917,None,1,1,0.8487740999999005,None,space,1.5070727999999463,None,0,0,0,1,,,,,13,6,110,0,334.4543257999999,,,,,,,,,,,,,,,,,,,,,334.438979,334.4543257999999,334.93796470000007,334.94277639999996,334.9607659999999,335.8219907,,,,,335.8221822999999,335.83738130000006,336.0375772,336.02146689999995,334.9607659999999,,,,,,,,1,1,0.8487740999999005,None,,,,,,,,821,24,M,R,2026-02-18_11h10.44.787,VisualSearch_2526_3,,2025.2.4,2026-02-18 11h10.45.558293 +0100,
vertical.xlsx,The target is tilted.,135,111,7,13,1,0,0,0,0,0,0,0,0,0,0,0,0,0,1,135,space,8.984164799999917,None,1,1,0.6522082999999839,None,space,1.5070727999999463,None,0,0,0,1,,,,,13,7,111,3,336.0375772,,,,,,,,,,,,,,,,,,,,,336.0222681,336.0375772,336.5214919,336.5265482,336.545155,337.20475450000004,,,,,337.2049454999999,337.22064009999986,337.4204167999999,337.4037865999999,336.545155,,,,,,,,1,1,0.6522082999999839,None,,,,,,,,821,24,M,R,2026-02-18_11h10.44.787,VisualSearch_2526_3,,2025.2.4,2026-02-18 11h10.45.558293 +0100,
vertical.xlsx,The target is tilted.,135,112,0,14,0,1,1,1,1,1,1,1,1,1,1,1,1,11,12,135,space,8.984164799999917,None,0,1,2.3305896999997913,None,space,1.5070727999999463,None,0,0,0,1,,,,,14,0,112,4,337.4204167999999,,,,,,,,,,,,,,,,,,,,,337.40422220000005,337.4204167999999,337.90426490000004,337.9097938,337.9366169,340.27088430000003,,,,,340.271082,340.2867312000001,340.48672439999996,340.4706225,337.9366169,,,,,,,,0,1,2.3305896999997913,None,,,,,,,,821,24,M,R,2026-02-18_11h10.44.787,VisualSearch_2526_3,,2025.2.4,2026-02-18 11h10.45.558293 +0100,
vertical.xlsx,The target is tilted.,135,113,1,14,1,0,0,0,0,0,0,0,0,0,0,0,0,0,1,135,space,8.984164799999917,None,1,1,0.6070193000000472,None,space,1.5070727999999463,None,0,0,0,1,,,,,14,1,113,3,340.48672439999996,,,,,,,,,,,,,,,,,,,,,340.47134630000005,340.48672439999996,340.9707321000001,340.9758634,340.9940196,341.60460139999986,,,,,341.6047985,341.61970870000005,341.8198259999999,341.8034582,340.9940196,,,,,,,,1,1,0.6070193000000472,None,,,,,,,,821,24,M,R,2026-02-18_11h10.44.787,VisualSearch_2526_3,,2025.2.4,2026-02-18 11h10.45.558293 +0100,
vertical.xlsx,The target is tilted.,135,114,2,14,1,1,1,1,1,1,1,1,0,0,0,0,0,7,8,135,space,8.984164799999917,None,1,1,1.4440081000000191,None,space,1.5070727999999463,None,0,0,0,1,,,,,14,2,114,1,341.8198259999999,,,,,,,,,,,,,,,,,,,,,341.80417139999986,341.8198259999999,342.3028853999999,342.3055231000001,342.3196932999999,343.77013469999997,,,,,343.77030990000003,343.7860476999999,343.98598190000007,343.9697145,342.3196932999999,,,,,,,,1,1,1.4440081000000191,None,,,,,,,,821,24,M,R,2026-02-18_11h10.44.787,VisualSearch_2526_3,,2025.2.4,2026-02-18 11h10.45.558293 +0100,
vertical.xlsx,The target is tilted.,135,115,3,14,0,1,1,1,0,0,0,0,0,0,0,0,1,3,4,135,space,8.984164799999917,None,0,1,0.7111476000000039,None,space,1.5070727999999463,None,0,0,0,1,,,,,14,3,115,6,343.98598190000007,,,,,,,,,,,,,,,,,,,,,343.9701748,343.98598190000007,344.46983079999995,344.47511639999993,344.4941945999999,345.2203901999999,,,,,345.22058100000004,345.23581820000004,345.43573259999994,345.41993890000003,344.4941945999999,,,,,,,,0,1,0.7111476000000039,None,,,,,,,,821,24,M,R,2026-02-18_11h10.44.787,VisualSearch_2526_3,,2025.2.4,2026-02-18 11h10.45.558293 +0100,
vertical.xlsx,The target is tilted.,135,116,4,14,1,1,1,1,0,0,0,0,0,0,0,0,0,3,4,135,space,8.984164799999917,None,1,1,0.6932337999999163,None,space,1.5070727999999463,None,0,0,0,1,,,,,14,4,116,2,345.43573259999994,,,,,,,,,,,,,,,,,,,,,345.42074980000007,345.43573259999994,345.91983460000006,345.9251380999999,345.94414570000004,346.6525807999999,,,,,346.65272159999995,346.66885709999997,346.8691521999999,346.8530410999999,345.94414570000004,,,,,,,,1,1,0.6932337999999163,None,,,,,,,,821,24,M,R,2026-02-18_11h10.44.787,VisualSearch_2526_3,,2025.2.4,2026-02-18 11h10.45.558293 +0100,
vertical.xlsx,The target is tilted.,135,117,5,14,0,0,0,0,0,0,0,0,0,0,0,0,1,1,1,135,space,8.984164799999917,None,0,1,0.7343834999999217,None,space,1.5070727999999463,None,0,0,0,1,,,,,14,5,117,7,346.8691521999999,,,,,,,,,,,,,,,,,,,,,346.8537779999999,346.8691521999999,347.3530496000001,347.3582217999999,347.37674949999996,348.1196623000001,,,,,348.1198371999999,348.1353624000001,348.3352548999999,348.3189637999999,347.37674949999996,,,,,,,,0,1,0.7343834999999217,None,,,,,,,,821,24,M,R,2026-02-18_11h10.44.787,VisualSearch_2526_3,,2025.2.4,2026-02-18 11h10.45.558293 +0100,
vertical.xlsx,The target is tilted.,135,118,6,14,0,1,1,1,1,1,1,1,0,0,0,0,1,7,8,135,space,8.984164799999917,None,0,1,1.4654498999998395,None,space,1.5070727999999463,None,0,0,0,1,,,,,14,6,118,5,348.3352548999999,,,,,,,,,,,,,,,,,,,,,348.3193988999999,348.3352548999999,348.81847500000003,348.82122449999997,348.83479369999986,350.3028792,,,,,350.30307360000006,350.31809369999996,350.51845720000006,350.50203209999995,348.83479369999986,,,,,,,,0,1,1.4654498999998395,None,,,,,,,,821,24,M,R,2026-02-18_11h10.44.787,VisualSearch_2526_3,,2025.2.4,2026-02-18 11h10.45.558293 +0100,
vertical.xlsx,The target is tilted.,135,119,7,14,1,1,1,1,1,1,1,1,1,1,1,1,0,11,12,135,space,8.984164799999917,None,1,1,1.0043193999999858,None,space,1.5070727999999463,None,0,0,0,1,,,,,14,7,119,0,350.51845720000006,,,,,,,,,,,,,,,,,,,,,350.5024851999999,350.51845720000006,351.00180079999996,351.00644379999994,351.02110429999993,352.0358844,,,,,352.0360768999999,352.0514427999999,352.26549699999987,352.23520080000003,351.02110429999993,,,,,,,,1,1,1.0043193999999858,None,,,,,,,,821,24,M,R,2026-02-18_11h10.44.787,VisualSearch_2526_3,,2025.2.4,2026-02-18 11h10.45.558293 +0100,
vertical.xlsx,The target is tilted.,135,0,0,0,,,,,,,,,,,,,,,,,space,8.984164799999917,None,,,,,space,1.5070727999999463,None,0,0,0,1,,,,,,,,,,,,,,,,,,,,,,,,,,,,,,,,,,,,,,,,,,,,,,,,,,,,,,,,,,,,,,,821,24,M,R,2026-02-18_11h10.44.787,VisualSearch_2526_3,,2025.2.4,2026-02-18 11h10.45.558293 +0100,
tilted.xlsx,The target is tilted.,117,0,0,0,1,1,1,1,1,1,1,1,0,0,0,0,0,7,8,117,space,7.2306352000000516,None,1,1,1.3060855000001084,None,,,,0,1,1,0,0,0,0,1,,,,,359.57689819999996,,,,,,,,,,,,,,,352.26549699999987,352.26549699999987,352.26549699999987,space,7.2306352000000516,None,359.57241180000005,359.57689819999996,360.01725880000004,360.02244930000006,360.04103110000005,361.3505367999999,1,1,1.3060855000001084,None,361.3507138,361.3665186999999,361.56662860000006,361.55053929999985,,,,,,,,,,,,,,,,,,,,821,24,M,R,2026-02-18_11h10.44.787,VisualSearch_2526_3,,2025.2.4,2026-02-18 11h10.45.558293 +0100,
tilted.xlsx,The target is tilted.,117,1,1,0,1,1,1,1,1,1,1,1,1,1,1,1,0,11,12,117,space,7.2306352000000516,None,1,1,2.5764282000000094,None,,,,0,1,1,0,0,1,1,0,,,,,361.56662860000006,,,,,,,,,,,,,,,,,,,,,361.5511881,361.56662860000006,362.05040439999993,362.054797,362.0665326000001,364.6505196999999,1,1,2.5764282000000094,None,364.6506970999999,364.66554399999995,364.8656761,364.8502418999999,362.0665326000001,,,,,,,,,,,,,,,,,,,821,24,M,R,2026-02-18_11h10.44.787,VisualSearch_2526_3,,2025.2.4,2026-02-18 11h10.45.558293 +0100,
tilted.xlsx,The target is tilted.,117,2,2,0,1,1,1,1,0,0,0,0,0,0,0,0,0,3,4,117,space,7.2306352000000516,None,1,1,0.8710610999999062,None,,,,0,1,1,0,0,2,2,2,,,,,364.8656761,,,,,,,,,,,,,,,,,,,,,364.8508996999999,364.8656761,365.34986060000006,365.3542623999999,365.37172439999995,366.2502388999999,1,1,0.8710610999999062,None,366.25042499999995,366.2657265999999,366.4656895999999,366.4495998,365.37172439999995,,,,,,,,,,,,,,,,,,,821,24,M,R,2026-02-18_11h10.44.787,VisualSearch_2526_3,,2025.2.4,2026-02-18 11h10.45.558293 +0100,
tilted.xlsx,The target is tilted.,117,3,3,0,1,0,0,0,0,0,0,0,0,0,0,0,0,0,1,117,space,7.2306352000000516,None,1,1,0.6329820000000836,None,,,,0,1,1,0,0,3,3,3,,,,,366.4656895999999,,,,,,,,,,,,,,,,,,,,,366.45028350000007,366.4656895999999,366.9495821999999,366.95397809999986,366.97151699999995,367.6161996000001,1,1,0.6329820000000836,None,367.61636840000006,367.6318604999999,367.8322277,367.8159885,366.97151699999995,,,,,,,,,,,,,,,,,,,821,24,M,R,2026-02-18_11h10.44.787,VisualSearch_2526_3,,2025.2.4,2026-02-18 11h10.45.558293 +0100,
tilted.xlsx,The target is tilted.,117,4,4,0,0,0,0,0,0,0,0,0,0,0,0,0,1,1,1,117,space,7.2306352000000516,None,0,1,0.6475361999998768,None,,,,0,1,1,0,0,4,4,7,,,,,367.8322277,,,,,,,,,,,,,,,,,,,,,367.8166805999999,367.8322277,368.3160923999999,368.32111639999994,368.3392137000001,368.99984389999986,0,1,0.6475361999998768,None,369.0000318,369.0149807,369.21499289999997,369.1993456,368.3392137000001,,,,,,,,,,,,,,,,,,,821,24,M,R,2026-02-18_11h10.44.787,VisualSearch_2526_3,,2025.2.4,2026-02-18 11h10.45.558293 +0100,
tilted.xlsx,The target is tilted.,117,5,5,0,0,1,1,1,1,1,1,1,1,1,1,1,1,11,12,117,space,7.2306352000000516,None,0,1,4.432794100000137,None,,,,0,1,1,0,0,5,5,4,,,,,369.21499289999997,,,,,,,,,,,,,,,,,,,,,369.2000029999999,369.21499289999997,369.6991776,369.70380750000004,369.72211679999987,374.16524579999987,0,1,4.432794100000137,None,374.16541129999996,374.1811447,374.38122299999986,374.3648343,369.72211679999987,,,,,,,,,,,,,,,,,,,821,24,M,R,2026-02-18_11h10.44.787,VisualSearch_2526_3,,2025.2.4,2026-02-18 11h10.45.558293 +0100,
tilted.xlsx,The target is tilted.,117,6,6,0,0,1,1,1,0,0,0,0,0,0,0,0,1,3,4,117,space,7.2306352000000516,None,0,1,1.8288122000001295,None,,,,0,1,1,0,0,6,6,6,,,,,374.38122299999986,,,,,,,,,,,,,,,,,,,,,374.36553030000005,374.38122299999986,374.86490430000003,374.86932720000004,374.88633030000005,376.7318424,0,1,1.8288122000001295,None,376.7320093000001,376.74719119999986,376.9480309999999,376.9310292,374.88633030000005,,,,,,,,,,,,,,,,,,,821,24,M,R,2026-02-18_11h10.44.787,VisualSearch_2526_3,,2025.2.4,2026-02-18 11h10.45.558293 +0100,
tilted.xlsx,The target is tilted.,117,7,7,0,0,1,1,1,1,1,1,1,0,0,0,0,1,7,8,117,space,7.2306352000000516,None,0,1,3.707804000000124,None,,,,0,1,1,0,0,7,7,5,,,,,376.9480309999999,,,,,,,,,,,,,,,,,,,,,376.9314208999999,376.9480309999999,377.44843249999985,377.45127379999985,377.46413069999994,381.1809556999999,0,1,3.707804000000124,None,381.1811227999999,381.19623120000006,,381.3876874,,,,,,,,,,,,,,,,,,,,821,24,M,R,2026-02-18_11h10.44.787,VisualSearch_2526_3,,2025.2.4,2026-02-18 11h10.45.558293 +0100,
tilted.xlsx,The target is tilted.,117,0,0,0,1,1,1,1,1,1,1,1,0,0,0,0,0,7,8,117,space,7.2306352000000516,None,1,1,1.4618709999999737,None,space,1.1831706000000395,None,0,1,1,0,,,,,0,0,0,1,382.6357209,,,,,,,,,,,,,,,,,,,,,382.63174660000004,382.6357209,383.1137713999999,383.11889539999993,383.13780139999994,384.61380299999996,,,,,384.61398110000005,384.6293914999999,384.8292437,384.8125573,,381.39411799999993,381.39841239999987,381.39841239999987,382.59723659999986,space,1.1831706000000395,None,1,1,1.4618709999999737,None,,,,,,,,821,24,M,R,2026-02-18_11h10.44.787,VisualSearch_2526_3,,2025.2.4,2026-02-18 11h10.45.558293 +0100,
tilted.xlsx,The target is tilted.,117,1,1,0,0,1,1,1,1,1,1,1,0,0,0,0,1,7,8,117,space,7.2306352000000516,None,0,1,2.8348560000001726,None,space,1.1831706000000395,None,0,1,1,0,,,,,0,1,1,5,384.8292437,,,,,,,,,,,,,,,,,,,,,384.81299319999994,384.8292437,385.31298089999996,385.3181155,385.3349702999999,388.1798747999999,,,,,388.1800791999999,388.1951918,388.3954174999999,388.37899649999986,385.3349702999999,,,,,,,,0,1,2.8348560000001726,None,,,,,,,,821,24,M,R,2026-02-18_11h10.44.787,VisualSearch_2526_3,,2025.2.4,2026-02-18 11h10.45.558293 +0100,
tilted.xlsx,The target is tilted.,117,2,2,0,1,1,1,1,1,1,1,1,1,1,1,1,0,11,12,117,space,7.2306352000000516,None,1,1,1.807330200000024,None,space,1.1831706000000395,None,0,1,1,0,,,,,0,2,2,0,388.3954174999999,,,,,,,,,,,,,,,,,,,,,388.3797526999999,388.3954174999999,388.87886779999985,388.88338980000003,388.90022380000005,390.7118138000001,,,,,390.71193270000003,390.7277088000001,390.9277611,390.91158700000005,388.90022380000005,,,,,,,,1,1,1.807330200000024,None,,,,,,,,821,24,M,R,2026-02-18_11h10.44.787,VisualSearch_2526_3,,2025.2.4,2026-02-18 11h10.45.558293 +0100,
tilted.xlsx,The target is tilted.,117,3,3,0,0,0,0,0,0,0,0,0,0,0,0,0,1,1,1,117,space,7.2306352000000516,None,0,1,0.8083033000000341,None,space,1.1831706000000395,None,0,1,1,0,,,,,0,3,3,7,390.9277611,,,,,,,,,,,,,,,,,,,,,390.9120544,390.9277611,391.4121034,391.41666009999994,391.43364989999986,392.2457374999999,,,,,392.24593400000003,392.2611755999999,392.4615391,392.44492880000007,,,,,,,,,0,1,0.8083033000000341,None,,,,,,,,821,24,M,R,2026-02-18_11h10.44.787,VisualSearch_2526_3,,2025.2.4,2026-02-18 11h10.45.558293 +0100,
tilted.xlsx,The target is tilted.,117,4,4,0,1,1,1,1,0,0,0,0,0,0,0,0,0,3,4,117,space,7.2306352000000516,None,1,1,0.761350800000173,None,space,1.1831706000000395,None,0,1,1,0,,,,,0,4,4,2,392.4615391,,,,,,,,,,,,,,,,,,,,,392.44527619999985,392.4615391,392.94537739999987,392.9503445,392.9697051999999,393.7457597,,,,,393.7459543,393.76130539999986,393.9614331,393.94513949999987,392.9697051999999,,,,,,,,1,1,0.761350800000173,None,,,,,,,,821,24,M,R,2026-02-18_11h10.44.787,VisualSearch_2526_3,,2025.2.4,2026-02-18 11h10.45.558293 +0100,
tilted.xlsx,The target is tilted.,117,5,5,0,1,0,0,0,0,0,0,0,0,0,0,0,0,0,1,117,space,7.2306352000000516,None,1,1,0.5515253000000939,None,space,1.1831706000000395,None,0,1,1,0,,,,,0,5,5,3,393.9614331,,,,,,,,,,,,,,,,,,,,,393.9459337999999,393.9614331,394.4449560999999,394.4500906999999,394.46903599999996,395.0288198999999,,,,,395.02901369999995,395.0443356999999,395.2443579999999,395.22814459999995,394.46903599999996,,,,,,,,1,1,0.5515253000000939,None,,,,,,,,821,24,M,R,2026-02-18_11h10.44.787,VisualSearch_2526_3,,2025.2.4,2026-02-18 11h10.45.558293 +0100,
tilted.xlsx,The target is tilted.,117,6,6,0,0,1,1,1,0,0,0,0,0,0,0,0,1,3,4,117,space,7.2306352000000516,None,0,1,0.9970654000001105,None,space,1.1831706000000395,None,0,1,1,0,,,,,0,6,6,6,395.2443579999999,,,,,,,,,,,,,,,,,,,,,395.22889929999997,395.2443579999999,395.7274032999999,395.73018219999994,395.7439313,396.74495150000007,,,,,396.74514699999986,396.7607241999999,396.96069009999997,396.94429560000003,395.7439313,,,,,,,,0,1,0.9970654000001105,None,,,,,,,,821,24,M,R,2026-02-18_11h10.44.787,VisualSearch_2526_3,,2025.2.4,2026-02-18 11h10.45.558293 +0100,
tilted.xlsx,The target is tilted.,117,7,7,0,0,1,1,1,1,1,1,1,1,1,1,1,1,11,12,117,space,7.2306352000000516,None,0,1,3.5102401000001464,None,space,1.1831706000000395,None,0,1,1,0,,,,,0,7,7,4,396.96069009999997,,,,,,,,,,,,,,,,,,,,,396.94502409999996,396.96069009999997,397.4442262,397.44873800000005,397.46041059999993,400.9777409000001,,,,,400.97797990000004,400.9933968999999,401.19339850000006,401.1768875999999,397.46041059999993,,,,,,,,0,1,3.5102401000001464,None,,,,,,,,821,24,M,R,2026-02-18_11h10.44.787,VisualSearch_2526_3,,2025.2.4,2026-02-18 11h10.45.558293 +0100,
tilted.xlsx,The target is tilted.,117,8,0,1,0,0,0,0,0,0,0,0,0,0,0,0,1,1,1,117,space,7.2306352000000516,None,0,1,0.5777714000000742,None,space,1.1831706000000395,None,0,1,1,0,,,,,1,0,8,7,401.19339850000006,,,,,,,,,,,,,,,,,,,,,401.17745809999997,401.19339850000006,401.67667030000007,401.6809246,401.6932618999999,402.2766337999999,,,,,402.27675299999987,402.2931937000001,402.49280769999996,402.4769515999999,401.6932618999999,,,,,,,,0,1,0.5777714000000742,None,,,,,,,,821,24,M,R,2026-02-18_11h10.44.787,VisualSearch_2526_3,,2025.2.4,2026-02-18 11h10.45.558293 +0100,
tilted.xlsx,The target is tilted.,117,9,1,1,1,0,0,0,0,0,0,0,0,0,0,0,0,0,1,117,space,7.2306352000000516,None,1,1,0.6673408999999992,None,space,1.1831706000000395,None,0,1,1,0,,,,,1,1,9,3,402.49280769999996,,,,,,,,,,,,,,,,,,,,,402.4777093,402.49280769999996,402.97685849999993,402.98143589999995,402.9930924,403.6772547999999,,,,,403.6774249,403.69292100000007,403.8929197,403.8763807999999,402.9930924,,,,,,,,1,1,0.6673408999999992,None,,,,,,,,821,24,M,R,2026-02-18_11h10.44.787,VisualSearch_2526_3,,2025.2.4,2026-02-18 11h10.45.558293 +0100,
tilted.xlsx,The target is tilted.,117,10,2,1,1,1,1,1,0,0,0,0,0,0,0,0,0,3,4,117,space,7.2306352000000516,None,1,1,0.7399891999998545,None,space,1.1831706000000395,None,0,1,1,0,,,,,1,2,10,2,403.8929197,,,,,,,,,,,,,,,,,,,,,403.8768464,403.8929197,404.37689950000004,404.3816004,404.392423,405.14366659999996,,,,,405.14383799999996,405.15931219999993,405.35902770000007,405.34343079999985,404.392423,,,,,,,,1,1,0.7399891999998545,None,,,,,,,,821,24,M,R,2026-02-18_11h10.44.787,VisualSearch_2526_3,,2025.2.4,2026-02-18 11h10.45.558293 +0100,
tilted.xlsx,The target is tilted.,117,11,3,1,1,1,1,1,1,1,1,1,1,1,1,1,0,11,12,117,space,7.2306352000000516,None,1,1,0.8346701999998913,None,space,1.1831706000000395,None,0,1,1,0,,,,,1,3,11,0,405.35902770000007,,,,,,,,,,,,,,,,,,,,,405.34415020000006,405.35902770000007,405.8433299999999,405.8485607,405.8667441,406.71082879999994,,,,,406.71104319999995,406.72541150000006,406.92538719999993,406.90954439999996,405.8667441,,,,,,,,1,1,0.8346701999998913,None,,,,,,,,821,24,M,R,2026-02-18_11h10.44.787,VisualSearch_2526_3,,2025.2.4,2026-02-18 11h10.45.558293 +0100,
tilted.xlsx,The target is tilted.,117,12,4,1,0,1,1,1,0,0,0,0,0,0,0,0,1,3,4,117,space,7.2306352000000516,None,0,1,1.2798302000001058,None,space,1.1831706000000395,None,0,1,1,0,,,,,1,4,12,6,406.92538719999993,,,,,,,,,,,,,,,,,,,,,406.91029819999994,406.92538719999993,407.4094003,407.4139384,407.42549499999996,408.70953889999987,,,,,408.70973979999985,408.72511480000003,408.9254530999999,408.9093138999999,407.42549499999996,,,,,,,,0,1,1.2798302000001058,None,,,,,,,,821,24,M,R,2026-02-18_11h10.44.787,VisualSearch_2526_3,,2025.2.4,2026-02-18 11h10.45.558293 +0100,
tilted.xlsx,The target is tilted.,117,13,5,1,0,1,1,1,1,1,1,1,0,0,0,0,1,7,8,117,space,7.2306352000000516,None,0,1,3.165029999999888,None,space,1.1831706000000395,None,0,1,1,0,,,,,1,5,13,5,408.9254530999999,,,,,,,,,,,,,,,,,,,,,408.91002249999997,408.9254530999999,409.40918369999986,409.41266569999993,409.42477770000005,412.59212639999987,,,,,412.59226979999994,412.6080565,412.80820130000006,412.79205879999995,409.42477770000005,,,,,,,,0,1,3.165029999999888,None,,,,,,,,821,24,M,R,2026-02-18_11h10.44.787,VisualSearch_2526_3,,2025.2.4,2026-02-18 11h10.45.558293 +0100,
tilted.xlsx,The target is tilted.,117,14,6,1,1,1,1,1,1,1,1,1,0,0,0,0,0,7,8,117,space,7.2306352000000516,None,1,1,0.6608181999999942,None,space,1.1831706000000395,None,0,1,1,0,,,,,1,6,14,1,412.80820130000006,,,,,,,,,,,,,,,,,,,,,412.79280229999995,412.80820130000006,413.2920019999999,413.2964264,413.31422339999995,413.99220560000003,,,,,413.9923782000001,414.00783409999985,414.2073725,414.1913689999999,413.31422339999995,,,,,,,,1,1,0.6608181999999942,None,,,,,,,,821,24,M,R,2026-02-18_11h10.44.787,VisualSearch_2526_3,,2025.2.4,2026-02-18 11h10.45.558293 +0100,
tilted.xlsx,The target is tilted.,117,15,7,1,0,1,1,1,1,1,1,1,1,1,1,1,1,11,12,117,space,7.2306352000000516,None,0,1,3.706657300000188,None,space,1.1831706000000395,None,0,1,1,0,,,,,1,7,15,4,414.2073725,,,,,,,,,,,,,,,,,,,,,414.19182320000004,414.2073725,414.6917678,414.69624279999994,414.71522559999994,418.4243526,,,,,418.42450859999985,418.4402938999999,418.6404714999999,418.6238074999999,414.71522559999994,,,,,,,,0,1,3.706657300000188,None,,,,,,,,821,24,M,R,2026-02-18_11h10.44.787,VisualSearch_2526_3,,2025.2.4,2026-02-18 11h10.45.558293 +0100,
tilted.xlsx,The target is tilted.,117,16,0,2,1,1,1,1,0,0,0,0,0,0,0,0,0,3,4,117,space,7.2306352000000516,None,1,1,1.3963522999999896,None,space,1.1831706000000395,None,0,1,1,0,,,,,2,0,16,2,418.6404714999999,,,,,,,,,,,,,,,,,,,,,418.6244320999999,418.6404714999999,419.1240889999999,419.12852840000005,419.1446994999999,420.55797170000005,,,,,420.5581609999999,420.5733937,420.77340449999997,420.7573267,419.1446994999999,,,,,,,,1,1,1.3963522999999896,None,,,,,,,,821,24,M,R,2026-02-18_11h10.44.787,VisualSearch_2526_3,,2025.2.4,2026-02-18 11h10.45.558293 +0100,
tilted.xlsx,The target is tilted.,117,17,1,2,0,1,1,1,1,1,1,1,1,1,1,1,1,11,12,117,space,7.2306352000000516,None,0,1,3.8999432000000525,None,space,1.1831706000000395,None,0,1,1,0,,,,,2,1,17,4,420.77340449999997,,,,,,,,,,,,,,,,,,,,,420.7580774999999,420.77340449999997,421.2565594,421.25935060000006,421.27546269999993,425.18993939999996,,,,,425.1901272,425.2059356,425.40606060000005,425.38974129999997,421.27546269999993,,,,,,,,0,1,3.8999432000000525,None,,,,,,,,821,24,M,R,2026-02-18_11h10.44.787,VisualSearch_2526_3,,2025.2.4,2026-02-18 11h10.45.558293 +0100,
tilted.xlsx,The target is tilted.,117,18,2,2,1,1,1,1,1,1,1,1,1,1,1,1,0,11,12,117,space,7.2306352000000516,None,1,1,2.6742693999999574,None,space,1.1831706000000395,None,0,1,1,0,,,,,2,2,18,0,425.40606060000005,,,,,,,,,,,,,,,,,,,,,425.39048490000005,425.40606060000005,425.8898701999999,425.8943050999999,425.9119347999999,428.5895631000001,,,,,428.5897387,428.6053916000001,428.8052903,428.7889347999999,425.9119347999999,,,,,,,,1,1,2.6742693999999574,None,,,,,,,,821,24,M,R,2026-02-18_11h10.44.787,VisualSearch_2526_3,,2025.2.4,2026-02-18 11h10.45.558293 +0100,
tilted.xlsx,The target is tilted.,117,19,3,2,0,1,1,1,0,0,0,0,0,0,0,0,1,3,4,117,space,7.2306352000000516,None,0,1,1.5479887999999846,None,space,1.1831706000000395,None,0,1,1,0,,,,,2,3,19,6,428.8052903,,,,,,,,,,,,,,,,,,,,,428.7894074000001,428.8052903,429.2887641,429.2915521,429.30485980000003,430.85619959999985,,,,,430.8563727999999,430.87170420000007,431.07187039999985,431.0555431999999,429.30485980000003,,,,,,,,0,1,1.5479887999999846,None,,,,,,,,821,24,M,R,2026-02-18_11h10.44.787,VisualSearch_2526_3,,2025.2.4,2026-02-18 11h10.45.558293 +0100,
tilted.xlsx,The target is tilted.,117,20,4,2,0,0,0,0,0,0,0,0,0,0,0,0,1,1,1,117,space,7.2306352000000516,None,0,1,0.4943850999998176,None,space,1.1831706000000395,None,0,1,1,0,,,,,2,4,20,7,431.07187039999985,,,,,,,,,,,,,,,,,,,,,431.0563227,431.07187039999985,431.55554259999985,431.56001560000004,431.57751970000004,432.0892008999999,,,,,432.089377,432.10491009999987,432.3049383,432.2889378,431.57751970000004,,,,,,,,0,1,0.4943850999998176,None,,,,,,,,821,24,M,R,2026-02-18_11h10.44.787,VisualSearch_2526_3,,2025.2.4,2026-02-18 11h10.45.558293 +0100,
tilted.xlsx,The target is tilted.,117,21,5,2,1,1,1,1,1,1,1,1,0,0,0,0,0,7,8,117,space,7.2306352000000516,None,1,1,2.5574468999998317,None,space,1.1831706000000395,None,0,1,1,0,,,,,2,5,21,1,432.3049383,,,,,,,,,,,,,,,,,,,,,432.28973399999995,432.3049383,432.7888639,432.7938910999999,432.81282669999996,435.37210400000004,,,,,435.3722788,435.387616,435.5877424999999,435.5715424,432.81282669999996,,,,,,,,1,1,2.5574468999998317,None,,,,,,,,821,24,M,R,2026-02-18_11h10.44.787,VisualSearch_2526_3,,2025.2.4,2026-02-18 11h10.45.558293 +0100,
tilted.xlsx,The target is tilted.,117,22,6,2,1,0,0,0,0,0,0,0,0,0,0,0,0,0,1,117,space,7.2306352000000516,None,1,1,0.5806170999999267,None,space,1.1831706000000395,None,0,1,1,0,,,,,2,6,22,3,435.5877424999999,,,,,,,,,,,,,,,,,,,,,435.5722959,435.5877424999999,436.07159060000004,436.07608419999997,436.09385139999995,436.6885508999999,,,,,436.6887242,436.70381999999995,436.90384040000004,436.88801569999987,436.09385139999995,,,,,,,,1,1,0.5806170999999267,None,,,,,,,,821,24,M,R,2026-02-18_11h10.44.787,VisualSearch_2526_3,,2025.2.4,2026-02-18 11h10.45.558293 +0100,
tilted.xlsx,The target is tilted.,117,23,7,2,0,1,1,1,1,1,1,1,0,0,0,0,1,7,8,117,space,7.2306352000000516,None,0,1,2.255743799999891,None,space,1.1831706000000395,None,0,1,1,0,,,,,2,7,23,5,436.90384040000004,,,,,,,,,,,,,,,,,,,,,436.88872459999993,436.90384040000004,437.38801250000006,437.39307039999994,437.41134850000003,439.67084479999994,,,,,439.67103769999994,439.68690790000005,439.8870457999999,439.87076249999996,437.41134850000003,,,,,,,,0,1,2.255743799999891,None,,,,,,,,821,24,M,R,2026-02-18_11h10.44.787,VisualSearch_2526_3,,2025.2.4,2026-02-18 11h10.45.558293 +0100,
tilted.xlsx,The target is tilted.,117,24,0,3,0,1,1,1,0,0,0,0,0,0,0,0,1,3,4,117,space,7.2306352000000516,None,0,1,1.0603767000000062,None,space,1.1831706000000395,None,0,1,1,0,,,,,3,0,24,6,439.8870457999999,,,,,,,,,,,,,,,,,,,,,439.8715050999999,439.8870457999999,440.3708105999999,440.3753320999999,440.39065759999994,441.4539379999999,,,,,441.45411839999997,441.46998439999993,441.6700919,441.65394479999986,440.39065759999994,,,,,,,,0,1,1.0603767000000062,None,,,,,,,,821,24,M,R,2026-02-18_11h10.44.787,VisualSearch_2526_3,,2025.2.4,2026-02-18 11h10.45.558293 +0100,
tilted.xlsx,The target is tilted.,117,25,1,3,0,0,0,0,0,0,0,0,0,0,0,0,1,1,1,117,space,7.2306352000000516,None,0,1,0.5016224000000875,None,space,1.1831706000000395,None,0,1,1,0,,,,,3,1,25,7,441.6700919,,,,,,,,,,,,,,,,,,,,,441.6547358,441.6700919,442.1540169,442.15888530000007,442.1771117999999,442.6878557,,,,,442.6881217,442.7031056999999,442.9025038,442.88664849999986,442.1771117999999,,,,,,,,0,1,0.5016224000000875,None,,,,,,,,821,24,M,R,2026-02-18_11h10.44.787,VisualSearch_2526_3,,2025.2.4,2026-02-18 11h10.45.558293 +0100,
tilted.xlsx,The target is tilted.,117,26,2,3,0,1,1,1,1,1,1,1,1,1,1,1,1,11,12,117,space,7.2306352000000516,None,0,1,2.996138399999836,None,space,1.1831706000000395,None,0,1,1,0,,,,,3,2,26,4,442.9025038,,,,,,,,,,,,,,,,,,,,,442.887375,442.9025038,443.3867516,443.3918785999999,443.41182920000006,446.42035940000005,,,,,446.4205477999999,446.4357729000001,446.6357665999999,446.6195195999999,443.41182920000006,,,,,,,,0,1,2.996138399999836,None,,,,,,,,821,24,M,R,2026-02-18_11h10.44.787,VisualSearch_2526_3,,2025.2.4,2026-02-18 11h10.45.558293 +0100,
tilted.xlsx,The target is tilted.,117,27,3,3,1,0,0,0,0,0,0,0,0,0,0,0,0,0,1,117,space,7.2306352000000516,None,1,1,0.7671811999998681,None,space,1.1831706000000395,None,0,1,1,0,,,,,3,3,27,3,446.6357665999999,,,,,,,,,,,,,,,,,,,,,446.6202834999999,446.6357665999999,447.1196278,447.12406469999996,447.1403771,447.920024,,,,,447.9201957,447.9353277,448.13553909999996,448.1196227999999,447.1403771,,,,,,,,1,1,0.7671811999998681,None,,,,,,,,821,24,M,R,2026-02-18_11h10.44.787,VisualSearch_2526_3,,2025.2.4,2026-02-18 11h10.45.558293 +0100,
tilted.xlsx,The target is tilted.,117,28,4,3,1,1,1,1,0,0,0,0,0,0,0,0,0,3,4,117,space,7.2306352000000516,None,1,1,1.0168719999999212,None,space,1.1831706000000395,None,0,1,1,0,,,,,3,4,28,2,448.13553909999996,,,,,,,,,,,,,,,,,,,,,448.1204327999999,448.13553909999996,448.61958989999994,448.6247579000001,448.6435036999999,449.6695244,,,,,449.66971620000004,449.68535380000003,449.8849938999999,449.8692331,448.6435036999999,,,,,,,,1,1,1.0168719999999212,None,,,,,,,,821,24,M,R,2026-02-18_11h10.44.787,VisualSearch_2526_3,,2025.2.4,2026-02-18 11h10.45.558293 +0100,
tilted.xlsx,The target is tilted.,117,29,5,3,0,1,1,1,1,1,1,1,0,0,0,0,1,7,8,117,space,7.2306352000000516,None,0,1,2.2108358999998927,None,space,1.1831706000000395,None,0,1,1,0,,,,,3,5,29,5,449.8849938999999,,,,,,,,,,,,,,,,,,,,,449.8699377999999,449.8849938999999,450.36928940000007,450.37441250000006,450.3927429999999,452.61928149999994,,,,,452.61945790000004,452.63480319999985,452.8347676000001,452.81868310000004,450.3927429999999,,,,,,,,0,1,2.2108358999998927,None,,,,,,,,821,24,M,R,2026-02-18_11h10.44.787,VisualSearch_2526_3,,2025.2.4,2026-02-18 11h10.45.558293 +0100,
tilted.xlsx,The target is tilted.,117,30,6,3,1,1,1,1,1,1,1,1,1,1,1,1,0,11,12,117,space,7.2306352000000516,None,1,1,0.7063287999999375,None,space,1.1831706000000395,None,0,1,1,0,,,,,3,6,30,0,452.8347676000001,,,,,,,,,,,,,,,,,,,,,452.81943,452.8347676000001,453.3187071,453.3231536999999,453.34230750000006,454.05202299999996,,,,,454.0521988999999,454.06794279999986,454.26762340000005,454.25168699999995,453.34230750000006,,,,,,,,1,1,0.7063287999999375,None,,,,,,,,821,24,M,R,2026-02-18_11h10.44.787,VisualSearch_2526_3,,2025.2.4,2026-02-18 11h10.45.558293 +0100,
tilted.xlsx,The target is tilted.,117,31,7,3,1,1,1,1,1,1,1,1,0,0,0,0,0,7,8,117,space,7.2306352000000516,None,1,1,1.4009378999999171,None,space,1.1831706000000395,None,0,1,1,0,,,,,3,7,31,1,454.26762340000005,,,,,,,,,,,,,,,,,,,,,454.25241819999997,454.26762340000005,454.75181969999994,454.75682570000004,454.77531739999995,456.1851159,,,,,456.1853082,456.2010117,456.4004981999999,456.38498260000006,454.77531739999995,,,,,,,,1,1,1.4009378999999171,None,,,,,,,,821,24,M,R,2026-02-18_11h10.44.787,VisualSearch_2526_3,,2025.2.4,2026-02-18 11h10.45.558293 +0100,
tilted.xlsx,The target is tilted.,117,32,0,4,0,1,1,1,1,1,1,1,1,1,1,1,1,11,12,117,space,7.2306352000000516,None,0,1,3.2786115000001246,None,space,1.1831706000000395,None,0,1,1,0,,,,,4,0,32,4,456.4004981999999,,,,,,,,,,,,,,,,,,,,,456.38575560000004,456.4004981999999,456.8844701999999,456.88934760000006,456.90745889999994,460.20103889999996,,,,,460.20118350000007,460.21686469999986,460.4169775999999,460.40077129999986,456.90745889999994,,,,,,,,0,1,3.2786115000001246,None,,,,,,,,821,24,M,R,2026-02-18_11h10.44.787,VisualSearch_2526_3,,2025.2.4,2026-02-18 11h10.45.558293 +0100,
tilted.xlsx,The target is tilted.,117,33,1,4,1,0,0,0,0,0,0,0,0,0,0,0,0,0,1,117,space,7.2306352000000516,None,1,1,0.6677622999998221,None,space,1.1831706000000395,None,0,1,1,0,,,,,4,1,33,3,460.4169775999999,,,,,,,,,,,,,,,,,,,,,460.4015181,460.4169775999999,460.9003143,460.90429159999985,460.9191665999999,461.60102789999996,,,,,461.6012002,461.61661290000006,461.8164254999999,461.80067229999986,460.9191665999999,,,,,,,,1,1,0.6677622999998221,None,,,,,,,,821,24,M,R,2026-02-18_11h10.44.787,VisualSearch_2526_3,,2025.2.4,2026-02-18 11h10.45.558293 +0100,
tilted.xlsx,The target is tilted.,117,34,2,4,1,1,1,1,1,1,1,1,0,0,0,0,0,7,8,117,space,7.2306352000000516,None,1,1,1.4527914000000237,None,space,1.1831706000000395,None,0,1,1,0,,,,,4,2,34,1,461.8164254999999,,,,,,,,,,,,,,,,,,,,,461.8014042,461.8164254999999,462.3006407999999,462.30502709999996,462.31645589999994,463.7840836999999,,,,,463.7842578,463.7996656,463.9997450999999,463.9835621,462.31645589999994,,,,,,,,1,1,1.4527914000000237,None,,,,,,,,821,24,M,R,2026-02-18_11h10.44.787,VisualSearch_2526_3,,2025.2.4,2026-02-18 11h10.45.558293 +0100,
tilted.xlsx,The target is tilted.,117,35,3,4,1,1,1,1,0,0,0,0,0,0,0,0,0,3,4,117,space,7.2306352000000516,None,1,1,1.102218399999856,None,space,1.1831706000000395,None,0,1,1,0,,,,,4,3,35,2,463.9997450999999,,,,,,,,,,,,,,,,,,,,,463.9842707999999,463.9997450999999,464.48360120000007,464.4884981,464.5064442999999,465.6170339,,,,,465.61720549999995,465.6326552999999,465.8323932999999,465.81636619999995,464.5064442999999,,,,,,,,1,1,1.102218399999856,None,,,,,,,,821,24,M,R,2026-02-18_11h10.44.787,VisualSearch_2526_3,,2025.2.4,2026-02-18 11h10.45.558293 +0100,
tilted.xlsx,The target is tilted.,117,36,4,4,1,1,1,1,1,1,1,1,1,1,1,1,0,11,12,117,space,7.2306352000000516,None,0,0,2.7763058000000456,None,space,1.1831706000000395,None,0,1,1,0,,,,,4,4,36,0,465.8323932999999,,,,,,,,,,,,,,,,,,,,,465.8171004000001,465.8323932999999,466.31637649999993,466.3204128,466.3325717,469.11643979999985,,,,,469.11661019999997,469.1320496999999,469.33212779999985,469.31596179999997,466.3325717,,,,,,,,0,0,2.7763058000000456,None,,,,,,,,821,24,M,R,2026-02-18_11h10.44.787,VisualSearch_2526_3,,2025.2.4,2026-02-18 11h10.45.558293 +0100,
