file_name,block_instructions,target_example,thisN,thisTrialN,thisRepN,target_presence,opacity_1,opacity_2,opacity_3,opacity_4,opacity_5,opacity_6,opacity_7,opacity_8,opacity_9,opacity_10,opacity_11,opacity_12,n_distract,n_items,target_ori,key_resp_4.keys,key_resp_4.rt,key_resp_4.duration,key_resp.keys,key_resp.corr,key_resp.rt,key_resp.duration,key_resp_5.keys,key_resp_5.rt,key_resp_5.duration,blocks.thisRepN,blocks.thisTrialN,blocks.thisN,blocks.thisIndex,practice_trials.thisRepN,practice_trials.thisTrialN,practice_trials.thisN,practice_trials.thisIndex,trials.thisRepN,trials.thisTrialN,trials.thisN,trials.thisIndex,thisRow.t,notes,Welcome.started,WelcomeText.started,key_resp_2.started,Welcome.stopped,key_resp_2.keys,key_resp_2.rt,key_resp_2.duration,InformedConsent.started,text_4.started,InformedConsent.stopped,key_resp_6.keys,key_resp_6.rt,key_resp_6.duration,key_resp_4.started,example_target.started,text_3.started,blocks.key_resp_4.keys,blocks.key_resp_4.rt,blocks.key_resp_4.duration,FixCross.started,fixCross.started,FixCross.stopped,Stimulus.started,key_resp.started,Stimulus.stopped,practice_trials.key_resp.keys,practice_trials.key_resp.corr,practice_trials.key_resp.rt,practice_trials.key_resp.duration,BlankScreen.started,text.started,text.stopped,BlankScreen.stopped,fixCross.stopped,ExperimentStart.started,text_2.started,key_resp_5.started,ExperimentStart.stopped,blocks.key_resp_5.keys,blocks.key_resp_5.rt,blocks.key_resp_5.duration,trials.key_resp.keys,trials.key_resp.corr,trials.key_resp.rt,trials.key_resp.duration,Thanks.started,ThankYou.started,key_resp_3.started,Thanks.stopped,key_resp_3.keys,key_resp_3.rt,key_resp_3.duration,participant,leeftijd,gender,links/rechtshandig,date,expName,expVersion,psychopyVersion,expStart,
,,,,,,,,,,,,,,,,,,,,,,,,,,,,,,,,,,,,,,,,,,,,,,0.036176999999952386,0.0543416000000434,0.0543416000000434,111.29365009999992,space,111.21220449999987,None,,,,,,,,,,,,,,,,,,,,,,,,,,,,,,,,,,,,,,,,,,,,,,822,22,M,R,2026-02-18_11h27.00.693,VisualSearch_2526_3,,2025.2.4,2026-02-18 11h27.01.045175 +0100,
,,,,,,,,,,,,,,,,,,,,,,,,,,,,,,,,,,,,,,,,,,,,,,,,,,,,,111.29370100000006,111.30022409999992,133.79393729999993,y,22.491930799999864,None,,,,,,,,,,,,,,,,,,,,,,,,,,,,,,,,,,,,,,,,822,22,M,R,2026-02-18_11h27.00.693,VisualSearch_2526_3,,2025.2.4,2026-02-18 11h27.01.045175 +0100,
tilted.xlsx,The target is tilted.,117,0,0,0,0,0,0,0,0,0,0,0,0,0,0,0,1,1,1,117,space,11.741712500000176,None,1,0,0.7744433000000299,None,,,,0,0,0,0,0,0,0,7,,,,,145.62542200000007,,,,,,,,,,,,,,,133.84494419999987,133.84494419999987,133.84494419999987,space,11.741712500000176,None,145.6193429,145.62542200000007,146.1071035,146.11185669999986,146.12325209999995,146.90784359999998,1,0,0.7744433000000299,None,146.90801850000003,146.92342140000005,147.12320039999986,147.10698060000004,,,,,,,,,,,,,,,,,,,,822,22,M,R,2026-02-18_11h27.00.693,VisualSearch_2526_3,,2025.2.4,2026-02-18 11h27.01.045175 +0100,
tilted.xlsx,The target is tilted.,117,1,1,0,1,1,1,1,1,1,1,1,1,1,1,1,0,11,12,117,space,11.741712500000176,None,1,1,4.331258000000162,None,,,,0,0,0,0,0,1,1,0,,,,,147.12320039999986,,,,,,,,,,,,,,,,,,,,,147.10749370000008,147.12320039999986,147.60679729999993,147.61123829999997,147.6249817999999,151.97280079999996,1,1,4.331258000000162,None,151.97292360000006,151.98910920000003,152.18913440000006,152.1730293999999,147.6249817999999,,,,,,,,,,,,,,,,,,,822,22,M,R,2026-02-18_11h27.00.693,VisualSearch_2526_3,,2025.2.4,2026-02-18 11h27.01.045175 +0100,
tilted.xlsx,The target is tilted.,117,2,2,0,1,1,1,1,1,1,1,1,0,0,0,0,0,7,8,117,space,11.741712500000176,None,1,1,1.806415700000116,None,,,,0,0,0,0,0,2,2,1,,,,,152.18913440000006,,,,,,,,,,,,,,,,,,,,,152.1737086999999,152.18913440000006,152.67271069999993,152.677408,152.69497890000002,154.5063350999999,1,1,1.806415700000116,None,154.5065110999999,154.5214693999999,154.72197979999987,154.70576759999994,152.69497890000002,,,,,,,,,,,,,,,,,,,822,22,M,R,2026-02-18_11h27.00.693,VisualSearch_2526_3,,2025.2.4,2026-02-18 11h27.01.045175 +0100,
tilted.xlsx,The target is tilted.,117,3,3,0,1,0,0,0,0,0,0,0,0,0,0,0,0,0,1,117,space,11.741712500000176,None,1,1,1.6802127000000837,None,,,,0,0,0,0,0,3,3,3,,,,,154.72197979999987,,,,,,,,,,,,,,,,,,,,,154.7062123999999,154.72197979999987,155.20578120000005,155.21092929999986,155.23006379999993,156.92279310000004,1,1,1.6802127000000837,None,156.92303130000005,156.93790259999992,157.13842739999996,157.12230299999987,155.23006379999993,,,,,,,,,,,,,,,,,,,822,22,M,R,2026-02-18_11h27.00.693,VisualSearch_2526_3,,2025.2.4,2026-02-18 11h27.01.045175 +0100,
tilted.xlsx,The target is tilted.,117,4,4,0,0,1,1,1,0,0,0,0,0,0,0,0,1,3,4,117,space,11.741712500000176,None,0,1,1.6396306999999979,None,,,,0,0,0,0,0,4,4,6,,,,,157.13842739999996,,,,,,,,,,,,,,,,,,,,,157.12295389999986,157.13842739999996,157.62236430000007,157.62735739999994,157.64531710000006,159.28877160000002,0,1,1.6396306999999979,None,159.2889467,159.30403090000004,159.50463190000005,159.4883749999999,157.64531710000006,,,,,,,,,,,,,,,,,,,822,22,M,R,2026-02-18_11h27.00.693,VisualSearch_2526_3,,2025.2.4,2026-02-18 11h27.01.045175 +0100,
tilted.xlsx,The target is tilted.,117,5,5,0,0,1,1,1,1,1,1,1,0,0,0,0,1,7,8,117,space,11.741712500000176,None,1,0,2.782710100000031,None,,,,0,0,0,0,0,5,5,5,,,,,159.50463190000005,,,,,,,,,,,,,,,,,,,,,159.48904390000007,159.50463190000005,159.98857550000002,159.99322549999988,160.01054039999985,162.80430109999998,1,0,2.782710100000031,None,162.80439690000003,162.82012039999995,163.02075509999986,163.00453960000004,160.01054039999985,,,,,,,,,,,,,,,,,,,822,22,M,R,2026-02-18_11h27.00.693,VisualSearch_2526_3,,2025.2.4,2026-02-18 11h27.01.045175 +0100,
tilted.xlsx,The target is tilted.,117,6,6,0,0,1,1,1,1,1,1,1,1,1,1,1,1,11,12,117,space,11.741712500000176,None,1,0,2.3379221000000143,None,,,,0,0,0,0,0,6,6,4,,,,,163.02075509999986,,,,,,,,,,,,,,,,,,,,,163.00522950000004,163.02075509999986,163.50461810000002,163.50907510000002,163.52541989999986,165.87118409999994,1,0,2.3379221000000143,None,165.8713568999999,165.88636470000006,166.08698800000002,166.0703951999999,163.52541989999986,,,,,,,,,,,,,,,,,,,822,22,M,R,2026-02-18_11h27.00.693,VisualSearch_2526_3,,2025.2.4,2026-02-18 11h27.01.045175 +0100,
tilted.xlsx,The target is tilted.,117,7,7,0,1,1,1,1,0,0,0,0,0,0,0,0,0,3,4,117,space,11.741712500000176,None,1,1,1.2385423000000628,None,,,,0,0,0,0,0,7,7,2,,,,,166.08698800000002,,,,,,,,,,,,,,,,,,,,,166.07097699999986,166.08698800000002,166.56995099999995,166.5728320999999,166.58698959999992,167.83716320000008,1,1,1.2385423000000628,None,167.83731540000008,167.85264269999993,168.05335279999986,168.03726089999986,166.58698959999992,,,,,,,,,,,,,,,,,,,822,22,M,R,2026-02-18_11h27.00.693,VisualSearch_2526_3,,2025.2.4,2026-02-18 11h27.01.045175 +0100,
tilted.xlsx,The target is tilted.,117,0,0,0,1,1,1,1,0,0,0,0,0,0,0,0,0,3,4,117,space,11.741712500000176,None,1,1,1.127806899999996,None,space,4.626295600000049,None,0,0,0,0,,,,,0,0,0,2,172.7271326,,,,,,,,,,,,,,,,,,,,,172.72298180000007,172.7271326,173.2022875,173.20714739999994,173.21895560000007,174.35362149999992,,,,,174.35385939999992,174.3683486,174.56897479999998,174.55290089999994,,168.0440498999999,168.05335279999986,168.05335279999986,172.6871099,space,4.626295600000049,None,1,1,1.127806899999996,None,,,,,,,,822,22,M,R,2026-02-18_11h27.00.693,VisualSearch_2526_3,,2025.2.4,2026-02-18 11h27.01.045175 +0100,
tilted.xlsx,The target is tilted.,117,1,1,0,0,1,1,1,0,0,0,0,0,0,0,0,1,3,4,117,space,11.741712500000176,None,0,1,1.7907330000000456,None,space,4.626295600000049,None,0,0,0,0,,,,,0,1,1,6,174.56897479999998,,,,,,,,,,,,,,,,,,,,,174.55372020000004,174.56897479999998,175.052776,175.05821659999992,175.0786604,176.88567319999993,,,,,176.88589260000003,176.90124500000002,177.10181790000001,177.08547099999987,175.0786604,,,,,,,,0,1,1.7907330000000456,None,,,,,,,,822,22,M,R,2026-02-18_11h27.00.693,VisualSearch_2526_3,,2025.2.4,2026-02-18 11h27.01.045175 +0100,
tilted.xlsx,The target is tilted.,117,2,2,0,1,1,1,1,1,1,1,1,0,0,0,0,0,7,8,117,space,11.741712500000176,None,1,1,1.7932482000001073,None,space,4.626295600000049,None,0,0,0,0,,,,,0,2,2,1,177.10181790000001,,,,,,,,,,,,,,,,,,,,,177.08616069999994,177.10181790000001,177.5856157999999,177.5903019,177.60802549999994,179.4023428999999,,,,,179.40252110000006,179.41743169999995,179.61794439999994,179.60190379999995,177.60802549999994,,,,,,,,1,1,1.7932482000001073,None,,,,,,,,822,22,M,R,2026-02-18_11h27.00.693,VisualSearch_2526_3,,2025.2.4,2026-02-18 11h27.01.045175 +0100,
tilted.xlsx,The target is tilted.,117,3,3,0,0,1,1,1,1,1,1,1,1,1,1,1,1,11,12,117,space,11.741712500000176,None,1,0,2.776577399999951,None,space,4.626295600000049,None,0,0,0,0,,,,,0,3,3,4,179.61794439999994,,,,,,,,,,,,,,,,,,,,,179.60266669999987,179.61794439999994,180.10173899999995,180.10701459999996,180.12527449999993,182.91752819999988,,,,,182.91765439999995,182.9333870999999,,183.1178121999999,180.12527449999993,,,,,,,,1,0,2.776577399999951,None,,,,,,,,822,22,M,R,2026-02-18_11h27.00.693,VisualSearch_2526_3,,2025.2.4,2026-02-18 11h27.01.045175 +0100,
tilted.xlsx,The target is tilted.,117,4,4,0,0,0,0,0,0,0,0,0,0,0,0,0,1,1,1,117,space,11.741712500000176,None,0,1,1.001643999999942,None,space,4.626295600000049,None,0,0,0,0,,,,,0,4,4,7,183.1342141,,,,,,,,,,,,,,,,,,,,,183.11858600000005,183.1342141,183.61796400000003,183.62264529999993,183.6400372999999,184.65154800000005,,,,,184.65172889999985,184.66645210000001,184.86727629999996,184.85091769999985,183.6400372999999,,,,,,,,0,1,1.001643999999942,None,,,,,,,,822,22,M,R,2026-02-18_11h27.00.693,VisualSearch_2526_3,,2025.2.4,2026-02-18 11h27.01.045175 +0100,
tilted.xlsx,The target is tilted.,117,5,5,0,0,1,1,1,1,1,1,1,0,0,0,0,1,7,8,117,space,11.741712500000176,None,1,0,1.4351718000000346,None,space,4.626295600000049,None,0,0,0,0,,,,,0,5,5,5,184.86727629999996,,,,,,,,,,,,,,,,,,,,,184.85174349999988,184.86727629999996,185.35099709999986,185.35593419999987,185.3672128999999,186.81721820000007,,,,,186.8173405,186.83284359999993,187.0334479999999,187.01728660000003,185.3672128999999,,,,,,,,1,0,1.4351718000000346,None,,,,,,,,822,22,M,R,2026-02-18_11h27.00.693,VisualSearch_2526_3,,2025.2.4,2026-02-18 11h27.01.045175 +0100,
tilted.xlsx,The target is tilted.,117,6,6,0,1,1,1,1,1,1,1,1,1,1,1,1,0,11,12,117,space,11.741712500000176,None,1,1,2.4771628000000874,None,space,4.626295600000049,None,0,0,0,0,,,,,0,6,6,0,187.0334479999999,,,,,,,,,,,,,,,,,,,,,187.0180507,187.0334479999999,187.51731610000002,187.52198529999987,187.53972350000004,190.03310149999993,,,,,190.0332378999999,190.04898839999987,190.24945909999997,190.2333532,187.53972350000004,,,,,,,,1,1,2.4771628000000874,None,,,,,,,,822,22,M,R,2026-02-18_11h27.00.693,VisualSearch_2526_3,,2025.2.4,2026-02-18 11h27.01.045175 +0100,
tilted.xlsx,The target is tilted.,117,7,7,0,1,0,0,0,0,0,0,0,0,0,0,0,0,0,1,117,space,11.741712500000176,None,1,1,1.1033085999999912,None,space,4.626295600000049,None,0,0,0,0,,,,,0,7,7,3,190.24945909999997,,,,,,,,,,,,,,,,,,,,,190.2340830999999,190.24945909999997,190.73356620000004,190.73858389999987,190.75667150000004,191.86715679999998,,,,,191.8673569,191.88218830000005,192.08258699999988,192.06652409999992,190.75667150000004,,,,,,,,1,1,1.1033085999999912,None,,,,,,,,822,22,M,R,2026-02-18_11h27.00.693,VisualSearch_2526_3,,2025.2.4,2026-02-18 11h27.01.045175 +0100,
tilted.xlsx,The target is tilted.,117,8,0,1,1,1,1,1,0,0,0,0,0,0,0,0,0,3,4,117,space,11.741712500000176,None,1,1,0.7953228000001218,None,space,4.626295600000049,None,0,0,0,0,,,,,1,0,8,2,192.08258699999988,,,,,,,,,,,,,,,,,,,,,192.06728440000006,192.08258699999988,192.56633850000003,192.57095400000003,192.58838760000003,193.3994542999999,,,,,193.3997187,193.41506619999996,193.6154208999999,193.59982539999987,192.58838760000003,,,,,,,,1,1,0.7953228000001218,None,,,,,,,,822,22,M,R,2026-02-18_11h27.00.693,VisualSearch_2526_3,,2025.2.4,2026-02-18 11h27.01.045175 +0100,
tilted.xlsx,The target is tilted.,117,9,1,1,1,1,1,1,1,1,1,1,0,0,0,0,0,7,8,117,space,11.741712500000176,None,1,1,1.5492662000001474,None,space,4.626295600000049,None,0,0,0,0,,,,,1,1,9,1,193.6154208999999,,,,,,,,,,,,,,,,,,,,,193.60056740000005,193.6154208999999,194.09973779999996,194.1046073,194.11563920000003,195.66649570000004,,,,,195.66668030000005,195.6813706999999,195.88202539999997,195.86599230000002,194.11563920000003,,,,,,,,1,1,1.5492662000001474,None,,,,,,,,822,22,M,R,2026-02-18_11h27.00.693,VisualSearch_2526_3,,2025.2.4,2026-02-18 11h27.01.045175 +0100,
tilted.xlsx,The target is tilted.,117,10,2,1,0,1,1,1,1,1,1,1,1,1,1,1,1,11,12,117,space,11.741712500000176,None,0,1,5.667300100000148,None,space,4.626295600000049,None,0,0,0,0,,,,,1,2,10,4,195.88202539999997,,,,,,,,,,,,,,,,,,,,,195.86671,195.88202539999997,196.36608350000006,196.3714376999999,196.3896537999999,202.06534390000002,,,,,202.06552349999993,202.08031110000002,202.2809875999999,202.26474129999997,196.3896537999999,,,,,,,,0,1,5.667300100000148,None,,,,,,,,822,22,M,R,2026-02-18_11h27.00.693,VisualSearch_2526_3,,2025.2.4,2026-02-18 11h27.01.045175 +0100,
tilted.xlsx,The target is tilted.,117,11,3,1,0,1,1,1,1,1,1,1,0,0,0,0,1,7,8,117,space,11.741712500000176,None,1,0,3.5778199999999742,None,space,4.626295600000049,None,0,0,0,0,,,,,1,3,11,5,202.2809875999999,,,,,,,,,,,,,,,,,,,,,202.26549079999995,202.2809875999999,202.76457549999986,202.76930219999986,202.78730799999994,206.380582,,,,,206.38074899999992,206.39627789999986,206.5969834,206.5806731,202.78730799999994,,,,,,,,1,0,3.5778199999999742,None,,,,,,,,822,22,M,R,2026-02-18_11h27.00.693,VisualSearch_2526_3,,2025.2.4,2026-02-18 11h27.01.045175 +0100,
tilted.xlsx,The target is tilted.,117,12,4,1,1,1,1,1,1,1,1,1,1,1,1,1,0,11,12,117,space,11.741712500000176,None,1,1,2.373293399999966,None,space,4.626295600000049,None,0,0,0,0,,,,,1,4,12,0,206.5969834,,,,,,,,,,,,,,,,,,,,,206.58143769999992,206.5969834,207.08058299999993,207.08534639999993,207.10225779999996,209.4806994999999,,,,,209.4808797999999,209.49582329999998,209.69637799999987,209.68015179999998,207.10225779999996,,,,,,,,1,1,2.373293399999966,None,,,,,,,,822,22,M,R,2026-02-18_11h27.00.693,VisualSearch_2526_3,,2025.2.4,2026-02-18 11h27.01.045175 +0100,
tilted.xlsx,The target is tilted.,117,13,5,1,0,1,1,1,0,0,0,0,0,0,0,0,1,3,4,117,space,11.741712500000176,None,0,1,1.8973617999999988,None,space,4.626295600000049,None,0,0,0,0,,,,,1,5,13,6,209.69637799999987,,,,,,,,,,,,,,,,,,,,,209.68088080000007,209.69637799999987,210.17992609999988,210.18471039999986,210.20318599999996,212.11332629999993,,,,,212.1135036999999,212.12881679999987,212.32930450000003,212.31291970000007,210.20318599999996,,,,,,,,0,1,1.8973617999999988,None,,,,,,,,822,22,M,R,2026-02-18_11h27.00.693,VisualSearch_2526_3,,2025.2.4,2026-02-18 11h27.01.045175 +0100,
tilted.xlsx,The target is tilted.,117,14,6,1,1,0,0,0,0,0,0,0,0,0,0,0,0,0,1,117,space,11.741712500000176,None,1,1,0.9332134999999653,None,space,4.626295600000049,None,0,0,0,0,,,,,1,6,14,3,212.32930450000003,,,,,,,,,,,,,,,,,,,,,212.31357579999985,212.32930450000003,212.81306330000007,212.81777669999997,212.82909769999992,213.77986729999998,,,,,213.78002939999988,213.79508639999995,213.99576939999997,213.9795357999999,212.82909769999992,,,,,,,,1,1,0.9332134999999653,None,,,,,,,,822,22,M,R,2026-02-18_11h27.00.693,VisualSearch_2526_3,,2025.2.4,2026-02-18 11h27.01.045175 +0100,
tilted.xlsx,The target is tilted.,117,15,7,1,0,0,0,0,0,0,0,0,0,0,0,0,1,1,1,117,space,11.741712500000176,None,0,1,0.7759541000000354,None,space,4.626295600000049,None,0,0,0,0,,,,,1,7,15,7,213.99576939999997,,,,,,,,,,,,,,,,,,,,,213.98037350000004,213.99576939999997,214.47952710000004,214.48410560000002,214.5020654,215.27991429999997,,,,,215.28011070000002,215.29498669999998,215.49536020000005,215.47882839999988,214.5020654,,,,,,,,0,1,0.7759541000000354,None,,,,,,,,822,22,M,R,2026-02-18_11h27.00.693,VisualSearch_2526_3,,2025.2.4,2026-02-18 11h27.01.045175 +0100,
tilted.xlsx,The target is tilted.,117,16,0,2,0,0,0,0,0,0,0,0,0,0,0,0,1,1,1,117,space,11.741712500000176,None,0,1,0.8025274999999965,None,space,4.626295600000049,None,0,0,0,0,,,,,2,0,16,7,215.49536020000005,,,,,,,,,,,,,,,,,,,,,215.47927609999988,215.49536020000005,215.9790000999999,215.98391519999996,216.00054039999986,216.81291140000008,,,,,216.81308760000002,216.82803489999992,217.02821560000007,217.0123383,216.00054039999986,,,,,,,,0,1,0.8025274999999965,None,,,,,,,,822,22,M,R,2026-02-18_11h27.00.693,VisualSearch_2526_3,,2025.2.4,2026-02-18 11h27.01.045175 +0100,
tilted.xlsx,The target is tilted.,117,17,1,2,0,1,1,1,0,0,0,0,0,0,0,0,1,3,4,117,space,11.741712500000176,None,0,1,1.4441282999998748,None,space,4.626295600000049,None,0,0,0,0,,,,,2,1,17,6,217.02821560000007,,,,,,,,,,,,,,,,,,,,,217.01310209999997,217.02821560000007,217.51238489999992,217.51694989999987,217.53389489999995,218.97922199999994,,,,,218.97941969999988,218.99431529999993,219.19486970000003,219.17883949999987,217.53389489999995,,,,,,,,0,1,1.4441282999998748,None,,,,,,,,822,22,M,R,2026-02-18_11h27.00.693,VisualSearch_2526_3,,2025.2.4,2026-02-18 11h27.01.045175 +0100,
tilted.xlsx,The target is tilted.,117,18,2,2,0,1,1,1,1,1,1,1,0,0,0,0,1,7,8,117,space,11.741712500000176,None,1,0,2.4954223000002003,None,space,4.626295600000049,None,0,0,0,0,,,,,2,2,18,5,219.19486970000003,,,,,,,,,,,,,,,,,,,,,219.17961960000002,219.19486970000003,219.67890020000004,219.6840236999999,219.70203689999994,222.2116653999999,,,,,222.2118157,222.22706059999996,222.42759490000003,222.41131459999997,219.70203689999994,,,,,,,,1,0,2.4954223000002003,None,,,,,,,,822,22,M,R,2026-02-18_11h27.00.693,VisualSearch_2526_3,,2025.2.4,2026-02-18 11h27.01.045175 +0100,
tilted.xlsx,The target is tilted.,117,19,3,2,0,1,1,1,1,1,1,1,1,1,1,1,1,11,12,117,space,11.741712500000176,None,1,0,3.092997799999921,None,space,4.626295600000049,None,0,0,0,0,,,,,2,3,19,4,222.42759490000003,,,,,,,,,,,,,,,,,,,,,222.4120519999999,222.42759490000003,222.91158689999997,222.9161469999999,222.92750619999993,226.0280568999999,,,,,226.0282388999999,226.04313520000005,226.24352010000007,226.22668320000002,222.92750619999993,,,,,,,,1,0,3.092997799999921,None,,,,,,,,822,22,M,R,2026-02-18_11h27.00.693,VisualSearch_2526_3,,2025.2.4,2026-02-18 11h27.01.045175 +0100,
tilted.xlsx,The target is tilted.,117,20,4,2,1,1,1,1,1,1,1,1,1,1,1,1,0,11,12,117,space,11.741712500000176,None,1,1,1.8125634999998965,None,space,4.626295600000049,None,0,0,0,0,,,,,2,4,20,0,226.24352010000007,,,,,,,,,,,,,,,,,,,,,226.22716539999988,226.24352010000007,226.72746959999995,226.73215359999995,226.74994960000004,228.5769264999999,,,,,228.57709479999994,228.5926175999998,228.79331999999977,228.77718259999983,226.74994960000004,,,,,,,,1,1,1.8125634999998965,None,,,,,,,,822,22,M,R,2026-02-18_11h27.00.693,VisualSearch_2526_3,,2025.2.4,2026-02-18 11h27.01.045175 +0100,
tilted.xlsx,The target is tilted.,117,21,5,2,1,0,0,0,0,0,0,0,0,0,0,0,0,0,1,117,space,11.741712500000176,None,1,1,0.7238771000002089,None,space,4.626295600000049,None,0,0,0,0,,,,,2,5,21,3,228.79331999999977,,,,,,,,,,,,,,,,,,,,,228.77790989999994,228.79331999999977,229.27724669999998,229.28239329999997,229.30025139999998,230.02757530000008,,,,,230.02777530000003,230.04251750000003,230.24292220000007,230.2267969999998,229.30025139999998,,,,,,,,1,1,0.7238771000002089,None,,,,,,,,822,22,M,R,2026-02-18_11h27.00.693,VisualSearch_2526_3,,2025.2.4,2026-02-18 11h27.01.045175 +0100,
tilted.xlsx,The target is tilted.,117,22,6,2,1,1,1,1,1,1,1,1,0,0,0,0,0,7,8,117,space,11.741712500000176,None,1,1,3.024225099999967,None,space,4.626295600000049,None,0,0,0,0,,,,,2,6,22,1,230.24292220000007,,,,,,,,,,,,,,,,,,,,,230.22754579999992,230.24292220000007,230.72650759999988,230.73109539999996,230.74924359999977,233.7768345999998,,,,,233.77701579999984,233.7918662000002,233.9923792999998,233.97622219999994,230.74924359999977,,,,,,,,1,1,3.024225099999967,None,,,,,,,,822,22,M,R,2026-02-18_11h27.00.693,VisualSearch_2526_3,,2025.2.4,2026-02-18 11h27.01.045175 +0100,
tilted.xlsx,The target is tilted.,117,23,7,2,1,1,1,1,0,0,0,0,0,0,0,0,0,3,4,117,space,11.741712500000176,None,1,1,1.2901174000003266,None,space,4.626295600000049,None,0,0,0,0,,,,,2,7,23,2,233.9923792999998,,,,,,,,,,,,,,,,,,,,,233.97689850000006,233.9923792999998,234.4759635999999,234.47982420000017,234.49216650000017,235.79315689999976,,,,,235.7933478,235.8080344,236.0089155999999,235.99257420000004,234.49216650000017,,,,,,,,1,1,1.2901174000003266,None,,,,,,,,822,22,M,R,2026-02-18_11h27.00.693,VisualSearch_2526_3,,2025.2.4,2026-02-18 11h27.01.045175 +0100,
tilted.xlsx,The target is tilted.,117,24,0,3,0,1,1,1,1,1,1,1,1,1,1,1,1,11,12,117,space,11.741712500000176,None,1,0,3.42018169999983,None,space,4.626295600000049,None,0,0,0,0,,,,,3,0,24,4,236.0089155999999,,,,,,,,,,,,,,,,,,,,,235.99333089999982,236.0089155999999,236.49266609999995,236.4976201999998,236.5154864000001,239.94239740000012,,,,,239.9425753999999,239.95747419999998,240.15798110000014,240.14177549999977,236.5154864000001,,,,,,,,1,0,3.42018169999983,None,,,,,,,,822,22,M,R,2026-02-18_11h27.00.693,VisualSearch_2526_3,,2025.2.4,2026-02-18 11h27.01.045175 +0100,
tilted.xlsx,The target is tilted.,117,25,1,3,1,0,0,0,0,0,0,0,0,0,0,0,0,0,1,117,space,11.741712500000176,None,1,1,0.8295441999998729,None,space,4.626295600000049,None,0,0,0,0,,,,,3,1,25,3,240.15798110000014,,,,,,,,,,,,,,,,,,,,,240.1425079999999,240.15798110000014,240.64182530000016,240.64646970000013,240.66260699999975,241.50833939999984,,,,,241.50854620000018,241.5239416999998,241.72451210000008,241.70832729999984,240.66260699999975,,,,,,,,1,1,0.8295441999998729,None,,,,,,,,822,22,M,R,2026-02-18_11h27.00.693,VisualSearch_2526_3,,2025.2.4,2026-02-18 11h27.01.045175 +0100,
tilted.xlsx,The target is tilted.,117,26,2,3,0,0,0,0,0,0,0,0,0,0,0,0,1,1,1,117,space,11.741712500000176,None,0,1,1.0448253999998087,None,space,4.626295600000049,None,0,0,0,0,,,,,3,2,26,7,241.72451210000008,,,,,,,,,,,,,,,,,,,,,241.70906030000015,241.72451210000008,242.20788399999992,242.21252400000003,242.23030629999994,243.29086800000005,,,,,243.29098859999976,243.30679539999983,,243.49108290000004,242.23030629999994,,,,,,,,0,1,1.0448253999998087,None,,,,,,,,822,22,M,R,2026-02-18_11h27.00.693,VisualSearch_2526_3,,2025.2.4,2026-02-18 11h27.01.045175 +0100,
tilted.xlsx,The target is tilted.,117,27,3,3,0,1,1,1,1,1,1,1,0,0,0,0,1,7,8,117,space,11.741712500000176,None,1,0,3.573165499999959,None,space,4.626295600000049,None,0,0,0,0,,,,,3,3,27,5,243.5075228999999,,,,,,,,,,,,,,,,,,,,,243.49183799999992,243.5075228999999,243.99111519999997,243.9963856999998,244.01535509999985,247.59089600000016,,,,,247.59108650000007,247.6061205000001,247.80686969999988,247.79063180000003,,,,,,,,,1,0,3.573165499999959,None,,,,,,,,822,22,M,R,2026-02-18_11h27.00.693,VisualSearch_2526_3,,2025.2.4,2026-02-18 11h27.01.045175 +0100,
tilted.xlsx,The target is tilted.,117,28,4,3,1,1,1,1,1,1,1,1,0,0,0,0,0,7,8,117,space,11.741712500000176,None,1,1,1.7743396000000757,None,space,4.626295600000049,None,0,0,0,0,,,,,3,4,28,1,247.80686969999988,,,,,,,,,,,,,,,,,,,,,247.79142360000014,247.80686969999988,248.29035999999996,248.29509139999982,248.31301219999978,250.09081419999984,,,,,250.09098170000016,250.1056749999998,250.30643199999986,250.28991730000007,248.31301219999978,,,,,,,,1,1,1.7743396000000757,None,,,,,,,,822,22,M,R,2026-02-18_11h27.00.693,VisualSearch_2526_3,,2025.2.4,2026-02-18 11h27.01.045175 +0100,
tilted.xlsx,The target is tilted.,117,29,5,3,1,1,1,1,1,1,1,1,1,1,1,1,0,11,12,117,space,11.741712500000176,None,1,1,1.5362626000001,None,space,4.626295600000049,None,0,0,0,0,,,,,3,5,29,0,250.30643199999986,,,,,,,,,,,,,,,,,,,,,250.29066550000016,250.30643199999986,250.78986329999998,250.7945764000001,250.8122758999998,252.3570568,,,,,252.35723419999977,252.37213509999992,252.5727207,252.55647120000003,250.8122758999998,,,,,,,,1,1,1.5362626000001,None,,,,,,,,822,22,M,R,2026-02-18_11h27.00.693,VisualSearch_2526_3,,2025.2.4,2026-02-18 11h27.01.045175 +0100,
tilted.xlsx,The target is tilted.,117,30,6,3,0,1,1,1,0,0,0,0,0,0,0,0,1,3,4,117,space,11.741712500000176,None,0,1,1.481119800000215,None,space,4.626295600000049,None,0,0,0,0,,,,,3,6,30,6,252.5727207,,,,,,,,,,,,,,,,,,,,,252.5571571999999,252.5727207,253.0566020000001,253.06181100000003,253.07996649999995,254.57343379999975,,,,,254.57363149999992,254.58838460000015,254.78905269999996,254.77270420000013,253.07996649999995,,,,,,,,0,1,1.481119800000215,None,,,,,,,,822,22,M,R,2026-02-18_11h27.00.693,VisualSearch_2526_3,,2025.2.4,2026-02-18 11h27.01.045175 +0100,
tilted.xlsx,The target is tilted.,117,31,7,3,1,1,1,1,0,0,0,0,0,0,0,0,0,3,4,117,space,11.741712500000176,None,1,1,0.770978500000183,None,space,4.626295600000049,None,0,0,0,0,,,,,3,7,31,2,254.78905269999996,,,,,,,,,,,,,,,,,,,,,254.77345400000013,254.78905269999996,255.27291109999987,255.27800070000012,255.29657839999982,256.07250049999993,,,,,256.0726015,256.08802190000006,256.2888091,256.27251239999987,255.29657839999982,,,,,,,,1,1,0.770978500000183,None,,,,,,,,822,22,M,R,2026-02-18_11h27.00.693,VisualSearch_2526_3,,2025.2.4,2026-02-18 11h27.01.045175 +0100,
tilted.xlsx,The target is tilted.,117,32,0,4,1,1,1,1,1,1,1,1,0,0,0,0,0,7,8,117,space,11.741712500000176,None,1,1,2.4712072999996053,None,space,4.626295600000049,None,0,0,0,0,,,,,4,0,32,1,256.2888091,,,,,,,,,,,,,,,,,,,,,256.2732778999998,256.2888091,256.77176009999994,256.77429140000004,256.78848800000014,259.27256309999984,,,,,259.2727577999999,259.28771670000015,259.4882140999998,259.47196759999997,256.78848800000014,,,,,,,,1,1,2.4712072999996053,None,,,,,,,,822,22,M,R,2026-02-18_11h27.00.693,VisualSearch_2526_3,,2025.2.4,2026-02-18 11h27.01.045175 +0100,
tilted.xlsx,The target is tilted.,117,33,1,4,0,0,0,0,0,0,0,0,0,0,0,0,1,1,1,117,space,11.741712500000176,None,0,1,0.7239974999997685,None,space,4.626295600000049,None,0,0,0,0,,,,,4,1,33,7,259.4882140999998,,,,,,,,,,,,,,,,,,,,,259.4727004000001,259.4882140999998,259.97197370000004,259.97666709999976,259.9950739000001,260.72235,,,,,260.72255749999977,260.73744050000005,260.9375221999999,260.92145789999995,259.9950739000001,,,,,,,,0,1,0.7239974999997685,None,,,,,,,,822,22,M,R,2026-02-18_11h27.00.693,VisualSearch_2526_3,,2025.2.4,2026-02-18 11h27.01.045175 +0100,
tilted.xlsx,The target is tilted.,117,34,2,4,0,1,1,1,0,0,0,0,0,0,0,0,1,3,4,117,space,11.741712500000176,None,0,1,2.2807843999999022,None,space,4.626295600000049,None,0,0,0,0,,,,,4,2,34,6,260.9375221999999,,,,,,,,,,,,,,,,,,,,,260.9221447,260.9375221999999,261.42186730000003,261.42709520000017,261.4452735,263.73856769999975,,,,,263.7387447000001,263.7534609999998,263.95409389999986,263.9380317,261.4452735,,,,,,,,0,1,2.2807843999999022,None,,,,,,,,822,22,M,R,2026-02-18_11h27.00.693,VisualSearch_2526_3,,2025.2.4,2026-02-18 11h27.01.045175 +0100,
tilted.xlsx,The target is tilted.,117,35,3,4,1,0,0,0,0,0,0,0,0,0,0,0,0,0,1,117,space,11.741712500000176,None,1,1,0.7819995999998355,None,space,4.626295600000049,None,0,0,0,0,,,,,4,3,35,3,263.95409389999986,,,,,,,,,,,,,,,,,,,,,263.93875130000015,263.95409389999986,264.43790660000013,264.4428637000001,264.46086749999995,265.2547550999998,,,,,265.2549589999999,265.2701014999998,265.4704364999998,265.4544664,264.46086749999995,,,,,,,,1,1,0.7819995999998355,None,,,,,,,,822,22,M,R,2026-02-18_11h27.00.693,VisualSearch_2526_3,,2025.2.4,2026-02-18 11h27.01.045175 +0100,
tilted.xlsx,The target is tilted.,117,36,4,4,1,1,1,1,0,0,0,0,0,0,0,0,0,3,4,117,space,11.741712500000176,None,1,1,1.0626786999996511,None,space,4.626295600000049,None,0,0,0,0,,,,,4,4,36,2,265.4704364999998,,,,,,,,,,,,,,,,,,,,,265.4551803999998,265.4704364999998,265.95459219999975,265.9598944999998,265.9783773999998,267.0539669,,,,,267.0541296000001,267.0696560000001,267.26998289999983,267.2537947999999,265.9783773999998,,,,,,,,1,1,1.0626786999996511,None,,,,,,,,822,22,M,R,2026-02-18_11h27.00.693,VisualSearch_2526_3,,2025.2.4,2026-02-18 11h27.01.045175 +0100,
tilted.xlsx,The target is tilted.,117,37,5,4,1,1,1,1,1,1,1,1,1,1,1,1,0,11,12,117,space,11.741712500000176,None,1,1,3.8907381999997597,None,space,4.626295600000049,None,0,0,0,0,,,,,4,5,37,0,267.26998289999983,,,,,,,,,,,,,,,,,,,,,267.2545546000001,267.26998289999983,267.75414869999986,267.7591957999998,267.7774129999998,271.67038219999995,,,,,271.6705612999999,271.6856183,271.88576710000007,271.8698251999999,267.7774129999998,,,,,,,,1,1,3.8907381999997597,None,,,,,,,,822,22,M,R,2026-02-18_11h27.00.693,VisualSearch_2526_3,,2025.2.4,2026-02-18 11h27.01.045175 +0100,
tilted.xlsx,The target is tilted.,117,38,6,4,0,1,1,1,1,1,1,1,1,1,1,1,1,11,12,117,space,11.741712500000176,None,0,1,5.018308700000034,None,space,4.626295600000049,None,0,0,0,0,,,,,4,6,38,4,271.88576710000007,,,,,,,,,,,,,,,,,,,,,271.8705,271.88576710000007,272.3696777,272.3734208000001,272.3893376000001,277.4195200999998,,,,,277.41970600000013,277.4345272999999,277.63528429999997,277.6191748000001,272.3893376000001,,,,,,,,0,1,5.018308700000034,None,,,,,,,,822,22,M,R,2026-02-18_11h27.00.693,VisualSearch_2526_3,,2025.2.4,2026-02-18 11h27.01.045175 +0100,
tilted.xlsx,The target is tilted.,117,39,7,4,0,1,1,1,1,1,1,1,0,0,0,0,1,7,8,117,space,11.741712500000176,None,0,1,5.485189700000319,None,space,4.626295600000049,None,0,0,0,0,,,,,4,7,39,5,277.63528429999997,,,,,,,,,,,,,,,,,,,,,277.6199095000002,277.63528429999997,278.11907999999994,278.1238069000001,278.1414629000001,283.6345720999998,,,,,283.6347033000002,283.6502209999999,283.8508075,283.83468859999994,278.1414629000001,,,,,,,,0,1,5.485189700000319,None,,,,,,,,822,22,M,R,2026-02-18_11h27.00.693,VisualSearch_2526_3,,2025.2.4,2026-02-18 11h27.01.045175 +0100,
tilted.xlsx,The target is tilted.,117,40,0,5,1,1,1,1,1,1,1,1,0,0,0,0,0,7,8,117,space,11.741712500000176,None,1,1,1.5621461000000636,None,space,4.626295600000049,None,0,0,0,0,,,,,5,0,40,1,283.8508075,,,,,,,,,,,,,,,,,,,,,283.83538880000015,283.8508075,284.33462229999986,284.33921169999985,284.3562189999998,285.93413250000003,,,,,285.93429419999984,285.9498405999998,286.1504215,286.134364,284.3562189999998,,,,,,,,1,1,1.5621461000000636,None,,,,,,,,822,22,M,R,2026-02-18_11h27.00.693,VisualSearch_2526_3,,2025.2.4,2026-02-18 11h27.01.045175 +0100,
tilted.xlsx,The target is tilted.,117,41,1,5,1,1,1,1,0,0,0,0,0,0,0,0,0,3,4,117,space,11.741712500000176,None,1,1,0.8670917999997982,None,space,4.626295600000049,None,0,0,0,0,,,,,5,1,41,2,286.1504215,,,,,,,,,,,,,,,,,,,,,286.13507930000014,286.1504215,286.6341745,286.63904279999997,286.65772119999974,287.53478510000014,,,,,287.5350183999999,287.5498112,287.75012879999986,287.7341336999998,286.65772119999974,,,,,,,,1,1,0.8670917999997982,None,,,,,,,,822,22,M,R,2026-02-18_11h27.00.693,VisualSearch_2526_3,,2025.2.4,2026-02-18 11h27.01.045175 +0100,
tilted.xlsx,The target is tilted.,117,42,2,5,1,1,1,1,1,1,1,1,1,1,1,1,0,11,12,117,space,11.741712500000176,None,1,1,2.056318499999634,None,space,4.626295600000049,None,0,0,0,0,,,,,5,2,42,0,287.75012879999986,,,,,,,,,,,,,,,,,,,,,287.7348551,287.75012879999986,288.23404200000004,288.23864809999986,288.2559225,290.3173289000001,,,,,290.3175056,290.3324004000001,290.53313750000007,290.5169027000002,288.2559225,,,,,,,,1,1,2.056318499999634,None,,,,,,,,822,22,M,R,2026-02-18_11h27.00.693,VisualSearch_2526_3,,2025.2.4,2026-02-18 11h27.01.045175 +0100,
tilted.xlsx,The target is tilted.,117,43,3,5,0,1,1,1,1,1,1,1,0,0,0,0,1,7,8,117,space,11.741712500000176,None,0,1,4.232385599999816,None,space,4.626295600000049,None,0,0,0,0,,,,,5,3,43,5,290.53313750000007,,,,,,,,,,,,,,,,,,,,,290.51767930000005,290.53313750000007,291.01713500000005,291.02245200000016,291.0406589999998,295.2832847999998,,,,,295.28346569999985,295.2982261000002,295.49906729999975,295.48266220000005,291.0406589999998,,,,,,,,0,1,4.232385599999816,None,,,,,,,,822,22,M,R,2026-02-18_11h27.00.693,VisualSearch_2526_3,,2025.2.4,2026-02-18 11h27.01.045175 +0100,
tilted.xlsx,The target is tilted.,117,44,4,5,1,0,0,0,0,0,0,0,0,0,0,0,0,0,1,117,space,11.741712500000176,None,1,1,0.72467719999986,None,space,4.626295600000049,None,0,0,0,0,,,,,5,4,44,3,295.49906729999975,,,,,,,,,,,,,,,,,,,,,295.48332359999995,295.49906729999975,295.9828419999999,295.9877753999999,296.00596240000004,296.7328526000001,,,,,296.73302680000006,296.74798469999996,296.94884649999995,296.93253890000005,296.00596240000004,,,,,,,,1,1,0.72467719999986,None,,,,,,,,822,22,M,R,2026-02-18_11h27.00.693,VisualSearch_2526_3,,2025.2.4,2026-02-18 11h27.01.045175 +0100,
tilted.xlsx,The target is tilted.,117,45,5,5,0,1,1,1,0,0,0,0,0,0,0,0,1,3,4,117,space,11.741712500000176,None,0,1,1.7207827000001998,None,space,4.626295600000049,None,0,0,0,0,,,,,5,5,45,6,296.94884649999995,,,,,,,,,,,,,,,,,,,,,296.93328740000015,296.94884649999995,297.4323714000002,297.43732520000003,297.45551650000016,299.1825933,,,,,299.1827741000002,299.1977975,299.3981057000001,299.3817779000001,297.45551650000016,,,,,,,,0,1,1.7207827000001998,None,,,,,,,,822,22,M,R,2026-02-18_11h27.00.693,VisualSearch_2526_3,,2025.2.4,2026-02-18 11h27.01.045175 +0100,
tilted.xlsx,The target is tilted.,117,46,6,5,0,0,0,0,0,0,0,0,0,0,0,0,1,1,1,117,space,11.741712500000176,None,0,1,0.8276758000001792,None,space,4.626295600000049,None,0,0,0,0,,,,,5,6,46,7,299.3981057000001,,,,,,,,,,,,,,,,,,,,,299.3822246999998,299.3981057000001,299.8850677999999,299.88845200000014,299.90322990000004,300.7320043999998,,,,,300.7321900000002,300.7474118,300.94809110000006,300.93187080000007,,,,,,,,,0,1,0.8276758000001792,None,,,,,,,,822,22,M,R,2026-02-18_11h27.00.693,VisualSearch_2526_3,,2025.2.4,2026-02-18 11h27.01.045175 +0100,
tilted.xlsx,The target is tilted.,117,47,7,5,0,1,1,1,1,1,1,1,1,1,1,1,1,11,12,117,space,11.741712500000176,None,0,1,6.09405519999973,None,space,4.626295600000049,None,0,0,0,0,,,,,5,7,47,4,300.94809110000006,,,,,,,,,,,,,,,,,,,,,300.9326206999999,300.94809110000006,301.43200149999984,301.43719699999974,301.45557370000006,307.56352819999984,,,,,307.5636506999999,307.5794151,,307.76383269999997,301.45557370000006,,,,,,,,0,1,6.09405519999973,None,,,,,,,,822,22,M,R,2026-02-18_11h27.00.693,VisualSearch_2526_3,,2025.2.4,2026-02-18 11h27.01.045175 +0100,
tilted.xlsx,The target is tilted.,117,48,0,6,1,1,1,1,1,1,1,1,0,0,0,0,0,7,8,117,space,11.741712500000176,None,1,1,2.44796180000003,None,space,4.626295600000049,None,0,0,0,0,,,,,6,0,48,1,307.78018310000016,,,,,,,,,,,,,,,,,,,,,307.76451670000006,307.78018310000016,308.2637718000001,308.26851050000005,308.28608399999985,310.74650109999993,,,,,310.74662780000017,310.7624655999998,310.9630000000002,310.94687639999984,,,,,,,,,1,1,2.44796180000003,None,,,,,,,,822,22,M,R,2026-02-18_11h27.00.693,VisualSearch_2526_3,,2025.2.4,2026-02-18 11h27.01.045175 +0100,
tilted.xlsx,The target is tilted.,117,49,1,6,1,0,0,0,0,0,0,0,0,0,0,0,0,0,1,117,space,11.741712500000176,None,1,1,0.7892643000000135,None,space,4.626295600000049,None,0,0,0,0,,,,,6,1,49,3,310.9630000000002,,,,,,,,,,,,,,,,,,,,,310.9476681000001,310.9630000000002,311.44680879999987,311.45148740000013,311.46908080000003,312.2638871999998,,,,,312.26408279999987,312.2789327999999,312.47938669999985,312.4631267,311.46908080000003,,,,,,,,1,1,0.7892643000000135,None,,,,,,,,822,22,M,R,2026-02-18_11h27.00.693,VisualSearch_2526_3,,2025.2.4,2026-02-18 11h27.01.045175 +0100,
tilted.xlsx,The target is tilted.,117,50,2,6,0,1,1,1,0,0,0,0,0,0,0,0,1,3,4,117,space,11.741712500000176,None,0,1,1.9308525000001282,None,space,4.626295600000049,None,0,0,0,0,,,,,6,2,50,6,312.47938669999985,,,,,,,,,,,,,,,,,,,,,312.46378270000014,312.47938669999985,312.9626979999998,312.9659754999998,312.97920609999983,314.9135495999999,,,,,314.91372569999976,314.9284821000001,315.1286481000002,315.1127842000001,312.97920609999983,,,,,,,,0,1,1.9308525000001282,None,,,,,,,,822,22,M,R,2026-02-18_11h27.00.693,VisualSearch_2526_3,,2025.2.4,2026-02-18 11h27.01.045175 +0100,
tilted.xlsx,The target is tilted.,117,51,3,6,0,0,0,0,0,0,0,0,0,0,0,0,1,1,1,117,space,11.741712500000176,None,0,1,0.7833335999998781,None,space,4.626295600000049,None,0,0,0,0,,,,,6,3,51,7,315.1286481000002,,,,,,,,,,,,,,,,,,,,,315.11357629999975,315.1286481000002,315.61299439999993,315.6182653000001,315.6368130000001,316.4300432,,,,,316.43025609999995,316.4448874999998,316.6453929999998,316.62932009999986,315.6368130000001,,,,,,,,0,1,0.7833335999998781,None,,,,,,,,822,22,M,R,2026-02-18_11h27.00.693,VisualSearch_2526_3,,2025.2.4,2026-02-18 11h27.01.045175 +0100,
tilted.xlsx,The target is tilted.,117,52,4,6,0,1,1,1,1,1,1,1,1,1,1,1,1,11,12,117,space,11.741712500000176,None,0,1,4.337026700000024,None,space,4.626295600000049,None,0,0,0,0,,,,,6,4,52,4,316.6453929999998,,,,,,,,,,,,,,,,,,,,,316.6300433000001,316.6453929999998,317.1290233999998,317.1337279999998,317.1510972000001,321.4950101999998,,,,,321.4951295999999,321.51057790000004,321.71122030000015,321.6950456999998,317.1510972000001,,,,,,,,0,1,4.337026700000024,None,,,,,,,,822,22,M,R,2026-02-18_11h27.00.693,VisualSearch_2526_3,,2025.2.4,2026-02-18 11h27.01.045175 +0100,
tilted.xlsx,The target is tilted.,117,53,5,6,1,1,1,1,1,1,1,1,1,1,1,1,0,11,12,117,space,11.741712500000176,None,1,1,3.2761328000001413,None,space,4.626295600000049,None,0,0,0,0,,,,,6,5,53,0,321.71122030000015,,,,,,,,,,,,,,,,,,,,,321.69572689999995,321.71122030000015,322.1949902000001,322.1995585999998,322.2110250999999,325.49499490000017,,,,,325.4951735999998,325.5098957,325.71061359999976,325.6944546999998,322.2110250999999,,,,,,,,1,1,3.2761328000001413,None,,,,,,,,822,22,M,R,2026-02-18_11h27.00.693,VisualSearch_2526_3,,2025.2.4,2026-02-18 11h27.01.045175 +0100,
tilted.xlsx,The target is tilted.,117,54,6,6,0,1,1,1,1,1,1,1,0,0,0,0,1,7,8,117,space,11.741712500000176,None,0,1,3.433947900000021,None,space,4.626295600000049,None,0,0,0,0,,,,,6,6,54,5,325.71061359999976,,,,,,,,,,,,,,,,,,,,,325.69523709999976,325.71061359999976,326.1944545000001,326.1990184000001,326.21676690000004,329.66068959999984,,,,,329.6608686999998,329.67602959999977,329.87665130000005,329.860099,326.21676690000004,,,,,,,,0,1,3.433947900000021,None,,,,,,,,822,22,M,R,2026-02-18_11h27.00.693,VisualSearch_2526_3,,2025.2.4,2026-02-18 11h27.01.045175 +0100,
tilted.xlsx,The target is tilted.,117,55,7,6,1,1,1,1,0,0,0,0,0,0,0,0,0,3,4,117,space,11.741712500000176,None,0,0,1.4219389999998384,None,space,4.626295600000049,None,0,0,0,0,,,,,6,7,55,2,329.87665130000005,,,,,,,,,,,,,,,,,,,,,329.8608528,329.87665130000005,330.3598800999998,330.36400509999976,330.38011800000004,331.8103959,,,,,331.8105826000001,331.82554660000005,332.0263077999998,332.00982399999975,330.38011800000004,,,,,,,,0,0,1.4219389999998384,None,,,,,,,,822,22,M,R,2026-02-18_11h27.00.693,VisualSearch_2526_3,,2025.2.4,2026-02-18 11h27.01.045175 +0100,
tilted.xlsx,The target is tilted.,117,56,0,7,1,1,1,1,0,0,0,0,0,0,0,0,0,3,4,117,space,11.741712500000176,None,1,1,1.3460532999997668,None,space,4.626295600000049,None,0,0,0,0,,,,,7,0,56,2,332.0263077999998,,,,,,,,,,,,,,,,,,,,,332.0105128,332.0263077999998,332.5094823999998,332.51226450000013,332.5260684,333.87693839999974,,,,,333.8771148999999,333.8920070999998,334.0925650999998,334.0762300000001,332.5260684,,,,,,,,1,1,1.3460532999997668,None,,,,,,,,822,22,M,R,2026-02-18_11h27.00.693,VisualSearch_2526_3,,2025.2.4,2026-02-18 11h27.01.045175 +0100,
tilted.xlsx,The target is tilted.,117,57,1,7,1,1,1,1,1,1,1,1,0,0,0,0,0,7,8,117,space,11.741712500000176,None,1,1,2.736304300000029,None,space,4.626295600000049,None,0,0,0,0,,,,,7,1,57,1,334.0925650999998,,,,,,,,,,,,,,,,,,,,,334.07696970000006,334.0925650999998,334.57645809999985,334.58176109999977,334.6005476999999,337.3428798,,,,,337.34305760000007,337.35803769999984,337.55888270000014,337.54251280000017,334.6005476999999,,,,,,,,1,1,2.736304300000029,None,,,,,,,,822,22,M,R,2026-02-18_11h27.00.693,VisualSearch_2526_3,,2025.2.4,2026-02-18 11h27.01.045175 +0100,
tilted.xlsx,The target is tilted.,117,58,2,7,0,1,1,1,0,0,0,0,0,0,0,0,1,3,4,117,space,11.741712500000176,None,0,1,1.2707348000003549,None,space,4.626295600000049,None,0,0,0,0,,,,,7,2,58,6,337.55888270000014,,,,,,,,,,,,,,,,,,,,,337.5432572999998,337.55888270000014,338.04258219999974,338.0474757000002,338.06540319999976,339.3426211000001,,,,,339.34280290000015,339.35785750000014,339.55779919999986,339.5418211000001,338.06540319999976,,,,,,,,0,1,1.2707348000003549,None,,,,,,,,822,22,M,R,2026-02-18_11h27.00.693,VisualSearch_2526_3,,2025.2.4,2026-02-18 11h27.01.045175 +0100,
tilted.xlsx,The target is tilted.,117,59,3,7,1,1,1,1,1,1,1,1,1,1,1,1,0,11,12,117,space,11.741712500000176,None,1,1,2.7169758,None,space,4.626295600000049,None,0,0,0,0,,,,,7,3,59,0,339.55779919999986,,,,,,,,,,,,,,,,,,,,,339.54252069999984,339.55779919999986,340.0422801999998,340.0471038999999,340.06505689999995,342.7921971999999,,,,,342.79239000000007,342.80716189999976,343.0077975999998,342.9914270999998,340.06505689999995,,,,,,,,1,1,2.7169758,None,,,,,,,,822,22,M,R,2026-02-18_11h27.00.693,VisualSearch_2526_3,,2025.2.4,2026-02-18 11h27.01.045175 +0100,
tilted.xlsx,The target is tilted.,117,60,4,7,0,1,1,1,1,1,1,1,1,1,1,1,1,11,12,117,space,11.741712500000176,None,0,1,6.577056399999947,None,space,4.626295600000049,None,0,0,0,0,,,,,7,4,60,4,343.0077975999998,,,,,,,,,,,,,,,,,,,,,342.9920957999998,343.0077975999998,343.49145839999983,343.49607220000007,343.51302780000015,350.10692979999976,,,,,350.10710949999975,350.12269259999994,350.3224872999999,350.3063173999999,343.51302780000015,,,,,,,,0,1,6.577056399999947,None,,,,,,,,822,22,M,R,2026-02-18_11h27.00.693,VisualSearch_2526_3,,2025.2.4,2026-02-18 11h27.01.045175 +0100,
tilted.xlsx,The target is tilted.,117,61,5,7,0,0,0,0,0,0,0,0,0,0,0,0,1,1,1,117,space,11.741712500000176,None,0,1,0.8915606999999,None,space,4.626295600000049,None,0,0,0,0,,,,,7,5,61,7,350.3224872999999,,,,,,,,,,,,,,,,,,,,,350.3068112000001,350.3224872999999,350.80674769999996,350.8139471999998,350.83246329999974,351.74028940000017,,,,,351.7404869000002,351.7558125999999,351.9556837,351.93987890000017,350.83246329999974,,,,,,,,0,1,0.8915606999999,None,,,,,,,,822,22,M,R,2026-02-18_11h27.00.693,VisualSearch_2526_3,,2025.2.4,2026-02-18 11h27.01.045175 +0100,
tilted.xlsx,The target is tilted.,117,62,6,7,0,1,1,1,1,1,1,1,0,0,0,0,1,7,8,117,space,11.741712500000176,None,0,1,3.768089200000304,None,space,4.626295600000049,None,0,0,0,0,,,,,7,6,62,5,351.9556837,,,,,,,,,,,,,,,,,,,,,351.9406211999999,351.9556837,352.4401554000001,352.4453515,352.4634371000002,356.23992339999995,,,,,356.2401028999998,356.2548393000002,356.45549690000007,356.4391136999998,352.4634371000002,,,,,,,,0,1,3.768089200000304,None,,,,,,,,822,22,M,R,2026-02-18_11h27.00.693,VisualSearch_2526_3,,2025.2.4,2026-02-18 11h27.01.045175 +0100,
tilted.xlsx,The target is tilted.,117,63,7,7,1,0,0,0,0,0,0,0,0,0,0,0,0,0,1,117,space,11.741712500000176,None,1,1,0.8719363000000158,None,space,4.626295600000049,None,0,0,0,0,,,,,7,7,63,3,356.45549690000007,,,,,,,,,,,,,,,,,,,,,356.43986080000013,356.45549690000007,356.93949169999996,356.9441605000002,356.96144430000004,357.8396278,,,,,357.83980710000014,357.8547088999999,358.0551910999998,358.0391174000001,356.96144430000004,,,,,,,,1,1,0.8719363000000158,None,,,,,,,,822,22,M,R,2026-02-18_11h27.00.693,VisualSearch_2526_3,,2025.2.4,2026-02-18 11h27.01.045175 +0100,
tilted.xlsx,The target is tilted.,117,64,0,8,1,1,1,1,1,1,1,1,0,0,0,0,0,7,8,117,space,11.741712500000176,None,1,1,1.818010299999969,None,space,4.626295600000049,None,0,0,0,0,,,,,8,0,64,1,358.0551910999998,,,,,,,,,,,,,,,,,,,,,358.0399693999998,358.0551910999998,358.5390444999998,358.54363269999976,358.5608051999998,360.3892900000001,,,,,360.3894658999998,360.4042666,360.6045048000001,360.58856939999987,358.5608051999998,,,,,,,,1,1,1.818010299999969,None,,,,,,,,822,22,M,R,2026-02-18_11h27.00.693,VisualSearch_2526_3,,2025.2.4,2026-02-18 11h27.01.045175 +0100,
tilted.xlsx,The target is tilted.,117,65,1,8,0,0,0,0,0,0,0,0,0,0,0,0,1,1,1,117,space,11.741712500000176,None,0,1,0.7324785000000702,None,space,4.626295600000049,None,0,0,0,0,,,,,8,1,65,7,360.6045048000001,,,,,,,,,,,,,,,,,,,,,360.58929739999985,360.6045048000001,361.08858899999996,361.0931676,361.11106629999995,361.8554373000002,,,,,361.8556281000001,361.8705227999999,362.0712146000001,362.0551142999998,361.11106629999995,,,,,,,,0,1,0.7324785000000702,None,,,,,,,,822,22,M,R,2026-02-18_11h27.00.693,VisualSearch_2526_3,,2025.2.4,2026-02-18 11h27.01.045175 +0100,
tilted.xlsx,The target is tilted.,117,66,2,8,0,1,1,1,0,0,0,0,0,0,0,0,1,3,4,117,space,11.741712500000176,None,0,1,2.299986600000011,None,space,4.626295600000049,None,0,0,0,0,,,,,8,2,66,6,362.0712146000001,,,,,,,,,,,,,,,,,,,,,362.05585840000003,362.0712146000001,362.5553153999999,362.5606600000001,362.57899910000015,364.88840249999976,,,,,364.88857929999995,364.90356599999996,365.1038002,365.08761700000014,362.57899910000015,,,,,,,,0,1,2.299986600000011,None,,,,,,,,822,22,M,R,2026-02-18_11h27.00.693,VisualSearch_2526_3,,2025.2.4,2026-02-18 11h27.01.045175 +0100,
tilted.xlsx,The target is tilted.,117,67,3,8,1,1,1,1,1,1,1,1,1,1,1,1,0,11,12,117,space,11.741712500000176,None,0,0,6.731549299999642,None,space,4.626295600000049,None,0,0,0,0,,,,,8,3,67,0,365.1038002,,,,,,,,,,,,,,,,,,,,,365.08838779999996,365.1038002,365.5879190999999,365.59248769999977,365.60948610000014,372.3539836,,,,,372.35416480000004,372.36884759999975,372.56927730000007,372.55302189999975,365.60948610000014,,,,,,,,0,0,6.731549299999642,None,,,,,,,,822,22,M,R,2026-02-18_11h27.00.693,VisualSearch_2526_3,,2025.2.4,2026-02-18 11h27.01.045175 +0100,
tilted.xlsx,The target is tilted.,117,68,4,8,1,1,1,1,0,0,0,0,0,0,0,0,0,3,4,117,space,11.741712500000176,None,1,1,1.2546894000001885,None,space,4.626295600000049,None,0,0,0,0,,,,,8,4,68,2,372.56927730000007,,,,,,,,,,,,,,,,,,,,,372.5534840999999,372.56927730000007,373.05308190000005,373.0579308000001,373.0758719999999,374.3367911,,,,,374.33696869999994,374.35187099999985,374.5526034999998,374.53649499999983,373.0758719999999,,,,,,,,1,1,1.2546894000001885,None,,,,,,,,822,22,M,R,2026-02-18_11h27.00.693,VisualSearch_2526_3,,2025.2.4,2026-02-18 11h27.01.045175 +0100,
tilted.xlsx,The target is tilted.,117,69,5,8,1,0,0,0,0,0,0,0,0,0,0,0,0,0,1,117,space,11.741712500000176,None,1,1,0.5383857000001626,None,space,4.626295600000049,None,0,0,0,0,,,,,8,5,69,3,374.5526034999998,,,,,,,,,,,,,,,,,,,,,374.5372145000001,374.5526034999998,375.03650359999983,375.04166589999977,375.05971929999987,375.60349210000004,,,,,375.60368400000016,375.6183157999999,375.8188672000001,375.80225659999996,375.05971929999987,,,,,,,,1,1,0.5383857000001626,None,,,,,,,,822,22,M,R,2026-02-18_11h27.00.693,VisualSearch_2526_3,,2025.2.4,2026-02-18 11h27.01.045175 +0100,
tilted.xlsx,The target is tilted.,117,70,6,8,0,1,1,1,1,1,1,1,1,1,1,1,1,11,12,117,space,11.741712500000176,None,0,1,5.088482499999827,None,space,4.626295600000049,None,0,0,0,0,,,,,8,6,70,4,375.8188672000001,,,,,,,,,,,,,,,,,,,,,375.8027296999999,375.8188672000001,376.30281939999986,376.3074108999999,376.3251728,381.4192315999999,,,,,381.4194109,381.43408039999986,381.63478159999977,381.6186735000001,376.3251728,,,,,,,,0,1,5.088482499999827,None,,,,,,,,822,22,M,R,2026-02-18_11h27.00.693,VisualSearch_2526_3,,2025.2.4,2026-02-18 11h27.01.045175 +0100,
tilted.xlsx,The target is tilted.,117,71,7,8,0,1,1,1,1,1,1,1,0,0,0,0,1,7,8,117,space,11.741712500000176,None,0,1,3.831998499999827,None,space,4.626295600000049,None,0,0,0,0,,,,,8,7,71,5,381.63478159999977,,,,,,,,,,,,,,,,,,,,,381.6194074,381.63478159999977,382.1180986999998,382.12262969999983,382.14043349999974,385.9848390000002,,,,,385.9850111999999,386.00000390000014,386.20053359999974,386.18443449999995,382.14043349999974,,,,,,,,0,1,3.831998499999827,None,,,,,,,,822,22,M,R,2026-02-18_11h27.00.693,VisualSearch_2526_3,,2025.2.4,2026-02-18 11h27.01.045175 +0100,
tilted.xlsx,The target is tilted.,117,72,0,9,1,1,1,1,1,1,1,1,1,1,1,1,0,11,12,117,space,11.741712500000176,None,1,1,1.1475399999999354,None,space,4.626295600000049,None,0,0,0,0,,,,,9,0,72,0,386.20053359999974,,,,,,,,,,,,,,,,,,,,,386.18510879999985,386.20053359999974,386.6844551999998,386.68895969999994,386.7058427000002,387.8669451999999,,,,,387.8670735999999,387.88296149999996,,388.06724829999985,386.7058427000002,,,,,,,,1,1,1.1475399999999354,None,,,,,,,,822,22,M,R,2026-02-18_11h27.00.693,VisualSearch_2526_3,,2025.2.4,2026-02-18 11h27.01.045175 +0100,
tilted.xlsx,The target is tilted.,117,73,1,9,1,0,0,0,0,0,0,0,0,0,0,0,0,0,1,117,space,11.741712500000176,None,1,1,0.6262678999996751,None,space,4.626295600000049,None,0,0,0,0,,,,,9,1,73,3,388.0836645999998,,,,,,,,,,,,,,,,,,,,,388.0679921000001,388.0836645999998,388.56731919999993,388.5718734000002,388.58973130000004,389.2178463,,,,,389.21801989999994,389.23295129999997,389.43348849999984,389.41738609999993,388.58973130000004,,,,,,,,1,1,0.6262678999996751,None,,,,,,,,822,22,M,R,2026-02-18_11h27.00.693,VisualSearch_2526_3,,2025.2.4,2026-02-18 11h27.01.045175 +0100,
tilted.xlsx,The target is tilted.,117,74,2,9,0,0,0,0,0,0,0,0,0,0,0,0,1,1,1,117,space,11.741712500000176,None,0,1,0.605246999999963,None,space,4.626295600000049,None,0,0,0,0,,,,,9,2,74,7,389.43348849999984,,,,,,,,,,,,,,,,,,,,,389.4181116,389.43348849999984,389.9172702000001,389.9217896,389.93866590000016,390.5507127000001,,,,,390.5509172000002,390.56600660000004,390.7664404000002,390.7502816000001,389.93866590000016,,,,,,,,0,1,0.605246999999963,None,,,,,,,,822,22,M,R,2026-02-18_11h27.00.693,VisualSearch_2526_3,,2025.2.4,2026-02-18 11h27.01.045175 +0100,
tilted.xlsx,The target is tilted.,117,75,3,9,0,1,1,1,1,1,1,1,1,1,1,1,1,11,12,117,space,11.741712500000176,None,0,1,7.661496799999895,None,space,4.626295600000049,None,0,0,0,0,,,,,9,3,75,4,390.7664404000002,,,,,,,,,,,,,,,,,,,,,390.7510231000001,390.7664404000002,391.25016760000017,391.2553487,391.2738610000001,398.94869659999995,,,,,398.9488415999999,398.964481,399.165203,399.1488568,391.2738610000001,,,,,,,,0,1,7.661496799999895,None,,,,,,,,822,22,M,R,2026-02-18_11h27.00.693,VisualSearch_2526_3,,2025.2.4,2026-02-18 11h27.01.045175 +0100,
tilted.xlsx,The target is tilted.,117,76,4,9,0,1,1,1,1,1,1,1,0,0,0,0,1,7,8,117,space,11.741712500000176,None,0,1,4.390756800000418,None,space,4.626295600000049,None,0,0,0,0,,,,,9,4,76,5,399.165203,,,,,,,,,,,,,,,,,,,,,399.14953239999977,399.165203,399.64897410000003,399.65401680000014,399.66510130000006,404.06522300000006,,,,,404.0653794,404.08021770000005,404.28088209999987,404.2647437999999,399.66510130000006,,,,,,,,0,1,4.390756800000418,None,,,,,,,,822,22,M,R,2026-02-18_11h27.00.693,VisualSearch_2526_3,,2025.2.4,2026-02-18 11h27.01.045175 +0100,
tilted.xlsx,The target is tilted.,117,77,5,9,0,1,1,1,0,0,0,0,0,0,0,0,1,3,4,117,space,11.741712500000176,None,0,1,1.8425836000001254,None,space,4.626295600000049,None,0,0,0,0,,,,,9,5,77,6,404.28088209999987,,,,,,,,,,,,,,,,,,,,,404.26541199999974,404.28088209999987,404.7649298000001,404.769444,404.7870069999999,406.6315383000001,,,,,406.63171079999984,406.6466614000001,406.8473620999998,406.83096049999995,404.7870069999999,,,,,,,,0,1,1.8425836000001254,None,,,,,,,,822,22,M,R,2026-02-18_11h27.00.693,VisualSearch_2526_3,,2025.2.4,2026-02-18 11h27.01.045175 +0100,
tilted.xlsx,The target is tilted.,117,78,6,9,1,1,1,1,0,0,0,0,0,0,0,0,0,3,4,117,space,11.741712500000176,None,1,1,1.0196269000002758,None,space,4.626295600000049,None,0,0,0,0,,,,,9,6,78,2,406.8473620999998,,,,,,,,,,,,,,,,,,,,,406.83170169999994,406.8473620999998,407.33090429999993,407.33542769999985,407.3534482,408.3811783000001,,,,,408.3813534000001,408.39633520000007,408.5969543000001,408.58066599999984,407.3534482,,,,,,,,1,1,1.0196269000002758,None,,,,,,,,822,22,M,R,2026-02-18_11h27.00.693,VisualSearch_2526_3,,2025.2.4,2026-02-18 11h27.01.045175 +0100,
tilted.xlsx,The target is tilted.,117,79,7,9,1,1,1,1,1,1,1,1,0,0,0,0,0,7,8,117,space,11.741712500000176,None,1,1,0.797969600000215,None,space,4.626295600000049,None,0,0,0,0,,,,,9,7,79,1,408.5969543000001,,,,,,,,,,,,,,,,,,,,,408.5813959000002,408.5969543000001,409.08038069999975,409.08489069999996,409.10261850000006,409.9136064999998,,,,,409.91376200000013,409.9292900999999,410.13004039999987,410.11386029999994,409.10261850000006,,,,,,,,1,1,0.797969600000215,None,,,,,,,,822,22,M,R,2026-02-18_11h27.00.693,VisualSearch_2526_3,,2025.2.4,2026-02-18 11h27.01.045175 +0100,
tilted.xlsx,The target is tilted.,117,80,0,10,1,1,1,1,1,1,1,1,0,0,0,0,0,7,8,117,space,11.741712500000176,None,1,1,2.818283699999938,None,space,4.626295600000049,None,0,0,0,0,,,,,10,0,80,1,410.13004039999987,,,,,,,,,,,,,,,,,,,,,410.1146229000001,410.13004039999987,410.61394070000006,410.61878720000004,410.6367988000002,413.46383460000015,,,,,413.4640088000001,413.47868040000003,413.6792958000001,413.66295660000014,410.6367988000002,,,,,,,,1,1,2.818283699999938,None,,,,,,,,822,22,M,R,2026-02-18_11h27.00.693,VisualSearch_2526_3,,2025.2.4,2026-02-18 11h27.01.045175 +0100,
tilted.xlsx,The target is tilted.,117,81,1,10,1,0,0,0,0,0,0,0,0,0,0,0,0,0,1,117,space,11.741712500000176,None,1,1,0.6383179999997992,None,space,4.626295600000049,None,0,0,0,0,,,,,10,1,81,3,413.6792958000001,,,,,,,,,,,,,,,,,,,,,413.66352800000004,413.6792958000001,414.1629386999998,414.1677811999998,414.1847195,414.83035389999986,,,,,414.8305270999999,414.8452435999998,415.0459418999999,415.0297532999998,414.1847195,,,,,,,,1,1,0.6383179999997992,None,,,,,,,,822,22,M,R,2026-02-18_11h27.00.693,VisualSearch_2526_3,,2025.2.4,2026-02-18 11h27.01.045175 +0100,
tilted.xlsx,The target is tilted.,117,82,2,10,1,1,1,1,0,0,0,0,0,0,0,0,0,3,4,117,space,11.741712500000176,None,1,1,0.8091005000001132,None,space,4.626295600000049,None,0,0,0,0,,,,,10,2,82,2,415.0459418999999,,,,,,,,,,,,,,,,,,,,,415.03048979999994,415.0459418999999,415.52982770000017,415.5344819000002,415.5519356,416.3629516000001,,,,,416.36306650000006,416.37826289999975,416.57900310000014,416.5627915,415.5519356,,,,,,,,1,1,0.8091005000001132,None,,,,,,,,822,22,M,R,2026-02-18_11h27.00.693,VisualSearch_2526_3,,2025.2.4,2026-02-18 11h27.01.045175 +0100,
tilted.xlsx,The target is tilted.,117,83,3,10,0,0,0,0,0,0,0,0,0,0,0,0,1,1,1,117,space,11.741712500000176,None,0,1,0.9238775999997415,None,space,4.626295600000049,None,0,0,0,0,,,,,10,3,83,7,416.57900310000014,,,,,,,,,,,,,,,,,,,,,416.5635588,416.57900310000014,417.0625101999999,417.0674251999999,417.08575900000005,418.0126372,,,,,418.0127548999999,418.02802810000003,418.228611,418.2125181000001,417.08575900000005,,,,,,,,0,1,0.9238775999997415,None,,,,,,,,822,22,M,R,2026-02-18_11h27.00.693,VisualSearch_2526_3,,2025.2.4,2026-02-18 11h27.01.045175 +0100,
tilted.xlsx,The target is tilted.,117,84,4,10,0,1,1,1,1,1,1,1,0,0,0,0,1,7,8,117,space,11.741712500000176,None,0,1,5.321128200000203,None,space,4.626295600000049,None,0,0,0,0,,,,,10,4,84,5,418.228611,,,,,,,,,,,,,,,,,,,,,418.2132716000001,418.228611,418.7125728000001,418.7172000999999,418.73556259999987,424.06148129999974,,,,,424.06165699999974,424.07758079999985,424.2770964000001,424.26071550000006,418.73556259999987,,,,,,,,0,1,5.321128200000203,None,,,,,,,,822,22,M,R,2026-02-18_11h27.00.693,VisualSearch_2526_3,,2025.2.4,2026-02-18 11h27.01.045175 +0100,
tilted.xlsx,The target is tilted.,117,85,5,10,1,1,1,1,1,1,1,1,1,1,1,1,0,11,12,117,space,11.741712500000176,None,1,1,1.5205289999998968,None,space,4.626295600000049,None,0,0,0,0,,,,,10,5,85,0,424.2770964000001,,,,,,,,,,,,,,,,,,,,,424.26118480000014,424.2770964000001,424.76137530000005,424.7659027999998,424.78282609999997,426.31165729999975,,,,,426.31183009999995,426.3272272999998,426.5272710999998,426.5111096999999,424.78282609999997,,,,,,,,1,1,1.5205289999998968,None,,,,,,,,822,22,M,R,2026-02-18_11h27.00.693,VisualSearch_2526_3,,2025.2.4,2026-02-18 11h27.01.045175 +0100,
tilted.xlsx,The target is tilted.,117,86,6,10,0,1,1,1,0,0,0,0,0,0,0,0,1,3,4,117,space,11.741712500000176,None,0,1,2.1445260000000417,None,space,4.626295600000049,None,0,0,0,0,,,,,10,6,86,6,426.5272710999998,,,,,,,,,,,,,,,,,,,,,426.51187040000013,426.5272710999998,427.01120170000013,427.01642300000003,427.0348210000002,429.1945890000002,,,,,429.1947829999999,429.2100878000001,429.41011290000006,429.3938745999999,427.0348210000002,,,,,,,,0,1,2.1445260000000417,None,,,,,,,,822,22,M,R,2026-02-18_11h27.00.693,VisualSearch_2526_3,,2025.2.4,2026-02-18 11h27.01.045175 +0100,
tilted.xlsx,The target is tilted.,117,87,7,10,0,1,1,1,1,1,1,1,1,1,1,1,1,11,12,117,space,11.741712500000176,None,0,1,5.7843558999998095,None,space,4.626295600000049,None,0,0,0,0,,,,,10,7,87,4,429.41011290000006,,,,,,,,,,,,,,,,,,,,,429.39453360000016,429.41011290000006,429.8932341999998,429.8963557000002,429.90989649999983,435.7100326,,,,,435.7102107999999,435.72574769999983,435.925784,435.9095392999998,429.90989649999983,,,,,,,,0,1,5.7843558999998095,None,,,,,,,,822,22,M,R,2026-02-18_11h27.00.693,VisualSearch_2526_3,,2025.2.4,2026-02-18 11h27.01.045175 +0100,
tilted.xlsx,The target is tilted.,117,88,0,11,1,1,1,1,1,1,1,1,0,0,0,0,0,7,8,117,space,11.741712500000176,None,1,1,1.4011046999999053,None,space,4.626295600000049,None,0,0,0,0,,,,,11,0,88,1,435.925784,,,,,,,,,,,,,,,,,,,,,435.910222,435.925784,436.40929700000015,436.4119873999998,436.42515379999986,437.84316679999984,,,,,437.8433482999999,437.85859949999985,438.0587166999999,438.0422666999998,436.42515379999986,,,,,,,,1,1,1.4011046999999053,None,,,,,,,,822,22,M,R,2026-02-18_11h27.00.693,VisualSearch_2526_3,,2025.2.4,2026-02-18 11h27.01.045175 +0100,
tilted.xlsx,The target is tilted.,117,89,1,11,0,1,1,1,0,0,0,0,0,0,0,0,1,3,4,117,space,11.741712500000176,None,0,1,1.5617621000001236,None,space,4.626295600000049,None,0,0,0,0,,,,,11,1,89,6,438.0587166999999,,,,,,,,,,,,,,,,,,,,,438.04270050000014,438.0587166999999,438.54249500000014,438.5471217999998,438.56274380000013,440.1260897000002,,,,,440.12626569999975,440.14159949999976,440.34170760000006,440.3255245999999,438.56274380000013,,,,,,,,0,1,1.5617621000001236,None,,,,,,,,822,22,M,R,2026-02-18_11h27.00.693,VisualSearch_2526_3,,2025.2.4,2026-02-18 11h27.01.045175 +0100,
tilted.xlsx,The target is tilted.,117,90,2,11,0,1,1,1,1,1,1,1,0,0,0,0,1,7,8,117,space,11.741712500000176,None,0,1,3.7530651000001853,None,space,4.626295600000049,None,0,0,0,0,,,,,11,2,90,5,440.34170760000006,,,,,,,,,,,,,,,,,,,,,440.32629369999995,440.34170760000006,440.8252650999998,440.8298884999999,440.8476692999998,444.60854870000003,,,,,444.60870780000005,444.62421129999984,444.82392389999995,444.8083095000002,440.8476692999998,,,,,,,,0,1,3.7530651000001853,None,,,,,,,,822,22,M,R,2026-02-18_11h27.00.693,VisualSearch_2526_3,,2025.2.4,2026-02-18 11h27.01.045175 +0100,
tilted.xlsx,The target is tilted.,117,91,3,11,1,1,1,1,0,0,0,0,0,0,0,0,0,3,4,117,space,11.741712500000176,None,1,1,0.9919193000000632,None,space,4.626295600000049,None,0,0,0,0,,,,,11,3,91,2,444.82392389999995,,,,,,,,,,,,,,,,,,,,,444.80905970000003,444.82392389999995,445.30818550000004,445.3127687000001,445.3302272000001,446.3247200999999,,,,,446.3248963000001,446.3406890000001,446.5402334999999,446.5245144999999,445.3302272000001,,,,,,,,1,1,0.9919193000000632,None,,,,,,,,822,22,M,R,2026-02-18_11h27.00.693,VisualSearch_2526_3,,2025.2.4,2026-02-18 11h27.01.045175 +0100,
tilted.xlsx,The target is tilted.,117,92,4,11,1,0,0,0,0,0,0,0,0,0,0,0,0,0,1,117,space,11.741712500000176,None,1,1,0.6743889999997918,None,space,4.626295600000049,None,0,0,0,0,,,,,11,4,92,3,446.5402334999999,,,,,,,,,,,,,,,,,,,,,446.5252657000001,446.5402334999999,447.0243467999999,447.0288851999999,447.04672299999993,447.72422719999986,,,,,447.72439209999993,447.7402929,447.94044870000016,447.9244488999998,447.04672299999993,,,,,,,,1,1,0.6743889999997918,None,,,,,,,,822,22,M,R,2026-02-18_11h27.00.693,VisualSearch_2526_3,,2025.2.4,2026-02-18 11h27.01.045175 +0100,
tilted.xlsx,The target is tilted.,117,93,5,11,0,1,1,1,1,1,1,1,1,1,1,1,1,11,12,117,space,11.741712500000176,None,0,1,6.028803799999878,None,space,4.626295600000049,None,0,0,0,0,,,,,11,5,93,4,447.94044870000016,,,,,,,,,,,,,,,,,,,,,447.9252812999998,447.94044870000016,448.42402790000006,448.4291465000001,448.44773380000015,454.49041480000005,,,,,454.4905936,454.50591080000004,454.70603249999976,454.6897316999998,448.44773380000015,,,,,,,,0,1,6.028803799999878,None,,,,,,,,822,22,M,R,2026-02-18_11h27.00.693,VisualSearch_2526_3,,2025.2.4,2026-02-18 11h27.01.045175 +0100,
tilted.xlsx,The target is tilted.,117,94,6,11,0,0,0,0,0,0,0,0,0,0,0,0,1,1,1,117,space,11.741712500000176,None,0,1,0.6644922000000406,None,space,4.626295600000049,None,0,0,0,0,,,,,11,6,94,7,454.70603249999976,,,,,,,,,,,,,,,,,,,,,454.6903917999998,454.70603249999976,455.18981380000014,455.1943265,455.2118504,455.89018450000003,,,,,455.89035879999983,455.9057305000001,456.10575689999996,456.0896914,455.2118504,,,,,,,,0,1,0.6644922000000406,None,,,,,,,,822,22,M,R,2026-02-18_11h27.00.693,VisualSearch_2526_3,,2025.2.4,2026-02-18 11h27.01.045175 +0100,
tilted.xlsx,The target is tilted.,117,95,7,11,1,1,1,1,1,1,1,1,1,1,1,1,0,11,12,117,space,11.741712500000176,None,1,1,4.558243999999831,None,space,4.626295600000049,None,0,0,0,0,,,,,11,7,95,0,456.10575689999996,,,,,,,,,,,,,,,,,,,,,456.0904157,456.10575689999996,456.58965480000006,456.5949958000001,456.6139183999999,461.1890343,,,,,461.18910890000006,461.2048423000001,461.4049697999999,461.3888216999999,456.6139183999999,,,,,,,,1,1,4.558243999999831,None,,,,,,,,822,22,M,R,2026-02-18_11h27.00.693,VisualSearch_2526_3,,2025.2.4,2026-02-18 11h27.01.045175 +0100,
tilted.xlsx,The target is tilted.,117,96,0,12,0,0,0,0,0,0,0,0,0,0,0,0,1,1,1,117,space,11.741712500000176,None,0,1,0.6189712999998846,None,space,4.626295600000049,None,0,0,0,0,,,,,12,0,96,7,461.4049697999999,,,,,,,,,,,,,,,,,,,,,461.3895523000001,461.4049697999999,461.8883267000001,461.89285359999985,461.90975019999996,462.5392164,,,,,462.5394108999999,462.55458510000017,462.7546659999998,462.73840280000013,461.90975019999996,,,,,,,,0,1,0.6189712999998846,None,,,,,,,,822,22,M,R,2026-02-18_11h27.00.693,VisualSearch_2526_3,,2025.2.4,2026-02-18 11h27.01.045175 +0100,
tilted.xlsx,The target is tilted.,117,97,1,12,1,0,0,0,0,0,0,0,0,0,0,0,0,0,1,117,space,11.741712500000176,None,1,1,0.7305299999998169,None,space,4.626295600000049,None,0,0,0,0,,,,,12,1,97,3,462.7546659999998,,,,,,,,,,,,,,,,,,,,,462.7391428000001,462.7546659999998,463.2387531999998,463.2445152,463.2642476000001,464.00521320000007,,,,,464.00536999999986,464.0210685000002,464.2210657999999,464.2047588999999,463.2642476000001,,,,,,,,1,1,0.7305299999998169,None,,,,,,,,822,22,M,R,2026-02-18_11h27.00.693,VisualSearch_2526_3,,2025.2.4,2026-02-18 11h27.01.045175 +0100,
tilted.xlsx,The target is tilted.,117,98,2,12,1,1,1,1,1,1,1,1,0,0,0,0,0,7,8,117,space,11.741712500000176,None,1,1,0.6599820000001273,None,space,4.626295600000049,None,0,0,0,0,,,,,12,2,98,1,464.2210657999999,,,,,,,,,,,,,,,,,,,,,464.2055212,464.2210657999999,464.7049557,464.7094606999999,464.7274118999999,465.38873049999984,,,,,465.38891749999993,465.4038799,465.6038334,465.58795759999975,464.7274118999999,,,,,,,,1,1,0.6599820000001273,None,,,,,,,,822,22,M,R,2026-02-18_11h27.00.693,VisualSearch_2526_3,,2025.2.4,2026-02-18 11h27.01.045175 +0100,
tilted.xlsx,The target is tilted.,117,99,3,12,0,1,1,1,1,1,1,1,0,0,0,0,1,7,8,117,space,11.741712500000176,None,0,1,3.0682261000001745,None,space,4.626295600000049,None,0,0,0,0,,,,,12,3,99,5,465.6038334,,,,,,,,,,,,,,,,,,,,,465.5888209,465.6038334,466.08824049999976,466.09337879999975,466.11186799999996,469.18785179999986,,,,,469.1880295000001,469.2032218999998,469.4029909000001,469.38676239999995,466.11186799999996,,,,,,,,0,1,3.0682261000001745,None,,,,,,,,822,22,M,R,2026-02-18_11h27.00.693,VisualSearch_2526_3,,2025.2.4,2026-02-18 11h27.01.045175 +0100,
tilted.xlsx,The target is tilted.,117,100,4,12,0,1,1,1,1,1,1,1,1,1,1,1,1,11,12,117,space,11.741712500000176,None,0,1,3.276665100000173,None,space,4.626295600000049,None,0,0,0,0,,,,,12,4,100,4,469.4029909000001,,,,,,,,,,,,,,,,,,,,,469.3872157999999,469.4029909000001,469.8874329,469.8919824999998,469.9097490999998,473.20331739999983,,,,,473.2034699000001,473.2191564,473.4191731000001,473.40340909999986,469.9097490999998,,,,,,,,0,1,3.276665100000173,None,,,,,,,,822,22,M,R,2026-02-18_11h27.00.693,VisualSearch_2526_3,,2025.2.4,2026-02-18 11h27.01.045175 +0100,
tilted.xlsx,The target is tilted.,117,101,5,12,0,1,1,1,0,0,0,0,0,0,0,0,1,3,4,117,space,11.741712500000176,None,0,1,1.525313399999959,None,space,4.626295600000049,None,0,0,0,0,,,,,12,5,101,6,473.4191731000001,,,,,,,,,,,,,,,,,,,,,473.40416049999976,473.4191731000001,473.9033264999998,473.90799289999995,473.92589259999977,475.4534156999998,,,,,475.4535740000001,475.46880409999994,475.66935109999986,475.6530696,473.92589259999977,,,,,,,,0,1,1.525313399999959,None,,,,,,,,822,22,M,R,2026-02-18_11h27.00.693,VisualSearch_2526_3,,2025.2.4,2026-02-18 11h27.01.045175 +0100,
tilted.xlsx,The target is tilted.,117,102,6,12,1,1,1,1,1,1,1,1,1,1,1,1,0,11,12,117,space,11.741712500000176,None,0,0,3.4022836999997708,None,space,4.626295600000049,None,0,0,0,0,,,,,12,6,102,0,475.66935109999986,,,,,,,,,,,,,,,,,,,,,475.65379840000014,475.66935109999986,476.1528936999998,476.15767689999984,476.1760261999998,479.5861764000001,,,,,479.58635330000016,479.60177440000007,479.80169399999977,479.7857211999999,476.1760261999998,,,,,,,,0,0,3.4022836999997708,None,,,,,,,,822,22,M,R,2026-02-18_11h27.00.693,VisualSearch_2526_3,,2025.2.4,2026-02-18 11h27.01.045175 +0100,
tilted.xlsx,The target is tilted.,117,103,7,12,1,1,1,1,0,0,0,0,0,0,0,0,0,3,4,117,space,11.741712500000176,None,1,1,1.1136686999998346,None,space,4.626295600000049,None,0,0,0,0,,,,,12,7,103,2,479.80169399999977,,,,,,,,,,,,,,,,,,,,,479.7864491999999,479.80169399999977,480.2852659,480.2879361,480.3015869999999,481.4188687000001,,,,,481.4190411999998,481.43479769999976,481.63489359999994,481.61868830000003,480.3015869999999,,,,,,,,1,1,1.1136686999998346,None,,,,,,,,822,22,M,R,2026-02-18_11h27.00.693,VisualSearch_2526_3,,2025.2.4,2026-02-18 11h27.01.045175 +0100,
tilted.xlsx,The target is tilted.,117,104,0,13,0,1,1,1,0,0,0,0,0,0,0,0,1,3,4,117,space,11.741712500000176,None,0,1,1.2070229999999356,None,space,4.626295600000049,None,0,0,0,0,,,,,13,0,104,6,481.63489359999994,,,,,,,,,,,,,,,,,,,,,481.6194759,481.63489359999994,482.11873400000013,482.1233238,482.1400208,483.35236910000003,,,,,483.3525617,483.3678930000001,483.56783559999985,483.5512871000001,482.1400208,,,,,,,,0,1,1.2070229999999356,None,,,,,,,,822,22,M,R,2026-02-18_11h27.00.693,VisualSearch_2526_3,,2025.2.4,2026-02-18 11h27.01.045175 +0100,
tilted.xlsx,The target is tilted.,117,105,1,13,0,0,0,0,0,0,0,0,0,0,0,0,1,1,1,117,space,11.741712500000176,None,0,1,0.8082430000004024,None,space,4.626295600000049,None,0,0,0,0,,,,,13,1,105,7,483.56783559999985,,,,,,,,,,,,,,,,,,,,,483.5517285000001,483.56783559999985,484.05182060000016,484.0571270999999,484.07660780000015,484.9017316999998,,,,,484.9019232999999,484.9176394000001,485.1177474000001,485.10164940000004,484.07660780000015,,,,,,,,0,1,0.8082430000004024,None,,,,,,,,822,22,M,R,2026-02-18_11h27.00.693,VisualSearch_2526_3,,2025.2.4,2026-02-18 11h27.01.045175 +0100,
tilted.xlsx,The target is tilted.,117,106,2,13,0,1,1,1,1,1,1,1,1,1,1,1,1,11,12,117,space,11.741712500000176,None,0,1,6.8415445999999065,None,space,4.626295600000049,None,0,0,0,0,,,,,13,2,106,4,485.1177474000001,,,,,,,,,,,,,,,,,,,,,485.10246529999995,485.1177474000001,485.6014415999998,485.6059006999999,485.6235821,492.4669712,,,,,492.4671451999998,492.4829788000002,492.6831149999998,492.6670051000001,485.6235821,,,,,,,,0,1,6.8415445999999065,None,,,,,,,,822,22,M,R,2026-02-18_11h27.00.693,VisualSearch_2526_3,,2025.2.4,2026-02-18 11h27.01.045175 +0100,
tilted.xlsx,The target is tilted.,117,107,3,13,1,0,0,0,0,0,0,0,0,0,0,0,0,0,1,117,space,11.741712500000176,None,1,1,0.8410450999999739,None,space,4.626295600000049,None,0,0,0,0,,,,,13,3,107,3,492.6831149999998,,,,,,,,,,,,,,,,,,,,,492.6677193999999,492.6831149999998,493.1669301000002,493.1714480999999,493.1874735000001,494.03376179999987,,,,,494.03395580000006,494.0493826000002,494.24945149999985,494.23333760000014,493.1874735000001,,,,,,,,1,1,0.8410450999999739,None,,,,,,,,822,22,M,R,2026-02-18_11h27.00.693,VisualSearch_2526_3,,2025.2.4,2026-02-18 11h27.01.045175 +0100,
tilted.xlsx,The target is tilted.,117,108,4,13,1,1,1,1,1,1,1,1,1,1,1,1,0,11,12,117,space,11.741712500000176,None,1,1,2.911712600000101,None,space,4.626295600000049,None,0,0,0,0,,,,,13,4,108,0,494.24945149999985,,,,,,,,,,,,,,,,,,,,,494.2340586,494.24945149999985,494.73322259999986,494.73775909999995,494.7549978000002,497.6831763,,,,,497.68335160000015,497.6988047,497.89885330000016,497.8826310999998,494.7549978000002,,,,,,,,1,1,2.911712600000101,None,,,,,,,,822,22,M,R,2026-02-18_11h27.00.693,VisualSearch_2526_3,,2025.2.4,2026-02-18 11h27.01.045175 +0100,
tilted.xlsx,The target is tilted.,117,109,5,13,1,1,1,1,1,1,1,1,0,0,0,0,0,7,8,117,space,11.741712500000176,None,1,1,2.5894827000001897,None,space,4.626295600000049,None,0,0,0,0,,,,,13,5,109,1,497.89885330000016,,,,,,,,,,,,,,,,,,,,,497.88337169999977,497.89885330000016,498.3827918000002,498.38765950000015,498.4053135999998,500.9989673,,,,,500.99914119999994,501.01493630000004,501.21499330000006,501.1989165,498.4053135999998,,,,,,,,1,1,2.5894827000001897,None,,,,,,,,822,22,M,R,2026-02-18_11h27.00.693,VisualSearch_2526_3,,2025.2.4,2026-02-18 11h27.01.045175 +0100,
tilted.xlsx,The target is tilted.,117,110,6,13,1,1,1,1,0,0,0,0,0,0,0,0,0,3,4,117,space,11.741712500000176,None,1,1,0.9360160999999607,None,space,4.626295600000049,None,0,0,0,0,,,,,13,6,110,2,501.21499330000006,,,,,,,,,,,,,,,,,,,,,501.19963719999987,501.21499330000006,501.6984471999999,501.7030288000001,501.71917970000004,502.66574360000004,,,,,502.66591500000004,502.68140749999975,502.8813934,502.86528610000005,501.71917970000004,,,,,,,,1,1,0.9360160999999607,None,,,,,,,,822,22,M,R,2026-02-18_11h27.00.693,VisualSearch_2526_3,,2025.2.4,2026-02-18 11h27.01.045175 +0100,
tilted.xlsx,The target is tilted.,117,111,7,13,0,1,1,1,1,1,1,1,0,0,0,0,1,7,8,117,space,11.741712500000176,None,0,1,2.3142737999996825,None,space,4.626295600000049,None,0,0,0,0,,,,,13,7,111,5,502.8813934,,,,,,,,,,,,,,,,,,,,,502.8659991999998,502.8813934,503.36534089999986,503.3704763999999,503.3885414000001,505.7152464999999,,,,,505.71543470000006,505.73048549999976,505.9307595999999,505.9146289999999,503.3885414000001,,,,,,,,0,1,2.3142737999996825,None,,,,,,,,822,22,M,R,2026-02-18_11h27.00.693,VisualSearch_2526_3,,2025.2.4,2026-02-18 11h27.01.045175 +0100,
tilted.xlsx,The target is tilted.,117,112,0,14,0,0,0,0,0,0,0,0,0,0,0,0,1,1,1,117,space,11.741712500000176,None,0,1,0.783454299999903,None,space,4.626295600000049,None,0,0,0,0,,,,,14,0,112,7,505.9307595999999,,,,,,,,,,,,,,,,,,,,,505.91536369999994,505.9307595999999,506.41447830000016,506.4190503,506.4367808000002,507.2318154999998,,,,,507.2319910000001,507.2472942999998,507.44732049999993,507.4307012999998,506.4367808000002,,,,,,,,0,1,0.783454299999903,None,,,,,,,,822,22,M,R,2026-02-18_11h27.00.693,VisualSearch_2526_3,,2025.2.4,2026-02-18 11h27.01.045175 +0100,
tilted.xlsx,The target is tilted.,117,113,1,14,1,1,1,1,1,1,1,1,0,0,0,0,0,7,8,117,space,11.741712500000176,None,1,1,3.796922900000027,None,space,4.626295600000049,None,0,0,0,0,,,,,14,1,113,1,507.44732049999993,,,,,,,,,,,,,,,,,,,,,507.4312525999999,507.44732049999993,507.9303461999998,507.9330676999998,507.9470609,511.74722280000015,,,,,511.7473814,511.7631904,511.96325290000004,511.9470102,507.9470609,,,,,,,,1,1,3.796922900000027,None,,,,,,,,822,22,M,R,2026-02-18_11h27.00.693,VisualSearch_2526_3,,2025.2.4,2026-02-18 11h27.01.045175 +0100,
tilted.xlsx,The target is tilted.,117,114,2,14,1,0,0,0,0,0,0,0,0,0,0,0,0,0,1,117,space,11.741712500000176,None,1,1,0.6599273000001631,None,space,4.626295600000049,None,0,0,0,0,,,,,14,2,114,3,511.96325290000004,,,,,,,,,,,,,,,,,,,,,511.94768870000007,511.96325290000004,512.4468790000001,512.4514694,512.4687432000001,513.1305609000001,,,,,513.1307529999999,513.1461998999998,513.3462095,513.3296295999999,512.4687432000001,,,,,,,,1,1,0.6599273000001631,None,,,,,,,,822,22,M,R,2026-02-18_11h27.00.693,VisualSearch_2526_3,,2025.2.4,2026-02-18 11h27.01.045175 +0100,
tilted.xlsx,The target is tilted.,117,115,3,14,1,1,1,1,1,1,1,1,1,1,1,1,0,11,12,117,space,11.741712500000176,None,1,1,2.025503700000172,None,space,4.626295600000049,None,0,0,0,0,,,,,14,3,115,0,513.3462095,,,,,,,,,,,,,,,,,,,,,513.3300629999999,513.3462095,513.8299385999999,513.8356478999999,513.8554482999998,515.896589,,,,,515.8967683999999,515.9125291999999,516.1124592000001,516.0963668999998,513.8554482999998,,,,,,,,1,1,2.025503700000172,None,,,,,,,,822,22,M,R,2026-02-18_11h27.00.693,VisualSearch_2526_3,,2025.2.4,2026-02-18 11h27.01.045175 +0100,
tilted.xlsx,The target is tilted.,117,116,4,14,0,1,1,1,1,1,1,1,0,0,0,0,1,7,8,117,space,11.741712500000176,None,0,1,3.8738807999998244,None,space,4.626295600000049,None,0,0,0,0,,,,,14,4,116,5,516.1124592000001,,,,,,,,,,,,,,,,,,,,,516.0970425,516.1124592000001,516.5960455,516.5998943,516.6172480999999,520.4956074000002,,,,,520.495805,520.5113327999998,520.7118107000001,520.6957155,516.6172480999999,,,,,,,,0,1,3.8738807999998244,None,,,,,,,,822,22,M,R,2026-02-18_11h27.00.693,VisualSearch_2526_3,,2025.2.4,2026-02-18 11h27.01.045175 +0100,
tilted.xlsx,The target is tilted.,117,117,5,14,1,1,1,1,0,0,0,0,0,0,0,0,0,3,4,117,space,11.741712500000176,None,1,1,1.0404560000001766,None,space,4.626295600000049,None,0,0,0,0,,,,,14,5,117,2,520.7118107000001,,,,,,,,,,,,,,,,,,,,,520.6964363000002,520.7118107000001,521.1955185000002,521.2001064000001,521.218104,522.2623530000001,,,,,522.2625481,522.2781125000001,522.4780965999998,522.4616519000001,521.218104,,,,,,,,1,1,1.0404560000001766,None,,,,,,,,822,22,M,R,2026-02-18_11h27.00.693,VisualSearch_2526_3,,2025.2.4,2026-02-18 11h27.01.045175 +0100,
tilted.xlsx,The target is tilted.,117,118,6,14,0,1,1,1,1,1,1,1,1,1,1,1,1,11,12,117,space,11.741712500000176,None,0,1,5.591023899999982,None,space,4.626295600000049,None,0,0,0,0,,,,,14,6,118,4,522.4780965999998,,,,,,,,,,,,,,,,,,,,,522.4624002999999,522.4780965999998,522.9621007999999,522.9672138000001,522.9853397000002,528.5778083,,,,,528.5779248999997,528.5936109999998,528.7937781999999,528.7774788000002,522.9853397000002,,,,,,,,0,1,5.591023899999982,None,,,,,,,,822,22,M,R,2026-02-18_11h27.00.693,VisualSearch_2526_3,,2025.2.4,2026-02-18 11h27.01.045175 +0100,
tilted.xlsx,The target is tilted.,117,119,7,14,0,1,1,1,0,0,0,0,0,0,0,0,1,3,4,117,space,11.741712500000176,None,0,1,1.349534699999822,None,space,4.626295600000049,None,0,0,0,0,,,,,14,7,119,6,528.7937781999999,,,,,,,,,,,,,,,,,,,,,528.7782293999999,528.7937781999999,529.2774988000001,529.2819043,529.2987911,530.6610212,,,,,530.6611942999998,530.6768235,530.894918,530.8602623000002,529.2987911,,,,,,,,0,1,1.349534699999822,None,,,,,,,,822,22,M,R,2026-02-18_11h27.00.693,VisualSearch_2526_3,,2025.2.4,2026-02-18 11h27.01.045175 +0100,
tilted.xlsx,The target is tilted.,117,0,0,0,,,,,,,,,,,,,,,,,space,11.741712500000176,None,,,,,space,4.626295600000049,None,0,0,0,0,,,,,,,,,,,,,,,,,,,,,,,,,,,,,,,,,,,,,,,,,,,,,,,,,,,,,,,,,,,,,,,822,22,M,R,2026-02-18_11h27.00.693,VisualSearch_2526_3,,2025.2.4,2026-02-18 11h27.01.045175 +0100,
vertical.xlsx,The target is tilted.,135,0,0,0,1,1,1,1,0,0,0,0,0,0,0,0,0,3,4,135,space,5.124362900000051,None,1,1,0.5542664999998124,None,,,,0,1,1,1,0,0,0,2,,,,,536.0608508999999,,,,,,,,,,,,,,,530.894918,530.894918,530.894918,space,5.124362900000051,None,536.0561377999998,536.0608508999999,536.5427845999998,536.5474823,536.5651591000001,537.1267422999999,1,1,0.5542664999998124,None,537.1269164,537.1423955999999,537.3423822999998,537.3255933,,,,,,,,,,,,,,,,,,,,822,22,M,R,2026-02-18_11h27.00.693,VisualSearch_2526_3,,2025.2.4,2026-02-18 11h27.01.045175 +0100,
vertical.xlsx,The target is tilted.,135,1,1,0,1,1,1,1,1,1,1,1,1,1,1,1,0,11,12,135,space,5.124362900000051,None,1,1,1.297671100000116,None,,,,0,1,1,1,0,1,1,0,,,,,537.3423822999998,,,,,,,,,,,,,,,,,,,,,537.3260848,537.3423822999998,537.8257408,537.8285715000002,537.8441346,539.1430174000002,1,1,1.297671100000116,None,539.1431879000002,539.1583694000001,539.3588590999998,539.3425300999997,537.8441346,,,,,,,,,,,,,,,,,,,822,22,M,R,2026-02-18_11h27.00.693,VisualSearch_2526_3,,2025.2.4,2026-02-18 11h27.01.045175 +0100,
vertical.xlsx,The target is tilted.,135,2,2,0,1,1,1,1,1,1,1,1,0,0,0,0,0,7,8,135,space,5.124362900000051,None,1,1,2.8687386999999944,None,,,,0,1,1,1,0,2,2,1,,,,,539.3588590999998,,,,,,,,,,,,,,,,,,,,,539.3432404,539.3588590999998,539.8426005000001,539.8474499999998,539.8653433,542.7424132000001,1,1,2.8687386999999944,None,542.7425803000001,542.7580257999998,542.9582538999998,542.9419444999999,539.8653433,,,,,,,,,,,,,,,,,,,822,22,M,R,2026-02-18_11h27.00.693,VisualSearch_2526_3,,2025.2.4,2026-02-18 11h27.01.045175 +0100,
vertical.xlsx,The target is tilted.,135,3,3,0,0,0,0,0,0,0,0,0,0,0,0,0,1,1,1,135,space,5.124362900000051,None,0,1,0.6443812000002254,None,,,,0,1,1,1,0,3,3,7,,,,,542.9582538999998,,,,,,,,,,,,,,,,,,,,,542.9426247000001,542.9582538999998,543.4417463,543.4463488000001,543.4624183000001,544.1090238000002,0,1,0.6443812000002254,None,544.1091929999998,544.1245902000001,544.3245265,544.3083877999998,543.4624183000001,,,,,,,,,,,,,,,,,,,822,22,M,R,2026-02-18_11h27.00.693,VisualSearch_2526_3,,2025.2.4,2026-02-18 11h27.01.045175 +0100,
vertical.xlsx,The target is tilted.,135,4,4,0,1,0,0,0,0,0,0,0,0,0,0,0,0,0,1,135,space,5.124362900000051,None,1,1,0.690268500000002,None,,,,0,1,1,1,0,4,4,3,,,,,544.3245265,,,,,,,,,,,,,,,,,,,,,544.3090705999998,544.3245265,544.8076596999999,544.8104579999999,544.8242862000002,545.5250282000002,1,1,0.690268500000002,None,545.5251413000001,545.5409009999998,545.7409717999999,545.7248939000001,544.8242862000002,,,,,,,,,,,,,,,,,,,822,22,M,R,2026-02-18_11h27.00.693,VisualSearch_2526_3,,2025.2.4,2026-02-18 11h27.01.045175 +0100,
vertical.xlsx,The target is tilted.,135,5,5,0,0,1,1,1,1,1,1,1,1,1,1,1,1,11,12,135,space,5.124362900000051,None,0,1,4.098435899999913,None,,,,0,1,1,1,0,5,5,4,,,,,545.7409717999999,,,,,,,,,,,,,,,,,,,,,545.7255547,545.7409717999999,546.2249363999999,546.2303467000002,546.2490637999999,550.3571981,0,1,4.098435899999913,None,550.3573127999998,550.3730095999999,550.5731547999999,550.5572275999998,546.2490637999999,,,,,,,,,,,,,,,,,,,822,22,M,R,2026-02-18_11h27.00.693,VisualSearch_2526_3,,2025.2.4,2026-02-18 11h27.01.045175 +0100,
vertical.xlsx,The target is tilted.,135,6,6,0,0,1,1,1,0,0,0,0,0,0,0,0,1,3,4,135,space,5.124362900000051,None,0,1,0.9683992999998736,None,,,,0,1,1,1,0,6,6,6,,,,,550.5731547999999,,,,,,,,,,,,,,,,,,,,,550.5578959,550.5731547999999,551.0574590000001,551.0622186999999,551.0800811999998,552.0575936,0,1,0.9683992999998736,None,552.0577601,552.0731320999998,552.2731527000001,552.2571472999998,551.0800811999998,,,,,,,,,,,,,,,,,,,822,22,M,R,2026-02-18_11h27.00.693,VisualSearch_2526_3,,2025.2.4,2026-02-18 11h27.01.045175 +0100,
vertical.xlsx,The target is tilted.,135,7,7,0,0,1,1,1,1,1,1,1,0,0,0,0,1,7,8,135,space,5.124362900000051,None,0,1,1.4769297999996525,None,,,,0,1,1,1,0,7,7,5,,,,,552.2731527000001,,,,,,,,,,,,,,,,,,,,,552.2578078000001,552.2731527000001,552.7569536999999,552.7614849000001,552.7751291,554.2570704999998,0,1,1.4769297999996525,None,554.2572386000002,554.2727970999999,554.4728860999999,554.4567105000001,552.7751291,,,,,,,,,,,,,,,,,,,822,22,M,R,2026-02-18_11h27.00.693,VisualSearch_2526_3,,2025.2.4,2026-02-18 11h27.01.045175 +0100,
vertical.xlsx,The target is tilted.,135,0,0,0,0,1,1,1,1,1,1,1,1,1,1,1,1,11,12,135,space,5.124362900000051,None,0,1,2.228669600000103,None,space,1.1981790999998339,None,0,1,1,1,,,,,0,0,0,4,555.7085825999998,,,,,,,,,,,,,,,,,,,,,555.7040219,555.7085825999998,556.1899579999999,556.1930434000001,556.2245136000001,558.4563841999998,,,,,558.4565309,558.4720926,558.6722049,558.6560533000002,,554.4635023000001,554.4728860999999,554.4728860999999,555.6730899999998,space,1.1981790999998339,None,0,1,2.228669600000103,None,,,,,,,,822,22,M,R,2026-02-18_11h27.00.693,VisualSearch_2526_3,,2025.2.4,2026-02-18 11h27.01.045175 +0100,
vertical.xlsx,The target is tilted.,135,1,1,0,1,1,1,1,0,0,0,0,0,0,0,0,0,3,4,135,space,5.124362900000051,None,1,1,0.8063308999999208,None,space,1.1981790999998339,None,0,1,1,1,,,,,0,1,1,2,558.6722049,,,,,,,,,,,,,,,,,,,,,558.6567651999999,558.6722049,559.1557965000002,559.1604201999999,559.1782607999999,559.9891963999999,,,,,559.9893744999999,560.0046828,560.2052908999999,560.1893535999998,559.1782607999999,,,,,,,,1,1,0.8063308999999208,None,,,,,,,,822,22,M,R,2026-02-18_11h27.00.693,VisualSearch_2526_3,,2025.2.4,2026-02-18 11h27.01.045175 +0100,
vertical.xlsx,The target is tilted.,135,2,2,0,0,1,1,1,0,0,0,0,0,0,0,0,1,3,4,135,space,5.124362900000051,None,0,1,0.7890717999998742,None,space,1.1981790999998339,None,0,1,1,1,,,,,0,2,2,6,560.2052908999999,,,,,,,,,,,,,,,,,,,,,560.1900824999998,560.2052908999999,560.6892827000001,560.6944444000001,560.7133776999999,561.5059053999998,,,,,561.5061009000001,561.5216562999999,561.7216754000001,561.7055761000001,560.7133776999999,,,,,,,,0,1,0.7890717999998742,None,,,,,,,,822,22,M,R,2026-02-18_11h27.00.693,VisualSearch_2526_3,,2025.2.4,2026-02-18 11h27.01.045175 +0100,
vertical.xlsx,The target is tilted.,135,3,3,0,1,1,1,1,1,1,1,1,1,1,1,1,0,11,12,135,space,5.124362900000051,None,1,1,0.8197675999999774,None,space,1.1981790999998339,None,0,1,1,1,,,,,0,3,3,0,561.7216754000001,,,,,,,,,,,,,,,,,,,,,561.7062934999999,561.7216754000001,562.2050644000001,562.2077408999999,562.2213946000002,563.0559050000002,,,,,563.0560995999999,563.0713635000002,563.2708781000001,563.2556301,562.2213946000002,,,,,,,,1,1,0.8197675999999774,None,,,,,,,,822,22,M,R,2026-02-18_11h27.00.693,VisualSearch_2526_3,,2025.2.4,2026-02-18 11h27.01.045175 +0100,
vertical.xlsx,The target is tilted.,135,4,4,0,1,1,1,1,1,1,1,1,0,0,0,0,0,7,8,135,space,5.124362900000051,None,1,1,0.9528574999999364,None,space,1.1981790999998339,None,0,1,1,1,,,,,0,4,4,1,563.2708781000001,,,,,,,,,,,,,,,,,,,,,563.2565018,563.2708781000001,563.7553395,563.7605506999998,563.7790098,564.7388636999999,,,,,564.7390365000001,564.7543110000001,564.9544906000001,564.9380897000001,563.7790098,,,,,,,,1,1,0.9528574999999364,None,,,,,,,,822,22,M,R,2026-02-18_11h27.00.693,VisualSearch_2526_3,,2025.2.4,2026-02-18 11h27.01.045175 +0100,
vertical.xlsx,The target is tilted.,135,5,5,0,0,1,1,1,1,1,1,1,0,0,0,0,1,7,8,135,space,5.124362900000051,None,0,1,1.0513323999998647,None,space,1.1981790999998339,None,0,1,1,1,,,,,0,5,5,5,564.9544906000001,,,,,,,,,,,,,,,,,,,,,564.9386688,564.9544906000001,565.4379082,565.4427119000002,565.4562129999999,566.5219349999998,,,,,566.5221474,566.5371175,566.7371984000001,566.7212805999998,565.4562129999999,,,,,,,,0,1,1.0513323999998647,None,,,,,,,,822,22,M,R,2026-02-18_11h27.00.693,VisualSearch_2526_3,,2025.2.4,2026-02-18 11h27.01.045175 +0100,
vertical.xlsx,The target is tilted.,135,6,6,0,0,0,0,0,0,0,0,0,0,0,0,0,1,1,1,135,space,5.124362900000051,None,0,1,0.633907200000067,None,space,1.1981790999998339,None,0,1,1,1,,,,,0,6,6,7,566.7371984000001,,,,,,,,,,,,,,,,,,,,,566.7220523000001,566.7371984000001,567.2211809,567.2256775999999,567.2433157999999,567.8884870000002,,,,,567.8886787000001,567.9038522000001,568.1040232999999,568.0879045000001,567.2433157999999,,,,,,,,0,1,0.633907200000067,None,,,,,,,,822,22,M,R,2026-02-18_11h27.00.693,VisualSearch_2526_3,,2025.2.4,2026-02-18 11h27.01.045175 +0100,
vertical.xlsx,The target is tilted.,135,7,7,0,1,0,0,0,0,0,0,0,0,0,0,0,0,0,1,135,space,5.124362900000051,None,1,1,0.625532199999725,None,space,1.1981790999998339,None,0,1,1,1,,,,,0,7,7,3,568.1040232999999,,,,,,,,,,,,,,,,,,,,,568.0886211000002,568.1040232999999,568.5878984999999,568.5930217,568.6111078999998,569.2378195000001,,,,,569.2380013000002,569.2533736,569.4537986,569.4375538999998,568.6111078999998,,,,,,,,1,1,0.625532199999725,None,,,,,,,,822,22,M,R,2026-02-18_11h27.00.693,VisualSearch_2526_3,,2025.2.4,2026-02-18 11h27.01.045175 +0100,
vertical.xlsx,The target is tilted.,135,8,0,1,0,1,1,1,1,1,1,1,0,0,0,0,1,7,8,135,space,5.124362900000051,None,0,1,1.0504675000001953,None,space,1.1981790999998339,None,0,1,1,1,,,,,1,0,8,5,569.4537986,,,,,,,,,,,,,,,,,,,,,569.4383136000001,569.4537986,569.9376424000002,569.9421576,569.9605225999999,571.0211423000001,,,,,571.0213168,571.0368797000001,571.2368215000001,571.2203033000001,569.9605225999999,,,,,,,,0,1,1.0504675000001953,None,,,,,,,,822,22,M,R,2026-02-18_11h27.00.693,VisualSearch_2526_3,,2025.2.4,2026-02-18 11h27.01.045175 +0100,
vertical.xlsx,The target is tilted.,135,9,1,1,1,1,1,1,0,0,0,0,0,0,0,0,0,3,4,135,space,5.124362900000051,None,1,1,0.6300559999999678,None,space,1.1981790999998339,None,0,1,1,1,,,,,1,1,9,2,571.2368215000001,,,,,,,,,,,,,,,,,,,,,571.2210860999999,571.2368215000001,571.7203599999998,571.7253418,571.7437503000001,572.3877287999999,,,,,572.3879246000001,572.4030677000001,572.6032583000001,572.5870234999998,571.7437503000001,,,,,,,,1,1,0.6300559999999678,None,,,,,,,,822,22,M,R,2026-02-18_11h27.00.693,VisualSearch_2526_3,,2025.2.4,2026-02-18 11h27.01.045175 +0100,
vertical.xlsx,The target is tilted.,135,10,2,1,1,1,1,1,1,1,1,1,1,1,1,1,0,11,12,135,space,5.124362900000051,None,0,0,0.910252600000149,None,space,1.1981790999998339,None,0,1,1,1,,,,,1,2,10,0,572.6032583000001,,,,,,,,,,,,,,,,,,,,,572.5877082000002,572.6032583000001,573.0865982,573.0892737999998,573.1031588999999,574.0203861,,,,,574.0205780000001,574.0362522999999,574.2363547999998,574.2199557999998,573.1031588999999,,,,,,,,0,0,0.910252600000149,None,,,,,,,,822,22,M,R,2026-02-18_11h27.00.693,VisualSearch_2526_3,,2025.2.4,2026-02-18 11h27.01.045175 +0100,
vertical.xlsx,The target is tilted.,135,11,3,1,0,1,1,1,1,1,1,1,1,1,1,1,1,11,12,135,space,5.124362900000051,None,0,1,0.7612983000003624,None,space,1.1981790999998339,None,0,1,1,1,,,,,1,3,11,4,574.2363547999998,,,,,,,,,,,,,,,,,,,,,574.2207715999998,574.2363547999998,574.719521,574.7222278999998,574.7361053999998,575.5036765999998,,,,,575.5038515000001,575.5192748999998,575.7190952999999,575.7031947999999,574.7361053999998,,,,,,,,0,1,0.7612983000003624,None,,,,,,,,822,22,M,R,2026-02-18_11h27.00.693,VisualSearch_2526_3,,2025.2.4,2026-02-18 11h27.01.045175 +0100,
vertical.xlsx,The target is tilted.,135,12,4,1,0,0,0,0,0,0,0,0,0,0,0,0,1,1,1,135,space,5.124362900000051,None,0,1,0.6285772000001089,None,space,1.1981790999998339,None,0,1,1,1,,,,,1,4,12,7,575.7190952999999,,,,,,,,,,,,,,,,,,,,,575.7039641000001,575.7190952999999,576.2032844999999,576.2084736000002,576.2268221999998,576.8707933999999,,,,,576.8709921,576.8853218999998,577.0857938999998,577.0698241999999,576.2268221999998,,,,,,,,0,1,0.6285772000001089,None,,,,,,,,822,22,M,R,2026-02-18_11h27.00.693,VisualSearch_2526_3,,2025.2.4,2026-02-18 11h27.01.045175 +0100,
vertical.xlsx,The target is tilted.,135,13,5,1,0,1,1,1,0,0,0,0,0,0,0,0,1,3,4,135,space,5.124362900000051,None,0,1,0.5348586000000068,None,space,1.1981790999998339,None,0,1,1,1,,,,,1,5,13,6,577.0857938999998,,,,,,,,,,,,,,,,,,,,,577.0706307,577.0857938999998,577.5698207,577.5745572000001,577.5928571999998,578.1367959999998,,,,,578.1369957000002,578.1517564999999,578.3523328000001,578.3363497,577.5928571999998,,,,,,,,0,1,0.5348586000000068,None,,,,,,,,822,22,M,R,2026-02-18_11h27.00.693,VisualSearch_2526_3,,2025.2.4,2026-02-18 11h27.01.045175 +0100,
vertical.xlsx,The target is tilted.,135,14,6,1,1,0,0,0,0,0,0,0,0,0,0,0,0,0,1,135,space,5.124362900000051,None,1,1,0.6015594000000419,None,space,1.1981790999998339,None,0,1,1,1,,,,,1,6,14,3,578.3523328000001,,,,,,,,,,,,,,,,,,,,,578.3371625,578.3523328000001,578.8359584999998,578.8405818000001,578.8581534,579.4699772999998,,,,,579.4701805,579.4853219000001,579.6853018000002,579.6692078000001,578.8581534,,,,,,,,1,1,0.6015594000000419,None,,,,,,,,822,22,M,R,2026-02-18_11h27.00.693,VisualSearch_2526_3,,2025.2.4,2026-02-18 11h27.01.045175 +0100,
vertical.xlsx,The target is tilted.,135,15,7,1,1,1,1,1,1,1,1,1,0,0,0,0,0,7,8,135,space,5.124362900000051,None,1,1,0.7349469000000681,None,space,1.1981790999998339,None,0,1,1,1,,,,,1,7,15,1,579.6853018000002,,,,,,,,,,,,,,,,,,,,,579.6699783999998,579.6853018000002,580.168373,580.1710972999999,580.1851391999999,580.9362351,,,,,580.9364258999999,580.9517713,581.1518734000001,581.1357982,580.1851391999999,,,,,,,,1,1,0.7349469000000681,None,,,,,,,,822,22,M,R,2026-02-18_11h27.00.693,VisualSearch_2526_3,,2025.2.4,2026-02-18 11h27.01.045175 +0100,
vertical.xlsx,The target is tilted.,135,16,0,2,0,1,1,1,1,1,1,1,1,1,1,1,1,11,12,135,space,5.124362900000051,None,0,1,1.8297686999999314,None,space,1.1981790999998339,None,0,1,1,1,,,,,2,0,16,4,581.1518734000001,,,,,,,,,,,,,,,,,,,,,581.1368118999999,581.1518734000001,581.6358297000002,581.6409401999999,581.6602837,583.5024247000001,,,,,583.5025971999999,583.5179690999998,583.7179763999998,583.7015473000001,581.6602837,,,,,,,,0,1,1.8297686999999314,None,,,,,,,,822,22,M,R,2026-02-18_11h27.00.693,VisualSearch_2526_3,,2025.2.4,2026-02-18 11h27.01.045175 +0100,
vertical.xlsx,The target is tilted.,135,17,1,2,1,0,0,0,0,0,0,0,0,0,0,0,0,0,1,135,space,5.124362900000051,None,1,1,0.5746278999999959,None,space,1.1981790999998339,None,0,1,1,1,,,,,2,1,17,3,583.7179763999998,,,,,,,,,,,,,,,,,,,,,583.7023543,583.7179763999998,584.2019329,584.2072394000002,584.2258001,584.8019481000001,,,,,584.8021401000001,584.8177768999999,585.0176667999999,585.0013061,584.2258001,,,,,,,,1,1,0.5746278999999959,None,,,,,,,,822,22,M,R,2026-02-18_11h27.00.693,VisualSearch_2526_3,,2025.2.4,2026-02-18 11h27.01.045175 +0100,
vertical.xlsx,The target is tilted.,135,18,2,2,1,1,1,1,1,1,1,1,1,1,1,1,0,11,12,135,space,5.124362900000051,None,1,1,1.1209077999997135,None,space,1.1981790999998339,None,0,1,1,1,,,,,2,2,18,0,585.0176667999999,,,,,,,,,,,,,,,,,,,,,585.0020129,585.0176667999999,585.5017328999998,585.5068996999998,585.5252774,586.6512911,,,,,586.6514103,586.6675555000002,586.8675660999997,586.8512866000001,585.5252774,,,,,,,,1,1,1.1209077999997135,None,,,,,,,,822,22,M,R,2026-02-18_11h27.00.693,VisualSearch_2526_3,,2025.2.4,2026-02-18 11h27.01.045175 +0100,
vertical.xlsx,The target is tilted.,135,19,3,2,0,1,1,1,0,0,0,0,0,0,0,0,1,3,4,135,space,5.124362900000051,None,0,1,0.8260510000000068,None,space,1.1981790999998339,None,0,1,1,1,,,,,2,3,19,6,586.8675660999997,,,,,,,,,,,,,,,,,,,,,586.8521421999999,586.8675660999997,587.3512526,587.3558795999998,587.3742590000002,588.2019421,,,,,588.2021715000001,588.2169417,588.4168863999998,588.4010374999998,587.3742590000002,,,,,,,,0,1,0.8260510000000068,None,,,,,,,,822,22,M,R,2026-02-18_11h27.00.693,VisualSearch_2526_3,,2025.2.4,2026-02-18 11h27.01.045175 +0100,
vertical.xlsx,The target is tilted.,135,20,4,2,0,0,0,0,0,0,0,0,0,0,0,0,1,1,1,135,space,5.124362900000051,None,0,1,0.6250020000002223,None,space,1.1981790999998339,None,0,1,1,1,,,,,2,4,20,7,588.4168863999998,,,,,,,,,,,,,,,,,,,,,588.4018406999999,588.4168863999998,588.9009385999998,588.9057813999998,588.9238052999999,589.5514761,,,,,589.5516689000001,589.5669893999998,589.7671632000001,589.7509528,588.9238052999999,,,,,,,,0,1,0.6250020000002223,None,,,,,,,,822,22,M,R,2026-02-18_11h27.00.693,VisualSearch_2526_3,,2025.2.4,2026-02-18 11h27.01.045175 +0100,
vertical.xlsx,The target is tilted.,135,21,5,2,0,1,1,1,1,1,1,1,0,0,0,0,1,7,8,135,space,5.124362900000051,None,0,1,0.7788006000000678,None,space,1.1981790999998339,None,0,1,1,1,,,,,2,5,21,5,589.7671632000001,,,,,,,,,,,,,,,,,,,,,589.7517139000001,589.7671632000001,590.2507956999998,590.2559369999999,590.2746459999998,591.0680097999998,,,,,591.0682059999999,591.0834264999999,591.2836302999999,591.2675558999999,590.2746459999998,,,,,,,,0,1,0.7788006000000678,None,,,,,,,,822,22,M,R,2026-02-18_11h27.00.693,VisualSearch_2526_3,,2025.2.4,2026-02-18 11h27.01.045175 +0100,
vertical.xlsx,The target is tilted.,135,22,6,2,1,1,1,1,0,0,0,0,0,0,0,0,0,3,4,135,space,5.124362900000051,None,1,1,0.6035297999997056,None,space,1.1981790999998339,None,0,1,1,1,,,,,2,6,22,2,591.2836302999999,,,,,,,,,,,,,,,,,,,,,591.2684304999998,591.2836302999999,591.7673786999999,591.7726090000001,591.7918309000001,592.4008054999999,,,,,592.4009987,592.4165975999999,592.6164162999999,592.5997975,591.7918309000001,,,,,,,,1,1,0.6035297999997056,None,,,,,,,,822,22,M,R,2026-02-18_11h27.00.693,VisualSearch_2526_3,,2025.2.4,2026-02-18 11h27.01.045175 +0100,
vertical.xlsx,The target is tilted.,135,23,7,2,1,1,1,1,1,1,1,1,0,0,0,0,0,7,8,135,space,5.124362900000051,None,1,1,0.6121166999996603,None,space,1.1981790999998339,None,0,1,1,1,,,,,2,7,23,1,592.6164162999999,,,,,,,,,,,,,,,,,,,,,592.6002346999999,592.6164162999999,593.1004377999998,593.1053517999999,593.1159831,593.7341929999998,,,,,593.7343842999999,593.7496366999999,593.9494103000002,593.9337178000001,593.1159831,,,,,,,,1,1,0.6121166999996603,None,,,,,,,,822,22,M,R,2026-02-18_11h27.00.693,VisualSearch_2526_3,,2025.2.4,2026-02-18 11h27.01.045175 +0100,
vertical.xlsx,The target is tilted.,135,24,0,3,1,1,1,1,1,1,1,1,1,1,1,1,0,11,12,135,space,5.124362900000051,None,1,1,1.1160321999996086,None,space,1.1981790999998339,None,0,1,1,1,,,,,3,0,24,0,593.9494103000002,,,,,,,,,,,,,,,,,,,,,593.9345616999999,593.9494103000002,594.4336087000001,594.4389093,594.4586651999998,595.5838789,,,,,595.5840720000001,595.5992962999999,595.7995559000001,595.7833811999999,594.4586651999998,,,,,,,,1,1,1.1160321999996086,None,,,,,,,,822,22,M,R,2026-02-18_11h27.00.693,VisualSearch_2526_3,,2025.2.4,2026-02-18 11h27.01.045175 +0100,
vertical.xlsx,The target is tilted.,135,25,1,3,1,0,0,0,0,0,0,0,0,0,0,0,0,0,1,135,space,5.124362900000051,None,1,1,0.47768889999997555,None,space,1.1981790999998339,None,0,1,1,1,,,,,3,1,25,3,595.7995559000001,,,,,,,,,,,,,,,,,,,,,595.7842138999999,595.7995559000001,596.2831652999998,596.2877423,596.3056139999999,596.8002929999998,,,,,596.8004842,596.8158568999997,597.0158802000001,596.9996618999999,596.3056139999999,,,,,,,,1,1,0.47768889999997555,None,,,,,,,,822,22,M,R,2026-02-18_11h27.00.693,VisualSearch_2526_3,,2025.2.4,2026-02-18 11h27.01.045175 +0100,
vertical.xlsx,The target is tilted.,135,26,2,3,1,1,1,1,0,0,0,0,0,0,0,0,0,3,4,135,space,5.124362900000051,None,0,0,0.8542950000000928,None,space,1.1981790999998339,None,0,1,1,1,,,,,3,2,26,2,597.0158802000001,,,,,,,,,,,,,,,,,,,,,597.0003523,597.0158802000001,597.4988474000002,597.5009897,597.5157205999999,598.3834308999999,,,,,598.3836246999999,598.3988673999997,598.5987461999998,598.5823937,597.5157205999999,,,,,,,,0,0,0.8542950000000928,None,,,,,,,,822,22,M,R,2026-02-18_11h27.00.693,VisualSearch_2526_3,,2025.2.4,2026-02-18 11h27.01.045175 +0100,
vertical.xlsx,The target is tilted.,135,27,3,3,1,1,1,1,1,1,1,1,0,0,0,0,0,7,8,135,space,5.124362900000051,None,0,0,1.6943944999998166,None,space,1.1981790999998339,None,0,1,1,1,,,,,3,3,27,1,598.5987461999998,,,,,,,,,,,,,,,,,,,,,598.5828446,598.5987461999998,599.0825042000001,599.0881270999998,599.1088261999998,600.8163791000002,,,,,600.8165734999998,600.8317963,601.0318272,601.0155958999999,599.1088261999998,,,,,,,,0,0,1.6943944999998166,None,,,,,,,,822,22,M,R,2026-02-18_11h27.00.693,VisualSearch_2526_3,,2025.2.4,2026-02-18 11h27.01.045175 +0100,
vertical.xlsx,The target is tilted.,135,28,4,3,0,1,1,1,0,0,0,0,0,0,0,0,1,3,4,135,space,5.124362900000051,None,0,1,0.7096632999996473,None,space,1.1981790999998339,None,0,1,1,1,,,,,3,4,28,6,601.0318272,,,,,,,,,,,,,,,,,,,,,601.0163191000001,601.0318272,601.5147689,601.5175089999998,601.5323828999999,602.2484043,,,,,602.2485244999998,602.2642599999999,602.4643080999999,602.4479407999997,601.5323828999999,,,,,,,,0,1,0.7096632999996473,None,,,,,,,,822,22,M,R,2026-02-18_11h27.00.693,VisualSearch_2526_3,,2025.2.4,2026-02-18 11h27.01.045175 +0100,
vertical.xlsx,The target is tilted.,135,29,5,3,0,1,1,1,1,1,1,1,1,1,1,1,1,11,12,135,space,5.124362900000051,None,0,1,1.040791100000206,None,space,1.1981790999998339,None,0,1,1,1,,,,,3,5,29,4,602.4643080999999,,,,,,,,,,,,,,,,,,,,,602.4484208999997,602.4643080999999,602.9484505999999,602.9517866000001,602.9656890000001,604.0151486,,,,,604.0152563000001,604.0307280000002,,604.2154679999999,602.9656890000001,,,,,,,,0,1,1.040791100000206,None,,,,,,,,822,22,M,R,2026-02-18_11h27.00.693,VisualSearch_2526_3,,2025.2.4,2026-02-18 11h27.01.045175 +0100,
vertical.xlsx,The target is tilted.,135,30,6,3,0,0,0,0,0,0,0,0,0,0,0,0,1,1,1,135,space,5.124362900000051,None,0,1,0.5208830999999918,None,space,1.1981790999998339,None,0,1,1,1,,,,,3,6,30,7,604.2312821999999,,,,,,,,,,,,,,,,,,,,,604.2159609,604.2312821999999,604.7143188999999,604.7166920999998,604.7305482000002,605.2656606999999,,,,,605.2658538000001,605.2810668000002,605.4811801000001,605.4651702000001,604.7305482000002,,,,,,,,0,1,0.5208830999999918,None,,,,,,,,822,22,M,R,2026-02-18_11h27.00.693,VisualSearch_2526_3,,2025.2.4,2026-02-18 11h27.01.045175 +0100,
vertical.xlsx,The target is tilted.,135,31,7,3,0,1,1,1,1,1,1,1,0,0,0,0,1,7,8,135,space,5.124362900000051,None,0,1,0.9554896999998164,None,space,1.1981790999998339,None,0,1,1,1,,,,,3,7,31,5,605.4811801000001,,,,,,,,,,,,,,,,,,,,,605.4659972,605.4811801000001,605.9651331999999,605.9704090999999,605.9893406000001,606.9483581999998,,,,,606.9485473,606.9640387999998,607.1642099000001,607.1481543,605.9893406000001,,,,,,,,0,1,0.9554896999998164,None,,,,,,,,822,22,M,R,2026-02-18_11h27.00.693,VisualSearch_2526_3,,2025.2.4,2026-02-18 11h27.01.045175 +0100,
vertical.xlsx,The target is tilted.,135,32,0,4,0,0,0,0,0,0,0,0,0,0,0,0,1,1,1,135,space,5.124362900000051,None,0,1,0.5112295999997514,None,space,1.1981790999998339,None,0,1,1,1,,,,,4,0,32,7,607.1642099000001,,,,,,,,,,,,,,,,,,,,,607.1488656000001,607.1642099000001,607.6481902999999,607.6534342,607.6716790999999,608.1973902,,,,,608.1974977,608.2138254000001,608.4137943000001,608.3975565000001,607.6716790999999,,,,,,,,0,1,0.5112295999997514,None,,,,,,,,822,22,M,R,2026-02-18_11h27.00.693,VisualSearch_2526_3,,2025.2.4,2026-02-18 11h27.01.045175 +0100,
vertical.xlsx,The target is tilted.,135,33,1,4,0,1,1,1,0,0,0,0,0,0,0,0,1,3,4,135,space,5.124362900000051,None,0,1,1.2614478000000418,None,space,1.1981790999998339,None,0,1,1,1,,,,,4,1,33,6,608.4137943000001,,,,,,,,,,,,,,,,,,,,,608.3980246000001,608.4137943000001,608.8971127999998,608.899926,608.9133345999999,610.1810731999999,,,,,610.1812669999999,610.1970599000001,610.3970931999997,610.3810131999999,608.9133345999999,,,,,,,,0,1,1.2614478000000418,None,,,,,,,,822,22,M,R,2026-02-18_11h27.00.693,VisualSearch_2526_3,,2025.2.4,2026-02-18 11h27.01.045175 +0100,
vertical.xlsx,The target is tilted.,135,34,2,4,1,1,1,1,0,0,0,0,0,0,0,0,0,3,4,135,space,5.124362900000051,None,1,1,0.6533432999999604,None,space,1.1981790999998339,None,0,1,1,1,,,,,4,2,34,2,610.3970931999997,,,,,,,,,,,,,,,,,,,,,610.3818554999998,610.3970931999997,610.8808930999999,610.8860325,610.9050426999997,611.5645195000002,,,,,611.5647112000001,611.5800386999999,611.7798545,611.7640900000001,610.9050426999997,,,,,,,,1,1,0.6533432999999604,None,,,,,,,,822,22,M,R,2026-02-18_11h27.00.693,VisualSearch_2526_3,,2025.2.4,2026-02-18 11h27.01.045175 +0100,
vertical.xlsx,The target is tilted.,135,35,3,4,1,1,1,1,1,1,1,1,1,1,1,1,0,11,12,135,space,5.124362900000051,None,1,1,1.551872099999855,None,space,1.1981790999998339,None,0,1,1,1,,,,,4,3,35,0,611.7798545,,,,,,,,,,,,,,,,,,,,,611.7649160000001,611.7798545,612.2640698999999,612.2693052999998,612.2882967999999,613.8465706000002,,,,,613.8466887999998,613.8627007999999,,614.0468374000002,612.2882967999999,,,,,,,,1,1,1.551872099999855,None,,,,,,,,822,22,M,R,2026-02-18_11h27.00.693,VisualSearch_2526_3,,2025.2.4,2026-02-18 11h27.01.045175 +0100,
vertical.xlsx,The target is tilted.,135,36,4,4,1,1,1,1,1,1,1,1,0,0,0,0,0,7,8,135,space,5.124362900000051,None,1,1,0.7962361999998393,None,space,1.1981790999998339,None,0,1,1,1,,,,,4,4,36,1,614.0631131999999,,,,,,,,,,,,,,,,,,,,,614.0477477999998,614.0631131999999,614.5470141000001,614.5521737999998,614.5704130999998,615.3803011999998,,,,,615.3804949999999,615.3961254000001,615.5961013000001,615.5799234000001,614.5704130999998,,,,,,,,1,1,0.7962361999998393,None,,,,,,,,822,22,M,R,2026-02-18_11h27.00.693,VisualSearch_2526_3,,2025.2.4,2026-02-18 11h27.01.045175 +0100,
