file_name,block_instructions,target_example,thisN,thisTrialN,thisRepN,target_presence,opacity_1,opacity_2,opacity_3,opacity_4,opacity_5,opacity_6,opacity_7,opacity_8,opacity_9,opacity_10,opacity_11,opacity_12,n_distract,n_items,target_ori,key_resp_4.keys,key_resp_4.rt,key_resp_4.duration,key_resp.keys,key_resp.corr,key_resp.rt,key_resp.duration,key_resp_5.keys,key_resp_5.rt,key_resp_5.duration,blocks.thisRepN,blocks.thisTrialN,blocks.thisN,blocks.thisIndex,practice_trials.thisRepN,practice_trials.thisTrialN,practice_trials.thisN,practice_trials.thisIndex,trials.thisRepN,trials.thisTrialN,trials.thisN,trials.thisIndex,thisRow.t,notes,Welcome.started,WelcomeText.started,key_resp_2.started,Welcome.stopped,key_resp_2.keys,key_resp_2.rt,key_resp_2.duration,InformedConsent.started,text_4.started,InformedConsent.stopped,key_resp_6.keys,key_resp_6.rt,key_resp_6.duration,key_resp_4.started,example_target.started,text_3.started,blocks.key_resp_4.keys,blocks.key_resp_4.rt,blocks.key_resp_4.duration,FixCross.started,fixCross.started,FixCross.stopped,Stimulus.started,key_resp.started,Stimulus.stopped,practice_trials.key_resp.keys,practice_trials.key_resp.corr,practice_trials.key_resp.rt,practice_trials.key_resp.duration,BlankScreen.started,text.started,text.stopped,BlankScreen.stopped,fixCross.stopped,ExperimentStart.started,text_2.started,key_resp_5.started,ExperimentStart.stopped,blocks.key_resp_5.keys,blocks.key_resp_5.rt,blocks.key_resp_5.duration,trials.key_resp.keys,trials.key_resp.corr,trials.key_resp.rt,trials.key_resp.duration,Thanks.started,ThankYou.started,key_resp_3.started,Thanks.stopped,key_resp_3.keys,key_resp_3.rt,key_resp_3.duration,participant,leeftijd,gender,links/rechtshandig,date,expName,expVersion,psychopyVersion,expStart,
,,,,,,,,,,,,,,,,,,,,,,,,,,,,,,,,,,,,,,,,,,,,,,0.03934260000005452,0.05831860000034794,0.05831860000034794,33.8609206000001,space,33.78531740000017,None,,,,,,,,,,,,,,,,,,,,,,,,,,,,,,,,,,,,,,,,,,,,,,823,25,M,R,2026-02-18_11h46.18.774,VisualSearch_2526_3,,2025.2.4,2026-02-18 11h46.19.089410 +0100,
,,,,,,,,,,,,,,,,,,,,,,,,,,,,,,,,,,,,,,,,,,,,,,,,,,,,,33.86108830000012,33.87099050000006,37.194822300000396,y,3.329051300000174,None,,,,,,,,,,,,,,,,,,,,,,,,,,,,,,,,,,,,,,,,823,25,M,R,2026-02-18_11h46.18.774,VisualSearch_2526_3,,2025.2.4,2026-02-18 11h46.19.089410 +0100,
tilted.xlsx,The target is tilted.,117,0,0,0,0,1,1,1,0,0,0,0,0,0,0,0,1,3,4,117,space,6.356468999999834,None,0,1,1.320462199999838,None,,,,0,0,0,0,0,0,0,6,,,,,43.63440660000015,,,,,,,,,,,,,,,37.2437831000002,37.2437831000002,37.2437831000002,space,6.356468999999834,None,43.62849290000031,43.63440660000015,44.12520889999996,44.12807100000009,44.14178630000015,45.476270099999965,0,1,1.320462199999838,None,45.476418300000205,45.492145900000196,45.69221230000039,45.67621840000038,,,,,,,,,,,,,,,,,,,,823,25,M,R,2026-02-18_11h46.18.774,VisualSearch_2526_3,,2025.2.4,2026-02-18 11h46.19.089410 +0100,
tilted.xlsx,The target is tilted.,117,1,1,0,1,0,0,0,0,0,0,0,0,0,0,0,0,0,1,117,space,6.356468999999834,None,1,1,1.6054451999998491,None,,,,0,0,0,0,0,1,1,3,,,,,45.69221230000039,,,,,,,,,,,,,,,,,,,,,45.676958900000045,45.69221230000039,46.17613090000032,46.18130390000033,46.20135520000031,47.80912100000023,1,1,1.6054451999998491,None,47.809237000000394,47.82436340000004,48.025153700000374,48.00919270000031,46.20135520000031,,,,,,,,,,,,,,,,,,,823,25,M,R,2026-02-18_11h46.18.774,VisualSearch_2526_3,,2025.2.4,2026-02-18 11h46.19.089410 +0100,
tilted.xlsx,The target is tilted.,117,2,2,0,0,0,0,0,0,0,0,0,0,0,0,0,1,1,1,117,space,6.356468999999834,None,0,1,0.8359075000003031,None,,,,0,0,0,0,0,2,2,7,,,,,48.025153700000374,,,,,,,,,,,,,,,,,,,,,48.010030800000095,48.025153700000374,48.50902670000005,48.51421359999995,48.53484500000013,49.37580590000016,0,1,0.8359075000003031,None,49.3759943,49.3908335000001,49.59127699999999,49.575089500000104,48.53484500000013,,,,,,,,,,,,,,,,,,,823,25,M,R,2026-02-18_11h46.18.774,VisualSearch_2526_3,,2025.2.4,2026-02-18 11h46.19.089410 +0100,
tilted.xlsx,The target is tilted.,117,3,3,0,0,1,1,1,1,1,1,1,1,1,1,1,1,11,12,117,space,6.356468999999834,None,0,1,2.634976800000004,None,,,,0,0,0,0,0,3,3,4,,,,,49.59127699999999,,,,,,,,,,,,,,,,,,,,,49.575732000000244,49.59127699999999,50.07548110000016,50.08081549999997,50.09995770000023,52.741897000000336,0,1,2.634976800000004,None,52.74206490000006,52.75707990000001,52.95758790000036,52.941314200000306,50.09995770000023,,,,,,,,,,,,,,,,,,,823,25,M,R,2026-02-18_11h46.18.774,VisualSearch_2526_3,,2025.2.4,2026-02-18 11h46.19.089410 +0100,
tilted.xlsx,The target is tilted.,117,4,4,0,0,1,1,1,1,1,1,1,0,0,0,0,1,7,8,117,space,6.356468999999834,None,0,1,2.1094042999998237,None,,,,0,0,0,0,0,4,4,5,,,,,52.95758790000036,,,,,,,,,,,,,,,,,,,,,52.941970800000036,52.95758790000036,53.44129100000009,53.44599930000004,53.46418940000012,55.57481730000018,0,1,2.1094042999998237,None,55.57499410000037,55.589819199999965,55.79036900000028,55.77422650000017,53.46418940000012,,,,,,,,,,,,,,,,,,,823,25,M,R,2026-02-18_11h46.18.774,VisualSearch_2526_3,,2025.2.4,2026-02-18 11h46.19.089410 +0100,
tilted.xlsx,The target is tilted.,117,5,5,0,1,1,1,1,1,1,1,1,0,0,0,0,0,7,8,117,space,6.356468999999834,None,1,1,1.088028099999974,None,,,,0,0,0,0,0,5,5,1,,,,,55.79036900000028,,,,,,,,,,,,,,,,,,,,,55.77486070000032,55.79036900000028,56.273489100000006,56.27635650000002,56.29019280000011,57.3902951,1,1,1.088028099999974,None,57.39041470000029,57.40623010000036,57.60686710000027,57.59048610000036,56.29019280000011,,,,,,,,,,,,,,,,,,,823,25,M,R,2026-02-18_11h46.18.774,VisualSearch_2526_3,,2025.2.4,2026-02-18 11h46.19.089410 +0100,
tilted.xlsx,The target is tilted.,117,6,6,0,1,1,1,1,1,1,1,1,1,1,1,1,0,11,12,117,space,6.356468999999834,None,1,1,2.0480686999999307,None,,,,0,0,0,0,0,6,6,0,,,,,57.60686710000027,,,,,,,,,,,,,,,,,,,,,57.59113640000032,57.60686710000027,58.0906159000001,58.0957671000001,58.11520860000019,60.17412039999999,1,1,2.0480686999999307,None,60.174293000000034,60.189110300000266,60.389316000000235,60.37356910000017,58.11520860000019,,,,,,,,,,,,,,,,,,,823,25,M,R,2026-02-18_11h46.18.774,VisualSearch_2526_3,,2025.2.4,2026-02-18 11h46.19.089410 +0100,
tilted.xlsx,The target is tilted.,117,7,7,0,1,1,1,1,0,0,0,0,0,0,0,0,0,3,4,117,space,6.356468999999834,None,0,0,0.964693299999908,None,,,,0,0,0,0,0,7,7,2,,,,,60.389316000000235,,,,,,,,,,,,,,,,,,,,,60.37421459999996,60.389316000000235,60.87342230000013,60.878084599999966,60.8960917000004,61.87387080000008,0,0,0.964693299999908,None,61.87405780000017,61.88886860000002,62.08906230000002,62.07327090000035,60.8960917000004,,,,,,,,,,,,,,,,,,,823,25,M,R,2026-02-18_11h46.18.774,VisualSearch_2526_3,,2025.2.4,2026-02-18 11h46.19.089410 +0100,
tilted.xlsx,The target is tilted.,117,0,0,0,1,1,1,1,1,1,1,1,1,1,1,1,0,11,12,117,space,6.356468999999834,None,1,1,1.6059316999999282,None,space,3.5119535999997424,None,0,0,0,0,,,,,0,0,0,0,65.63178790000029,,,,,,,,,,,,,,,,,,,,,65.6274711000001,65.63178790000029,66.12196210000002,66.12557670000024,66.13837320000039,67.7552112000003,,,,,67.75530280000021,67.77102110000033,,67.95543530000032,,62.08012850000023,62.08906230000002,62.08906230000002,65.60600590000013,space,3.5119535999997424,None,1,1,1.6059316999999282,None,,,,,,,,823,25,M,R,2026-02-18_11h46.18.774,VisualSearch_2526_3,,2025.2.4,2026-02-18 11h46.19.089410 +0100,
tilted.xlsx,The target is tilted.,117,1,1,0,1,1,1,1,1,1,1,1,0,0,0,0,0,7,8,117,space,6.356468999999834,None,1,1,1.245141699999749,None,space,3.5119535999997424,None,0,0,0,0,,,,,0,1,1,1,67.971677,,,,,,,,,,,,,,,,,,,,,67.95628480000005,67.971677,68.45551100000012,68.4604790000003,68.47168570000031,69.72259710000026,,,,,69.72279200000003,69.73739950000027,69.9377300000001,69.92169200000035,,,,,,,,,1,1,1.245141699999749,None,,,,,,,,823,25,M,R,2026-02-18_11h46.18.774,VisualSearch_2526_3,,2025.2.4,2026-02-18 11h46.19.089410 +0100,
tilted.xlsx,The target is tilted.,117,2,2,0,1,0,0,0,0,0,0,0,0,0,0,0,0,0,1,117,space,6.356468999999834,None,1,1,0.7310680000000502,None,space,3.5119535999997424,None,0,0,0,0,,,,,0,2,2,3,69.9377300000001,,,,,,,,,,,,,,,,,,,,,69.9224663,69.9377300000001,70.42203470000004,70.42732569999998,70.44639959999995,71.18901020000021,,,,,71.1892071000002,71.20414310000024,71.40464090000023,71.38855590000003,70.44639959999995,,,,,,,,1,1,0.7310680000000502,None,,,,,,,,823,25,M,R,2026-02-18_11h46.18.774,VisualSearch_2526_3,,2025.2.4,2026-02-18 11h46.19.089410 +0100,
tilted.xlsx,The target is tilted.,117,3,3,0,1,1,1,1,0,0,0,0,0,0,0,0,0,3,4,117,space,6.356468999999834,None,1,1,0.7844483000003493,None,space,3.5119535999997424,None,0,0,0,0,,,,,0,3,3,2,71.40464090000023,,,,,,,,,,,,,,,,,,,,,71.38930860000028,71.40464090000023,71.88857880000023,71.89357930000006,71.90444320000006,72.70430750000014,,,,,72.70443130000012,72.72023950000039,,72.90462630000002,71.90444320000006,,,,,,,,1,1,0.7844483000003493,None,,,,,,,,823,25,M,R,2026-02-18_11h46.18.774,VisualSearch_2526_3,,2025.2.4,2026-02-18 11h46.19.089410 +0100,
tilted.xlsx,The target is tilted.,117,4,4,0,0,1,1,1,1,1,1,1,0,0,0,0,1,7,8,117,space,6.356468999999834,None,0,1,1.5176039999996647,None,space,3.5119535999997424,None,0,0,0,0,,,,,0,4,4,5,72.92090550000012,,,,,,,,,,,,,,,,,,,,,72.90538640000022,72.92090550000012,73.40449820000003,73.40986780000003,73.42858150000029,74.95508510000036,,,,,74.95527960000027,74.96996230000013,75.1704850000001,75.15440940000008,73.42858150000029,,,,,,,,0,1,1.5176039999996647,None,,,,,,,,823,25,M,R,2026-02-18_11h46.18.774,VisualSearch_2526_3,,2025.2.4,2026-02-18 11h46.19.089410 +0100,
tilted.xlsx,The target is tilted.,117,5,5,0,0,1,1,1,1,1,1,1,1,1,1,1,1,11,12,117,space,6.356468999999834,None,0,1,1.8537060999997266,None,space,3.5119535999997424,None,0,0,0,0,,,,,0,5,5,4,75.1704850000001,,,,,,,,,,,,,,,,,,,,,75.1551829,75.1704850000001,75.65430790000028,75.65956290000031,75.67820280000024,77.53797669999994,,,,,77.53817350000008,77.55313090000027,77.75360480000018,77.73761990000003,75.67820280000024,,,,,,,,0,1,1.8537060999997266,None,,,,,,,,823,25,M,R,2026-02-18_11h46.18.774,VisualSearch_2526_3,,2025.2.4,2026-02-18 11h46.19.089410 +0100,
tilted.xlsx,The target is tilted.,117,6,6,0,0,0,0,0,0,0,0,0,0,0,0,0,1,1,1,117,space,6.356468999999834,None,0,1,0.5471634000000449,None,space,3.5119535999997424,None,0,0,0,0,,,,,0,6,6,7,77.75360480000018,,,,,,,,,,,,,,,,,,,,,77.73847260000002,77.75360480000018,78.23731810000027,78.24182110000038,78.2600953000001,78.81991689999995,,,,,78.82004010000037,78.83584840000003,79.03656060000003,79.0202521000001,78.2600953000001,,,,,,,,0,1,0.5471634000000449,None,,,,,,,,823,25,M,R,2026-02-18_11h46.18.774,VisualSearch_2526_3,,2025.2.4,2026-02-18 11h46.19.089410 +0100,
tilted.xlsx,The target is tilted.,117,7,7,0,0,1,1,1,0,0,0,0,0,0,0,0,1,3,4,117,space,6.356468999999834,None,0,1,0.6840016000001015,None,space,3.5119535999997424,None,0,0,0,0,,,,,0,7,7,6,79.03656060000003,,,,,,,,,,,,,,,,,,,,,79.02107260000002,79.03656060000003,79.52013560000023,79.52479579999999,79.53660430000036,80.23700840000038,,,,,80.23720510000021,80.25245910000012,80.45267270000022,80.43653089999998,79.53660430000036,,,,,,,,0,1,0.6840016000001015,None,,,,,,,,823,25,M,R,2026-02-18_11h46.18.774,VisualSearch_2526_3,,2025.2.4,2026-02-18 11h46.19.089410 +0100,
tilted.xlsx,The target is tilted.,117,8,0,1,1,0,0,0,0,0,0,0,0,0,0,0,0,0,1,117,space,6.356468999999834,None,1,1,0.6599151000000347,None,space,3.5119535999997424,None,0,0,0,0,,,,,1,0,8,3,80.45267270000022,,,,,,,,,,,,,,,,,,,,,80.43726570000035,80.45267270000022,80.93696210000007,80.94214660000034,80.96114140000009,81.63650959999995,,,,,81.63663180000003,81.6520988000002,81.85291910000024,81.83680400000003,80.96114140000009,,,,,,,,1,1,0.6599151000000347,None,,,,,,,,823,25,M,R,2026-02-18_11h46.18.774,VisualSearch_2526_3,,2025.2.4,2026-02-18 11h46.19.089410 +0100,
tilted.xlsx,The target is tilted.,117,9,1,1,1,1,1,1,1,1,1,1,1,1,1,1,0,11,12,117,space,6.356468999999834,None,1,1,2.7228470000000016,None,space,3.5119535999997424,None,0,0,0,0,,,,,1,1,9,0,81.85291910000024,,,,,,,,,,,,,,,,,,,,,81.83763490000001,81.85291910000024,82.33653170000025,82.34170280000035,82.36054960000001,85.08674410000003,,,,,85.08692420000034,85.10153780000019,85.30225470000005,85.28612320000002,82.36054960000001,,,,,,,,1,1,2.7228470000000016,None,,,,,,,,823,25,M,R,2026-02-18_11h46.18.774,VisualSearch_2526_3,,2025.2.4,2026-02-18 11h46.19.089410 +0100,
tilted.xlsx,The target is tilted.,117,10,2,1,1,1,1,1,1,1,1,1,0,0,0,0,0,7,8,117,space,6.356468999999834,None,1,1,0.7958832000003895,None,space,3.5119535999997424,None,0,0,0,0,,,,,1,2,10,1,85.30225470000005,,,,,,,,,,,,,,,,,,,,,85.28677370000014,85.30225470000005,85.78582900000038,85.7899051000004,85.8052402000003,86.60304760000008,,,,,86.6032253000003,86.61796110000023,86.81806189999998,86.8026004000003,85.8052402000003,,,,,,,,1,1,0.7958832000003895,None,,,,,,,,823,25,M,R,2026-02-18_11h46.18.774,VisualSearch_2526_3,,2025.2.4,2026-02-18 11h46.19.089410 +0100,
tilted.xlsx,The target is tilted.,117,11,3,1,0,1,1,1,1,1,1,1,0,0,0,0,1,7,8,117,space,6.356468999999834,None,0,1,1.5576602000001003,None,space,3.5119535999997424,None,0,0,0,0,,,,,1,3,11,5,86.81806189999998,,,,,,,,,,,,,,,,,,,,,86.80339140000024,86.81806189999998,87.30246380000017,87.30697980000014,87.32407560000001,88.88529900000003,,,,,88.88544960000036,88.90107060000037,89.10161870000002,89.08538829999998,87.32407560000001,,,,,,,,0,1,1.5576602000001003,None,,,,,,,,823,25,M,R,2026-02-18_11h46.18.774,VisualSearch_2526_3,,2025.2.4,2026-02-18 11h46.19.089410 +0100,
tilted.xlsx,The target is tilted.,117,12,4,1,0,0,0,0,0,0,0,0,0,0,0,0,1,1,1,117,space,6.356468999999834,None,0,1,0.4972471000000951,None,space,3.5119535999997424,None,0,0,0,0,,,,,1,4,12,7,89.10161870000002,,,,,,,,,,,,,,,,,,,,,89.08614030000035,89.10161870000002,89.5853588,89.58960220000017,89.60627139999997,90.1182474000002,,,,,90.11837210000022,90.1340411000001,90.3347775000002,90.31855720000021,89.60627139999997,,,,,,,,0,1,0.4972471000000951,None,,,,,,,,823,25,M,R,2026-02-18_11h46.18.774,VisualSearch_2526_3,,2025.2.4,2026-02-18 11h46.19.089410 +0100,
tilted.xlsx,The target is tilted.,117,13,5,1,0,1,1,1,1,1,1,1,1,1,1,1,1,11,12,117,space,6.356468999999834,None,0,1,2.6912334999997256,None,space,3.5119535999997424,None,0,0,0,0,,,,,1,5,13,4,90.3347775000002,,,,,,,,,,,,,,,,,,,,,90.31930710000006,90.3347775000002,90.81870660000004,90.82332029999998,90.83461990000023,93.5352882000002,,,,,93.53546860000006,93.55009749999999,93.75070480000022,93.73424120000027,90.83461990000023,,,,,,,,0,1,2.6912334999997256,None,,,,,,,,823,25,M,R,2026-02-18_11h46.18.774,VisualSearch_2526_3,,2025.2.4,2026-02-18 11h46.19.089410 +0100,
tilted.xlsx,The target is tilted.,117,14,6,1,0,1,1,1,0,0,0,0,0,0,0,0,1,3,4,117,space,6.356468999999834,None,0,1,0.7179548999997678,None,space,3.5119535999997424,None,0,0,0,0,,,,,1,6,14,6,93.75070480000022,,,,,,,,,,,,,,,,,,,,,93.73489270000027,93.75070480000022,94.23477730000013,94.23967660000017,94.25035190000017,94.98397999999997,,,,,94.98410460000014,94.99987499999997,,95.18426240000008,94.25035190000017,,,,,,,,0,1,0.7179548999997678,None,,,,,,,,823,25,M,R,2026-02-18_11h46.18.774,VisualSearch_2526_3,,2025.2.4,2026-02-18 11h46.19.089410 +0100,
tilted.xlsx,The target is tilted.,117,15,7,1,1,1,1,1,0,0,0,0,0,0,0,0,0,3,4,117,space,6.356468999999834,None,0,0,0.8648929999999382,None,space,3.5119535999997424,None,0,0,0,0,,,,,1,7,15,2,95.20055960000036,,,,,,,,,,,,,,,,,,,,,95.1850273,95.20055960000036,95.68414920000032,95.68933800000013,95.70847630000026,96.5839345000004,,,,,96.58405800000037,96.59962150000001,96.7999847000001,96.78405640000028,95.70847630000026,,,,,,,,0,0,0.8648929999999382,None,,,,,,,,823,25,M,R,2026-02-18_11h46.18.774,VisualSearch_2526_3,,2025.2.4,2026-02-18 11h46.19.089410 +0100,
tilted.xlsx,The target is tilted.,117,16,0,2,1,1,1,1,1,1,1,1,0,0,0,0,0,7,8,117,space,6.356468999999834,None,1,1,0.7370038999997632,None,space,3.5119535999997424,None,0,0,0,0,,,,,2,0,16,1,96.7999847000001,,,,,,,,,,,,,,,,,,,,,96.78478080000014,96.7999847000001,97.28406170000017,97.28902460000018,97.30748519999997,98.05130069999996,,,,,98.05150090000006,98.06612489999998,98.26677070000005,98.2503300000003,97.30748519999997,,,,,,,,1,1,0.7370038999997632,None,,,,,,,,823,25,M,R,2026-02-18_11h46.18.774,VisualSearch_2526_3,,2025.2.4,2026-02-18 11h46.19.089410 +0100,
tilted.xlsx,The target is tilted.,117,17,1,2,0,1,1,1,1,1,1,1,0,0,0,0,1,7,8,117,space,6.356468999999834,None,0,1,1.7257800000002135,None,space,3.5119535999997424,None,0,0,0,0,,,,,2,1,17,5,98.26677070000005,,,,,,,,,,,,,,,,,,,,,98.25107790000038,98.26677070000005,98.74986560000025,98.75255719999996,98.76653759999999,100.50041980000015,,,,,100.50059790000023,100.51577530000031,100.71632680000039,100.70006250000006,98.76653759999999,,,,,,,,0,1,1.7257800000002135,None,,,,,,,,823,25,M,R,2026-02-18_11h46.18.774,VisualSearch_2526_3,,2025.2.4,2026-02-18 11h46.19.089410 +0100,
tilted.xlsx,The target is tilted.,117,18,2,2,0,1,1,1,0,0,0,0,0,0,0,0,1,3,4,117,space,6.356468999999834,None,0,1,0.8682436999997662,None,space,3.5119535999997424,None,0,0,0,0,,,,,2,2,18,6,100.71632680000039,,,,,,,,,,,,,,,,,,,,,100.70079040000019,100.71632680000039,101.19993260000001,101.20526710000013,101.22492290000037,102.10028080000029,,,,,102.10048930000039,102.11555180000005,102.31615800000009,102.29966230000036,101.22492290000037,,,,,,,,0,1,0.8682436999997662,None,,,,,,,,823,25,M,R,2026-02-18_11h46.18.774,VisualSearch_2526_3,,2025.2.4,2026-02-18 11h46.19.089410 +0100,
tilted.xlsx,The target is tilted.,117,19,3,2,1,0,0,0,0,0,0,0,0,0,0,0,0,0,1,117,space,6.356468999999834,None,1,1,0.6270001000002594,None,space,3.5119535999997424,None,0,0,0,0,,,,,2,3,19,3,102.31615800000009,,,,,,,,,,,,,,,,,,,,,102.30040790000021,102.31615800000009,102.7995707,102.80420870000034,102.82173920000014,103.45034560000022,,,,,103.45054670000036,103.46534680000013,103.66529920000039,103.64953090000017,102.82173920000014,,,,,,,,1,1,0.6270001000002594,None,,,,,,,,823,25,M,R,2026-02-18_11h46.18.774,VisualSearch_2526_3,,2025.2.4,2026-02-18 11h46.19.089410 +0100,
tilted.xlsx,The target is tilted.,117,20,4,2,1,1,1,1,1,1,1,1,1,1,1,1,0,11,12,117,space,6.356468999999834,None,1,1,1.7127056999997876,None,space,3.5119535999997424,None,0,0,0,0,,,,,2,4,20,0,103.66529920000039,,,,,,,,,,,,,,,,,,,,,103.65019510000002,103.66529920000039,104.14965900000016,104.1548127000001,104.1730950000001,105.8991173000004,,,,,105.89927990000024,105.91493720000017,106.11547130000008,106.09922930000039,104.1730950000001,,,,,,,,1,1,1.7127056999997876,None,,,,,,,,823,25,M,R,2026-02-18_11h46.18.774,VisualSearch_2526_3,,2025.2.4,2026-02-18 11h46.19.089410 +0100,
tilted.xlsx,The target is tilted.,117,21,5,2,0,1,1,1,1,1,1,1,1,1,1,1,1,11,12,117,space,6.356468999999834,None,0,1,3.1787814999997863,None,space,3.5119535999997424,None,0,0,0,0,,,,,2,5,21,4,106.11547130000008,,,,,,,,,,,,,,,,,,,,,106.09997410000005,106.11547130000008,106.5993383,106.60411139999997,106.62267670000028,109.81508190000022,,,,,109.81524900000022,109.83079100000032,110.03150970000024,110.0152836000002,106.62267670000028,,,,,,,,0,1,3.1787814999997863,None,,,,,,,,823,25,M,R,2026-02-18_11h46.18.774,VisualSearch_2526_3,,2025.2.4,2026-02-18 11h46.19.089410 +0100,
tilted.xlsx,The target is tilted.,117,22,6,2,1,1,1,1,0,0,0,0,0,0,0,0,0,3,4,117,space,6.356468999999834,None,1,1,0.7700571999998829,None,space,3.5119535999997424,None,0,0,0,0,,,,,2,6,22,2,110.03150970000024,,,,,,,,,,,,,,,,,,,,,110.01598630000035,110.03150970000024,110.5155622000002,110.52061410000033,110.53902319999997,111.31567780000023,,,,,111.31585519999999,111.33060390000037,111.53116020000016,111.51497890000019,110.53902319999997,,,,,,,,1,1,0.7700571999998829,None,,,,,,,,823,25,M,R,2026-02-18_11h46.18.774,VisualSearch_2526_3,,2025.2.4,2026-02-18 11h46.19.089410 +0100,
tilted.xlsx,The target is tilted.,117,23,7,2,0,0,0,0,0,0,0,0,0,0,0,0,1,1,1,117,space,6.356468999999834,None,0,1,0.6435235999997531,None,space,3.5119535999997424,None,0,0,0,0,,,,,2,7,23,7,111.53116020000016,,,,,,,,,,,,,,,,,,,,,111.51572050000004,111.53116020000016,112.01471489999994,112.02076870000019,112.03455230000009,112.6816702000001,,,,,112.68184910000036,112.6971725000003,112.89751580000029,112.88114710000036,112.03455230000009,,,,,,,,0,1,0.6435235999997531,None,,,,,,,,823,25,M,R,2026-02-18_11h46.18.774,VisualSearch_2526_3,,2025.2.4,2026-02-18 11h46.19.089410 +0100,
tilted.xlsx,The target is tilted.,117,24,0,3,0,0,0,0,0,0,0,0,0,0,0,0,1,1,1,117,space,6.356468999999834,None,0,1,0.5805841999999757,None,space,3.5119535999997424,None,0,0,0,0,,,,,3,0,24,7,112.89751580000029,,,,,,,,,,,,,,,,,,,,,112.88161770000033,112.89751580000029,113.38140169999997,113.38646920000019,113.40591350000022,113.99859960000003,,,,,113.99879660000033,114.01344450000033,114.21407799999997,114.1976582000002,113.40591350000022,,,,,,,,0,1,0.5805841999999757,None,,,,,,,,823,25,M,R,2026-02-18_11h46.18.774,VisualSearch_2526_3,,2025.2.4,2026-02-18 11h46.19.089410 +0100,
tilted.xlsx,The target is tilted.,117,25,1,3,1,1,1,1,1,1,1,1,1,1,1,1,0,11,12,117,space,6.356468999999834,None,1,1,2.2879117999996197,None,space,3.5119535999997424,None,0,0,0,0,,,,,3,1,25,0,114.21407799999997,,,,,,,,,,,,,,,,,,,,,114.19840569999997,114.21407799999997,114.69817409999996,114.70338040000024,114.72211830000015,117.01439340000024,,,,,117.01457359999995,117.02954670000008,117.22993240000005,117.21387930000037,114.72211830000015,,,,,,,,1,1,2.2879117999996197,None,,,,,,,,823,25,M,R,2026-02-18_11h46.18.774,VisualSearch_2526_3,,2025.2.4,2026-02-18 11h46.19.089410 +0100,
tilted.xlsx,The target is tilted.,117,26,2,3,0,1,1,1,1,1,1,1,1,1,1,1,1,11,12,117,space,6.356468999999834,None,0,1,2.3045053000000735,None,space,3.5119535999997424,None,0,0,0,0,,,,,3,2,26,4,117.22993240000005,,,,,,,,,,,,,,,,,,,,,117.21435150000025,117.22993240000005,117.71385740000005,117.7185456000002,117.73761869999998,120.04756339999994,,,,,120.04776260000017,120.06259990000035,120.26317370000015,120.24706820000029,117.73761869999998,,,,,,,,0,1,2.3045053000000735,None,,,,,,,,823,25,M,R,2026-02-18_11h46.18.774,VisualSearch_2526_3,,2025.2.4,2026-02-18 11h46.19.089410 +0100,
tilted.xlsx,The target is tilted.,117,27,3,3,0,1,1,1,1,1,1,1,0,0,0,0,1,7,8,117,space,6.356468999999834,None,0,1,2.1946673000002193,None,space,3.5119535999997424,None,0,0,0,0,,,,,3,3,27,5,120.26317370000015,,,,,,,,,,,,,,,,,,,,,120.24778250000008,120.26317370000015,120.74716149999995,120.75238230000014,120.77152270000033,122.97932119999996,,,,,122.97944420000022,122.99523960000033,123.19543199999998,123.17937960000017,120.77152270000033,,,,,,,,0,1,2.1946673000002193,None,,,,,,,,823,25,M,R,2026-02-18_11h46.18.774,VisualSearch_2526_3,,2025.2.4,2026-02-18 11h46.19.089410 +0100,
tilted.xlsx,The target is tilted.,117,28,4,3,1,1,1,1,0,0,0,0,0,0,0,0,0,3,4,117,space,6.356468999999834,None,1,1,0.767342500000268,None,space,3.5119535999997424,None,0,0,0,0,,,,,3,4,28,2,123.19543199999998,,,,,,,,,,,,,,,,,,,,,123.17983040000036,123.19543199999998,123.67972720000034,123.68488479999996,123.69598160000032,124.4792808000002,,,,,124.47942970000031,124.49508250000008,124.69577300000037,124.67966130000013,123.69598160000032,,,,,,,,1,1,0.767342500000268,None,,,,,,,,823,25,M,R,2026-02-18_11h46.18.774,VisualSearch_2526_3,,2025.2.4,2026-02-18 11h46.19.089410 +0100,
tilted.xlsx,The target is tilted.,117,29,5,3,0,1,1,1,0,0,0,0,0,0,0,0,1,3,4,117,space,6.356468999999834,None,0,1,0.9001299999999901,None,space,3.5119535999997424,None,0,0,0,0,,,,,3,5,29,6,124.69577300000037,,,,,,,,,,,,,,,,,,,,,124.68039130000034,124.69577300000037,125.17956730000014,125.18468050000001,125.1954267000001,126.11251940000011,,,,,126.11269220000031,126.12819340000033,126.3284463,126.31265450000001,,,,,,,,,0,1,0.9001299999999901,None,,,,,,,,823,25,M,R,2026-02-18_11h46.18.774,VisualSearch_2526_3,,2025.2.4,2026-02-18 11h46.19.089410 +0100,
tilted.xlsx,The target is tilted.,117,30,6,3,1,1,1,1,1,1,1,1,0,0,0,0,0,7,8,117,space,6.356468999999834,None,0,0,2.2567337999998927,None,space,3.5119535999997424,None,0,0,0,0,,,,,3,6,30,1,126.3284463,,,,,,,,,,,,,,,,,,,,,126.31338189999997,126.3284463,126.81274930000018,126.81794750000017,126.83658160000005,129.09599200000002,,,,,129.09616790000018,129.1109521000003,129.31168049999997,129.29546140000002,126.83658160000005,,,,,,,,0,0,2.2567337999998927,None,,,,,,,,823,25,M,R,2026-02-18_11h46.18.774,VisualSearch_2526_3,,2025.2.4,2026-02-18 11h46.19.089410 +0100,
tilted.xlsx,The target is tilted.,117,31,7,3,1,0,0,0,0,0,0,0,0,0,0,0,0,0,1,117,space,6.356468999999834,None,1,1,0.6465582000000722,None,space,3.5119535999997424,None,0,0,0,0,,,,,3,7,31,3,129.31168049999997,,,,,,,,,,,,,,,,,,,,,129.29622880000034,129.31168049999997,129.79510960000016,129.7985402000004,129.81252310000036,130.4625578,,,,,130.46275220000007,130.47760960000005,130.67821330000015,130.6619495,129.81252310000036,,,,,,,,1,1,0.6465582000000722,None,,,,,,,,823,25,M,R,2026-02-18_11h46.18.774,VisualSearch_2526_3,,2025.2.4,2026-02-18 11h46.19.089410 +0100,
tilted.xlsx,The target is tilted.,117,32,0,4,0,1,1,1,0,0,0,0,0,0,0,0,1,3,4,117,space,6.356468999999834,None,0,1,0.7496840999997403,None,space,3.5119535999997424,None,0,0,0,0,,,,,4,0,32,6,130.67821330000015,,,,,,,,,,,,,,,,,,,,,130.66268620000028,130.67821330000015,131.16201309999997,131.1673197,131.18654630000037,131.94494350000014,,,,,131.94507950000025,131.96046230000002,132.16120030000002,132.14498850000018,131.18654630000037,,,,,,,,0,1,0.7496840999997403,None,,,,,,,,823,25,M,R,2026-02-18_11h46.18.774,VisualSearch_2526_3,,2025.2.4,2026-02-18 11h46.19.089410 +0100,
tilted.xlsx,The target is tilted.,117,33,1,4,1,0,0,0,0,0,0,0,0,0,0,0,0,0,1,117,space,6.356468999999834,None,1,1,0.6482748999997057,None,space,3.5119535999997424,None,0,0,0,0,,,,,4,1,33,3,132.16120030000002,,,,,,,,,,,,,,,,,,,,,132.14573870000004,132.16120030000002,132.645215,132.65049510000017,132.66883020000023,133.32882540000037,,,,,133.32902130000002,133.34371880000026,,133.5452425000003,132.66883020000023,,,,,,,,1,1,0.6482748999997057,None,,,,,,,,823,25,M,R,2026-02-18_11h46.18.774,VisualSearch_2526_3,,2025.2.4,2026-02-18 11h46.19.089410 +0100,
tilted.xlsx,The target is tilted.,117,34,2,4,1,1,1,1,1,1,1,1,1,1,1,1,0,11,12,117,space,6.356468999999834,None,1,1,1.1390317999998842,None,space,3.5119535999997424,None,0,0,0,0,,,,,4,2,34,0,133.54937450000034,,,,,,,,,,,,,,,,,,,,,133.54580810000016,133.54937450000034,134.04403880000018,134.04874410000002,134.06768170000032,135.21117940000022,,,,,135.21133370000007,135.22661010000002,135.42737940000006,135.41109470000038,,,,,,,,,1,1,1.1390317999998842,None,,,,,,,,823,25,M,R,2026-02-18_11h46.18.774,VisualSearch_2526_3,,2025.2.4,2026-02-18 11h46.19.089410 +0100,
tilted.xlsx,The target is tilted.,117,35,3,4,0,0,0,0,0,0,0,0,0,0,0,0,1,1,1,117,space,6.356468999999834,None,0,1,0.5628447000003689,None,space,3.5119535999997424,None,0,0,0,0,,,,,4,3,35,7,135.42737940000006,,,,,,,,,,,,,,,,,,,,,135.41191620000018,135.42737940000006,135.9111971000002,135.91632860000027,135.93462769999996,136.5109284,,,,,136.5111479000002,136.526523,136.72714970000015,136.71107950000032,135.93462769999996,,,,,,,,0,1,0.5628447000003689,None,,,,,,,,823,25,M,R,2026-02-18_11h46.18.774,VisualSearch_2526_3,,2025.2.4,2026-02-18 11h46.19.089410 +0100,
tilted.xlsx,The target is tilted.,117,36,4,4,1,1,1,1,0,0,0,0,0,0,0,0,0,3,4,117,space,6.356468999999834,None,1,1,0.6041459999996732,None,space,3.5119535999997424,None,0,0,0,0,,,,,4,4,36,2,136.72714970000015,,,,,,,,,,,,,,,,,,,,,136.71188710000024,136.72714970000015,137.21081950000007,137.21599540000034,137.23473869999998,137.84467250000034,,,,,137.84486470000002,137.85975350000035,138.0601418000001,138.04399550000016,137.23473869999998,,,,,,,,1,1,0.6041459999996732,None,,,,,,,,823,25,M,R,2026-02-18_11h46.18.774,VisualSearch_2526_3,,2025.2.4,2026-02-18 11h46.19.089410 +0100,
tilted.xlsx,The target is tilted.,117,37,5,4,0,1,1,1,1,1,1,1,1,1,1,1,1,11,12,117,space,6.356468999999834,None,0,1,2.7791188999999576,None,space,3.5119535999997424,None,0,0,0,0,,,,,4,5,37,4,138.0601418000001,,,,,,,,,,,,,,,,,,,,,138.04486590000033,138.0601418000001,138.54416660000015,138.54941150000013,138.56848620000028,141.3603389,,,,,141.36052160000008,141.37569080000003,141.57636649999995,141.55976959999998,138.56848620000028,,,,,,,,0,1,2.7791188999999576,None,,,,,,,,823,25,M,R,2026-02-18_11h46.18.774,VisualSearch_2526_3,,2025.2.4,2026-02-18 11h46.19.089410 +0100,
tilted.xlsx,The target is tilted.,117,38,6,4,0,1,1,1,1,1,1,1,0,0,0,0,1,7,8,117,space,6.356468999999834,None,0,1,1.961100400000305,None,space,3.5119535999997424,None,0,0,0,0,,,,,4,6,38,5,141.57636649999995,,,,,,,,,,,,,,,,,,,,,141.56053569999995,141.57636649999995,142.05971810000028,142.06433340000012,142.08259120000002,144.05918350000002,,,,,144.05930590000025,144.07508810000036,144.27588220000007,144.2595607000003,142.08259120000002,,,,,,,,0,1,1.961100400000305,None,,,,,,,,823,25,M,R,2026-02-18_11h46.18.774,VisualSearch_2526_3,,2025.2.4,2026-02-18 11h46.19.089410 +0100,
tilted.xlsx,The target is tilted.,117,39,7,4,1,1,1,1,1,1,1,1,0,0,0,0,0,7,8,117,space,6.356468999999834,None,1,1,1.4865947000002961,None,space,3.5119535999997424,None,0,0,0,0,,,,,4,7,39,1,144.27588220000007,,,,,,,,,,,,,,,,,,,,,144.26030179999998,144.27588220000007,144.75941260000036,144.76407770000014,144.78104759999997,146.2765144,,,,,146.27669140000035,146.29147120000016,146.49178200000006,146.47618050000028,,,,,,,,,1,1,1.4865947000002961,None,,,,,,,,823,25,M,R,2026-02-18_11h46.18.774,VisualSearch_2526_3,,2025.2.4,2026-02-18 11h46.19.089410 +0100,
tilted.xlsx,The target is tilted.,117,40,0,5,1,1,1,1,0,0,0,0,0,0,0,0,0,3,4,117,space,6.356468999999834,None,1,1,1.7837358000001586,None,space,3.5119535999997424,None,0,0,0,0,,,,,5,0,40,2,146.49178200000006,,,,,,,,,,,,,,,,,,,,,146.47692270000016,146.49178200000006,146.9759578000003,146.9805239000002,146.99809460000006,148.7922563000002,,,,,148.79241410000031,148.80772790000037,149.00855850000016,148.9922316000002,146.99809460000006,,,,,,,,1,1,1.7837358000001586,None,,,,,,,,823,25,M,R,2026-02-18_11h46.18.774,VisualSearch_2526_3,,2025.2.4,2026-02-18 11h46.19.089410 +0100,
tilted.xlsx,The target is tilted.,117,41,1,5,0,0,0,0,0,0,0,0,0,0,0,0,1,1,1,117,space,6.356468999999834,None,0,1,0.6696498999999676,None,space,3.5119535999997424,None,0,0,0,0,,,,,5,1,41,7,149.00855850000016,,,,,,,,,,,,,,,,,,,,,148.9929962000001,149.00855850000016,149.4920972,149.49681090000013,149.51472170000034,150.19259660000034,,,,,150.19278140000006,150.20743579999998,150.40768560000015,150.39173180000034,149.51472170000034,,,,,,,,0,1,0.6696498999999676,None,,,,,,,,823,25,M,R,2026-02-18_11h46.18.774,VisualSearch_2526_3,,2025.2.4,2026-02-18 11h46.19.089410 +0100,
tilted.xlsx,The target is tilted.,117,42,2,5,0,1,1,1,1,1,1,1,1,1,1,1,1,11,12,117,space,6.356468999999834,None,0,1,2.8958262000001014,None,space,3.5119535999997424,None,0,0,0,0,,,,,5,2,42,4,150.40768560000015,,,,,,,,,,,,,,,,,,,,,150.3922176000001,150.40768560000015,150.89190690000032,150.89645659999996,150.91456730000027,153.82439740000018,,,,,153.8244810000001,153.84019650000027,154.04082340000014,154.0247486000003,150.91456730000027,,,,,,,,0,1,2.8958262000001014,None,,,,,,,,823,25,M,R,2026-02-18_11h46.18.774,VisualSearch_2526_3,,2025.2.4,2026-02-18 11h46.19.089410 +0100,
tilted.xlsx,The target is tilted.,117,43,3,5,0,1,1,1,1,1,1,1,0,0,0,0,1,7,8,117,space,6.356468999999834,None,0,1,2.06929319999972,None,space,3.5119535999997424,None,0,0,0,0,,,,,5,3,43,5,154.04082340000014,,,,,,,,,,,,,,,,,,,,,154.0254986,154.04082340000014,154.5246489000001,154.5292811000004,154.54082270000026,156.6238429,,,,,156.623963,156.6397436000002,156.84029099999998,156.8242123,154.54082270000026,,,,,,,,0,1,2.06929319999972,None,,,,,,,,823,25,M,R,2026-02-18_11h46.18.774,VisualSearch_2526_3,,2025.2.4,2026-02-18 11h46.19.089410 +0100,
tilted.xlsx,The target is tilted.,117,44,4,5,0,1,1,1,0,0,0,0,0,0,0,0,1,3,4,117,space,6.356468999999834,None,0,1,1.3560419000000365,None,space,3.5119535999997424,None,0,0,0,0,,,,,5,4,44,6,156.84029099999998,,,,,,,,,,,,,,,,,,,,,156.8249740000001,156.84029099999998,157.32426060000034,157.3287653000002,157.34647310000037,158.70837560000018,,,,,158.70857120000028,158.7227041000001,158.92325310000024,158.90736990000005,157.34647310000037,,,,,,,,0,1,1.3560419000000365,None,,,,,,,,823,25,M,R,2026-02-18_11h46.18.774,VisualSearch_2526_3,,2025.2.4,2026-02-18 11h46.19.089410 +0100,
tilted.xlsx,The target is tilted.,117,45,5,5,1,1,1,1,1,1,1,1,0,0,0,0,0,7,8,117,space,6.356468999999834,None,1,1,0.7777740999999878,None,space,3.5119535999997424,None,0,0,0,0,,,,,5,5,45,1,158.92325310000024,,,,,,,,,,,,,,,,,,,,,158.90809080000008,158.92325310000024,159.40745319999996,159.41257350000024,159.43072150000035,160.22370290000026,,,,,160.22391259999995,160.2392688,160.43971180000017,160.42339680000032,159.43072150000035,,,,,,,,1,1,0.7777740999999878,None,,,,,,,,823,25,M,R,2026-02-18_11h46.18.774,VisualSearch_2526_3,,2025.2.4,2026-02-18 11h46.19.089410 +0100,
tilted.xlsx,The target is tilted.,117,46,6,5,1,0,0,0,0,0,0,0,0,0,0,0,0,0,1,117,space,6.356468999999834,None,1,1,0.5680917999998201,None,space,3.5119535999997424,None,0,0,0,0,,,,,5,6,46,3,160.43971180000017,,,,,,,,,,,,,,,,,,,,,160.42413920000035,160.43971180000017,160.92379310000024,160.9291234000002,160.9484693000004,161.52417839999998,,,,,161.52438710000024,161.53915410000036,161.73936570000023,161.72363740000037,160.9484693000004,,,,,,,,1,1,0.5680917999998201,None,,,,,,,,823,25,M,R,2026-02-18_11h46.18.774,VisualSearch_2526_3,,2025.2.4,2026-02-18 11h46.19.089410 +0100,
tilted.xlsx,The target is tilted.,117,47,7,5,1,1,1,1,1,1,1,1,1,1,1,1,0,11,12,117,space,6.356468999999834,None,1,1,2.5599099999999453,None,space,3.5119535999997424,None,0,0,0,0,,,,,5,7,47,0,161.73936570000023,,,,,,,,,,,,,,,,,,,,,161.72446609999997,161.73936570000023,162.2234297,162.2278779000003,162.2459455000003,164.80682190000016,,,,,164.8070044000001,164.82165160000022,165.0224747000002,165.00621100000035,162.2459455000003,,,,,,,,1,1,2.5599099999999453,None,,,,,,,,823,25,M,R,2026-02-18_11h46.18.774,VisualSearch_2526_3,,2025.2.4,2026-02-18 11h46.19.089410 +0100,
tilted.xlsx,The target is tilted.,117,48,0,6,0,1,1,1,0,0,0,0,0,0,0,0,1,3,4,117,space,6.356468999999834,None,0,1,0.8724069999998392,None,space,3.5119535999997424,None,0,0,0,0,,,,,6,0,48,6,165.0224747000002,,,,,,,,,,,,,,,,,,,,,165.00693050000018,165.0224747000002,165.50638449999997,165.5113434,165.5293746000002,166.4063255000001,,,,,166.4065201000003,166.42145270000037,166.62218510000002,166.60594770000034,165.5293746000002,,,,,,,,0,1,0.8724069999998392,None,,,,,,,,823,25,M,R,2026-02-18_11h46.18.774,VisualSearch_2526_3,,2025.2.4,2026-02-18 11h46.19.089410 +0100,
tilted.xlsx,The target is tilted.,117,49,1,6,0,1,1,1,1,1,1,1,1,1,1,1,1,11,12,117,space,6.356468999999834,None,0,1,1.7864736000001358,None,space,3.5119535999997424,None,0,0,0,0,,,,,6,1,49,4,166.62218510000002,,,,,,,,,,,,,,,,,,,,,166.60671500000035,166.62218510000002,167.1057334000002,167.11095780000005,167.12915220000014,168.92200040000034,,,,,168.92216159999998,168.93806380000024,169.1385763000003,169.1222498000002,167.12915220000014,,,,,,,,0,1,1.7864736000001358,None,,,,,,,,823,25,M,R,2026-02-18_11h46.18.774,VisualSearch_2526_3,,2025.2.4,2026-02-18 11h46.19.089410 +0100,
tilted.xlsx,The target is tilted.,117,50,2,6,1,0,0,0,0,0,0,0,0,0,0,0,0,0,1,117,space,6.356468999999834,None,1,1,0.7049274999999398,None,space,3.5119535999997424,None,0,0,0,0,,,,,6,2,50,3,169.1385763000003,,,,,,,,,,,,,,,,,,,,,169.12299550000034,169.1385763000003,169.62233070000002,169.6271643,169.64520440000024,170.3558718000004,,,,,170.35608150000007,170.37077060000001,170.57110140000032,170.55505700000003,169.64520440000024,,,,,,,,1,1,0.7049274999999398,None,,,,,,,,823,25,M,R,2026-02-18_11h46.18.774,VisualSearch_2526_3,,2025.2.4,2026-02-18 11h46.19.089410 +0100,
tilted.xlsx,The target is tilted.,117,51,3,6,0,1,1,1,1,1,1,1,0,0,0,0,1,7,8,117,space,6.356468999999834,None,0,1,1.8030048999999053,None,space,3.5119535999997424,None,0,0,0,0,,,,,6,3,51,5,170.57110140000032,,,,,,,,,,,,,,,,,,,,,170.55584910000016,170.57110140000032,171.05547650000017,171.06060879999995,171.07866490000015,172.8889667000003,,,,,172.8891633000003,172.90383090000023,173.10458280000012,173.08830070000022,171.07866490000015,,,,,,,,0,1,1.8030048999999053,None,,,,,,,,823,25,M,R,2026-02-18_11h46.18.774,VisualSearch_2526_3,,2025.2.4,2026-02-18 11h46.19.089410 +0100,
tilted.xlsx,The target is tilted.,117,52,4,6,0,0,0,0,0,0,0,0,0,0,0,0,1,1,1,117,space,6.356468999999834,None,0,1,0.5364487000001645,None,space,3.5119535999997424,None,0,0,0,0,,,,,6,4,52,7,173.10458280000012,,,,,,,,,,,,,,,,,,,,,173.0890174000001,173.10458280000012,173.58838400000013,173.59349180000027,173.61212590000014,174.1554172000001,,,,,174.15561300000036,174.1701264000003,174.37027490000037,174.35417570000027,173.61212590000014,,,,,,,,0,1,0.5364487000001645,None,,,,,,,,823,25,M,R,2026-02-18_11h46.18.774,VisualSearch_2526_3,,2025.2.4,2026-02-18 11h46.19.089410 +0100,
tilted.xlsx,The target is tilted.,117,53,5,6,1,1,1,1,0,0,0,0,0,0,0,0,0,3,4,117,space,6.356468999999834,None,0,0,0.8620636999999078,None,space,3.5119535999997424,None,0,0,0,0,,,,,6,5,53,2,174.37027490000037,,,,,,,,,,,,,,,,,,,,,174.35462880000023,174.37027490000037,174.8545091000001,174.85980250000011,174.87879070000008,175.75463360000003,,,,,175.75483060000033,175.77006849999998,175.9704299,175.95457860000033,174.87879070000008,,,,,,,,0,0,0.8620636999999078,None,,,,,,,,823,25,M,R,2026-02-18_11h46.18.774,VisualSearch_2526_3,,2025.2.4,2026-02-18 11h46.19.089410 +0100,
tilted.xlsx,The target is tilted.,117,54,6,6,1,1,1,1,1,1,1,1,0,0,0,0,0,7,8,117,space,6.356468999999834,None,1,1,1.0229024999998728,None,space,3.5119535999997424,None,0,0,0,0,,,,,6,6,54,1,175.9704299,,,,,,,,,,,,,,,,,,,,,175.95540950000031,175.9704299,176.45420850000028,176.4590065000002,176.4702973000003,177.50489259999995,,,,,177.50512300000037,177.5198636,177.72025359999998,177.70420580000018,176.4702973000003,,,,,,,,1,1,1.0229024999998728,None,,,,,,,,823,25,M,R,2026-02-18_11h46.18.774,VisualSearch_2526_3,,2025.2.4,2026-02-18 11h46.19.089410 +0100,
tilted.xlsx,The target is tilted.,117,55,7,6,1,1,1,1,1,1,1,1,1,1,1,1,0,11,12,117,space,6.356468999999834,None,1,1,2.367926500000067,None,space,3.5119535999997424,None,0,0,0,0,,,,,6,7,55,0,177.72025359999998,,,,,,,,,,,,,,,,,,,,,177.70492710000008,177.72025359999998,178.20366600000034,178.2063774000003,178.22003280000035,180.60321740000018,,,,,180.6033397000001,180.61913370000002,,180.8034729000001,178.22003280000035,,,,,,,,1,1,2.367926500000067,None,,,,,,,,823,25,M,R,2026-02-18_11h46.18.774,VisualSearch_2526_3,,2025.2.4,2026-02-18 11h46.19.089410 +0100,
tilted.xlsx,The target is tilted.,117,56,0,7,0,1,1,1,0,0,0,0,0,0,0,0,1,3,4,117,space,6.356468999999834,None,0,1,1.6978005999999368,None,space,3.5119535999997424,None,0,0,0,0,,,,,7,0,56,6,180.8194553000003,,,,,,,,,,,,,,,,,,,,,180.80427410000038,180.8194553000003,181.30367560000013,181.30831350000017,181.31922630000008,183.0200990000003,,,,,183.02027850000013,183.03550170000017,183.23614120000002,183.2197425000004,181.31922630000008,,,,,,,,0,1,1.6978005999999368,None,,,,,,,,823,25,M,R,2026-02-18_11h46.18.774,VisualSearch_2526_3,,2025.2.4,2026-02-18 11h46.19.089410 +0100,
tilted.xlsx,The target is tilted.,117,57,1,7,1,1,1,1,1,1,1,1,1,1,1,1,0,11,12,117,space,6.356468999999834,None,1,1,2.3381014999999934,None,space,3.5119535999997424,None,0,0,0,0,,,,,7,1,57,0,183.23614120000002,,,,,,,,,,,,,,,,,,,,,183.22055900000032,183.23614120000002,183.71963900000037,183.72416160000012,183.7420092000002,186.08664240000007,,,,,186.08681939999997,186.10153330000003,186.30164890000015,186.2853610000002,183.7420092000002,,,,,,,,1,1,2.3381014999999934,None,,,,,,,,823,25,M,R,2026-02-18_11h46.18.774,VisualSearch_2526_3,,2025.2.4,2026-02-18 11h46.19.089410 +0100,
tilted.xlsx,The target is tilted.,117,58,2,7,0,0,0,0,0,0,0,0,0,0,0,0,1,1,1,117,space,6.356468999999834,None,0,1,0.845793599999979,None,space,3.5119535999997424,None,0,0,0,0,,,,,7,2,58,7,186.30164890000015,,,,,,,,,,,,,,,,,,,,,186.28581520000034,186.30164890000015,186.7858357,186.79058150000037,186.8089299000003,187.6690066000001,,,,,187.66917430000012,187.68468550000034,187.88544200000024,187.86926790000007,186.8089299000003,,,,,,,,0,1,0.845793599999979,None,,,,,,,,823,25,M,R,2026-02-18_11h46.18.774,VisualSearch_2526_3,,2025.2.4,2026-02-18 11h46.19.089410 +0100,
tilted.xlsx,The target is tilted.,117,59,3,7,0,1,1,1,1,1,1,1,1,1,1,1,1,11,12,117,space,6.356468999999834,None,0,1,4.010569499999747,None,space,3.5119535999997424,None,0,0,0,0,,,,,7,3,59,4,187.88544200000024,,,,,,,,,,,,,,,,,,,,,187.8700342000002,187.88544200000024,188.36936400000013,188.37460020000026,188.3935733000003,192.4181893,,,,,192.41839470000014,192.43392110000013,192.6345609,192.61835670000028,188.3935733000003,,,,,,,,0,1,4.010569499999747,None,,,,,,,,823,25,M,R,2026-02-18_11h46.18.774,VisualSearch_2526_3,,2025.2.4,2026-02-18 11h46.19.089410 +0100,
tilted.xlsx,The target is tilted.,117,60,4,7,1,1,1,1,0,0,0,0,0,0,0,0,0,3,4,117,space,6.356468999999834,None,1,1,0.9694726000002447,None,space,3.5119535999997424,None,0,0,0,0,,,,,7,4,60,2,192.6345609,,,,,,,,,,,,,,,,,,,,,192.61905079999997,192.6345609,193.11796550000008,193.12265430000025,193.14018850000002,194.11865490000037,,,,,194.11882800000012,194.13359179999998,194.3342915000003,194.3180980000002,193.14018850000002,,,,,,,,1,1,0.9694726000002447,None,,,,,,,,823,25,M,R,2026-02-18_11h46.18.774,VisualSearch_2526_3,,2025.2.4,2026-02-18 11h46.19.089410 +0100,
tilted.xlsx,The target is tilted.,117,61,5,7,0,1,1,1,1,1,1,1,0,0,0,0,1,7,8,117,space,6.356468999999834,None,0,1,2.830471100000068,None,space,3.5119535999997424,None,0,0,0,0,,,,,7,5,61,5,194.3342915000003,,,,,,,,,,,,,,,,,,,,,194.31882780000024,194.3342915000003,194.81814329999997,194.82261900000003,194.84068370000023,197.68390630000022,,,,,197.6840261000002,197.69961420000027,197.9003034000002,197.88424110000005,194.84068370000023,,,,,,,,0,1,2.830471100000068,None,,,,,,,,823,25,M,R,2026-02-18_11h46.18.774,VisualSearch_2526_3,,2025.2.4,2026-02-18 11h46.19.089410 +0100,
tilted.xlsx,The target is tilted.,117,62,6,7,1,1,1,1,1,1,1,1,0,0,0,0,0,7,8,117,space,6.356468999999834,None,1,1,1.284372600000097,None,space,3.5119535999997424,None,0,0,0,0,,,,,7,6,62,1,197.9003034000002,,,,,,,,,,,,,,,,,,,,,197.88495360000024,197.9003034000002,198.38412990000006,198.38859430000002,198.40646370000013,199.70096560000002,,,,,199.70116150000013,199.7161433000001,199.91673400000036,199.9000745000003,198.40646370000013,,,,,,,,1,1,1.284372600000097,None,,,,,,,,823,25,M,R,2026-02-18_11h46.18.774,VisualSearch_2526_3,,2025.2.4,2026-02-18 11h46.19.089410 +0100,
tilted.xlsx,The target is tilted.,117,63,7,7,1,0,0,0,0,0,0,0,0,0,0,0,0,0,1,117,space,6.356468999999834,None,1,1,0.70807829999967,None,space,3.5119535999997424,None,0,0,0,0,,,,,7,7,63,3,199.91673400000036,,,,,,,,,,,,,,,,,,,,,199.90070660000038,199.91673400000036,200.4000527000003,200.40482450000036,200.41868060000024,201.13425910000024,,,,,201.13445150000007,201.1492164000001,201.34984950000035,201.33374410000033,200.41868060000024,,,,,,,,1,1,0.70807829999967,None,,,,,,,,823,25,M,R,2026-02-18_11h46.18.774,VisualSearch_2526_3,,2025.2.4,2026-02-18 11h46.19.089410 +0100,
tilted.xlsx,The target is tilted.,117,64,0,8,1,0,0,0,0,0,0,0,0,0,0,0,0,0,1,117,space,6.356468999999834,None,1,1,0.5620628000001489,None,space,3.5119535999997424,None,0,0,0,0,,,,,8,0,64,3,201.34984950000035,,,,,,,,,,,,,,,,,,,,,201.33457350000026,201.34984950000035,201.8337133,201.83892319999995,201.8577435000002,202.43288299999995,,,,,202.43300550000004,202.4488247000004,202.64920770000026,202.63295970000036,201.8577435000002,,,,,,,,1,1,0.5620628000001489,None,,,,,,,,823,25,M,R,2026-02-18_11h46.18.774,VisualSearch_2526_3,,2025.2.4,2026-02-18 11h46.19.089410 +0100,
tilted.xlsx,The target is tilted.,117,65,1,8,1,1,1,1,1,1,1,1,1,1,1,1,0,11,12,117,space,6.356468999999834,None,1,1,1.9927594000000681,None,space,3.5119535999997424,None,0,0,0,0,,,,,8,1,65,0,202.64920770000026,,,,,,,,,,,,,,,,,,,,,202.63331910000034,202.64920770000026,203.13321730000007,203.13879050000014,203.15722989999995,205.16578530000015,,,,,205.1659079000001,205.1816858000002,205.38232530000005,205.36590060000026,203.15722989999995,,,,,,,,1,1,1.9927594000000681,None,,,,,,,,823,25,M,R,2026-02-18_11h46.18.774,VisualSearch_2526_3,,2025.2.4,2026-02-18 11h46.19.089410 +0100,
tilted.xlsx,The target is tilted.,117,66,2,8,0,1,1,1,1,1,1,1,0,0,0,0,1,7,8,117,space,6.356468999999834,None,0,1,2.0280273000003035,None,space,3.5119535999997424,None,0,0,0,0,,,,,8,2,66,5,205.38232530000005,,,,,,,,,,,,,,,,,,,,,205.36635079999996,205.38232530000005,205.8661285000003,205.87075730000015,205.88183990000016,207.91652060000024,,,,,207.91673290000017,207.93140100000028,208.13194440000007,208.11563860000024,205.88183990000016,,,,,,,,0,1,2.0280273000003035,None,,,,,,,,823,25,M,R,2026-02-18_11h46.18.774,VisualSearch_2526_3,,2025.2.4,2026-02-18 11h46.19.089410 +0100,
tilted.xlsx,The target is tilted.,117,67,3,8,0,1,1,1,0,0,0,0,0,0,0,0,1,3,4,117,space,6.356468999999834,None,0,1,0.847724300000209,None,space,3.5119535999997424,None,0,0,0,0,,,,,8,3,67,6,208.13194440000007,,,,,,,,,,,,,,,,,,,,,208.11629489999996,208.13194440000007,208.6150106,208.61784290000014,208.63171460000012,209.4829034000004,,,,,209.4830952000002,209.49786919999997,209.69786790000035,209.68182260000003,208.63171460000012,,,,,,,,0,1,0.847724300000209,None,,,,,,,,823,25,M,R,2026-02-18_11h46.18.774,VisualSearch_2526_3,,2025.2.4,2026-02-18 11h46.19.089410 +0100,
tilted.xlsx,The target is tilted.,117,68,4,8,0,0,0,0,0,0,0,0,0,0,0,0,1,1,1,117,space,6.356468999999834,None,0,1,0.5861218999998528,None,space,3.5119535999997424,None,0,0,0,0,,,,,8,4,68,7,209.69786790000035,,,,,,,,,,,,,,,,,,,,,209.68253380000033,209.69786790000035,210.18215310000005,210.18706980000024,210.20537670000022,210.7988451000001,,,,,210.79895910000005,210.81411939999998,211.01488730000028,210.9987000000001,210.20537670000022,,,,,,,,0,1,0.5861218999998528,None,,,,,,,,823,25,M,R,2026-02-18_11h46.18.774,VisualSearch_2526_3,,2025.2.4,2026-02-18 11h46.19.089410 +0100,
tilted.xlsx,The target is tilted.,117,69,5,8,1,1,1,1,1,1,1,1,0,0,0,0,0,7,8,117,space,6.356468999999834,None,1,1,0.8881271999998717,None,space,3.5119535999997424,None,0,0,0,0,,,,,8,5,69,1,211.01488730000028,,,,,,,,,,,,,,,,,,,,,210.99942790000023,211.01488730000028,211.4983830000001,211.50356640000018,211.52280550000023,212.41484830000036,,,,,212.4149679000002,212.43047840000008,212.63129879999997,212.61523990000023,211.52280550000023,,,,,,,,1,1,0.8881271999998717,None,,,,,,,,823,25,M,R,2026-02-18_11h46.18.774,VisualSearch_2526_3,,2025.2.4,2026-02-18 11h46.19.089410 +0100,
tilted.xlsx,The target is tilted.,117,70,6,8,0,1,1,1,1,1,1,1,1,1,1,1,1,11,12,117,space,6.356468999999834,None,0,1,3.714961399999993,None,space,3.5119535999997424,None,0,0,0,0,,,,,8,6,70,4,212.63129879999997,,,,,,,,,,,,,,,,,,,,,212.61605810000037,212.63129879999997,213.11518860000024,213.12026990000004,213.1402438,216.86490900000035,,,,,216.86508700000013,216.87987930000008,217.08047110000007,217.06441029999996,213.1402438,,,,,,,,0,1,3.714961399999993,None,,,,,,,,823,25,M,R,2026-02-18_11h46.18.774,VisualSearch_2526_3,,2025.2.4,2026-02-18 11h46.19.089410 +0100,
tilted.xlsx,The target is tilted.,117,71,7,8,1,1,1,1,0,0,0,0,0,0,0,0,0,3,4,117,space,6.356468999999834,None,1,1,1.0217087999999421,None,space,3.5119535999997424,None,0,0,0,0,,,,,8,7,71,2,217.08047110000007,,,,,,,,,,,,,,,,,,,,,217.06512999999995,217.08047110000007,217.5642544000002,217.56870590000017,217.5865259000002,218.61470020000024,,,,,218.6148892000001,218.6296797,218.83012450000024,218.8140209000003,217.5865259000002,,,,,,,,1,1,1.0217087999999421,None,,,,,,,,823,25,M,R,2026-02-18_11h46.18.774,VisualSearch_2526_3,,2025.2.4,2026-02-18 11h46.19.089410 +0100,
tilted.xlsx,The target is tilted.,117,72,0,9,0,1,1,1,0,0,0,0,0,0,0,0,1,3,4,117,space,6.356468999999834,None,0,1,1.215510500000164,None,space,3.5119535999997424,None,0,0,0,0,,,,,9,0,72,6,218.83012450000024,,,,,,,,,,,,,,,,,,,,,218.81479820000004,218.83012450000024,219.31422659999998,219.31902350000018,219.32990670000027,220.54770129999997,,,,,220.54789210000035,220.56249760000037,220.76322200000004,220.74712,219.32990670000027,,,,,,,,0,1,1.215510500000164,None,,,,,,,,823,25,M,R,2026-02-18_11h46.18.774,VisualSearch_2526_3,,2025.2.4,2026-02-18 11h46.19.089410 +0100,
tilted.xlsx,The target is tilted.,117,73,1,9,1,1,1,1,0,0,0,0,0,0,0,0,0,3,4,117,space,6.356468999999834,None,0,0,1.284078000000136,None,space,3.5119535999997424,None,0,0,0,0,,,,,9,1,73,2,220.76322200000004,,,,,,,,,,,,,,,,,,,,,220.74784260000024,220.76322200000004,221.24703120000004,221.25141370000028,221.26912280000033,222.56366200000002,,,,,222.56385550000005,222.57899710000038,222.77920250000034,222.7630349000001,221.26912280000033,,,,,,,,0,0,1.284078000000136,None,,,,,,,,823,25,M,R,2026-02-18_11h46.18.774,VisualSearch_2526_3,,2025.2.4,2026-02-18 11h46.19.089410 +0100,
tilted.xlsx,The target is tilted.,117,74,2,9,0,1,1,1,1,1,1,1,0,0,0,0,1,7,8,117,space,6.356468999999834,None,0,1,3.0256672000000435,None,space,3.5119535999997424,None,0,0,0,0,,,,,9,2,74,5,222.77920250000034,,,,,,,,,,,,,,,,,,,,,222.7638462,222.77920250000034,223.2634406000002,223.26835310000024,223.28631180000002,226.31310870000016,,,,,226.31330210000033,226.32821680000006,226.5290143000002,226.51286340000024,223.28631180000002,,,,,,,,0,1,3.0256672000000435,None,,,,,,,,823,25,M,R,2026-02-18_11h46.18.774,VisualSearch_2526_3,,2025.2.4,2026-02-18 11h46.19.089410 +0100,
tilted.xlsx,The target is tilted.,117,75,3,9,1,1,1,1,1,1,1,1,0,0,0,0,0,7,8,117,space,6.356468999999834,None,1,1,5.019076699999914,None,space,3.5119535999997424,None,0,0,0,0,,,,,9,3,75,1,226.5290143000002,,,,,,,,,,,,,,,,,,,,,226.5135790000004,226.5290143000002,227.01273410000022,227.0171289,227.03383770000028,232.06233360000033,,,,,232.06251050000037,232.07736990000012,232.27810020000015,232.2617736000002,227.03383770000028,,,,,,,,1,1,5.019076699999914,None,,,,,,,,823,25,M,R,2026-02-18_11h46.18.774,VisualSearch_2526_3,,2025.2.4,2026-02-18 11h46.19.089410 +0100,
tilted.xlsx,The target is tilted.,117,76,4,9,0,1,1,1,1,1,1,1,1,1,1,1,1,11,12,117,space,6.356468999999834,None,0,1,4.020727699999952,None,space,3.5119535999997424,None,0,0,0,0,,,,,9,4,76,4,232.27810020000015,,,,,,,,,,,,,,,,,,,,,232.2625253000001,232.27810020000015,232.76177850000022,232.76633000000038,232.78506930000003,236.81079390000014,,,,,236.81093740000006,236.82657270000027,237.0272742000002,237.01098850000017,232.78506930000003,,,,,,,,0,1,4.020727699999952,None,,,,,,,,823,25,M,R,2026-02-18_11h46.18.774,VisualSearch_2526_3,,2025.2.4,2026-02-18 11h46.19.089410 +0100,
tilted.xlsx,The target is tilted.,117,77,5,9,1,1,1,1,1,1,1,1,1,1,1,1,0,11,12,117,space,6.356468999999834,None,1,1,0.9676106999995682,None,space,3.5119535999997424,None,0,0,0,0,,,,,9,5,77,0,237.0272742000002,,,,,,,,,,,,,,,,,,,,,237.0118368000003,237.0272742000002,237.5109023,237.51544970000032,237.53321760000017,238.51094260000036,,,,,238.51111720000017,238.52630920000001,238.7264897,238.71048280000014,237.53321760000017,,,,,,,,1,1,0.9676106999995682,None,,,,,,,,823,25,M,R,2026-02-18_11h46.18.774,VisualSearch_2526_3,,2025.2.4,2026-02-18 11h46.19.089410 +0100,
tilted.xlsx,The target is tilted.,117,78,6,9,0,0,0,0,0,0,0,0,0,0,0,0,1,1,1,117,space,6.356468999999834,None,0,1,0.7665473000001839,None,space,3.5119535999997424,None,0,0,0,0,,,,,9,6,78,7,238.7264897,,,,,,,,,,,,,,,,,,,,,238.71114460000035,238.7264897,239.21060620000026,239.2150856000003,239.2331147,240.01107860000002,,,,,240.01127270000006,240.02606540000033,240.22655200000008,240.2104763000002,239.2331147,,,,,,,,0,1,0.7665473000001839,None,,,,,,,,823,25,M,R,2026-02-18_11h46.18.774,VisualSearch_2526_3,,2025.2.4,2026-02-18 11h46.19.089410 +0100,
tilted.xlsx,The target is tilted.,117,79,7,9,1,0,0,0,0,0,0,0,0,0,0,0,0,0,1,117,space,6.356468999999834,None,1,1,0.8335539999998218,None,space,3.5119535999997424,None,0,0,0,0,,,,,9,7,79,3,240.22655200000008,,,,,,,,,,,,,,,,,,,,,240.21124020000025,240.22655200000008,240.71016270000018,240.71518319999996,240.73139420000007,241.57696269999997,,,,,241.5771783,241.5924374000001,241.7931566000002,241.77696460000016,240.73139420000007,,,,,,,,1,1,0.8335539999998218,None,,,,,,,,823,25,M,R,2026-02-18_11h46.18.774,VisualSearch_2526_3,,2025.2.4,2026-02-18 11h46.19.089410 +0100,
tilted.xlsx,The target is tilted.,117,80,0,10,0,0,0,0,0,0,0,0,0,0,0,0,1,1,1,117,space,6.356468999999834,None,0,1,1.5394327999997586,None,space,3.5119535999997424,None,0,0,0,0,,,,,10,0,80,7,241.7931566000002,,,,,,,,,,,,,,,,,,,,,241.7776798,241.7931566000002,242.27693510000017,242.28134799999998,242.29899060000025,243.84342510000033,,,,,243.84365300000036,243.8587424000002,244.05920560000004,244.04326260000016,242.29899060000025,,,,,,,,0,1,1.5394327999997586,None,,,,,,,,823,25,M,R,2026-02-18_11h46.18.774,VisualSearch_2526_3,,2025.2.4,2026-02-18 11h46.19.089410 +0100,
tilted.xlsx,The target is tilted.,117,81,1,10,0,1,1,1,1,1,1,1,1,1,1,1,1,11,12,117,space,6.356468999999834,None,0,1,4.4930890000000545,None,space,3.5119535999997424,None,0,0,0,0,,,,,10,1,81,4,244.05920560000004,,,,,,,,,,,,,,,,,,,,,244.04398000000037,244.05920560000004,244.54324870000028,244.54767530000026,244.5589616000002,249.05957360000002,,,,,249.05975080000007,249.07459229999995,249.27507160000005,249.2582883,244.5589616000002,,,,,,,,0,1,4.4930890000000545,None,,,,,,,,823,25,M,R,2026-02-18_11h46.18.774,VisualSearch_2526_3,,2025.2.4,2026-02-18 11h46.19.089410 +0100,
tilted.xlsx,The target is tilted.,117,82,2,10,1,1,1,1,1,1,1,1,0,0,0,0,0,7,8,117,space,6.356468999999834,None,0,0,2.937653599999976,None,space,3.5119535999997424,None,0,0,0,0,,,,,10,2,82,1,249.27507160000005,,,,,,,,,,,,,,,,,,,,,249.2587426,249.27507160000005,249.75908740000023,249.76368980000007,249.781653,252.72560900000008,,,,,252.72578539999995,252.7406417000002,252.94112940000014,252.92465970000012,249.781653,,,,,,,,0,0,2.937653599999976,None,,,,,,,,823,25,M,R,2026-02-18_11h46.18.774,VisualSearch_2526_3,,2025.2.4,2026-02-18 11h46.19.089410 +0100,
tilted.xlsx,The target is tilted.,117,83,3,10,1,1,1,1,1,1,1,1,1,1,1,1,0,11,12,117,space,6.356468999999834,None,1,1,3.4000104000001556,None,space,3.5119535999997424,None,0,0,0,0,,,,,10,3,83,0,252.94112940000014,,,,,,,,,,,,,,,,,,,,,252.92521620000025,252.94112940000014,253.4251018,253.42957539999998,253.44093950000024,256.8574814000003,,,,,256.8576505000001,256.8738497000004,257.0739599000003,257.05756280000014,253.44093950000024,,,,,,,,1,1,3.4000104000001556,None,,,,,,,,823,25,M,R,2026-02-18_11h46.18.774,VisualSearch_2526_3,,2025.2.4,2026-02-18 11h46.19.089410 +0100,
tilted.xlsx,The target is tilted.,117,84,4,10,1,1,1,1,0,0,0,0,0,0,0,0,0,3,4,117,space,6.356468999999834,None,1,1,1.3365852000001723,None,space,3.5119535999997424,None,0,0,0,0,,,,,10,4,84,2,257.0739599000003,,,,,,,,,,,,,,,,,,,,,257.058215,257.0739599000003,257.5576395000003,257.5622032000001,257.57956300000023,258.9245969000003,,,,,258.92477150000013,258.9401229,259.14020600000003,259.1241323000004,257.57956300000023,,,,,,,,1,1,1.3365852000001723,None,,,,,,,,823,25,M,R,2026-02-18_11h46.18.774,VisualSearch_2526_3,,2025.2.4,2026-02-18 11h46.19.089410 +0100,
tilted.xlsx,The target is tilted.,117,85,5,10,0,1,1,1,1,1,1,1,0,0,0,0,1,7,8,117,space,6.356468999999834,None,0,1,3.8844823000004,None,space,3.5119535999997424,None,0,0,0,0,,,,,10,5,85,5,259.14020600000003,,,,,,,,,,,,,,,,,,,,,259.1248442000001,259.14020600000003,259.6239246,259.62793230000034,259.64360020000004,263.5401688000002,,,,,263.5403424000001,263.5560370000003,263.7562691000003,263.7396342000002,259.64360020000004,,,,,,,,0,1,3.8844823000004,None,,,,,,,,823,25,M,R,2026-02-18_11h46.18.774,VisualSearch_2526_3,,2025.2.4,2026-02-18 11h46.19.089410 +0100,
tilted.xlsx,The target is tilted.,117,86,6,10,0,1,1,1,0,0,0,0,0,0,0,0,1,3,4,117,space,6.356468999999834,None,0,1,1.7543317000004208,None,space,3.5119535999997424,None,0,0,0,0,,,,,10,6,86,6,263.7562691000003,,,,,,,,,,,,,,,,,,,,,263.74041810000017,263.7562691000003,264.2397188,264.24419890000036,264.2560985,266.0228860000002,,,,,266.0230391,266.0388906000003,266.2391039000004,266.22280980000005,264.2560985,,,,,,,,0,1,1.7543317000004208,None,,,,,,,,823,25,M,R,2026-02-18_11h46.18.774,VisualSearch_2526_3,,2025.2.4,2026-02-18 11h46.19.089410 +0100,
tilted.xlsx,The target is tilted.,117,87,7,10,1,0,0,0,0,0,0,0,0,0,0,0,0,0,1,117,space,6.356468999999834,None,1,1,0.7777023000003283,None,space,3.5119535999997424,None,0,0,0,0,,,,,10,7,87,3,266.2391039000004,,,,,,,,,,,,,,,,,,,,,266.22347560000026,266.2391039000004,266.7224626000002,266.7269991000003,266.74480270000004,267.5399053000001,,,,,267.5401017000004,267.55510189999995,267.75553149999996,267.7394502000002,266.74480270000004,,,,,,,,1,1,0.7777023000003283,None,,,,,,,,823,25,M,R,2026-02-18_11h46.18.774,VisualSearch_2526_3,,2025.2.4,2026-02-18 11h46.19.089410 +0100,
tilted.xlsx,The target is tilted.,117,88,0,11,1,1,1,1,1,1,1,1,1,1,1,1,0,11,12,117,space,6.356468999999834,None,1,1,2.3561177999999927,None,space,3.5119535999997424,None,0,0,0,0,,,,,11,0,88,0,267.75553149999996,,,,,,,,,,,,,,,,,,,,,267.7401957000002,267.75553149999996,268.2393231000001,268.2439402,268.2623675,270.6223508000003,,,,,270.6225335000004,270.63820780000015,270.83844420000014,270.82222790000014,268.2623675,,,,,,,,1,1,2.3561177999999927,None,,,,,,,,823,25,M,R,2026-02-18_11h46.18.774,VisualSearch_2526_3,,2025.2.4,2026-02-18 11h46.19.089410 +0100,
tilted.xlsx,The target is tilted.,117,89,1,11,0,1,1,1,1,1,1,1,1,1,1,1,1,11,12,117,space,6.356468999999834,None,0,1,4.594472300000234,None,space,3.5119535999997424,None,0,0,0,0,,,,,11,1,89,4,270.83844420000014,,,,,,,,,,,,,,,,,,,,,270.82294170000023,270.83844420000014,271.32159040000033,271.3242057000002,271.33762750000005,275.93837440000016,,,,,275.9385493,275.9541269000001,276.1541309000004,276.13800070000025,271.33762750000005,,,,,,,,0,1,4.594472300000234,None,,,,,,,,823,25,M,R,2026-02-18_11h46.18.774,VisualSearch_2526_3,,2025.2.4,2026-02-18 11h46.19.089410 +0100,
tilted.xlsx,The target is tilted.,117,90,2,11,0,1,1,1,1,1,1,1,0,0,0,0,1,7,8,117,space,6.356468999999834,None,0,1,2.2571332000002258,None,space,3.5119535999997424,None,0,0,0,0,,,,,11,2,90,5,276.1541309000004,,,,,,,,,,,,,,,,,,,,,276.1387172,276.1541309000004,276.6380075000002,276.64276510000036,276.6607393000004,278.9213235000002,,,,,278.9215045000001,278.9368486000003,279.13691229999995,279.12069500000007,276.6607393000004,,,,,,,,0,1,2.2571332000002258,None,,,,,,,,823,25,M,R,2026-02-18_11h46.18.774,VisualSearch_2526_3,,2025.2.4,2026-02-18 11h46.19.089410 +0100,
tilted.xlsx,The target is tilted.,117,91,3,11,1,1,1,1,0,0,0,0,0,0,0,0,0,3,4,117,space,6.356468999999834,None,1,1,1.0031232999999702,None,space,3.5119535999997424,None,0,0,0,0,,,,,11,3,91,2,279.13691229999995,,,,,,,,,,,,,,,,,,,,,279.12145680000003,279.13691229999995,279.62015199999996,279.62339380000003,279.63952450000033,280.65428770000017,,,,,280.6544804,280.6695691,280.86988180000026,280.8538447000001,279.63952450000033,,,,,,,,1,1,1.0031232999999702,None,,,,,,,,823,25,M,R,2026-02-18_11h46.18.774,VisualSearch_2526_3,,2025.2.4,2026-02-18 11h46.19.089410 +0100,
tilted.xlsx,The target is tilted.,117,92,4,11,0,0,0,0,0,0,0,0,0,0,0,0,1,1,1,117,space,6.356468999999834,None,0,1,0.681064299999889,None,space,3.5119535999997424,None,0,0,0,0,,,,,11,4,92,7,280.86988180000026,,,,,,,,,,,,,,,,,,,,,280.8545661000003,280.86988180000026,281.35366380000005,281.3581491,281.3764741,282.0704283,,,,,282.0706349000002,282.0863829,282.28645030000007,282.26991640000006,281.3764741,,,,,,,,0,1,0.681064299999889,None,,,,,,,,823,25,M,R,2026-02-18_11h46.18.774,VisualSearch_2526_3,,2025.2.4,2026-02-18 11h46.19.089410 +0100,
tilted.xlsx,The target is tilted.,117,93,5,11,0,1,1,1,0,0,0,0,0,0,0,0,1,3,4,117,space,6.356468999999834,None,0,1,0.7232358999999633,None,space,3.5119535999997424,None,0,0,0,0,,,,,11,5,93,6,282.28645030000007,,,,,,,,,,,,,,,,,,,,,282.27068770000005,282.28645030000007,282.7699356000003,282.77471650000007,282.7924632000004,283.52027190000035,,,,,283.52046180000025,283.53607580000016,283.7362092000003,283.7197553000001,282.7924632000004,,,,,,,,0,1,0.7232358999999633,None,,,,,,,,823,25,M,R,2026-02-18_11h46.18.774,VisualSearch_2526_3,,2025.2.4,2026-02-18 11h46.19.089410 +0100,
tilted.xlsx,The target is tilted.,117,94,6,11,1,0,0,0,0,0,0,0,0,0,0,0,0,0,1,117,space,6.356468999999834,None,1,1,0.6513339999996788,None,space,3.5119535999997424,None,0,0,0,0,,,,,11,6,94,3,283.7362092000003,,,,,,,,,,,,,,,,,,,,,283.7205537,283.7362092000003,284.2196025000003,284.2240254000003,284.2415599000001,284.9037580000004,,,,,284.90395030000036,284.91914160000033,285.1191563000002,285.1031170000001,284.2415599000001,,,,,,,,1,1,0.6513339999996788,None,,,,,,,,823,25,M,R,2026-02-18_11h46.18.774,VisualSearch_2526_3,,2025.2.4,2026-02-18 11h46.19.089410 +0100,
tilted.xlsx,The target is tilted.,117,95,7,11,1,1,1,1,1,1,1,1,0,0,0,0,0,7,8,117,space,6.356468999999834,None,1,1,1.6515180999999757,None,space,3.5119535999997424,None,0,0,0,0,,,,,11,7,95,1,285.1191563000002,,,,,,,,,,,,,,,,,,,,,285.10385369999995,285.1191563000002,285.60256610000033,285.60518130000037,285.61873270000024,287.2866161000002,,,,,287.2867976000002,287.3020719000001,287.50204550000035,287.48591810000016,285.61873270000024,,,,,,,,1,1,1.6515180999999757,None,,,,,,,,823,25,M,R,2026-02-18_11h46.18.774,VisualSearch_2526_3,,2025.2.4,2026-02-18 11h46.19.089410 +0100,
tilted.xlsx,The target is tilted.,117,96,0,12,0,1,1,1,1,1,1,1,1,1,1,1,1,11,12,117,space,6.356468999999834,None,0,1,3.559135200000128,None,space,3.5119535999997424,None,0,0,0,0,,,,,12,0,96,4,287.50204550000035,,,,,,,,,,,,,,,,,,,,,287.48664640000015,287.50204550000035,287.9860211,287.9904494000002,288.0083980000004,291.5688747000004,,,,,291.56899109999995,291.58478190000005,291.78481360000023,291.7686427000003,288.0083980000004,,,,,,,,0,1,3.559135200000128,None,,,,,,,,823,25,M,R,2026-02-18_11h46.18.774,VisualSearch_2526_3,,2025.2.4,2026-02-18 11h46.19.089410 +0100,
tilted.xlsx,The target is tilted.,117,97,1,12,1,0,0,0,0,0,0,0,0,0,0,0,0,0,1,117,space,6.356468999999834,None,1,1,0.6767985999999837,None,space,3.5119535999997424,None,0,0,0,0,,,,,12,1,97,3,291.78481360000023,,,,,,,,,,,,,,,,,,,,,291.76932450000004,291.78481360000023,292.2686622000001,292.27315480000016,292.28947770000013,292.96911880000016,,,,,292.96931700000005,292.9844581000002,293.1844113000002,293.1677246000004,292.28947770000013,,,,,,,,1,1,0.6767985999999837,None,,,,,,,,823,25,M,R,2026-02-18_11h46.18.774,VisualSearch_2526_3,,2025.2.4,2026-02-18 11h46.19.089410 +0100,
tilted.xlsx,The target is tilted.,117,98,2,12,1,1,1,1,0,0,0,0,0,0,0,0,0,3,4,117,space,6.356468999999834,None,1,1,1.1668117999997776,None,space,3.5119535999997424,None,0,0,0,0,,,,,12,2,98,2,293.1844113000002,,,,,,,,,,,,,,,,,,,,,293.1681682000003,293.1844113000002,293.6686447000002,293.67374629999995,293.69275000000016,294.8677514000001,,,,,294.8678724000001,294.88357910000013,295.0841757000003,295.0680964000003,293.69275000000016,,,,,,,,1,1,1.1668117999997776,None,,,,,,,,823,25,M,R,2026-02-18_11h46.18.774,VisualSearch_2526_3,,2025.2.4,2026-02-18 11h46.19.089410 +0100,
tilted.xlsx,The target is tilted.,117,99,3,12,0,1,1,1,0,0,0,0,0,0,0,0,1,3,4,117,space,6.356468999999834,None,0,1,1.0580515999999989,None,space,3.5119535999997424,None,0,0,0,0,,,,,12,3,99,6,295.0841757000003,,,,,,,,,,,,,,,,,,,,,295.0688597000003,295.0841757000003,295.5673207,295.5704888,295.5836621000003,296.65184339999996,,,,,296.6520338,296.66698620000034,296.8668834,296.85102989999996,295.5836621000003,,,,,,,,0,1,1.0580515999999989,None,,,,,,,,823,25,M,R,2026-02-18_11h46.18.774,VisualSearch_2526_3,,2025.2.4,2026-02-18 11h46.19.089410 +0100,
tilted.xlsx,The target is tilted.,117,100,4,12,0,0,0,0,0,0,0,0,0,0,0,0,1,1,1,117,space,6.356468999999834,None,0,1,0.6469657000002371,None,space,3.5119535999997424,None,0,0,0,0,,,,,12,4,100,7,296.8668834,,,,,,,,,,,,,,,,,,,,,296.8517554,296.8668834,297.3510696000003,297.35613390000026,297.37411910000037,298.0347786000002,,,,,298.0349781,298.04987819999997,298.2503173,298.23419520000016,297.37411910000037,,,,,,,,0,1,0.6469657000002371,None,,,,,,,,823,25,M,R,2026-02-18_11h46.18.774,VisualSearch_2526_3,,2025.2.4,2026-02-18 11h46.19.089410 +0100,
tilted.xlsx,The target is tilted.,117,101,5,12,0,1,1,1,1,1,1,1,0,0,0,0,1,7,8,117,space,6.356468999999834,None,0,1,3.3761271000003035,None,space,3.5119535999997424,None,0,0,0,0,,,,,12,5,101,5,298.2503173,,,,,,,,,,,,,,,,,,,,,298.2349234000003,298.2503173,298.73429239999996,298.7387511000002,298.7558345000002,302.13402429999996,,,,,302.1342017000002,302.14946039999995,302.3493904000002,302.3336511000002,298.7558345000002,,,,,,,,0,1,3.3761271000003035,None,,,,,,,,823,25,M,R,2026-02-18_11h46.18.774,VisualSearch_2526_3,,2025.2.4,2026-02-18 11h46.19.089410 +0100,
tilted.xlsx,The target is tilted.,117,102,6,12,1,1,1,1,1,1,1,1,0,0,0,0,0,7,8,117,space,6.356468999999834,None,1,1,1.9022867000003316,None,space,3.5119535999997424,None,0,0,0,0,,,,,12,6,102,1,302.3493904000002,,,,,,,,,,,,,,,,,,,,,302.3343877000002,302.3493904000002,302.8335710000001,302.83807460000025,302.85598400000026,304.76701630000025,,,,,304.76718690000007,304.7824998000001,304.98261550000007,304.96662400000014,302.85598400000026,,,,,,,,1,1,1.9022867000003316,None,,,,,,,,823,25,M,R,2026-02-18_11h46.18.774,VisualSearch_2526_3,,2025.2.4,2026-02-18 11h46.19.089410 +0100,
tilted.xlsx,The target is tilted.,117,103,7,12,1,1,1,1,1,1,1,1,1,1,1,1,0,11,12,117,space,6.356468999999834,None,1,1,2.49751679999963,None,space,3.5119535999997424,None,0,0,0,0,,,,,12,7,103,0,304.98261550000007,,,,,,,,,,,,,,,,,,,,,304.9673375000002,304.98261550000007,305.46646899999996,305.47095960000024,305.48871670000017,307.9996569,,,,,307.99983139999995,308.0153786000001,308.21551390000013,308.1993397000001,305.48871670000017,,,,,,,,1,1,2.49751679999963,None,,,,,,,,823,25,M,R,2026-02-18_11h46.18.774,VisualSearch_2526_3,,2025.2.4,2026-02-18 11h46.19.089410 +0100,
tilted.xlsx,The target is tilted.,117,104,0,13,1,0,0,0,0,0,0,0,0,0,0,0,0,0,1,117,space,6.356468999999834,None,1,1,0.7461378000002696,None,space,3.5119535999997424,None,0,0,0,0,,,,,13,0,104,3,308.21551390000013,,,,,,,,,,,,,,,,,,,,,308.20014690000016,308.21551390000013,308.69923400000016,308.70369210000035,308.7198644,309.48291070000005,,,,,309.48308369999995,309.49844340000027,309.6986188000001,309.6824802000001,308.7198644,,,,,,,,1,1,0.7461378000002696,None,,,,,,,,823,25,M,R,2026-02-18_11h46.18.774,VisualSearch_2526_3,,2025.2.4,2026-02-18 11h46.19.089410 +0100,
tilted.xlsx,The target is tilted.,117,105,1,13,1,1,1,1,1,1,1,1,0,0,0,0,0,7,8,117,space,6.356468999999834,None,1,1,2.558478599999944,None,space,3.5119535999997424,None,0,0,0,0,,,,,13,1,105,1,309.6986188000001,,,,,,,,,,,,,,,,,,,,,309.6832208000001,309.6986188000001,310.1823534,310.1867671,310.2039238000002,312.7657658000003,,,,,312.7659391000002,312.7812583,312.98133480000024,312.9652185,310.2039238000002,,,,,,,,1,1,2.558478599999944,None,,,,,,,,823,25,M,R,2026-02-18_11h46.18.774,VisualSearch_2526_3,,2025.2.4,2026-02-18 11h46.19.089410 +0100,
tilted.xlsx,The target is tilted.,117,106,2,13,1,1,1,1,0,0,0,0,0,0,0,0,0,3,4,117,space,6.356468999999834,None,1,1,0.7426577999999608,None,space,3.5119535999997424,None,0,0,0,0,,,,,13,2,106,2,312.98133480000024,,,,,,,,,,,,,,,,,,,,,312.9659326000001,312.98133480000024,313.46527319999996,313.4696977000003,313.4874887000001,314.23178320000034,,,,,314.2319093000001,314.2476246000001,314.4477955000002,314.4315843000004,313.4874887000001,,,,,,,,1,1,0.7426577999999608,None,,,,,,,,823,25,M,R,2026-02-18_11h46.18.774,VisualSearch_2526_3,,2025.2.4,2026-02-18 11h46.19.089410 +0100,
tilted.xlsx,The target is tilted.,117,107,3,13,0,1,1,1,0,0,0,0,0,0,0,0,1,3,4,117,space,6.356468999999834,None,0,1,0.7748823000001721,None,space,3.5119535999997424,None,0,0,0,0,,,,,13,3,107,6,314.4477955000002,,,,,,,,,,,,,,,,,,,,,314.43233120000014,314.4477955000002,314.9314922000003,314.9359095,314.95367920000035,315.7320842000004,,,,,315.73230809999995,315.7475002000001,315.94739400000026,315.9313624000001,314.95367920000035,,,,,,,,0,1,0.7748823000001721,None,,,,,,,,823,25,M,R,2026-02-18_11h46.18.774,VisualSearch_2526_3,,2025.2.4,2026-02-18 11h46.19.089410 +0100,
tilted.xlsx,The target is tilted.,117,108,4,13,0,0,0,0,0,0,0,0,0,0,0,0,1,1,1,117,space,6.356468999999834,None,0,1,0.5872143999999935,None,space,3.5119535999997424,None,0,0,0,0,,,,,13,4,108,7,315.94739400000026,,,,,,,,,,,,,,,,,,,,,315.93211199999996,315.94739400000026,316.43085370000017,316.4334914000001,316.4472329,317.04856370000016,,,,,317.0487680000001,317.0640515,317.2639902000001,317.2479497000004,316.4472329,,,,,,,,0,1,0.5872143999999935,None,,,,,,,,823,25,M,R,2026-02-18_11h46.18.774,VisualSearch_2526_3,,2025.2.4,2026-02-18 11h46.19.089410 +0100,
tilted.xlsx,The target is tilted.,117,109,5,13,0,1,1,1,1,1,1,1,0,0,0,0,1,7,8,117,space,6.356468999999834,None,0,1,2.033542600000146,None,space,3.5119535999997424,None,0,0,0,0,,,,,13,5,109,5,317.2639902000001,,,,,,,,,,,,,,,,,,,,,317.2486659000001,317.2639902000001,317.7480109000003,317.75326170000017,317.77231900000015,319.8146848000001,,,,,319.8148776000003,319.83004710000023,320.03005299999995,320.0139885000003,317.77231900000015,,,,,,,,0,1,2.033542600000146,None,,,,,,,,823,25,M,R,2026-02-18_11h46.18.774,VisualSearch_2526_3,,2025.2.4,2026-02-18 11h46.19.089410 +0100,
tilted.xlsx,The target is tilted.,117,110,6,13,0,1,1,1,1,1,1,1,1,1,1,1,1,11,12,117,space,6.356468999999834,None,0,1,2.693951300000208,None,space,3.5119535999997424,None,0,0,0,0,,,,,13,6,110,4,320.03005299999995,,,,,,,,,,,,,,,,,,,,,320.0147417000003,320.03005299999995,320.51403660000005,320.5186864000002,320.5365630000001,323.2472431000001,,,,,323.24741970000014,323.26284910000004,323.4623498000001,323.4468619000004,320.5365630000001,,,,,,,,0,1,2.693951300000208,None,,,,,,,,823,25,M,R,2026-02-18_11h46.18.774,VisualSearch_2526_3,,2025.2.4,2026-02-18 11h46.19.089410 +0100,
tilted.xlsx,The target is tilted.,117,111,7,13,1,1,1,1,1,1,1,1,1,1,1,1,0,11,12,117,space,6.356468999999834,None,1,1,2.834882899999684,None,space,3.5119535999997424,None,0,0,0,0,,,,,13,7,111,0,323.4623498000001,,,,,,,,,,,,,,,,,,,,,323.4475923,323.4623498000001,323.94674510000004,323.9512443000003,323.9688335000001,326.81328759999997,,,,,326.81347670000014,326.8289272000002,327.0290156000001,327.0127351000001,323.9688335000001,,,,,,,,1,1,2.834882899999684,None,,,,,,,,823,25,M,R,2026-02-18_11h46.18.774,VisualSearch_2526_3,,2025.2.4,2026-02-18 11h46.19.089410 +0100,
tilted.xlsx,The target is tilted.,117,112,0,14,1,1,1,1,1,1,1,1,1,1,1,1,0,11,12,117,space,6.356468999999834,None,1,1,1.2579077999998844,None,space,3.5119535999997424,None,0,0,0,0,,,,,14,0,112,0,327.0290156000001,,,,,,,,,,,,,,,,,,,,,327.01346220000005,327.0290156000001,327.51281830000016,327.51733779999995,327.53511750000007,328.79643320000014,,,,,328.7966047,328.8120154000003,329.0120562000002,328.99591929999997,327.53511750000007,,,,,,,,1,1,1.2579077999998844,None,,,,,,,,823,25,M,R,2026-02-18_11h46.18.774,VisualSearch_2526_3,,2025.2.4,2026-02-18 11h46.19.089410 +0100,
tilted.xlsx,The target is tilted.,117,113,1,14,0,1,1,1,0,0,0,0,0,0,0,0,1,3,4,117,space,6.356468999999834,None,0,1,0.7643366000002061,None,space,3.5119535999997424,None,0,0,0,0,,,,,14,1,113,6,329.0120562000002,,,,,,,,,,,,,,,,,,,,,328.99663350000037,329.0120562000002,329.4958310000002,329.5003270000002,329.5178726000004,330.2962467000002,,,,,330.2964414000003,330.31181330000027,330.5111976000003,330.49479850000034,329.5178726000004,,,,,,,,0,1,0.7643366000002061,None,,,,,,,,823,25,M,R,2026-02-18_11h46.18.774,VisualSearch_2526_3,,2025.2.4,2026-02-18 11h46.19.089410 +0100,
tilted.xlsx,The target is tilted.,117,114,2,14,0,1,1,1,1,1,1,1,1,1,1,1,1,11,12,117,space,6.356468999999834,None,0,1,4.639301500000329,None,space,3.5119535999997424,None,0,0,0,0,,,,,14,2,114,4,330.5111976000003,,,,,,,,,,,,,,,,,,,,,330.49530410000034,330.5111976000003,330.9957241000002,331.00089879999996,331.0189515000002,335.6616565000004,,,,,335.6618337,335.6774744000004,335.87717420000035,335.8615178,331.0189515000002,,,,,,,,0,1,4.639301500000329,None,,,,,,,,823,25,M,R,2026-02-18_11h46.18.774,VisualSearch_2526_3,,2025.2.4,2026-02-18 11h46.19.089410 +0100,
tilted.xlsx,The target is tilted.,117,115,3,14,1,1,1,1,0,0,0,0,0,0,0,0,0,3,4,117,space,6.356468999999834,None,1,1,1.1677288999999291,None,space,3.5119535999997424,None,0,0,0,0,,,,,14,3,115,2,335.87717420000035,,,,,,,,,,,,,,,,,,,,,335.8622293000003,335.87717420000035,336.36128970000027,336.3658111,336.3835246000003,337.56093120000014,,,,,337.5610587000001,337.57671530000016,337.77730250000013,337.7610546000001,336.3835246000003,,,,,,,,1,1,1.1677288999999291,None,,,,,,,,823,25,M,R,2026-02-18_11h46.18.774,VisualSearch_2526_3,,2025.2.4,2026-02-18 11h46.19.089410 +0100,
tilted.xlsx,The target is tilted.,117,116,4,14,1,1,1,1,1,1,1,1,0,0,0,0,0,7,8,117,space,6.356468999999834,None,1,1,1.6565209000000323,None,space,3.5119535999997424,None,0,0,0,0,,,,,14,4,116,1,337.77730250000013,,,,,,,,,,,,,,,,,,,,,337.76182289999997,337.77730250000013,338.26096210000014,338.2655440000003,338.27698439999995,339.9447087000003,,,,,339.9449029000002,339.96015880000004,340.1600251,340.14407960000017,338.27698439999995,,,,,,,,1,1,1.6565209000000323,None,,,,,,,,823,25,M,R,2026-02-18_11h46.18.774,VisualSearch_2526_3,,2025.2.4,2026-02-18 11h46.19.089410 +0100,
tilted.xlsx,The target is tilted.,117,117,5,14,0,0,0,0,0,0,0,0,0,0,0,0,1,1,1,117,space,6.356468999999834,None,0,1,0.6126121000002058,None,space,3.5119535999997424,None,0,0,0,0,,,,,14,5,117,7,340.1600251,,,,,,,,,,,,,,,,,,,,,340.1448114,340.1600251,340.64410160000034,340.649269,340.6680682000001,341.29415970000036,,,,,341.2943556,341.3099166000002,341.50995220000004,341.4938841000003,340.6680682000001,,,,,,,,0,1,0.6126121000002058,None,,,,,,,,823,25,M,R,2026-02-18_11h46.18.774,VisualSearch_2526_3,,2025.2.4,2026-02-18 11h46.19.089410 +0100,
tilted.xlsx,The target is tilted.,117,118,6,14,1,0,0,0,0,0,0,0,0,0,0,0,0,0,1,117,space,6.356468999999834,None,1,1,0.6404481999998097,None,space,3.5119535999997424,None,0,0,0,0,,,,,14,6,118,3,341.50995220000004,,,,,,,,,,,,,,,,,,,,,341.49459620000016,341.50995220000004,341.9938062000001,341.99818010000035,342.0155920000002,342.66052070000023,,,,,342.6607100000001,342.67636820000007,342.8764892000004,342.8600537000002,342.0155920000002,,,,,,,,1,1,0.6404481999998097,None,,,,,,,,823,25,M,R,2026-02-18_11h46.18.774,VisualSearch_2526_3,,2025.2.4,2026-02-18 11h46.19.089410 +0100,
tilted.xlsx,The target is tilted.,117,119,7,14,0,1,1,1,1,1,1,1,0,0,0,0,1,7,8,117,space,6.356468999999834,None,0,1,3.0617915999996512,None,space,3.5119535999997424,None,0,0,0,0,,,,,14,7,119,5,342.8764892000004,,,,,,,,,,,,,,,,,,,,,342.8609166000001,342.8764892000004,343.3597268000003,343.3640526000004,343.38023580000026,346.44351140000026,,,,,346.44368780000013,346.45903810000027,346.6776302000003,346.6427556000003,343.38023580000026,,,,,,,,0,1,3.0617915999996512,None,,,,,,,,823,25,M,R,2026-02-18_11h46.18.774,VisualSearch_2526_3,,2025.2.4,2026-02-18 11h46.19.089410 +0100,
tilted.xlsx,The target is tilted.,117,0,0,0,,,,,,,,,,,,,,,,,space,6.356468999999834,None,,,,,space,3.5119535999997424,None,0,0,0,0,,,,,,,,,,,,,,,,,,,,,,,,,,,,,,,,,,,,,,,,,,,,,,,,,,,,,,,,,,,,,,,823,25,M,R,2026-02-18_11h46.18.774,VisualSearch_2526_3,,2025.2.4,2026-02-18 11h46.19.089410 +0100,
vertical.xlsx,The target is tilted.,135,0,0,0,1,1,1,1,1,1,1,1,1,1,1,1,0,11,12,135,space,3.2015982999996595,None,1,1,1.4591040999998768,None,,,,0,1,1,1,0,0,0,0,,,,,349.92132440000023,,,,,,,,,,,,,,,346.6776302000003,346.6776302000003,346.6776302000003,space,3.2015982999996595,None,349.91689700000006,349.92132440000023,350.4089242,350.41401829999995,350.4324445000002,351.90941900000007,1,1,1.4591040999998768,None,351.90961430000016,351.92484620000005,352.1249165000004,352.1087415000002,,,,,,,,,,,,,,,,,,,,823,25,M,R,2026-02-18_11h46.18.774,VisualSearch_2526_3,,2025.2.4,2026-02-18 11h46.19.089410 +0100,
vertical.xlsx,The target is tilted.,135,1,1,0,0,1,1,1,1,1,1,1,1,1,1,1,1,11,12,135,space,3.2015982999996595,None,0,1,0.7770725000000311,None,,,,0,1,1,1,0,1,1,4,,,,,352.1249165000004,,,,,,,,,,,,,,,,,,,,,352.10942410000007,352.1249165000004,352.60895870000013,352.6141623000003,352.63291560000016,353.4258331000001,0,1,0.7770725000000311,None,353.42602450000004,353.4411586000001,353.6413408000003,353.62510770000017,352.63291560000016,,,,,,,,,,,,,,,,,,,823,25,M,R,2026-02-18_11h46.18.774,VisualSearch_2526_3,,2025.2.4,2026-02-18 11h46.19.089410 +0100,
vertical.xlsx,The target is tilted.,135,2,2,0,1,1,1,1,1,1,1,1,0,0,0,0,0,7,8,135,space,3.2015982999996595,None,1,1,0.8780852999998388,None,,,,0,1,1,1,0,2,2,1,,,,,353.6413408000003,,,,,,,,,,,,,,,,,,,,,353.6258850000004,353.6413408000003,354.12500309999996,354.1302799,354.1491599000001,355.0415333000001,1,1,0.8780852999998388,None,355.0416801000001,355.05755180000006,355.2577583000002,355.24142410000013,354.1491599000001,,,,,,,,,,,,,,,,,,,823,25,M,R,2026-02-18_11h46.18.774,VisualSearch_2526_3,,2025.2.4,2026-02-18 11h46.19.089410 +0100,
vertical.xlsx,The target is tilted.,135,3,3,0,1,1,1,1,0,0,0,0,0,0,0,0,0,3,4,135,space,3.2015982999996595,None,1,1,0.5932339999999385,None,,,,0,1,1,1,0,3,3,2,,,,,355.2577583000002,,,,,,,,,,,,,,,,,,,,,355.2421724000001,355.2577583000002,355.74161060000006,355.7466618000003,355.76549410000007,356.37498270000015,1,1,0.5932339999999385,None,356.37517160000016,356.3907782000001,356.59080330000006,356.57463989999997,355.76549410000007,,,,,,,,,,,,,,,,,,,823,25,M,R,2026-02-18_11h46.18.774,VisualSearch_2526_3,,2025.2.4,2026-02-18 11h46.19.089410 +0100,
vertical.xlsx,The target is tilted.,135,4,4,0,0,1,1,1,1,1,1,1,0,0,0,0,1,7,8,135,space,3.2015982999996595,None,0,1,1.3993132000000514,None,,,,0,1,1,1,0,4,4,5,,,,,356.59080330000006,,,,,,,,,,,,,,,,,,,,,356.5753347,356.59080330000006,357.0739324000001,357.07655109999996,357.0905538000002,358.4914084000002,0,1,1.3993132000000514,None,358.4915896000002,358.50705000000016,358.7069601000003,358.69055560000015,357.0905538000002,,,,,,,,,,,,,,,,,,,823,25,M,R,2026-02-18_11h46.18.774,VisualSearch_2526_3,,2025.2.4,2026-02-18 11h46.19.089410 +0100,
vertical.xlsx,The target is tilted.,135,5,5,0,1,0,0,0,0,0,0,0,0,0,0,0,0,0,1,135,space,3.2015982999996595,None,1,1,0.5555678000000626,None,,,,0,1,1,1,0,5,5,3,,,,,358.7069601000003,,,,,,,,,,,,,,,,,,,,,358.69097920000013,358.7069601000003,359.19071759999997,359.19473560000006,359.2111649000003,359.7737118,1,1,0.5555678000000626,None,359.77383370000007,359.7900966000002,359.9901587000004,359.97413010000037,359.2111649000003,,,,,,,,,,,,,,,,,,,823,25,M,R,2026-02-18_11h46.18.774,VisualSearch_2526_3,,2025.2.4,2026-02-18 11h46.19.089410 +0100,
vertical.xlsx,The target is tilted.,135,6,6,0,0,0,0,0,0,0,0,0,0,0,0,0,1,1,1,135,space,3.2015982999996595,None,0,1,0.5395121000001382,None,,,,0,1,1,1,0,6,6,7,,,,,359.9901587000004,,,,,,,,,,,,,,,,,,,,,359.97481210000024,359.9901587000004,360.4736882000002,360.4773041000003,360.4946433,361.04098780000004,0,1,0.5395121000001382,None,361.0411752,361.0566127000002,361.2568761000002,361.2405098000004,360.4946433,,,,,,,,,,,,,,,,,,,823,25,M,R,2026-02-18_11h46.18.774,VisualSearch_2526_3,,2025.2.4,2026-02-18 11h46.19.089410 +0100,
vertical.xlsx,The target is tilted.,135,7,7,0,0,1,1,1,0,0,0,0,0,0,0,0,1,3,4,135,space,3.2015982999996595,None,0,1,0.7913982999998552,None,,,,0,1,1,1,0,7,7,6,,,,,361.2568761000002,,,,,,,,,,,,,,,,,,,,,361.24139270000023,361.2568761000002,361.74041750000015,361.7455836000004,361.7651585000003,362.55764210000007,0,1,0.7913982999998552,None,362.55782880000015,362.5731525000001,362.77327630000036,362.75676360000034,361.7651585000003,,,,,,,,,,,,,,,,,,,823,25,M,R,2026-02-18_11h46.18.774,VisualSearch_2526_3,,2025.2.4,2026-02-18 11h46.19.089410 +0100,
vertical.xlsx,The target is tilted.,135,0,0,0,0,1,1,1,1,1,1,1,1,1,1,1,1,11,12,135,space,3.2015982999996595,None,0,1,1.1640578999999889,None,space,1.2127682999998797,None,0,1,1,1,,,,,0,0,0,4,364.0303176000002,,,,,,,,,,,,,,,,,,,,,364.02593939999997,364.0303176000002,364.5066458000001,364.51188679999996,364.53185040000017,365.7071817000001,,,,,365.7073971,365.7225072000001,365.9221437000001,365.9062715,,362.76380930000005,362.77327630000036,362.77327630000036,363.99037750000025,space,1.2127682999998797,None,0,1,1.1640578999999889,None,,,,,,,,823,25,M,R,2026-02-18_11h46.18.774,VisualSearch_2526_3,,2025.2.4,2026-02-18 11h46.19.089410 +0100,
vertical.xlsx,The target is tilted.,135,1,1,0,1,1,1,1,1,1,1,1,0,0,0,0,0,7,8,135,space,3.2015982999996595,None,1,1,0.8813841999999568,None,space,1.2127682999998797,None,0,1,1,1,,,,,0,1,1,1,365.9221437000001,,,,,,,,,,,,,,,,,,,,,365.9071137000001,365.9221437000001,366.40630260000034,366.4107591000002,366.42864929999996,367.3234844000003,,,,,367.3236807000003,367.33895299999995,367.5391145000003,367.52293640000016,366.42864929999996,,,,,,,,1,1,0.8813841999999568,None,,,,,,,,823,25,M,R,2026-02-18_11h46.18.774,VisualSearch_2526_3,,2025.2.4,2026-02-18 11h46.19.089410 +0100,
vertical.xlsx,The target is tilted.,135,2,2,0,1,0,0,0,0,0,0,0,0,0,0,0,0,0,1,135,space,3.2015982999996595,None,1,1,0.4626586999997926,None,space,1.2127682999998797,None,0,1,1,1,,,,,0,2,2,3,367.5391145000003,,,,,,,,,,,,,,,,,,,,,367.52376840000034,367.5391145000003,368.0225088000002,368.0275279000002,368.0468224000001,368.5232995000001,,,,,368.52349520000007,368.5387216000004,368.7389417000004,368.72265289999996,368.0468224000001,,,,,,,,1,1,0.4626586999997926,None,,,,,,,,823,25,M,R,2026-02-18_11h46.18.774,VisualSearch_2526_3,,2025.2.4,2026-02-18 11h46.19.089410 +0100,
vertical.xlsx,The target is tilted.,135,3,3,0,0,1,1,1,0,0,0,0,0,0,0,0,1,3,4,135,space,3.2015982999996595,None,0,1,0.5573535999997148,None,space,1.2127682999998797,None,0,1,1,1,,,,,0,3,3,6,368.7389417000004,,,,,,,,,,,,,,,,,,,,,368.7234061000004,368.7389417000004,369.22215240000014,369.2252532000002,369.2385284000002,369.8065385,,,,,369.80677920000016,369.82203230000005,370.0220125000001,370.0059674000004,369.2385284000002,,,,,,,,0,1,0.5573535999997148,None,,,,,,,,823,25,M,R,2026-02-18_11h46.18.774,VisualSearch_2526_3,,2025.2.4,2026-02-18 11h46.19.089410 +0100,
vertical.xlsx,The target is tilted.,135,4,4,0,1,1,1,1,1,1,1,1,1,1,1,1,0,11,12,135,space,3.2015982999996595,None,1,1,0.8414063999998689,None,space,1.2127682999998797,None,0,1,1,1,,,,,0,4,4,0,370.0220125000001,,,,,,,,,,,,,,,,,,,,,370.0067822000001,370.0220125000001,370.50573140000006,370.5111503000003,370.5309937000002,371.3887630000004,,,,,371.38885340000024,371.40486720000035,371.6050057000002,371.58888830000024,370.5309937000002,,,,,,,,1,1,0.8414063999998689,None,,,,,,,,823,25,M,R,2026-02-18_11h46.18.774,VisualSearch_2526_3,,2025.2.4,2026-02-18 11h46.19.089410 +0100,
vertical.xlsx,The target is tilted.,135,5,5,0,1,1,1,1,0,0,0,0,0,0,0,0,0,3,4,135,space,3.2015982999996595,None,1,1,0.6096250000000509,None,space,1.2127682999998797,None,0,1,1,1,,,,,0,5,5,2,371.6050057000002,,,,,,,,,,,,,,,,,,,,,371.58967729999995,371.6050057000002,372.0889632000003,372.0940582000003,372.1125422,372.73938420000013,,,,,372.7395915000002,372.75474970000005,372.9548791000002,372.9388637000002,372.1125422,,,,,,,,1,1,0.6096250000000509,None,,,,,,,,823,25,M,R,2026-02-18_11h46.18.774,VisualSearch_2526_3,,2025.2.4,2026-02-18 11h46.19.089410 +0100,
vertical.xlsx,The target is tilted.,135,6,6,0,0,1,1,1,1,1,1,1,0,0,0,0,1,7,8,135,space,3.2015982999996595,None,0,1,0.7433866000001217,None,space,1.2127682999998797,None,0,1,1,1,,,,,0,6,6,5,372.9548791000002,,,,,,,,,,,,,,,,,,,,,372.9396922000001,372.9548791000002,373.4385460000003,373.44295740000007,373.4598342000004,374.20576140000003,,,,,374.2059875,374.22085570000036,374.4207040000001,374.40513660000033,373.4598342000004,,,,,,,,0,1,0.7433866000001217,None,,,,,,,,823,25,M,R,2026-02-18_11h46.18.774,VisualSearch_2526_3,,2025.2.4,2026-02-18 11h46.19.089410 +0100,
vertical.xlsx,The target is tilted.,135,7,7,0,0,0,0,0,0,0,0,0,0,0,0,0,1,1,1,135,space,3.2015982999996595,None,0,1,0.4801636999995935,None,space,1.2127682999998797,None,0,1,1,1,,,,,0,7,7,7,374.4207040000001,,,,,,,,,,,,,,,,,,,,,374.4058748000002,374.4207040000001,374.9049930000001,374.9094366000004,374.9268726,375.42232920000015,,,,,375.42257229999996,375.4375497000001,375.6377040000002,375.6216637000002,374.9268726,,,,,,,,0,1,0.4801636999995935,None,,,,,,,,823,25,M,R,2026-02-18_11h46.18.774,VisualSearch_2526_3,,2025.2.4,2026-02-18 11h46.19.089410 +0100,
vertical.xlsx,The target is tilted.,135,8,0,1,1,1,1,1,0,0,0,0,0,0,0,0,0,3,4,135,space,3.2015982999996595,None,1,1,0.7005339000002095,None,space,1.2127682999998797,None,0,1,1,1,,,,,1,0,8,2,375.6377040000002,,,,,,,,,,,,,,,,,,,,,375.6224737000002,375.6377040000002,376.12158020000015,376.12683240000024,376.1454265000002,376.85459740000033,,,,,376.8547410000001,376.8707912,377.0707275,377.05462239999997,376.1454265000002,,,,,,,,1,1,0.7005339000002095,None,,,,,,,,823,25,M,R,2026-02-18_11h46.18.774,VisualSearch_2526_3,,2025.2.4,2026-02-18 11h46.19.089410 +0100,
vertical.xlsx,The target is tilted.,135,9,1,1,1,1,1,1,1,1,1,1,0,0,0,0,0,7,8,135,space,3.2015982999996595,None,1,1,0.59554769999977,None,space,1.2127682999998797,None,0,1,1,1,,,,,1,1,9,1,377.0707275,,,,,,,,,,,,,,,,,,,,,377.05536370000027,377.0707275,377.5545624000001,377.5589718000001,377.5769143000002,378.188036,,,,,378.18819329999997,378.2039439,378.40391769999997,378.38781270000027,377.5769143000002,,,,,,,,1,1,0.59554769999977,None,,,,,,,,823,25,M,R,2026-02-18_11h46.18.774,VisualSearch_2526_3,,2025.2.4,2026-02-18 11h46.19.089410 +0100,
vertical.xlsx,The target is tilted.,135,10,2,1,1,1,1,1,1,1,1,1,1,1,1,1,0,11,12,135,space,3.2015982999996595,None,1,1,0.7213771000001543,None,space,1.2127682999998797,None,0,1,1,1,,,,,1,2,10,0,378.40391769999997,,,,,,,,,,,,,,,,,,,,,378.3885287000003,378.40391769999997,378.88766140000007,378.89266769999995,378.91112520000024,379.63807750000024,,,,,379.63827089999995,379.6532714,379.85373130000016,379.83774270000004,378.91112520000024,,,,,,,,1,1,0.7213771000001543,None,,,,,,,,823,25,M,R,2026-02-18_11h46.18.774,VisualSearch_2526_3,,2025.2.4,2026-02-18 11h46.19.089410 +0100,
vertical.xlsx,The target is tilted.,135,11,3,1,0,1,1,1,1,1,1,1,0,0,0,0,1,7,8,135,space,3.2015982999996595,None,0,1,0.6901279999997314,None,space,1.2127682999998797,None,0,1,1,1,,,,,1,3,11,5,379.85373130000016,,,,,,,,,,,,,,,,,,,,,379.8386134000002,379.85373130000016,380.3375526,380.34262530000024,380.3616076000003,381.0545648000002,,,,,381.05475560000014,381.0700684000003,381.26989070000036,381.25350460000027,380.3616076000003,,,,,,,,0,1,0.6901279999997314,None,,,,,,,,823,25,M,R,2026-02-18_11h46.18.774,VisualSearch_2526_3,,2025.2.4,2026-02-18 11h46.19.089410 +0100,
vertical.xlsx,The target is tilted.,135,12,4,1,1,0,0,0,0,0,0,0,0,0,0,0,0,0,1,135,space,3.2015982999996595,None,1,1,0.5279701999997997,None,space,1.2127682999998797,None,0,1,1,1,,,,,1,4,12,3,381.26989070000036,,,,,,,,,,,,,,,,,,,,,381.254046,381.26989070000036,381.75328830000035,381.75662980000016,381.76945049999995,382.3034224000003,,,,,382.30354480000005,382.3196471000001,382.5199738000001,382.5039074000001,381.76945049999995,,,,,,,,1,1,0.5279701999997997,None,,,,,,,,823,25,M,R,2026-02-18_11h46.18.774,VisualSearch_2526_3,,2025.2.4,2026-02-18 11h46.19.089410 +0100,
vertical.xlsx,The target is tilted.,135,13,5,1,0,0,0,0,0,0,0,0,0,0,0,0,1,1,1,135,space,3.2015982999996595,None,0,1,0.5687910999999986,None,space,1.2127682999998797,None,0,1,1,1,,,,,1,5,13,7,382.5199738000001,,,,,,,,,,,,,,,,,,,,,382.50472020000007,382.5199738000001,383.0034776000002,383.0082873000001,383.02628410000034,383.60412410000026,,,,,383.6043158000002,383.61961500000007,383.81927640000004,383.8035814,383.02628410000034,,,,,,,,0,1,0.5687910999999986,None,,,,,,,,823,25,M,R,2026-02-18_11h46.18.774,VisualSearch_2526_3,,2025.2.4,2026-02-18 11h46.19.089410 +0100,
vertical.xlsx,The target is tilted.,135,14,6,1,0,1,1,1,1,1,1,1,1,1,1,1,1,11,12,135,space,3.2015982999996595,None,0,1,0.7994665999999597,None,space,1.2127682999998797,None,0,1,1,1,,,,,1,6,14,4,383.81927640000004,,,,,,,,,,,,,,,,,,,,,383.8043012000003,383.81927640000004,384.30360710000014,384.30941870000015,384.32830250000006,385.1372177000003,,,,,385.1374079000002,385.15236970000024,385.3528032000004,385.3367317000002,384.32830250000006,,,,,,,,0,1,0.7994665999999597,None,,,,,,,,823,25,M,R,2026-02-18_11h46.18.774,VisualSearch_2526_3,,2025.2.4,2026-02-18 11h46.19.089410 +0100,
vertical.xlsx,The target is tilted.,135,15,7,1,0,1,1,1,0,0,0,0,0,0,0,0,1,3,4,135,space,3.2015982999996595,None,0,1,0.4898809999999685,None,space,1.2127682999998797,None,0,1,1,1,,,,,1,7,15,6,385.3528032000004,,,,,,,,,,,,,,,,,,,,,385.3376301000003,385.3528032000004,385.83648200000016,385.84161840000024,385.86032460000024,386.3538202,,,,,386.35405400000036,386.3691442000004,386.56911770000033,386.55307660000017,385.86032460000024,,,,,,,,0,1,0.4898809999999685,None,,,,,,,,823,25,M,R,2026-02-18_11h46.18.774,VisualSearch_2526_3,,2025.2.4,2026-02-18 11h46.19.089410 +0100,
vertical.xlsx,The target is tilted.,135,16,0,2,1,1,1,1,0,0,0,0,0,0,0,0,0,3,4,135,space,3.2015982999996595,None,1,1,0.4476639999998042,None,space,1.2127682999998797,None,0,1,1,1,,,,,2,0,16,2,386.56911770000033,,,,,,,,,,,,,,,,,,,,,386.55390510000007,386.56911770000033,387.0531095000001,387.0582238000002,387.07778750000034,387.5369039000002,,,,,387.53712840000026,387.5522500000002,387.75225750000027,387.73553830000037,387.07778750000034,,,,,,,,1,1,0.4476639999998042,None,,,,,,,,823,25,M,R,2026-02-18_11h46.18.774,VisualSearch_2526_3,,2025.2.4,2026-02-18 11h46.19.089410 +0100,
vertical.xlsx,The target is tilted.,135,17,1,2,0,0,0,0,0,0,0,0,0,0,0,0,1,1,1,135,space,3.2015982999996595,None,0,1,0.5030971999999565,None,space,1.2127682999998797,None,0,1,1,1,,,,,2,1,17,7,387.75225750000027,,,,,,,,,,,,,,,,,,,,,387.73598280000033,387.75225750000027,388.23634770000035,388.2414974000003,388.26347750000014,388.77013950000037,,,,,388.77037470000005,388.7854132000002,388.98513260000027,388.9694188000003,388.26347750000014,,,,,,,,0,1,0.5030971999999565,None,,,,,,,,823,25,M,R,2026-02-18_11h46.18.774,VisualSearch_2526_3,,2025.2.4,2026-02-18 11h46.19.089410 +0100,
vertical.xlsx,The target is tilted.,135,18,2,2,1,0,0,0,0,0,0,0,0,0,0,0,0,0,1,135,space,3.2015982999996595,None,1,1,0.46755720000010115,None,space,1.2127682999998797,None,0,1,1,1,,,,,2,2,18,3,388.98513260000027,,,,,,,,,,,,,,,,,,,,,388.97018620000017,388.98513260000027,389.4691136000001,389.47363510000014,389.4905200000003,389.9697097000003,,,,,389.9698993000002,389.9848989000002,390.18535710000015,390.1693766000003,389.4905200000003,,,,,,,,1,1,0.46755720000010115,None,,,,,,,,823,25,M,R,2026-02-18_11h46.18.774,VisualSearch_2526_3,,2025.2.4,2026-02-18 11h46.19.089410 +0100,
vertical.xlsx,The target is tilted.,135,19,3,2,0,1,1,1,1,1,1,1,0,0,0,0,1,7,8,135,space,3.2015982999996595,None,0,1,0.7224564000002829,None,space,1.2127682999998797,None,0,1,1,1,,,,,2,3,19,5,390.18535710000015,,,,,,,,,,,,,,,,,,,,,390.1702406000004,390.18535710000015,390.66922090000025,390.67446800000016,390.69299070000034,391.4191807000002,,,,,391.4193746000001,391.4348825000002,391.6350402000003,391.61891730000025,390.69299070000034,,,,,,,,0,1,0.7224564000002829,None,,,,,,,,823,25,M,R,2026-02-18_11h46.18.774,VisualSearch_2526_3,,2025.2.4,2026-02-18 11h46.19.089410 +0100,
vertical.xlsx,The target is tilted.,135,20,4,2,0,1,1,1,1,1,1,1,1,1,1,1,1,11,12,135,space,3.2015982999996595,None,0,1,1.2217853000001924,None,space,1.2127682999998797,None,0,1,1,1,,,,,2,4,20,4,391.6350402000003,,,,,,,,,,,,,,,,,,,,,391.6196337000001,391.6350402000003,392.1186125000004,392.1215433000002,392.13463279999996,393.3689021,,,,,393.3690770000003,393.3846560000002,393.5847463,393.56863810000004,392.13463279999996,,,,,,,,0,1,1.2217853000001924,None,,,,,,,,823,25,M,R,2026-02-18_11h46.18.774,VisualSearch_2526_3,,2025.2.4,2026-02-18 11h46.19.089410 +0100,
vertical.xlsx,The target is tilted.,135,21,5,2,1,1,1,1,1,1,1,1,1,1,1,1,0,11,12,135,space,3.2015982999996595,None,1,1,0.9940142000000378,None,space,1.2127682999998797,None,0,1,1,1,,,,,2,5,21,0,393.5847463,,,,,,,,,,,,,,,,,,,,,393.56936620000033,393.5847463,394.06854870000006,394.07310400000006,394.0915608,395.1021176000004,,,,,395.10229389999995,395.11761160000015,395.3178151000002,395.30148180000015,394.0915608,,,,,,,,1,1,0.9940142000000378,None,,,,,,,,823,25,M,R,2026-02-18_11h46.18.774,VisualSearch_2526_3,,2025.2.4,2026-02-18 11h46.19.089410 +0100,
vertical.xlsx,The target is tilted.,135,22,6,2,0,1,1,1,0,0,0,0,0,0,0,0,1,3,4,135,space,3.2015982999996595,None,0,1,0.5910681999998815,None,space,1.2127682999998797,None,0,1,1,1,,,,,2,6,22,6,395.3178151000002,,,,,,,,,,,,,,,,,,,,,395.30226600000015,395.3178151000002,395.8016686000001,395.8067796,395.8248857000003,396.4188188000003,,,,,396.41901940000025,396.43382310000015,396.6338238000003,396.6179968000001,395.8248857000003,,,,,,,,0,1,0.5910681999998815,None,,,,,,,,823,25,M,R,2026-02-18_11h46.18.774,VisualSearch_2526_3,,2025.2.4,2026-02-18 11h46.19.089410 +0100,
vertical.xlsx,The target is tilted.,135,23,7,2,1,1,1,1,1,1,1,1,0,0,0,0,0,7,8,135,space,3.2015982999996595,None,1,1,0.6558734999998705,None,space,1.2127682999998797,None,0,1,1,1,,,,,2,7,23,1,396.6338238000003,,,,,,,,,,,,,,,,,,,,,396.61876789999997,396.6338238000003,397.11800970000013,397.122476,397.1402779,397.80220050000025,,,,,397.80238770000005,397.8173595000003,398.0173989,398.0012461000001,397.1402779,,,,,,,,1,1,0.6558734999998705,None,,,,,,,,823,25,M,R,2026-02-18_11h46.18.774,VisualSearch_2526_3,,2025.2.4,2026-02-18 11h46.19.089410 +0100,
vertical.xlsx,The target is tilted.,135,24,0,3,1,1,1,1,1,1,1,1,0,0,0,0,0,7,8,135,space,3.2015982999996595,None,1,1,0.8022633000000496,None,space,1.2127682999998797,None,0,1,1,1,,,,,3,0,24,1,398.0173989,,,,,,,,,,,,,,,,,,,,,398.0021002000003,398.0173989,398.5011794000002,398.5062818000001,398.5242462000001,399.33491430000004,,,,,399.3351037000002,399.35031849999996,399.5504099,399.5344245000001,398.5242462000001,,,,,,,,1,1,0.8022633000000496,None,,,,,,,,823,25,M,R,2026-02-18_11h46.18.774,VisualSearch_2526_3,,2025.2.4,2026-02-18 11h46.19.089410 +0100,
vertical.xlsx,The target is tilted.,135,25,1,3,0,1,1,1,0,0,0,0,0,0,0,0,1,3,4,135,space,3.2015982999996595,None,0,1,0.5216297000001759,None,space,1.2127682999998797,None,0,1,1,1,,,,,3,1,25,6,399.5504099,,,,,,,,,,,,,,,,,,,,,399.5352634000001,399.5504099,400.0342660000001,400.0393207000002,400.0586045,400.5843412000004,,,,,400.58453210000016,400.5999549000003,400.79977180000014,400.7839640000002,400.0586045,,,,,,,,0,1,0.5216297000001759,None,,,,,,,,823,25,M,R,2026-02-18_11h46.18.774,VisualSearch_2526_3,,2025.2.4,2026-02-18 11h46.19.089410 +0100,
vertical.xlsx,The target is tilted.,135,26,2,3,1,0,0,0,0,0,0,0,0,0,0,0,0,0,1,135,space,3.2015982999996595,None,1,1,0.4622020000001612,None,space,1.2127682999998797,None,0,1,1,1,,,,,3,2,26,3,400.79977180000014,,,,,,,,,,,,,,,,,,,,,400.78484260000005,400.79977180000014,401.28409720000036,401.2891343000001,401.30852730000015,401.78445920000013,,,,,401.7846547000004,401.79946770000015,401.9999007000001,401.98394770000004,401.30852730000015,,,,,,,,1,1,0.4622020000001612,None,,,,,,,,823,25,M,R,2026-02-18_11h46.18.774,VisualSearch_2526_3,,2025.2.4,2026-02-18 11h46.19.089410 +0100,
vertical.xlsx,The target is tilted.,135,27,3,3,0,0,0,0,0,0,0,0,0,0,0,0,1,1,1,135,space,3.2015982999996595,None,0,1,0.5138559000001806,None,space,1.2127682999998797,None,0,1,1,1,,,,,3,3,27,7,401.9999007000001,,,,,,,,,,,,,,,,,,,,,401.98478410000007,401.9999007000001,402.4834576000003,402.48714740000014,402.5034307000001,403.03365900000017,,,,,403.0338015000002,403.04945580000003,403.2494969000004,403.23361520000026,402.5034307000001,,,,,,,,0,1,0.5138559000001806,None,,,,,,,,823,25,M,R,2026-02-18_11h46.18.774,VisualSearch_2526_3,,2025.2.4,2026-02-18 11h46.19.089410 +0100,
vertical.xlsx,The target is tilted.,135,28,4,3,0,1,1,1,1,1,1,1,1,1,1,1,1,11,12,135,space,3.2015982999996595,None,0,1,0.8411857999999484,None,space,1.2127682999998797,None,0,1,1,1,,,,,3,4,28,4,403.2494969000004,,,,,,,,,,,,,,,,,,,,,403.2343573000003,403.2494969000004,403.7331607000001,403.7357681000003,403.74942980000014,404.6003544,,,,,404.6005462000003,404.61592880000035,404.8162321,404.79968240000017,403.74942980000014,,,,,,,,0,1,0.8411857999999484,None,,,,,,,,823,25,M,R,2026-02-18_11h46.18.774,VisualSearch_2526_3,,2025.2.4,2026-02-18 11h46.19.089410 +0100,
vertical.xlsx,The target is tilted.,135,29,5,3,0,1,1,1,1,1,1,1,0,0,0,0,1,7,8,135,space,3.2015982999996595,None,0,1,1.106905099999949,None,space,1.2127682999998797,None,0,1,1,1,,,,,3,5,29,5,404.8162321,,,,,,,,,,,,,,,,,,,,,404.8004689000004,404.8162321,405.2999084000003,405.3050505000001,405.32339249999995,406.43381020000015,,,,,406.4340126000002,406.44884550000006,406.6491135000001,406.6331467,405.32339249999995,,,,,,,,0,1,1.106905099999949,None,,,,,,,,823,25,M,R,2026-02-18_11h46.18.774,VisualSearch_2526_3,,2025.2.4,2026-02-18 11h46.19.089410 +0100,
vertical.xlsx,The target is tilted.,135,30,6,3,1,1,1,1,1,1,1,1,1,1,1,1,0,11,12,135,space,3.2015982999996595,None,1,1,0.5562494000000697,None,space,1.2127682999998797,None,0,1,1,1,,,,,3,6,30,0,406.6491135000001,,,,,,,,,,,,,,,,,,,,,406.63386430000037,406.6491135000001,407.13291660000004,407.13742030000003,407.1557256000001,407.7164259000001,,,,,407.71663450000005,407.7322468000002,407.93214220000027,407.9162779000003,407.1557256000001,,,,,,,,1,1,0.5562494000000697,None,,,,,,,,823,25,M,R,2026-02-18_11h46.18.774,VisualSearch_2526_3,,2025.2.4,2026-02-18 11h46.19.089410 +0100,
vertical.xlsx,The target is tilted.,135,31,7,3,1,1,1,1,0,0,0,0,0,0,0,0,0,3,4,135,space,3.2015982999996595,None,1,1,0.8082798999998886,None,space,1.2127682999998797,None,0,1,1,1,,,,,3,7,31,2,407.93214220000027,,,,,,,,,,,,,,,,,,,,,407.91683280000007,407.93214220000027,408.41613810000035,408.42050670000026,408.4382068,409.2498184000001,,,,,409.25000309999996,409.26541810000026,409.4653889000001,409.44963780000035,408.4382068,,,,,,,,1,1,0.8082798999998886,None,,,,,,,,823,25,M,R,2026-02-18_11h46.18.774,VisualSearch_2526_3,,2025.2.4,2026-02-18 11h46.19.089410 +0100,
vertical.xlsx,The target is tilted.,135,32,0,4,1,1,1,1,0,0,0,0,0,0,0,0,0,3,4,135,space,3.2015982999996595,None,1,1,0.7417418999998517,None,space,1.2127682999998797,None,0,1,1,1,,,,,4,0,32,2,409.4653889000001,,,,,,,,,,,,,,,,,,,,,409.4504267000002,409.4653889000001,409.9492841000001,409.95376720000013,409.9709448000003,410.71579569999994,,,,,410.71591149999995,410.7317428000001,410.93187780000017,410.9161988000001,409.9709448000003,,,,,,,,1,1,0.7417418999998517,None,,,,,,,,823,25,M,R,2026-02-18_11h46.18.774,VisualSearch_2526_3,,2025.2.4,2026-02-18 11h46.19.089410 +0100,
vertical.xlsx,The target is tilted.,135,33,1,4,0,0,0,0,0,0,0,0,0,0,0,0,1,1,1,135,space,3.2015982999996595,None,0,1,0.7671144000000822,None,space,1.2127682999998797,None,0,1,1,1,,,,,4,1,33,7,410.93187780000017,,,,,,,,,,,,,,,,,,,,,410.9169941,410.93187780000017,411.41584820000026,411.42085810000026,411.43938320000007,412.2162350000003,,,,,412.21645149999995,412.2312277000001,412.4315861,412.41539360000024,411.43938320000007,,,,,,,,0,1,0.7671144000000822,None,,,,,,,,823,25,M,R,2026-02-18_11h46.18.774,VisualSearch_2526_3,,2025.2.4,2026-02-18 11h46.19.089410 +0100,
vertical.xlsx,The target is tilted.,135,34,2,4,0,1,1,1,0,0,0,0,0,0,0,0,1,3,4,135,space,3.2015982999996595,None,0,1,0.639420699999846,None,space,1.2127682999998797,None,0,1,1,1,,,,,4,2,34,6,412.4315861,,,,,,,,,,,,,,,,,,,,,412.41616890000023,412.4315861,412.91542900000013,412.9198599000001,412.9375140000002,413.58252930000026,,,,,413.5827214000001,413.59799060000023,413.7975733000003,413.7817775000003,412.9375140000002,,,,,,,,0,1,0.639420699999846,None,,,,,,,,823,25,M,R,2026-02-18_11h46.18.774,VisualSearch_2526_3,,2025.2.4,2026-02-18 11h46.19.089410 +0100,
