file_name,block_instructions,target_example,thisN,thisTrialN,thisRepN,target_presence,opacity_1,opacity_2,opacity_3,opacity_4,opacity_5,opacity_6,opacity_7,opacity_8,opacity_9,opacity_10,opacity_11,opacity_12,n_distract,n_items,target_ori,key_resp_4.keys,key_resp_4.rt,key_resp_4.duration,key_resp.keys,key_resp.corr,key_resp.rt,key_resp.duration,key_resp_5.keys,key_resp_5.rt,key_resp_5.duration,blocks.thisRepN,blocks.thisTrialN,blocks.thisN,blocks.thisIndex,practice_trials.thisRepN,practice_trials.thisTrialN,practice_trials.thisN,practice_trials.thisIndex,trials.thisRepN,trials.thisTrialN,trials.thisN,trials.thisIndex,thisRow.t,notes,Welcome.started,WelcomeText.started,key_resp_2.started,Welcome.stopped,key_resp_2.keys,key_resp_2.rt,key_resp_2.duration,InformedConsent.started,text_4.started,InformedConsent.stopped,key_resp_6.keys,key_resp_6.rt,key_resp_6.duration,key_resp_4.started,example_target.started,text_3.started,blocks.key_resp_4.keys,blocks.key_resp_4.rt,blocks.key_resp_4.duration,FixCross.started,fixCross.started,FixCross.stopped,Stimulus.started,key_resp.started,Stimulus.stopped,practice_trials.key_resp.keys,practice_trials.key_resp.corr,practice_trials.key_resp.rt,practice_trials.key_resp.duration,BlankScreen.started,text.started,text.stopped,BlankScreen.stopped,fixCross.stopped,ExperimentStart.started,text_2.started,key_resp_5.started,ExperimentStart.stopped,blocks.key_resp_5.keys,blocks.key_resp_5.rt,blocks.key_resp_5.duration,trials.key_resp.keys,trials.key_resp.corr,trials.key_resp.rt,trials.key_resp.duration,Thanks.started,ThankYou.started,key_resp_3.started,Thanks.stopped,key_resp_3.keys,key_resp_3.rt,key_resp_3.duration,participant,leeftijd,gender,links/rechtshandig,date,expName,expVersion,psychopyVersion,expStart,
,,,,,,,,,,,,,,,,,,,,,,,,,,,,,,,,,,,,,,,,,,,,,,0.02742999999964013,0.04622539999991204,0.04622539999991204,20.034497699999974,space,19.962203300000056,None,,,,,,,,,,,,,,,,,,,,,,,,,,,,,,,,,,,,,,,,,,,,,,824,22,M,R,2026-02-18_11h58.38.230,VisualSearch_2526_3,,2025.2.4,2026-02-18 11h58.38.530715 +0100,
,,,,,,,,,,,,,,,,,,,,,,,,,,,,,,,,,,,,,,,,,,,,,,,,,,,,,20.0346341999998,20.043815099999847,28.904144599999654,y,8.857499599999755,None,,,,,,,,,,,,,,,,,,,,,,,,,,,,,,,,,,,,,,,,824,22,M,R,2026-02-18_11h58.38.230,VisualSearch_2526_3,,2025.2.4,2026-02-18 11h58.38.530715 +0100,
tilted.xlsx,The target is tilted.,117,0,0,0,0,1,1,1,0,0,0,0,0,0,0,0,1,3,4,117,space,8.20769509999991,None,0,1,1.760171999999784,None,,,,0,0,0,0,0,0,0,6,,,,,37.20284959999981,,,,,,,,,,,,,,,28.953411199999664,28.953411199999664,28.953411199999664,space,8.20769509999991,None,37.19686189999993,37.20284959999981,37.68508819999988,37.68990599999961,37.70259769999984,39.46853059999967,0,1,1.760171999999784,None,39.46870339999987,39.48429899999974,39.68447239999978,39.66807759999983,,,,,,,,,,,,,,,,,,,,824,22,M,R,2026-02-18_11h58.38.230,VisualSearch_2526_3,,2025.2.4,2026-02-18 11h58.38.530715 +0100,
tilted.xlsx,The target is tilted.,117,1,1,0,1,0,0,0,0,0,0,0,0,0,0,0,0,0,1,117,space,8.20769509999991,None,0,0,0.6700420999995913,None,,,,0,0,0,0,0,1,1,3,,,,,39.68447239999978,,,,,,,,,,,,,,,,,,,,,39.66869059999999,39.68447239999978,40.167359699999906,40.169843899999705,40.18416849999994,40.86824639999986,0,0,0.6700420999995913,None,40.86843369999997,40.88415199999963,41.08428389999972,41.06810739999992,40.18416849999994,,,,,,,,,,,,,,,,,,,824,22,M,R,2026-02-18_11h58.38.230,VisualSearch_2526_3,,2025.2.4,2026-02-18 11h58.38.530715 +0100,
tilted.xlsx,The target is tilted.,117,2,2,0,1,1,1,1,1,1,1,1,1,1,1,1,0,11,12,117,space,8.20769509999991,None,1,1,1.0623789000001125,None,,,,0,0,0,0,0,2,2,0,,,,,41.08428389999972,,,,,,,,,,,,,,,,,,,,,41.06893599999967,41.08428389999972,41.56803449999961,41.57323509999969,41.59249789999967,42.66714719999982,1,1,1.0623789000001125,None,42.66726100000005,42.68308429999979,42.8834554,42.86745229999997,41.59249789999967,,,,,,,,,,,,,,,,,,,824,22,M,R,2026-02-18_11h58.38.230,VisualSearch_2526_3,,2025.2.4,2026-02-18 11h58.38.530715 +0100,
tilted.xlsx,The target is tilted.,117,3,3,0,1,1,1,1,0,0,0,0,0,0,0,0,0,3,4,117,space,8.20769509999991,None,0,0,0.8112236000001758,None,,,,0,0,0,0,0,3,3,2,,,,,42.8834554,,,,,,,,,,,,,,,,,,,,,42.86813439999969,42.8834554,43.36735520000002,43.37239180000006,43.391018299999814,44.21692209999992,0,0,0.8112236000001758,None,44.2170372999999,44.23280309999973,44.43336959999988,44.41728359999979,,,,,,,,,,,,,,,,,,,,824,22,M,R,2026-02-18_11h58.38.230,VisualSearch_2526_3,,2025.2.4,2026-02-18 11h58.38.530715 +0100,
tilted.xlsx,The target is tilted.,117,4,4,0,0,1,1,1,1,1,1,1,0,0,0,0,1,7,8,117,space,8.20769509999991,None,1,0,1.3624669000000722,None,,,,0,0,0,0,0,4,4,5,,,,,44.43336959999988,,,,,,,,,,,,,,,,,,,,,44.41796469999963,44.43336959999988,44.917146799999955,44.92255260000002,44.941111499999806,46.31704529999979,1,0,1.3624669000000722,None,46.31722489999993,46.3326947999999,46.53331799999978,46.51693959999966,,,,,,,,,,,,,,,,,,,,824,22,M,R,2026-02-18_11h58.38.230,VisualSearch_2526_3,,2025.2.4,2026-02-18 11h58.38.530715 +0100,
tilted.xlsx,The target is tilted.,117,5,5,0,0,0,0,0,0,0,0,0,0,0,0,0,1,1,1,117,space,8.20769509999991,None,0,1,0.8415789999999106,None,,,,0,0,0,0,0,5,5,7,,,,,46.53331799999978,,,,,,,,,,,,,,,,,,,,,46.517588599999726,46.53331799999978,47.016779699999915,47.021782399999665,47.040020099999765,47.884027799999785,0,1,0.8415789999999106,None,47.88419459999977,47.89895349999961,48.099543899999844,48.08349719999978,47.040020099999765,,,,,,,,,,,,,,,,,,,824,22,M,R,2026-02-18_11h58.38.230,VisualSearch_2526_3,,2025.2.4,2026-02-18 11h58.38.530715 +0100,
tilted.xlsx,The target is tilted.,117,6,6,0,1,1,1,1,1,1,1,1,0,0,0,0,0,7,8,117,space,8.20769509999991,None,1,1,0.8697014999997918,None,,,,0,0,0,0,0,6,6,1,,,,,48.099543899999844,,,,,,,,,,,,,,,,,,,,,48.08414270000003,48.099543899999844,48.583755999999994,48.58879359999992,48.59907009999961,49.482744699999785,1,1,0.8697014999997918,None,49.48286179999968,49.49866169999996,,49.68303620000006,48.59907009999961,,,,,,,,,,,,,,,,,,,824,22,M,R,2026-02-18_11h58.38.230,VisualSearch_2526_3,,2025.2.4,2026-02-18 11h58.38.530715 +0100,
tilted.xlsx,The target is tilted.,117,7,7,0,0,1,1,1,1,1,1,1,1,1,1,1,1,11,12,117,space,8.20769509999991,None,1,0,0.8986525000000256,None,,,,0,0,0,0,0,7,7,4,,,,,49.69941719999997,,,,,,,,,,,,,,,,,,,,,49.683710399999654,49.69941719999997,50.18303969999988,50.18846859999985,50.20735849999983,51.116257700000006,1,0,0.8986525000000256,None,51.11638819999962,51.13174459999982,51.332430999999815,51.31621649999988,,,,,,,,,,,,,,,,,,,,824,22,M,R,2026-02-18_11h58.38.230,VisualSearch_2526_3,,2025.2.4,2026-02-18 11h58.38.530715 +0100,
tilted.xlsx,The target is tilted.,117,0,0,0,0,0,0,0,0,0,0,0,0,0,0,0,1,1,1,117,space,8.20769509999991,None,0,1,1.0642868999998427,None,space,2.9866336999998566,None,0,0,0,0,,,,,0,0,0,7,54.37334959999998,,,,,,,,,,,,,,,,,,,,,54.36914129999968,54.37334959999998,54.84902239999974,54.85537469999963,54.87718689999974,55.949472499999956,,,,,55.94966810000005,55.964507799999865,56.16484709999986,56.14868099999967,,51.32361749999973,51.332430999999815,51.332430999999815,54.333076399999754,space,2.9866336999998566,None,0,1,1.0642868999998427,None,,,,,,,,824,22,M,R,2026-02-18_11h58.38.230,VisualSearch_2526_3,,2025.2.4,2026-02-18 11h58.38.530715 +0100,
tilted.xlsx,The target is tilted.,117,1,1,0,1,1,1,1,1,1,1,1,0,0,0,0,0,7,8,117,space,8.20769509999991,None,1,1,0.7878069999997024,None,space,2.9866336999998566,None,0,0,0,0,,,,,0,1,1,1,56.16484709999986,,,,,,,,,,,,,,,,,,,,,56.1494002999998,56.16484709999986,56.648721399999886,56.65337849999969,56.670668999999634,57.46588759999986,,,,,57.466097799999716,57.48091149999982,57.68143919999966,57.66513659999964,56.670668999999634,,,,,,,,1,1,0.7878069999997024,None,,,,,,,,824,22,M,R,2026-02-18_11h58.38.230,VisualSearch_2526_3,,2025.2.4,2026-02-18 11h58.38.530715 +0100,
tilted.xlsx,The target is tilted.,117,2,2,0,0,1,1,1,1,1,1,1,0,0,0,0,1,7,8,117,space,8.20769509999991,None,1,0,0.6708123999997042,None,space,2.9866336999998566,None,0,0,0,0,,,,,0,2,2,5,57.68143919999966,,,,,,,,,,,,,,,,,,,,,57.66581839999981,57.68143919999966,58.16441569999961,58.167253099999925,58.18110579999984,58.864422099999956,,,,,58.864543199999844,58.880794199999855,,59.06481339999982,58.18110579999984,,,,,,,,1,0,0.6708123999997042,None,,,,,,,,824,22,M,R,2026-02-18_11h58.38.230,VisualSearch_2526_3,,2025.2.4,2026-02-18 11h58.38.530715 +0100,
tilted.xlsx,The target is tilted.,117,3,3,0,1,1,1,1,0,0,0,0,0,0,0,0,0,3,4,117,space,8.20769509999991,None,0,0,0.8159536999996817,None,space,2.9866336999998566,None,0,0,0,0,,,,,0,3,3,2,59.08119319999969,,,,,,,,,,,,,,,,,,,,,59.065580599999976,59.08119319999969,59.5647328,59.57012439999971,59.58895699999994,60.41548279999961,,,,,60.41569899999968,60.430167399999846,60.630907999999636,60.614626300000054,,,,,,,,,0,0,0.8159536999996817,None,,,,,,,,824,22,M,R,2026-02-18_11h58.38.230,VisualSearch_2526_3,,2025.2.4,2026-02-18 11h58.38.530715 +0100,
tilted.xlsx,The target is tilted.,117,4,4,0,1,0,0,0,0,0,0,0,0,0,0,0,0,0,1,117,space,8.20769509999991,None,0,0,0.6115740999998707,None,space,2.9866336999998566,None,0,0,0,0,,,,,0,4,4,3,60.630907999999636,,,,,,,,,,,,,,,,,,,,,60.615360999999666,60.630907999999636,61.114919499999814,61.12013429999979,61.13874619999979,61.76447689999986,,,,,61.76466239999991,61.78009239999983,61.98059569999987,61.963911499999995,61.13874619999979,,,,,,,,0,0,0.6115740999998707,None,,,,,,,,824,22,M,R,2026-02-18_11h58.38.230,VisualSearch_2526_3,,2025.2.4,2026-02-18 11h58.38.530715 +0100,
tilted.xlsx,The target is tilted.,117,5,5,0,0,1,1,1,1,1,1,1,1,1,1,1,1,11,12,117,space,8.20769509999991,None,1,0,1.139012300000104,None,space,2.9866336999998566,None,0,0,0,0,,,,,0,5,5,4,61.98059569999987,,,,,,,,,,,,,,,,,,,,,61.96440510000002,61.98059569999987,62.464716599999974,62.4699999999998,62.488930999999866,63.63122939999994,,,,,63.63140879999992,63.646464099999775,63.84702639999978,63.83085170000004,62.488930999999866,,,,,,,,1,0,1.139012300000104,None,,,,,,,,824,22,M,R,2026-02-18_11h58.38.230,VisualSearch_2526_3,,2025.2.4,2026-02-18 11h58.38.530715 +0100,
tilted.xlsx,The target is tilted.,117,6,6,0,0,1,1,1,0,0,0,0,0,0,0,0,1,3,4,117,space,8.20769509999991,None,0,1,0.7565422999996372,None,space,2.9866336999998566,None,0,0,0,0,,,,,0,6,6,6,63.84702639999978,,,,,,,,,,,,,,,,,,,,,63.831618700000035,63.84702639999978,64.33084269999972,64.33550689999993,64.35284179999962,65.11494519999997,,,,,65.11513779999996,65.12958239999989,65.33011989999977,65.31394689999979,64.35284179999962,,,,,,,,0,1,0.7565422999996372,None,,,,,,,,824,22,M,R,2026-02-18_11h58.38.230,VisualSearch_2526_3,,2025.2.4,2026-02-18 11h58.38.530715 +0100,
tilted.xlsx,The target is tilted.,117,7,7,0,1,1,1,1,1,1,1,1,1,1,1,1,0,11,12,117,space,8.20769509999991,None,1,1,0.6302317000004223,None,space,2.9866336999998566,None,0,0,0,0,,,,,0,7,7,0,65.33011989999977,,,,,,,,,,,,,,,,,,,,,65.31471049999982,65.33011989999977,65.81387859999995,65.81861519999984,65.83528320000005,66.4798910999998,,,,,66.48002369999995,66.49583849999999,,66.6801876999998,65.83528320000005,,,,,,,,1,1,0.6302317000004223,None,,,,,,,,824,22,M,R,2026-02-18_11h58.38.230,VisualSearch_2526_3,,2025.2.4,2026-02-18 11h58.38.530715 +0100,
tilted.xlsx,The target is tilted.,117,8,0,1,1,1,1,1,1,1,1,1,1,1,1,1,0,11,12,117,space,8.20769509999991,None,1,1,1.224933499999679,None,space,2.9866336999998566,None,0,0,0,0,,,,,1,0,8,0,66.6965468999997,,,,,,,,,,,,,,,,,,,,,66.68093090000002,66.6965468999997,67.18022999999994,67.18550559999994,67.20445579999978,68.43070339999986,,,,,68.43089719999989,68.44570649999969,68.64589959999967,68.63012159999971,,,,,,,,,1,1,1.224933499999679,None,,,,,,,,824,22,M,R,2026-02-18_11h58.38.230,VisualSearch_2526_3,,2025.2.4,2026-02-18 11h58.38.530715 +0100,
tilted.xlsx,The target is tilted.,117,9,1,1,0,0,0,0,0,0,0,0,0,0,0,0,1,1,1,117,space,8.20769509999991,None,0,1,0.6473950999998124,None,space,2.9866336999998566,None,0,0,0,0,,,,,1,1,9,7,68.64589959999967,,,,,,,,,,,,,,,,,,,,,68.63083710000001,68.64589959999967,69.1300498999999,69.13465469999983,69.15263879999975,69.81264669999973,,,,,69.81276799999978,69.82860899999969,,70.01303119999966,69.15263879999975,,,,,,,,0,1,0.6473950999998124,None,,,,,,,,824,22,M,R,2026-02-18_11h58.38.230,VisualSearch_2526_3,,2025.2.4,2026-02-18 11h58.38.530715 +0100,
tilted.xlsx,The target is tilted.,117,10,2,1,1,1,1,1,1,1,1,1,0,0,0,0,0,7,8,117,space,8.20769509999991,None,1,1,0.6060749999996915,None,space,2.9866336999998566,None,0,0,0,0,,,,,1,2,10,1,70.0289872999997,,,,,,,,,,,,,,,,,,,,,70.01381029999993,70.0289872999997,70.51291989999982,70.51764719999983,70.53721989999985,71.14641719999963,,,,,71.14653599999974,71.16192920000003,71.36252179999974,71.34628559999965,,,,,,,,,1,1,0.6060749999996915,None,,,,,,,,824,22,M,R,2026-02-18_11h58.38.230,VisualSearch_2526_3,,2025.2.4,2026-02-18 11h58.38.530715 +0100,
tilted.xlsx,The target is tilted.,117,11,3,1,1,1,1,1,0,0,0,0,0,0,0,0,0,3,4,117,space,8.20769509999991,None,0,0,0.7772910000003321,None,space,2.9866336999998566,None,0,0,0,0,,,,,1,3,11,2,71.36252179999974,,,,,,,,,,,,,,,,,,,,,71.34704809999994,71.36252179999974,71.84627090000004,71.85091449999982,71.86778649999997,72.6465948,,,,,72.64679320000005,72.6616154999997,72.86209969999982,72.84595409999974,71.86778649999997,,,,,,,,0,0,0.7772910000003321,None,,,,,,,,824,22,M,R,2026-02-18_11h58.38.230,VisualSearch_2526_3,,2025.2.4,2026-02-18 11h58.38.530715 +0100,
tilted.xlsx,The target is tilted.,117,12,4,1,0,1,1,1,1,1,1,1,1,1,1,1,1,11,12,117,space,8.20769509999991,None,1,0,0.5420441000001119,None,space,2.9866336999998566,None,0,0,0,0,,,,,1,4,12,4,72.86209969999982,,,,,,,,,,,,,,,,,,,,,72.84641509999983,72.86209969999982,73.3456701,73.35076319999962,73.36890159999984,73.91252970000005,,,,,73.91274589999966,73.92803519999961,74.12858849999975,74.11231839999982,73.36890159999984,,,,,,,,1,0,0.5420441000001119,None,,,,,,,,824,22,M,R,2026-02-18_11h58.38.230,VisualSearch_2526_3,,2025.2.4,2026-02-18 11h58.38.530715 +0100,
tilted.xlsx,The target is tilted.,117,13,5,1,0,1,1,1,0,0,0,0,0,0,0,0,1,3,4,117,space,8.20769509999991,None,0,1,0.5721776000000318,None,space,2.9866336999998566,None,0,0,0,0,,,,,1,5,13,6,74.12858849999975,,,,,,,,,,,,,,,,,,,,,74.11303839999982,74.12858849999975,74.61261249999961,74.61737819999962,74.6354609,75.21283439999979,,,,,75.21303790000002,75.22786919999999,75.42843809999977,75.41153050000003,74.6354609,,,,,,,,0,1,0.5721776000000318,None,,,,,,,,824,22,M,R,2026-02-18_11h58.38.230,VisualSearch_2526_3,,2025.2.4,2026-02-18 11h58.38.530715 +0100,
tilted.xlsx,The target is tilted.,117,14,6,1,0,1,1,1,1,1,1,1,0,0,0,0,1,7,8,117,space,8.20769509999991,None,1,0,0.43676929999992353,None,space,2.9866336999998566,None,0,0,0,0,,,,,1,6,14,5,75.42843809999977,,,,,,,,,,,,,,,,,,,,,75.41198129999975,75.42843809999977,75.91231739999967,75.91705329999968,75.93524399999978,76.37944659999994,,,,,76.37964179999972,76.39447879999989,76.59481749999986,76.57875179999974,75.93524399999978,,,,,,,,1,0,0.43676929999992353,None,,,,,,,,824,22,M,R,2026-02-18_11h58.38.230,VisualSearch_2526_3,,2025.2.4,2026-02-18 11h58.38.530715 +0100,
tilted.xlsx,The target is tilted.,117,15,7,1,1,0,0,0,0,0,0,0,0,0,0,0,0,0,1,117,space,8.20769509999991,None,0,0,0.5943776999997681,None,space,2.9866336999998566,None,0,0,0,0,,,,,1,7,15,3,76.59481749999986,,,,,,,,,,,,,,,,,,,,,76.57948940000006,76.59481749999986,77.07886370000006,77.08428969999977,77.10326020000002,77.71227950000002,,,,,77.71249269999998,77.72752319999972,77.92804209999986,77.91191619999972,77.10326020000002,,,,,,,,0,0,0.5943776999997681,None,,,,,,,,824,22,M,R,2026-02-18_11h58.38.230,VisualSearch_2526_3,,2025.2.4,2026-02-18 11h58.38.530715 +0100,
tilted.xlsx,The target is tilted.,117,16,0,2,0,0,0,0,0,0,0,0,0,0,0,0,1,1,1,117,space,8.20769509999991,None,0,1,0.5429705000001377,None,space,2.9866336999998566,None,0,0,0,0,,,,,2,0,16,7,77.92804209999986,,,,,,,,,,,,,,,,,,,,,77.91263319999962,77.92804209999986,78.41179179999972,78.41649830000006,78.43462639999962,78.9789237,,,,,78.97914009999977,78.9939675999999,79.19444889999977,79.17832669999962,78.43462639999962,,,,,,,,0,1,0.5429705000001377,None,,,,,,,,824,22,M,R,2026-02-18_11h58.38.230,VisualSearch_2526_3,,2025.2.4,2026-02-18 11h58.38.530715 +0100,
tilted.xlsx,The target is tilted.,117,17,1,2,1,1,1,1,0,0,0,0,0,0,0,0,0,3,4,117,space,8.20769509999991,None,0,0,0.7496692999998231,None,space,2.9866336999998566,None,0,0,0,0,,,,,2,1,17,2,79.19444889999977,,,,,,,,,,,,,,,,,,,,,79.17908839999973,79.19444889999977,79.67841610000005,79.68366719999995,79.70219670000006,80.52883829999973,,,,,80.52893479999966,80.5318315999998,80.74442169999975,80.72820969999975,79.70219670000006,,,,,,,,0,0,0.7496692999998231,None,,,,,,,,824,22,M,R,2026-02-18_11h58.38.230,VisualSearch_2526_3,,2025.2.4,2026-02-18 11h58.38.530715 +0100,
tilted.xlsx,The target is tilted.,117,18,2,2,0,1,1,1,0,0,0,0,0,0,0,0,1,3,4,117,space,8.20769509999991,None,0,1,0.5402492000002894,None,space,2.9866336999998566,None,0,0,0,0,,,,,2,2,18,6,80.74442169999975,,,,,,,,,,,,,,,,,,,,,80.72902369999974,80.74442169999975,81.22815919999994,81.23340989999997,81.25225509999973,81.79518789999975,,,,,81.79538299999967,81.81025809999983,82.01045729999987,81.99480549999998,81.25225509999973,,,,,,,,0,1,0.5402492000002894,None,,,,,,,,824,22,M,R,2026-02-18_11h58.38.230,VisualSearch_2526_3,,2025.2.4,2026-02-18 11h58.38.530715 +0100,
tilted.xlsx,The target is tilted.,117,19,3,2,1,1,1,1,1,1,1,1,0,0,0,0,0,7,8,117,space,8.20769509999991,None,1,1,0.8277803999999378,None,space,2.9866336999998566,None,0,0,0,0,,,,,2,3,19,1,82.01045729999987,,,,,,,,,,,,,,,,,,,,,81.99564789999977,82.01045729999987,82.49473079999962,82.5000700999999,82.51955389999966,83.36066239999991,,,,,83.36078580000003,83.37646270000005,83.57648709999967,83.56004119999989,82.51955389999966,,,,,,,,1,1,0.8277803999999378,None,,,,,,,,824,22,M,R,2026-02-18_11h58.38.230,VisualSearch_2526_3,,2025.2.4,2026-02-18 11h58.38.530715 +0100,
tilted.xlsx,The target is tilted.,117,20,4,2,0,1,1,1,1,1,1,1,1,1,1,1,1,11,12,117,space,8.20769509999991,None,1,0,0.5687959000001683,None,space,2.9866336999998566,None,0,0,0,0,,,,,2,4,20,4,83.57648709999967,,,,,,,,,,,,,,,,,,,,,83.56052759999966,83.57648709999967,84.06111969999984,84.06644909999977,84.08488309999984,84.66105789999983,,,,,84.66125280000006,84.67640140000003,84.87677529999974,84.86072579999973,84.08488309999984,,,,,,,,1,0,0.5687959000001683,None,,,,,,,,824,22,M,R,2026-02-18_11h58.38.230,VisualSearch_2526_3,,2025.2.4,2026-02-18 11h58.38.530715 +0100,
tilted.xlsx,The target is tilted.,117,21,5,2,1,1,1,1,1,1,1,1,1,1,1,1,0,11,12,117,space,8.20769509999991,None,1,1,0.8853143999999702,None,space,2.9866336999998566,None,0,0,0,0,,,,,2,5,21,0,84.87677529999974,,,,,,,,,,,,,,,,,,,,,84.8614662,84.87677529999974,85.35992569999962,85.3626847999999,85.37661459999981,86.27683449999995,,,,,86.27698599999985,86.29260239999985,86.49325389999967,86.4766937999998,85.37661459999981,,,,,,,,1,1,0.8853143999999702,None,,,,,,,,824,22,M,R,2026-02-18_11h58.38.230,VisualSearch_2526_3,,2025.2.4,2026-02-18 11h58.38.530715 +0100,
tilted.xlsx,The target is tilted.,117,22,6,2,1,0,0,0,0,0,0,0,0,0,0,0,0,0,1,117,space,8.20769509999991,None,0,0,0.478515399999651,None,space,2.9866336999998566,None,0,0,0,0,,,,,2,6,22,3,86.49325389999967,,,,,,,,,,,,,,,,,,,,,86.47712069999989,86.49325389999967,86.97674749999987,86.98173580000002,86.99997929999972,87.49303789999976,,,,,87.49315929999966,87.50902709999991,,87.69341769999983,86.99997929999972,,,,,,,,0,0,0.478515399999651,None,,,,,,,,824,22,M,R,2026-02-18_11h58.38.230,VisualSearch_2526_3,,2025.2.4,2026-02-18 11h58.38.530715 +0100,
tilted.xlsx,The target is tilted.,117,23,7,2,0,1,1,1,1,1,1,1,0,0,0,0,1,7,8,117,space,8.20769509999991,None,1,0,0.6289501999999629,None,space,2.9866336999998566,None,0,0,0,0,,,,,2,7,23,5,87.70975959999987,,,,,,,,,,,,,,,,,,,,,87.69418289999976,87.70975959999987,88.19335209999963,88.1980980999997,88.21615499999962,88.85958540000001,,,,,88.85970399999997,88.87550089999968,,89.05985769999961,,,,,,,,,1,0,0.6289501999999629,None,,,,,,,,824,22,M,R,2026-02-18_11h58.38.230,VisualSearch_2526_3,,2025.2.4,2026-02-18 11h58.38.530715 +0100,
tilted.xlsx,The target is tilted.,117,24,0,3,0,0,0,0,0,0,0,0,0,0,0,0,1,1,1,117,space,8.20769509999991,None,0,1,0.6232983999998396,None,space,2.9866336999998566,None,0,0,0,0,,,,,3,0,24,7,89.07582479999974,,,,,,,,,,,,,,,,,,,,,89.06062789999987,89.07582479999974,89.5598673999998,89.56527609999966,89.58386549999977,90.21111900000005,,,,,90.21131539999988,90.22527349999973,90.4257078999999,90.40982729999996,,,,,,,,,0,1,0.6232983999998396,None,,,,,,,,824,22,M,R,2026-02-18_11h58.38.230,VisualSearch_2526_3,,2025.2.4,2026-02-18 11h58.38.530715 +0100,
tilted.xlsx,The target is tilted.,117,25,1,3,0,1,1,1,1,1,1,1,0,0,0,0,1,7,8,117,space,8.20769509999991,None,1,0,0.6685465000000477,None,space,2.9866336999998566,None,0,0,0,0,,,,,3,1,25,5,90.4257078999999,,,,,,,,,,,,,,,,,,,,,90.41056019999996,90.4257078999999,90.90932299999986,90.91353329999993,90.92997990000003,91.61026839999977,,,,,91.6104848,91.6250514999997,91.82566909999969,91.80951509999977,90.92997990000003,,,,,,,,1,0,0.6685465000000477,None,,,,,,,,824,22,M,R,2026-02-18_11h58.38.230,VisualSearch_2526_3,,2025.2.4,2026-02-18 11h58.38.530715 +0100,
tilted.xlsx,The target is tilted.,117,26,2,3,0,1,1,1,0,0,0,0,0,0,0,0,1,3,4,117,space,8.20769509999991,None,0,1,0.7405273999997917,None,space,2.9866336999998566,None,0,0,0,0,,,,,3,2,26,6,91.82566909999969,,,,,,,,,,,,,,,,,,,,,91.81026419999989,91.82566909999969,92.30942749999986,92.31418169999961,92.32563660000005,93.07668869999998,,,,,93.07688519999965,93.09167959999968,93.29223349999984,93.27616899999975,92.32563660000005,,,,,,,,0,1,0.7405273999997917,None,,,,,,,,824,22,M,R,2026-02-18_11h58.38.230,VisualSearch_2526_3,,2025.2.4,2026-02-18 11h58.38.530715 +0100,
tilted.xlsx,The target is tilted.,117,27,3,3,0,1,1,1,1,1,1,1,1,1,1,1,1,11,12,117,space,8.20769509999991,None,1,0,0.6366187999997237,None,space,2.9866336999998566,None,0,0,0,0,,,,,3,3,27,4,93.29223349999984,,,,,,,,,,,,,,,,,,,,,93.27688109999963,93.29223349999984,93.7760945,93.78144689999999,93.79979000000003,94.44311010000001,,,,,94.44330229999969,94.45805829999972,94.6584227999997,94.6417177999997,93.79979000000003,,,,,,,,1,0,0.6366187999997237,None,,,,,,,,824,22,M,R,2026-02-18_11h58.38.230,VisualSearch_2526_3,,2025.2.4,2026-02-18 11h58.38.530715 +0100,
tilted.xlsx,The target is tilted.,117,28,4,3,1,1,1,1,1,1,1,1,1,1,1,1,0,11,12,117,space,8.20769509999991,None,1,1,1.197148599999764,None,space,2.9866336999998566,None,0,0,0,0,,,,,3,4,28,0,94.6584227999997,,,,,,,,,,,,,,,,,,,,,94.64217829999961,94.6584227999997,95.1422279999997,95.14756079999961,95.16485759999978,96.37528329999986,,,,,96.37544839999964,96.39102759999969,96.59169369999972,96.57561450000003,95.16485759999978,,,,,,,,1,1,1.197148599999764,None,,,,,,,,824,22,M,R,2026-02-18_11h58.38.230,VisualSearch_2526_3,,2025.2.4,2026-02-18 11h58.38.530715 +0100,
tilted.xlsx,The target is tilted.,117,29,5,3,1,1,1,1,0,0,0,0,0,0,0,0,0,3,4,117,space,8.20769509999991,None,0,0,0.8540772999999717,None,space,2.9866336999998566,None,0,0,0,0,,,,,3,5,29,2,96.59169369999972,,,,,,,,,,,,,,,,,,,,,96.5763665999998,96.59169369999972,97.0753823,97.08016889999999,97.09857489999968,97.95909489999985,,,,,97.95929509999996,97.97427709999965,98.17433189999974,98.15882569999985,97.09857489999968,,,,,,,,0,0,0.8540772999999717,None,,,,,,,,824,22,M,R,2026-02-18_11h58.38.230,VisualSearch_2526_3,,2025.2.4,2026-02-18 11h58.38.530715 +0100,
tilted.xlsx,The target is tilted.,117,30,6,3,1,1,1,1,1,1,1,1,0,0,0,0,0,7,8,117,space,8.20769509999991,None,1,1,1.0646119000002727,None,space,2.9866336999998566,None,0,0,0,0,,,,,3,6,30,1,98.17433189999974,,,,,,,,,,,,,,,,,,,,,98.15953109999964,98.17433189999974,98.6585869999999,98.66359289999991,98.67425449999973,99.74226799999997,,,,,99.74246089999997,99.75718319999987,99.95774429999983,99.9416357,98.67425449999973,,,,,,,,1,1,1.0646119000002727,None,,,,,,,,824,22,M,R,2026-02-18_11h58.38.230,VisualSearch_2526_3,,2025.2.4,2026-02-18 11h58.38.530715 +0100,
tilted.xlsx,The target is tilted.,117,31,7,3,1,0,0,0,0,0,0,0,0,0,0,0,0,0,1,117,space,8.20769509999991,None,0,0,0.7689702000002399,None,space,2.9866336999998566,None,0,0,0,0,,,,,3,7,31,3,99.95774429999983,,,,,,,,,,,,,,,,,,,,,99.94235149999986,99.95774429999983,100.44161309999981,100.44623439999987,100.46445809999977,101.24171249999972,,,,,101.24191109999992,101.2568855999998,101.45745379999971,101.44138729999986,100.46445809999977,,,,,,,,0,0,0.7689702000002399,None,,,,,,,,824,22,M,R,2026-02-18_11h58.38.230,VisualSearch_2526_3,,2025.2.4,2026-02-18 11h58.38.530715 +0100,
tilted.xlsx,The target is tilted.,117,32,0,4,1,1,1,1,0,0,0,0,0,0,0,0,0,3,4,117,space,8.20769509999991,None,0,0,0.765314099999614,None,space,2.9866336999998566,None,0,0,0,0,,,,,4,0,32,2,101.45745379999971,,,,,,,,,,,,,,,,,,,,,101.44210269999985,101.45745379999971,101.94151099999999,101.94689119999975,101.96547359999977,102.74080830000003,,,,,102.74093419999963,102.75658720000001,102.9572648999997,102.94124529999999,101.96547359999977,,,,,,,,0,0,0.765314099999614,None,,,,,,,,824,22,M,R,2026-02-18_11h58.38.230,VisualSearch_2526_3,,2025.2.4,2026-02-18 11h58.38.530715 +0100,
tilted.xlsx,The target is tilted.,117,33,1,4,1,1,1,1,1,1,1,1,0,0,0,0,0,7,8,117,space,8.20769509999991,None,1,1,0.7122671000001901,None,space,2.9866336999998566,None,0,0,0,0,,,,,4,1,33,1,102.9572648999997,,,,,,,,,,,,,,,,,,,,,102.94205109999984,102.9572648999997,103.44118419999995,103.44577170000002,103.46382889999995,104.1906214999999,,,,,104.190744,104.2062662999997,104.40678630000002,104.39009499999975,103.46382889999995,,,,,,,,1,1,0.7122671000001901,None,,,,,,,,824,22,M,R,2026-02-18_11h58.38.230,VisualSearch_2526_3,,2025.2.4,2026-02-18 11h58.38.530715 +0100,
tilted.xlsx,The target is tilted.,117,34,2,4,0,1,1,1,1,1,1,1,0,0,0,0,1,7,8,117,space,8.20769509999991,None,1,0,1.2509803000002648,None,space,2.9866336999998566,None,0,0,0,0,,,,,4,2,34,5,104.40678630000002,,,,,,,,,,,,,,,,,,,,,104.39053009999998,104.40678630000002,104.89065219999975,104.89598809999961,104.91248459999997,106.17457669999976,,,,,106.17480299999988,106.18927619999977,106.39001280000002,106.37377549999974,104.91248459999997,,,,,,,,1,0,1.2509803000002648,None,,,,,,,,824,22,M,R,2026-02-18_11h58.38.230,VisualSearch_2526_3,,2025.2.4,2026-02-18 11h58.38.530715 +0100,
tilted.xlsx,The target is tilted.,117,35,3,4,1,1,1,1,1,1,1,1,1,1,1,1,0,11,12,117,space,8.20769509999991,None,1,1,0.9144353000001502,None,space,2.9866336999998566,None,0,0,0,0,,,,,4,3,35,0,106.39001280000002,,,,,,,,,,,,,,,,,,,,,106.37451229999988,106.39001280000002,106.87369790000002,106.87832959999969,106.89624569999978,107.82354940000005,,,,,107.82375009999987,107.83917939999992,108.0397952999997,108.02361139999994,106.89624569999978,,,,,,,,1,1,0.9144353000001502,None,,,,,,,,824,22,M,R,2026-02-18_11h58.38.230,VisualSearch_2526_3,,2025.2.4,2026-02-18 11h58.38.530715 +0100,
tilted.xlsx,The target is tilted.,117,36,4,4,0,0,0,0,0,0,0,0,0,0,0,0,1,1,1,117,space,8.20769509999991,None,0,1,0.478063199999724,None,space,2.9866336999998566,None,0,0,0,0,,,,,4,4,36,7,108.0397952999997,,,,,,,,,,,,,,,,,,,,,108.02432769999996,108.0397952999997,108.52376229999982,108.5290230999999,108.54793919999975,109.03954999999996,,,,,109.0396725999999,109.05547879999995,,109.23986419999983,108.54793919999975,,,,,,,,0,1,0.478063199999724,None,,,,,,,,824,22,M,R,2026-02-18_11h58.38.230,VisualSearch_2526_3,,2025.2.4,2026-02-18 11h58.38.530715 +0100,
tilted.xlsx,The target is tilted.,117,37,5,4,0,1,1,1,0,0,0,0,0,0,0,0,1,3,4,117,space,8.20769509999991,None,0,1,0.652490399999806,None,space,2.9866336999998566,None,0,0,0,0,,,,,4,5,37,6,109.25584739999977,,,,,,,,,,,,,,,,,,,,,109.24064359999966,109.25584739999977,109.73982690000003,109.7451186999997,109.76377899999989,110.42313719999993,,,,,110.42326879999973,110.43868219999968,110.63935849999962,110.62313769999992,,,,,,,,,0,1,0.652490399999806,None,,,,,,,,824,22,M,R,2026-02-18_11h58.38.230,VisualSearch_2526_3,,2025.2.4,2026-02-18 11h58.38.530715 +0100,
tilted.xlsx,The target is tilted.,117,38,6,4,0,1,1,1,1,1,1,1,1,1,1,1,1,11,12,117,space,8.20769509999991,None,1,0,0.6046750000000429,None,space,2.9866336999998566,None,0,0,0,0,,,,,4,6,38,4,110.63935849999962,,,,,,,,,,,,,,,,,,,,,110.6239031,110.63935849999962,111.12285369999972,111.12809029999971,111.1462004,111.75731659999974,,,,,111.75751629999968,111.77187679999997,111.97255519999999,111.95617999999968,111.1462004,,,,,,,,1,0,0.6046750000000429,None,,,,,,,,824,22,M,R,2026-02-18_11h58.38.230,VisualSearch_2526_3,,2025.2.4,2026-02-18 11h58.38.530715 +0100,
tilted.xlsx,The target is tilted.,117,39,7,4,1,0,0,0,0,0,0,0,0,0,0,0,0,0,1,117,space,8.20769509999991,None,0,0,0.5966745000000628,None,space,2.9866336999998566,None,0,0,0,0,,,,,4,7,39,3,111.97255519999999,,,,,,,,,,,,,,,,,,,,,111.95698059999995,111.97255519999999,112.4563020999999,112.46090479999975,112.47888199999989,113.08903250000003,,,,,113.08916439999985,113.10483489999979,113.30553969999983,113.28942779999988,112.47888199999989,,,,,,,,0,0,0.5966745000000628,None,,,,,,,,824,22,M,R,2026-02-18_11h58.38.230,VisualSearch_2526_3,,2025.2.4,2026-02-18 11h58.38.530715 +0100,
tilted.xlsx,The target is tilted.,117,40,0,5,1,1,1,1,0,0,0,0,0,0,0,0,0,3,4,117,space,8.20769509999991,None,0,0,0.637239099999988,None,space,2.9866336999998566,None,0,0,0,0,,,,,5,0,40,2,113.30553969999983,,,,,,,,,,,,,,,,,,,,,113.29013910000003,113.30553969999983,113.78944980000006,113.7947792,113.81368599999996,114.45643829999972,,,,,114.45664799999986,114.4714899999999,114.67179579999993,114.65549359999977,113.81368599999996,,,,,,,,0,0,0.637239099999988,None,,,,,,,,824,22,M,R,2026-02-18_11h58.38.230,VisualSearch_2526_3,,2025.2.4,2026-02-18 11h58.38.530715 +0100,
tilted.xlsx,The target is tilted.,117,41,1,5,0,1,1,1,1,1,1,1,1,1,1,1,1,11,12,117,space,8.20769509999991,None,1,0,1.4891468999999233,None,space,2.9866336999998566,None,0,0,0,0,,,,,5,1,41,4,114.67179579999993,,,,,,,,,,,,,,,,,,,,,114.65623830000004,114.67179579999993,115.15599870000005,115.16194079999968,115.18094419999989,116.67277039999999,,,,,116.6729691999999,116.68757069999992,116.88796149999962,116.87183539999978,115.18094419999989,,,,,,,,1,0,1.4891468999999233,None,,,,,,,,824,22,M,R,2026-02-18_11h58.38.230,VisualSearch_2526_3,,2025.2.4,2026-02-18 11h58.38.530715 +0100,
tilted.xlsx,The target is tilted.,117,42,2,5,0,0,0,0,0,0,0,0,0,0,0,0,1,1,1,117,space,8.20769509999991,None,0,1,0.7959704999998394,None,space,2.9866336999998566,None,0,0,0,0,,,,,5,2,42,7,116.88796149999962,,,,,,,,,,,,,,,,,,,,,116.87259589999985,116.88796149999962,117.37168799999972,117.37341249999963,117.38818700000002,118.18921469999987,,,,,118.18941539999969,118.20396709999977,118.40462750000006,118.38772319999998,117.38818700000002,,,,,,,,0,1,0.7959704999998394,None,,,,,,,,824,22,M,R,2026-02-18_11h58.38.230,VisualSearch_2526_3,,2025.2.4,2026-02-18 11h58.38.530715 +0100,
tilted.xlsx,The target is tilted.,117,43,3,5,0,1,1,1,0,0,0,0,0,0,0,0,1,3,4,117,space,8.20769509999991,None,0,1,0.613455299999714,None,space,2.9866336999998566,None,0,0,0,0,,,,,5,3,43,6,118.40462750000006,,,,,,,,,,,,,,,,,,,,,118.38818079999965,118.40462750000006,118.88821839999991,118.89369729999999,118.91173769999978,119.53817289999961,,,,,119.53833779999968,119.5538431,119.7546153999997,119.73828999999978,118.91173769999978,,,,,,,,0,1,0.613455299999714,None,,,,,,,,824,22,M,R,2026-02-18_11h58.38.230,VisualSearch_2526_3,,2025.2.4,2026-02-18 11h58.38.530715 +0100,
tilted.xlsx,The target is tilted.,117,44,4,5,0,1,1,1,1,1,1,1,0,0,0,0,1,7,8,117,space,8.20769509999991,None,1,0,0.8966621999998097,None,space,2.9866336999998566,None,0,0,0,0,,,,,5,4,44,5,119.7546153999997,,,,,,,,,,,,,,,,,,,,,119.73903139999993,119.7546153999997,120.23821249999992,120.24304529999972,120.26097519999985,121.17133179999973,,,,,121.17151579999972,121.18690239999978,121.38742449999972,121.37135969999963,120.26097519999985,,,,,,,,1,0,0.8966621999998097,None,,,,,,,,824,22,M,R,2026-02-18_11h58.38.230,VisualSearch_2526_3,,2025.2.4,2026-02-18 11h58.38.530715 +0100,
tilted.xlsx,The target is tilted.,117,45,5,5,1,1,1,1,1,1,1,1,0,0,0,0,0,7,8,117,space,8.20769509999991,None,1,1,0.5368152999999438,None,space,2.9866336999998566,None,0,0,0,0,,,,,5,5,45,1,121.38742449999972,,,,,,,,,,,,,,,,,,,,,121.3721188999998,121.38742449999972,121.87128279999979,121.87556429999995,121.89168749999999,122.43844469999976,,,,,122.43863819999979,122.45346739999968,122.6539985999998,122.63788019999993,121.89168749999999,,,,,,,,1,1,0.5368152999999438,None,,,,,,,,824,22,M,R,2026-02-18_11h58.38.230,VisualSearch_2526_3,,2025.2.4,2026-02-18 11h58.38.530715 +0100,
tilted.xlsx,The target is tilted.,117,46,6,5,1,1,1,1,1,1,1,1,1,1,1,1,0,11,12,117,space,8.20769509999991,None,1,1,0.871255900000051,None,space,2.9866336999998566,None,0,0,0,0,,,,,5,6,46,0,122.6539985999998,,,,,,,,,,,,,,,,,,,,,122.63858829999981,122.6539985999998,123.13785409999991,123.14322409999977,123.1620270999997,124.03745690000005,,,,,124.03761420000001,124.05314299999964,124.25378060000003,124.23748239999986,123.1620270999997,,,,,,,,1,1,0.871255900000051,None,,,,,,,,824,22,M,R,2026-02-18_11h58.38.230,VisualSearch_2526_3,,2025.2.4,2026-02-18 11h58.38.530715 +0100,
tilted.xlsx,The target is tilted.,117,47,7,5,1,0,0,0,0,0,0,0,0,0,0,0,0,0,1,117,space,8.20769509999991,None,1,1,0.5730523000001995,None,space,2.9866336999998566,None,0,0,0,0,,,,,5,7,47,3,124.25378060000003,,,,,,,,,,,,,,,,,,,,,124.23823909999965,124.25378060000003,124.73760049999964,124.74294349999991,124.76147749999973,125.33805140000004,,,,,125.33825419999994,125.35299559999976,125.55346079999981,125.53706019999981,124.76147749999973,,,,,,,,1,1,0.5730523000001995,None,,,,,,,,824,22,M,R,2026-02-18_11h58.38.230,VisualSearch_2526_3,,2025.2.4,2026-02-18 11h58.38.530715 +0100,
tilted.xlsx,The target is tilted.,117,48,0,6,1,0,0,0,0,0,0,0,0,0,0,0,0,0,1,117,space,8.20769509999991,None,0,0,0.7497034999996686,None,space,2.9866336999998566,None,0,0,0,0,,,,,6,0,48,3,125.55346079999981,,,,,,,,,,,,,,,,,,,,,125.53780009999991,125.55346079999981,126.03722579999976,126.04245569999966,126.06096359999992,126.82110729999977,,,,,126.82130089999964,126.83606089999967,127.03646570000001,127.02042149999988,126.06096359999992,,,,,,,,0,0,0.7497034999996686,None,,,,,,,,824,22,M,R,2026-02-18_11h58.38.230,VisualSearch_2526_3,,2025.2.4,2026-02-18 11h58.38.530715 +0100,
tilted.xlsx,The target is tilted.,117,49,1,6,0,1,1,1,1,1,1,1,1,1,1,1,1,11,12,117,space,8.20769509999991,None,1,0,1.012425500000063,None,space,2.9866336999998566,None,0,0,0,0,,,,,6,1,49,4,127.03646570000001,,,,,,,,,,,,,,,,,,,,,127.0211688999998,127.03646570000001,127.52055119999977,127.5259289999999,127.54441419999966,128.5696227999997,,,,,128.56974539999965,128.58563959999992,,128.7699763999999,127.54441419999966,,,,,,,,1,0,1.012425500000063,None,,,,,,,,824,22,M,R,2026-02-18_11h58.38.230,VisualSearch_2526_3,,2025.2.4,2026-02-18 11h58.38.530715 +0100,
tilted.xlsx,The target is tilted.,117,50,2,6,0,0,0,0,0,0,0,0,0,0,0,0,1,1,1,117,space,8.20769509999991,None,0,1,0.5727325000002566,None,space,2.9866336999998566,None,0,0,0,0,,,,,6,2,50,7,128.78594569999996,,,,,,,,,,,,,,,,,,,,,128.77073840000003,128.78594569999996,129.2699518999998,129.27537669999992,129.29397500000005,129.87020489999986,,,,,129.87040439999964,129.88560729999972,130.08574239999962,130.06999859999996,,,,,,,,,0,1,0.5727325000002566,None,,,,,,,,824,22,M,R,2026-02-18_11h58.38.230,VisualSearch_2526_3,,2025.2.4,2026-02-18 11h58.38.530715 +0100,
tilted.xlsx,The target is tilted.,117,51,3,6,1,1,1,1,0,0,0,0,0,0,0,0,0,3,4,117,space,8.20769509999991,None,0,0,0.7680479999999079,None,space,2.9866336999998566,None,0,0,0,0,,,,,6,3,51,2,130.08574239999962,,,,,,,,,,,,,,,,,,,,,130.0707183999998,130.08574239999962,130.56984379999994,130.57444459999988,130.5915832999999,131.37043559999984,,,,,131.37065749999965,131.38539779999974,131.5855929999998,131.56895559999975,130.5915832999999,,,,,,,,0,0,0.7680479999999079,None,,,,,,,,824,22,M,R,2026-02-18_11h58.38.230,VisualSearch_2526_3,,2025.2.4,2026-02-18 11h58.38.530715 +0100,
tilted.xlsx,The target is tilted.,117,52,4,6,0,1,1,1,0,0,0,0,0,0,0,0,1,3,4,117,space,8.20769509999991,None,0,1,0.5980466000000888,None,space,2.9866336999998566,None,0,0,0,0,,,,,6,4,52,6,131.5855929999998,,,,,,,,,,,,,,,,,,,,,131.5693997999997,131.5855929999998,132.06979039999987,132.07495819999986,132.0918428,132.70278019999978,,,,,132.70298849999972,132.71826799999963,132.91859029999978,132.9029932999997,132.0918428,,,,,,,,0,1,0.5980466000000888,None,,,,,,,,824,22,M,R,2026-02-18_11h58.38.230,VisualSearch_2526_3,,2025.2.4,2026-02-18 11h58.38.530715 +0100,
tilted.xlsx,The target is tilted.,117,53,5,6,1,1,1,1,1,1,1,1,0,0,0,0,0,7,8,117,space,8.20769509999991,None,1,1,0.48688300000003437,None,space,2.9866336999998566,None,0,0,0,0,,,,,6,5,53,1,132.91859029999978,,,,,,,,,,,,,,,,,,,,,132.90373580000005,132.91859029999978,133.4029204999997,133.4082215999997,133.42670199999975,133.9197792,,,,,133.9199733999999,133.93473819999963,134.13547279999966,134.11930510000002,133.42670199999975,,,,,,,,1,1,0.48688300000003437,None,,,,,,,,824,22,M,R,2026-02-18_11h58.38.230,VisualSearch_2526_3,,2025.2.4,2026-02-18 11h58.38.530715 +0100,
tilted.xlsx,The target is tilted.,117,54,6,6,0,1,1,1,1,1,1,1,0,0,0,0,1,7,8,117,space,8.20769509999991,None,1,0,0.9449686999996629,None,space,2.9866336999998566,None,0,0,0,0,,,,,6,6,54,5,134.13547279999966,,,,,,,,,,,,,,,,,,,,,134.12002600000005,134.13547279999966,134.61939759999996,134.62433669999973,134.63531839999996,135.58598630000006,,,,,135.58618539999998,135.60131,135.80180699999983,135.78569769999967,134.63531839999996,,,,,,,,1,0,0.9449686999996629,None,,,,,,,,824,22,M,R,2026-02-18_11h58.38.230,VisualSearch_2526_3,,2025.2.4,2026-02-18 11h58.38.530715 +0100,
tilted.xlsx,The target is tilted.,117,55,7,6,1,1,1,1,1,1,1,1,1,1,1,1,0,11,12,117,space,8.20769509999991,None,1,1,0.81101660000013,None,space,2.9866336999998566,None,0,0,0,0,,,,,6,7,55,0,135.80180699999983,,,,,,,,,,,,,,,,,,,,,135.78641689999995,135.80180699999983,136.28587319999997,136.2913266999999,136.3100915,137.13510619999988,,,,,137.13526179999963,137.15092209999966,137.3516052,137.33558969999967,136.3100915,,,,,,,,1,1,0.81101660000013,None,,,,,,,,824,22,M,R,2026-02-18_11h58.38.230,VisualSearch_2526_3,,2025.2.4,2026-02-18 11h58.38.530715 +0100,
tilted.xlsx,The target is tilted.,117,56,0,7,1,1,1,1,1,1,1,1,0,0,0,0,0,7,8,117,space,8.20769509999991,None,1,1,0.9775482000000011,None,space,2.9866336999998566,None,0,0,0,0,,,,,7,0,56,1,137.3516052,,,,,,,,,,,,,,,,,,,,,137.33634759999995,137.3516052,137.83554509999976,137.8406326999998,137.85968669999966,138.85172809999995,,,,,138.85191970000005,138.8674305999998,139.06802649999963,139.0519893999999,137.85968669999966,,,,,,,,1,1,0.9775482000000011,None,,,,,,,,824,22,M,R,2026-02-18_11h58.38.230,VisualSearch_2526_3,,2025.2.4,2026-02-18 11h58.38.530715 +0100,
tilted.xlsx,The target is tilted.,117,57,1,7,0,0,0,0,0,0,0,0,0,0,0,0,1,1,1,117,space,8.20769509999991,None,0,1,0.6360381999998026,None,space,2.9866336999998566,None,0,0,0,0,,,,,7,1,57,7,139.06802649999963,,,,,,,,,,,,,,,,,,,,,139.0528119999999,139.06802649999963,139.55190619999985,139.55730619999986,139.57742199999984,140.21882649999998,,,,,140.21903459999976,140.2336839999998,140.434577,140.41839609999988,139.57742199999984,,,,,,,,0,1,0.6360381999998026,None,,,,,,,,824,22,M,R,2026-02-18_11h58.38.230,VisualSearch_2526_3,,2025.2.4,2026-02-18 11h58.38.530715 +0100,
tilted.xlsx,The target is tilted.,117,58,2,7,0,1,1,1,0,0,0,0,0,0,0,0,1,3,4,117,space,8.20769509999991,None,0,1,0.5330077000003257,None,space,2.9866336999998566,None,0,0,0,0,,,,,7,2,58,6,140.434577,,,,,,,,,,,,,,,,,,,,,140.4192097,140.434577,140.91814669999985,140.92288710000003,140.94114659999968,141.48529759999974,,,,,141.48548170000004,141.50031469999976,141.70084999999972,141.68463159999965,140.94114659999968,,,,,,,,0,1,0.5330077000003257,None,,,,,,,,824,22,M,R,2026-02-18_11h58.38.230,VisualSearch_2526_3,,2025.2.4,2026-02-18 11h58.38.530715 +0100,
tilted.xlsx,The target is tilted.,117,59,3,7,0,1,1,1,1,1,1,1,0,0,0,0,1,7,8,117,space,8.20769509999991,None,1,0,0.555199100000209,None,space,2.9866336999998566,None,0,0,0,0,,,,,7,3,59,5,141.70084999999972,,,,,,,,,,,,,,,,,,,,,141.68538999999964,141.70084999999972,142.18488200000002,142.1902298,142.20985269999983,142.76849429999993,,,,,142.76869039999974,142.78342509999993,142.98340229999985,142.96751509999967,142.20985269999983,,,,,,,,1,0,0.555199100000209,None,,,,,,,,824,22,M,R,2026-02-18_11h58.38.230,VisualSearch_2526_3,,2025.2.4,2026-02-18 11h58.38.530715 +0100,
tilted.xlsx,The target is tilted.,117,60,4,7,1,0,0,0,0,0,0,0,0,0,0,0,0,0,1,117,space,8.20769509999991,None,0,0,0.5013991999999234,None,space,2.9866336999998566,None,0,0,0,0,,,,,7,4,60,3,142.98340229999985,,,,,,,,,,,,,,,,,,,,,142.96826899999996,142.98340229999985,143.46760300000005,143.47223529999974,143.48929950000002,144.00174759999982,,,,,144.0019712999997,144.01643019999983,144.2170788999997,144.2009905,143.48929950000002,,,,,,,,0,0,0.5013991999999234,None,,,,,,,,824,22,M,R,2026-02-18_11h58.38.230,VisualSearch_2526_3,,2025.2.4,2026-02-18 11h58.38.530715 +0100,
tilted.xlsx,The target is tilted.,117,61,5,7,0,1,1,1,1,1,1,1,1,1,1,1,1,11,12,117,space,8.20769509999991,None,1,0,0.5087785000000622,None,space,2.9866336999998566,None,0,0,0,0,,,,,7,5,61,4,144.2170788999997,,,,,,,,,,,,,,,,,,,,,144.20170699999971,144.2170788999997,144.70085500000005,144.7054662999999,144.72343249999994,145.2347351999997,,,,,145.2349334999999,145.24965109999994,145.4502167999999,145.43373539999993,144.72343249999994,,,,,,,,1,0,0.5087785000000622,None,,,,,,,,824,22,M,R,2026-02-18_11h58.38.230,VisualSearch_2526_3,,2025.2.4,2026-02-18 11h58.38.530715 +0100,
tilted.xlsx,The target is tilted.,117,62,6,7,1,1,1,1,1,1,1,1,1,1,1,1,0,11,12,117,space,8.20769509999991,None,1,1,1.1837524999996276,None,space,2.9866336999998566,None,0,0,0,0,,,,,7,6,62,0,145.4502167999999,,,,,,,,,,,,,,,,,,,,,145.43447819999983,145.4502167999999,145.93370449999975,145.93853939999963,145.95689529999981,147.15112090000002,,,,,147.15135949999967,147.16586209999969,147.36645169999974,147.3501315999997,145.95689529999981,,,,,,,,1,1,1.1837524999996276,None,,,,,,,,824,22,M,R,2026-02-18_11h58.38.230,VisualSearch_2526_3,,2025.2.4,2026-02-18 11h58.38.530715 +0100,
tilted.xlsx,The target is tilted.,117,63,7,7,1,1,1,1,0,0,0,0,0,0,0,0,0,3,4,117,space,8.20769509999991,None,0,0,0.753115699999853,None,space,2.9866336999998566,None,0,0,0,0,,,,,7,7,63,2,147.36645169999974,,,,,,,,,,,,,,,,,,,,,147.35069559999965,147.36645169999974,147.84958499999993,147.8524582,147.86601729999984,148.63344819999975,,,,,148.63363739999977,148.6490971999997,148.84975189999977,148.83355959999972,147.86601729999984,,,,,,,,0,0,0.753115699999853,None,,,,,,,,824,22,M,R,2026-02-18_11h58.38.230,VisualSearch_2526_3,,2025.2.4,2026-02-18 11h58.38.530715 +0100,
tilted.xlsx,The target is tilted.,117,64,0,8,0,1,1,1,1,1,1,1,1,1,1,1,1,11,12,117,space,8.20769509999991,None,1,0,0.8229848000000857,None,space,2.9866336999998566,None,0,0,0,0,,,,,8,0,64,4,148.84975189999977,,,,,,,,,,,,,,,,,,,,,148.83426889999964,148.84975189999977,149.3336875,149.33920369999987,149.35810779999974,150.1839,,,,,150.1840957999998,150.19887849999986,150.39943859999994,150.38324269999976,149.35810779999974,,,,,,,,1,0,0.8229848000000857,None,,,,,,,,824,22,M,R,2026-02-18_11h58.38.230,VisualSearch_2526_3,,2025.2.4,2026-02-18 11h58.38.530715 +0100,
tilted.xlsx,The target is tilted.,117,65,1,8,1,1,1,1,0,0,0,0,0,0,0,0,0,3,4,117,space,8.20769509999991,None,0,0,0.5484479000001556,None,space,2.9866336999998566,None,0,0,0,0,,,,,8,1,65,2,150.39943859999994,,,,,,,,,,,,,,,,,,,,,150.38398879999977,150.39943859999994,150.88277579999976,150.88734339999974,150.90561389999993,151.46679730000005,,,,,151.46697319999976,151.48196839999991,151.68250659999967,151.66604919999963,150.90561389999993,,,,,,,,0,0,0.5484479000001556,None,,,,,,,,824,22,M,R,2026-02-18_11h58.38.230,VisualSearch_2526_3,,2025.2.4,2026-02-18 11h58.38.530715 +0100,
tilted.xlsx,The target is tilted.,117,66,2,8,0,0,0,0,0,0,0,0,0,0,0,0,1,1,1,117,space,8.20769509999991,None,0,1,0.4651523999996243,None,space,2.9866336999998566,None,0,0,0,0,,,,,8,2,66,7,151.68250659999967,,,,,,,,,,,,,,,,,,,,,151.66669749999983,151.68250659999967,152.16555919999973,152.16833399999996,152.1823427999998,152.65002959999993,,,,,152.65023870000005,152.66512879999982,152.86558119999972,152.8494796,152.1823427999998,,,,,,,,0,1,0.4651523999996243,None,,,,,,,,824,22,M,R,2026-02-18_11h58.38.230,VisualSearch_2526_3,,2025.2.4,2026-02-18 11h58.38.530715 +0100,
tilted.xlsx,The target is tilted.,117,67,3,8,1,0,0,0,0,0,0,0,0,0,0,0,0,0,1,117,space,8.20769509999991,None,0,0,0.5157081000002108,None,space,2.9866336999998566,None,0,0,0,0,,,,,8,3,67,3,152.86558119999972,,,,,,,,,,,,,,,,,,,,,152.85024569999996,152.86558119999972,153.34948299999996,153.3541121999997,153.36552099999972,153.88336690000006,,,,,153.88359009999976,153.89831000000004,154.09880269999985,154.08266030000004,153.36552099999972,,,,,,,,0,0,0.5157081000002108,None,,,,,,,,824,22,M,R,2026-02-18_11h58.38.230,VisualSearch_2526_3,,2025.2.4,2026-02-18 11h58.38.530715 +0100,
tilted.xlsx,The target is tilted.,117,68,4,8,1,1,1,1,1,1,1,1,0,0,0,0,0,7,8,117,space,8.20769509999991,None,1,1,0.7900577999998859,None,space,2.9866336999998566,None,0,0,0,0,,,,,8,4,68,1,154.09880269999985,,,,,,,,,,,,,,,,,,,,,154.08338909999975,154.09880269999985,154.58267350000006,154.58791299999984,154.60584440000002,155.39950379999982,,,,,155.3997078999996,155.41482640000004,155.6150889999999,155.59912779999968,154.60584440000002,,,,,,,,1,1,0.7900577999998859,None,,,,,,,,824,22,M,R,2026-02-18_11h58.38.230,VisualSearch_2526_3,,2025.2.4,2026-02-18 11h58.38.530715 +0100,
tilted.xlsx,The target is tilted.,117,69,5,8,0,1,1,1,0,0,0,0,0,0,0,0,1,3,4,117,space,8.20769509999991,None,0,1,0.6480642000001353,None,space,2.9866336999998566,None,0,0,0,0,,,,,8,5,69,6,155.6150889999999,,,,,,,,,,,,,,,,,,,,,155.59984970000005,155.6150889999999,156.10151159999987,156.10424539999985,156.1155286999997,156.76629259999982,,,,,156.7664878999999,156.78138420000005,156.98180909999974,156.96563749999996,,,,,,,,,0,1,0.6480642000001353,None,,,,,,,,824,22,M,R,2026-02-18_11h58.38.230,VisualSearch_2526_3,,2025.2.4,2026-02-18 11h58.38.530715 +0100,
tilted.xlsx,The target is tilted.,117,70,6,8,1,1,1,1,1,1,1,1,1,1,1,1,0,11,12,117,space,8.20769509999991,None,1,1,0.7678936000002068,None,space,2.9866336999998566,None,0,0,0,0,,,,,8,6,70,0,156.98180909999974,,,,,,,,,,,,,,,,,,,,,156.9664588999999,156.98180909999974,157.4655085999998,157.47015109999984,157.48841730000004,158.26540529999966,,,,,158.26558019999993,158.28072509999993,158.48104250000006,158.46491809999998,157.48841730000004,,,,,,,,1,1,0.7678936000002068,None,,,,,,,,824,22,M,R,2026-02-18_11h58.38.230,VisualSearch_2526_3,,2025.2.4,2026-02-18 11h58.38.530715 +0100,
tilted.xlsx,The target is tilted.,117,71,7,8,0,1,1,1,1,1,1,1,0,0,0,0,1,7,8,117,space,8.20769509999991,None,1,0,0.7290241000000606,None,space,2.9866336999998566,None,0,0,0,0,,,,,8,7,71,5,158.48104250000006,,,,,,,,,,,,,,,,,,,,,158.46566719999964,158.48104250000006,158.96520669999973,158.96975199999997,158.98667149999983,159.73149309999962,,,,,159.73166429999992,159.7473471999997,159.94783099999995,159.93172689999983,158.98667149999983,,,,,,,,1,0,0.7290241000000606,None,,,,,,,,824,22,M,R,2026-02-18_11h58.38.230,VisualSearch_2526_3,,2025.2.4,2026-02-18 11h58.38.530715 +0100,
tilted.xlsx,The target is tilted.,117,72,0,9,1,1,1,1,0,0,0,0,0,0,0,0,0,3,4,117,space,8.20769509999991,None,0,0,0.5401541000001089,None,space,2.9866336999998566,None,0,0,0,0,,,,,9,0,72,2,159.94783099999995,,,,,,,,,,,,,,,,,,,,,159.9324370999998,159.94783099999995,160.43156679999993,160.4361372999997,160.45368629999984,160.99851679999983,,,,,160.99870969999984,161.01382719999992,161.2144363999996,161.19803009999987,160.45368629999984,,,,,,,,0,0,0.5401541000001089,None,,,,,,,,824,22,M,R,2026-02-18_11h58.38.230,VisualSearch_2526_3,,2025.2.4,2026-02-18 11h58.38.530715 +0100,
tilted.xlsx,The target is tilted.,117,73,1,9,0,0,0,0,0,0,0,0,0,0,0,0,1,1,1,117,space,8.20769509999991,None,0,1,0.5507155000000239,None,space,2.9866336999998566,None,0,0,0,0,,,,,9,1,73,7,161.2144363999996,,,,,,,,,,,,,,,,,,,,,161.1987578999997,161.2144363999996,161.69816869999977,161.70341559999997,161.72254269999985,162.2811999999999,,,,,162.28138450000006,162.29687869999998,162.49714389999963,162.4805339999998,161.72254269999985,,,,,,,,0,1,0.5507155000000239,None,,,,,,,,824,22,M,R,2026-02-18_11h58.38.230,VisualSearch_2526_3,,2025.2.4,2026-02-18 11h58.38.530715 +0100,
tilted.xlsx,The target is tilted.,117,74,2,9,1,1,1,1,1,1,1,1,0,0,0,0,0,7,8,117,space,8.20769509999991,None,1,1,0.5475407999997515,None,space,2.9866336999998566,None,0,0,0,0,,,,,9,2,74,1,162.49714389999963,,,,,,,,,,,,,,,,,,,,,162.48098329999993,162.49714389999963,162.98127159999967,162.98573959999976,163.00464399999964,163.56481140000005,,,,,163.56500579999965,163.57992999999988,163.78059929999972,163.7644207999997,163.00464399999964,,,,,,,,1,1,0.5475407999997515,None,,,,,,,,824,22,M,R,2026-02-18_11h58.38.230,VisualSearch_2526_3,,2025.2.4,2026-02-18 11h58.38.530715 +0100,
tilted.xlsx,The target is tilted.,117,75,3,9,0,1,1,1,0,0,0,0,0,0,0,0,1,3,4,117,space,8.20769509999991,None,0,1,0.6278680999998869,None,space,2.9866336999998566,None,0,0,0,0,,,,,9,3,75,6,163.78059929999972,,,,,,,,,,,,,,,,,,,,,163.76514229999975,163.78059929999972,164.2644436999999,164.26952570000003,164.28798289999986,164.9308377999996,,,,,164.9310473999999,164.94637509999984,165.14661769999975,165.1305757,164.28798289999986,,,,,,,,0,1,0.6278680999998869,None,,,,,,,,824,22,M,R,2026-02-18_11h58.38.230,VisualSearch_2526_3,,2025.2.4,2026-02-18 11h58.38.530715 +0100,
tilted.xlsx,The target is tilted.,117,76,4,9,0,1,1,1,1,1,1,1,1,1,1,1,1,11,12,117,space,8.20769509999991,None,1,0,0.6131636000000071,None,space,2.9866336999998566,None,0,0,0,0,,,,,9,4,76,4,165.14661769999975,,,,,,,,,,,,,,,,,,,,,165.13128609999967,165.14661769999975,165.63089760000003,165.63601219999964,165.65413629999966,166.2802171999997,,,,,166.2803469999999,166.29608329999974,166.49637639999992,166.48057599999993,165.65413629999966,,,,,,,,1,0,0.6131636000000071,None,,,,,,,,824,22,M,R,2026-02-18_11h58.38.230,VisualSearch_2526_3,,2025.2.4,2026-02-18 11h58.38.530715 +0100,
tilted.xlsx,The target is tilted.,117,77,5,9,1,1,1,1,1,1,1,1,1,1,1,1,0,11,12,117,space,8.20769509999991,None,1,1,0.8547872000003736,None,space,2.9866336999998566,None,0,0,0,0,,,,,9,5,77,0,166.49637639999992,,,,,,,,,,,,,,,,,,,,,166.4813208999999,166.49637639999992,166.98066259999996,166.985776,167.0036667999998,167.86433999999963,,,,,167.86453389999997,167.87930949999964,168.0799281999998,168.0639170999998,167.0036667999998,,,,,,,,1,1,0.8547872000003736,None,,,,,,,,824,22,M,R,2026-02-18_11h58.38.230,VisualSearch_2526_3,,2025.2.4,2026-02-18 11h58.38.530715 +0100,
tilted.xlsx,The target is tilted.,117,78,6,9,1,0,0,0,0,0,0,0,0,0,0,0,0,0,1,117,space,8.20769509999991,None,0,0,0.38169519999974,None,space,2.9866336999998566,None,0,0,0,0,,,,,9,6,78,3,168.0799281999998,,,,,,,,,,,,,,,,,,,,,168.06471669999974,168.0799281999998,168.56362439999975,168.56819779999978,168.58572699999968,168.980497,,,,,168.98070710000002,168.99581869999975,169.19603589999997,169.18034420000004,168.58572699999968,,,,,,,,0,0,0.38169519999974,None,,,,,,,,824,22,M,R,2026-02-18_11h58.38.230,VisualSearch_2526_3,,2025.2.4,2026-02-18 11h58.38.530715 +0100,
tilted.xlsx,The target is tilted.,117,79,7,9,0,1,1,1,1,1,1,1,0,0,0,0,1,7,8,117,space,8.20769509999991,None,1,0,0.6422351999999591,None,space,2.9866336999998566,None,0,0,0,0,,,,,9,7,79,5,169.19603589999997,,,,,,,,,,,,,,,,,,,,,169.18116740000005,169.19603589999997,169.6802574999997,169.68550539999978,169.70431859999962,170.36274400000002,,,,,170.3628633999997,170.3787395999998,,170.56316789999983,169.70431859999962,,,,,,,,1,0,0.6422351999999591,None,,,,,,,,824,22,M,R,2026-02-18_11h58.38.230,VisualSearch_2526_3,,2025.2.4,2026-02-18 11h58.38.530715 +0100,
tilted.xlsx,The target is tilted.,117,80,0,10,0,0,0,0,0,0,0,0,0,0,0,0,1,1,1,117,space,8.20769509999991,None,0,1,0.48958230000016556,None,space,2.9866336999998566,None,0,0,0,0,,,,,10,0,80,7,170.5794810999996,,,,,,,,,,,,,,,,,,,,,170.5640211,170.5794810999996,171.06302499999993,171.06783039999982,171.08561109999982,171.58020339999985,,,,,171.58039229999986,171.59538599999996,171.79561130000002,171.7793904,,,,,,,,,0,1,0.48958230000016556,None,,,,,,,,824,22,M,R,2026-02-18_11h58.38.230,VisualSearch_2526_3,,2025.2.4,2026-02-18 11h58.38.530715 +0100,
tilted.xlsx,The target is tilted.,117,81,1,10,1,1,1,1,0,0,0,0,0,0,0,0,0,3,4,117,space,8.20769509999991,None,0,0,0.6965404999996281,None,space,2.9866336999998566,None,0,0,0,0,,,,,10,1,81,2,171.79561130000002,,,,,,,,,,,,,,,,,,,,,171.77983359999962,171.79561130000002,172.27954659999978,172.28494659999978,172.3052545999999,173.01353999999992,,,,,173.01377039999988,173.02852229999962,173.22892179999963,173.2128628999999,172.3052545999999,,,,,,,,0,0,0.6965404999996281,None,,,,,,,,824,22,M,R,2026-02-18_11h58.38.230,VisualSearch_2526_3,,2025.2.4,2026-02-18 11h58.38.530715 +0100,
tilted.xlsx,The target is tilted.,117,82,2,10,1,1,1,1,1,1,1,1,1,1,1,1,0,11,12,117,space,8.20769509999991,None,1,1,0.673294100000021,None,space,2.9866336999998566,None,0,0,0,0,,,,,10,2,82,0,173.22892179999963,,,,,,,,,,,,,,,,,,,,,173.21357799999987,173.22892179999963,173.71293960000003,173.71805199999972,173.73597719999998,174.4129297999998,,,,,174.41312179999977,174.42823129999988,174.62877679999974,174.61262009999973,173.73597719999998,,,,,,,,1,1,0.673294100000021,None,,,,,,,,824,22,M,R,2026-02-18_11h58.38.230,VisualSearch_2526_3,,2025.2.4,2026-02-18 11h58.38.530715 +0100,
tilted.xlsx,The target is tilted.,117,83,3,10,1,1,1,1,1,1,1,1,0,0,0,0,0,7,8,117,space,8.20769509999991,None,1,1,0.5877504000000044,None,space,2.9866336999998566,None,0,0,0,0,,,,,10,3,83,1,174.62877679999974,,,,,,,,,,,,,,,,,,,,,174.61335949999966,174.62877679999974,175.1125388999999,175.11698690000003,175.13371259999985,175.72967119999976,,,,,175.72986109999965,175.74463709999964,175.94534029999977,175.92904699999963,175.13371259999985,,,,,,,,1,1,0.5877504000000044,None,,,,,,,,824,22,M,R,2026-02-18_11h58.38.230,VisualSearch_2526_3,,2025.2.4,2026-02-18 11h58.38.530715 +0100,
tilted.xlsx,The target is tilted.,117,84,4,10,0,1,1,1,1,1,1,1,1,1,1,1,1,11,12,117,space,8.20769509999991,None,1,0,0.6663652000002003,None,space,2.9866336999998566,None,0,0,0,0,,,,,10,4,84,4,175.94534029999977,,,,,,,,,,,,,,,,,,,,,175.92978719999974,175.94534029999977,176.42911679999997,176.4342615999999,176.4528049999999,177.12942489999978,,,,,177.1296172999996,177.14461149999988,177.34503459999996,177.32891389999986,176.4528049999999,,,,,,,,1,0,0.6663652000002003,None,,,,,,,,824,22,M,R,2026-02-18_11h58.38.230,VisualSearch_2526_3,,2025.2.4,2026-02-18 11h58.38.530715 +0100,
tilted.xlsx,The target is tilted.,117,85,5,10,0,1,1,1,0,0,0,0,0,0,0,0,1,3,4,117,space,8.20769509999991,None,0,1,0.4498453999999583,None,space,2.9866336999998566,None,0,0,0,0,,,,,10,5,85,6,177.34503459999996,,,,,,,,,,,,,,,,,,,,,177.32963709999967,177.34503459999996,177.82877370000006,177.83322429999998,177.8508956999999,178.31210099999998,,,,,178.31225640000002,178.32802309999988,178.52799819999973,178.51209849999987,177.8508956999999,,,,,,,,0,1,0.4498453999999583,None,,,,,,,,824,22,M,R,2026-02-18_11h58.38.230,VisualSearch_2526_3,,2025.2.4,2026-02-18 11h58.38.530715 +0100,
tilted.xlsx,The target is tilted.,117,86,6,10,0,1,1,1,1,1,1,1,0,0,0,0,1,7,8,117,space,8.20769509999991,None,1,0,0.5971171999999569,None,space,2.9866336999998566,None,0,0,0,0,,,,,10,6,86,5,178.52799819999973,,,,,,,,,,,,,,,,,,,,,178.51285589999998,178.52799819999973,179.01211729999977,179.01724650000006,179.03562239999974,179.64513069999975,,,,,179.6453093,179.66123779999998,179.86129449999999,179.84513519999973,179.03562239999974,,,,,,,,1,0,0.5971171999999569,None,,,,,,,,824,22,M,R,2026-02-18_11h58.38.230,VisualSearch_2526_3,,2025.2.4,2026-02-18 11h58.38.530715 +0100,
tilted.xlsx,The target is tilted.,117,87,7,10,1,0,0,0,0,0,0,0,0,0,0,0,0,0,1,117,space,8.20769509999991,None,0,0,0.42977909999990516,None,space,2.9866336999998566,None,0,0,0,0,,,,,10,7,87,3,179.86129449999999,,,,,,,,,,,,,,,,,,,,,179.84586799999988,179.86129449999999,180.3451839999998,180.35039089999964,180.3689218999998,180.81236089999993,,,,,180.81259409999984,180.82735060000005,181.02750669999978,181.0110940999998,180.3689218999998,,,,,,,,0,0,0.42977909999990516,None,,,,,,,,824,22,M,R,2026-02-18_11h58.38.230,VisualSearch_2526_3,,2025.2.4,2026-02-18 11h58.38.530715 +0100,
tilted.xlsx,The target is tilted.,117,88,0,11,0,1,1,1,1,1,1,1,0,0,0,0,1,7,8,117,space,8.20769509999991,None,1,0,0.5914993000001232,None,space,2.9866336999998566,None,0,0,0,0,,,,,11,0,88,5,181.02750669999978,,,,,,,,,,,,,,,,,,,,,181.01163449999967,181.02750669999978,181.51108849999991,181.51540569999997,181.52800690000004,182.12872909999987,,,,,182.12894189999997,182.14419629999975,182.34430699999984,182.32813629999964,181.52800690000004,,,,,,,,1,0,0.5914993000001232,None,,,,,,,,824,22,M,R,2026-02-18_11h58.38.230,VisualSearch_2526_3,,2025.2.4,2026-02-18 11h58.38.530715 +0100,
tilted.xlsx,The target is tilted.,117,89,1,11,1,1,1,1,1,1,1,1,1,1,1,1,0,11,12,117,space,8.20769509999991,None,1,1,0.5106756999998652,None,space,2.9866336999998566,None,0,0,0,0,,,,,11,1,89,0,182.34430699999984,,,,,,,,,,,,,,,,,,,,,182.32894629999964,182.34430699999984,182.8280609999997,182.83317910000005,182.85211359999994,183.3784053999998,,,,,183.37859769999977,183.39395269999977,183.59398469999996,183.57791319999978,182.85211359999994,,,,,,,,1,1,0.5106756999998652,None,,,,,,,,824,22,M,R,2026-02-18_11h58.38.230,VisualSearch_2526_3,,2025.2.4,2026-02-18 11h58.38.530715 +0100,
tilted.xlsx,The target is tilted.,117,90,2,11,1,1,1,1,0,0,0,0,0,0,0,0,0,3,4,117,space,8.20769509999991,None,0,0,0.4196885999999722,None,space,2.9866336999998566,None,0,0,0,0,,,,,11,2,90,2,183.59398469999996,,,,,,,,,,,,,,,,,,,,,183.5787249,183.59398469999996,184.0778381,184.08297489999995,184.10163169999987,184.52835249999998,,,,,184.5285775999996,184.54368929999964,184.74332609999965,184.72764419999976,184.10163169999987,,,,,,,,0,0,0.4196885999999722,None,,,,,,,,824,22,M,R,2026-02-18_11h58.38.230,VisualSearch_2526_3,,2025.2.4,2026-02-18 11h58.38.530715 +0100,
tilted.xlsx,The target is tilted.,117,91,3,11,0,0,0,0,0,0,0,0,0,0,0,0,1,1,1,117,space,8.20769509999991,None,0,1,0.4969199000001936,None,space,2.9866336999998566,None,0,0,0,0,,,,,11,3,91,7,184.74332609999965,,,,,,,,,,,,,,,,,,,,,184.72847169999977,184.74332609999965,185.22761059999993,185.232841,185.25261090000004,185.76125309999998,,,,,185.76144569999997,185.77672970000003,185.97678869999982,185.96077369999966,185.25261090000004,,,,,,,,0,1,0.4969199000001936,None,,,,,,,,824,22,M,R,2026-02-18_11h58.38.230,VisualSearch_2526_3,,2025.2.4,2026-02-18 11h58.38.530715 +0100,
tilted.xlsx,The target is tilted.,117,92,4,11,0,1,1,1,0,0,0,0,0,0,0,0,1,3,4,117,space,8.20769509999991,None,0,1,0.42457500000000437,None,space,2.9866336999998566,None,0,0,0,0,,,,,11,4,92,6,185.97678869999982,,,,,,,,,,,,,,,,,,,,,185.96147979999978,185.97678869999982,186.4603350999996,186.4642415999997,186.47656229999984,186.91117669999994,,,,,186.91136989999995,186.92666859999963,187.12671439999986,187.1106863,186.47656229999984,,,,,,,,0,1,0.42457500000000437,None,,,,,,,,824,22,M,R,2026-02-18_11h58.38.230,VisualSearch_2526_3,,2025.2.4,2026-02-18 11h58.38.530715 +0100,
tilted.xlsx,The target is tilted.,117,93,5,11,1,1,1,1,1,1,1,1,0,0,0,0,0,7,8,117,space,8.20769509999991,None,1,1,0.5048227999996016,None,space,2.9866336999998566,None,0,0,0,0,,,,,11,5,93,1,187.12671439999986,,,,,,,,,,,,,,,,,,,,,187.11152709999988,187.12671439999986,187.6106053999997,187.61560999999983,187.63383109999995,188.14383799999996,,,,,188.14396149999993,188.15967030000002,188.3597805999998,188.34381540000004,187.63383109999995,,,,,,,,1,1,0.5048227999996016,None,,,,,,,,824,22,M,R,2026-02-18_11h58.38.230,VisualSearch_2526_3,,2025.2.4,2026-02-18 11h58.38.530715 +0100,
tilted.xlsx,The target is tilted.,117,94,6,11,1,0,0,0,0,0,0,0,0,0,0,0,0,0,1,117,space,8.20769509999991,None,0,0,0.3787975999998707,None,space,2.9866336999998566,None,0,0,0,0,,,,,11,6,94,3,188.3597805999998,,,,,,,,,,,,,,,,,,,,,188.34463000000005,188.3597805999998,188.84328800000003,188.84722339999962,188.86545389999992,189.26084629999968,,,,,189.26105759999973,189.2762659,189.47604069999988,189.46040089999997,188.86545389999992,,,,,,,,0,0,0.3787975999998707,None,,,,,,,,824,22,M,R,2026-02-18_11h58.38.230,VisualSearch_2526_3,,2025.2.4,2026-02-18 11h58.38.530715 +0100,
tilted.xlsx,The target is tilted.,117,95,7,11,0,1,1,1,1,1,1,1,1,1,1,1,1,11,12,117,space,8.20769509999991,None,1,0,0.5021599000001515,None,space,2.9866336999998566,None,0,0,0,0,,,,,11,7,95,4,189.47604069999988,,,,,,,,,,,,,,,,,,,,,189.46123339999986,189.47604069999988,189.9602264,189.9653255999997,189.9842082,190.49394779999966,,,,,190.49414019999995,190.50940999999966,190.70953229999986,190.69351989999996,189.9842082,,,,,,,,1,0,0.5021599000001515,None,,,,,,,,824,22,M,R,2026-02-18_11h58.38.230,VisualSearch_2526_3,,2025.2.4,2026-02-18 11h58.38.530715 +0100,
tilted.xlsx,The target is tilted.,117,96,0,12,0,1,1,1,1,1,1,1,1,1,1,1,1,11,12,117,space,8.20769509999991,None,1,0,0.5269463999998152,None,space,2.9866336999998566,None,0,0,0,0,,,,,12,0,96,4,190.70953229999986,,,,,,,,,,,,,,,,,,,,,190.69434569999976,190.70953229999986,191.19333559999995,191.19839299999967,191.21681799999988,191.76036380000005,,,,,191.76055659999975,191.7757816999997,191.97563199999968,191.95933389999982,191.21681799999988,,,,,,,,1,0,0.5269463999998152,None,,,,,,,,824,22,M,R,2026-02-18_11h58.38.230,VisualSearch_2526_3,,2025.2.4,2026-02-18 11h58.38.530715 +0100,
tilted.xlsx,The target is tilted.,117,97,1,12,1,1,1,1,1,1,1,1,0,0,0,0,0,7,8,117,space,8.20769509999991,None,1,1,0.523345099999915,None,space,2.9866336999998566,None,0,0,0,0,,,,,12,1,97,1,191.97563199999968,,,,,,,,,,,,,,,,,,,,,191.95979899999975,191.97563199999968,192.45952429999988,192.4647817,192.48553009999978,193.0099310999999,,,,,193.0100637999999,193.02520679999998,193.22560739999972,193.20966759999965,192.48553009999978,,,,,,,,1,1,0.523345099999915,None,,,,,,,,824,22,M,R,2026-02-18_11h58.38.230,VisualSearch_2526_3,,2025.2.4,2026-02-18 11h58.38.530715 +0100,
tilted.xlsx,The target is tilted.,117,98,2,12,1,0,0,0,0,0,0,0,0,0,0,0,0,0,1,117,space,8.20769509999991,None,0,0,0.40473919999976715,None,space,2.9866336999998566,None,0,0,0,0,,,,,12,2,98,3,193.22560739999972,,,,,,,,,,,,,,,,,,,,,193.2104064,193.22560739999972,193.70961499999976,193.71456339999986,193.73266769999964,194.14323530000001,,,,,194.14342999999963,194.1586898999999,194.35887849999972,194.3427214999997,193.73266769999964,,,,,,,,0,0,0.40473919999976715,None,,,,,,,,824,22,M,R,2026-02-18_11h58.38.230,VisualSearch_2526_3,,2025.2.4,2026-02-18 11h58.38.530715 +0100,
tilted.xlsx,The target is tilted.,117,99,3,12,1,1,1,1,1,1,1,1,1,1,1,1,0,11,12,117,space,8.20769509999991,None,1,1,0.48669440000003306,None,space,2.9866336999998566,None,0,0,0,0,,,,,12,3,99,0,194.35887849999972,,,,,,,,,,,,,,,,,,,,,194.34343369999988,194.35887849999972,194.84285759999966,194.84809959999984,194.8667634999997,195.35949579999988,,,,,195.35968689999982,195.37524269999994,195.57558819999986,195.55929239999978,194.8667634999997,,,,,,,,1,1,0.48669440000003306,None,,,,,,,,824,22,M,R,2026-02-18_11h58.38.230,VisualSearch_2526_3,,2025.2.4,2026-02-18 11h58.38.530715 +0100,
tilted.xlsx,The target is tilted.,117,100,4,12,0,1,1,1,0,0,0,0,0,0,0,0,1,3,4,117,space,8.20769509999991,None,0,1,0.5906362000000627,None,space,2.9866336999998566,None,0,0,0,0,,,,,12,4,100,6,195.57558819999986,,,,,,,,,,,,,,,,,,,,,195.56008989999964,195.57558819999986,196.05920719999995,196.06427299999996,196.08285479999995,196.6764432,,,,,196.67667099999971,196.69170910000003,196.89183079999975,196.87567409999974,196.08285479999995,,,,,,,,0,1,0.5906362000000627,None,,,,,,,,824,22,M,R,2026-02-18_11h58.38.230,VisualSearch_2526_3,,2025.2.4,2026-02-18 11h58.38.530715 +0100,
tilted.xlsx,The target is tilted.,117,101,5,12,0,1,1,1,1,1,1,1,0,0,0,0,1,7,8,117,space,8.20769509999991,None,1,0,0.46539080000002286,None,space,2.9866336999998566,None,0,0,0,0,,,,,12,5,101,5,196.89183079999975,,,,,,,,,,,,,,,,,,,,,196.87638119999974,196.89183079999975,197.3752089999998,197.37793409999995,197.39146949999986,197.8592967999998,,,,,197.85948949999965,197.87447889999976,198.07487349999974,198.05862959999968,197.39146949999986,,,,,,,,1,0,0.46539080000002286,None,,,,,,,,824,22,M,R,2026-02-18_11h58.38.230,VisualSearch_2526_3,,2025.2.4,2026-02-18 11h58.38.530715 +0100,
tilted.xlsx,The target is tilted.,117,102,6,12,0,0,0,0,0,0,0,0,0,0,0,0,1,1,1,117,space,8.20769509999991,None,0,1,0.4666188000001057,None,space,2.9866336999998566,None,0,0,0,0,,,,,12,6,102,7,198.07487349999974,,,,,,,,,,,,,,,,,,,,,198.05936840000004,198.07487349999974,198.55818339999996,198.56273899999997,198.57446660000005,199.04191019999962,,,,,199.04204299999992,199.05786360000002,199.25811299999987,199.2420560999999,198.57446660000005,,,,,,,,0,1,0.4666188000001057,None,,,,,,,,824,22,M,R,2026-02-18_11h58.38.230,VisualSearch_2526_3,,2025.2.4,2026-02-18 11h58.38.530715 +0100,
tilted.xlsx,The target is tilted.,117,103,7,12,1,1,1,1,0,0,0,0,0,0,0,0,0,3,4,117,space,8.20769509999991,None,0,0,0.6301144999997632,None,space,2.9866336999998566,None,0,0,0,0,,,,,12,7,103,2,199.25811299999987,,,,,,,,,,,,,,,,,,,,,199.2428706999999,199.25811299999987,199.74197529999992,199.74708409999994,199.76559610000004,200.40888769999992,,,,,200.40908079999963,200.42412669999976,200.62463409999964,200.6084575,199.76559610000004,,,,,,,,0,0,0.6301144999997632,None,,,,,,,,824,22,M,R,2026-02-18_11h58.38.230,VisualSearch_2526_3,,2025.2.4,2026-02-18 11h58.38.530715 +0100,
tilted.xlsx,The target is tilted.,117,104,0,13,1,0,0,0,0,0,0,0,0,0,0,0,0,0,1,117,space,8.20769509999991,None,0,0,0.4663500000001477,None,space,2.9866336999998566,None,0,0,0,0,,,,,13,0,104,3,200.62463409999964,,,,,,,,,,,,,,,,,,,,,200.6093391999998,200.62463409999964,201.10822159999998,201.11273869999968,201.1304256999997,201.60836359999985,,,,,201.60855449999963,201.62424939999983,201.82436049999978,201.80799879999995,201.1304256999997,,,,,,,,0,0,0.4663500000001477,None,,,,,,,,824,22,M,R,2026-02-18_11h58.38.230,VisualSearch_2526_3,,2025.2.4,2026-02-18 11h58.38.530715 +0100,
tilted.xlsx,The target is tilted.,117,105,1,13,0,1,1,1,0,0,0,0,0,0,0,0,1,3,4,117,space,8.20769509999991,None,1,0,0.6700419000003421,None,space,2.9866336999998566,None,0,0,0,0,,,,,13,1,105,6,201.82436049999978,,,,,,,,,,,,,,,,,,,,,201.80882029999975,201.82436049999978,202.30757829999993,202.3102743999998,202.32401600000003,203.00858010000002,,,,,203.0087870999996,203.02389559999983,203.22417349999978,203.2078435999997,202.32401600000003,,,,,,,,1,0,0.6700419000003421,None,,,,,,,,824,22,M,R,2026-02-18_11h58.38.230,VisualSearch_2526_3,,2025.2.4,2026-02-18 11h58.38.530715 +0100,
tilted.xlsx,The target is tilted.,117,106,2,13,0,1,1,1,1,1,1,1,0,0,0,0,1,7,8,117,space,8.20769509999991,None,1,0,0.5510354999996707,None,space,2.9866336999998566,None,0,0,0,0,,,,,13,2,106,5,203.22417349999978,,,,,,,,,,,,,,,,,,,,,203.20858869999984,203.22417349999978,203.70792119999987,203.71303799999987,203.73063189999993,204.29175880000003,,,,,204.29196439999987,204.3071299999997,204.5067571999998,204.4906274,203.73063189999993,,,,,,,,1,0,0.5510354999996707,None,,,,,,,,824,22,M,R,2026-02-18_11h58.38.230,VisualSearch_2526_3,,2025.2.4,2026-02-18 11h58.38.530715 +0100,
tilted.xlsx,The target is tilted.,117,107,3,13,1,1,1,1,1,1,1,1,0,0,0,0,0,7,8,117,space,8.20769509999991,None,1,1,0.5929470999999467,None,space,2.9866336999998566,None,0,0,0,0,,,,,13,3,107,1,204.5067571999998,,,,,,,,,,,,,,,,,,,,,204.4910735999997,204.5067571999998,204.99066270000003,204.9960741,205.0163379999999,205.62382720000005,,,,,205.62394749999976,205.64020379999965,205.84035889999996,205.82422789999964,205.0163379999999,,,,,,,,1,1,0.5929470999999467,None,,,,,,,,824,22,M,R,2026-02-18_11h58.38.230,VisualSearch_2526_3,,2025.2.4,2026-02-18 11h58.38.530715 +0100,
tilted.xlsx,The target is tilted.,117,108,4,13,1,1,1,1,0,0,0,0,0,0,0,0,0,3,4,117,space,8.20769509999991,None,0,0,0.6252512999999453,None,space,2.9866336999998566,None,0,0,0,0,,,,,13,4,108,2,205.84035889999996,,,,,,,,,,,,,,,,,,,,,205.82505700000002,205.84035889999996,206.32430939999995,206.32954500000005,206.34931819999974,206.99122969999962,,,,,206.99143679999997,207.00665600000002,207.20604939999976,207.1900671999997,206.34931819999974,,,,,,,,0,0,0.6252512999999453,None,,,,,,,,824,22,M,R,2026-02-18_11h58.38.230,VisualSearch_2526_3,,2025.2.4,2026-02-18 11h58.38.530715 +0100,
tilted.xlsx,The target is tilted.,117,109,5,13,1,1,1,1,1,1,1,1,1,1,1,1,0,11,12,117,space,8.20769509999991,None,1,1,0.7371886999999333,None,space,2.9866336999998566,None,0,0,0,0,,,,,13,5,109,0,207.20604939999976,,,,,,,,,,,,,,,,,,,,,207.19051899999977,207.20604939999976,207.69066179999982,207.6959207,207.71474549999994,208.45761549999997,,,,,208.45780639999975,208.47309929999983,208.67329119999977,208.65678769999977,207.71474549999994,,,,,,,,1,1,0.7371886999999333,None,,,,,,,,824,22,M,R,2026-02-18_11h58.38.230,VisualSearch_2526_3,,2025.2.4,2026-02-18 11h58.38.530715 +0100,
tilted.xlsx,The target is tilted.,117,110,6,13,0,1,1,1,1,1,1,1,1,1,1,1,1,11,12,117,space,8.20769509999991,None,1,0,0.5149016000000302,None,space,2.9866336999998566,None,0,0,0,0,,,,,13,6,110,4,208.67329119999977,,,,,,,,,,,,,,,,,,,,,208.65763590000006,208.67329119999977,209.15661839999984,209.1612209,209.17933419999963,209.7070421999997,,,,,209.70723419999968,209.72299969999995,209.92241149999973,209.90651649999973,209.17933419999963,,,,,,,,1,0,0.5149016000000302,None,,,,,,,,824,22,M,R,2026-02-18_11h58.38.230,VisualSearch_2526_3,,2025.2.4,2026-02-18 11h58.38.530715 +0100,
tilted.xlsx,The target is tilted.,117,111,7,13,0,0,0,0,0,0,0,0,0,0,0,0,1,1,1,117,space,8.20769509999991,None,0,1,0.4370387000003575,None,space,2.9866336999998566,None,0,0,0,0,,,,,13,7,111,7,209.92241149999973,,,,,,,,,,,,,,,,,,,,,209.90723669999988,209.92241149999973,210.40651739999976,210.41162239999994,210.43049709999968,210.87387769999987,,,,,210.87407299999995,210.88938559999997,211.08919739999965,211.07328569999981,210.43049709999968,,,,,,,,0,1,0.4370387000003575,None,,,,,,,,824,22,M,R,2026-02-18_11h58.38.230,VisualSearch_2526_3,,2025.2.4,2026-02-18 11h58.38.530715 +0100,
tilted.xlsx,The target is tilted.,117,112,0,14,1,0,0,0,0,0,0,0,0,0,0,0,0,0,1,117,space,8.20769509999991,None,0,0,0.42797250000012355,None,space,2.9866336999998566,None,0,0,0,0,,,,,14,0,112,3,211.08919739999965,,,,,,,,,,,,,,,,,,,,,211.07400949999965,211.08919739999965,211.57332449999967,211.57820779999975,211.60154179999972,212.0397896999998,,,,,212.03991610000003,212.05582749999985,212.25577699999985,212.23987859999988,211.60154179999972,,,,,,,,0,0,0.42797250000012355,None,,,,,,,,824,22,M,R,2026-02-18_11h58.38.230,VisualSearch_2526_3,,2025.2.4,2026-02-18 11h58.38.530715 +0100,
tilted.xlsx,The target is tilted.,117,113,1,14,0,0,0,0,0,0,0,0,0,0,0,0,1,1,1,117,space,8.20769509999991,None,0,1,0.3915922999999566,None,space,2.9866336999998566,None,0,0,0,0,,,,,14,1,113,7,212.25577699999985,,,,,,,,,,,,,,,,,,,,,212.2406858999998,212.25577699999985,212.73976249999987,212.74494619999996,212.76407159999962,213.15693339999962,,,,,213.15716399999974,213.17217279999977,213.37241619999986,213.35622639999974,212.76407159999962,,,,,,,,0,1,0.3915922999999566,None,,,,,,,,824,22,M,R,2026-02-18_11h58.38.230,VisualSearch_2526_3,,2025.2.4,2026-02-18 11h58.38.530715 +0100,
tilted.xlsx,The target is tilted.,117,114,2,14,0,1,1,1,1,1,1,1,1,1,1,1,1,11,12,117,space,8.20769509999991,None,1,0,0.4513855999998668,None,space,2.9866336999998566,None,0,0,0,0,,,,,14,2,114,4,213.37241619999986,,,,,,,,,,,,,,,,,,,,,213.35694479999984,213.37241619999986,213.85641229999965,213.8616517999999,213.8808067,214.33943339999996,,,,,214.33955179999975,214.35488769999984,214.55550889999995,214.53949439999997,213.8808067,,,,,,,,1,0,0.4513855999998668,None,,,,,,,,824,22,M,R,2026-02-18_11h58.38.230,VisualSearch_2526_3,,2025.2.4,2026-02-18 11h58.38.530715 +0100,
tilted.xlsx,The target is tilted.,117,115,3,14,1,1,1,1,1,1,1,1,1,1,1,1,0,11,12,117,space,8.20769509999991,None,1,1,0.4888476000000992,None,space,2.9866336999998566,None,0,0,0,0,,,,,14,3,115,0,214.55550889999995,,,,,,,,,,,,,,,,,,,,,214.5403121999998,214.55550889999995,215.03917649999994,215.04450959999986,215.06420959999969,215.55652999999984,,,,,215.55675649999966,215.57187619999968,215.77206109999997,215.75608029999967,215.06420959999969,,,,,,,,1,1,0.4888476000000992,None,,,,,,,,824,22,M,R,2026-02-18_11h58.38.230,VisualSearch_2526_3,,2025.2.4,2026-02-18 11h58.38.530715 +0100,
tilted.xlsx,The target is tilted.,117,116,4,14,0,1,1,1,1,1,1,1,0,0,0,0,1,7,8,117,space,8.20769509999991,None,1,0,0.5978641000001517,None,space,2.9866336999998566,None,0,0,0,0,,,,,14,4,116,5,215.77206109999997,,,,,,,,,,,,,,,,,,,,,215.75702,215.77206109999997,216.2560165,216.26124919999984,216.2799003,216.88953309999988,,,,,216.88972590000003,216.90472409999984,217.10508249999975,217.08857539999963,216.2799003,,,,,,,,1,0,0.5978641000001517,None,,,,,,,,824,22,M,R,2026-02-18_11h58.38.230,VisualSearch_2526_3,,2025.2.4,2026-02-18 11h58.38.530715 +0100,
tilted.xlsx,The target is tilted.,117,117,5,14,1,1,1,1,0,0,0,0,0,0,0,0,0,3,4,117,space,8.20769509999991,None,0,0,0.4136495999996441,None,space,2.9866336999998566,None,0,0,0,0,,,,,14,5,117,2,217.10508249999975,,,,,,,,,,,,,,,,,,,,,217.0891489999999,217.10508249999975,217.58855730000005,217.59309789999998,217.60505169999988,218.02239469999995,,,,,218.02258570000004,218.03826949999984,218.23824679999962,218.22205759999997,217.60505169999988,,,,,,,,0,0,0.4136495999996441,None,,,,,,,,824,22,M,R,2026-02-18_11h58.38.230,VisualSearch_2526_3,,2025.2.4,2026-02-18 11h58.38.530715 +0100,
tilted.xlsx,The target is tilted.,117,118,6,14,1,1,1,1,1,1,1,1,0,0,0,0,0,7,8,117,space,8.20769509999991,None,1,1,0.6108793000003061,None,space,2.9866336999998566,None,0,0,0,0,,,,,14,6,118,1,218.23824679999962,,,,,,,,,,,,,,,,,,,,,218.22280189999992,218.23824679999962,218.72135290000006,218.72405219999973,218.73756249999997,219.35583429999997,,,,,219.3560263999998,219.37132189999966,219.57134369999994,219.5549618,218.73756249999997,,,,,,,,1,1,0.6108793000003061,None,,,,,,,,824,22,M,R,2026-02-18_11h58.38.230,VisualSearch_2526_3,,2025.2.4,2026-02-18 11h58.38.530715 +0100,
tilted.xlsx,The target is tilted.,117,119,7,14,0,1,1,1,0,0,0,0,0,0,0,0,1,3,4,117,space,8.20769509999991,None,0,1,0.5937995000003866,None,space,2.9866336999998566,None,0,0,0,0,,,,,14,7,119,6,219.57134369999994,,,,,,,,,,,,,,,,,,,,,219.55577979999998,219.57134369999994,220.05527970000003,220.06043469999986,220.07975429999988,220.68895699999985,,,,,220.68914929999983,220.70433869999988,220.90408399999978,220.88790659999995,220.07975429999988,,,,,,,,0,1,0.5937995000003866,None,,,,,,,,824,22,M,R,2026-02-18_11h58.38.230,VisualSearch_2526_3,,2025.2.4,2026-02-18 11h58.38.530715 +0100,
tilted.xlsx,The target is tilted.,117,0,0,0,,,,,,,,,,,,,,,,,space,8.20769509999991,None,,,,,space,2.9866336999998566,None,0,0,0,0,,,,,,,,,,,,,,,,,,,,,,,,,,,,,,,,,,,,,,,,,,,,,,,,,,,,,,,,,,,,,,,824,22,M,R,2026-02-18_11h58.38.230,VisualSearch_2526_3,,2025.2.4,2026-02-18 11h58.38.530715 +0100,
vertical.xlsx,The target is tilted.,135,0,0,0,0,0,0,0,0,0,0,0,0,0,0,0,1,1,1,135,space,9.785940499999924,None,0,1,0.5367966999997407,None,,,,0,1,1,1,0,0,0,7,,,,,230.7241366999997,,,,,,,,,,,,,,,220.90408399999978,220.90408399999978,220.90408399999978,space,9.785940499999924,None,230.71972979999964,230.7241366999997,231.2193069,231.22216889999982,231.2357079999997,231.78621269999985,0,1,0.5367966999997407,None,231.78632949999974,231.80198459999974,232.00199010000006,231.98606849999987,,,,,,,,,,,,,,,,,,,,824,22,M,R,2026-02-18_11h58.38.230,VisualSearch_2526_3,,2025.2.4,2026-02-18 11h58.38.530715 +0100,
vertical.xlsx,The target is tilted.,135,1,1,0,1,0,0,0,0,0,0,0,0,0,0,0,0,0,1,135,space,9.785940499999924,None,0,0,0.353051300000061,None,,,,0,1,1,1,0,1,1,3,,,,,232.00199010000006,,,,,,,,,,,,,,,,,,,,,231.98646710000003,232.00199010000006,232.48647149999988,232.49158519999992,232.51002040000003,232.86942099999987,0,0,0.353051300000061,None,232.8696049,232.88517569999976,233.0856114999997,233.0687014,232.51002040000003,,,,,,,,,,,,,,,,,,,824,22,M,R,2026-02-18_11h58.38.230,VisualSearch_2526_3,,2025.2.4,2026-02-18 11h58.38.530715 +0100,
vertical.xlsx,The target is tilted.,135,2,2,0,1,1,1,1,1,1,1,1,1,1,1,1,0,11,12,135,space,9.785940499999924,None,1,1,0.6522118000002592,None,,,,0,1,1,1,0,2,2,0,,,,,233.0856114999997,,,,,,,,,,,,,,,,,,,,,233.06914199999983,233.0856114999997,233.56964900000003,233.57469569999967,233.59265419999974,234.25339429999985,1,1,0.6522118000002592,None,234.25358119999964,234.26884579999978,234.46888039999976,234.4526953999998,233.59265419999974,,,,,,,,,,,,,,,,,,,824,22,M,R,2026-02-18_11h58.38.230,VisualSearch_2526_3,,2025.2.4,2026-02-18 11h58.38.530715 +0100,
vertical.xlsx,The target is tilted.,135,3,3,0,0,1,1,1,1,1,1,1,1,1,1,1,1,11,12,135,space,9.785940499999924,None,0,1,2.4855523999999605,None,,,,0,1,1,1,0,3,3,4,,,,,234.46888039999976,,,,,,,,,,,,,,,,,,,,,234.45340589999978,234.46888039999976,234.95267829999966,234.95809429999963,234.97674259999985,237.46932769999967,0,1,2.4855523999999605,None,237.46949519999998,237.48490739999988,237.68505089999962,237.6687794999998,234.97674259999985,,,,,,,,,,,,,,,,,,,824,22,M,R,2026-02-18_11h58.38.230,VisualSearch_2526_3,,2025.2.4,2026-02-18 11h58.38.530715 +0100,
vertical.xlsx,The target is tilted.,135,4,4,0,1,1,1,1,0,0,0,0,0,0,0,0,0,3,4,135,space,9.785940499999924,None,0,0,0.7485438000003342,None,,,,0,1,1,1,0,4,4,2,,,,,237.68505089999962,,,,,,,,,,,,,,,,,,,,,237.6694706999997,237.68505089999962,238.1685349999998,238.17301799999996,238.18962569999985,238.9523433999998,0,0,0.7485438000003342,None,238.95251169999983,238.96771939999962,239.16780599999993,239.1520177999996,238.18962569999985,,,,,,,,,,,,,,,,,,,824,22,M,R,2026-02-18_11h58.38.230,VisualSearch_2526_3,,2025.2.4,2026-02-18 11h58.38.530715 +0100,
vertical.xlsx,The target is tilted.,135,5,5,0,1,1,1,1,1,1,1,1,0,0,0,0,0,7,8,135,space,9.785940499999924,None,1,1,0.9197755000000143,None,,,,0,1,1,1,0,5,5,1,,,,,239.16780599999993,,,,,,,,,,,,,,,,,,,,,239.15267819999963,239.16780599999993,239.65196249999963,239.65648199999987,239.67344709999998,240.60215819999985,1,1,0.9197755000000143,None,240.60232689999975,240.6177921999997,240.81782199999998,240.8017436,239.67344709999998,,,,,,,,,,,,,,,,,,,824,22,M,R,2026-02-18_11h58.38.230,VisualSearch_2526_3,,2025.2.4,2026-02-18 11h58.38.530715 +0100,
vertical.xlsx,The target is tilted.,135,6,6,0,0,1,1,1,0,0,0,0,0,0,0,0,1,3,4,135,space,9.785940499999924,None,0,1,0.5653112999998484,None,,,,0,1,1,1,0,6,6,6,,,,,240.81782199999998,,,,,,,,,,,,,,,,,,,,,240.80240479999975,240.81782199999998,241.30147869999973,241.30603949999977,241.32367539999996,241.90200909999976,0,1,0.5653112999998484,None,241.90217970000003,241.9171068999999,242.1171836999997,242.10122209999963,241.32367539999996,,,,,,,,,,,,,,,,,,,824,22,M,R,2026-02-18_11h58.38.230,VisualSearch_2526_3,,2025.2.4,2026-02-18 11h58.38.530715 +0100,
vertical.xlsx,The target is tilted.,135,7,7,0,0,1,1,1,1,1,1,1,0,0,0,0,1,7,8,135,space,9.785940499999924,None,0,1,2.011630800000148,None,,,,0,1,1,1,0,7,7,5,,,,,242.1171836999997,,,,,,,,,,,,,,,,,,,,,242.1019253999998,242.1171836999997,242.60152900000003,242.60668929999974,242.62464709999995,244.65154319999965,0,1,2.011630800000148,None,244.6517131999999,244.66679619999968,244.86696959999972,244.85063319999972,242.62464709999995,,,,,,,,,,,,,,,,,,,824,22,M,R,2026-02-18_11h58.38.230,VisualSearch_2526_3,,2025.2.4,2026-02-18 11h58.38.530715 +0100,
vertical.xlsx,The target is tilted.,135,0,0,0,1,1,1,1,1,1,1,1,1,1,1,1,0,11,12,135,space,9.785940499999924,None,1,1,1.0953259000002618,None,space,3.0046721000003345,None,0,1,1,1,,,,,0,0,0,0,247.92450439999993,,,,,,,,,,,,,,,,,,,,,247.92013159999988,247.92450439999993,248.40032949999977,248.40558069999997,248.42437699999982,249.5340317,,,,,249.53420749999987,249.54975650000006,249.74925029999986,249.7331750999997,,244.85474169999998,244.86696959999972,244.86696959999972,247.88434919999963,space,3.0046721000003345,None,1,1,1.0953259000002618,None,,,,,,,,824,22,M,R,2026-02-18_11h58.38.230,VisualSearch_2526_3,,2025.2.4,2026-02-18 11h58.38.530715 +0100,
vertical.xlsx,The target is tilted.,135,1,1,0,0,1,1,1,0,0,0,0,0,0,0,0,1,3,4,135,space,9.785940499999924,None,0,1,0.5878785999998399,None,space,3.0046721000003345,None,0,1,1,1,,,,,0,1,1,6,249.74925029999986,,,,,,,,,,,,,,,,,,,,,249.73395439999967,249.74925029999986,250.23369619999994,250.23882449999974,250.2569510999997,250.8496869999999,,,,,250.84980789999963,250.86581949999982,251.0657600999998,251.05009289999998,250.2569510999997,,,,,,,,0,1,0.5878785999998399,None,,,,,,,,824,22,M,R,2026-02-18_11h58.38.230,VisualSearch_2526_3,,2025.2.4,2026-02-18 11h58.38.530715 +0100,
vertical.xlsx,The target is tilted.,135,2,2,0,1,1,1,1,1,1,1,1,0,0,0,0,0,7,8,135,space,9.785940499999924,None,1,1,0.9990319000003183,None,space,3.0046721000003345,None,0,1,1,1,,,,,0,2,2,1,251.0657600999998,,,,,,,,,,,,,,,,,,,,,251.05092590000004,251.0657600999998,251.55002269999977,251.55527619999975,251.57373169999983,252.58337570000003,,,,,252.5835675999997,252.5990244999998,252.79881569999998,252.78245609999976,251.57373169999983,,,,,,,,1,1,0.9990319000003183,None,,,,,,,,824,22,M,R,2026-02-18_11h58.38.230,VisualSearch_2526_3,,2025.2.4,2026-02-18 11h58.38.530715 +0100,
vertical.xlsx,The target is tilted.,135,3,3,0,1,0,0,0,0,0,0,0,0,0,0,0,0,0,1,135,space,9.785940499999924,None,1,1,0.7425652000001719,None,space,3.0046721000003345,None,0,1,1,1,,,,,0,3,3,3,252.79881569999998,,,,,,,,,,,,,,,,,,,,,252.7829724999997,252.79881569999998,253.28312149999965,253.28800699999965,253.2990792999999,254.0500917999998,,,,,254.05029799999966,254.06526179999992,254.26523599999973,254.24958019999985,253.2990792999999,,,,,,,,1,1,0.7425652000001719,None,,,,,,,,824,22,M,R,2026-02-18_11h58.38.230,VisualSearch_2526_3,,2025.2.4,2026-02-18 11h58.38.530715 +0100,
vertical.xlsx,The target is tilted.,135,4,4,0,0,0,0,0,0,0,0,0,0,0,0,0,1,1,1,135,space,9.785940499999924,None,0,1,0.5454552000001058,None,space,3.0046721000003345,None,0,1,1,1,,,,,0,4,4,7,254.26523599999973,,,,,,,,,,,,,,,,,,,,,254.25029849999964,254.26523599999973,254.74939730000006,254.7538999999997,254.77108199999975,255.33319110000002,,,,,255.33338159999994,255.3488379999999,255.5487275999999,255.5326130999997,254.77108199999975,,,,,,,,0,1,0.5454552000001058,None,,,,,,,,824,22,M,R,2026-02-18_11h58.38.230,VisualSearch_2526_3,,2025.2.4,2026-02-18 11h58.38.530715 +0100,
vertical.xlsx,The target is tilted.,135,5,5,0,0,1,1,1,1,1,1,1,1,1,1,1,1,11,12,135,space,9.785940499999924,None,0,1,1.7893191000002844,None,space,3.0046721000003345,None,0,1,1,1,,,,,0,5,5,4,255.5487275999999,,,,,,,,,,,,,,,,,,,,,255.53333829999974,255.5487275999999,256.03234329999987,256.03761399999985,256.0558192999997,257.84839079999983,,,,,257.84850979999965,257.8643546999997,258.06472299999996,258.04872609999984,256.0558192999997,,,,,,,,0,1,1.7893191000002844,None,,,,,,,,824,22,M,R,2026-02-18_11h58.38.230,VisualSearch_2526_3,,2025.2.4,2026-02-18 11h58.38.530715 +0100,
vertical.xlsx,The target is tilted.,135,6,6,0,1,1,1,1,0,0,0,0,0,0,0,0,0,3,4,135,space,9.785940499999924,None,1,1,0.5429705000001377,None,space,3.0046721000003345,None,0,1,1,1,,,,,0,6,6,2,258.06472299999996,,,,,,,,,,,,,,,,,,,,,258.0494655999996,258.06472299999996,258.54874029999974,258.5532352,258.5702707999999,259.11580589999994,,,,,259.1159806999999,259.1313965999998,259.33144749999974,259.3154513999998,258.5702707999999,,,,,,,,1,1,0.5429705000001377,None,,,,,,,,824,22,M,R,2026-02-18_11h58.38.230,VisualSearch_2526_3,,2025.2.4,2026-02-18 11h58.38.530715 +0100,
vertical.xlsx,The target is tilted.,135,7,7,0,0,1,1,1,1,1,1,1,0,0,0,0,1,7,8,135,space,9.785940499999924,None,0,1,0.883505199999945,None,space,3.0046721000003345,None,0,1,1,1,,,,,0,7,7,5,259.33144749999974,,,,,,,,,,,,,,,,,,,,,259.3162244,259.33144749999974,259.8153159999997,259.8204114,259.8400620999996,260.7323305,,,,,260.73252669999965,260.74782389999973,260.9479056,260.9318774999997,259.8400620999996,,,,,,,,0,1,0.883505199999945,None,,,,,,,,824,22,M,R,2026-02-18_11h58.38.230,VisualSearch_2526_3,,2025.2.4,2026-02-18 11h58.38.530715 +0100,
vertical.xlsx,The target is tilted.,135,8,0,1,1,1,1,1,1,1,1,1,0,0,0,0,0,7,8,135,space,9.785940499999924,None,1,1,0.617070700000113,None,space,3.0046721000003345,None,0,1,1,1,,,,,1,0,8,1,260.9479056,,,,,,,,,,,,,,,,,,,,,260.93270729999995,260.9479056,261.431595,261.4367229999998,261.4558133999999,262.08212030000004,,,,,262.0823112999997,262.09754959999964,262.2969761999998,262.28068459999986,261.4558133999999,,,,,,,,1,1,0.617070700000113,None,,,,,,,,824,22,M,R,2026-02-18_11h58.38.230,VisualSearch_2526_3,,2025.2.4,2026-02-18 11h58.38.530715 +0100,
vertical.xlsx,The target is tilted.,135,9,1,1,0,0,0,0,0,0,0,0,0,0,0,0,1,1,1,135,space,9.785940499999924,None,0,1,0.5978516999998646,None,space,3.0046721000003345,None,0,1,1,1,,,,,1,1,9,7,262.2969761999998,,,,,,,,,,,,,,,,,,,,,262.2811453999998,262.2969761999998,262.78140080000003,262.7858839999999,262.80377529999987,263.41492130000006,,,,,263.41506759999993,263.4306395999997,263.63073529999974,263.61470929999996,262.80377529999987,,,,,,,,0,1,0.5978516999998646,None,,,,,,,,824,22,M,R,2026-02-18_11h58.38.230,VisualSearch_2526_3,,2025.2.4,2026-02-18 11h58.38.530715 +0100,
vertical.xlsx,The target is tilted.,135,10,2,1,1,0,0,0,0,0,0,0,0,0,0,0,0,0,1,135,space,9.785940499999924,None,1,1,0.6267990999999711,None,space,3.0046721000003345,None,0,1,1,1,,,,,1,2,10,3,263.63073529999974,,,,,,,,,,,,,,,,,,,,,263.6155335999997,263.63073529999974,264.11463639999965,264.11982229999967,264.1383407999997,264.7817359999999,,,,,264.7819635999999,264.79710879999993,264.99681759999976,264.9809468999997,264.1383407999997,,,,,,,,1,1,0.6267990999999711,None,,,,,,,,824,22,M,R,2026-02-18_11h58.38.230,VisualSearch_2526_3,,2025.2.4,2026-02-18 11h58.38.530715 +0100,
vertical.xlsx,The target is tilted.,135,11,3,1,1,1,1,1,1,1,1,1,1,1,1,1,0,11,12,135,space,9.785940499999924,None,1,1,0.6259972999996535,None,space,3.0046721000003345,None,0,1,1,1,,,,,1,3,11,0,264.99681759999976,,,,,,,,,,,,,,,,,,,,,264.9822107,264.99681759999976,265.48106370000005,265.48617879999983,265.4969019,266.13090139999986,,,,,266.1310188999996,266.1468719999998,266.3465845999999,266.3306161999999,265.4969019,,,,,,,,1,1,0.6259972999996535,None,,,,,,,,824,22,M,R,2026-02-18_11h58.38.230,VisualSearch_2526_3,,2025.2.4,2026-02-18 11h58.38.530715 +0100,
vertical.xlsx,The target is tilted.,135,12,4,1,0,1,1,1,0,0,0,0,0,0,0,0,1,3,4,135,space,9.785940499999924,None,0,1,0.6646834000002855,None,space,3.0046721000003345,None,0,1,1,1,,,,,1,4,12,6,266.3465845999999,,,,,,,,,,,,,,,,,,,,,266.33136769999965,266.3465845999999,266.8308912999996,266.8356377,266.84664539999994,267.51449460000003,,,,,267.51466809999965,267.52981139999974,267.7295044999996,267.71316209999986,266.84664539999994,,,,,,,,0,1,0.6646834000002855,None,,,,,,,,824,22,M,R,2026-02-18_11h58.38.230,VisualSearch_2526_3,,2025.2.4,2026-02-18 11h58.38.530715 +0100,
vertical.xlsx,The target is tilted.,135,13,5,1,0,1,1,1,1,1,1,1,1,1,1,1,1,11,12,135,space,9.785940499999924,None,0,1,1.8070111000001816,None,space,3.0046721000003345,None,0,1,1,1,,,,,1,5,13,4,267.7295044999996,,,,,,,,,,,,,,,,,,,,,267.71371009999984,267.7295044999996,268.21348880000005,268.2180393999997,268.23600439999973,270.04698129999997,,,,,270.0471554999999,270.06311089999963,270.26307419999966,270.2465812999999,268.23600439999973,,,,,,,,0,1,1.8070111000001816,None,,,,,,,,824,22,M,R,2026-02-18_11h58.38.230,VisualSearch_2526_3,,2025.2.4,2026-02-18 11h58.38.530715 +0100,
vertical.xlsx,The target is tilted.,135,14,6,1,1,1,1,1,0,0,0,0,0,0,0,0,0,3,4,135,space,9.785940499999924,None,1,1,0.6230596000000332,None,space,3.0046721000003345,None,0,1,1,1,,,,,1,6,14,2,270.26307419999966,,,,,,,,,,,,,,,,,,,,,270.24742419999984,270.26307419999966,270.7463429999998,270.7510585,270.7629601999997,271.39692209999976,,,,,271.39711339999985,271.4127317999996,271.61272740000004,271.59602989999985,270.7629601999997,,,,,,,,1,1,0.6230596000000332,None,,,,,,,,824,22,M,R,2026-02-18_11h58.38.230,VisualSearch_2526_3,,2025.2.4,2026-02-18 11h58.38.530715 +0100,
vertical.xlsx,The target is tilted.,135,15,7,1,0,1,1,1,1,1,1,1,0,0,0,0,1,7,8,135,space,9.785940499999924,None,0,1,1.2197372000000541,None,space,3.0046721000003345,None,0,1,1,1,,,,,1,7,15,5,271.61272740000004,,,,,,,,,,,,,,,,,,,,,271.59657530000004,271.61272740000004,272.0962276,272.1011202999998,272.11491419999993,273.34672869999986,,,,,273.34690150000006,273.36237729999993,273.56250709999995,273.54589229999965,272.11491419999993,,,,,,,,0,1,1.2197372000000541,None,,,,,,,,824,22,M,R,2026-02-18_11h58.38.230,VisualSearch_2526_3,,2025.2.4,2026-02-18 11h58.38.530715 +0100,
vertical.xlsx,The target is tilted.,135,16,0,2,0,1,1,1,1,1,1,1,0,0,0,0,1,7,8,135,space,9.785940499999924,None,0,1,1.40943070000003,None,space,3.0046721000003345,None,0,1,1,1,,,,,2,0,16,5,273.56250709999995,,,,,,,,,,,,,,,,,,,,,273.5466452999999,273.56250709999995,274.0464364999998,274.051735,274.07016410000006,275.4964895999997,,,,,275.49666449999995,275.5120115999998,275.7121079999997,275.6958864999997,274.07016410000006,,,,,,,,0,1,1.40943070000003,None,,,,,,,,824,22,M,R,2026-02-18_11h58.38.230,VisualSearch_2526_3,,2025.2.4,2026-02-18 11h58.38.530715 +0100,
vertical.xlsx,The target is tilted.,135,17,1,2,0,1,1,1,1,1,1,1,1,1,1,1,1,11,12,135,space,9.785940499999924,None,0,1,1.3074695000000247,None,space,3.0046721000003345,None,0,1,1,1,,,,,2,1,17,4,275.7121079999997,,,,,,,,,,,,,,,,,,,,,275.69664769999963,275.7121079999997,276.19597099999964,276.2004658999999,276.21740679999994,277.52899909999996,,,,,277.52917469999966,277.5445743,277.74506059999976,277.7289615999998,276.21740679999994,,,,,,,,0,1,1.3074695000000247,None,,,,,,,,824,22,M,R,2026-02-18_11h58.38.230,VisualSearch_2526_3,,2025.2.4,2026-02-18 11h58.38.530715 +0100,
vertical.xlsx,The target is tilted.,135,18,2,2,1,0,0,0,0,0,0,0,0,0,0,0,0,0,1,135,space,9.785940499999924,None,1,1,0.7139714999998432,None,space,3.0046721000003345,None,0,1,1,1,,,,,2,2,18,3,277.74506059999976,,,,,,,,,,,,,,,,,,,,,277.7296543999996,277.74506059999976,278.2285273999996,278.2326963999999,278.2481453999999,278.9791720999997,,,,,278.9793464999998,278.9949213,279.1946453999999,279.1782863999997,278.2481453999999,,,,,,,,1,1,0.7139714999998432,None,,,,,,,,824,22,M,R,2026-02-18_11h58.38.230,VisualSearch_2526_3,,2025.2.4,2026-02-18 11h58.38.530715 +0100,
vertical.xlsx,The target is tilted.,135,19,3,2,1,1,1,1,0,0,0,0,0,0,0,0,0,3,4,135,space,9.785940499999924,None,1,1,0.7597787999998218,None,space,3.0046721000003345,None,0,1,1,1,,,,,2,3,19,2,279.1946453999999,,,,,,,,,,,,,,,,,,,,,279.17875019999974,279.1946453999999,279.67854339999985,279.6834051999999,279.70279299999993,280.4790863999997,,,,,280.47927849999996,280.49459769999976,280.69463499999983,280.67799769999965,279.70279299999993,,,,,,,,1,1,0.7597787999998218,None,,,,,,,,824,22,M,R,2026-02-18_11h58.38.230,VisualSearch_2526_3,,2025.2.4,2026-02-18 11h58.38.530715 +0100,
vertical.xlsx,The target is tilted.,135,20,4,2,1,1,1,1,1,1,1,1,0,0,0,0,0,7,8,135,space,9.785940499999924,None,1,1,0.8231259999997746,None,space,3.0046721000003345,None,0,1,1,1,,,,,2,4,20,1,280.69463499999983,,,,,,,,,,,,,,,,,,,,,280.6787768999998,280.69463499999983,281.1782973999998,281.18283010000005,281.20050779999974,282.02852859999985,,,,,282.0287014999999,282.0441665999997,282.24441369999977,282.22806119999996,281.20050779999974,,,,,,,,1,1,0.8231259999997746,None,,,,,,,,824,22,M,R,2026-02-18_11h58.38.230,VisualSearch_2526_3,,2025.2.4,2026-02-18 11h58.38.530715 +0100,
vertical.xlsx,The target is tilted.,135,21,5,2,1,1,1,1,1,1,1,1,1,1,1,1,0,11,12,135,space,9.785940499999924,None,1,1,0.8840491999999358,None,space,3.0046721000003345,None,0,1,1,1,,,,,2,5,21,0,282.24441369999977,,,,,,,,,,,,,,,,,,,,,282.22880859999987,282.24441369999977,282.7277366999997,282.7322924,282.74424069999986,283.6447670999996,,,,,283.64496099999997,283.66070839999975,283.8608227999998,283.8447226999997,282.74424069999986,,,,,,,,1,1,0.8840491999999358,None,,,,,,,,824,22,M,R,2026-02-18_11h58.38.230,VisualSearch_2526_3,,2025.2.4,2026-02-18 11h58.38.530715 +0100,
vertical.xlsx,The target is tilted.,135,22,6,2,0,0,0,0,0,0,0,0,0,0,0,0,1,1,1,135,space,9.785940499999924,None,0,1,0.6556780000000799,None,space,3.0046721000003345,None,0,1,1,1,,,,,2,6,22,7,283.8608227999998,,,,,,,,,,,,,,,,,,,,,283.8455464999997,283.8608227999998,284.3445150999996,284.34901679999984,284.3660984999997,285.02838829999973,,,,,285.02861619999976,285.04349920000004,285.2439012,285.2275546999999,284.3660984999997,,,,,,,,0,1,0.6556780000000799,None,,,,,,,,824,22,M,R,2026-02-18_11h58.38.230,VisualSearch_2526_3,,2025.2.4,2026-02-18 11h58.38.530715 +0100,
vertical.xlsx,The target is tilted.,135,23,7,2,0,1,1,1,0,0,0,0,0,0,0,0,1,3,4,135,space,9.785940499999924,None,0,1,0.6292424000002939,None,space,3.0046721000003345,None,0,1,1,1,,,,,2,7,23,6,285.2439012,,,,,,,,,,,,,,,,,,,,,285.22830969999995,285.2439012,285.72753869999997,285.7321334999997,285.7500261,286.39488779999965,,,,,286.39509150000004,286.4099074999999,286.6103727999998,286.59436909999977,285.7500261,,,,,,,,0,1,0.6292424000002939,None,,,,,,,,824,22,M,R,2026-02-18_11h58.38.230,VisualSearch_2526_3,,2025.2.4,2026-02-18 11h58.38.530715 +0100,
vertical.xlsx,The target is tilted.,135,24,0,3,1,0,0,0,0,0,0,0,0,0,0,0,0,0,1,135,space,9.785940499999924,None,1,1,0.6007564000001366,None,space,3.0046721000003345,None,0,1,1,1,,,,,3,0,24,3,286.6103727999998,,,,,,,,,,,,,,,,,,,,,286.5951679,286.6103727999998,287.0943576999998,287.09967749999987,287.11871059999976,287.7275738999997,,,,,287.72776410000006,287.74298469999985,287.9431835999999,287.9270257999997,287.11871059999976,,,,,,,,1,1,0.6007564000001366,None,,,,,,,,824,22,M,R,2026-02-18_11h58.38.230,VisualSearch_2526_3,,2025.2.4,2026-02-18 11h58.38.530715 +0100,
vertical.xlsx,The target is tilted.,135,25,1,3,1,1,1,1,0,0,0,0,0,0,0,0,0,3,4,135,space,9.785940499999924,None,1,1,0.6543661000000611,None,space,3.0046721000003345,None,0,1,1,1,,,,,3,1,25,2,287.9431835999999,,,,,,,,,,,,,,,,,,,,,287.9277523999999,287.9431835999999,288.4264232999999,288.4288778,288.44310929999983,289.1109836999999,,,,,289.11117509999985,289.12639969999964,289.3265656999997,289.31047839999974,288.44310929999983,,,,,,,,1,1,0.6543661000000611,None,,,,,,,,824,22,M,R,2026-02-18_11h58.38.230,VisualSearch_2526_3,,2025.2.4,2026-02-18 11h58.38.530715 +0100,
vertical.xlsx,The target is tilted.,135,26,2,3,1,1,1,1,1,1,1,1,1,1,1,1,0,11,12,135,space,9.785940499999924,None,1,1,0.7415068999998766,None,space,3.0046721000003345,None,0,1,1,1,,,,,3,2,26,0,289.3265656999997,,,,,,,,,,,,,,,,,,,,,289.3113049999997,289.3265656999997,289.81030699999974,289.81481759999997,289.8322685999997,290.5772010999999,,,,,290.57739979999997,290.5926629999999,290.7931080999997,290.7765123999998,289.8322685999997,,,,,,,,1,1,0.7415068999998766,None,,,,,,,,824,22,M,R,2026-02-18_11h58.38.230,VisualSearch_2526_3,,2025.2.4,2026-02-18 11h58.38.530715 +0100,
vertical.xlsx,The target is tilted.,135,27,3,3,0,1,1,1,0,0,0,0,0,0,0,0,1,3,4,135,space,9.785940499999924,None,0,1,0.5716722000001937,None,space,3.0046721000003345,None,0,1,1,1,,,,,3,3,27,6,290.7931080999997,,,,,,,,,,,,,,,,,,,,,290.7773213999999,290.7931080999997,291.27647119999983,291.2813933999996,291.29937259999997,291.87696319999986,,,,,291.87717840000005,291.8927725999997,292.09274959999993,292.07647959999986,291.29937259999997,,,,,,,,0,1,0.5716722000001937,None,,,,,,,,824,22,M,R,2026-02-18_11h58.38.230,VisualSearch_2526_3,,2025.2.4,2026-02-18 11h58.38.530715 +0100,
vertical.xlsx,The target is tilted.,135,28,4,3,1,1,1,1,1,1,1,1,0,0,0,0,0,7,8,135,space,9.785940499999924,None,1,1,0.7326721999997972,None,space,3.0046721000003345,None,0,1,1,1,,,,,3,4,28,1,292.09274959999993,,,,,,,,,,,,,,,,,,,,,292.07739319999973,292.09274959999993,292.5764403999997,292.58158449999974,292.60067279999976,293.3432794999999,,,,,293.3434797,293.3585585999999,293.559084,293.5429409999997,292.60067279999976,,,,,,,,1,1,0.7326721999997972,None,,,,,,,,824,22,M,R,2026-02-18_11h58.38.230,VisualSearch_2526_3,,2025.2.4,2026-02-18 11h58.38.530715 +0100,
vertical.xlsx,The target is tilted.,135,29,5,3,0,1,1,1,1,1,1,1,1,1,1,1,1,11,12,135,space,9.785940499999924,None,0,1,1.1191533000001073,None,space,3.0046721000003345,None,0,1,1,1,,,,,3,5,29,4,293.559084,,,,,,,,,,,,,,,,,,,,,293.54369099999985,293.559084,294.0431448999998,294.0481691,294.0665320999997,295.1933012999998,,,,,295.19349349999993,295.20876099999987,295.4088517,295.3927088999999,294.0665320999997,,,,,,,,0,1,1.1191533000001073,None,,,,,,,,824,22,M,R,2026-02-18_11h58.38.230,VisualSearch_2526_3,,2025.2.4,2026-02-18 11h58.38.530715 +0100,
vertical.xlsx,The target is tilted.,135,30,6,3,0,1,1,1,1,1,1,1,0,0,0,0,1,7,8,135,space,9.785940499999924,None,0,1,0.7883516000001691,None,space,3.0046721000003345,None,0,1,1,1,,,,,3,6,30,5,295.4088517,,,,,,,,,,,,,,,,,,,,,295.39343009999993,295.4088517,295.8925641999999,295.89728620000005,295.91518929999984,296.70945719999963,,,,,296.70965799999976,296.7252231999996,296.9253053999996,296.90915479999967,295.91518929999984,,,,,,,,0,1,0.7883516000001691,None,,,,,,,,824,22,M,R,2026-02-18_11h58.38.230,VisualSearch_2526_3,,2025.2.4,2026-02-18 11h58.38.530715 +0100,
vertical.xlsx,The target is tilted.,135,31,7,3,0,0,0,0,0,0,0,0,0,0,0,0,1,1,1,135,space,9.785940499999924,None,0,1,0.6564705000000686,None,space,3.0046721000003345,None,0,1,1,1,,,,,3,7,31,7,296.9253053999996,,,,,,,,,,,,,,,,,,,,,296.90986410000005,296.9253053999996,297.40915429999995,297.41440809999995,297.4331382999999,298.0928635,,,,,298.0930494999998,298.10822979999966,298.3083532999999,298.29191809999975,297.4331382999999,,,,,,,,0,1,0.6564705000000686,None,,,,,,,,824,22,M,R,2026-02-18_11h58.38.230,VisualSearch_2526_3,,2025.2.4,2026-02-18 11h58.38.530715 +0100,
vertical.xlsx,The target is tilted.,135,32,0,4,1,1,1,1,1,1,1,1,0,0,0,0,0,7,8,135,space,9.785940499999924,None,1,1,1.693318999999974,None,space,3.0046721000003345,None,0,1,1,1,,,,,4,0,32,1,298.3083532999999,,,,,,,,,,,,,,,,,,,,,298.29250090000005,298.3083532999999,298.79134639999984,298.7940454999998,298.80806719999964,300.50904939999964,,,,,300.50923939999984,300.52455059999966,300.7246799999998,300.7084308999997,298.80806719999964,,,,,,,,1,1,1.693318999999974,None,,,,,,,,824,22,M,R,2026-02-18_11h58.38.230,VisualSearch_2526_3,,2025.2.4,2026-02-18 11h58.38.530715 +0100,
vertical.xlsx,The target is tilted.,135,33,1,4,0,1,1,1,1,1,1,1,0,0,0,0,1,7,8,135,space,9.785940499999924,None,0,1,1.59824239999989,None,space,3.0046721000003345,None,0,1,1,1,,,,,4,1,33,5,300.7246799999998,,,,,,,,,,,,,,,,,,,,,300.7091725999999,300.7246799999998,301.2083327,301.21288509999977,301.23099699999966,302.8418878999996,,,,,302.8420607999997,302.85746949999975,303.05744259999983,303.0414434999998,301.23099699999966,,,,,,,,0,1,1.59824239999989,None,,,,,,,,824,22,M,R,2026-02-18_11h58.38.230,VisualSearch_2526_3,,2025.2.4,2026-02-18 11h58.38.530715 +0100,
vertical.xlsx,The target is tilted.,135,34,2,4,0,1,1,1,1,1,1,1,1,1,1,1,1,11,12,135,space,9.785940499999924,None,0,1,1.038711300000159,None,space,3.0046721000003345,None,0,1,1,1,,,,,4,2,34,4,303.05744259999983,,,,,,,,,,,,,,,,,,,,,303.0421760999998,303.05744259999983,303.5413398999999,303.5458700999998,303.56342730000006,304.60821609999994,,,,,304.60839699999997,304.6238349,304.82393679999996,304.80744430000004,303.56342730000006,,,,,,,,0,1,1.038711300000159,None,,,,,,,,824,22,M,R,2026-02-18_11h58.38.230,VisualSearch_2526_3,,2025.2.4,2026-02-18 11h58.38.530715 +0100,
