file_name,block_instructions,target_example,thisN,thisTrialN,thisRepN,target_presence,opacity_1,opacity_2,opacity_3,opacity_4,opacity_5,opacity_6,opacity_7,opacity_8,opacity_9,opacity_10,opacity_11,opacity_12,n_distract,n_items,target_ori,key_resp_4.keys,key_resp_4.rt,key_resp_4.duration,key_resp.keys,key_resp.corr,key_resp.rt,key_resp.duration,key_resp_5.keys,key_resp_5.rt,key_resp_5.duration,blocks.thisRepN,blocks.thisTrialN,blocks.thisN,blocks.thisIndex,practice_trials.thisRepN,practice_trials.thisTrialN,practice_trials.thisN,practice_trials.thisIndex,trials.thisRepN,trials.thisTrialN,trials.thisN,trials.thisIndex,thisRow.t,notes,Welcome.started,WelcomeText.started,key_resp_2.started,Welcome.stopped,key_resp_2.keys,key_resp_2.rt,key_resp_2.duration,InformedConsent.started,text_4.started,InformedConsent.stopped,key_resp_6.keys,key_resp_6.rt,key_resp_6.duration,key_resp_4.started,example_target.started,text_3.started,blocks.key_resp_4.keys,blocks.key_resp_4.rt,blocks.key_resp_4.duration,FixCross.started,fixCross.started,FixCross.stopped,Stimulus.started,key_resp.started,Stimulus.stopped,practice_trials.key_resp.keys,practice_trials.key_resp.corr,practice_trials.key_resp.rt,practice_trials.key_resp.duration,BlankScreen.started,text.started,text.stopped,BlankScreen.stopped,fixCross.stopped,ExperimentStart.started,text_2.started,key_resp_5.started,ExperimentStart.stopped,blocks.key_resp_5.keys,blocks.key_resp_5.rt,blocks.key_resp_5.duration,trials.key_resp.keys,trials.key_resp.corr,trials.key_resp.rt,trials.key_resp.duration,Thanks.started,ThankYou.started,key_resp_3.started,Thanks.stopped,key_resp_3.keys,key_resp_3.rt,key_resp_3.duration,participant,leeftijd,gender,links/rechtshandig,date,expName,expVersion,psychopyVersion,expStart,
,,,,,,,,,,,,,,,,,,,,,,,,,,,,,,,,,,,,,,,,,,,,,,0.03711029999976745,0.05341619999944669,0.05341619999944669,70.5384570999995,space,70.46606119999979,None,,,,,,,,,,,,,,,,,,,,,,,,,,,,,,,,,,,,,,,,,,,,,,825,21,M,R,2026-02-18_12h13.18.923,VisualSearch_2526_3,,2025.2.4,2026-02-18 12h13.19.219004 +0100,
,,,,,,,,,,,,,,,,,,,,,,,,,,,,,,,,,,,,,,,,,,,,,,,,,,,,,70.53863420000016,70.5480220999998,93.90307859999939,y,23.349484800000027,None,,,,,,,,,,,,,,,,,,,,,,,,,,,,,,,,,,,,,,,,825,21,M,R,2026-02-18_12h13.18.923,VisualSearch_2526_3,,2025.2.4,2026-02-18 12h13.19.219004 +0100,
tilted.xlsx,The target is tilted.,117,0,0,0,0,1,1,1,1,1,1,1,0,0,0,0,1,7,8,117,space,12.381166600000142,None,0,1,3.752159599999686,None,,,,0,0,0,0,0,0,0,5,,,,,106.36867480000001,,,,,,,,,,,,,,,93.94990789999974,93.94990789999974,93.94990789999974,space,12.381166600000142,None,106.36277319999954,106.36867480000001,106.84977619999972,106.85491999999977,106.87344589999975,110.63314769999943,0,1,3.752159599999686,None,110.63332879999962,110.64870079999946,110.8487454999995,110.8327462999996,,,,,,,,,,,,,,,,,,,,825,21,M,R,2026-02-18_12h13.18.923,VisualSearch_2526_3,,2025.2.4,2026-02-18 12h13.19.219004 +0100,
tilted.xlsx,The target is tilted.,117,1,1,0,0,0,0,0,0,0,0,0,0,0,0,0,1,1,1,117,space,12.381166600000142,None,0,1,1.892257100000279,None,,,,0,0,0,0,0,1,1,7,,,,,110.8487454999995,,,,,,,,,,,,,,,,,,,,,110.83339710000018,110.8487454999995,111.33267220000016,111.33746470000006,111.35552989999996,113.24935279999954,0,1,1.892257100000279,None,113.2495257999999,113.2649492999999,113.46511800000007,113.4487595999999,111.35552989999996,,,,,,,,,,,,,,,,,,,825,21,M,R,2026-02-18_12h13.18.923,VisualSearch_2526_3,,2025.2.4,2026-02-18 12h13.19.219004 +0100,
tilted.xlsx,The target is tilted.,117,2,2,0,1,0,0,0,0,0,0,0,0,0,0,0,0,0,1,117,space,12.381166600000142,None,1,1,0.9636193000005733,None,,,,0,0,0,0,0,2,2,3,,,,,113.46511800000007,,,,,,,,,,,,,,,,,,,,,113.44944059999943,113.46511800000007,113.9488038999998,113.95374670000001,113.97204049999982,114.94852439999977,1,1,0.9636193000005733,None,114.9487210999996,114.96410399999968,115.16480609999962,115.14843289999953,113.97204049999982,,,,,,,,,,,,,,,,,,,825,21,M,R,2026-02-18_12h13.18.923,VisualSearch_2526_3,,2025.2.4,2026-02-18 12h13.19.219004 +0100,
tilted.xlsx,The target is tilted.,117,3,3,0,0,1,1,1,0,0,0,0,0,0,0,0,1,3,4,117,space,12.381166600000142,None,0,1,0.8715486999999484,None,,,,0,0,0,0,0,3,3,6,,,,,115.16480609999962,,,,,,,,,,,,,,,,,,,,,115.14919310000005,115.16480609999962,115.64866459999939,115.65398629999981,115.67354559999967,116.54870019999998,0,1,0.8715486999999484,None,116.54888829999982,116.56401039999946,116.76475200000004,116.74798229999942,115.67354559999967,,,,,,,,,,,,,,,,,,,825,21,M,R,2026-02-18_12h13.18.923,VisualSearch_2526_3,,2025.2.4,2026-02-18 12h13.19.219004 +0100,
tilted.xlsx,The target is tilted.,117,4,4,0,0,1,1,1,1,1,1,1,1,1,1,1,1,11,12,117,space,12.381166600000142,None,0,1,3.85657910000009,None,,,,0,0,0,0,0,4,4,4,,,,,116.76475200000004,,,,,,,,,,,,,,,,,,,,,116.74866589999965,116.76475200000004,117.24804089999998,117.25322649999998,117.27261289999933,121.1313771999994,0,1,3.85657910000009,None,121.13155099999949,121.14648719999968,121.34699199999977,121.33046659999945,117.27261289999933,,,,,,,,,,,,,,,,,,,825,21,M,R,2026-02-18_12h13.18.923,VisualSearch_2526_3,,2025.2.4,2026-02-18 12h13.19.219004 +0100,
tilted.xlsx,The target is tilted.,117,5,5,0,1,1,1,1,1,1,1,1,1,1,1,1,0,11,12,117,space,12.381166600000142,None,1,1,2.9523426999994626,None,,,,0,0,0,0,0,5,5,0,,,,,121.34699199999977,,,,,,,,,,,,,,,,,,,,,121.3308691000002,121.34699199999977,121.83006639999985,121.8329020000001,121.84670809999989,124.8134344,1,1,2.9523426999994626,None,124.81359619999967,124.82916789999945,125.02978199999961,125.01369019999947,121.84670809999989,,,,,,,,,,,,,,,,,,,825,21,M,R,2026-02-18_12h13.18.923,VisualSearch_2526_3,,2025.2.4,2026-02-18 12h13.19.219004 +0100,
tilted.xlsx,The target is tilted.,117,6,6,0,1,1,1,1,0,0,0,0,0,0,0,0,0,3,4,117,space,12.381166600000142,None,1,1,1.219852300000639,None,,,,0,0,0,0,0,6,6,2,,,,,125.02978199999961,,,,,,,,,,,,,,,,,,,,,125.01434579999932,125.02978199999961,125.5135866999999,125.51815069999975,125.53503889999956,126.76385459999983,1,1,1.219852300000639,None,126.76402989999951,126.77888079999957,126.97937079999974,126.96315950000007,125.53503889999956,,,,,,,,,,,,,,,,,,,825,21,M,R,2026-02-18_12h13.18.923,VisualSearch_2526_3,,2025.2.4,2026-02-18 12h13.19.219004 +0100,
tilted.xlsx,The target is tilted.,117,7,7,0,1,1,1,1,1,1,1,1,0,0,0,0,0,7,8,117,space,12.381166600000142,None,0,0,3.272801800000707,None,,,,0,0,0,0,0,7,7,1,,,,,126.97937079999974,,,,,,,,,,,,,,,,,,,,,126.96386189999976,126.97937079999974,127.46336410000004,127.46802810000008,127.48619619999954,130.7628267,0,0,3.272801800000707,None,130.76300619999984,130.77816040000016,130.9787397,130.96272529999987,127.48619619999954,,,,,,,,,,,,,,,,,,,825,21,M,R,2026-02-18_12h13.18.923,VisualSearch_2526_3,,2025.2.4,2026-02-18 12h13.19.219004 +0100,
tilted.xlsx,The target is tilted.,117,0,0,0,0,1,1,1,1,1,1,1,0,0,0,0,1,7,8,117,space,12.381166600000142,None,0,1,3.5524586999999883,None,space,7.953086599999551,None,0,0,0,0,,,,,0,0,0,5,138.98511619999954,,,,,,,,,,,,,,,,,,,,,138.9810712999997,138.98511619999954,139.46137459999954,139.4675731999996,139.4890605999999,143.04451569999947,,,,,143.04469719999997,143.0594640999998,143.26008790000014,143.24393099999998,,130.9700471999995,130.9787397,130.9787397,138.94558099999995,space,7.953086599999551,None,0,1,3.5524586999999883,None,,,,,,,,825,21,M,R,2026-02-18_12h13.18.923,VisualSearch_2526_3,,2025.2.4,2026-02-18 12h13.19.219004 +0100,
tilted.xlsx,The target is tilted.,117,1,1,0,1,1,1,1,1,1,1,1,1,1,1,1,0,11,12,117,space,12.381166600000142,None,1,1,1.4447352000006504,None,space,7.953086599999551,None,0,0,0,0,,,,,0,1,1,0,143.26008790000014,,,,,,,,,,,,,,,,,,,,,143.24462649999987,143.26008790000014,143.74397729999964,143.74843899999996,143.76510809999945,145.22644069999933,,,,,145.22656339999958,145.24237249999987,,145.42674660000011,143.76510809999945,,,,,,,,1,1,1.4447352000006504,None,,,,,,,,825,21,M,R,2026-02-18_12h13.18.923,VisualSearch_2526_3,,2025.2.4,2026-02-18 12h13.19.219004 +0100,
tilted.xlsx,The target is tilted.,117,2,2,0,0,1,1,1,0,0,0,0,0,0,0,0,1,3,4,117,space,12.381166600000142,None,0,1,1.0941413000000466,None,space,7.953086599999551,None,0,0,0,0,,,,,0,2,2,6,145.44314829999985,,,,,,,,,,,,,,,,,,,,,145.4275207999999,145.44314829999985,145.92686109999977,145.93132549999973,145.9486681999997,147.04390879999937,,,,,147.0441068,147.05887939999957,147.25946119999935,147.24333380000007,145.9486681999997,,,,,,,,0,1,1.0941413000000466,None,,,,,,,,825,21,M,R,2026-02-18_12h13.18.923,VisualSearch_2526_3,,2025.2.4,2026-02-18 12h13.19.219004 +0100,
tilted.xlsx,The target is tilted.,117,3,3,0,0,1,1,1,1,1,1,1,1,1,1,1,1,11,12,117,space,12.381166600000142,None,0,1,4.000719300000128,None,space,7.953086599999551,None,0,0,0,0,,,,,0,3,3,4,147.25946119999935,,,,,,,,,,,,,,,,,,,,,147.24406289999934,147.25946119999935,147.74340849999953,147.74841709999964,147.76718749999964,151.7756701999997,,,,,151.77579759999935,151.79127599999993,151.99193339999965,151.97546030000012,147.76718749999964,,,,,,,,0,1,4.000719300000128,None,,,,,,,,825,21,M,R,2026-02-18_12h13.18.923,VisualSearch_2526_3,,2025.2.4,2026-02-18 12h13.19.219004 +0100,
tilted.xlsx,The target is tilted.,117,4,4,0,1,1,1,1,1,1,1,1,0,0,0,0,0,7,8,117,space,12.381166600000142,None,1,1,1.3086354000006395,None,space,7.953086599999551,None,0,0,0,0,,,,,0,4,4,1,151.99193339999965,,,,,,,,,,,,,,,,,,,,,151.97622020000017,151.99193339999965,152.47604409999985,152.48114420000002,152.49982959999943,153.82499869999992,,,,,153.82512379999935,153.8409855,154.0416486999993,154.02533179999955,152.49982959999943,,,,,,,,1,1,1.3086354000006395,None,,,,,,,,825,21,M,R,2026-02-18_12h13.18.923,VisualSearch_2526_3,,2025.2.4,2026-02-18 12h13.19.219004 +0100,
tilted.xlsx,The target is tilted.,117,5,5,0,1,1,1,1,0,0,0,0,0,0,0,0,0,3,4,117,space,12.381166600000142,None,1,1,1.0690822999995362,None,space,7.953086599999551,None,0,0,0,0,,,,,0,5,5,2,154.0416486999993,,,,,,,,,,,,,,,,,,,,,154.0259817999995,154.0416486999993,154.52514830000018,154.5276146999995,154.54183860000012,155.62546539999948,,,,,155.6255854000001,155.64064849999977,155.84143330000006,155.82525259999966,154.54183860000012,,,,,,,,1,1,1.0690822999995362,None,,,,,,,,825,21,M,R,2026-02-18_12h13.18.923,VisualSearch_2526_3,,2025.2.4,2026-02-18 12h13.19.219004 +0100,
tilted.xlsx,The target is tilted.,117,6,6,0,0,0,0,0,0,0,0,0,0,0,0,0,1,1,1,117,space,12.381166600000142,None,0,1,0.7397053000004234,None,space,7.953086599999551,None,0,0,0,0,,,,,0,6,6,7,155.84143330000006,,,,,,,,,,,,,,,,,,,,,155.82599429999937,155.84143330000006,156.32525600000008,156.33032209999965,156.34859849999975,157.09190549999948,,,,,157.09210129999974,157.10728139999992,157.30740950000018,157.2916852999997,156.34859849999975,,,,,,,,0,1,0.7397053000004234,None,,,,,,,,825,21,M,R,2026-02-18_12h13.18.923,VisualSearch_2526_3,,2025.2.4,2026-02-18 12h13.19.219004 +0100,
tilted.xlsx,The target is tilted.,117,7,7,0,1,0,0,0,0,0,0,0,0,0,0,0,0,0,1,117,space,12.381166600000142,None,1,1,0.7675564999999551,None,space,7.953086599999551,None,0,0,0,0,,,,,0,7,7,3,157.30740950000018,,,,,,,,,,,,,,,,,,,,,157.2923938999993,157.30740950000018,157.79087100000015,157.79355209999994,157.80745990000014,158.5909028999995,,,,,158.59102259999963,158.60681789999944,,158.7911611999998,157.80745990000014,,,,,,,,1,1,0.7675564999999551,None,,,,,,,,825,21,M,R,2026-02-18_12h13.18.923,VisualSearch_2526_3,,2025.2.4,2026-02-18 12h13.19.219004 +0100,
tilted.xlsx,The target is tilted.,117,8,0,1,1,0,0,0,0,0,0,0,0,0,0,0,0,0,1,117,space,12.381166600000142,None,1,1,0.72347979999995,None,space,7.953086599999551,None,0,0,0,0,,,,,1,0,8,3,158.8073101,,,,,,,,,,,,,,,,,,,,,158.79190930000004,158.8073101,159.2911469999999,159.29636299999947,159.31489640000018,160.0417940999996,,,,,160.0419684999997,160.05678519999947,160.2572911999996,160.24111099999936,,,,,,,,,1,1,0.72347979999995,None,,,,,,,,825,21,M,R,2026-02-18_12h13.18.923,VisualSearch_2526_3,,2025.2.4,2026-02-18 12h13.19.219004 +0100,
tilted.xlsx,The target is tilted.,117,9,1,1,0,0,0,0,0,0,0,0,0,0,0,0,1,1,1,117,space,12.381166600000142,None,0,1,0.6720456000002741,None,space,7.953086599999551,None,0,0,0,0,,,,,1,1,9,7,160.2572911999996,,,,,,,,,,,,,,,,,,,,,160.2418616999994,160.2572911999996,160.7412586999999,160.74629509999977,160.76447740000003,161.44129579999935,,,,,161.4414915999996,161.45653289999973,161.65693680000004,161.64045859999987,160.76447740000003,,,,,,,,0,1,0.6720456000002741,None,,,,,,,,825,21,M,R,2026-02-18_12h13.18.923,VisualSearch_2526_3,,2025.2.4,2026-02-18 12h13.19.219004 +0100,
tilted.xlsx,The target is tilted.,117,10,2,1,1,1,1,1,1,1,1,1,1,1,1,1,0,11,12,117,space,12.381166600000142,None,1,1,1.5976396999994904,None,space,7.953086599999551,None,0,0,0,0,,,,,1,2,10,0,161.65693680000004,,,,,,,,,,,,,,,,,,,,,161.64081179999994,161.65693680000004,162.14060770000015,162.1453904,162.16280370000004,163.77336449999984,,,,,163.7734907999993,163.7900482999994,,163.9736229,162.16280370000004,,,,,,,,1,1,1.5976396999994904,None,,,,,,,,825,21,M,R,2026-02-18_12h13.18.923,VisualSearch_2526_3,,2025.2.4,2026-02-18 12h13.19.219004 +0100,
tilted.xlsx,The target is tilted.,117,11,3,1,0,1,1,1,1,1,1,1,1,1,1,1,1,11,12,117,space,12.381166600000142,None,0,1,3.328133200000593,None,space,7.953086599999551,None,0,0,0,0,,,,,1,3,11,4,163.9899790999998,,,,,,,,,,,,,,,,,,,,,163.97436659999948,163.9899790999998,164.47369040000012,164.47821659999954,164.4969704999994,167.83937929999956,,,,,167.83950300000015,167.85532439999952,,168.03964409999935,164.4969704999994,,,,,,,,0,1,3.328133200000593,None,,,,,,,,825,21,M,R,2026-02-18_12h13.18.923,VisualSearch_2526_3,,2025.2.4,2026-02-18 12h13.19.219004 +0100,
tilted.xlsx,The target is tilted.,117,12,4,1,1,1,1,1,0,0,0,0,0,0,0,0,0,3,4,117,space,12.381166600000142,None,1,1,0.6842770000002929,None,space,7.953086599999551,None,0,0,0,0,,,,,1,4,12,2,168.05615750000015,,,,,,,,,,,,,,,,,,,,,168.04041640000014,168.05615750000015,168.53978469999947,168.54441659999975,168.5607513999994,169.25631449999946,,,,,169.2564722999996,169.2718694999994,169.4723802999997,169.45620079999935,168.5607513999994,,,,,,,,1,1,0.6842770000002929,None,,,,,,,,825,21,M,R,2026-02-18_12h13.18.923,VisualSearch_2526_3,,2025.2.4,2026-02-18 12h13.19.219004 +0100,
tilted.xlsx,The target is tilted.,117,13,5,1,1,1,1,1,1,1,1,1,0,0,0,0,0,7,8,117,space,12.381166600000142,None,1,1,1.0786470000002737,None,space,7.953086599999551,None,0,0,0,0,,,,,1,5,13,1,169.4723802999997,,,,,,,,,,,,,,,,,,,,,169.4569262999994,169.4723802999997,169.95637739999984,169.96124950000012,169.9801942999993,171.0725881999997,,,,,171.07279759999983,171.08810559999984,171.28878170000007,171.27268279999953,169.9801942999993,,,,,,,,1,1,1.0786470000002737,None,,,,,,,,825,21,M,R,2026-02-18_12h13.18.923,VisualSearch_2526_3,,2025.2.4,2026-02-18 12h13.19.219004 +0100,
tilted.xlsx,The target is tilted.,117,14,6,1,0,1,1,1,0,0,0,0,0,0,0,0,1,3,4,117,space,12.381166600000142,None,0,1,0.8750926000002437,None,space,7.953086599999551,None,0,0,0,0,,,,,1,6,14,6,171.28878170000007,,,,,,,,,,,,,,,,,,,,,171.27342210000006,171.28878170000007,171.77282149999974,171.7777460999996,171.78856799999994,172.67310149999958,,,,,172.67330330000004,172.68782740000006,172.88852419999967,172.87244949999968,171.78856799999994,,,,,,,,0,1,0.8750926000002437,None,,,,,,,,825,21,M,R,2026-02-18_12h13.18.923,VisualSearch_2526_3,,2025.2.4,2026-02-18 12h13.19.219004 +0100,
tilted.xlsx,The target is tilted.,117,15,7,1,0,1,1,1,1,1,1,1,0,0,0,0,1,7,8,117,space,12.381166600000142,None,0,1,1.9833730000000287,None,space,7.953086599999551,None,0,0,0,0,,,,,1,7,15,5,172.88852419999967,,,,,,,,,,,,,,,,,,,,,172.87316849999934,172.88852419999967,173.37252389999958,173.37777499999993,173.39628999999968,175.38899159999983,,,,,175.3891776999999,175.40422380000018,175.60484009999982,175.58848690000013,173.39628999999968,,,,,,,,0,1,1.9833730000000287,None,,,,,,,,825,21,M,R,2026-02-18_12h13.18.923,VisualSearch_2526_3,,2025.2.4,2026-02-18 12h13.19.219004 +0100,
tilted.xlsx,The target is tilted.,117,16,0,2,0,1,1,1,0,0,0,0,0,0,0,0,1,3,4,117,space,12.381166600000142,None,0,1,0.9281209999999191,None,space,7.953086599999551,None,0,0,0,0,,,,,2,0,16,6,175.60484009999982,,,,,,,,,,,,,,,,,,,,,175.5892858999996,175.60484009999982,176.0884075999993,176.0929473999995,176.11006480000015,177.0544914000002,,,,,177.05461419999938,177.0704550999999,,177.25482680000005,176.11006480000015,,,,,,,,0,1,0.9281209999999191,None,,,,,,,,825,21,M,R,2026-02-18_12h13.18.923,VisualSearch_2526_3,,2025.2.4,2026-02-18 12h13.19.219004 +0100,
tilted.xlsx,The target is tilted.,117,17,1,2,0,0,0,0,0,0,0,0,0,0,0,0,1,1,1,117,space,12.381166600000142,None,0,1,0.5445681999999579,None,space,7.953086599999551,None,0,0,0,0,,,,,2,1,17,7,177.27121799999986,,,,,,,,,,,,,,,,,,,,,177.25560210000003,177.27121799999986,177.75489860000016,177.7600425999999,177.7783918999994,178.33802019999985,,,,,178.33819869999934,178.35374219999994,178.55411860000004,178.5374486999999,,,,,,,,,0,1,0.5445681999999579,None,,,,,,,,825,21,M,R,2026-02-18_12h13.18.923,VisualSearch_2526_3,,2025.2.4,2026-02-18 12h13.19.219004 +0100,
tilted.xlsx,The target is tilted.,117,18,2,2,1,0,0,0,0,0,0,0,0,0,0,0,0,0,1,117,space,12.381166600000142,None,1,1,0.6123961999992389,None,space,7.953086599999551,None,0,0,0,0,,,,,2,2,18,3,178.55411860000004,,,,,,,,,,,,,,,,,,,,,178.53788509999958,178.55411860000004,179.03739549999955,179.04084770000009,179.05462569999963,179.6716411999996,,,,,179.6718394999998,179.68687799999952,179.8874807000002,179.87119509999957,179.05462569999963,,,,,,,,1,1,0.6123961999992389,None,,,,,,,,825,21,M,R,2026-02-18_12h13.18.923,VisualSearch_2526_3,,2025.2.4,2026-02-18 12h13.19.219004 +0100,
tilted.xlsx,The target is tilted.,117,19,3,2,1,1,1,1,1,1,1,1,1,1,1,1,0,11,12,117,space,12.381166600000142,None,1,1,2.0560123999994175,None,space,7.953086599999551,None,0,0,0,0,,,,,2,3,19,0,179.8874807000002,,,,,,,,,,,,,,,,,,,,,179.87195389999943,179.8874807000002,180.3714455999998,180.37670220000018,180.39307449999978,182.45458659999986,,,,,182.45476700000017,182.4695746999996,182.67036000000007,182.6541827000001,180.39307449999978,,,,,,,,1,1,2.0560123999994175,None,,,,,,,,825,21,M,R,2026-02-18_12h13.18.923,VisualSearch_2526_3,,2025.2.4,2026-02-18 12h13.19.219004 +0100,
tilted.xlsx,The target is tilted.,117,20,4,2,0,1,1,1,1,1,1,1,0,0,0,0,1,7,8,117,space,12.381166600000142,None,0,1,1.8501988999996684,None,space,7.953086599999551,None,0,0,0,0,,,,,2,4,20,5,182.67036000000007,,,,,,,,,,,,,,,,,,,,,182.6549101999999,182.67036000000007,183.15414520000013,183.15867199999957,183.17603640000016,185.03679649999958,,,,,185.03692299999966,185.0525130999995,185.2531825999995,185.2370836,183.17603640000016,,,,,,,,0,1,1.8501988999996684,None,,,,,,,,825,21,M,R,2026-02-18_12h13.18.923,VisualSearch_2526_3,,2025.2.4,2026-02-18 12h13.19.219004 +0100,
tilted.xlsx,The target is tilted.,117,21,5,2,1,1,1,1,0,0,0,0,0,0,0,0,0,3,4,117,space,12.381166600000142,None,1,1,0.8563865000005535,None,space,7.953086599999551,None,0,0,0,0,,,,,2,5,21,2,185.2531825999995,,,,,,,,,,,,,,,,,,,,,185.23779659999946,185.2531825999995,185.7371250999995,185.7416908999994,185.75935630000004,186.62074789999951,,,,,186.62094459999935,186.63572479999948,186.83631999999943,186.82011469999998,185.75935630000004,,,,,,,,1,1,0.8563865000005535,None,,,,,,,,825,21,M,R,2026-02-18_12h13.18.923,VisualSearch_2526_3,,2025.2.4,2026-02-18 12h13.19.219004 +0100,
tilted.xlsx,The target is tilted.,117,22,6,2,0,1,1,1,1,1,1,1,1,1,1,1,1,11,12,117,space,12.381166600000142,None,0,1,4.052480800000012,None,space,7.953086599999551,None,0,0,0,0,,,,,2,6,22,4,186.83631999999943,,,,,,,,,,,,,,,,,,,,,186.82085069999994,186.83631999999943,187.32005209999988,187.3245710000001,187.34262839999974,191.4030417999993,,,,,191.40322800000013,191.41823010000007,191.61869729999944,191.60259150000002,187.34262839999974,,,,,,,,0,1,4.052480800000012,None,,,,,,,,825,21,M,R,2026-02-18_12h13.18.923,VisualSearch_2526_3,,2025.2.4,2026-02-18 12h13.19.219004 +0100,
tilted.xlsx,The target is tilted.,117,23,7,2,1,1,1,1,1,1,1,1,0,0,0,0,0,7,8,117,space,12.381166600000142,None,1,1,1.2147526999997353,None,space,7.953086599999551,None,0,0,0,0,,,,,2,7,23,1,191.61869729999944,,,,,,,,,,,,,,,,,,,,,191.60327139999936,191.61869729999944,192.10227589999977,192.10603329999958,192.12297059999946,193.35214579999956,,,,,193.35230969999975,193.36782829999993,193.56841040000018,193.55237789999956,192.12297059999946,,,,,,,,1,1,1.2147526999997353,None,,,,,,,,825,21,M,R,2026-02-18_12h13.18.923,VisualSearch_2526_3,,2025.2.4,2026-02-18 12h13.19.219004 +0100,
tilted.xlsx,The target is tilted.,117,24,0,3,0,1,1,1,1,1,1,1,1,1,1,1,1,11,12,117,space,12.381166600000142,None,0,1,2.4816720999997415,None,space,7.953086599999551,None,0,0,0,0,,,,,3,0,24,4,193.56841040000018,,,,,,,,,,,,,,,,,,,,,193.5530933,193.56841040000018,194.05250569999953,194.05780349999986,194.07663159999993,196.56896489999963,,,,,196.5691812999994,196.58391219999976,196.78453079999963,196.76797290000013,194.07663159999993,,,,,,,,0,1,2.4816720999997415,None,,,,,,,,825,21,M,R,2026-02-18_12h13.18.923,VisualSearch_2526_3,,2025.2.4,2026-02-18 12h13.19.219004 +0100,
tilted.xlsx,The target is tilted.,117,25,1,3,1,1,1,1,1,1,1,1,1,1,1,1,0,11,12,117,space,12.381166600000142,None,1,1,1.4426463999998305,None,space,7.953086599999551,None,0,0,0,0,,,,,3,1,25,0,196.78453079999963,,,,,,,,,,,,,,,,,,,,,196.76870700000018,196.78453079999963,197.26802869999938,197.27255349999996,197.29000769999948,198.73520519999965,,,,,198.73538129999997,198.7502727000001,198.9509551000001,198.93476939999982,197.29000769999948,,,,,,,,1,1,1.4426463999998305,None,,,,,,,,825,21,M,R,2026-02-18_12h13.18.923,VisualSearch_2526_3,,2025.2.4,2026-02-18 12h13.19.219004 +0100,
tilted.xlsx,The target is tilted.,117,26,2,3,1,0,0,0,0,0,0,0,0,0,0,0,0,0,1,117,space,12.381166600000142,None,1,1,0.7716890000001513,None,space,7.953086599999551,None,0,0,0,0,,,,,3,2,26,3,198.9509551000001,,,,,,,,,,,,,,,,,,,,,198.93552249999993,198.9509551000001,199.43492689999948,199.44013129999985,199.45887219999986,200.23440440000013,,,,,200.2345519999999,200.2500855999997,200.45073159999993,200.4346227999995,199.45887219999986,,,,,,,,1,1,0.7716890000001513,None,,,,,,,,825,21,M,R,2026-02-18_12h13.18.923,VisualSearch_2526_3,,2025.2.4,2026-02-18 12h13.19.219004 +0100,
tilted.xlsx,The target is tilted.,117,27,3,3,0,0,0,0,0,0,0,0,0,0,0,0,1,1,1,117,space,12.381166600000142,None,0,1,0.745261400000345,None,space,7.953086599999551,None,0,0,0,0,,,,,3,3,27,7,200.45073159999993,,,,,,,,,,,,,,,,,,,,,200.43533219999972,200.45073159999993,200.9346298999999,200.93931299999986,200.95744579999973,201.71708839999974,,,,,201.71720939999977,201.7329933000001,,201.91737399999965,200.95744579999973,,,,,,,,0,1,0.745261400000345,None,,,,,,,,825,21,M,R,2026-02-18_12h13.18.923,VisualSearch_2526_3,,2025.2.4,2026-02-18 12h13.19.219004 +0100,
tilted.xlsx,The target is tilted.,117,28,4,3,0,1,1,1,0,0,0,0,0,0,0,0,1,3,4,117,space,12.381166600000142,None,0,1,0.777762900000198,None,space,7.953086599999551,None,0,0,0,0,,,,,3,4,28,6,201.93381510000017,,,,,,,,,,,,,,,,,,,,,201.91813939999975,201.93381510000017,202.41738929999974,202.42205120000017,202.44010769999932,203.23396109999976,,,,,203.23415130000012,203.2496296999998,203.44953429999987,203.43365360000007,,,,,,,,,0,1,0.777762900000198,None,,,,,,,,825,21,M,R,2026-02-18_12h13.18.923,VisualSearch_2526_3,,2025.2.4,2026-02-18 12h13.19.219004 +0100,
tilted.xlsx,The target is tilted.,117,29,5,3,0,1,1,1,1,1,1,1,0,0,0,0,1,7,8,117,space,12.381166600000142,None,0,1,4.403941100000338,None,space,7.953086599999551,None,0,0,0,0,,,,,3,5,29,5,203.44953429999987,,,,,,,,,,,,,,,,,,,,,203.43436740000016,203.44953429999987,203.9336131,203.93823809999958,203.95650229999956,208.36652330000015,,,,,208.36668379999992,208.38194169999952,208.58267249999972,208.56639619999987,203.95650229999956,,,,,,,,0,1,4.403941100000338,None,,,,,,,,825,21,M,R,2026-02-18_12h13.18.923,VisualSearch_2526_3,,2025.2.4,2026-02-18 12h13.19.219004 +0100,
tilted.xlsx,The target is tilted.,117,30,6,3,1,1,1,1,1,1,1,1,0,0,0,0,0,7,8,117,space,12.381166600000142,None,1,1,1.9169074999999793,None,space,7.953086599999551,None,0,0,0,0,,,,,3,6,30,1,208.58267249999972,,,,,,,,,,,,,,,,,,,,,208.56713209999998,208.58267249999972,209.06661470000017,209.07118749999972,209.08859369999936,211.01571160000003,,,,,211.01583029999983,211.03160469999966,211.23219299999982,211.2158845999993,209.08859369999936,,,,,,,,1,1,1.9169074999999793,None,,,,,,,,825,21,M,R,2026-02-18_12h13.18.923,VisualSearch_2526_3,,2025.2.4,2026-02-18 12h13.19.219004 +0100,
tilted.xlsx,The target is tilted.,117,31,7,3,1,1,1,1,0,0,0,0,0,0,0,0,0,3,4,117,space,12.381166600000142,None,1,1,1.1665883000005124,None,space,7.953086599999551,None,0,0,0,0,,,,,3,7,31,2,211.23219299999982,,,,,,,,,,,,,,,,,,,,,211.21666000000005,211.23219299999982,211.71570269999938,211.7201901999997,211.7369775999996,212.9163054999999,,,,,212.91648949999944,212.93121960000008,213.13197049999962,213.11578109999937,211.7369775999996,,,,,,,,1,1,1.1665883000005124,None,,,,,,,,825,21,M,R,2026-02-18_12h13.18.923,VisualSearch_2526_3,,2025.2.4,2026-02-18 12h13.19.219004 +0100,
tilted.xlsx,The target is tilted.,117,32,0,4,1,1,1,1,0,0,0,0,0,0,0,0,0,3,4,117,space,12.381166600000142,None,1,1,1.085610799999813,None,space,7.953086599999551,None,0,0,0,0,,,,,4,0,32,2,213.13197049999962,,,,,,,,,,,,,,,,,,,,,213.11650279999958,213.13197049999962,213.61579110000002,213.6208932999998,213.63177029999952,214.7316551999993,,,,,214.7317766999995,214.7475513999998,214.94810629999938,214.93207100000018,213.63177029999952,,,,,,,,1,1,1.085610799999813,None,,,,,,,,825,21,M,R,2026-02-18_12h13.18.923,VisualSearch_2526_3,,2025.2.4,2026-02-18 12h13.19.219004 +0100,
tilted.xlsx,The target is tilted.,117,33,1,4,0,1,1,1,1,1,1,1,1,1,1,1,1,11,12,117,space,12.381166600000142,None,0,1,3.0328606000002765,None,space,7.953086599999551,None,0,0,0,0,,,,,4,1,33,4,214.94810629999938,,,,,,,,,,,,,,,,,,,,,214.93283949999932,214.94810629999938,215.4315343999997,215.43417559999943,215.4480268999996,218.48196049999933,,,,,218.48215829999936,218.49696700000004,218.69747279999956,218.68085710000014,215.4480268999996,,,,,,,,0,1,3.0328606000002765,None,,,,,,,,825,21,M,R,2026-02-18_12h13.18.923,VisualSearch_2526_3,,2025.2.4,2026-02-18 12h13.19.219004 +0100,
tilted.xlsx,The target is tilted.,117,34,2,4,1,1,1,1,1,1,1,1,1,1,1,1,0,11,12,117,space,12.381166600000142,None,1,1,1.8666460000004008,None,space,7.953086599999551,None,0,0,0,0,,,,,4,2,34,0,218.69747279999956,,,,,,,,,,,,,,,,,,,,,218.68129339999996,218.69747279999956,219.1806278999993,219.18336569999974,219.19741639999938,221.0808935999994,,,,,221.08105979999982,221.09662709999975,221.29713529999935,221.28115650000018,219.19741639999938,,,,,,,,1,1,1.8666460000004008,None,,,,,,,,825,21,M,R,2026-02-18_12h13.18.923,VisualSearch_2526_3,,2025.2.4,2026-02-18 12h13.19.219004 +0100,
tilted.xlsx,The target is tilted.,117,35,3,4,0,1,1,1,0,0,0,0,0,0,0,0,1,3,4,117,space,12.381166600000142,None,0,1,0.8791875999995682,None,space,7.953086599999551,None,0,0,0,0,,,,,4,3,35,6,221.29713529999935,,,,,,,,,,,,,,,,,,,,,221.28186779999942,221.29713529999935,221.78099529999963,221.78548429999955,221.8032089999997,222.69744399999945,,,,,222.69763059999968,222.7129871999996,222.9133009999996,222.89718709999943,221.8032089999997,,,,,,,,0,1,0.8791875999995682,None,,,,,,,,825,21,M,R,2026-02-18_12h13.18.923,VisualSearch_2526_3,,2025.2.4,2026-02-18 12h13.19.219004 +0100,
tilted.xlsx,The target is tilted.,117,36,4,4,0,1,1,1,1,1,1,1,0,0,0,0,1,7,8,117,space,12.381166600000142,None,0,1,2.5585203999999067,None,space,7.953086599999551,None,0,0,0,0,,,,,4,4,36,5,222.9133009999996,,,,,,,,,,,,,,,,,,,,,222.89797850000014,222.9133009999996,223.39814539999952,223.40069330000006,223.41298659999939,225.98086289999992,,,,,225.9810536999994,225.9959361000001,226.19647619999978,226.18023119999998,,,,,,,,,0,1,2.5585203999999067,None,,,,,,,,825,21,M,R,2026-02-18_12h13.18.923,VisualSearch_2526_3,,2025.2.4,2026-02-18 12h13.19.219004 +0100,
tilted.xlsx,The target is tilted.,117,37,5,4,0,0,0,0,0,0,0,0,0,0,0,0,1,1,1,117,space,12.381166600000142,None,0,1,0.8092720000004192,None,space,7.953086599999551,None,0,0,0,0,,,,,4,5,37,7,226.19647619999978,,,,,,,,,,,,,,,,,,,,,226.1810743999995,226.19647619999978,226.68034279999938,226.68544999999995,226.70525269999962,227.5299516999994,,,,,227.5301417999999,227.54555879999953,227.74619689999963,227.73003659999995,226.70525269999962,,,,,,,,0,1,0.8092720000004192,None,,,,,,,,825,21,M,R,2026-02-18_12h13.18.923,VisualSearch_2526_3,,2025.2.4,2026-02-18 12h13.19.219004 +0100,
tilted.xlsx,The target is tilted.,117,38,6,4,1,0,0,0,0,0,0,0,0,0,0,0,0,0,1,117,space,12.381166600000142,None,1,1,0.6445674000005965,None,space,7.953086599999551,None,0,0,0,0,,,,,4,6,38,3,227.74619689999963,,,,,,,,,,,,,,,,,,,,,227.73116990000017,227.74619689999963,228.23001919999933,228.2345862000002,228.25211330000002,228.9130080999994,,,,,228.91316989999996,228.92869819999942,229.12921929999993,229.1130323999996,228.25211330000002,,,,,,,,1,1,0.6445674000005965,None,,,,,,,,825,21,M,R,2026-02-18_12h13.18.923,VisualSearch_2526_3,,2025.2.4,2026-02-18 12h13.19.219004 +0100,
tilted.xlsx,The target is tilted.,117,39,7,4,1,1,1,1,1,1,1,1,0,0,0,0,0,7,8,117,space,12.381166600000142,None,1,1,2.119999900000039,None,space,7.953086599999551,None,0,0,0,0,,,,,4,7,39,1,229.12921929999993,,,,,,,,,,,,,,,,,,,,,229.11375700000008,229.12921929999993,229.6131102999998,229.61765379999997,229.63548660000015,231.76322470000014,,,,,231.76340429999982,231.77811519999977,231.97879159999957,231.9626787999996,229.63548660000015,,,,,,,,1,1,2.119999900000039,None,,,,,,,,825,21,M,R,2026-02-18_12h13.18.923,VisualSearch_2526_3,,2025.2.4,2026-02-18 12h13.19.219004 +0100,
tilted.xlsx,The target is tilted.,117,40,0,5,1,1,1,1,1,1,1,1,1,1,1,1,0,11,12,117,space,12.381166600000142,None,1,1,0.9672960000007151,None,space,7.953086599999551,None,0,0,0,0,,,,,5,0,40,0,231.97879159999957,,,,,,,,,,,,,,,,,,,,,231.96340099999998,231.97879159999957,232.4626404999999,232.46710379999968,232.4854104999995,233.46294969999963,,,,,233.46312750000016,233.47793759999968,233.67840439999964,233.66231629999947,232.4854104999995,,,,,,,,1,1,0.9672960000007151,None,,,,,,,,825,21,M,R,2026-02-18_12h13.18.923,VisualSearch_2526_3,,2025.2.4,2026-02-18 12h13.19.219004 +0100,
tilted.xlsx,The target is tilted.,117,41,1,5,1,1,1,1,0,0,0,0,0,0,0,0,0,3,4,117,space,12.381166600000142,None,1,1,1.0290471999996953,None,space,7.953086599999551,None,0,0,0,0,,,,,5,1,41,2,233.67840439999964,,,,,,,,,,,,,,,,,,,,,233.66306339999937,233.67840439999964,234.16249049999988,234.16765329999998,234.1866788999996,235.22823569999946,,,,,235.2283550000002,235.24416819999988,235.44504830000005,235.42858129999968,234.1866788999996,,,,,,,,1,1,1.0290471999996953,None,,,,,,,,825,21,M,R,2026-02-18_12h13.18.923,VisualSearch_2526_3,,2025.2.4,2026-02-18 12h13.19.219004 +0100,
tilted.xlsx,The target is tilted.,117,42,2,5,0,1,1,1,0,0,0,0,0,0,0,0,1,3,4,117,space,12.381166600000142,None,0,1,1.2602827000000616,None,space,7.953086599999551,None,0,0,0,0,,,,,5,2,42,6,235.44504830000005,,,,,,,,,,,,,,,,,,,,,235.42932259999998,235.44504830000005,235.92850540000018,235.93368719999944,235.9518322999993,237.22831359999964,,,,,237.2285167,237.2439814999998,237.44454679999944,237.4280132999993,,,,,,,,,0,1,1.2602827000000616,None,,,,,,,,825,21,M,R,2026-02-18_12h13.18.923,VisualSearch_2526_3,,2025.2.4,2026-02-18 12h13.19.219004 +0100,
tilted.xlsx,The target is tilted.,117,43,3,5,1,0,0,0,0,0,0,0,0,0,0,0,0,0,1,117,space,12.381166600000142,None,1,1,0.6215965000001233,None,space,7.953086599999551,None,0,0,0,0,,,,,5,3,43,3,237.44454679999944,,,,,,,,,,,,,,,,,,,,,237.4284835999997,237.44454679999944,237.92813380000007,237.93348779999997,237.95215029999963,238.57881999999972,,,,,238.5790137999993,238.5938073999996,238.7939698,238.77790039999945,237.95215029999963,,,,,,,,1,1,0.6215965000001233,None,,,,,,,,825,21,M,R,2026-02-18_12h13.18.923,VisualSearch_2526_3,,2025.2.4,2026-02-18 12h13.19.219004 +0100,
tilted.xlsx,The target is tilted.,117,44,4,5,1,1,1,1,1,1,1,1,0,0,0,0,0,7,8,117,space,12.381166600000142,None,1,1,1.9378851000001305,None,space,7.953086599999551,None,0,0,0,0,,,,,5,4,44,1,238.7939698,,,,,,,,,,,,,,,,,,,,,238.7786372999999,238.7939698,239.27783829999953,239.28284629999962,239.3009622999998,241.24504309999975,,,,,241.2452373999995,241.26002030000018,241.46038859999953,241.4440681999995,239.3009622999998,,,,,,,,1,1,1.9378851000001305,None,,,,,,,,825,21,M,R,2026-02-18_12h13.18.923,VisualSearch_2526_3,,2025.2.4,2026-02-18 12h13.19.219004 +0100,
tilted.xlsx,The target is tilted.,117,45,5,5,0,1,1,1,1,1,1,1,1,1,1,1,1,11,12,117,space,12.381166600000142,None,0,1,3.764027399999577,None,space,7.953086599999551,None,0,0,0,0,,,,,5,5,45,4,241.46038859999953,,,,,,,,,,,,,,,,,,,,,241.4447881999995,241.46038859999953,241.94460160000017,241.9495922999995,241.96770959999958,245.74421339999935,,,,,245.74438659999942,245.7592536000002,245.95980119999967,245.94362569999976,241.96770959999958,,,,,,,,0,1,3.764027399999577,None,,,,,,,,825,21,M,R,2026-02-18_12h13.18.923,VisualSearch_2526_3,,2025.2.4,2026-02-18 12h13.19.219004 +0100,
tilted.xlsx,The target is tilted.,117,46,6,5,0,0,0,0,0,0,0,0,0,0,0,0,1,1,1,117,space,12.381166600000142,None,0,1,0.575812400000359,None,space,7.953086599999551,None,0,0,0,0,,,,,5,6,46,7,245.95980119999967,,,,,,,,,,,,,,,,,,,,,245.94430469999952,245.95980119999967,246.4427612999998,246.44549670000015,246.45914939999966,247.04392240000016,,,,,247.04409729999952,247.05909579999934,247.25961009999992,247.24345790000007,246.45914939999966,,,,,,,,0,1,0.575812400000359,None,,,,,,,,825,21,M,R,2026-02-18_12h13.18.923,VisualSearch_2526_3,,2025.2.4,2026-02-18 12h13.19.219004 +0100,
tilted.xlsx,The target is tilted.,117,47,7,5,0,1,1,1,1,1,1,1,0,0,0,0,1,7,8,117,space,12.381166600000142,None,0,1,2.3436663000002227,None,space,7.953086599999551,None,0,0,0,0,,,,,5,7,47,5,247.25961009999992,,,,,,,,,,,,,,,,,,,,,247.24424409999938,247.25961009999992,247.74338529999932,247.74786359999962,247.7649296999998,250.11015809999935,,,,,250.11033719999978,250.1252144,250.32565619999968,250.30947060000017,247.7649296999998,,,,,,,,0,1,2.3436663000002227,None,,,,,,,,825,21,M,R,2026-02-18_12h13.18.923,VisualSearch_2526_3,,2025.2.4,2026-02-18 12h13.19.219004 +0100,
tilted.xlsx,The target is tilted.,117,48,0,6,1,1,1,1,0,0,0,0,0,0,0,0,0,3,4,117,space,12.381166600000142,None,1,1,1.2958151000002545,None,space,7.953086599999551,None,0,0,0,0,,,,,6,0,48,2,250.32565619999968,,,,,,,,,,,,,,,,,,,,,250.3101489999999,250.32565619999968,250.8091472999995,250.81198049999966,250.8264220000001,252.1261069000002,,,,,252.12628289999975,252.14152659999945,252.34215479999966,252.32588619999933,250.8264220000001,,,,,,,,1,1,1.2958151000002545,None,,,,,,,,825,21,M,R,2026-02-18_12h13.18.923,VisualSearch_2526_3,,2025.2.4,2026-02-18 12h13.19.219004 +0100,
tilted.xlsx,The target is tilted.,117,49,1,6,1,0,0,0,0,0,0,0,0,0,0,0,0,0,1,117,space,12.381166600000142,None,1,1,0.636271399999714,None,space,7.953086599999551,None,0,0,0,0,,,,,6,1,49,3,252.34215479999966,,,,,,,,,,,,,,,,,,,,,252.3266364000001,252.34215479999966,252.82597129999976,252.83042620000015,252.8421103999999,253.49254349999956,,,,,253.49272800000017,253.5080328999993,253.70847219999996,253.69245599999977,252.8421103999999,,,,,,,,1,1,0.636271399999714,None,,,,,,,,825,21,M,R,2026-02-18_12h13.18.923,VisualSearch_2526_3,,2025.2.4,2026-02-18 12h13.19.219004 +0100,
tilted.xlsx,The target is tilted.,117,50,2,6,0,1,1,1,0,0,0,0,0,0,0,0,1,3,4,117,space,12.381166600000142,None,0,1,1.972385199999735,None,space,7.953086599999551,None,0,0,0,0,,,,,6,2,50,6,253.70847219999996,,,,,,,,,,,,,,,,,,,,,253.69317330000013,253.70847219999996,254.19249059999947,254.19699059999948,254.2118703999995,256.19263219999993,,,,,256.1928264999997,256.2076109999998,256.40802019999956,256.3920500999993,254.2118703999995,,,,,,,,0,1,1.972385199999735,None,,,,,,,,825,21,M,R,2026-02-18_12h13.18.923,VisualSearch_2526_3,,2025.2.4,2026-02-18 12h13.19.219004 +0100,
tilted.xlsx,The target is tilted.,117,51,3,6,1,1,1,1,1,1,1,1,0,0,0,0,0,7,8,117,space,12.381166600000142,None,1,1,1.7552498000004562,None,space,7.953086599999551,None,0,0,0,0,,,,,6,3,51,1,256.40802019999956,,,,,,,,,,,,,,,,,,,,,256.39276209999935,256.40802019999956,256.89157389999946,256.8962426999997,256.9139587999998,258.6752187000002,,,,,258.6754145999994,258.6905283999995,258.89106319999973,258.87499019999996,256.9139587999998,,,,,,,,1,1,1.7552498000004562,None,,,,,,,,825,21,M,R,2026-02-18_12h13.18.923,VisualSearch_2526_3,,2025.2.4,2026-02-18 12h13.19.219004 +0100,
tilted.xlsx,The target is tilted.,117,52,4,6,1,1,1,1,1,1,1,1,1,1,1,1,0,11,12,117,space,12.381166600000142,None,1,1,0.9747543000003134,None,space,7.953086599999551,None,0,0,0,0,,,,,6,4,52,0,258.89106319999973,,,,,,,,,,,,,,,,,,,,,258.8757022,258.89106319999973,259.37502249999943,259.3799528999998,259.39806020000015,260.3751715999997,,,,,260.37589899999966,260.39022750000004,260.5905640000001,260.5738486,259.39806020000015,,,,,,,,1,1,0.9747543000003134,None,,,,,,,,825,21,M,R,2026-02-18_12h13.18.923,VisualSearch_2526_3,,2025.2.4,2026-02-18 12h13.19.219004 +0100,
tilted.xlsx,The target is tilted.,117,53,5,6,0,0,0,0,0,0,0,0,0,0,0,0,1,1,1,117,space,12.381166600000142,None,0,1,0.7075635000001057,None,space,7.953086599999551,None,0,0,0,0,,,,,6,5,53,7,260.5905640000001,,,,,,,,,,,,,,,,,,,,,260.57430039999963,260.5905640000001,261.0745118999994,261.0789724999995,261.09649679999984,261.80808549999983,,,,,261.80828219999967,261.8233236999995,262.02392599999985,262.00763370000004,261.09649679999984,,,,,,,,0,1,0.7075635000001057,None,,,,,,,,825,21,M,R,2026-02-18_12h13.18.923,VisualSearch_2526_3,,2025.2.4,2026-02-18 12h13.19.219004 +0100,
tilted.xlsx,The target is tilted.,117,54,6,6,0,1,1,1,1,1,1,1,0,0,0,0,1,7,8,117,space,12.381166600000142,None,0,1,1.9023717999998553,None,space,7.953086599999551,None,0,0,0,0,,,,,6,6,54,5,262.02392599999985,,,,,,,,,,,,,,,,,,,,,262.00839989999986,262.02392599999985,262.50771729999997,262.5128580999999,262.53148019999935,264.4411848999998,,,,,264.4413835999994,264.4562544999999,264.65651530000014,264.64061909999964,262.53148019999935,,,,,,,,0,1,1.9023717999998553,None,,,,,,,,825,21,M,R,2026-02-18_12h13.18.923,VisualSearch_2526_3,,2025.2.4,2026-02-18 12h13.19.219004 +0100,
tilted.xlsx,The target is tilted.,117,55,7,6,0,1,1,1,1,1,1,1,1,1,1,1,1,11,12,117,space,12.381166600000142,None,0,1,3.288078999999925,None,space,7.953086599999551,None,0,0,0,0,,,,,6,7,55,4,264.65651530000014,,,,,,,,,,,,,,,,,,,,,264.64134639999975,264.65651530000014,265.14064059999964,265.14566019999984,265.1594266000002,268.45716339999944,,,,,268.45733930000006,268.47205099999974,268.67255529999966,268.65678389999994,265.1594266000002,,,,,,,,0,1,3.288078999999925,None,,,,,,,,825,21,M,R,2026-02-18_12h13.18.923,VisualSearch_2526_3,,2025.2.4,2026-02-18 12h13.19.219004 +0100,
tilted.xlsx,The target is tilted.,117,56,0,7,1,1,1,1,0,0,0,0,0,0,0,0,0,3,4,117,space,12.381166600000142,None,1,1,0.7044710000000123,None,space,7.953086599999551,None,0,0,0,0,,,,,7,0,56,2,268.67255529999966,,,,,,,,,,,,,,,,,,,,,268.65752539999994,268.67255529999966,269.15661850000015,269.16137119999985,269.1794534999999,269.8902143999994,,,,,269.89038809999965,269.9051905999995,270.10592910000014,270.0895934,269.1794534999999,,,,,,,,1,1,0.7044710000000123,None,,,,,,,,825,21,M,R,2026-02-18_12h13.18.923,VisualSearch_2526_3,,2025.2.4,2026-02-18 12h13.19.219004 +0100,
tilted.xlsx,The target is tilted.,117,57,1,7,1,1,1,1,1,1,1,1,1,1,1,1,0,11,12,117,space,12.381166600000142,None,1,1,1.0788457999997263,None,space,7.953086599999551,None,0,0,0,0,,,,,7,1,57,0,270.10592910000014,,,,,,,,,,,,,,,,,,,,,270.0904082999996,270.10592910000014,270.5897624999998,270.5944743,270.61273470000015,271.7059572999997,,,,,271.7061281999995,271.72161139999935,271.9216687999997,271.9060773000001,270.61273470000015,,,,,,,,1,1,1.0788457999997263,None,,,,,,,,825,21,M,R,2026-02-18_12h13.18.923,VisualSearch_2526_3,,2025.2.4,2026-02-18 12h13.19.219004 +0100,
tilted.xlsx,The target is tilted.,117,58,2,7,0,0,0,0,0,0,0,0,0,0,0,0,1,1,1,117,space,12.381166600000142,None,0,1,0.5508214999999836,None,space,7.953086599999551,None,0,0,0,0,,,,,7,2,58,7,271.9216687999997,,,,,,,,,,,,,,,,,,,,,271.90681080000013,271.9216687999997,272.40607869999985,272.4105407999996,272.42839229999936,272.9889929000001,,,,,272.98911679999947,273.00471149999976,273.2053957999997,273.1891359000001,272.42839229999936,,,,,,,,0,1,0.5508214999999836,None,,,,,,,,825,21,M,R,2026-02-18_12h13.18.923,VisualSearch_2526_3,,2025.2.4,2026-02-18 12h13.19.219004 +0100,
tilted.xlsx,The target is tilted.,117,59,3,7,1,0,0,0,0,0,0,0,0,0,0,0,0,0,1,117,space,12.381166600000142,None,1,1,0.5490626999999222,None,space,7.953086599999551,None,0,0,0,0,,,,,7,3,59,3,273.2053957999997,,,,,,,,,,,,,,,,,,,,,273.18988869999976,273.2053957999997,273.68874439999945,273.6933613000001,273.7120471999997,274.27300899999955,,,,,274.2732056999994,274.2878646999998,274.4883854999998,274.47235459999956,273.7120471999997,,,,,,,,1,1,0.5490626999999222,None,,,,,,,,825,21,M,R,2026-02-18_12h13.18.923,VisualSearch_2526_3,,2025.2.4,2026-02-18 12h13.19.219004 +0100,
tilted.xlsx,The target is tilted.,117,60,4,7,0,1,1,1,1,1,1,1,0,0,0,0,1,7,8,117,space,12.381166600000142,None,0,1,1.7346710000001622,None,space,7.953086599999551,None,0,0,0,0,,,,,7,4,60,5,274.4883854999998,,,,,,,,,,,,,,,,,,,,,274.47306990000016,274.4883854999998,274.9724151999999,274.97718369999984,274.9884044999999,276.7383018999999,,,,,276.7384235999998,276.75404939999953,276.95484359999955,276.93841900000007,274.9884044999999,,,,,,,,0,1,1.7346710000001622,None,,,,,,,,825,21,M,R,2026-02-18_12h13.18.923,VisualSearch_2526_3,,2025.2.4,2026-02-18 12h13.19.219004 +0100,
tilted.xlsx,The target is tilted.,117,61,5,7,1,1,1,1,1,1,1,1,0,0,0,0,0,7,8,117,space,12.381166600000142,None,1,1,1.1384946999996828,None,space,7.953086599999551,None,0,0,0,0,,,,,7,5,61,1,276.95484359999955,,,,,,,,,,,,,,,,,,,,,276.9391469000002,276.95484359999955,277.43845950000014,277.44302809999954,277.4546733999996,278.6055545999998,,,,,278.6057310999995,278.62031789999946,278.82113839999965,278.8049486,277.4546733999996,,,,,,,,1,1,1.1384946999996828,None,,,,,,,,825,21,M,R,2026-02-18_12h13.18.923,VisualSearch_2526_3,,2025.2.4,2026-02-18 12h13.19.219004 +0100,
tilted.xlsx,The target is tilted.,117,62,6,7,0,1,1,1,1,1,1,1,1,1,1,1,1,11,12,117,space,12.381166600000142,None,0,1,2.716591200000039,None,space,7.953086599999551,None,0,0,0,0,,,,,7,6,62,4,278.82113839999965,,,,,,,,,,,,,,,,,,,,,278.80570069999976,278.82113839999965,279.30501899999945,279.3101702999993,279.32821950000016,282.05489959999977,,,,,282.0550717999995,282.06994269999996,282.2699634999999,282.2539207,279.32821950000016,,,,,,,,0,1,2.716591200000039,None,,,,,,,,825,21,M,R,2026-02-18_12h13.18.923,VisualSearch_2526_3,,2025.2.4,2026-02-18 12h13.19.219004 +0100,
tilted.xlsx,The target is tilted.,117,63,7,7,0,1,1,1,0,0,0,0,0,0,0,0,1,3,4,117,space,12.381166600000142,None,0,1,1.1244205000002694,None,space,7.953086599999551,None,0,0,0,0,,,,,7,7,63,6,282.2699634999999,,,,,,,,,,,,,,,,,,,,,282.2546732999999,282.2699634999999,282.75422439999966,282.75876489999973,282.77561030000015,283.90368209999997,,,,,283.9037942999994,283.9194927999997,284.1198291999999,284.1038834000001,282.77561030000015,,,,,,,,0,1,1.1244205000002694,None,,,,,,,,825,21,M,R,2026-02-18_12h13.18.923,VisualSearch_2526_3,,2025.2.4,2026-02-18 12h13.19.219004 +0100,
tilted.xlsx,The target is tilted.,117,64,0,8,0,1,1,1,1,1,1,1,1,1,1,1,1,11,12,117,space,12.381166600000142,None,0,1,2.4101541999998517,None,space,7.953086599999551,None,0,0,0,0,,,,,8,0,64,4,284.1198291999999,,,,,,,,,,,,,,,,,,,,,284.10461159999977,284.1198291999999,284.60393380000005,284.6085191000002,284.62672419999944,287.05343319999974,,,,,287.0536140999993,287.06905559999996,287.26969499999996,287.2535563000001,284.62672419999944,,,,,,,,0,1,2.4101541999998517,None,,,,,,,,825,21,M,R,2026-02-18_12h13.18.923,VisualSearch_2526_3,,2025.2.4,2026-02-18 12h13.19.219004 +0100,
tilted.xlsx,The target is tilted.,117,65,1,8,1,1,1,1,1,1,1,1,0,0,0,0,0,7,8,117,space,12.381166600000142,None,1,1,2.860850600000049,None,space,7.953086599999551,None,0,0,0,0,,,,,8,1,65,1,287.26969499999996,,,,,,,,,,,,,,,,,,,,,287.2543018999995,287.26969499999996,287.75318229999993,287.75720959999944,287.7726527999994,290.6369227999994,,,,,290.63710170000013,290.65195069999936,290.8520177999999,290.83627089999936,287.7726527999994,,,,,,,,1,1,2.860850600000049,None,,,,,,,,825,21,M,R,2026-02-18_12h13.18.923,VisualSearch_2526_3,,2025.2.4,2026-02-18 12h13.19.219004 +0100,
tilted.xlsx,The target is tilted.,117,66,2,8,0,1,1,1,1,1,1,1,0,0,0,0,1,7,8,117,space,12.381166600000142,None,0,1,2.26329159999932,None,space,7.953086599999551,None,0,0,0,0,,,,,8,2,66,5,290.8520177999999,,,,,,,,,,,,,,,,,,,,,290.8370273999999,290.8520177999999,291.33622899999955,291.34076060000007,291.3575129999999,293.63523389999955,,,,,293.6353551000002,293.65115349999996,293.8519268,293.8356440999996,291.3575129999999,,,,,,,,0,1,2.26329159999932,None,,,,,,,,825,21,M,R,2026-02-18_12h13.18.923,VisualSearch_2526_3,,2025.2.4,2026-02-18 12h13.19.219004 +0100,
tilted.xlsx,The target is tilted.,117,67,3,8,1,0,0,0,0,0,0,0,0,0,0,0,0,0,1,117,space,12.381166600000142,None,1,1,0.6439692999992985,None,space,7.953086599999551,None,0,0,0,0,,,,,8,3,67,3,293.8519268,,,,,,,,,,,,,,,,,,,,,293.8363884999999,293.8519268,294.3354515000001,294.3400299999994,294.3578324,295.00288399999954,,,,,295.0030753000001,295.01779069999975,295.2178727999999,295.20178880000003,,,,,,,,,1,1,0.6439692999992985,None,,,,,,,,825,21,M,R,2026-02-18_12h13.18.923,VisualSearch_2526_3,,2025.2.4,2026-02-18 12h13.19.219004 +0100,
tilted.xlsx,The target is tilted.,117,68,4,8,1,1,1,1,0,0,0,0,0,0,0,0,0,3,4,117,space,12.381166600000142,None,1,1,1.2368685999999798,None,space,7.953086599999551,None,0,0,0,0,,,,,8,4,68,2,295.2178727999999,,,,,,,,,,,,,,,,,,,,,295.2024971000001,295.2178727999999,295.70239559999936,295.7074603000001,295.72640779999983,296.9691407999999,,,,,296.9693454999997,296.98401509999985,297.18472999999994,297.1684693999996,295.72640779999983,,,,,,,,1,1,1.2368685999999798,None,,,,,,,,825,21,M,R,2026-02-18_12h13.18.923,VisualSearch_2526_3,,2025.2.4,2026-02-18 12h13.19.219004 +0100,
tilted.xlsx,The target is tilted.,117,69,5,8,0,0,0,0,0,0,0,0,0,0,0,0,1,1,1,117,space,12.381166600000142,None,0,1,0.5930453000000853,None,space,7.953086599999551,None,0,0,0,0,,,,,8,5,69,7,297.18472999999994,,,,,,,,,,,,,,,,,,,,,297.16921189999994,297.18472999999994,297.66827999999987,297.67349659999945,297.6920756999998,298.3021044999996,,,,,298.30227729999933,298.3172794000002,298.5173084999997,298.5012907,297.6920756999998,,,,,,,,0,1,0.5930453000000853,None,,,,,,,,825,21,M,R,2026-02-18_12h13.18.923,VisualSearch_2526_3,,2025.2.4,2026-02-18 12h13.19.219004 +0100,
tilted.xlsx,The target is tilted.,117,70,6,8,1,1,1,1,1,1,1,1,1,1,1,1,0,11,12,117,space,12.381166600000142,None,1,1,1.1275243000000046,None,space,7.953086599999551,None,0,0,0,0,,,,,8,6,70,0,298.5173084999997,,,,,,,,,,,,,,,,,,,,,298.50174479999987,298.5173084999997,299.00128029999996,299.00600940000004,299.0254936000001,300.1680185999994,,,,,300.16821919999984,300.1834275000001,300.38382829999955,300.36781919999976,299.0254936000001,,,,,,,,1,1,1.1275243000000046,None,,,,,,,,825,21,M,R,2026-02-18_12h13.18.923,VisualSearch_2526_3,,2025.2.4,2026-02-18 12h13.19.219004 +0100,
tilted.xlsx,The target is tilted.,117,71,7,8,0,1,1,1,0,0,0,0,0,0,0,0,1,3,4,117,space,12.381166600000142,None,0,1,0.8370330000007016,None,space,7.953086599999551,None,0,0,0,0,,,,,8,7,71,6,300.38382829999955,,,,,,,,,,,,,,,,,,,,,300.3685367999997,300.38382829999955,300.86785280000004,300.87244869999995,300.89408169999933,301.7342082999994,,,,,301.7343271999998,301.7499794999994,301.9505245999999,301.93431989999954,300.89408169999933,,,,,,,,0,1,0.8370330000007016,None,,,,,,,,825,21,M,R,2026-02-18_12h13.18.923,VisualSearch_2526_3,,2025.2.4,2026-02-18 12h13.19.219004 +0100,
tilted.xlsx,The target is tilted.,117,72,0,9,1,1,1,1,1,1,1,1,0,0,0,0,0,7,8,117,space,12.381166600000142,None,1,1,2.516276100000141,None,space,7.953086599999551,None,0,0,0,0,,,,,9,0,72,1,301.9505245999999,,,,,,,,,,,,,,,,,,,,,301.9350691999998,301.9505245999999,302.4345032000001,302.4388986999993,302.45651929999985,304.9835495999996,,,,,304.98367849999977,304.9993508999996,305.1995287999998,305.1839009999994,302.45651929999985,,,,,,,,1,1,2.516276100000141,None,,,,,,,,825,21,M,R,2026-02-18_12h13.18.923,VisualSearch_2526_3,,2025.2.4,2026-02-18 12h13.19.219004 +0100,
tilted.xlsx,The target is tilted.,117,73,1,9,0,1,1,1,0,0,0,0,0,0,0,0,1,3,4,117,space,12.381166600000142,None,0,1,1.0093909999995958,None,space,7.953086599999551,None,0,0,0,0,,,,,9,1,73,6,305.1995287999998,,,,,,,,,,,,,,,,,,,,,305.1846740000001,305.1995287999998,305.6837409999998,305.6882101000001,305.7058161999994,306.7171591999995,,,,,306.7173309,306.7325278999997,306.9331345999999,306.9170519999998,305.7058161999994,,,,,,,,0,1,1.0093909999995958,None,,,,,,,,825,21,M,R,2026-02-18_12h13.18.923,VisualSearch_2526_3,,2025.2.4,2026-02-18 12h13.19.219004 +0100,
tilted.xlsx,The target is tilted.,117,74,2,9,0,1,1,1,1,1,1,1,0,0,0,0,1,7,8,117,space,12.381166600000142,None,0,1,2.3602192999996987,None,space,7.953086599999551,None,0,0,0,0,,,,,9,2,74,5,306.9331345999999,,,,,,,,,,,,,,,,,,,,,306.91775719999987,306.9331345999999,307.41688129999966,307.4213086999998,307.4386777999998,309.80048739999984,,,,,309.8006648999999,309.8151978999995,310.0159496999995,309.9997102999996,307.4386777999998,,,,,,,,0,1,2.3602192999996987,None,,,,,,,,825,21,M,R,2026-02-18_12h13.18.923,VisualSearch_2526_3,,2025.2.4,2026-02-18 12h13.19.219004 +0100,
tilted.xlsx,The target is tilted.,117,75,3,9,0,1,1,1,1,1,1,1,1,1,1,1,1,11,12,117,space,12.381166600000142,None,0,1,3.0802991999998994,None,space,7.953086599999551,None,0,0,0,0,,,,,9,3,75,4,310.0159496999995,,,,,,,,,,,,,,,,,,,,,310.0004687999999,310.0159496999995,310.49960909999936,310.50405319999936,310.5160070000002,313.59966540000005,,,,,313.5998432999995,313.6146577999998,313.8153693999993,313.7990417000001,310.5160070000002,,,,,,,,0,1,3.0802991999998994,None,,,,,,,,825,21,M,R,2026-02-18_12h13.18.923,VisualSearch_2526_3,,2025.2.4,2026-02-18 12h13.19.219004 +0100,
tilted.xlsx,The target is tilted.,117,76,4,9,0,0,0,0,0,0,0,0,0,0,0,0,1,1,1,117,space,12.381166600000142,None,0,1,0.6853571999999986,None,space,7.953086599999551,None,0,0,0,0,,,,,9,4,76,7,313.8153693999993,,,,,,,,,,,,,,,,,,,,,313.79979749999984,313.8153693999993,314.29870909999954,314.3032095999997,314.32068040000013,315.0162485000001,,,,,315.0164385999997,315.03120429999944,315.2317605999997,315.2154516999999,314.32068040000013,,,,,,,,0,1,0.6853571999999986,None,,,,,,,,825,21,M,R,2026-02-18_12h13.18.923,VisualSearch_2526_3,,2025.2.4,2026-02-18 12h13.19.219004 +0100,
tilted.xlsx,The target is tilted.,117,77,5,9,1,1,1,1,0,0,0,0,0,0,0,0,0,3,4,117,space,12.381166600000142,None,1,1,0.8661781000000701,None,space,7.953086599999551,None,0,0,0,0,,,,,9,5,77,2,315.2317605999997,,,,,,,,,,,,,,,,,,,,,315.21619980000014,315.2317605999997,315.7157679000002,315.72026839999944,315.73169719999987,316.59886499999993,,,,,316.5990565000002,316.61432439999953,316.8149883999995,316.7987486000002,315.73169719999987,,,,,,,,1,1,0.8661781000000701,None,,,,,,,,825,21,M,R,2026-02-18_12h13.18.923,VisualSearch_2526_3,,2025.2.4,2026-02-18 12h13.19.219004 +0100,
tilted.xlsx,The target is tilted.,117,78,6,9,1,0,0,0,0,0,0,0,0,0,0,0,0,0,1,117,space,12.381166600000142,None,1,1,0.5537139999996725,None,space,7.953086599999551,None,0,0,0,0,,,,,9,6,78,3,316.8149883999995,,,,,,,,,,,,,,,,,,,,,316.79957529999956,316.8149883999995,317.2984067999996,317.30345209999996,317.3228197999997,317.88245279999956,,,,,317.88264309999977,317.8974565999997,318.0975613999999,318.08181479999985,317.3228197999997,,,,,,,,1,1,0.5537139999996725,None,,,,,,,,825,21,M,R,2026-02-18_12h13.18.923,VisualSearch_2526_3,,2025.2.4,2026-02-18 12h13.19.219004 +0100,
tilted.xlsx,The target is tilted.,117,79,7,9,1,1,1,1,1,1,1,1,1,1,1,1,0,11,12,117,space,12.381166600000142,None,1,1,2.105438000000504,None,space,7.953086599999551,None,0,0,0,0,,,,,9,7,79,0,318.0975613999999,,,,,,,,,,,,,,,,,,,,,318.0825208999995,318.0975613999999,318.58094699999947,318.58358659999976,318.5973077999997,320.7148213999999,,,,,320.71499570000015,320.73016860000007,320.9307412999997,320.91477510000004,318.5973077999997,,,,,,,,1,1,2.105438000000504,None,,,,,,,,825,21,M,R,2026-02-18_12h13.18.923,VisualSearch_2526_3,,2025.2.4,2026-02-18 12h13.19.219004 +0100,
tilted.xlsx,The target is tilted.,117,80,0,10,1,1,1,1,1,1,1,1,1,1,1,1,0,11,12,117,space,12.381166600000142,None,1,1,1.665396299999884,None,space,7.953086599999551,None,0,0,0,0,,,,,10,0,80,0,320.9307412999997,,,,,,,,,,,,,,,,,,,,,320.91548650000004,320.9307412999997,321.4146525999995,321.41913699999986,321.4372065999996,323.1148607999994,,,,,323.11503529999936,323.12963189999937,323.33043910000015,323.3142835999997,321.4372065999996,,,,,,,,1,1,1.665396299999884,None,,,,,,,,825,21,M,R,2026-02-18_12h13.18.923,VisualSearch_2526_3,,2025.2.4,2026-02-18 12h13.19.219004 +0100,
tilted.xlsx,The target is tilted.,117,81,1,10,0,0,0,0,0,0,0,0,0,0,0,0,1,1,1,117,space,12.381166600000142,None,0,1,1.2814641000004485,None,space,7.953086599999551,None,0,0,0,0,,,,,10,1,81,7,323.33043910000015,,,,,,,,,,,,,,,,,,,,,323.3149911999999,323.33043910000015,323.81444250000004,323.81922359999953,323.83030319999943,325.1136875000002,,,,,325.1138073000002,325.12935370000014,325.3296735999993,325.3139431999998,323.83030319999943,,,,,,,,0,1,1.2814641000004485,None,,,,,,,,825,21,M,R,2026-02-18_12h13.18.923,VisualSearch_2526_3,,2025.2.4,2026-02-18 12h13.19.219004 +0100,
tilted.xlsx,The target is tilted.,117,82,2,10,0,1,1,1,0,0,0,0,0,0,0,0,1,3,4,117,space,12.381166600000142,None,0,1,1.2928827000005185,None,space,7.953086599999551,None,0,0,0,0,,,,,10,2,82,6,325.3296735999993,,,,,,,,,,,,,,,,,,,,,325.31466779999937,325.3296735999993,325.8138763999996,325.81828549999955,325.8361423999995,327.1307974000001,,,,,327.13100229999964,327.14570639999965,327.3461385999999,327.3298662999996,325.8361423999995,,,,,,,,0,1,1.2928827000005185,None,,,,,,,,825,21,M,R,2026-02-18_12h13.18.923,VisualSearch_2526_3,,2025.2.4,2026-02-18 12h13.19.219004 +0100,
tilted.xlsx,The target is tilted.,117,83,3,10,0,1,1,1,1,1,1,1,0,0,0,0,1,7,8,117,space,12.381166600000142,None,0,1,3.0346338999997897,None,space,7.953086599999551,None,0,0,0,0,,,,,10,3,83,5,327.3461385999999,,,,,,,,,,,,,,,,,,,,,327.33032679999997,327.3461385999999,327.82959870000013,327.83288209999955,327.84574879999946,330.8957713,,,,,330.8958890999993,330.91174709999996,331.11226759999954,331.0956747,327.84574879999946,,,,,,,,0,1,3.0346338999997897,None,,,,,,,,825,21,M,R,2026-02-18_12h13.18.923,VisualSearch_2526_3,,2025.2.4,2026-02-18 12h13.19.219004 +0100,
tilted.xlsx,The target is tilted.,117,84,4,10,1,1,1,1,0,0,0,0,0,0,0,0,0,3,4,117,space,12.381166600000142,None,1,1,0.8326177999997526,None,space,7.953086599999551,None,0,0,0,0,,,,,10,4,84,2,331.11226759999954,,,,,,,,,,,,,,,,,,,,,331.0960310999999,331.11226759999954,331.5960011999996,331.60081889999947,331.62019899999996,332.46386600000005,,,,,332.4640559999998,332.47850130000006,332.67886589999944,332.6626851000001,,,,,,,,,1,1,0.8326177999997526,None,,,,,,,,825,21,M,R,2026-02-18_12h13.18.923,VisualSearch_2526_3,,2025.2.4,2026-02-18 12h13.19.219004 +0100,
tilted.xlsx,The target is tilted.,117,85,5,10,0,1,1,1,1,1,1,1,1,1,1,1,1,11,12,117,space,12.381166600000142,None,0,1,2.1276460999997653,None,space,7.953086599999551,None,0,0,0,0,,,,,10,5,85,4,332.67886589999944,,,,,,,,,,,,,,,,,,,,,332.66343270000016,332.67886589999944,333.16265939999994,333.1670276999994,333.18498649999947,335.3292732,,,,,335.3294511999993,335.34498819999953,335.54512949999935,335.5286938999998,333.18498649999947,,,,,,,,0,1,2.1276460999997653,None,,,,,,,,825,21,M,R,2026-02-18_12h13.18.923,VisualSearch_2526_3,,2025.2.4,2026-02-18 12h13.19.219004 +0100,
tilted.xlsx,The target is tilted.,117,86,6,10,1,0,0,0,0,0,0,0,0,0,0,0,0,0,1,117,space,12.381166600000142,None,1,1,0.5743356999992102,None,space,7.953086599999551,None,0,0,0,0,,,,,10,6,86,3,335.54512949999935,,,,,,,,,,,,,,,,,,,,,335.52940789999957,335.54512949999935,336.0285082999999,336.0326624999998,336.0448815999998,336.6292126999997,,,,,336.6294041000001,336.6446615999994,336.84483480000017,336.82866509999985,336.0448815999998,,,,,,,,1,1,0.5743356999992102,None,,,,,,,,825,21,M,R,2026-02-18_12h13.18.923,VisualSearch_2526_3,,2025.2.4,2026-02-18 12h13.19.219004 +0100,
tilted.xlsx,The target is tilted.,117,87,7,10,1,1,1,1,1,1,1,1,0,0,0,0,0,7,8,117,space,12.381166600000142,None,1,1,1.0555487999999968,None,space,7.953086599999551,None,0,0,0,0,,,,,10,7,87,1,336.84483480000017,,,,,,,,,,,,,,,,,,,,,336.82950379999966,336.84483480000017,337.32875689999946,337.3339182999998,337.35330799999974,338.4123544999993,,,,,338.4125462000002,338.4278094000001,338.6275003999999,338.61176969999997,337.35330799999974,,,,,,,,1,1,1.0555487999999968,None,,,,,,,,825,21,M,R,2026-02-18_12h13.18.923,VisualSearch_2526_3,,2025.2.4,2026-02-18 12h13.19.219004 +0100,
tilted.xlsx,The target is tilted.,117,88,0,11,0,1,1,1,1,1,1,1,1,1,1,1,1,11,12,117,space,12.381166600000142,None,0,1,2.2333500999993703,None,space,7.953086599999551,None,0,0,0,0,,,,,11,0,88,4,338.6275003999999,,,,,,,,,,,,,,,,,,,,,338.61247730000014,338.6275003999999,339.1118127999998,339.1170308999999,339.12989689999995,341.3783623999998,,,,,341.3785545999999,341.39400639999985,341.59368819999963,341.5777180999994,339.12989689999995,,,,,,,,0,1,2.2333500999993703,None,,,,,,,,825,21,M,R,2026-02-18_12h13.18.923,VisualSearch_2526_3,,2025.2.4,2026-02-18 12h13.19.219004 +0100,
tilted.xlsx,The target is tilted.,117,89,1,11,1,1,1,1,1,1,1,1,0,0,0,0,0,7,8,117,space,12.381166600000142,None,1,1,0.8655708999995113,None,space,7.953086599999551,None,0,0,0,0,,,,,11,1,89,1,341.59368819999963,,,,,,,,,,,,,,,,,,,,,341.5785242000002,341.59368819999963,342.0775103999995,342.08114939999996,342.09399080000003,342.9614535999999,,,,,342.96164709999994,342.9770475999994,343.17704520000007,343.1605886999996,342.09399080000003,,,,,,,,1,1,0.8655708999995113,None,,,,,,,,825,21,M,R,2026-02-18_12h13.18.923,VisualSearch_2526_3,,2025.2.4,2026-02-18 12h13.19.219004 +0100,
tilted.xlsx,The target is tilted.,117,90,2,11,0,0,0,0,0,0,0,0,0,0,0,0,1,1,1,117,space,12.381166600000142,None,0,1,1.211022800000137,None,space,7.953086599999551,None,0,0,0,0,,,,,11,2,90,7,343.17704520000007,,,,,,,,,,,,,,,,,,,,,343.1610479000001,343.17704520000007,343.6601455,343.66285939999943,343.6764482999997,344.8946066999997,,,,,344.89479909999955,344.9102127999995,345.1101622999995,345.09406039999976,343.6764482999997,,,,,,,,0,1,1.211022800000137,None,,,,,,,,825,21,M,R,2026-02-18_12h13.18.923,VisualSearch_2526_3,,2025.2.4,2026-02-18 12h13.19.219004 +0100,
tilted.xlsx,The target is tilted.,117,91,3,11,1,1,1,1,0,0,0,0,0,0,0,0,0,3,4,117,space,12.381166600000142,None,1,1,0.6992583000001105,None,space,7.953086599999551,None,0,0,0,0,,,,,11,3,91,2,345.1101622999995,,,,,,,,,,,,,,,,,,,,,345.09477830000014,345.1101622999995,345.5940550999994,345.5988791,345.6168354000001,346.32735030000003,,,,,346.3275557999996,346.3431721999996,346.54327569999987,346.5271213999995,345.6168354000001,,,,,,,,1,1,0.6992583000001105,None,,,,,,,,825,21,M,R,2026-02-18_12h13.18.923,VisualSearch_2526_3,,2025.2.4,2026-02-18 12h13.19.219004 +0100,
tilted.xlsx,The target is tilted.,117,92,4,11,0,1,1,1,0,0,0,0,0,0,0,0,1,3,4,117,space,12.381166600000142,None,0,1,0.7310513000002175,None,space,7.953086599999551,None,0,0,0,0,,,,,11,4,92,6,346.54327569999987,,,,,,,,,,,,,,,,,,,,,346.5278999000002,346.54327569999987,347.02696449999985,347.0314220999999,347.04312930000015,347.77751269999953,,,,,347.7777028999999,347.7926628999994,347.9930620999994,347.9769379999998,347.04312930000015,,,,,,,,0,1,0.7310513000002175,None,,,,,,,,825,21,M,R,2026-02-18_12h13.18.923,VisualSearch_2526_3,,2025.2.4,2026-02-18 12h13.19.219004 +0100,
tilted.xlsx,The target is tilted.,117,93,5,11,1,0,0,0,0,0,0,0,0,0,0,0,0,0,1,117,space,12.381166600000142,None,1,1,0.596443100000215,None,space,7.953086599999551,None,0,0,0,0,,,,,11,5,93,3,347.9930620999994,,,,,,,,,,,,,,,,,,,,,347.9776837999998,347.9930620999994,348.4765798999997,348.4810749999997,348.4982409999993,349.1105874999994,,,,,349.1107824999999,349.1257584999994,349.32615780000015,349.3095905,348.4982409999993,,,,,,,,1,1,0.596443100000215,None,,,,,,,,825,21,M,R,2026-02-18_12h13.18.923,VisualSearch_2526_3,,2025.2.4,2026-02-18 12h13.19.219004 +0100,
tilted.xlsx,The target is tilted.,117,94,6,11,0,1,1,1,1,1,1,1,0,0,0,0,1,7,8,117,space,12.381166600000142,None,0,1,1.9102978000000803,None,space,7.953086599999551,None,0,0,0,0,,,,,11,6,94,5,349.32615780000015,,,,,,,,,,,,,,,,,,,,,349.31032249999953,349.32615780000015,349.8100709999999,349.81492230000003,349.83304580000004,351.7594473999998,,,,,351.75962660000005,351.7757351999999,,351.9627440999993,349.83304580000004,,,,,,,,0,1,1.9102978000000803,None,,,,,,,,825,21,M,R,2026-02-18_12h13.18.923,VisualSearch_2526_3,,2025.2.4,2026-02-18 12h13.19.219004 +0100,
tilted.xlsx,The target is tilted.,117,95,7,11,1,1,1,1,1,1,1,1,1,1,1,1,0,11,12,117,space,12.381166600000142,None,1,1,1.142251700000088,None,space,7.953086599999551,None,0,0,0,0,,,,,11,7,95,0,351.9819147999997,,,,,,,,,,,,,,,,,,,,,351.96351999999933,351.9819147999997,352.4755518000002,352.48007919999964,352.4975131000001,353.64321909999944,,,,,353.64339519999976,353.6586041999999,353.85862819999966,353.8424148999993,,,,,,,,,1,1,1.142251700000088,None,,,,,,,,825,21,M,R,2026-02-18_12h13.18.923,VisualSearch_2526_3,,2025.2.4,2026-02-18 12h13.19.219004 +0100,
tilted.xlsx,The target is tilted.,117,96,0,12,1,1,1,1,0,0,0,0,0,0,0,0,0,3,4,117,space,12.381166600000142,None,0,0,0.9515201000003799,None,space,7.953086599999551,None,0,0,0,0,,,,,12,0,96,2,353.85862819999966,,,,,,,,,,,,,,,,,,,,,353.8431348999993,353.85862819999966,354.34261699999934,354.3475225000002,354.36644869999964,355.3267033000002,,,,,355.3268954999994,355.3418144999996,355.5417963,355.52569700000004,354.36644869999964,,,,,,,,0,0,0.9515201000003799,None,,,,,,,,825,21,M,R,2026-02-18_12h13.18.923,VisualSearch_2526_3,,2025.2.4,2026-02-18 12h13.19.219004 +0100,
tilted.xlsx,The target is tilted.,117,97,1,12,1,1,1,1,1,1,1,1,1,1,1,1,0,11,12,117,space,12.381166600000142,None,1,1,1.316088700000364,None,space,7.953086599999551,None,0,0,0,0,,,,,12,1,97,0,355.5417963,,,,,,,,,,,,,,,,,,,,,355.52641049999966,355.5417963,356.02567050000016,356.0305268000002,356.04854669999986,357.37525819999973,,,,,357.3754154999997,357.39137759999994,357.5913499999997,357.5752279999997,356.04854669999986,,,,,,,,1,1,1.316088700000364,None,,,,,,,,825,21,M,R,2026-02-18_12h13.18.923,VisualSearch_2526_3,,2025.2.4,2026-02-18 12h13.19.219004 +0100,
tilted.xlsx,The target is tilted.,117,98,2,12,0,1,1,1,1,1,1,1,0,0,0,0,1,7,8,117,space,12.381166600000142,None,0,1,5.447169899999608,None,space,7.953086599999551,None,0,0,0,0,,,,,12,2,98,5,357.5913499999997,,,,,,,,,,,,,,,,,,,,,357.57598789999975,357.5913499999997,358.07543429999987,358.0804296999995,358.0912914999999,363.54155269999956,,,,,363.5421993,363.5569179999993,363.75705149999976,363.7405880999995,358.0912914999999,,,,,,,,0,1,5.447169899999608,None,,,,,,,,825,21,M,R,2026-02-18_12h13.18.923,VisualSearch_2526_3,,2025.2.4,2026-02-18 12h13.19.219004 +0100,
tilted.xlsx,The target is tilted.,117,99,3,12,0,1,1,1,1,1,1,1,1,1,1,1,1,11,12,117,space,12.381166600000142,None,0,1,2.41901290000078,None,space,7.953086599999551,None,0,0,0,0,,,,,12,3,99,4,363.75705149999976,,,,,,,,,,,,,,,,,,,,,363.74135620000015,363.75705149999976,364.24082069999986,364.24553229999947,364.26366679999956,366.69055109999954,,,,,366.6907451999996,366.7061058999998,366.90634749999936,366.8903516999999,364.26366679999956,,,,,,,,0,1,2.41901290000078,None,,,,,,,,825,21,M,R,2026-02-18_12h13.18.923,VisualSearch_2526_3,,2025.2.4,2026-02-18 12h13.19.219004 +0100,
tilted.xlsx,The target is tilted.,117,100,4,12,0,1,1,1,0,0,0,0,0,0,0,0,1,3,4,117,space,12.381166600000142,None,0,1,0.7431275999997524,None,space,7.953086599999551,None,0,0,0,0,,,,,12,4,100,6,366.90634749999936,,,,,,,,,,,,,,,,,,,,,366.8907798,366.90634749999936,367.3900629,367.39264790000016,367.40629119999994,368.15696819999994,,,,,368.15707849999944,368.17283379999935,368.37252309999985,368.3566542999997,367.40629119999994,,,,,,,,0,1,0.7431275999997524,None,,,,,,,,825,21,M,R,2026-02-18_12h13.18.923,VisualSearch_2526_3,,2025.2.4,2026-02-18 12h13.19.219004 +0100,
tilted.xlsx,The target is tilted.,117,101,5,12,0,0,0,0,0,0,0,0,0,0,0,0,1,1,1,117,space,12.381166600000142,None,0,1,0.6865383999993355,None,space,7.953086599999551,None,0,0,0,0,,,,,12,5,101,7,368.37252309999985,,,,,,,,,,,,,,,,,,,,,368.3573134999997,368.37252309999985,368.8568945999996,368.86235729999953,368.8840799999998,369.57333990000006,,,,,369.5734604999998,369.5893833,369.7893850999999,369.7732484999997,368.8840799999998,,,,,,,,0,1,0.6865383999993355,None,,,,,,,,825,21,M,R,2026-02-18_12h13.18.923,VisualSearch_2526_3,,2025.2.4,2026-02-18 12h13.19.219004 +0100,
tilted.xlsx,The target is tilted.,117,102,6,12,1,1,1,1,1,1,1,1,0,0,0,0,0,7,8,117,space,12.381166600000142,None,1,1,0.8646764999994048,None,space,7.953086599999551,None,0,0,0,0,,,,,12,6,102,1,369.7893850999999,,,,,,,,,,,,,,,,,,,,,369.7739795999996,369.7893850999999,370.27293439999994,370.27539549999983,370.2892918999996,371.1563744999994,,,,,371.1564908999999,371.17243059999964,371.3726179999994,371.3564730999997,370.2892918999996,,,,,,,,1,1,0.8646764999994048,None,,,,,,,,825,21,M,R,2026-02-18_12h13.18.923,VisualSearch_2526_3,,2025.2.4,2026-02-18 12h13.19.219004 +0100,
tilted.xlsx,The target is tilted.,117,103,7,12,1,0,0,0,0,0,0,0,0,0,0,0,0,0,1,117,space,12.381166600000142,None,1,1,0.6170085000003382,None,space,7.953086599999551,None,0,0,0,0,,,,,12,7,103,3,371.3726179999994,,,,,,,,,,,,,,,,,,,,,371.35731380000016,371.3726179999994,371.85642989999997,371.86144109999987,371.8798611000002,372.5067749,,,,,372.5069647999999,372.52218039999934,372.7222303999997,372.7055709999995,371.8798611000002,,,,,,,,1,1,0.6170085000003382,None,,,,,,,,825,21,M,R,2026-02-18_12h13.18.923,VisualSearch_2526_3,,2025.2.4,2026-02-18 12h13.19.219004 +0100,
tilted.xlsx,The target is tilted.,117,104,0,13,1,1,1,1,0,0,0,0,0,0,0,0,0,3,4,117,space,12.381166600000142,None,1,1,0.7232355000005555,None,space,7.953086599999551,None,0,0,0,0,,,,,13,0,104,2,372.7222303999997,,,,,,,,,,,,,,,,,,,,,372.70622189999995,372.7222303999997,373.2058085999997,373.2108155999995,373.22996559999956,373.9566840999996,,,,,373.9569080000001,373.97188409999944,374.1720809999997,374.15602390000004,373.22996559999956,,,,,,,,1,1,0.7232355000005555,None,,,,,,,,825,21,M,R,2026-02-18_12h13.18.923,VisualSearch_2526_3,,2025.2.4,2026-02-18 12h13.19.219004 +0100,
tilted.xlsx,The target is tilted.,117,105,1,13,0,0,0,0,0,0,0,0,0,0,0,0,1,1,1,117,space,12.381166600000142,None,0,1,0.653240900000128,None,space,7.953086599999551,None,0,0,0,0,,,,,13,1,105,7,374.1720809999997,,,,,,,,,,,,,,,,,,,,,374.1567734,374.1720809999997,374.6554986000001,374.66045440000016,374.67879899999934,375.3396077999996,,,,,375.3397992,375.3550218999999,375.5551061999995,375.5389336999997,374.67879899999934,,,,,,,,0,1,0.653240900000128,None,,,,,,,,825,21,M,R,2026-02-18_12h13.18.923,VisualSearch_2526_3,,2025.2.4,2026-02-18 12h13.19.219004 +0100,
tilted.xlsx,The target is tilted.,117,106,2,13,1,1,1,1,1,1,1,1,1,1,1,1,0,11,12,117,space,12.381166600000142,None,1,1,0.7476046000001588,None,space,7.953086599999551,None,0,0,0,0,,,,,13,2,106,0,375.5551061999995,,,,,,,,,,,,,,,,,,,,,375.53968499999974,375.5551061999995,376.0387904999998,376.0432845999994,376.06030349999946,376.82240229999934,,,,,376.8226058,376.83783929999936,377.0380943,377.02231779999966,376.06030349999946,,,,,,,,1,1,0.7476046000001588,None,,,,,,,,825,21,M,R,2026-02-18_12h13.18.923,VisualSearch_2526_3,,2025.2.4,2026-02-18 12h13.19.219004 +0100,
tilted.xlsx,The target is tilted.,117,107,3,13,0,1,1,1,1,1,1,1,1,1,1,1,1,11,12,117,space,12.381166600000142,None,0,1,1.7352915999999823,None,space,7.953086599999551,None,0,0,0,0,,,,,13,3,107,4,377.0380943,,,,,,,,,,,,,,,,,,,,,377.02317369999946,377.0380943,377.52224879999994,377.5272315000002,377.5458539000001,379.28885139999966,,,,,379.2890555999993,379.30405859999973,379.5045169999994,379.4879589000002,377.5458539000001,,,,,,,,0,1,1.7352915999999823,None,,,,,,,,825,21,M,R,2026-02-18_12h13.18.923,VisualSearch_2526_3,,2025.2.4,2026-02-18 12h13.19.219004 +0100,
tilted.xlsx,The target is tilted.,117,108,4,13,1,1,1,1,1,1,1,1,0,0,0,0,0,7,8,117,space,12.381166600000142,None,1,1,1.9408428999995522,None,space,7.953086599999551,None,0,0,0,0,,,,,13,4,108,1,379.5045169999994,,,,,,,,,,,,,,,,,,,,,379.4887119999994,379.5045169999994,379.9880346,379.992757,380.01077559999976,381.9548973000001,,,,,381.9550730000001,381.9705957999995,382.1707386999997,382.15453849999994,380.01077559999976,,,,,,,,1,1,1.9408428999995522,None,,,,,,,,825,21,M,R,2026-02-18_12h13.18.923,VisualSearch_2526_3,,2025.2.4,2026-02-18 12h13.19.219004 +0100,
tilted.xlsx,The target is tilted.,117,109,5,13,0,1,1,1,0,0,0,0,0,0,0,0,1,3,4,117,space,12.381166600000142,None,0,1,1.2151417000004585,None,space,7.953086599999551,None,0,0,0,0,,,,,13,5,109,6,382.1707386999997,,,,,,,,,,,,,,,,,,,,,382.1552826999996,382.1707386999997,382.65438209999957,382.6583731999999,382.6746016999996,383.90490520000003,,,,,383.9050865999998,383.9202906999999,384.12032739999995,384.1041070000001,382.6746016999996,,,,,,,,0,1,1.2151417000004585,None,,,,,,,,825,21,M,R,2026-02-18_12h13.18.923,VisualSearch_2526_3,,2025.2.4,2026-02-18 12h13.19.219004 +0100,
tilted.xlsx,The target is tilted.,117,110,6,13,1,0,0,0,0,0,0,0,0,0,0,0,0,0,1,117,space,12.381166600000142,None,1,1,0.9300393000003169,None,space,7.953086599999551,None,0,0,0,0,,,,,13,6,110,3,384.12032739999995,,,,,,,,,,,,,,,,,,,,,384.1048487999997,384.12032739999995,384.6042295999996,384.6086392999996,384.62650459999986,385.5709216999994,,,,,385.5711175999995,385.58653219999997,385.7863503999997,385.77063569999973,384.62650459999986,,,,,,,,1,1,0.9300393000003169,None,,,,,,,,825,21,M,R,2026-02-18_12h13.18.923,VisualSearch_2526_3,,2025.2.4,2026-02-18 12h13.19.219004 +0100,
tilted.xlsx,The target is tilted.,117,111,7,13,0,1,1,1,1,1,1,1,0,0,0,0,1,7,8,117,space,12.381166600000142,None,0,1,5.9708559000000605,None,space,7.953086599999551,None,0,0,0,0,,,,,13,7,111,5,385.7863503999997,,,,,,,,,,,,,,,,,,,,,385.77134339999975,385.7863503999997,386.2706769999995,386.27567120000003,386.2937293999994,392.2698995999999,,,,,392.2700759999998,392.2855759999993,392.4857198999998,392.4694687000001,386.2937293999994,,,,,,,,0,1,5.9708559000000605,None,,,,,,,,825,21,M,R,2026-02-18_12h13.18.923,VisualSearch_2526_3,,2025.2.4,2026-02-18 12h13.19.219004 +0100,
tilted.xlsx,The target is tilted.,117,112,0,14,0,1,1,1,0,0,0,0,0,0,0,0,1,3,4,117,space,12.381166600000142,None,0,1,0.9437577999997302,None,space,7.953086599999551,None,0,0,0,0,,,,,14,0,112,6,392.4857198999998,,,,,,,,,,,,,,,,,,,,,392.4702336999999,392.4857198999998,392.96939589999965,392.9739168999995,392.9907545999995,393.93650720000005,,,,,393.9366871000002,393.95196039999973,394.15165929999966,394.1359483999995,392.9907545999995,,,,,,,,0,1,0.9437577999997302,None,,,,,,,,825,21,M,R,2026-02-18_12h13.18.923,VisualSearch_2526_3,,2025.2.4,2026-02-18 12h13.19.219004 +0100,
tilted.xlsx,The target is tilted.,117,113,1,14,1,1,1,1,1,1,1,1,1,1,1,1,0,11,12,117,space,12.381166600000142,None,1,1,0.9464669999997568,None,space,7.953086599999551,None,0,0,0,0,,,,,14,1,113,0,394.15165929999966,,,,,,,,,,,,,,,,,,,,,394.13666079999985,394.15165929999966,394.63573329999963,394.64017090000016,394.65882369999963,395.6195287999999,,,,,395.6197253,395.63477369999964,395.8346762000001,395.8185629999998,394.65882369999963,,,,,,,,1,1,0.9464669999997568,None,,,,,,,,825,21,M,R,2026-02-18_12h13.18.923,VisualSearch_2526_3,,2025.2.4,2026-02-18 12h13.19.219004 +0100,
tilted.xlsx,The target is tilted.,117,114,2,14,0,1,1,1,1,1,1,1,0,0,0,0,1,7,8,117,space,12.381166600000142,None,0,1,3.8896033999999418,None,space,7.953086599999551,None,0,0,0,0,,,,,14,2,114,5,395.8346762000001,,,,,,,,,,,,,,,,,,,,,395.8193935999998,395.8346762000001,396.3188607000002,396.3235635000001,396.3421343,400.23500689999946,,,,,400.23516589999963,400.25065709999944,400.4506437,400.43486549999943,396.3421343,,,,,,,,0,1,3.8896033999999418,None,,,,,,,,825,21,M,R,2026-02-18_12h13.18.923,VisualSearch_2526_3,,2025.2.4,2026-02-18 12h13.19.219004 +0100,
tilted.xlsx,The target is tilted.,117,115,3,14,0,0,0,0,0,0,0,0,0,0,0,0,1,1,1,117,space,12.381166600000142,None,0,1,0.700438199999553,None,space,7.953086599999551,None,0,0,0,0,,,,,14,3,115,7,400.4506437,,,,,,,,,,,,,,,,,,,,,400.4355909999995,400.4506437,400.93486810000013,400.9392422000001,400.9573163999994,401.66845529999955,,,,,401.66862799999944,401.6840338000002,401.8836999999994,401.8676160999994,400.9573163999994,,,,,,,,0,1,0.700438199999553,None,,,,,,,,825,21,M,R,2026-02-18_12h13.18.923,VisualSearch_2526_3,,2025.2.4,2026-02-18 12h13.19.219004 +0100,
tilted.xlsx,The target is tilted.,117,116,4,14,1,1,1,1,1,1,1,1,0,0,0,0,0,7,8,117,space,12.381166600000142,None,1,1,0.7946968000005654,None,space,7.953086599999551,None,0,0,0,0,,,,,14,4,116,1,401.8836999999994,,,,,,,,,,,,,,,,,,,,,401.86844459999975,401.8836999999994,402.3679502999994,402.37289189999956,402.3909098999993,403.20162979999986,,,,,403.2018242999993,403.2171516999997,403.4172654999993,403.4010770999994,402.3909098999993,,,,,,,,1,1,0.7946968000005654,None,,,,,,,,825,21,M,R,2026-02-18_12h13.18.923,VisualSearch_2526_3,,2025.2.4,2026-02-18 12h13.19.219004 +0100,
tilted.xlsx,The target is tilted.,117,117,5,14,1,1,1,1,0,0,0,0,0,0,0,0,0,3,4,117,space,12.381166600000142,None,1,1,0.8982006999995065,None,space,7.953086599999551,None,0,0,0,0,,,,,14,5,117,2,403.4172654999993,,,,,,,,,,,,,,,,,,,,,403.40178879999985,403.4172654999993,403.9010886999995,403.90548989999934,403.9239545999999,404.83463799999936,,,,,404.83481049999955,404.85031489999983,405.0502783000002,405.03413,403.9239545999999,,,,,,,,1,1,0.8982006999995065,None,,,,,,,,825,21,M,R,2026-02-18_12h13.18.923,VisualSearch_2526_3,,2025.2.4,2026-02-18 12h13.19.219004 +0100,
tilted.xlsx,The target is tilted.,117,118,6,14,1,0,0,0,0,0,0,0,0,0,0,0,0,0,1,117,space,12.381166600000142,None,1,1,0.6287872000002608,None,space,7.953086599999551,None,0,0,0,0,,,,,14,6,118,3,405.0502783000002,,,,,,,,,,,,,,,,,,,,,405.03483890000007,405.0502783000002,405.5342579999997,405.53905699999996,405.5570071000002,406.2011591999999,,,,,406.20135029999983,406.21659759999966,406.41673119999996,406.4004420000001,405.5570071000002,,,,,,,,1,1,0.6287872000002608,None,,,,,,,,825,21,M,R,2026-02-18_12h13.18.923,VisualSearch_2526_3,,2025.2.4,2026-02-18 12h13.19.219004 +0100,
tilted.xlsx,The target is tilted.,117,119,7,14,0,1,1,1,1,1,1,1,1,1,1,1,1,11,12,117,space,12.381166600000142,None,0,1,3.0266764999996667,None,space,7.953086599999551,None,0,0,0,0,,,,,14,7,119,4,406.41673119999996,,,,,,,,,,,,,,,,,,,,,406.40118170000005,406.41673119999996,406.90017139999964,406.9047537999995,406.92259620000004,409.95030419999966,,,,,409.9504786999996,409.9659660999996,410.20284399999946,410.14979200000016,406.92259620000004,,,,,,,,0,1,3.0266764999996667,None,,,,,,,,825,21,M,R,2026-02-18_12h13.18.923,VisualSearch_2526_3,,2025.2.4,2026-02-18 12h13.19.219004 +0100,
tilted.xlsx,The target is tilted.,117,0,0,0,,,,,,,,,,,,,,,,,space,12.381166600000142,None,,,,,space,7.953086599999551,None,0,0,0,0,,,,,,,,,,,,,,,,,,,,,,,,,,,,,,,,,,,,,,,,,,,,,,,,,,,,,,,,,,,,,,,825,21,M,R,2026-02-18_12h13.18.923,VisualSearch_2526_3,,2025.2.4,2026-02-18 12h13.19.219004 +0100,
vertical.xlsx,The target is tilted.,135,0,0,0,1,1,1,1,1,1,1,1,1,1,1,1,0,11,12,135,space,26.12937420000071,None,1,1,1.3465066999997362,None,,,,0,1,1,1,0,0,0,0,,,,,436.38386079999964,,,,,,,,,,,,,,,410.20284399999946,410.20284399999946,410.20284399999946,space,26.12937420000071,None,436.3783094999999,436.38386079999964,436.8620135000001,436.8667968,436.88498530000015,438.2459165999999,1,1,1.3465066999997362,None,438.24610739999935,438.2614808999997,438.4609892999997,438.44500590000007,,,,,,,,,,,,,,,,,,,,825,21,M,R,2026-02-18_12h13.18.923,VisualSearch_2526_3,,2025.2.4,2026-02-18 12h13.19.219004 +0100,
vertical.xlsx,The target is tilted.,135,1,1,0,1,1,1,1,1,1,1,1,0,0,0,0,0,7,8,135,space,26.12937420000071,None,1,1,0.7363138000000617,None,,,,0,1,1,1,0,1,1,1,,,,,438.4609892999997,,,,,,,,,,,,,,,,,,,,,438.4456627999998,438.4609892999997,438.94542459999957,438.9505423999999,438.9685329999993,439.7123008999997,1,1,0.7363138000000617,None,439.71248259999993,439.7274560999995,439.92748589999974,439.9117065999999,438.9685329999993,,,,,,,,,,,,,,,,,,,825,21,M,R,2026-02-18_12h13.18.923,VisualSearch_2526_3,,2025.2.4,2026-02-18 12h13.19.219004 +0100,
vertical.xlsx,The target is tilted.,135,2,2,0,1,1,1,1,0,0,0,0,0,0,0,0,0,3,4,135,space,26.12937420000071,None,1,1,0.5230616999997437,None,,,,0,1,1,1,0,2,2,2,,,,,439.92748589999974,,,,,,,,,,,,,,,,,,,,,439.91236149999986,439.92748589999974,440.41167510000014,440.41661380000005,440.43477079999957,440.9617254999994,1,1,0.5230616999997437,None,440.9619103999994,440.9776039999997,441.1774962999998,441.1616167000002,440.43477079999957,,,,,,,,,,,,,,,,,,,825,21,M,R,2026-02-18_12h13.18.923,VisualSearch_2526_3,,2025.2.4,2026-02-18 12h13.19.219004 +0100,
vertical.xlsx,The target is tilted.,135,3,3,0,0,1,1,1,0,0,0,0,0,0,0,0,1,3,4,135,space,26.12937420000071,None,0,1,0.7144846999999572,None,,,,0,1,1,1,0,3,3,6,,,,,441.1774962999998,,,,,,,,,,,,,,,,,,,,,441.16238429999976,441.1774962999998,441.6614152000002,441.66579269999966,441.68334869999944,442.4117305,0,1,0.7144846999999572,None,442.41191329999947,442.4273115999995,442.6273848999999,442.61143449999963,441.68334869999944,,,,,,,,,,,,,,,,,,,825,21,M,R,2026-02-18_12h13.18.923,VisualSearch_2526_3,,2025.2.4,2026-02-18 12h13.19.219004 +0100,
vertical.xlsx,The target is tilted.,135,4,4,0,0,1,1,1,1,1,1,1,0,0,0,0,1,7,8,135,space,26.12937420000071,None,0,1,1.7995326000000205,None,,,,0,1,1,1,0,4,4,5,,,,,442.6273848999999,,,,,,,,,,,,,,,,,,,,,442.61220369999955,442.6273848999999,443.1111452999994,443.11555169999974,443.1330767999998,444.94468569999935,0,1,1.7995326000000205,None,444.9448547000002,444.9602524000002,445.16018339999937,445.1440015999997,443.1330767999998,,,,,,,,,,,,,,,,,,,825,21,M,R,2026-02-18_12h13.18.923,VisualSearch_2526_3,,2025.2.4,2026-02-18 12h13.19.219004 +0100,
vertical.xlsx,The target is tilted.,135,5,5,0,0,1,1,1,1,1,1,1,1,1,1,1,1,11,12,135,space,26.12937420000071,None,0,1,1.9442473999997674,None,,,,0,1,1,1,0,5,5,4,,,,,445.16018339999937,,,,,,,,,,,,,,,,,,,,,445.1445587999997,445.16018339999937,445.6437950999998,445.6485028999996,445.6682904999998,447.62750210000013,0,1,1.9442473999997674,None,447.6276753000002,447.6431279999997,447.8432812000001,447.8271745000002,445.6682904999998,,,,,,,,,,,,,,,,,,,825,21,M,R,2026-02-18_12h13.18.923,VisualSearch_2526_3,,2025.2.4,2026-02-18 12h13.19.219004 +0100,
vertical.xlsx,The target is tilted.,135,6,6,0,0,0,0,0,0,0,0,0,0,0,0,0,1,1,1,135,space,26.12937420000071,None,0,1,0.8036793999999645,None,,,,0,1,1,1,0,6,6,7,,,,,447.8432812000001,,,,,,,,,,,,,,,,,,,,,447.8278384999994,447.8432812000001,448.3270868999998,448.33161259999997,448.3500645999993,449.1607336999996,0,1,0.8036793999999645,None,449.16091679999954,449.1762203999997,449.37632810000014,449.3600735,448.3500645999993,,,,,,,,,,,,,,,,,,,825,21,M,R,2026-02-18_12h13.18.923,VisualSearch_2526_3,,2025.2.4,2026-02-18 12h13.19.219004 +0100,
vertical.xlsx,The target is tilted.,135,7,7,0,1,0,0,0,0,0,0,0,0,0,0,0,0,0,1,135,space,26.12937420000071,None,1,1,0.488484000000426,None,,,,0,1,1,1,0,7,7,3,,,,,449.37632810000014,,,,,,,,,,,,,,,,,,,,,449.3607904999999,449.37632810000014,449.8599728999998,449.8644076999999,449.8823982999993,450.37687339999957,1,1,0.488484000000426,None,450.3770571999994,450.3927653999999,450.5928465999996,450.57685760000004,449.8823982999993,,,,,,,,,,,,,,,,,,,825,21,M,R,2026-02-18_12h13.18.923,VisualSearch_2526_3,,2025.2.4,2026-02-18 12h13.19.219004 +0100,
vertical.xlsx,The target is tilted.,135,0,0,0,1,0,0,0,0,0,0,0,0,0,0,0,0,0,1,135,space,26.12937420000071,None,1,1,0.9942127000003893,None,space,7.533938699999453,None,0,1,1,1,,,,,0,0,0,3,458.18911539999954,,,,,,,,,,,,,,,,,,,,,458.1839441000002,458.18911539999954,458.6586959999995,458.6647245999993,458.6862573999997,459.6923827999999,,,,,459.6925741999994,459.7077230999994,459.9076113000001,459.8918635,,450.58459239999956,450.5928465999996,450.5928465999996,458.1424817999996,space,7.533938699999453,None,1,1,0.9942127000003893,None,,,,,,,,825,21,M,R,2026-02-18_12h13.18.923,VisualSearch_2526_3,,2025.2.4,2026-02-18 12h13.19.219004 +0100,
vertical.xlsx,The target is tilted.,135,1,1,0,1,1,1,1,1,1,1,1,0,0,0,0,0,7,8,135,space,26.12937420000071,None,1,1,0.884106200000133,None,space,7.533938699999453,None,0,1,1,1,,,,,0,1,1,1,459.9076113000001,,,,,,,,,,,,,,,,,,,,,459.8927047999996,459.9076113000001,460.3913372999996,460.3963804999994,460.41444369999954,461.30826960000013,,,,,461.30844549999983,461.3241161999995,461.52425829999993,461.5077249999995,460.41444369999954,,,,,,,,1,1,0.884106200000133,None,,,,,,,,825,21,M,R,2026-02-18_12h13.18.923,VisualSearch_2526_3,,2025.2.4,2026-02-18 12h13.19.219004 +0100,
vertical.xlsx,The target is tilted.,135,2,2,0,0,1,1,1,0,0,0,0,0,0,0,0,1,3,4,135,space,26.12937420000071,None,0,1,0.623796100000618,None,space,7.533938699999453,None,0,1,1,1,,,,,0,2,2,6,461.52425829999993,,,,,,,,,,,,,,,,,,,,,461.5085412999997,461.52425829999993,462.0080214999998,462.01302359999954,462.03151419999995,462.6587460999999,,,,,462.6589788000001,462.67367829999966,462.87412829999994,462.8579863999994,462.03151419999995,,,,,,,,0,1,0.623796100000618,None,,,,,,,,825,21,M,R,2026-02-18_12h13.18.923,VisualSearch_2526_3,,2025.2.4,2026-02-18 12h13.19.219004 +0100,
vertical.xlsx,The target is tilted.,135,3,3,0,1,1,1,1,1,1,1,1,1,1,1,1,0,11,12,135,space,26.12937420000071,None,1,1,0.644424799999797,None,space,7.533938699999453,None,0,1,1,1,,,,,0,3,3,0,462.87412829999994,,,,,,,,,,,,,,,,,,,,,462.85890409999956,462.87412829999994,463.35800969999946,463.36312949999956,463.3816747000001,464.0413761,,,,,464.0415787000002,464.0567556999995,464.2573332000002,464.24114499999996,463.3816747000001,,,,,,,,1,1,0.644424799999797,None,,,,,,,,825,21,M,R,2026-02-18_12h13.18.923,VisualSearch_2526_3,,2025.2.4,2026-02-18 12h13.19.219004 +0100,
vertical.xlsx,The target is tilted.,135,4,4,0,0,1,1,1,1,1,1,1,1,1,1,1,1,11,12,135,space,26.12937420000071,None,0,1,1.3972106000001077,None,space,7.533938699999453,None,0,1,1,1,,,,,0,4,4,4,464.2573332000002,,,,,,,,,,,,,,,,,,,,,464.2419579999996,464.2573332000002,464.7409555999993,464.74532519999957,464.7629051999993,466.1751826999998,,,,,466.17538929999955,466.19002139999975,466.3901743999995,466.37406680000004,464.7629051999993,,,,,,,,0,1,1.3972106000001077,None,,,,,,,,825,21,M,R,2026-02-18_12h13.18.923,VisualSearch_2526_3,,2025.2.4,2026-02-18 12h13.19.219004 +0100,
vertical.xlsx,The target is tilted.,135,5,5,0,0,1,1,1,1,1,1,1,0,0,0,0,1,7,8,135,space,26.12937420000071,None,0,1,1.1042571999996653,None,space,7.533938699999453,None,0,1,1,1,,,,,0,5,5,5,466.3901743999995,,,,,,,,,,,,,,,,,,,,,466.37478610000016,466.3901743999995,466.87387690000014,466.8783911999999,466.89575109999987,468.00774439999986,,,,,468.00795560000006,468.0230707999999,468.22320729999956,468.20703439999943,466.89575109999987,,,,,,,,0,1,1.1042571999996653,None,,,,,,,,825,21,M,R,2026-02-18_12h13.18.923,VisualSearch_2526_3,,2025.2.4,2026-02-18 12h13.19.219004 +0100,
vertical.xlsx,The target is tilted.,135,6,6,0,0,0,0,0,0,0,0,0,0,0,0,0,1,1,1,135,space,26.12937420000071,None,0,1,0.827153599999292,None,space,7.533938699999453,None,0,1,1,1,,,,,0,6,6,7,468.22320729999956,,,,,,,,,,,,,,,,,,,,,468.2078578999999,468.22320729999956,468.70682510000006,468.71172299999944,468.7299444999999,469.57430699999986,,,,,469.5746355000001,469.5891313000002,469.7896213999993,469.7736122999995,468.7299444999999,,,,,,,,0,1,0.827153599999292,None,,,,,,,,825,21,M,R,2026-02-18_12h13.18.923,VisualSearch_2526_3,,2025.2.4,2026-02-18 12h13.19.219004 +0100,
vertical.xlsx,The target is tilted.,135,7,7,0,1,1,1,1,0,0,0,0,0,0,0,0,0,3,4,135,space,26.12937420000071,None,1,1,0.5957668000000922,None,space,7.533938699999453,None,0,1,1,1,,,,,0,7,7,2,469.7896213999993,,,,,,,,,,,,,,,,,,,,,469.7744163999996,469.7896213999993,470.2733714999995,470.2777490999997,470.29566239999986,470.9071516999993,,,,,470.90735249999943,470.92235530000016,471.12277240000003,471.1065695999996,470.29566239999986,,,,,,,,1,1,0.5957668000000922,None,,,,,,,,825,21,M,R,2026-02-18_12h13.18.923,VisualSearch_2526_3,,2025.2.4,2026-02-18 12h13.19.219004 +0100,
vertical.xlsx,The target is tilted.,135,8,0,1,0,1,1,1,1,1,1,1,0,0,0,0,1,7,8,135,space,26.12937420000071,None,0,1,1.3727995999997802,None,space,7.533938699999453,None,0,1,1,1,,,,,1,0,8,5,471.12277240000003,,,,,,,,,,,,,,,,,,,,,471.1072924,471.12277240000003,471.60655210000004,471.6117072999996,471.6306599999998,473.0068491000002,,,,,473.00702529999944,473.0221985999997,473.2223755999994,473.20605590000014,471.6306599999998,,,,,,,,0,1,1.3727995999997802,None,,,,,,,,825,21,M,R,2026-02-18_12h13.18.923,VisualSearch_2526_3,,2025.2.4,2026-02-18 12h13.19.219004 +0100,
vertical.xlsx,The target is tilted.,135,9,1,1,0,0,0,0,0,0,0,0,0,0,0,0,1,1,1,135,space,26.12937420000071,None,0,1,0.5232323000000179,None,space,7.533938699999453,None,0,1,1,1,,,,,1,1,9,7,473.2223755999994,,,,,,,,,,,,,,,,,,,,,473.2068030999999,473.2223755999994,473.70608269999957,473.7105141000002,473.7276436000002,474.2565894999998,,,,,474.2567780999998,474.27215029999934,474.4721037999998,474.45554339999944,473.7276436000002,,,,,,,,0,1,0.5232323000000179,None,,,,,,,,825,21,M,R,2026-02-18_12h13.18.923,VisualSearch_2526_3,,2025.2.4,2026-02-18 12h13.19.219004 +0100,
vertical.xlsx,The target is tilted.,135,10,2,1,0,1,1,1,0,0,0,0,0,0,0,0,1,3,4,135,space,26.12937420000071,None,0,1,0.5456276000004436,None,space,7.533938699999453,None,0,1,1,1,,,,,1,2,10,6,474.4721037999998,,,,,,,,,,,,,,,,,,,,,474.4562922999994,474.4721037999998,474.9558677999994,474.9609068,474.97941249999985,475.5396998999995,,,,,475.5398925999998,475.55518049999955,475.7554031999998,475.73900689999937,474.97941249999985,,,,,,,,0,1,0.5456276000004436,None,,,,,,,,825,21,M,R,2026-02-18_12h13.18.923,VisualSearch_2526_3,,2025.2.4,2026-02-18 12h13.19.219004 +0100,
vertical.xlsx,The target is tilted.,135,11,3,1,1,0,0,0,0,0,0,0,0,0,0,0,0,0,1,135,space,26.12937420000071,None,1,1,0.5478889000005438,None,space,7.533938699999453,None,0,1,1,1,,,,,1,3,11,3,475.7554031999998,,,,,,,,,,,,,,,,,,,,,475.7397715999996,475.7554031999998,476.23894389999987,476.24347989999933,476.26037050000014,476.8222773999996,,,,,476.8224518999996,476.83802579999974,477.0383280999995,477.02231969999957,476.26037050000014,,,,,,,,1,1,0.5478889000005438,None,,,,,,,,825,21,M,R,2026-02-18_12h13.18.923,VisualSearch_2526_3,,2025.2.4,2026-02-18 12h13.19.219004 +0100,
vertical.xlsx,The target is tilted.,135,12,4,1,1,1,1,1,1,1,1,1,1,1,1,1,0,11,12,135,space,26.12937420000071,None,1,1,0.5483461000003444,None,space,7.533938699999453,None,0,1,1,1,,,,,1,4,12,0,477.0383280999995,,,,,,,,,,,,,,,,,,,,,477.0230342999994,477.0383280999995,477.52227309999944,477.52730189999966,477.54535919999944,478.10611400000016,,,,,478.10633379999945,478.1214018999999,478.32152249999945,478.3054237999995,477.54535919999944,,,,,,,,1,1,0.5483461000003444,None,,,,,,,,825,21,M,R,2026-02-18_12h13.18.923,VisualSearch_2526_3,,2025.2.4,2026-02-18 12h13.19.219004 +0100,
vertical.xlsx,The target is tilted.,135,13,5,1,0,1,1,1,1,1,1,1,1,1,1,1,1,11,12,135,space,26.12937420000071,None,0,1,0.9614916000000449,None,space,7.533938699999453,None,0,1,1,1,,,,,1,5,13,4,478.32152249999945,,,,,,,,,,,,,,,,,,,,,478.3061554999995,478.32152249999945,478.8055205999999,478.81026569999995,478.8286971999996,479.8057067,,,,,479.80589659999987,479.8212261999997,480.0212518999997,480.00509669999974,478.8286971999996,,,,,,,,0,1,0.9614916000000449,None,,,,,,,,825,21,M,R,2026-02-18_12h13.18.923,VisualSearch_2526_3,,2025.2.4,2026-02-18 12h13.19.219004 +0100,
vertical.xlsx,The target is tilted.,135,14,6,1,1,1,1,1,1,1,1,1,0,0,0,0,0,7,8,135,space,26.12937420000071,None,1,1,0.8171142000001055,None,space,7.533938699999453,None,0,1,1,1,,,,,1,6,14,1,480.0212518999997,,,,,,,,,,,,,,,,,,,,,480.00580249999985,480.0212518999997,480.5046738000001,480.5090775999997,480.52726470000016,481.35548539999945,,,,,481.35567249999986,481.3710258000001,481.5709903999996,481.55488049999985,480.52726470000016,,,,,,,,1,1,0.8171142000001055,None,,,,,,,,825,21,M,R,2026-02-18_12h13.18.923,VisualSearch_2526_3,,2025.2.4,2026-02-18 12h13.19.219004 +0100,
vertical.xlsx,The target is tilted.,135,15,7,1,1,1,1,1,0,0,0,0,0,0,0,0,0,3,4,135,space,26.12937420000071,None,1,1,0.46455969999988156,None,space,7.533938699999453,None,0,1,1,1,,,,,1,7,15,2,481.5709903999996,,,,,,,,,,,,,,,,,,,,,481.55558759999985,481.5709903999996,482.0548734999993,482.05997449999995,482.07840419999957,482.55493919999935,,,,,482.5551268999998,482.57074719999946,482.77036659999976,482.7548283999995,482.07840419999957,,,,,,,,1,1,0.46455969999988156,None,,,,,,,,825,21,M,R,2026-02-18_12h13.18.923,VisualSearch_2526_3,,2025.2.4,2026-02-18 12h13.19.219004 +0100,
vertical.xlsx,The target is tilted.,135,16,0,2,0,0,0,0,0,0,0,0,0,0,0,0,1,1,1,135,space,26.12937420000071,None,0,1,0.45258000000012544,None,space,7.533938699999453,None,0,1,1,1,,,,,2,0,16,7,482.77036659999976,,,,,,,,,,,,,,,,,,,,,482.7555468999999,482.77036659999976,483.25465780000013,483.25911579999956,483.2766630999995,483.7384770999997,,,,,483.7386910999994,483.7537494999997,483.95390399999997,483.93757539999933,483.2766630999995,,,,,,,,0,1,0.45258000000012544,None,,,,,,,,825,21,M,R,2026-02-18_12h13.18.923,VisualSearch_2526_3,,2025.2.4,2026-02-18 12h13.19.219004 +0100,
vertical.xlsx,The target is tilted.,135,17,1,2,0,1,1,1,1,1,1,1,0,0,0,0,1,7,8,135,space,26.12937420000071,None,0,1,0.783945400000448,None,space,7.533938699999453,None,0,1,1,1,,,,,2,1,17,5,483.95390399999997,,,,,,,,,,,,,,,,,,,,,483.93826249999984,483.95390399999997,484.43796889999976,484.44309109999995,484.46405609999965,485.25479709999945,,,,,485.2550010999994,485.2702712,485.47018059999937,485.4541386000001,484.46405609999965,,,,,,,,0,1,0.783945400000448,None,,,,,,,,825,21,M,R,2026-02-18_12h13.18.923,VisualSearch_2526_3,,2025.2.4,2026-02-18 12h13.19.219004 +0100,
vertical.xlsx,The target is tilted.,135,18,2,2,1,1,1,1,1,1,1,1,1,1,1,1,0,11,12,135,space,26.12937420000071,None,1,1,0.7302265999996962,None,space,7.533938699999453,None,0,1,1,1,,,,,2,2,18,0,485.47018059999937,,,,,,,,,,,,,,,,,,,,,485.4548802999998,485.47018059999937,485.9543211,485.9594320999995,485.9777561000001,486.72124729999996,,,,,486.72143909999977,486.7369152000001,486.9367682000002,486.92050990000007,485.9777561000001,,,,,,,,1,1,0.7302265999996962,None,,,,,,,,825,21,M,R,2026-02-18_12h13.18.923,VisualSearch_2526_3,,2025.2.4,2026-02-18 12h13.19.219004 +0100,
vertical.xlsx,The target is tilted.,135,19,3,2,0,1,1,1,0,0,0,0,0,0,0,0,1,3,4,135,space,26.12937420000071,None,0,1,0.5781173000004856,None,space,7.533938699999453,None,0,1,1,1,,,,,2,3,19,6,486.9367682000002,,,,,,,,,,,,,,,,,,,,,486.9212643000001,486.9367682000002,487.4206544999997,487.42558689999987,487.4439332000002,488.0376864,,,,,488.03787699999975,488.05327859999943,488.25319880000006,488.2369090000002,487.4439332000002,,,,,,,,0,1,0.5781173000004856,None,,,,,,,,825,21,M,R,2026-02-18_12h13.18.923,VisualSearch_2526_3,,2025.2.4,2026-02-18 12h13.19.219004 +0100,
vertical.xlsx,The target is tilted.,135,20,4,2,1,1,1,1,0,0,0,0,0,0,0,0,0,3,4,135,space,26.12937420000071,None,1,1,0.562517299999854,None,space,7.533938699999453,None,0,1,1,1,,,,,2,4,20,2,488.25319880000006,,,,,,,,,,,,,,,,,,,,,488.23766290000003,488.25319880000006,488.7370366999994,488.74146889999975,488.7587807,489.3373406999999,,,,,489.3375132000001,489.35289060000014,489.5530060000001,489.5369280999994,488.7587807,,,,,,,,1,1,0.562517299999854,None,,,,,,,,825,21,M,R,2026-02-18_12h13.18.923,VisualSearch_2526_3,,2025.2.4,2026-02-18 12h13.19.219004 +0100,
vertical.xlsx,The target is tilted.,135,21,5,2,1,0,0,0,0,0,0,0,0,0,0,0,0,0,1,135,space,26.12937420000071,None,1,1,0.5204051000000618,None,space,7.533938699999453,None,0,1,1,1,,,,,2,5,21,3,489.5530060000001,,,,,,,,,,,,,,,,,,,,,489.537644,489.5530060000001,490.03646200000003,490.04098280000017,490.0576338000001,490.5871135999996,,,,,490.5873041999994,490.6027911000001,490.8023771999997,490.78671849999955,490.0576338000001,,,,,,,,1,1,0.5204051000000618,None,,,,,,,,825,21,M,R,2026-02-18_12h13.18.923,VisualSearch_2526_3,,2025.2.4,2026-02-18 12h13.19.219004 +0100,
vertical.xlsx,The target is tilted.,135,22,6,2,0,1,1,1,1,1,1,1,1,1,1,1,1,11,12,135,space,26.12937420000071,None,0,1,1.548177399999986,None,space,7.533938699999453,None,0,1,1,1,,,,,2,6,22,4,490.8023771999997,,,,,,,,,,,,,,,,,,,,,490.7874576999993,490.8023771999997,491.2865899999997,491.29095809999944,491.30795229999967,492.8700315999995,,,,,492.8702016999996,492.8857277999996,493.08578260000013,493.0694532999996,491.30795229999967,,,,,,,,0,1,1.548177399999986,None,,,,,,,,825,21,M,R,2026-02-18_12h13.18.923,VisualSearch_2526_3,,2025.2.4,2026-02-18 12h13.19.219004 +0100,
vertical.xlsx,The target is tilted.,135,23,7,2,1,1,1,1,1,1,1,1,0,0,0,0,0,7,8,135,space,26.12937420000071,None,1,1,0.7174203999993551,None,space,7.533938699999453,None,0,1,1,1,,,,,2,7,23,1,493.08578260000013,,,,,,,,,,,,,,,,,,,,,493.0702932999993,493.08578260000013,493.5695704999998,493.5742298999994,493.59230299999945,494.3199593999998,,,,,494.32014699999945,494.3353984999994,494.53561399999944,494.51930600000014,493.59230299999945,,,,,,,,1,1,0.7174203999993551,None,,,,,,,,825,21,M,R,2026-02-18_12h13.18.923,VisualSearch_2526_3,,2025.2.4,2026-02-18 12h13.19.219004 +0100,
vertical.xlsx,The target is tilted.,135,24,0,3,0,1,1,1,1,1,1,1,1,1,1,1,1,11,12,135,space,26.12937420000071,None,0,1,1.2768324000007851,None,space,7.533938699999453,None,0,1,1,1,,,,,3,0,24,4,494.53561399999944,,,,,,,,,,,,,,,,,,,,,494.5200692999997,494.53561399999944,495.0191851999998,495.0237883,495.0417232,496.31960569999956,,,,,496.31977899999947,496.33503649999966,496.53527940000004,496.5189473999999,495.0417232,,,,,,,,0,1,1.2768324000007851,None,,,,,,,,825,21,M,R,2026-02-18_12h13.18.923,VisualSearch_2526_3,,2025.2.4,2026-02-18 12h13.19.219004 +0100,
vertical.xlsx,The target is tilted.,135,25,1,3,0,1,1,1,1,1,1,1,0,0,0,0,1,7,8,135,space,26.12937420000071,None,0,1,1.0491330999993806,None,space,7.533938699999453,None,0,1,1,1,,,,,3,1,25,5,496.53527940000004,,,,,,,,,,,,,,,,,,,,,496.5197269999999,496.53527940000004,497.0185709999996,497.0232968,497.0418347999994,498.1026820999996,,,,,498.1028749999996,498.1180279,498.3177971999994,498.30168109999977,497.0418347999994,,,,,,,,0,1,1.0491330999993806,None,,,,,,,,825,21,M,R,2026-02-18_12h13.18.923,VisualSearch_2526_3,,2025.2.4,2026-02-18 12h13.19.219004 +0100,
vertical.xlsx,The target is tilted.,135,26,2,3,1,1,1,1,0,0,0,0,0,0,0,0,0,3,4,135,space,26.12937420000071,None,1,1,0.47318949999953475,None,space,7.533938699999453,None,0,1,1,1,,,,,3,2,26,2,498.3177971999994,,,,,,,,,,,,,,,,,,,,,498.3024379999997,498.3177971999994,498.8016196999997,498.80586439999934,498.8233586999995,499.3021423,,,,,499.30233789999966,499.31767469999977,499.5179713999996,499.50185090000014,498.8233586999995,,,,,,,,1,1,0.47318949999953475,None,,,,,,,,825,21,M,R,2026-02-18_12h13.18.923,VisualSearch_2526_3,,2025.2.4,2026-02-18 12h13.19.219004 +0100,
vertical.xlsx,The target is tilted.,135,27,3,3,1,1,1,1,1,1,1,1,0,0,0,0,0,7,8,135,space,26.12937420000071,None,1,1,0.6289445000002161,None,space,7.533938699999453,None,0,1,1,1,,,,,3,3,27,1,499.5179713999996,,,,,,,,,,,,,,,,,,,,,499.50257710000005,499.5179713999996,500.00179539999954,500.00616509999963,500.02411440000014,500.6685467999996,,,,,500.6687357999999,500.68441900000016,500.8844126999993,500.8679932999994,500.02411440000014,,,,,,,,1,1,0.6289445000002161,None,,,,,,,,825,21,M,R,2026-02-18_12h13.18.923,VisualSearch_2526_3,,2025.2.4,2026-02-18 12h13.19.219004 +0100,
vertical.xlsx,The target is tilted.,135,28,4,3,0,1,1,1,0,0,0,0,0,0,0,0,1,3,4,135,space,26.12937420000071,None,0,1,0.5571264999998675,None,space,7.533938699999453,None,0,1,1,1,,,,,3,4,28,6,500.8844126999993,,,,,,,,,,,,,,,,,,,,,500.8687792999999,500.8844126999993,501.3680451,501.37322719999975,501.39202789999945,501.9521483999997,,,,,501.95234600000003,501.9671079999998,502.1673301000001,502.1514969,501.39202789999945,,,,,,,,0,1,0.5571264999998675,None,,,,,,,,825,21,M,R,2026-02-18_12h13.18.923,VisualSearch_2526_3,,2025.2.4,2026-02-18 12h13.19.219004 +0100,
vertical.xlsx,The target is tilted.,135,29,5,3,1,1,1,1,1,1,1,1,1,1,1,1,0,11,12,135,space,26.12937420000071,None,1,1,1.2192622000002302,None,space,7.533938699999453,None,0,1,1,1,,,,,3,5,29,0,502.1673301000001,,,,,,,,,,,,,,,,,,,,,502.15220989999943,502.1673301000001,502.6510288999998,502.65575420000005,502.6755929000001,503.90160689999993,,,,,503.9017795999998,503.91723379999985,504.11725149999984,504.10096220000014,502.6755929000001,,,,,,,,1,1,1.2192622000002302,None,,,,,,,,825,21,M,R,2026-02-18_12h13.18.923,VisualSearch_2526_3,,2025.2.4,2026-02-18 12h13.19.219004 +0100,
vertical.xlsx,The target is tilted.,135,30,6,3,0,0,0,0,0,0,0,0,0,0,0,0,1,1,1,135,space,26.12937420000071,None,0,1,0.5360727999996016,None,space,7.533938699999453,None,0,1,1,1,,,,,3,6,30,7,504.11725149999984,,,,,,,,,,,,,,,,,,,,,504.1017068000001,504.11725149999984,504.60118879999936,504.60628839999936,504.62465319999956,505.1682144999995,,,,,505.1684024999995,505.18336050000016,505.3837383,505.3676230000001,504.62465319999956,,,,,,,,0,1,0.5360727999996016,None,,,,,,,,825,21,M,R,2026-02-18_12h13.18.923,VisualSearch_2526_3,,2025.2.4,2026-02-18 12h13.19.219004 +0100,
vertical.xlsx,The target is tilted.,135,31,7,3,1,0,0,0,0,0,0,0,0,0,0,0,0,0,1,135,space,26.12937420000071,None,1,1,0.4678440999996383,None,space,7.533938699999453,None,0,1,1,1,,,,,3,7,31,3,505.3837383,,,,,,,,,,,,,,,,,,,,,505.36839879999934,505.3837383,505.86771679999947,505.8725494999999,505.8914672000001,506.3680005999995,,,,,506.36819019999984,506.3835742000001,506.5835354999999,506.56738159999986,505.8914672000001,,,,,,,,1,1,0.4678440999996383,None,,,,,,,,825,21,M,R,2026-02-18_12h13.18.923,VisualSearch_2526_3,,2025.2.4,2026-02-18 12h13.19.219004 +0100,
vertical.xlsx,The target is tilted.,135,32,0,4,1,0,0,0,0,0,0,0,0,0,0,0,0,0,1,135,space,26.12937420000071,None,1,1,0.3718023000001267,None,space,7.533938699999453,None,0,1,1,1,,,,,4,0,32,3,506.5835354999999,,,,,,,,,,,,,,,,,,,,,506.56816100000015,506.5835354999999,507.0669737999997,507.0716747999995,507.09120559999974,507.4673997,,,,,507.46759010000005,507.4832467999995,507.68335449999995,507.66719809999995,507.09120559999974,,,,,,,,1,1,0.3718023000001267,None,,,,,,,,825,21,M,R,2026-02-18_12h13.18.923,VisualSearch_2526_3,,2025.2.4,2026-02-18 12h13.19.219004 +0100,
vertical.xlsx,The target is tilted.,135,33,1,4,0,1,1,1,1,1,1,1,1,1,1,1,1,11,12,135,space,26.12937420000071,None,0,1,1.1652709999998478,None,space,7.533938699999453,None,0,1,1,1,,,,,4,1,33,4,507.68335449999995,,,,,,,,,,,,,,,,,,,,,507.66793229999985,507.68335449999995,508.16671809999934,508.17154839999966,508.19005449999986,509.3673375999997,,,,,509.3675081000001,509.3830699,509.58260919999975,509.56702229999973,508.19005449999986,,,,,,,,0,1,1.1652709999998478,None,,,,,,,,825,21,M,R,2026-02-18_12h13.18.923,VisualSearch_2526_3,,2025.2.4,2026-02-18 12h13.19.219004 +0100,
