file_name,block_instructions,target_example,thisN,thisTrialN,thisRepN,target_presence,opacity_1,opacity_2,opacity_3,opacity_4,opacity_5,opacity_6,opacity_7,opacity_8,opacity_9,opacity_10,opacity_11,opacity_12,n_distract,n_items,target_ori,key_resp_4.keys,key_resp_4.rt,key_resp_4.duration,key_resp.keys,key_resp.corr,key_resp.rt,key_resp.duration,key_resp_5.keys,key_resp_5.rt,key_resp_5.duration,blocks.thisRepN,blocks.thisTrialN,blocks.thisN,blocks.thisIndex,practice_trials.thisRepN,practice_trials.thisTrialN,practice_trials.thisN,practice_trials.thisIndex,trials.thisRepN,trials.thisTrialN,trials.thisN,trials.thisIndex,thisRow.t,notes,Welcome.started,WelcomeText.started,key_resp_2.started,Welcome.stopped,key_resp_2.keys,key_resp_2.rt,key_resp_2.duration,InformedConsent.started,text_4.started,InformedConsent.stopped,key_resp_6.keys,key_resp_6.rt,key_resp_6.duration,key_resp_4.started,example_target.started,text_3.started,blocks.key_resp_4.keys,blocks.key_resp_4.rt,blocks.key_resp_4.duration,FixCross.started,fixCross.started,FixCross.stopped,Stimulus.started,key_resp.started,Stimulus.stopped,practice_trials.key_resp.keys,practice_trials.key_resp.corr,practice_trials.key_resp.rt,practice_trials.key_resp.duration,BlankScreen.started,text.started,text.stopped,BlankScreen.stopped,fixCross.stopped,ExperimentStart.started,text_2.started,key_resp_5.started,ExperimentStart.stopped,blocks.key_resp_5.keys,blocks.key_resp_5.rt,blocks.key_resp_5.duration,trials.key_resp.keys,trials.key_resp.corr,trials.key_resp.rt,trials.key_resp.duration,Thanks.started,ThankYou.started,key_resp_3.started,Thanks.stopped,key_resp_3.keys,key_resp_3.rt,key_resp_3.duration,participant,leeftijd,gender,links/rechtshandig,date,expName,expVersion,psychopyVersion,expStart,
,,,,,,,,,,,,,,,,,,,,,,,,,,,,,,,,,,,,,,,,,,,,,,0.02900560000034602,0.04425500000070315,0.04425500000070315,28.520581700000548,space,28.454720099999577,None,,,,,,,,,,,,,,,,,,,,,,,,,,,,,,,,,,,,,,,,,,,,,,826,23,M,R,2026-02-18_12h28.23.521,VisualSearch_2526_3,,2025.2.4,2026-02-18 12h28.23.753137 +0100,
,,,,,,,,,,,,,,,,,,,,,,,,,,,,,,,,,,,,,,,,,,,,,,,,,,,,,28.52075650000006,28.52904050000052,32.23836360000041,y,3.710759500000677,None,,,,,,,,,,,,,,,,,,,,,,,,,,,,,,,,,,,,,,,,826,23,M,R,2026-02-18_12h28.23.521,VisualSearch_2526_3,,2025.2.4,2026-02-18 12h28.23.753137 +0100,
tilted.xlsx,The target is tilted.,117,0,0,0,0,0,0,0,0,0,0,0,0,0,0,0,1,1,1,117,space,5.729060099999515,None,1,0,0.5742350000000442,None,,,,0,0,0,0,0,0,0,7,,,,,38.04118120000021,,,,,,,,,,,,,,,32.28303870000036,32.28303870000036,32.28303870000036,space,5.729060099999515,None,38.036607600000025,38.04118120000021,38.53629500000079,38.54155340000034,38.56060450000041,39.1367063000007,1,0,0.5742350000000442,None,39.136906500000805,39.152375000000575,39.352580200000375,39.33641920000082,,,,,,,,,,,,,,,,,,,,826,23,M,R,2026-02-18_12h28.23.521,VisualSearch_2526_3,,2025.2.4,2026-02-18 12h28.23.753137 +0100,
tilted.xlsx,The target is tilted.,117,1,1,0,1,1,1,1,0,0,0,0,0,0,0,0,0,3,4,117,space,5.729060099999515,None,0,0,1.8206764000005933,None,,,,0,0,0,0,0,1,1,2,,,,,39.352580200000375,,,,,,,,,,,,,,,,,,,,,39.337272400000074,39.352580200000375,39.83596149999994,39.8405315,39.85442039999998,41.68606320000072,0,0,1.8206764000005933,None,41.686228600000504,41.70210700000007,41.90211900000031,41.88552510000045,39.85442039999998,,,,,,,,,,,,,,,,,,,826,23,M,R,2026-02-18_12h28.23.521,VisualSearch_2526_3,,2025.2.4,2026-02-18 12h28.23.753137 +0100,
tilted.xlsx,The target is tilted.,117,2,2,0,0,1,1,1,1,1,1,1,1,1,1,1,1,11,12,117,space,5.729060099999515,None,1,0,1.1297704999997222,None,,,,0,0,0,0,0,2,2,4,,,,,41.90211900000031,,,,,,,,,,,,,,,,,,,,,41.88612880000073,41.90211900000031,42.38546040000074,42.38969900000029,42.40695550000055,43.5520688000006,1,0,1.1297704999997222,None,43.552221900000404,43.56777039999997,43.76831480000055,43.75217740000062,42.40695550000055,,,,,,,,,,,,,,,,,,,826,23,M,R,2026-02-18_12h28.23.521,VisualSearch_2526_3,,2025.2.4,2026-02-18 12h28.23.753137 +0100,
tilted.xlsx,The target is tilted.,117,3,3,0,0,1,1,1,1,1,1,1,0,0,0,0,1,7,8,117,space,5.729060099999515,None,1,0,0.8613252999994074,None,,,,0,0,0,0,0,3,3,5,,,,,43.76831480000055,,,,,,,,,,,,,,,,,,,,,43.752839400000084,43.76831480000055,44.252468800000315,44.2575994000008,44.27448770000046,45.15133690000039,1,0,0.8613252999994074,None,45.151438200000484,45.16744250000011,,45.351861400000416,44.27448770000046,,,,,,,,,,,,,,,,,,,826,23,M,R,2026-02-18_12h28.23.521,VisualSearch_2526_3,,2025.2.4,2026-02-18 12h28.23.753137 +0100,
tilted.xlsx,The target is tilted.,117,4,4,0,1,1,1,1,1,1,1,1,1,1,1,1,0,11,12,117,space,5.729060099999515,None,1,1,1.9120394999999917,None,,,,0,0,0,0,0,4,4,0,,,,,45.368199300000015,,,,,,,,,,,,,,,,,,,,,45.35254150000037,45.368199300000015,45.85172170000078,45.85626390000016,45.873651700000664,47.80142810000052,1,1,1.9120394999999917,None,47.801583700000265,47.81715140000051,48.017574600000444,48.00161380000009,,,,,,,,,,,,,,,,,,,,826,23,M,R,2026-02-18_12h28.23.521,VisualSearch_2526_3,,2025.2.4,2026-02-18 12h28.23.753137 +0100,
tilted.xlsx,The target is tilted.,117,5,5,0,0,1,1,1,0,0,0,0,0,0,0,0,1,3,4,117,space,5.729060099999515,None,1,0,1.625028200000088,None,,,,0,0,0,0,0,5,5,6,,,,,48.017574600000444,,,,,,,,,,,,,,,,,,,,,48.00227880000057,48.017574600000444,48.501607800000784,48.50614930000029,48.51765180000075,50.1516229000008,1,0,1.625028200000088,None,50.15177180000046,50.16670770000019,50.36735190000036,50.35129050000069,48.51765180000075,,,,,,,,,,,,,,,,,,,826,23,M,R,2026-02-18_12h28.23.521,VisualSearch_2526_3,,2025.2.4,2026-02-18 12h28.23.753137 +0100,
tilted.xlsx,The target is tilted.,117,6,6,0,1,1,1,1,1,1,1,1,0,0,0,0,0,7,8,117,space,5.729060099999515,None,0,0,3.0339185000002544,None,,,,0,0,0,0,0,6,6,1,,,,,50.36735190000036,,,,,,,,,,,,,,,,,,,,,50.35192980000011,50.36735190000036,50.85101580000082,50.85551690000011,50.87216950000038,53.91759330000059,0,0,3.0339185000002544,None,53.91776100000061,53.93281410000054,54.13343669999995,54.117162200000166,50.87216950000038,,,,,,,,,,,,,,,,,,,826,23,M,R,2026-02-18_12h28.23.521,VisualSearch_2526_3,,2025.2.4,2026-02-18 12h28.23.753137 +0100,
tilted.xlsx,The target is tilted.,117,7,7,0,1,0,0,0,0,0,0,0,0,0,0,0,0,0,1,117,space,5.729060099999515,None,0,0,0.8095684999998412,None,,,,0,0,0,0,0,7,7,3,,,,,54.13343669999995,,,,,,,,,,,,,,,,,,,,,54.117877200000294,54.13343669999995,54.617153600000165,54.622267400000055,54.6381921000002,55.45112020000033,0,0,0.8095684999998412,None,55.45136530000036,55.46600269999999,55.666477900000245,55.65035280000029,54.6381921000002,,,,,,,,,,,,,,,,,,,826,23,M,R,2026-02-18_12h28.23.521,VisualSearch_2526_3,,2025.2.4,2026-02-18 12h28.23.753137 +0100,
tilted.xlsx,The target is tilted.,117,0,0,0,1,1,1,1,1,1,1,1,0,0,0,0,0,7,8,117,space,5.729060099999515,None,1,1,1.5480821999999534,None,space,4.896643099999892,None,0,0,0,0,,,,,0,0,0,1,60.599847299999965,,,,,,,,,,,,,,,,,,,,,60.59562240000014,60.599847299999965,61.08273310000004,61.08804490000057,61.10635280000042,62.66668019999997,,,,,62.66689580000002,62.68155800000022,62.882031900000584,62.86595540000053,,55.65768389999994,55.666477900000245,55.666477900000245,60.566519800000606,space,4.896643099999892,None,1,1,1.5480821999999534,None,,,,,,,,826,23,M,R,2026-02-18_12h28.23.521,VisualSearch_2526_3,,2025.2.4,2026-02-18 12h28.23.753137 +0100,
tilted.xlsx,The target is tilted.,117,1,1,0,0,1,1,1,0,0,0,0,0,0,0,0,1,3,4,117,space,5.729060099999515,None,0,1,1.3206150999994861,None,space,4.896643099999892,None,0,0,0,0,,,,,0,1,1,6,62.882031900000584,,,,,,,,,,,,,,,,,,,,,62.86678410000059,62.882031900000584,63.365814700000556,63.37099220000073,63.38776620000044,64.71517910000057,,,,,64.71526300000005,64.73090540000067,64.9314587000008,64.91487860000052,63.38776620000044,,,,,,,,0,1,1.3206150999994861,None,,,,,,,,826,23,M,R,2026-02-18_12h28.23.521,VisualSearch_2526_3,,2025.2.4,2026-02-18 12h28.23.753137 +0100,
tilted.xlsx,The target is tilted.,117,2,2,0,1,0,0,0,0,0,0,0,0,0,0,0,0,0,1,117,space,5.729060099999515,None,0,0,0.5586825000000317,None,space,4.896643099999892,None,0,0,0,0,,,,,0,2,2,3,64.9314587000008,,,,,,,,,,,,,,,,,,,,,64.91552500000034,64.9314587000008,65.41546580000067,65.42026609999994,65.43090670000038,65.99890070000038,,,,,65.99906350000037,66.01416130000052,66.2147902000006,66.19856810000056,65.43090670000038,,,,,,,,0,0,0.5586825000000317,None,,,,,,,,826,23,M,R,2026-02-18_12h28.23.521,VisualSearch_2526_3,,2025.2.4,2026-02-18 12h28.23.753137 +0100,
tilted.xlsx,The target is tilted.,117,3,3,0,0,1,1,1,1,1,1,1,0,0,0,0,1,7,8,117,space,5.729060099999515,None,1,0,1.2414623999993637,None,space,4.896643099999892,None,0,0,0,0,,,,,0,3,3,5,66.2147902000006,,,,,,,,,,,,,,,,,,,,,66.19933050000054,66.2147902000006,66.69870150000042,66.7038321,66.7208126000005,67.96573950000038,,,,,67.96598030000041,67.98051600000053,68.1809032000001,68.16427700000077,66.7208126000005,,,,,,,,1,0,1.2414623999993637,None,,,,,,,,826,23,M,R,2026-02-18_12h28.23.521,VisualSearch_2526_3,,2025.2.4,2026-02-18 12h28.23.753137 +0100,
tilted.xlsx,The target is tilted.,117,4,4,0,1,1,1,1,1,1,1,1,1,1,1,1,0,11,12,117,space,5.729060099999515,None,1,1,1.4674316000000545,None,space,4.896643099999892,None,0,0,0,0,,,,,0,4,4,0,68.1809032000001,,,,,,,,,,,,,,,,,,,,,68.16471189999993,68.1809032000001,68.6651821000005,68.67054189999999,68.6887727000003,70.1649223000004,,,,,70.16509790000055,70.1801301000005,70.38077550000071,70.36452760000066,68.6887727000003,,,,,,,,1,1,1.4674316000000545,None,,,,,,,,826,23,M,R,2026-02-18_12h28.23.521,VisualSearch_2526_3,,2025.2.4,2026-02-18 12h28.23.753137 +0100,
tilted.xlsx,The target is tilted.,117,5,5,0,0,1,1,1,1,1,1,1,1,1,1,1,1,11,12,117,space,5.729060099999515,None,1,0,4.114925299999413,None,space,4.896643099999892,None,0,0,0,0,,,,,0,5,5,4,70.38077550000071,,,,,,,,,,,,,,,,,,,,,70.36520010000004,70.38077550000071,70.86367130000053,70.86632720000034,70.88045050000073,74.99742650000007,,,,,74.99758380000003,75.01266329999999,75.21273670000028,75.19657980000011,70.88045050000073,,,,,,,,1,0,4.114925299999413,None,,,,,,,,826,23,M,R,2026-02-18_12h28.23.521,VisualSearch_2526_3,,2025.2.4,2026-02-18 12h28.23.753137 +0100,
tilted.xlsx,The target is tilted.,117,6,6,0,1,1,1,1,0,0,0,0,0,0,0,0,0,3,4,117,space,5.729060099999515,None,0,0,1.3207512999997562,None,space,4.896643099999892,None,0,0,0,0,,,,,0,6,6,2,75.21273670000028,,,,,,,,,,,,,,,,,,,,,75.19719860000077,75.21273670000028,75.69687750000048,75.7016661000007,75.71824930000002,77.04690110000047,,,,,77.04710830000022,77.06235050000032,77.26279580000028,77.24663340000006,75.71824930000002,,,,,,,,0,0,1.3207512999997562,None,,,,,,,,826,23,M,R,2026-02-18_12h28.23.521,VisualSearch_2526_3,,2025.2.4,2026-02-18 12h28.23.753137 +0100,
tilted.xlsx,The target is tilted.,117,7,7,0,0,0,0,0,0,0,0,0,0,0,0,0,1,1,1,117,space,5.729060099999515,None,0,1,0.5466504999994868,None,space,4.896643099999892,None,0,0,0,0,,,,,0,7,7,7,77.26279580000028,,,,,,,,,,,,,,,,,,,,,77.24734970000009,77.26279580000028,77.74676790000012,77.75162090000049,77.7681235,78.32982290000018,,,,,78.33001000000058,78.34545030000027,78.54591060000075,78.52988210000058,77.7681235,,,,,,,,0,1,0.5466504999994868,None,,,,,,,,826,23,M,R,2026-02-18_12h28.23.521,VisualSearch_2526_3,,2025.2.4,2026-02-18 12h28.23.753137 +0100,
tilted.xlsx,The target is tilted.,117,8,0,1,0,1,1,1,1,1,1,1,0,0,0,0,1,7,8,117,space,5.729060099999515,None,1,0,2.46394330000021,None,space,4.896643099999892,None,0,0,0,0,,,,,1,0,8,5,78.54591060000075,,,,,,,,,,,,,,,,,,,,,78.53060880000066,78.54591060000075,79.02971200000047,79.03349419999995,79.04835690000073,81.51318859999992,,,,,81.51337200000034,81.52823200000057,81.7284539000002,81.71279970000069,79.04835690000073,,,,,,,,1,0,2.46394330000021,None,,,,,,,,826,23,M,R,2026-02-18_12h28.23.521,VisualSearch_2526_3,,2025.2.4,2026-02-18 12h28.23.753137 +0100,
tilted.xlsx,The target is tilted.,117,9,1,1,1,1,1,1,1,1,1,1,0,0,0,0,0,7,8,117,space,5.729060099999515,None,1,1,1.1384563999999955,None,space,4.896643099999892,None,0,0,0,0,,,,,1,1,9,1,81.7284539000002,,,,,,,,,,,,,,,,,,,,,81.7135272000005,81.7284539000002,82.21280490000026,82.21786599999996,82.23288230000071,83.3791297000007,,,,,83.37929510000049,83.39468810000017,83.59516230000008,83.57913559999997,82.23288230000071,,,,,,,,1,1,1.1384563999999955,None,,,,,,,,826,23,M,R,2026-02-18_12h28.23.521,VisualSearch_2526_3,,2025.2.4,2026-02-18 12h28.23.753137 +0100,
tilted.xlsx,The target is tilted.,117,10,2,1,1,0,0,0,0,0,0,0,0,0,0,0,0,0,1,117,space,5.729060099999515,None,0,0,0.5549777000005633,None,space,4.896643099999892,None,0,0,0,0,,,,,1,2,10,3,83.59516230000008,,,,,,,,,,,,,,,,,,,,,83.57986729999993,83.59516230000008,84.07885460000034,84.08383410000079,84.10102200000074,84.66262069999993,,,,,84.6628154,84.67782940000052,84.87822350000079,84.8620434000004,84.10102200000074,,,,,,,,0,0,0.5549777000005633,None,,,,,,,,826,23,M,R,2026-02-18_12h28.23.521,VisualSearch_2526_3,,2025.2.4,2026-02-18 12h28.23.753137 +0100,
tilted.xlsx,The target is tilted.,117,11,3,1,0,0,0,0,0,0,0,0,0,0,0,0,1,1,1,117,space,5.729060099999515,None,0,1,0.9296733000001041,None,space,4.896643099999892,None,0,0,0,0,,,,,1,3,11,7,84.87822350000079,,,,,,,,,,,,,,,,,,,,,84.86276170000019,84.87822350000079,85.36192660000052,85.36647300000004,85.38333610000063,86.32838690000062,,,,,86.32854860000043,86.34410600000047,86.54460870000003,86.5286358000003,85.38333610000063,,,,,,,,0,1,0.9296733000001041,None,,,,,,,,826,23,M,R,2026-02-18_12h28.23.521,VisualSearch_2526_3,,2025.2.4,2026-02-18 12h28.23.753137 +0100,
tilted.xlsx,The target is tilted.,117,12,4,1,1,1,1,1,1,1,1,1,1,1,1,1,0,11,12,117,space,5.729060099999515,None,1,1,2.191965699999855,None,space,4.896643099999892,None,0,0,0,0,,,,,1,4,12,0,86.54460870000003,,,,,,,,,,,,,,,,,,,,,86.52937180000026,86.54460870000003,87.02854460000071,87.03303529999994,87.04962410000007,89.24501200000032,,,,,89.24519150000015,89.26035150000007,89.46092940000017,89.4445598000002,87.04962410000007,,,,,,,,1,1,2.191965699999855,None,,,,,,,,826,23,M,R,2026-02-18_12h28.23.521,VisualSearch_2526_3,,2025.2.4,2026-02-18 12h28.23.753137 +0100,
tilted.xlsx,The target is tilted.,117,13,5,1,1,1,1,1,0,0,0,0,0,0,0,0,0,3,4,117,space,5.729060099999515,None,0,0,1.092632500000036,None,space,4.896643099999892,None,0,0,0,0,,,,,1,5,13,2,89.46092940000017,,,,,,,,,,,,,,,,,,,,,89.44514860000072,89.46092940000017,89.94422320000012,89.9485568,89.96252900000036,91.06164140000055,,,,,91.06181780000043,91.0766278000001,91.2764216000005,91.2607450000005,89.96252900000036,,,,,,,,0,0,1.092632500000036,None,,,,,,,,826,23,M,R,2026-02-18_12h28.23.521,VisualSearch_2526_3,,2025.2.4,2026-02-18 12h28.23.753137 +0100,
tilted.xlsx,The target is tilted.,117,14,6,1,0,1,1,1,0,0,0,0,0,0,0,0,1,3,4,117,space,5.729060099999515,None,0,1,1.388997200000631,None,space,4.896643099999892,None,0,0,0,0,,,,,1,6,14,6,91.2764216000005,,,,,,,,,,,,,,,,,,,,,91.26100080000015,91.2764216000005,91.76049850000072,91.76470920000065,91.77899030000026,93.17685900000015,,,,,93.17695400000048,93.19292930000029,93.39366790000076,93.37724849999995,91.77899030000026,,,,,,,,0,1,1.388997200000631,None,,,,,,,,826,23,M,R,2026-02-18_12h28.23.521,VisualSearch_2526_3,,2025.2.4,2026-02-18 12h28.23.753137 +0100,
tilted.xlsx,The target is tilted.,117,15,7,1,0,1,1,1,1,1,1,1,1,1,1,1,1,11,12,117,space,5.729060099999515,None,1,0,3.137425799999619,None,space,4.896643099999892,None,0,0,0,0,,,,,1,7,15,4,93.39366790000076,,,,,,,,,,,,,,,,,,,,,93.37800180000067,93.39366790000076,93.87673870000071,93.87791360000028,93.89305100000001,97.04320450000068,,,,,97.04336970000077,97.0590686000005,97.25953490000029,97.24362970000038,93.89305100000001,,,,,,,,1,0,3.137425799999619,None,,,,,,,,826,23,M,R,2026-02-18_12h28.23.521,VisualSearch_2526_3,,2025.2.4,2026-02-18 12h28.23.753137 +0100,
tilted.xlsx,The target is tilted.,117,16,0,2,0,1,1,1,0,0,0,0,0,0,0,0,1,3,4,117,space,5.729060099999515,None,0,1,0.7450939999998809,None,space,4.896643099999892,None,0,0,0,0,,,,,2,0,16,6,97.25953490000029,,,,,,,,,,,,,,,,,,,,,97.24437470000066,97.25953490000029,97.74366940000073,97.74885380000069,97.76532250000037,98.52727480000067,,,,,98.52756820000013,98.54232020000018,98.74255820000053,98.72620350000034,97.76532250000037,,,,,,,,0,1,0.7450939999998809,None,,,,,,,,826,23,M,R,2026-02-18_12h28.23.521,VisualSearch_2526_3,,2025.2.4,2026-02-18 12h28.23.753137 +0100,
tilted.xlsx,The target is tilted.,117,17,1,2,1,0,0,0,0,0,0,0,0,0,0,0,0,0,1,117,space,5.729060099999515,None,0,0,0.7055156999995233,None,space,4.896643099999892,None,0,0,0,0,,,,,2,1,17,3,98.74255820000053,,,,,,,,,,,,,,,,,,,,,98.72697130000051,98.74255820000053,99.22658640000009,99.23162980000052,99.24793760000011,99.95983270000033,,,,,99.95998990000044,99.97520120000081,100.17529570000079,100.15914730000077,99.24793760000011,,,,,,,,0,0,0.7055156999995233,None,,,,,,,,826,23,M,R,2026-02-18_12h28.23.521,VisualSearch_2526_3,,2025.2.4,2026-02-18 12h28.23.753137 +0100,
tilted.xlsx,The target is tilted.,117,18,2,2,1,1,1,1,0,0,0,0,0,0,0,0,0,3,4,117,space,5.729060099999515,None,0,0,1.4397999000002528,None,space,4.896643099999892,None,0,0,0,0,,,,,2,2,18,2,100.17529570000079,,,,,,,,,,,,,,,,,,,,,100.15973750000012,100.17529570000079,100.65974600000027,100.66499610000028,100.68350700000065,102.12619300000006,,,,,102.12637820000054,102.14154039999994,102.34167539999999,102.32597930000065,100.68350700000065,,,,,,,,0,0,1.4397999000002528,None,,,,,,,,826,23,M,R,2026-02-18_12h28.23.521,VisualSearch_2526_3,,2025.2.4,2026-02-18 12h28.23.753137 +0100,
tilted.xlsx,The target is tilted.,117,19,3,2,0,1,1,1,1,1,1,1,1,1,1,1,1,11,12,117,space,5.729060099999515,None,1,0,1.6009782000000996,None,space,4.896643099999892,None,0,0,0,0,,,,,2,3,19,4,102.34167539999999,,,,,,,,,,,,,,,,,,,,,102.32670589999998,102.34167539999999,102.8259577000008,102.83134250000057,102.84971580000001,104.45954560000064,,,,,104.45974690000003,104.47455470000023,104.67470820000017,104.65858750000007,102.84971580000001,,,,,,,,1,0,1.6009782000000996,None,,,,,,,,826,23,M,R,2026-02-18_12h28.23.521,VisualSearch_2526_3,,2025.2.4,2026-02-18 12h28.23.753137 +0100,
tilted.xlsx,The target is tilted.,117,20,4,2,1,1,1,1,1,1,1,1,0,0,0,0,0,7,8,117,space,5.729060099999515,None,1,1,2.663162900000316,None,space,4.896643099999892,None,0,0,0,0,,,,,2,4,20,1,104.67470820000017,,,,,,,,,,,,,,,,,,,,,104.65935059999993,104.67470820000017,105.15890940000008,105.16350390000025,105.18042990000049,107.85813760000019,,,,,107.85830270000042,107.87386170000082,108.07464830000026,108.05832650000048,105.18042990000049,,,,,,,,1,1,2.663162900000316,None,,,,,,,,826,23,M,R,2026-02-18_12h28.23.521,VisualSearch_2526_3,,2025.2.4,2026-02-18 12h28.23.753137 +0100,
tilted.xlsx,The target is tilted.,117,21,5,2,0,0,0,0,0,0,0,0,0,0,0,0,1,1,1,117,space,5.729060099999515,None,0,1,0.6250184000000445,None,space,4.896643099999892,None,0,0,0,0,,,,,2,5,21,7,108.07464830000026,,,,,,,,,,,,,,,,,,,,,108.0590671,108.07464830000026,108.55818770000042,108.56274329999997,108.57854260000022,109.2084388000003,,,,,109.20861690000038,109.22369120000076,109.42382460000044,109.40776050000022,108.57854260000022,,,,,,,,0,1,0.6250184000000445,None,,,,,,,,826,23,M,R,2026-02-18_12h28.23.521,VisualSearch_2526_3,,2025.2.4,2026-02-18 12h28.23.753137 +0100,
tilted.xlsx,The target is tilted.,117,22,6,2,0,1,1,1,1,1,1,1,0,0,0,0,1,7,8,117,space,5.729060099999515,None,1,0,1.8894553000000087,None,space,4.896643099999892,None,0,0,0,0,,,,,2,6,22,5,109.42382460000044,,,,,,,,,,,,,,,,,,,,,109.40851629999997,109.42382460000044,109.90791919999992,109.91250420000051,109.92763210000066,111.82479070000045,,,,,111.82496570000058,111.8399300000001,112.04013840000061,112.02452110000013,109.92763210000066,,,,,,,,1,0,1.8894553000000087,None,,,,,,,,826,23,M,R,2026-02-18_12h28.23.521,VisualSearch_2526_3,,2025.2.4,2026-02-18 12h28.23.753137 +0100,
tilted.xlsx,The target is tilted.,117,23,7,2,1,1,1,1,1,1,1,1,1,1,1,1,0,11,12,117,space,5.729060099999515,None,0,0,3.372931700000663,None,space,4.896643099999892,None,0,0,0,0,,,,,2,7,23,0,112.04013840000061,,,,,,,,,,,,,,,,,,,,,112.02527140000075,112.04013840000061,112.52438400000028,112.52887450000071,112.54616370000076,115.92403430000013,,,,,115.9242105000003,115.93945729999996,116.13986650000061,116.12378340000032,112.54616370000076,,,,,,,,0,0,3.372931700000663,None,,,,,,,,826,23,M,R,2026-02-18_12h28.23.521,VisualSearch_2526_3,,2025.2.4,2026-02-18 12h28.23.753137 +0100,
tilted.xlsx,The target is tilted.,117,24,0,3,0,0,0,0,0,0,0,0,0,0,0,0,1,1,1,117,space,5.729060099999515,None,0,1,0.5398412999993525,None,space,4.896643099999892,None,0,0,0,0,,,,,3,0,24,7,116.13986650000061,,,,,,,,,,,,,,,,,,,,,116.12449570000081,116.13986650000061,116.62368670000069,116.62821620000068,116.64450930000021,117.19067040000027,,,,,117.19090720000077,117.20569490000071,117.40616990000035,117.39002750000054,116.64450930000021,,,,,,,,0,1,0.5398412999993525,None,,,,,,,,826,23,M,R,2026-02-18_12h28.23.521,VisualSearch_2526_3,,2025.2.4,2026-02-18 12h28.23.753137 +0100,
tilted.xlsx,The target is tilted.,117,25,1,3,0,1,1,1,1,1,1,1,1,1,1,1,1,11,12,117,space,5.729060099999515,None,1,0,3.040967699999783,None,space,4.896643099999892,None,0,0,0,0,,,,,3,1,25,4,117.40616990000035,,,,,,,,,,,,,,,,,,,,,117.39076390000082,117.40616990000035,117.88987720000023,117.89476290000039,117.91155080000044,120.95619260000058,,,,,120.95639160000064,120.97176410000066,121.17197470000065,121.15584800000033,117.91155080000044,,,,,,,,1,0,3.040967699999783,None,,,,,,,,826,23,M,R,2026-02-18_12h28.23.521,VisualSearch_2526_3,,2025.2.4,2026-02-18 12h28.23.753137 +0100,
tilted.xlsx,The target is tilted.,117,26,2,3,1,0,0,0,0,0,0,0,0,0,0,0,0,0,1,117,space,5.729060099999515,None,0,0,0.668337099999917,None,space,4.896643099999892,None,0,0,0,0,,,,,3,2,26,3,121.17197470000065,,,,,,,,,,,,,,,,,,,,,121.15659470000082,121.17197470000065,121.65589910000017,121.6609668000001,121.67650560000038,122.35631170000033,,,,,122.35650580000038,122.37160399999993,122.57207120000021,122.5554660000007,121.67650560000038,,,,,,,,0,0,0.668337099999917,None,,,,,,,,826,23,M,R,2026-02-18_12h28.23.521,VisualSearch_2526_3,,2025.2.4,2026-02-18 12h28.23.753137 +0100,
tilted.xlsx,The target is tilted.,117,27,3,3,0,1,1,1,1,1,1,1,0,0,0,0,1,7,8,117,space,5.729060099999515,None,0,1,2.6039913999993587,None,space,4.896643099999892,None,0,0,0,0,,,,,3,3,27,5,122.57207120000021,,,,,,,,,,,,,,,,,,,,,122.55605830000059,122.57207120000021,123.05517050000071,123.05873880000036,123.07362170000033,125.68928230000074,,,,,125.68947030000072,125.70431929999995,125.90496870000061,125.88877750000029,123.07362170000033,,,,,,,,0,1,2.6039913999993587,None,,,,,,,,826,23,M,R,2026-02-18_12h28.23.521,VisualSearch_2526_3,,2025.2.4,2026-02-18 12h28.23.753137 +0100,
tilted.xlsx,The target is tilted.,117,28,4,3,0,1,1,1,0,0,0,0,0,0,0,0,1,3,4,117,space,5.729060099999515,None,0,1,1.0359206000002814,None,space,4.896643099999892,None,0,0,0,0,,,,,3,4,28,6,125.90496870000061,,,,,,,,,,,,,,,,,,,,,125.88957440000013,125.90496870000061,126.3887319000005,126.39333510000051,126.40992860000006,127.45519120000063,,,,,127.45535150000069,127.47065340000063,127.67126680000001,127.65518790000078,126.40992860000006,,,,,,,,0,1,1.0359206000002814,None,,,,,,,,826,23,M,R,2026-02-18_12h28.23.521,VisualSearch_2526_3,,2025.2.4,2026-02-18 12h28.23.753137 +0100,
tilted.xlsx,The target is tilted.,117,29,5,3,1,1,1,1,0,0,0,0,0,0,0,0,0,3,4,117,space,5.729060099999515,None,0,0,0.9010020999994595,None,space,4.896643099999892,None,0,0,0,0,,,,,3,5,29,2,127.67126680000001,,,,,,,,,,,,,,,,,,,,,127.65596510000069,127.67126680000001,128.15531460000057,128.16000890000032,128.1765051000002,129.08815900000081,,,,,129.0883044000002,129.10368970000036,129.30415400000038,129.28819920000024,128.1765051000002,,,,,,,,0,0,0.9010020999994595,None,,,,,,,,826,23,M,R,2026-02-18_12h28.23.521,VisualSearch_2526_3,,2025.2.4,2026-02-18 12h28.23.753137 +0100,
tilted.xlsx,The target is tilted.,117,30,6,3,1,1,1,1,1,1,1,1,0,0,0,0,0,7,8,117,space,5.729060099999515,None,1,1,1.0079685999999128,None,space,4.896643099999892,None,0,0,0,0,,,,,3,6,30,1,129.30415400000038,,,,,,,,,,,,,,,,,,,,,129.28891300000032,129.30415400000038,129.78828200000044,129.7932739000007,129.80886460000056,130.82173180000063,,,,,130.8219136000007,130.8367898000006,131.03725550000036,131.0210560000005,129.80886460000056,,,,,,,,1,1,1.0079685999999128,None,,,,,,,,826,23,M,R,2026-02-18_12h28.23.521,VisualSearch_2526_3,,2025.2.4,2026-02-18 12h28.23.753137 +0100,
tilted.xlsx,The target is tilted.,117,31,7,3,1,1,1,1,1,1,1,1,1,1,1,1,0,11,12,117,space,5.729060099999515,None,1,1,1.8798972000004142,None,space,4.896643099999892,None,0,0,0,0,,,,,3,7,31,0,131.03725550000036,,,,,,,,,,,,,,,,,,,,,131.0218192000002,131.03725550000036,131.52121609999995,131.52584230000048,131.54182780000065,133.43688700000075,,,,,133.4369727000003,133.4529504000002,,133.63718080000035,131.54182780000065,,,,,,,,1,1,1.8798972000004142,None,,,,,,,,826,23,M,R,2026-02-18_12h28.23.521,VisualSearch_2526_3,,2025.2.4,2026-02-18 12h28.23.753137 +0100,
tilted.xlsx,The target is tilted.,117,32,0,4,0,0,0,0,0,0,0,0,0,0,0,0,1,1,1,117,space,5.729060099999515,None,0,1,0.6226212999999916,None,space,4.896643099999892,None,0,0,0,0,,,,,4,0,32,7,133.65359420000004,,,,,,,,,,,,,,,,,,,,,133.6379323000001,133.65359420000004,134.13708700000007,134.1416962000003,134.1580023000006,134.78770170000007,,,,,134.78788900000018,134.80287700000008,135.0032364000008,134.9870963000003,,,,,,,,,0,1,0.6226212999999916,None,,,,,,,,826,23,M,R,2026-02-18_12h28.23.521,VisualSearch_2526_3,,2025.2.4,2026-02-18 12h28.23.753137 +0100,
tilted.xlsx,The target is tilted.,117,33,1,4,0,1,1,1,1,1,1,1,0,0,0,0,1,7,8,117,space,5.729060099999515,None,0,1,2.5135003999994296,None,space,4.896643099999892,None,0,0,0,0,,,,,4,1,33,5,135.0032364000008,,,,,,,,,,,,,,,,,,,,,134.9878206000003,135.0032364000008,135.48711580000054,135.49170670000058,135.5077185,138.03658130000076,,,,,138.03678130000026,138.05225240000073,138.25287500000013,138.23661300000003,135.5077185,,,,,,,,0,1,2.5135003999994296,None,,,,,,,,826,23,M,R,2026-02-18_12h28.23.521,VisualSearch_2526_3,,2025.2.4,2026-02-18 12h28.23.753137 +0100,
tilted.xlsx,The target is tilted.,117,34,2,4,1,1,1,1,1,1,1,1,0,0,0,0,0,7,8,117,space,5.729060099999515,None,1,1,3.304952100000264,None,space,4.896643099999892,None,0,0,0,0,,,,,4,2,34,1,138.25287500000013,,,,,,,,,,,,,,,,,,,,,138.23735710000074,138.25287500000013,138.73658800000067,138.74170700000013,138.75720470000033,142.06978660000004,,,,,142.06995170000027,142.08491440000034,142.28511640000033,142.26937560000079,138.75720470000033,,,,,,,,1,1,3.304952100000264,None,,,,,,,,826,23,M,R,2026-02-18_12h28.23.521,VisualSearch_2526_3,,2025.2.4,2026-02-18 12h28.23.753137 +0100,
tilted.xlsx,The target is tilted.,117,35,3,4,0,1,1,1,1,1,1,1,1,1,1,1,1,11,12,117,space,5.729060099999515,None,1,0,2.6603095999998914,None,space,4.896643099999892,None,0,0,0,0,,,,,4,3,35,4,142.28511640000033,,,,,,,,,,,,,,,,,,,,,142.27009590000034,142.28511640000033,142.76932130000023,142.7738044000007,142.7890584000006,145.45258680000006,,,,,145.4527721000004,145.46765700000014,145.66833110000061,145.65213770000082,142.7890584000006,,,,,,,,1,0,2.6603095999998914,None,,,,,,,,826,23,M,R,2026-02-18_12h28.23.521,VisualSearch_2526_3,,2025.2.4,2026-02-18 12h28.23.753137 +0100,
tilted.xlsx,The target is tilted.,117,36,4,4,0,1,1,1,0,0,0,0,0,0,0,0,1,3,4,117,space,5.729060099999515,None,0,1,0.8921397000003708,None,space,4.896643099999892,None,0,0,0,0,,,,,4,4,36,6,145.66833110000061,,,,,,,,,,,,,,,,,,,,,145.65289140000004,145.66833110000061,146.15176350000002,146.15626520000023,146.17265600000064,147.06806210000013,,,,,147.06814810000014,147.08390660000077,,147.26827000000048,146.17265600000064,,,,,,,,0,1,0.8921397000003708,None,,,,,,,,826,23,M,R,2026-02-18_12h28.23.521,VisualSearch_2526_3,,2025.2.4,2026-02-18 12h28.23.753137 +0100,
tilted.xlsx,The target is tilted.,117,37,5,4,1,1,1,1,0,0,0,0,0,0,0,0,0,3,4,117,space,5.729060099999515,None,0,0,1.0782144000004337,None,space,4.896643099999892,None,0,0,0,0,,,,,4,5,37,2,147.2847328000007,,,,,,,,,,,,,,,,,,,,,147.26900190000015,147.2847328000007,147.76843929999995,147.77300960000048,147.78934170000048,148.8687920000002,,,,,148.86898420000034,148.8839224000003,149.08442390000073,149.06827030000022,147.78934170000048,,,,,,,,0,0,1.0782144000004337,None,,,,,,,,826,23,M,R,2026-02-18_12h28.23.521,VisualSearch_2526_3,,2025.2.4,2026-02-18 12h28.23.753137 +0100,
tilted.xlsx,The target is tilted.,117,38,6,4,1,1,1,1,1,1,1,1,1,1,1,1,0,11,12,117,space,5.729060099999515,None,1,1,0.8542165999997451,None,space,4.896643099999892,None,0,0,0,0,,,,,4,6,38,0,149.08442390000073,,,,,,,,,,,,,,,,,,,,,149.06899040000008,149.08442390000073,149.56826340000043,149.57289630000014,149.59020490000057,150.45150130000002,,,,,150.45167820000006,150.4666842000006,150.66674610000064,150.65046650000022,149.59020490000057,,,,,,,,1,1,0.8542165999997451,None,,,,,,,,826,23,M,R,2026-02-18_12h28.23.521,VisualSearch_2526_3,,2025.2.4,2026-02-18 12h28.23.753137 +0100,
tilted.xlsx,The target is tilted.,117,39,7,4,1,0,0,0,0,0,0,0,0,0,0,0,0,0,1,117,space,5.729060099999515,None,0,0,0.4831730999994761,None,space,4.896643099999892,None,0,0,0,0,,,,,4,7,39,3,150.66674610000064,,,,,,,,,,,,,,,,,,,,,150.65080480000051,150.66674610000064,151.15022670000053,151.15211440000076,151.1672212000003,151.66760310000063,,,,,151.66776879999998,151.68346220000058,151.88359280000077,151.86776650000047,151.1672212000003,,,,,,,,0,0,0.4831730999994761,None,,,,,,,,826,23,M,R,2026-02-18_12h28.23.521,VisualSearch_2526_3,,2025.2.4,2026-02-18 12h28.23.753137 +0100,
tilted.xlsx,The target is tilted.,117,40,0,5,0,0,0,0,0,0,0,0,0,0,0,0,1,1,1,117,space,5.729060099999515,None,0,1,0.6936613000007128,None,space,4.896643099999892,None,0,0,0,0,,,,,5,0,40,7,151.88359280000077,,,,,,,,,,,,,,,,,,,,,151.8685217000002,151.88359280000077,152.36780720000024,152.37291989999994,152.38961749999999,153.08471910000026,,,,,153.08489760000066,153.0995698000006,153.3002785000008,153.2840616000003,152.38961749999999,,,,,,,,0,1,0.6936613000007128,None,,,,,,,,826,23,M,R,2026-02-18_12h28.23.521,VisualSearch_2526_3,,2025.2.4,2026-02-18 12h28.23.753137 +0100,
tilted.xlsx,The target is tilted.,117,41,1,5,1,1,1,1,0,0,0,0,0,0,0,0,0,3,4,117,space,5.729060099999515,None,0,0,1.3326424000006227,None,space,4.896643099999892,None,0,0,0,0,,,,,5,1,41,2,153.3002785000008,,,,,,,,,,,,,,,,,,,,,153.2848197000003,153.3002785000008,153.7844171000006,153.7896255000005,153.8060716,155.15106860000014,,,,,155.15125770000031,155.16614200000004,155.36667680000028,155.35043550000046,153.8060716,,,,,,,,0,0,1.3326424000006227,None,,,,,,,,826,23,M,R,2026-02-18_12h28.23.521,VisualSearch_2526_3,,2025.2.4,2026-02-18 12h28.23.753137 +0100,
tilted.xlsx,The target is tilted.,117,42,2,5,1,1,1,1,1,1,1,1,0,0,0,0,0,7,8,117,space,5.729060099999515,None,1,1,1.1768640999998752,None,space,4.896643099999892,None,0,0,0,0,,,,,5,2,42,1,155.36667680000028,,,,,,,,,,,,,,,,,,,,,155.3511722000003,155.36667680000028,155.84979620000013,155.85243160000027,155.86635960000058,157.0508660000005,,,,,157.05106090000027,157.0658013000002,157.2660222000004,157.2500267000005,155.86635960000058,,,,,,,,1,1,1.1768640999998752,None,,,,,,,,826,23,M,R,2026-02-18_12h28.23.521,VisualSearch_2526_3,,2025.2.4,2026-02-18 12h28.23.753137 +0100,
tilted.xlsx,The target is tilted.,117,43,3,5,0,1,1,1,1,1,1,1,0,0,0,0,1,7,8,117,space,5.729060099999515,None,1,0,0.6961516999999731,None,space,4.896643099999892,None,0,0,0,0,,,,,5,3,43,5,157.2660222000004,,,,,,,,,,,,,,,,,,,,,157.25077450000026,157.2660222000004,157.7502323000008,157.7558536000006,157.77209220000077,158.48396720000073,,,,,158.48416890000044,158.4991480000008,158.69943160000003,158.6833391,157.77209220000077,,,,,,,,1,0,0.6961516999999731,None,,,,,,,,826,23,M,R,2026-02-18_12h28.23.521,VisualSearch_2526_3,,2025.2.4,2026-02-18 12h28.23.753137 +0100,
tilted.xlsx,The target is tilted.,117,44,4,5,1,0,0,0,0,0,0,0,0,0,0,0,0,0,1,117,space,5.729060099999515,None,0,0,0.5104143999997177,None,space,4.896643099999892,None,0,0,0,0,,,,,5,4,44,3,158.69943160000003,,,,,,,,,,,,,,,,,,,,,158.6840570000004,158.69943160000003,159.18332180000016,159.1889454000002,159.20563070000026,159.73236780000025,,,,,159.73246780000045,159.74857770000017,,159.9329417000008,159.20563070000026,,,,,,,,0,0,0.5104143999997177,None,,,,,,,,826,23,M,R,2026-02-18_12h28.23.521,VisualSearch_2526_3,,2025.2.4,2026-02-18 12h28.23.753137 +0100,
tilted.xlsx,The target is tilted.,117,45,5,5,0,1,1,1,1,1,1,1,1,1,1,1,1,11,12,117,space,5.729060099999515,None,0,1,2.840238299999328,None,space,4.896643099999892,None,0,0,0,0,,,,,5,5,45,4,159.9493183000004,,,,,,,,,,,,,,,,,,,,,159.93369370000073,159.9493183000004,160.43290210000032,160.43920650000018,160.45699409999997,163.2996395,,,,,163.29979960000037,163.31478900000002,163.51520880000044,163.49911659999998,,,,,,,,,0,1,2.840238299999328,None,,,,,,,,826,23,M,R,2026-02-18_12h28.23.521,VisualSearch_2526_3,,2025.2.4,2026-02-18 12h28.23.753137 +0100,
tilted.xlsx,The target is tilted.,117,46,6,5,1,1,1,1,1,1,1,1,1,1,1,1,0,11,12,117,space,5.729060099999515,None,1,1,0.8014818999999989,None,space,4.896643099999892,None,0,0,0,0,,,,,5,6,46,0,163.51520880000044,,,,,,,,,,,,,,,,,,,,,163.4997987000006,163.51520880000044,163.9990226,164.00304340000002,164.01477030000024,164.83220800000072,,,,,164.83239380000032,164.84788160000062,165.0483974000008,165.03185209999992,164.01477030000024,,,,,,,,1,1,0.8014818999999989,None,,,,,,,,826,23,M,R,2026-02-18_12h28.23.521,VisualSearch_2526_3,,2025.2.4,2026-02-18 12h28.23.753137 +0100,
tilted.xlsx,The target is tilted.,117,47,7,5,0,1,1,1,0,0,0,0,0,0,0,0,1,3,4,117,space,5.729060099999515,None,0,1,0.9735955000005561,None,space,4.896643099999892,None,0,0,0,0,,,,,5,7,47,6,165.0483974000008,,,,,,,,,,,,,,,,,,,,,165.03254319999996,165.0483974000008,165.53245730000071,165.5386343,165.55513229999997,166.5318184000007,,,,,166.5319724000001,166.5475823000006,166.74807910000072,166.73208280000017,165.55513229999997,,,,,,,,0,1,0.9735955000005561,None,,,,,,,,826,23,M,R,2026-02-18_12h28.23.521,VisualSearch_2526_3,,2025.2.4,2026-02-18 12h28.23.753137 +0100,
tilted.xlsx,The target is tilted.,117,48,0,6,1,1,1,1,1,1,1,1,0,0,0,0,0,7,8,117,space,5.729060099999515,None,1,1,1.7042609999998604,None,space,4.896643099999892,None,0,0,0,0,,,,,6,0,48,1,166.74807910000072,,,,,,,,,,,,,,,,,,,,,166.73280140000043,166.74807910000072,167.23163870000008,167.23731380000027,167.25319770000078,168.96543550000024,,,,,168.96561040000051,168.98048910000034,169.18115430000034,169.16510000000017,167.25319770000078,,,,,,,,1,1,1.7042609999998604,None,,,,,,,,826,23,M,R,2026-02-18_12h28.23.521,VisualSearch_2526_3,,2025.2.4,2026-02-18 12h28.23.753137 +0100,
tilted.xlsx,The target is tilted.,117,49,1,6,1,0,0,0,0,0,0,0,0,0,0,0,0,0,1,117,space,5.729060099999515,None,0,0,0.5082217000008313,None,space,4.896643099999892,None,0,0,0,0,,,,,6,1,49,3,169.18115430000034,,,,,,,,,,,,,,,,,,,,,169.16584630000034,169.18115430000034,169.66495590000068,169.67053710000073,169.68769070000053,170.19870170000013,,,,,170.1988983000001,170.21370410000054,170.41425030000028,170.39808670000002,169.68769070000053,,,,,,,,0,0,0.5082217000008313,None,,,,,,,,826,23,M,R,2026-02-18_12h28.23.521,VisualSearch_2526_3,,2025.2.4,2026-02-18 12h28.23.753137 +0100,
tilted.xlsx,The target is tilted.,117,50,2,6,0,1,1,1,1,1,1,1,0,0,0,0,1,7,8,117,space,5.729060099999515,None,0,1,1.7848045000000639,None,space,4.896643099999892,None,0,0,0,0,,,,,6,2,50,5,170.41425030000028,,,,,,,,,,,,,,,,,,,,,170.39880059999996,170.41425030000028,170.89813830000003,170.90448880000076,170.92100550000032,172.7147229000002,,,,,172.7148984000005,172.7298709000006,172.9303092,172.91430310000032,170.92100550000032,,,,,,,,0,1,1.7848045000000639,None,,,,,,,,826,23,M,R,2026-02-18_12h28.23.521,VisualSearch_2526_3,,2025.2.4,2026-02-18 12h28.23.753137 +0100,
tilted.xlsx,The target is tilted.,117,51,3,6,1,1,1,1,0,0,0,0,0,0,0,0,0,3,4,117,space,5.729060099999515,None,0,0,0.9509004000001369,None,space,4.896643099999892,None,0,0,0,0,,,,,6,3,51,2,172.9303092,,,,,,,,,,,,,,,,,,,,,172.91504020000048,172.9303092,173.4144997000003,173.42018650000045,173.43603280000025,174.3976106,,,,,174.3977915000005,174.41291590000037,174.6135471000007,174.5973130000002,173.43603280000025,,,,,,,,0,0,0.9509004000001369,None,,,,,,,,826,23,M,R,2026-02-18_12h28.23.521,VisualSearch_2526_3,,2025.2.4,2026-02-18 12h28.23.753137 +0100,
tilted.xlsx,The target is tilted.,117,52,4,6,1,1,1,1,1,1,1,1,1,1,1,1,0,11,12,117,space,5.729060099999515,None,1,1,0.9196594999993977,None,space,4.896643099999892,None,0,0,0,0,,,,,6,4,52,0,174.6135471000007,,,,,,,,,,,,,,,,,,,,,174.5980670000008,174.6135471000007,175.09729100000004,175.10273099999995,175.1190778,176.04767230000016,,,,,176.04793599999994,176.06280160000006,176.26315990000057,176.2470088,175.1190778,,,,,,,,1,1,0.9196594999993977,None,,,,,,,,826,23,M,R,2026-02-18_12h28.23.521,VisualSearch_2526_3,,2025.2.4,2026-02-18 12h28.23.753137 +0100,
tilted.xlsx,The target is tilted.,117,53,5,6,0,1,1,1,0,0,0,0,0,0,0,0,1,3,4,117,space,5.729060099999515,None,0,1,1.180432899999687,None,space,4.896643099999892,None,0,0,0,0,,,,,6,5,53,6,176.26315990000057,,,,,,,,,,,,,,,,,,,,,176.24777630000062,176.26315990000057,176.74713109999993,176.75324480000018,176.7679803000001,177.9627033000006,,,,,177.96279740000045,177.97900460000074,,178.16304390000005,176.7679803000001,,,,,,,,0,1,1.180432899999687,None,,,,,,,,826,23,M,R,2026-02-18_12h28.23.521,VisualSearch_2526_3,,2025.2.4,2026-02-18 12h28.23.753137 +0100,
tilted.xlsx,The target is tilted.,117,54,6,6,0,0,0,0,0,0,0,0,0,0,0,0,1,1,1,117,space,5.729060099999515,None,0,1,0.5884903999995004,None,space,4.896643099999892,None,0,0,0,0,,,,,6,6,54,7,178.1795144000007,,,,,,,,,,,,,,,,,,,,,178.16373640000074,178.1795144000007,178.6630625000007,178.66813160000038,178.67910990000019,179.27987310000026,,,,,179.28007320000052,179.29544410000017,179.4957925000008,179.47997430000032,178.67910990000019,,,,,,,,0,1,0.5884903999995004,None,,,,,,,,826,23,M,R,2026-02-18_12h28.23.521,VisualSearch_2526_3,,2025.2.4,2026-02-18 12h28.23.753137 +0100,
tilted.xlsx,The target is tilted.,117,55,7,6,0,1,1,1,1,1,1,1,1,1,1,1,1,11,12,117,space,5.729060099999515,None,0,1,2.6850211999999374,None,space,4.896643099999892,None,0,0,0,0,,,,,6,7,55,4,179.4957925000008,,,,,,,,,,,,,,,,,,,,,179.48071120000077,179.4957925000008,179.97997770000075,179.98663540000052,180.00240680000024,182.6961678000007,,,,,182.69634840000072,182.71165030000066,182.9122184000007,182.89575349999996,180.00240680000024,,,,,,,,0,1,2.6850211999999374,None,,,,,,,,826,23,M,R,2026-02-18_12h28.23.521,VisualSearch_2526_3,,2025.2.4,2026-02-18 12h28.23.753137 +0100,
tilted.xlsx,The target is tilted.,117,56,0,7,1,1,1,1,1,1,1,1,1,1,1,1,0,11,12,117,space,5.729060099999515,None,1,1,2.0255268999999316,None,space,4.896643099999892,None,0,0,0,0,,,,,7,0,56,0,182.9122184000007,,,,,,,,,,,,,,,,,,,,,182.89648639999996,182.9122184000007,183.3956779,183.40121970000018,183.41713810000056,185.44597160000012,,,,,185.44613620000018,185.4610543000008,185.66168900000048,185.64559840000038,183.41713810000056,,,,,,,,1,1,2.0255268999999316,None,,,,,,,,826,23,M,R,2026-02-18_12h28.23.521,VisualSearch_2526_3,,2025.2.4,2026-02-18 12h28.23.753137 +0100,
tilted.xlsx,The target is tilted.,117,57,1,7,1,0,0,0,0,0,0,0,0,0,0,0,0,0,1,117,space,5.729060099999515,None,0,0,0.5489163000002009,None,space,4.896643099999892,None,0,0,0,0,,,,,7,1,57,3,185.66168900000048,,,,,,,,,,,,,,,,,,,,,185.6463975000006,185.66168900000048,186.14541929999996,186.15089609999995,186.16570460000003,186.72856219999994,,,,,186.72876180000003,186.74416030000066,186.94495030000053,186.92858100000012,186.16570460000003,,,,,,,,0,0,0.5489163000002009,None,,,,,,,,826,23,M,R,2026-02-18_12h28.23.521,VisualSearch_2526_3,,2025.2.4,2026-02-18 12h28.23.753137 +0100,
tilted.xlsx,The target is tilted.,117,58,2,7,0,1,1,1,0,0,0,0,0,0,0,0,1,3,4,117,space,5.729060099999515,None,0,1,0.8562182999994548,None,space,4.896643099999892,None,0,0,0,0,,,,,7,2,58,6,186.94495030000053,,,,,,,,,,,,,,,,,,,,,186.9292658000004,186.94495030000053,187.4284927000008,187.4334331,187.4465041000003,188.31225770000037,,,,,188.31245510000008,188.32731460000014,188.52788899999996,188.51115740000023,187.4465041000003,,,,,,,,0,1,0.8562182999994548,None,,,,,,,,826,23,M,R,2026-02-18_12h28.23.521,VisualSearch_2526_3,,2025.2.4,2026-02-18 12h28.23.753137 +0100,
tilted.xlsx,The target is tilted.,117,59,3,7,0,1,1,1,1,1,1,1,1,1,1,1,1,11,12,117,space,5.729060099999515,None,1,0,2.5417178999996395,None,space,4.896643099999892,None,0,0,0,0,,,,,7,3,59,4,188.52788899999996,,,,,,,,,,,,,,,,,,,,,188.5117435000002,188.52788899999996,189.0119383000001,189.01794850000078,189.03370040000027,191.57820489999995,,,,,191.57839110000077,191.5934468000005,191.79389140000058,191.7775868000008,189.03370040000027,,,,,,,,1,0,2.5417178999996395,None,,,,,,,,826,23,M,R,2026-02-18_12h28.23.521,VisualSearch_2526_3,,2025.2.4,2026-02-18 12h28.23.753137 +0100,
tilted.xlsx,The target is tilted.,117,60,4,7,0,1,1,1,1,1,1,1,0,0,0,0,1,7,8,117,space,5.729060099999515,None,1,0,1.2569530000000668,None,space,4.896643099999892,None,0,0,0,0,,,,,7,4,60,5,191.79389140000058,,,,,,,,,,,,,,,,,,,,,191.7781887000001,191.79389140000058,192.2777743000006,192.2832197000007,192.3012320000007,193.56147710000005,,,,,193.56165130000045,193.5764633000008,193.7769683000006,193.76088430000073,192.3012320000007,,,,,,,,1,0,1.2569530000000668,None,,,,,,,,826,23,M,R,2026-02-18_12h28.23.521,VisualSearch_2526_3,,2025.2.4,2026-02-18 12h28.23.753137 +0100,
tilted.xlsx,The target is tilted.,117,61,5,7,0,0,0,0,0,0,0,0,0,0,0,0,1,1,1,117,space,5.729060099999515,None,0,1,0.9262202999998408,None,space,4.896643099999892,None,0,0,0,0,,,,,7,5,61,7,193.7769683000006,,,,,,,,,,,,,,,,,,,,,193.76159619999999,193.7769683000006,194.26092680000056,194.26659780000045,194.28268180000032,195.21121110000058,,,,,195.21140470000046,195.22619010000017,195.4267337000001,195.41064820000065,194.28268180000032,,,,,,,,0,1,0.9262202999998408,None,,,,,,,,826,23,M,R,2026-02-18_12h28.23.521,VisualSearch_2526_3,,2025.2.4,2026-02-18 12h28.23.753137 +0100,
tilted.xlsx,The target is tilted.,117,62,6,7,1,1,1,1,1,1,1,1,0,0,0,0,0,7,8,117,space,5.729060099999515,None,1,1,2.9943632999993497,None,space,4.896643099999892,None,0,0,0,0,,,,,7,6,62,1,195.4267337000001,,,,,,,,,,,,,,,,,,,,,195.41135550000035,195.4267337000001,195.91080260000035,195.91660350000075,195.93265370000063,198.9431222000003,,,,,198.9432749000007,198.9587846000004,199.15952800000014,199.1432267,195.93265370000063,,,,,,,,1,1,2.9943632999993497,None,,,,,,,,826,23,M,R,2026-02-18_12h28.23.521,VisualSearch_2526_3,,2025.2.4,2026-02-18 12h28.23.753137 +0100,
tilted.xlsx,The target is tilted.,117,63,7,7,1,1,1,1,0,0,0,0,0,0,0,0,0,3,4,117,space,5.729060099999515,None,0,0,1.5151439999999639,None,space,4.896643099999892,None,0,0,0,0,,,,,7,7,63,2,199.15952800000014,,,,,,,,,,,,,,,,,,,,,199.14388320000035,199.15952800000014,199.6432360000008,199.6487332000006,199.66392750000068,201.1928710000002,,,,,201.19304740000007,201.20849799999996,201.40912890000072,201.39303700000073,199.66392750000068,,,,,,,,0,0,1.5151439999999639,None,,,,,,,,826,23,M,R,2026-02-18_12h28.23.521,VisualSearch_2526_3,,2025.2.4,2026-02-18 12h28.23.753137 +0100,
tilted.xlsx,The target is tilted.,117,64,0,8,0,1,1,1,0,0,0,0,0,0,0,0,1,3,4,117,space,5.729060099999515,None,0,1,1.020021999999699,None,space,4.896643099999892,None,0,0,0,0,,,,,8,0,64,6,201.40912890000072,,,,,,,,,,,,,,,,,,,,,201.39374580000003,201.40912890000072,201.89291310000044,201.89885740000045,201.91430410000066,202.9438192000007,,,,,202.94402080000054,202.95827540000028,203.15882560000045,203.1427859000005,201.91430410000066,,,,,,,,0,1,1.020021999999699,None,,,,,,,,826,23,M,R,2026-02-18_12h28.23.521,VisualSearch_2526_3,,2025.2.4,2026-02-18 12h28.23.753137 +0100,
tilted.xlsx,The target is tilted.,117,65,1,8,0,1,1,1,1,1,1,1,1,1,1,1,1,11,12,117,space,5.729060099999515,None,1,0,1.960072200000468,None,space,4.896643099999892,None,0,0,0,0,,,,,8,1,65,4,203.15882560000045,,,,,,,,,,,,,,,,,,,,,203.14349650000077,203.15882560000045,203.6425532000003,203.64811270000064,203.66420030000063,205.6261884000005,,,,,205.6263740000004,205.6411235000005,205.8417358000006,205.8256349000003,203.66420030000063,,,,,,,,1,0,1.960072200000468,None,,,,,,,,826,23,M,R,2026-02-18_12h28.23.521,VisualSearch_2526_3,,2025.2.4,2026-02-18 12h28.23.753137 +0100,
tilted.xlsx,The target is tilted.,117,66,2,8,1,1,1,1,1,1,1,1,0,0,0,0,0,7,8,117,space,5.729060099999515,None,1,1,0.880963900000097,None,space,4.896643099999892,None,0,0,0,0,,,,,8,2,66,1,205.8417358000006,,,,,,,,,,,,,,,,,,,,,205.8263824000005,205.8417358000006,206.32541980000042,206.33058270000038,206.34148470000036,207.22578770000018,,,,,207.2259797000006,207.2408135000005,207.44128770000043,207.42544410000028,206.34148470000036,,,,,,,,1,1,0.880963900000097,None,,,,,,,,826,23,M,R,2026-02-18_12h28.23.521,VisualSearch_2526_3,,2025.2.4,2026-02-18 12h28.23.753137 +0100,
tilted.xlsx,The target is tilted.,117,67,3,8,1,1,1,1,1,1,1,1,1,1,1,1,0,11,12,117,space,5.729060099999515,None,1,1,1.9764971000004152,None,space,4.896643099999892,None,0,0,0,0,,,,,8,3,67,0,207.44128770000043,,,,,,,,,,,,,,,,,,,,,207.4262374,207.44128770000043,207.92522850000023,207.93067410000003,207.94710040000064,209.92529990000003,,,,,209.92545800000062,209.9403701000001,210.14033400000062,210.1240957,207.94710040000064,,,,,,,,1,1,1.9764971000004152,None,,,,,,,,826,23,M,R,2026-02-18_12h28.23.521,VisualSearch_2526_3,,2025.2.4,2026-02-18 12h28.23.753137 +0100,
tilted.xlsx,The target is tilted.,117,68,4,8,0,1,1,1,1,1,1,1,0,0,0,0,1,7,8,117,space,5.729060099999515,None,1,0,0.6251436000002286,None,space,4.896643099999892,None,0,0,0,0,,,,,8,4,68,5,210.14033400000062,,,,,,,,,,,,,,,,,,,,,210.12449689999994,210.14033400000062,210.62441430000035,210.6299938000002,210.64461389999997,211.27517420000004,,,,,211.27536670000063,211.29015710000021,211.49039710000034,211.4742797000008,210.64461389999997,,,,,,,,1,0,0.6251436000002286,None,,,,,,,,826,23,M,R,2026-02-18_12h28.23.521,VisualSearch_2526_3,,2025.2.4,2026-02-18 12h28.23.753137 +0100,
tilted.xlsx,The target is tilted.,117,69,5,8,0,0,0,0,0,0,0,0,0,0,0,0,1,1,1,117,space,5.729060099999515,None,0,1,0.5394186000003174,None,space,4.896643099999892,None,0,0,0,0,,,,,8,5,69,7,211.49039710000034,,,,,,,,,,,,,,,,,,,,,211.47504670000035,211.49039710000034,211.97455140000056,211.9799397000006,211.99464030000036,212.5423227000001,,,,,212.54253530000005,212.55688929999997,212.75722290000067,212.74126400000023,211.99464030000036,,,,,,,,0,1,0.5394186000003174,None,,,,,,,,826,23,M,R,2026-02-18_12h28.23.521,VisualSearch_2526_3,,2025.2.4,2026-02-18 12h28.23.753137 +0100,
tilted.xlsx,The target is tilted.,117,70,6,8,1,0,0,0,0,0,0,0,0,0,0,0,0,0,1,117,space,5.729060099999515,None,0,0,0.44976240000050893,None,space,4.896643099999892,None,0,0,0,0,,,,,8,6,70,3,212.75722290000067,,,,,,,,,,,,,,,,,,,,,212.74209000000064,212.75722290000067,213.24095390000002,213.2466318000006,213.26191290000042,213.72447120000015,,,,,213.72460450000017,213.73982940000042,213.9404043000004,213.92433860000074,213.26191290000042,,,,,,,,0,0,0.44976240000050893,None,,,,,,,,826,23,M,R,2026-02-18_12h28.23.521,VisualSearch_2526_3,,2025.2.4,2026-02-18 12h28.23.753137 +0100,
tilted.xlsx,The target is tilted.,117,71,7,8,1,1,1,1,0,0,0,0,0,0,0,0,0,3,4,117,space,5.729060099999515,None,0,0,0.8792249000007359,None,space,4.896643099999892,None,0,0,0,0,,,,,8,7,71,2,213.9404043000004,,,,,,,,,,,,,,,,,,,,,213.92510000000038,213.9404043000004,214.42409920000046,214.43025490000036,214.44632700000057,215.34050620000016,,,,,215.34068840000054,215.35617360000015,215.55674760000056,215.54078930000014,214.44632700000057,,,,,,,,0,0,0.8792249000007359,None,,,,,,,,826,23,M,R,2026-02-18_12h28.23.521,VisualSearch_2526_3,,2025.2.4,2026-02-18 12h28.23.753137 +0100,
tilted.xlsx,The target is tilted.,117,72,0,9,1,1,1,1,1,1,1,1,0,0,0,0,0,7,8,117,space,5.729060099999515,None,1,1,1.8389070000002903,None,space,4.896643099999892,None,0,0,0,0,,,,,9,0,72,1,215.55674760000056,,,,,,,,,,,,,,,,,,,,,215.54153430000042,215.55674760000056,216.0404980000003,216.04664130000037,216.06266870000036,217.90731850000066,,,,,217.90749200000027,217.92246370000066,218.12307820000024,218.10674280000057,216.06266870000036,,,,,,,,1,1,1.8389070000002903,None,,,,,,,,826,23,M,R,2026-02-18_12h28.23.521,VisualSearch_2526_3,,2025.2.4,2026-02-18 12h28.23.753137 +0100,
tilted.xlsx,The target is tilted.,117,73,1,9,1,1,1,1,0,0,0,0,0,0,0,0,0,3,4,117,space,5.729060099999515,None,0,0,0.95042629999989,None,space,4.896643099999892,None,0,0,0,0,,,,,9,1,73,2,218.12307820000024,,,,,,,,,,,,,,,,,,,,,218.10754180000004,218.12307820000024,218.6065167000006,218.6099434000007,218.62235899999996,219.5898427000002,,,,,219.5900117000001,219.60549140000057,219.80598680000003,219.79008150000027,218.62235899999996,,,,,,,,0,0,0.95042629999989,None,,,,,,,,826,23,M,R,2026-02-18_12h28.23.521,VisualSearch_2526_3,,2025.2.4,2026-02-18 12h28.23.753137 +0100,
tilted.xlsx,The target is tilted.,117,74,2,9,1,0,0,0,0,0,0,0,0,0,0,0,0,0,1,117,space,5.729060099999515,None,0,0,0.49958040000001347,None,space,4.896643099999892,None,0,0,0,0,,,,,9,2,74,3,219.80598680000003,,,,,,,,,,,,,,,,,,,,,219.79090110000016,219.80598680000003,220.28915430000052,220.2917449000006,220.3055888000008,220.8061957,,,,,220.80629860000045,220.8219484000001,221.0221500000007,221.00608590000047,220.3055888000008,,,,,,,,0,0,0.49958040000001347,None,,,,,,,,826,23,M,R,2026-02-18_12h28.23.521,VisualSearch_2526_3,,2025.2.4,2026-02-18 12h28.23.753137 +0100,
tilted.xlsx,The target is tilted.,117,75,3,9,0,0,0,0,0,0,0,0,0,0,0,0,1,1,1,117,space,5.729060099999515,None,0,1,0.5296651999997266,None,space,4.896643099999892,None,0,0,0,0,,,,,9,3,75,7,221.0221500000007,,,,,,,,,,,,,,,,,,,,,221.00694420000036,221.0221500000007,221.50607579999996,221.51226060000045,221.5314128,222.07359140000062,,,,,222.07378870000048,222.08848080000007,222.28908320000028,222.27308250000078,221.5314128,,,,,,,,0,1,0.5296651999997266,None,,,,,,,,826,23,M,R,2026-02-18_12h28.23.521,VisualSearch_2526_3,,2025.2.4,2026-02-18 12h28.23.753137 +0100,
tilted.xlsx,The target is tilted.,117,76,4,9,0,1,1,1,1,1,1,1,0,0,0,0,1,7,8,117,space,5.729060099999515,None,1,0,2.109966500000155,None,space,4.896643099999892,None,0,0,0,0,,,,,9,4,76,5,222.28908320000028,,,,,,,,,,,,,,,,,,,,,222.27395419999993,222.28908320000028,222.77251630000046,222.77863620000062,222.79519490000075,224.9221163000002,,,,,224.92227390000062,224.93782480000027,225.13804940000045,225.1218512000005,222.79519490000075,,,,,,,,1,0,2.109966500000155,None,,,,,,,,826,23,M,R,2026-02-18_12h28.23.521,VisualSearch_2526_3,,2025.2.4,2026-02-18 12h28.23.753137 +0100,
tilted.xlsx,The target is tilted.,117,77,5,9,0,1,1,1,1,1,1,1,1,1,1,1,1,11,12,117,space,5.729060099999515,None,1,0,0.9038619999992079,None,space,4.896643099999892,None,0,0,0,0,,,,,9,5,77,4,225.13804940000045,,,,,,,,,,,,,,,,,,,,,225.1225142000003,225.13804940000045,225.62254890000077,225.62869840000076,225.6456842000007,226.55605540000033,,,,,226.55624380000063,226.57111040000018,226.7715934000007,226.75497710000036,225.6456842000007,,,,,,,,1,0,0.9038619999992079,None,,,,,,,,826,23,M,R,2026-02-18_12h28.23.521,VisualSearch_2526_3,,2025.2.4,2026-02-18 12h28.23.753137 +0100,
tilted.xlsx,The target is tilted.,117,78,6,9,0,1,1,1,0,0,0,0,0,0,0,0,1,3,4,117,space,5.729060099999515,None,0,1,1.1158016999997926,None,space,4.896643099999892,None,0,0,0,0,,,,,9,6,78,6,226.7715934000007,,,,,,,,,,,,,,,,,,,,,226.75565480000023,226.7715934000007,227.2554540000001,227.2605325000004,227.2707921000001,228.3890835000002,,,,,228.38929520000056,228.40409780000027,228.60461440000017,228.58844490000047,227.2707921000001,,,,,,,,0,1,1.1158016999997926,None,,,,,,,,826,23,M,R,2026-02-18_12h28.23.521,VisualSearch_2526_3,,2025.2.4,2026-02-18 12h28.23.753137 +0100,
tilted.xlsx,The target is tilted.,117,79,7,9,1,1,1,1,1,1,1,1,1,1,1,1,0,11,12,117,space,5.729060099999515,None,1,1,2.60037789999933,None,space,4.896643099999892,None,0,0,0,0,,,,,9,7,79,0,228.60461440000017,,,,,,,,,,,,,,,,,,,,,228.58918429999994,228.60461440000017,229.0883317000007,229.09473400000024,229.10996400000022,231.7224350000006,,,,,231.7226210000008,231.73681390000002,231.93738290000056,231.9213090000003,229.10996400000022,,,,,,,,1,1,2.60037789999933,None,,,,,,,,826,23,M,R,2026-02-18_12h28.23.521,VisualSearch_2526_3,,2025.2.4,2026-02-18 12h28.23.753137 +0100,
tilted.xlsx,The target is tilted.,117,80,0,10,0,1,1,1,1,1,1,1,1,1,1,1,1,11,12,117,space,5.729060099999515,None,1,0,2.0962145000003147,None,space,4.896643099999892,None,0,0,0,0,,,,,10,0,80,4,231.93738290000056,,,,,,,,,,,,,,,,,,,,,231.92203280000012,231.93738290000056,232.421335,232.42723509999996,232.4437379000001,234.55395500000031,,,,,234.55411260000074,234.56963910000013,234.7702162000005,234.75410230000034,232.4437379000001,,,,,,,,1,0,2.0962145000003147,None,,,,,,,,826,23,M,R,2026-02-18_12h28.23.521,VisualSearch_2526_3,,2025.2.4,2026-02-18 12h28.23.753137 +0100,
tilted.xlsx,The target is tilted.,117,81,1,10,0,1,1,1,1,1,1,1,0,0,0,0,1,7,8,117,space,5.729060099999515,None,1,0,0.7123983000001317,None,space,4.896643099999892,None,0,0,0,0,,,,,10,1,81,5,234.7702162000005,,,,,,,,,,,,,,,,,,,,,234.75483160000022,234.7702162000005,235.25412060000053,235.25948100000005,235.27372130000003,235.98761790000026,,,,,235.9878950000002,236.0028084000005,236.2034276000004,236.18710640000063,235.27372130000003,,,,,,,,1,0,0.7123983000001317,None,,,,,,,,826,23,M,R,2026-02-18_12h28.23.521,VisualSearch_2526_3,,2025.2.4,2026-02-18 12h28.23.753137 +0100,
tilted.xlsx,The target is tilted.,117,82,2,10,1,1,1,1,1,1,1,1,1,1,1,1,0,11,12,117,space,5.729060099999515,None,0,0,5.218630200000007,None,space,4.896643099999892,None,0,0,0,0,,,,,10,2,82,0,236.2034276000004,,,,,,,,,,,,,,,,,,,,,236.18785050000042,236.2034276000004,236.68724550000024,236.69338270000026,236.70899350000036,241.93629300000066,,,,,241.9364469000002,241.9519237000004,242.1524304000004,242.1358626000001,236.70899350000036,,,,,,,,0,0,5.218630200000007,None,,,,,,,,826,23,M,R,2026-02-18_12h28.23.521,VisualSearch_2526_3,,2025.2.4,2026-02-18 12h28.23.753137 +0100,
tilted.xlsx,The target is tilted.,117,83,3,10,0,1,1,1,0,0,0,0,0,0,0,0,1,3,4,117,space,5.729060099999515,None,0,1,1.0010216999999102,None,space,4.896643099999892,None,0,0,0,0,,,,,10,3,83,6,242.1524304000004,,,,,,,,,,,,,,,,,,,,,242.1366562000003,242.1524304000004,242.63577370000075,242.64118580000013,242.65737200000058,243.66974970000047,,,,,243.66993870000078,243.6848761000001,243.88518620000013,243.86939540000003,242.65737200000058,,,,,,,,0,1,1.0010216999999102,None,,,,,,,,826,23,M,R,2026-02-18_12h28.23.521,VisualSearch_2526_3,,2025.2.4,2026-02-18 12h28.23.753137 +0100,
tilted.xlsx,The target is tilted.,117,84,4,10,0,0,0,0,0,0,0,0,0,0,0,0,1,1,1,117,space,5.729060099999515,None,0,1,0.5072298000004594,None,space,4.896643099999892,None,0,0,0,0,,,,,10,4,84,7,243.88518620000013,,,,,,,,,,,,,,,,,,,,,243.87021619999996,243.88518620000013,244.36946100000023,244.3756899,244.39255400000002,244.90302820000034,,,,,244.90319870000076,244.91848000000027,245.1186445000003,245.10268170000018,244.39255400000002,,,,,,,,0,1,0.5072298000004594,None,,,,,,,,826,23,M,R,2026-02-18_12h28.23.521,VisualSearch_2526_3,,2025.2.4,2026-02-18 12h28.23.753137 +0100,
tilted.xlsx,The target is tilted.,117,85,5,10,1,1,1,1,0,0,0,0,0,0,0,0,0,3,4,117,space,5.729060099999515,None,0,0,0.6378643999996711,None,space,4.896643099999892,None,0,0,0,0,,,,,10,5,85,2,245.1186445000003,,,,,,,,,,,,,,,,,,,,,245.1035107000007,245.1186445000003,245.60249710000062,245.60858380000082,245.6243656000006,246.2694476000006,,,,,246.2696362000006,246.28494590000082,246.48492350000015,246.46893720000025,245.6243656000006,,,,,,,,0,0,0.6378643999996711,None,,,,,,,,826,23,M,R,2026-02-18_12h28.23.521,VisualSearch_2526_3,,2025.2.4,2026-02-18 12h28.23.753137 +0100,
tilted.xlsx,The target is tilted.,117,86,6,10,1,1,1,1,1,1,1,1,0,0,0,0,0,7,8,117,space,5.729060099999515,None,1,1,2.0911097999996855,None,space,4.896643099999892,None,0,0,0,0,,,,,10,6,86,1,246.48492350000015,,,,,,,,,,,,,,,,,,,,,246.46968199999992,246.48492350000015,246.96887250000054,246.97455119999995,246.99006980000013,249.0850156000006,,,,,249.0852031000004,249.10108880000007,249.3011731000006,249.2848554000002,246.99006980000013,,,,,,,,1,1,2.0911097999996855,None,,,,,,,,826,23,M,R,2026-02-18_12h28.23.521,VisualSearch_2526_3,,2025.2.4,2026-02-18 12h28.23.753137 +0100,
tilted.xlsx,The target is tilted.,117,87,7,10,1,0,0,0,0,0,0,0,0,0,0,0,0,0,1,117,space,5.729060099999515,None,0,0,0.649126399999659,None,space,4.896643099999892,None,0,0,0,0,,,,,10,7,87,3,249.3011731000006,,,,,,,,,,,,,,,,,,,,,249.28559900000073,249.3011731000006,249.78524650000054,249.7905664,249.8009705000004,250.45212290000018,,,,,250.4523166000008,250.4674644000006,250.66734110000016,250.65115520000018,249.8009705000004,,,,,,,,0,0,0.649126399999659,None,,,,,,,,826,23,M,R,2026-02-18_12h28.23.521,VisualSearch_2526_3,,2025.2.4,2026-02-18 12h28.23.753137 +0100,
tilted.xlsx,The target is tilted.,117,88,0,11,1,0,0,0,0,0,0,0,0,0,0,0,0,0,1,117,space,5.729060099999515,None,0,0,0.46203260000038426,None,space,4.896643099999892,None,0,0,0,0,,,,,11,0,88,3,250.66734110000016,,,,,,,,,,,,,,,,,,,,,250.6519169000003,250.66734110000016,251.1515362,251.15764500000023,251.17439040000045,251.65204280000034,,,,,251.65226990000065,251.66747550000036,251.86743060000026,251.85110760000043,251.17439040000045,,,,,,,,0,0,0.46203260000038426,None,,,,,,,,826,23,M,R,2026-02-18_12h28.23.521,VisualSearch_2526_3,,2025.2.4,2026-02-18 12h28.23.753137 +0100,
tilted.xlsx,The target is tilted.,117,89,1,11,0,1,1,1,0,0,0,0,0,0,0,0,1,3,4,117,space,5.729060099999515,None,0,1,1.3619016000002375,None,space,4.896643099999892,None,0,0,0,0,,,,,11,1,89,6,251.86743060000026,,,,,,,,,,,,,,,,,,,,,251.85183660000075,251.86743060000026,252.35130000000026,252.35675790000005,252.3732404000002,253.75114900000062,,,,,253.7512755000007,253.7669762000005,253.9668190000002,253.95079880000048,252.3732404000002,,,,,,,,0,1,1.3619016000002375,None,,,,,,,,826,23,M,R,2026-02-18_12h28.23.521,VisualSearch_2526_3,,2025.2.4,2026-02-18 12h28.23.753137 +0100,
tilted.xlsx,The target is tilted.,117,90,2,11,0,0,0,0,0,0,0,0,0,0,0,0,1,1,1,117,space,5.729060099999515,None,0,1,0.5128796999997576,None,space,4.896643099999892,None,0,0,0,0,,,,,11,2,90,7,253.9668190000002,,,,,,,,,,,,,,,,,,,,,253.95166970000082,253.9668190000002,254.4509992000003,254.4584117000004,254.4752042,255.0005970000002,,,,,255.00067519999993,255.0166788000006,255.21670190000077,255.20100020000064,254.4752042,,,,,,,,0,1,0.5128796999997576,None,,,,,,,,826,23,M,R,2026-02-18_12h28.23.521,VisualSearch_2526_3,,2025.2.4,2026-02-18 12h28.23.753137 +0100,
tilted.xlsx,The target is tilted.,117,91,3,11,0,1,1,1,1,1,1,1,0,0,0,0,1,7,8,117,space,5.729060099999515,None,1,0,1.2200845000006666,None,space,4.896643099999892,None,0,0,0,0,,,,,11,3,91,5,255.21670190000077,,,,,,,,,,,,,,,,,,,,,255.20181709999997,255.21670190000077,255.70077710000078,255.70639980000033,255.7226872000001,256.9510966000007,,,,,256.9512852000007,256.9665109000007,257.16661600000043,257.1506192000006,255.7226872000001,,,,,,,,1,0,1.2200845000006666,None,,,,,,,,826,23,M,R,2026-02-18_12h28.23.521,VisualSearch_2526_3,,2025.2.4,2026-02-18 12h28.23.753137 +0100,
tilted.xlsx,The target is tilted.,117,92,4,11,1,1,1,1,0,0,0,0,0,0,0,0,0,3,4,117,space,5.729060099999515,None,0,0,0.8399970000000394,None,space,4.896643099999892,None,0,0,0,0,,,,,11,4,92,2,257.16661600000043,,,,,,,,,,,,,,,,,,,,,257.15142900000046,257.16661600000043,257.64931400000023,257.65204520000043,257.6657184000005,258.5174298000002,,,,,258.51762899999994,258.5328898000007,258.7331655000007,258.7168025000001,257.6657184000005,,,,,,,,0,0,0.8399970000000394,None,,,,,,,,826,23,M,R,2026-02-18_12h28.23.521,VisualSearch_2526_3,,2025.2.4,2026-02-18 12h28.23.753137 +0100,
tilted.xlsx,The target is tilted.,117,93,5,11,1,1,1,1,1,1,1,1,0,0,0,0,0,7,8,117,space,5.729060099999515,None,1,1,3.3001922000003105,None,space,4.896643099999892,None,0,0,0,0,,,,,11,5,93,1,258.7331655000007,,,,,,,,,,,,,,,,,,,,,258.7176519000004,258.7331655000007,259.2168367000004,259.22308710000016,259.23951880000004,262.5496753000007,,,,,262.54984779999995,262.5653768000002,262.76526210000065,262.7494252000006,259.23951880000004,,,,,,,,1,1,3.3001922000003105,None,,,,,,,,826,23,M,R,2026-02-18_12h28.23.521,VisualSearch_2526_3,,2025.2.4,2026-02-18 12h28.23.753137 +0100,
tilted.xlsx,The target is tilted.,117,94,6,11,1,1,1,1,1,1,1,1,1,1,1,1,0,11,12,117,space,5.729060099999515,None,1,1,1.0094147999998313,None,space,4.896643099999892,None,0,0,0,0,,,,,11,6,94,0,262.76526210000065,,,,,,,,,,,,,,,,,,,,,262.7501151000006,262.76526210000065,263.2493744000003,263.25367540000025,263.2658272000008,264.28261890000067,,,,,264.2828006,264.2982049000002,264.49868590000005,264.4825916,263.2658272000008,,,,,,,,1,1,1.0094147999998313,None,,,,,,,,826,23,M,R,2026-02-18_12h28.23.521,VisualSearch_2526_3,,2025.2.4,2026-02-18 12h28.23.753137 +0100,
tilted.xlsx,The target is tilted.,117,95,7,11,0,1,1,1,1,1,1,1,1,1,1,1,1,11,12,117,space,5.729060099999515,None,1,0,2.1924103000001196,None,space,4.896643099999892,None,0,0,0,0,,,,,11,7,95,4,264.49868590000005,,,,,,,,,,,,,,,,,,,,,264.4833027000004,264.49868590000005,264.9825432000007,264.98808590000044,265.0045147999999,267.19922380000025,,,,,267.1993912000007,267.21465870000065,267.4139515000006,267.39769030000025,265.0045147999999,,,,,,,,1,0,2.1924103000001196,None,,,,,,,,826,23,M,R,2026-02-18_12h28.23.521,VisualSearch_2526_3,,2025.2.4,2026-02-18 12h28.23.753137 +0100,
tilted.xlsx,The target is tilted.,117,96,0,12,0,1,1,1,1,1,1,1,0,0,0,0,1,7,8,117,space,5.729060099999515,None,1,0,2.415520500000639,None,space,4.896643099999892,None,0,0,0,0,,,,,12,0,96,5,267.4139515000006,,,,,,,,,,,,,,,,,,,,,267.39814990000013,267.4139515000006,267.8982149000003,267.90333250000003,267.9183529000002,270.34826990000056,,,,,270.3484281000001,270.36416350000036,270.5644284,270.5481770000006,267.9183529000002,,,,,,,,1,0,2.415520500000639,None,,,,,,,,826,23,M,R,2026-02-18_12h28.23.521,VisualSearch_2526_3,,2025.2.4,2026-02-18 12h28.23.753137 +0100,
tilted.xlsx,The target is tilted.,117,97,1,12,0,0,0,0,0,0,0,0,0,0,0,0,1,1,1,117,space,5.729060099999515,None,0,1,0.5081786000000648,None,space,4.896643099999892,None,0,0,0,0,,,,,12,1,97,7,270.5644284,,,,,,,,,,,,,,,,,,,,,270.5489127999999,270.5644284,271.0482262000005,271.0538004,271.06991370000014,271.58133290000023,,,,,271.58152490000066,271.5974117000005,271.79750930000046,271.78160879999996,271.06991370000014,,,,,,,,0,1,0.5081786000000648,None,,,,,,,,826,23,M,R,2026-02-18_12h28.23.521,VisualSearch_2526_3,,2025.2.4,2026-02-18 12h28.23.753137 +0100,
tilted.xlsx,The target is tilted.,117,98,2,12,1,1,1,1,1,1,1,1,0,0,0,0,0,7,8,117,space,5.729060099999515,None,1,1,1.625901100000192,None,space,4.896643099999892,None,0,0,0,0,,,,,12,2,98,1,271.79750930000046,,,,,,,,,,,,,,,,,,,,,271.78244690000065,271.79750930000046,272.2814533999999,272.28759320000063,272.3024239000006,273.9315669000007,,,,,273.93173790000037,273.9467708000002,274.14694710000003,274.1307403999999,272.3024239000006,,,,,,,,1,1,1.625901100000192,None,,,,,,,,826,23,M,R,2026-02-18_12h28.23.521,VisualSearch_2526_3,,2025.2.4,2026-02-18 12h28.23.753137 +0100,
tilted.xlsx,The target is tilted.,117,99,3,12,1,1,1,1,1,1,1,1,1,1,1,1,0,11,12,117,space,5.729060099999515,None,1,1,1.164538399999401,None,space,4.896643099999892,None,0,0,0,0,,,,,12,3,99,0,274.14694710000003,,,,,,,,,,,,,,,,,,,,,274.13187970000035,274.14694710000003,274.6307504000006,274.63683130000027,274.65163960000064,275.8311368000004,,,,,275.83130940000046,275.84676670000044,276.04679699999997,276.0303934000003,274.65163960000064,,,,,,,,1,1,1.164538399999401,None,,,,,,,,826,23,M,R,2026-02-18_12h28.23.521,VisualSearch_2526_3,,2025.2.4,2026-02-18 12h28.23.753137 +0100,
tilted.xlsx,The target is tilted.,117,100,4,12,0,1,1,1,1,1,1,1,1,1,1,1,1,11,12,117,space,5.729060099999515,None,1,0,2.305555799999638,None,space,4.896643099999892,None,0,0,0,0,,,,,12,4,100,4,276.04679699999997,,,,,,,,,,,,,,,,,,,,,276.03125,276.04679699999997,276.5307851000007,276.53696450000007,276.5534739000004,278.8639240000002,,,,,278.8640942000002,278.8795176000003,279.0796442000001,279.06346460000077,276.5534739000004,,,,,,,,1,0,2.305555799999638,None,,,,,,,,826,23,M,R,2026-02-18_12h28.23.521,VisualSearch_2526_3,,2025.2.4,2026-02-18 12h28.23.753137 +0100,
tilted.xlsx,The target is tilted.,117,101,5,12,1,1,1,1,0,0,0,0,0,0,0,0,0,3,4,117,space,5.729060099999515,None,0,0,1.0904418999998597,None,space,4.896643099999892,None,0,0,0,0,,,,,12,5,101,2,279.0796442000001,,,,,,,,,,,,,,,,,,,,,279.06412830000045,279.0796442000001,279.5631166000003,279.56920720000016,279.5864324000004,280.6798161000006,,,,,280.67998460000035,280.6955302000006,280.89587350000056,280.8799106000006,279.5864324000004,,,,,,,,0,0,1.0904418999998597,None,,,,,,,,826,23,M,R,2026-02-18_12h28.23.521,VisualSearch_2526_3,,2025.2.4,2026-02-18 12h28.23.753137 +0100,
tilted.xlsx,The target is tilted.,117,102,6,12,1,0,0,0,0,0,0,0,0,0,0,0,0,0,1,117,space,5.729060099999515,None,0,0,0.47967640000024403,None,space,4.896643099999892,None,0,0,0,0,,,,,12,6,102,3,280.89587350000056,,,,,,,,,,,,,,,,,,,,,280.8806245000005,280.89587350000056,281.3798312000008,281.38563780000004,281.40166640000007,281.8966220000002,,,,,281.8967956000006,281.9124548,282.1125195000004,282.0963961000007,281.40166640000007,,,,,,,,0,0,0.47967640000024403,None,,,,,,,,826,23,M,R,2026-02-18_12h28.23.521,VisualSearch_2526_3,,2025.2.4,2026-02-18 12h28.23.753137 +0100,
tilted.xlsx,The target is tilted.,117,103,7,12,0,1,1,1,0,0,0,0,0,0,0,0,1,3,4,117,space,5.729060099999515,None,0,1,1.195173999999497,None,space,4.896643099999892,None,0,0,0,0,,,,,12,7,103,6,282.1125195000004,,,,,,,,,,,,,,,,,,,,,282.09729570000036,282.1125195000004,282.5959892000001,282.60195999999996,282.6180583000005,283.82996230000026,,,,,283.830156,283.8453717000002,284.04521019999993,284.0293345,282.6180583000005,,,,,,,,0,1,1.195173999999497,None,,,,,,,,826,23,M,R,2026-02-18_12h28.23.521,VisualSearch_2526_3,,2025.2.4,2026-02-18 12h28.23.753137 +0100,
tilted.xlsx,The target is tilted.,117,104,0,13,1,1,1,1,0,0,0,0,0,0,0,0,0,3,4,117,space,5.729060099999515,None,0,0,1.0368402000003698,None,space,4.896643099999892,None,0,0,0,0,,,,,13,0,104,2,284.04521019999993,,,,,,,,,,,,,,,,,,,,,284.0300627000006,284.04521019999993,284.5289844000008,284.53403120000075,284.5495460000002,285.59589660000074,,,,,285.5960767000006,285.6113901000008,285.8118938000007,285.79595229999995,284.5495460000002,,,,,,,,0,0,1.0368402000003698,None,,,,,,,,826,23,M,R,2026-02-18_12h28.23.521,VisualSearch_2526_3,,2025.2.4,2026-02-18 12h28.23.753137 +0100,
tilted.xlsx,The target is tilted.,117,105,1,13,0,1,1,1,0,0,0,0,0,0,0,0,1,3,4,117,space,5.729060099999515,None,0,1,0.9613398999999845,None,space,4.896643099999892,None,0,0,0,0,,,,,13,1,105,6,285.8118938000007,,,,,,,,,,,,,,,,,,,,,285.79679360000046,285.8118938000007,286.29587900000024,286.30200570000034,286.3179740000005,287.29581660000076,,,,,287.2959879,287.3114538,287.5116719000007,287.49565130000065,286.3179740000005,,,,,,,,0,1,0.9613398999999845,None,,,,,,,,826,23,M,R,2026-02-18_12h28.23.521,VisualSearch_2526_3,,2025.2.4,2026-02-18 12h28.23.753137 +0100,
tilted.xlsx,The target is tilted.,117,106,2,13,0,0,0,0,0,0,0,0,0,0,0,0,1,1,1,117,space,5.729060099999515,None,0,1,0.4416652999998405,None,space,4.896643099999892,None,0,0,0,0,,,,,13,2,106,7,287.5116719000007,,,,,,,,,,,,,,,,,,,,,287.4965521000004,287.5116719000007,287.9954893000004,288.0016497000006,288.01762750000034,288.4626685000003,,,,,288.46287400000074,288.4776599000006,288.6779002000003,288.66211100000055,288.01762750000034,,,,,,,,0,1,0.4416652999998405,None,,,,,,,,826,23,M,R,2026-02-18_12h28.23.521,VisualSearch_2526_3,,2025.2.4,2026-02-18 12h28.23.753137 +0100,
tilted.xlsx,The target is tilted.,117,107,3,13,1,1,1,1,1,1,1,1,1,1,1,1,0,11,12,117,space,5.729060099999515,None,1,1,0.8845323999994434,None,space,4.896643099999892,None,0,0,0,0,,,,,13,3,107,0,288.6779002000003,,,,,,,,,,,,,,,,,,,,,288.6629057,288.6779002000003,289.16193700000076,289.16804840000077,289.1838428000001,290.0785513999999,,,,,290.0787052000005,290.09433870000066,290.29461020000053,290.27840520000063,289.1838428000001,,,,,,,,1,1,0.8845323999994434,None,,,,,,,,826,23,M,R,2026-02-18_12h28.23.521,VisualSearch_2526_3,,2025.2.4,2026-02-18 12h28.23.753137 +0100,
tilted.xlsx,The target is tilted.,117,108,4,13,0,1,1,1,1,1,1,1,0,0,0,0,1,7,8,117,space,5.729060099999515,None,1,0,2.335425100000066,None,space,4.896643099999892,None,0,0,0,0,,,,,13,4,108,5,290.29461020000053,,,,,,,,,,,,,,,,,,,,,290.2792199000005,290.29461020000053,290.77833270000065,290.78446669999994,290.80081130000053,293.1449678000008,,,,,293.14513850000003,293.16048150000006,293.36065320000034,293.34453759999997,290.80081130000053,,,,,,,,1,0,2.335425100000066,None,,,,,,,,826,23,M,R,2026-02-18_12h28.23.521,VisualSearch_2526_3,,2025.2.4,2026-02-18 12h28.23.753137 +0100,
tilted.xlsx,The target is tilted.,117,109,5,13,1,0,0,0,0,0,0,0,0,0,0,0,0,0,1,117,space,5.729060099999515,None,0,0,0.630173399999876,None,space,4.896643099999892,None,0,0,0,0,,,,,13,5,109,3,293.36065320000034,,,,,,,,,,,,,,,,,,,,,293.34526090000054,293.36065320000034,293.84415460000037,293.8489806000007,293.8628875000004,294.4942105,,,,,294.49431970000023,294.5101788000002,294.71053870000014,294.6944871000005,293.8628875000004,,,,,,,,0,0,0.630173399999876,None,,,,,,,,826,23,M,R,2026-02-18_12h28.23.521,VisualSearch_2526_3,,2025.2.4,2026-02-18 12h28.23.753137 +0100,
tilted.xlsx,The target is tilted.,117,110,6,13,1,1,1,1,1,1,1,1,0,0,0,0,0,7,8,117,space,5.729060099999515,None,1,1,1.2592837000001964,None,space,4.896643099999892,None,0,0,0,0,,,,,13,6,110,1,294.71053870000014,,,,,,,,,,,,,,,,,,,,,294.6953237000007,294.71053870000014,295.1944247000001,295.20081130000017,295.2169156,296.47782559999996,,,,,296.47801570000047,296.4932779999999,296.6933927,296.6771507000003,295.2169156,,,,,,,,1,1,1.2592837000001964,None,,,,,,,,826,23,M,R,2026-02-18_12h28.23.521,VisualSearch_2526_3,,2025.2.4,2026-02-18 12h28.23.753137 +0100,
tilted.xlsx,The target is tilted.,117,111,7,13,0,1,1,1,1,1,1,1,1,1,1,1,1,11,12,117,space,5.729060099999515,None,1,0,1.6592486000008648,None,space,4.896643099999892,None,0,0,0,0,,,,,13,7,111,4,296.6933927,,,,,,,,,,,,,,,,,,,,,296.6779793000005,296.6933927,297.1771292000003,297.1825028000003,297.19869000000017,298.8605606000001,,,,,298.8607299000005,298.8762104000007,299.0762383000001,299.06020810000064,297.19869000000017,,,,,,,,1,0,1.6592486000008648,None,,,,,,,,826,23,M,R,2026-02-18_12h28.23.521,VisualSearch_2526_3,,2025.2.4,2026-02-18 12h28.23.753137 +0100,
tilted.xlsx,The target is tilted.,117,112,0,14,0,1,1,1,0,0,0,0,0,0,0,0,1,3,4,117,space,5.729060099999515,None,0,1,0.7611879000005501,None,space,4.896643099999892,None,0,0,0,0,,,,,14,0,112,6,299.0762383000001,,,,,,,,,,,,,,,,,,,,,299.06094030000077,299.0762383000001,299.56026230000043,299.56625020000047,299.58098920000066,300.3595348000008,,,,,300.35963119999997,300.37580590000016,300.57594320000044,300.5598692000003,299.58098920000066,,,,,,,,0,1,0.7611879000005501,None,,,,,,,,826,23,M,R,2026-02-18_12h28.23.521,VisualSearch_2526_3,,2025.2.4,2026-02-18 12h28.23.753137 +0100,
tilted.xlsx,The target is tilted.,117,113,1,14,0,1,1,1,1,1,1,1,1,1,1,1,1,11,12,117,space,5.729060099999515,None,1,0,1.1144145999996908,None,space,4.896643099999892,None,0,0,0,0,,,,,14,1,113,4,300.57594320000044,,,,,,,,,,,,,,,,,,,,,300.56062740000016,300.57594320000044,301.0599703000007,301.0655050000005,301.0830767000007,302.2097883000006,,,,,302.20995800000037,302.22574390000045,302.4253926000001,302.4096313,301.0830767000007,,,,,,,,1,0,1.1144145999996908,None,,,,,,,,826,23,M,R,2026-02-18_12h28.23.521,VisualSearch_2526_3,,2025.2.4,2026-02-18 12h28.23.753137 +0100,
tilted.xlsx,The target is tilted.,117,114,2,14,1,1,1,1,0,0,0,0,0,0,0,0,0,3,4,117,space,5.729060099999515,None,0,0,0.6479812999996284,None,space,4.896643099999892,None,0,0,0,0,,,,,14,2,114,2,302.4253926000001,,,,,,,,,,,,,,,,,,,,,302.41036000000076,302.4253926000001,302.9096109000002,302.9150403000003,302.93238930000007,303.5932079000004,,,,,303.5933893000001,303.6086483000008,303.80892889999996,303.7922053000002,302.93238930000007,,,,,,,,0,0,0.6479812999996284,None,,,,,,,,826,23,M,R,2026-02-18_12h28.23.521,VisualSearch_2526_3,,2025.2.4,2026-02-18 12h28.23.753137 +0100,
tilted.xlsx,The target is tilted.,117,115,3,14,1,0,0,0,0,0,0,0,0,0,0,0,0,0,1,117,space,5.729060099999515,None,0,0,0.8598986000006335,None,space,4.896643099999892,None,0,0,0,0,,,,,14,3,115,3,303.80892889999996,,,,,,,,,,,,,,,,,,,,,303.7929595000005,303.80892889999996,304.2926401000004,304.29809939999996,304.31451580000066,305.17604930000016,,,,,305.1762195000001,305.19188250000025,305.3918009000008,305.37574960000074,304.31451580000066,,,,,,,,0,0,0.8598986000006335,None,,,,,,,,826,23,M,R,2026-02-18_12h28.23.521,VisualSearch_2526_3,,2025.2.4,2026-02-18 12h28.23.753137 +0100,
tilted.xlsx,The target is tilted.,117,116,4,14,0,0,0,0,0,0,0,0,0,0,0,0,1,1,1,117,space,5.729060099999515,None,0,1,0.5902624000000287,None,space,4.896643099999892,None,0,0,0,0,,,,,14,4,116,7,305.3918009000008,,,,,,,,,,,,,,,,,,,,,305.37646590000077,305.3918009000008,305.8752792000005,305.87869860000046,305.8917969000004,306.4927817000007,,,,,306.49295359999996,306.5082247,306.70840600000065,306.69217990000016,305.8917969000004,,,,,,,,0,1,0.5902624000000287,None,,,,,,,,826,23,M,R,2026-02-18_12h28.23.521,VisualSearch_2526_3,,2025.2.4,2026-02-18 12h28.23.753137 +0100,
tilted.xlsx,The target is tilted.,117,117,5,14,0,1,1,1,1,1,1,1,0,0,0,0,1,7,8,117,space,5.729060099999515,None,1,0,1.1236799999996947,None,space,4.896643099999892,None,0,0,0,0,,,,,14,5,117,5,306.70840600000065,,,,,,,,,,,,,,,,,,,,,306.6929342000003,306.70840600000065,307.19192160000057,307.1976936000001,307.21439400000054,308.34207530000003,,,,,308.3422451000006,308.3580718000003,308.55789260000074,308.5419485000002,307.21439400000054,,,,,,,,1,0,1.1236799999996947,None,,,,,,,,826,23,M,R,2026-02-18_12h28.23.521,VisualSearch_2526_3,,2025.2.4,2026-02-18 12h28.23.753137 +0100,
tilted.xlsx,The target is tilted.,117,118,6,14,1,1,1,1,1,1,1,1,0,0,0,0,0,7,8,117,space,5.729060099999515,None,1,1,1.3571150999996462,None,space,4.896643099999892,None,0,0,0,0,,,,,14,6,118,1,308.55789260000074,,,,,,,,,,,,,,,,,,,,,308.54267849999997,308.55789260000074,309.04208820000076,309.0473804000003,309.0578591000003,310.4255008,,,,,310.4256875000001,310.4407191,310.64096450000034,310.6250873000008,309.0578591000003,,,,,,,,1,1,1.3571150999996462,None,,,,,,,,826,23,M,R,2026-02-18_12h28.23.521,VisualSearch_2526_3,,2025.2.4,2026-02-18 12h28.23.753137 +0100,
tilted.xlsx,The target is tilted.,117,119,7,14,1,1,1,1,1,1,1,1,1,1,1,1,0,11,12,117,space,5.729060099999515,None,1,1,3.0638214999999036,None,space,4.896643099999892,None,0,0,0,0,,,,,14,7,119,0,310.64096450000034,,,,,,,,,,,,,,,,,,,,,310.6259050000008,310.64096450000034,311.1251310000007,311.13123930000074,311.1471760000004,314.22479470000053,,,,,314.2249664000001,314.2403383999999,314.45488380000006,314.42439040000045,311.1471760000004,,,,,,,,1,1,3.0638214999999036,None,,,,,,,,826,23,M,R,2026-02-18_12h28.23.521,VisualSearch_2526_3,,2025.2.4,2026-02-18 12h28.23.753137 +0100,
tilted.xlsx,The target is tilted.,117,0,0,0,,,,,,,,,,,,,,,,,space,5.729060099999515,None,,,,,space,4.896643099999892,None,0,0,0,0,,,,,,,,,,,,,,,,,,,,,,,,,,,,,,,,,,,,,,,,,,,,,,,,,,,,,,,,,,,,,,,826,23,M,R,2026-02-18_12h28.23.521,VisualSearch_2526_3,,2025.2.4,2026-02-18 12h28.23.753137 +0100,
vertical.xlsx,The target is tilted.,135,0,0,0,0,1,1,1,1,1,1,1,0,0,0,0,1,7,8,135,space,2.844065000000228,None,0,1,1.0730840999995053,None,,,,0,1,1,1,0,0,0,5,,,,,317.32619520000026,,,,,,,,,,,,,,,314.45488380000006,314.45488380000006,314.45488380000006,space,2.844065000000228,None,317.32235610000043,317.32619520000026,317.8234317000006,317.8289811000004,317.84514020000006,318.92370720000054,0,1,1.0730840999995053,None,318.92388370000026,318.93922160000056,319.1395439000007,319.1232006,,,,,,,,,,,,,,,,,,,,826,23,M,R,2026-02-18_12h28.23.521,VisualSearch_2526_3,,2025.2.4,2026-02-18 12h28.23.753137 +0100,
vertical.xlsx,The target is tilted.,135,1,1,0,1,1,1,1,1,1,1,1,0,0,0,0,0,7,8,135,space,2.844065000000228,None,1,1,0.4978083999994851,None,,,,0,1,1,1,0,1,1,1,,,,,319.1395439000007,,,,,,,,,,,,,,,,,,,,,319.12390230000074,319.1395439000007,319.62359670000023,319.62915000000066,319.6460579000004,320.1563292999999,1,1,0.4978083999994851,None,320.15642840000055,320.17246969999997,320.3727649000002,320.3565888000003,319.6460579000004,,,,,,,,,,,,,,,,,,,826,23,M,R,2026-02-18_12h28.23.521,VisualSearch_2526_3,,2025.2.4,2026-02-18 12h28.23.753137 +0100,
vertical.xlsx,The target is tilted.,135,2,2,0,0,0,0,0,0,0,0,0,0,0,0,0,1,1,1,135,space,2.844065000000228,None,0,1,0.4406328000004578,None,,,,0,1,1,1,0,2,2,7,,,,,320.3727649000002,,,,,,,,,,,,,,,,,,,,,320.3573911000003,320.3727649000002,320.85624890000054,320.8624989,320.87819690000015,321.32348600000023,0,1,0.4406328000004578,None,321.3236701000005,321.33933680000064,321.5394528000006,321.52331010000034,320.87819690000015,,,,,,,,,,,,,,,,,,,826,23,M,R,2026-02-18_12h28.23.521,VisualSearch_2526_3,,2025.2.4,2026-02-18 12h28.23.753137 +0100,
vertical.xlsx,The target is tilted.,135,3,3,0,1,1,1,1,1,1,1,1,1,1,1,1,0,11,12,135,space,2.844065000000228,None,1,1,1.6341332000001785,None,,,,0,1,1,1,0,3,3,0,,,,,321.5394528000006,,,,,,,,,,,,,,,,,,,,,321.5240653999999,321.5394528000006,322.02328410000064,322.0294633000003,322.0463154000008,323.6899407000001,1,1,1.6341332000001785,None,323.69010440000056,323.705148,323.9051795000005,323.8894145000004,322.0463154000008,,,,,,,,,,,,,,,,,,,826,23,M,R,2026-02-18_12h28.23.521,VisualSearch_2526_3,,2025.2.4,2026-02-18 12h28.23.753137 +0100,
vertical.xlsx,The target is tilted.,135,4,4,0,1,0,0,0,0,0,0,0,0,0,0,0,0,0,1,135,space,2.844065000000228,None,1,1,0.4583119999997507,None,,,,0,1,1,1,0,4,4,3,,,,,323.9051795000005,,,,,,,,,,,,,,,,,,,,,323.8901353000001,323.9051795000005,324.3890323000005,324.3941315000002,324.4049291000001,324.87319819999993,1,1,0.4583119999997507,None,324.8733813000008,324.8887480000003,325.08867940000073,325.0724420000006,324.4049291000001,,,,,,,,,,,,,,,,,,,826,23,M,R,2026-02-18_12h28.23.521,VisualSearch_2526_3,,2025.2.4,2026-02-18 12h28.23.753137 +0100,
vertical.xlsx,The target is tilted.,135,5,5,0,0,1,1,1,1,1,1,1,1,1,1,1,1,11,12,135,space,2.844065000000228,None,0,1,1.912427299999763,None,,,,0,1,1,1,0,5,5,4,,,,,325.08867940000073,,,,,,,,,,,,,,,,,,,,,325.0731448000006,325.08867940000073,325.5726300000006,325.5787093000008,325.5962177000001,327.5226418000002,0,1,1.912427299999763,None,327.52281220000077,327.5381974000002,327.73823130000073,327.7218618000006,325.5962177000001,,,,,,,,,,,,,,,,,,,826,23,M,R,2026-02-18_12h28.23.521,VisualSearch_2526_3,,2025.2.4,2026-02-18 12h28.23.753137 +0100,
vertical.xlsx,The target is tilted.,135,6,6,0,0,1,1,1,0,0,0,0,0,0,0,0,1,3,4,135,space,2.844065000000228,None,0,1,0.5487874999998894,None,,,,0,1,1,1,0,6,6,6,,,,,327.73823130000073,,,,,,,,,,,,,,,,,,,,,327.72240580000016,327.73823130000073,328.22171890000027,328.22746710000047,328.2452088,328.8055938000007,0,1,0.5487874999998894,None,328.8057471000002,328.82127149999997,329.02127350000046,329.00509930000044,328.2452088,,,,,,,,,,,,,,,,,,,826,23,M,R,2026-02-18_12h28.23.521,VisualSearch_2526_3,,2025.2.4,2026-02-18 12h28.23.753137 +0100,
vertical.xlsx,The target is tilted.,135,7,7,0,1,1,1,1,0,0,0,0,0,0,0,0,0,3,4,135,space,2.844065000000228,None,1,1,0.6287471000005098,None,,,,0,1,1,1,0,7,7,2,,,,,329.02127350000046,,,,,,,,,,,,,,,,,,,,,329.00578230000065,329.02127350000046,329.5038271000003,329.50516659999994,329.5210388000005,330.1556253000008,1,1,0.6287471000005098,None,330.1558081000003,330.17118520000076,330.3707940000004,330.35487080000075,329.5210388000005,,,,,,,,,,,,,,,,,,,826,23,M,R,2026-02-18_12h28.23.521,VisualSearch_2526_3,,2025.2.4,2026-02-18 12h28.23.753137 +0100,
vertical.xlsx,The target is tilted.,135,0,0,0,0,0,0,0,0,0,0,0,0,0,0,0,1,1,1,135,space,2.844065000000228,None,0,1,0.5109756000001653,None,space,1.2007308000002013,None,0,1,1,1,,,,,0,0,0,7,331.61681580000004,,,,,,,,,,,,,,,,,,,,,331.61313450000034,331.61681580000004,332.10440460000063,332.10947680000027,332.1207664000003,332.63837760000024,,,,,332.63855310000054,332.6540661000008,332.8542501000002,332.83809070000007,,330.36158950000026,330.3707940000004,330.3707940000004,331.5884941000004,space,1.2007308000002013,None,0,1,0.5109756000001653,None,,,,,,,,826,23,M,R,2026-02-18_12h28.23.521,VisualSearch_2526_3,,2025.2.4,2026-02-18 12h28.23.753137 +0100,
vertical.xlsx,The target is tilted.,135,1,1,0,0,1,1,1,1,1,1,1,0,0,0,0,1,7,8,135,space,2.844065000000228,None,0,1,1.5061079999995854,None,space,1.2007308000002013,None,0,1,1,1,,,,,0,1,1,5,332.8542501000002,,,,,,,,,,,,,,,,,,,,,332.8388668000007,332.8542501000002,333.33796620000066,333.3442156000001,333.36071750000065,334.871118,,,,,334.8713105000006,334.8869940000004,335.0866573000003,335.07098010000027,333.36071750000065,,,,,,,,0,1,1.5061079999995854,None,,,,,,,,826,23,M,R,2026-02-18_12h28.23.521,VisualSearch_2526_3,,2025.2.4,2026-02-18 12h28.23.753137 +0100,
vertical.xlsx,The target is tilted.,135,2,2,0,0,1,1,1,1,1,1,1,1,1,1,1,1,11,12,135,space,2.844065000000228,None,0,1,1.548982899999828,None,space,1.2007308000002013,None,0,1,1,1,,,,,0,2,2,4,335.0866573000003,,,,,,,,,,,,,,,,,,,,,335.0717087000003,335.0866573000003,335.57096900000033,335.57691969999996,335.59285400000044,337.1543719000001,,,,,337.15454709999995,337.1696649000005,337.3699894000001,337.35383230000025,335.59285400000044,,,,,,,,0,1,1.548982899999828,None,,,,,,,,826,23,M,R,2026-02-18_12h28.23.521,VisualSearch_2526_3,,2025.2.4,2026-02-18 12h28.23.753137 +0100,
vertical.xlsx,The target is tilted.,135,3,3,0,1,1,1,1,1,1,1,1,1,1,1,1,0,11,12,135,space,2.844065000000228,None,1,1,0.510123900000508,None,space,1.2007308000002013,None,0,1,1,1,,,,,0,3,3,0,337.3699894000001,,,,,,,,,,,,,,,,,,,,,337.3545643000007,337.3699894000001,337.85393079999994,337.8601387000008,337.8762054000008,338.38730750000013,,,,,338.38748209999994,338.4031794000002,338.6031868,338.58696469999995,337.8762054000008,,,,,,,,1,1,0.510123900000508,None,,,,,,,,826,23,M,R,2026-02-18_12h28.23.521,VisualSearch_2526_3,,2025.2.4,2026-02-18 12h28.23.753137 +0100,
vertical.xlsx,The target is tilted.,135,4,4,0,1,1,1,1,0,0,0,0,0,0,0,0,0,3,4,135,space,2.844065000000228,None,1,1,0.5373709000004965,None,space,1.2007308000002013,None,0,1,1,1,,,,,0,4,4,2,338.6031868,,,,,,,,,,,,,,,,,,,,,338.5877608999999,338.6031868,339.0870283000004,339.0921242000004,339.10281209999994,339.6540756000004,,,,,339.6542683000007,339.66953190000004,339.86973920000037,339.8536909000004,339.10281209999994,,,,,,,,1,1,0.5373709000004965,None,,,,,,,,826,23,M,R,2026-02-18_12h28.23.521,VisualSearch_2526_3,,2025.2.4,2026-02-18 12h28.23.753137 +0100,
vertical.xlsx,The target is tilted.,135,5,5,0,1,1,1,1,1,1,1,1,0,0,0,0,0,7,8,135,space,2.844065000000228,None,1,1,0.7222461999999723,None,space,1.2007308000002013,None,0,1,1,1,,,,,0,5,5,1,339.86973920000037,,,,,,,,,,,,,,,,,,,,,339.8545481000001,339.86973920000037,340.35342760000003,340.3589630000006,340.37561189999997,341.10381170000073,,,,,341.10400110000046,341.1189959000003,341.31892380000045,341.30345110000053,340.37561189999997,,,,,,,,1,1,0.7222461999999723,None,,,,,,,,826,23,M,R,2026-02-18_12h28.23.521,VisualSearch_2526_3,,2025.2.4,2026-02-18 12h28.23.753137 +0100,
vertical.xlsx,The target is tilted.,135,6,6,0,1,0,0,0,0,0,0,0,0,0,0,0,0,0,1,135,space,2.844065000000228,None,1,1,0.46052849999978207,None,space,1.2007308000002013,None,0,1,1,1,,,,,0,6,6,3,341.31892380000045,,,,,,,,,,,,,,,,,,,,,341.30438890000005,341.31892380000045,341.8033847000006,341.8096604000002,341.8262011000006,342.3036539000004,,,,,342.30384700000013,342.31911110000055,342.51919030000045,342.50297970000065,341.8262011000006,,,,,,,,1,1,0.46052849999978207,None,,,,,,,,826,23,M,R,2026-02-18_12h28.23.521,VisualSearch_2526_3,,2025.2.4,2026-02-18 12h28.23.753137 +0100,
vertical.xlsx,The target is tilted.,135,7,7,0,0,1,1,1,0,0,0,0,0,0,0,0,1,3,4,135,space,2.844065000000228,None,0,1,0.7221865000001344,None,space,1.2007308000002013,None,0,1,1,1,,,,,0,7,7,6,342.51919030000045,,,,,,,,,,,,,,,,,,,,,342.5037061000003,342.51919030000045,343.00299350000023,343.0084674,343.0254838000001,343.75346720000016,,,,,343.7537015000007,343.7685450000008,343.9689335000003,343.9528514000003,343.0254838000001,,,,,,,,0,1,0.7221865000001344,None,,,,,,,,826,23,M,R,2026-02-18_12h28.23.521,VisualSearch_2526_3,,2025.2.4,2026-02-18 12h28.23.753137 +0100,
vertical.xlsx,The target is tilted.,135,8,0,1,0,1,1,1,1,1,1,1,0,0,0,0,1,7,8,135,space,2.844065000000228,None,0,1,1.0793913000006796,None,space,1.2007308000002013,None,0,1,1,1,,,,,1,0,8,5,343.9689335000003,,,,,,,,,,,,,,,,,,,,,343.9535801000002,343.9689335000003,344.4523289000008,344.45489090000046,344.46870450000006,345.5525993000001,,,,,345.55277380000007,345.5685873000002,345.76855930000056,345.75253430000066,344.46870450000006,,,,,,,,0,1,1.0793913000006796,None,,,,,,,,826,23,M,R,2026-02-18_12h28.23.521,VisualSearch_2526_3,,2025.2.4,2026-02-18 12h28.23.753137 +0100,
vertical.xlsx,The target is tilted.,135,9,1,1,1,1,1,1,1,1,1,1,1,1,1,1,0,11,12,135,space,2.844065000000228,None,1,1,0.5001672999997027,None,space,1.2007308000002013,None,0,1,1,1,,,,,1,1,9,0,345.76855930000056,,,,,,,,,,,,,,,,,,,,,345.75324830000045,345.76855930000056,346.2523323000005,346.25770770000054,346.27315350000026,346.7858191000005,,,,,346.78599140000006,346.8017810000001,347.00180700000055,346.9853808000007,346.27315350000026,,,,,,,,1,1,0.5001672999997027,None,,,,,,,,826,23,M,R,2026-02-18_12h28.23.521,VisualSearch_2526_3,,2025.2.4,2026-02-18 12h28.23.753137 +0100,
vertical.xlsx,The target is tilted.,135,10,2,1,0,1,1,1,0,0,0,0,0,0,0,0,1,3,4,135,space,2.844065000000228,None,0,1,0.5790031999995335,None,space,1.2007308000002013,None,0,1,1,1,,,,,1,2,10,6,347.00180700000055,,,,,,,,,,,,,,,,,,,,,346.98593299999993,347.00180700000055,347.4854911000002,347.49095190000025,347.5067667000003,348.10254370000075,,,,,348.10271830000056,348.1181787000005,348.3182039000003,348.30217600000014,347.5067667000003,,,,,,,,0,1,0.5790031999995335,None,,,,,,,,826,23,M,R,2026-02-18_12h28.23.521,VisualSearch_2526_3,,2025.2.4,2026-02-18 12h28.23.753137 +0100,
vertical.xlsx,The target is tilted.,135,11,3,1,0,1,1,1,1,1,1,1,1,1,1,1,1,11,12,135,space,2.844065000000228,None,0,1,2.5187049000005572,None,space,1.2007308000002013,None,0,1,1,1,,,,,1,3,11,4,348.3182039000003,,,,,,,,,,,,,,,,,,,,,348.3029894000001,348.3182039000003,348.8022038000008,348.8083266000003,348.8265484000003,351.3519492000005,,,,,351.35211940000045,351.36746140000014,351.56765840000025,351.55148590000044,348.8265484000003,,,,,,,,0,1,2.5187049000005572,None,,,,,,,,826,23,M,R,2026-02-18_12h28.23.521,VisualSearch_2526_3,,2025.2.4,2026-02-18 12h28.23.753137 +0100,
vertical.xlsx,The target is tilted.,135,12,4,1,1,0,0,0,0,0,0,0,0,0,0,0,0,0,1,135,space,2.844065000000228,None,1,1,0.3568788000002314,None,space,1.2007308000002013,None,0,1,1,1,,,,,1,4,12,3,351.56765840000025,,,,,,,,,,,,,,,,,,,,,351.5522129000001,351.56765840000025,352.05139230000077,352.0568602000003,352.07299930000045,352.43509340000037,,,,,352.4352626,352.45073930000035,352.65080710000075,352.6342895000007,352.07299930000045,,,,,,,,1,1,0.3568788000002314,None,,,,,,,,826,23,M,R,2026-02-18_12h28.23.521,VisualSearch_2526_3,,2025.2.4,2026-02-18 12h28.23.753137 +0100,
vertical.xlsx,The target is tilted.,135,13,5,1,1,1,1,1,0,0,0,0,0,0,0,0,0,3,4,135,space,2.844065000000228,None,1,1,0.4979206999996677,None,space,1.2007308000002013,None,0,1,1,1,,,,,1,5,13,2,352.65080710000075,,,,,,,,,,,,,,,,,,,,,352.6349973000006,352.65080710000075,353.1348482000003,353.14096060000065,353.15691510000033,353.6684617000001,,,,,353.6686541000008,353.6839170000003,353.88351480000074,353.86738440000045,353.15691510000033,,,,,,,,1,1,0.4979206999996677,None,,,,,,,,826,23,M,R,2026-02-18_12h28.23.521,VisualSearch_2526_3,,2025.2.4,2026-02-18 12h28.23.753137 +0100,
vertical.xlsx,The target is tilted.,135,14,6,1,1,1,1,1,1,1,1,1,0,0,0,0,0,7,8,135,space,2.844065000000228,None,1,1,0.7710681999997178,None,space,1.2007308000002013,None,0,1,1,1,,,,,1,6,14,1,353.88351480000074,,,,,,,,,,,,,,,,,,,,,353.8680920000006,353.88351480000074,354.36787410000034,354.3740439000003,354.3913895000005,355.1678834000004,,,,,355.16805210000075,355.1837007000004,355.38386210000044,355.3674376000008,354.3913895000005,,,,,,,,1,1,0.7710681999997178,None,,,,,,,,826,23,M,R,2026-02-18_12h28.23.521,VisualSearch_2526_3,,2025.2.4,2026-02-18 12h28.23.753137 +0100,
vertical.xlsx,The target is tilted.,135,15,7,1,0,0,0,0,0,0,0,0,0,0,0,0,1,1,1,135,space,2.844065000000228,None,0,1,0.49608510000052775,None,space,1.2007308000002013,None,0,1,1,1,,,,,1,7,15,7,355.38386210000044,,,,,,,,,,,,,,,,,,,,,355.3681903000006,355.38386210000044,355.8670316000007,355.8718368,355.88355580000007,356.38460530000066,,,,,356.3847955000001,356.4000029000008,356.59978279999996,356.58369650000077,355.88355580000007,,,,,,,,0,1,0.49608510000052775,None,,,,,,,,826,23,M,R,2026-02-18_12h28.23.521,VisualSearch_2526_3,,2025.2.4,2026-02-18 12h28.23.753137 +0100,
vertical.xlsx,The target is tilted.,135,16,0,2,0,1,1,1,0,0,0,0,0,0,0,0,1,3,4,135,space,2.844065000000228,None,0,1,0.5115429999996195,None,space,1.2007308000002013,None,0,1,1,1,,,,,2,0,16,6,356.59978279999996,,,,,,,,,,,,,,,,,,,,,356.5844558000008,356.59978279999996,357.0840341000003,357.09020260000034,357.1072868000001,357.63404489999994,,,,,357.63418750000073,357.64983140000004,357.8494573000007,357.83364789999996,357.1072868000001,,,,,,,,0,1,0.5115429999996195,None,,,,,,,,826,23,M,R,2026-02-18_12h28.23.521,VisualSearch_2526_3,,2025.2.4,2026-02-18 12h28.23.753137 +0100,
vertical.xlsx,The target is tilted.,135,17,1,2,1,1,1,1,1,1,1,1,1,1,1,1,0,11,12,135,space,2.844065000000228,None,1,1,0.9856213000002754,None,space,1.2007308000002013,None,0,1,1,1,,,,,2,1,17,0,357.8494573000007,,,,,,,,,,,,,,,,,,,,,357.8341255000005,357.8494573000007,358.3339588000008,358.3400685000006,358.3564752000002,359.35075959999995,,,,,359.35093190000043,359.36623770000006,359.56614790000003,359.55002180000065,358.3564752000002,,,,,,,,1,1,0.9856213000002754,None,,,,,,,,826,23,M,R,2026-02-18_12h28.23.521,VisualSearch_2526_3,,2025.2.4,2026-02-18 12h28.23.753137 +0100,
vertical.xlsx,The target is tilted.,135,18,2,2,1,1,1,1,0,0,0,0,0,0,0,0,0,3,4,135,space,2.844065000000228,None,1,1,0.44277559999954974,None,space,1.2007308000002013,None,0,1,1,1,,,,,2,2,18,2,359.56614790000003,,,,,,,,,,,,,,,,,,,,,359.55084239999996,359.56614790000003,360.0495742000003,360.0527423000003,360.0660471000001,360.51695480000035,,,,,360.5171136000008,360.5327298000002,360.73289449999993,360.7163618000004,360.0660471000001,,,,,,,,1,1,0.44277559999954974,None,,,,,,,,826,23,M,R,2026-02-18_12h28.23.521,VisualSearch_2526_3,,2025.2.4,2026-02-18 12h28.23.753137 +0100,
vertical.xlsx,The target is tilted.,135,19,3,2,0,0,0,0,0,0,0,0,0,0,0,0,1,1,1,135,space,2.844065000000228,None,0,1,0.4336623999997755,None,space,1.2007308000002013,None,0,1,1,1,,,,,2,3,19,7,360.73289449999993,,,,,,,,,,,,,,,,,,,,,360.71718990000045,360.73289449999993,361.2166068000006,361.22277530000065,361.24182460000065,361.6837450000003,,,,,361.68393490000017,361.69933930000025,361.89934360000007,361.8832648000007,361.24182460000065,,,,,,,,0,1,0.4336623999997755,None,,,,,,,,826,23,M,R,2026-02-18_12h28.23.521,VisualSearch_2526_3,,2025.2.4,2026-02-18 12h28.23.753137 +0100,
vertical.xlsx,The target is tilted.,135,20,4,2,0,1,1,1,1,1,1,1,0,0,0,0,1,7,8,135,space,2.844065000000228,None,0,1,1.2202919999999722,None,space,1.2007308000002013,None,0,1,1,1,,,,,2,4,20,5,361.89934360000007,,,,,,,,,,,,,,,,,,,,,361.88409630000024,361.89934360000007,362.3834888000001,362.3896424000004,362.4061399000002,363.63330769999993,,,,,363.63351690000036,363.64891720000014,363.84883380000065,363.8326084,362.4061399000002,,,,,,,,0,1,1.2202919999999722,None,,,,,,,,826,23,M,R,2026-02-18_12h28.23.521,VisualSearch_2526_3,,2025.2.4,2026-02-18 12h28.23.753137 +0100,
vertical.xlsx,The target is tilted.,135,21,5,2,1,0,0,0,0,0,0,0,0,0,0,0,0,0,1,135,space,2.844065000000228,None,1,1,0.4499616999992213,None,space,1.2007308000002013,None,0,1,1,1,,,,,2,5,21,3,363.84883380000065,,,,,,,,,,,,,,,,,,,,,363.83335460000035,363.84883380000065,364.33245110000007,364.3377810000002,364.35447770000064,364.8159895000008,,,,,364.8161630000004,364.83197930000006,365.03214990000015,365.01582959999996,364.35447770000064,,,,,,,,1,1,0.4499616999992213,None,,,,,,,,826,23,M,R,2026-02-18_12h28.23.521,VisualSearch_2526_3,,2025.2.4,2026-02-18 12h28.23.753137 +0100,
vertical.xlsx,The target is tilted.,135,22,6,2,1,1,1,1,1,1,1,1,0,0,0,0,0,7,8,135,space,2.844065000000228,None,1,1,0.6358970000001136,None,space,1.2007308000002013,None,0,1,1,1,,,,,2,6,22,1,365.03214990000015,,,,,,,,,,,,,,,,,,,,,365.01664560000063,365.03214990000015,365.51572730000044,365.52117520000047,365.53713830000015,366.18298480000067,,,,,366.18317470000056,366.19822470000054,366.39863349999996,366.38264789999994,365.53713830000015,,,,,,,,1,1,0.6358970000001136,None,,,,,,,,826,23,M,R,2026-02-18_12h28.23.521,VisualSearch_2526_3,,2025.2.4,2026-02-18 12h28.23.753137 +0100,
vertical.xlsx,The target is tilted.,135,23,7,2,0,1,1,1,1,1,1,1,1,1,1,1,1,11,12,135,space,2.844065000000228,None,0,1,1.7669482000001153,None,space,1.2007308000002013,None,0,1,1,1,,,,,2,7,23,4,366.39863349999996,,,,,,,,,,,,,,,,,,,,,366.3834572000005,366.39863349999996,366.88255019999997,366.8884670000007,366.9053732000002,368.68258140000034,,,,,368.68275600000015,368.69812320000074,368.8981539000006,368.88206140000057,366.9053732000002,,,,,,,,0,1,1.7669482000001153,None,,,,,,,,826,23,M,R,2026-02-18_12h28.23.521,VisualSearch_2526_3,,2025.2.4,2026-02-18 12h28.23.753137 +0100,
vertical.xlsx,The target is tilted.,135,24,0,3,1,0,0,0,0,0,0,0,0,0,0,0,0,0,1,135,space,2.844065000000228,None,1,1,0.3490870999994513,None,space,1.2007308000002013,None,0,1,1,1,,,,,3,0,24,3,368.8981539000006,,,,,,,,,,,,,,,,,,,,,368.8827817000001,368.8981539000006,369.3819347000008,369.3873248,369.4041207,369.7655392000006,,,,,369.76569460000064,369.7812642000008,369.9812935,369.9652079000007,369.4041207,,,,,,,,1,1,0.3490870999994513,None,,,,,,,,826,23,M,R,2026-02-18_12h28.23.521,VisualSearch_2526_3,,2025.2.4,2026-02-18 12h28.23.753137 +0100,
vertical.xlsx,The target is tilted.,135,25,1,3,0,1,1,1,1,1,1,1,1,1,1,1,1,11,12,135,space,2.844065000000228,None,0,1,2.1004861000001256,None,space,1.2007308000002013,None,0,1,1,1,,,,,3,1,25,4,369.9812935,,,,,,,,,,,,,,,,,,,,,369.9660436000004,369.9812935,370.4653491000008,370.4713390000006,370.48726050000005,372.5993324000001,,,,,372.5995023000005,372.6140903000005,372.81419170000026,372.79796540000007,370.48726050000005,,,,,,,,0,1,2.1004861000001256,None,,,,,,,,826,23,M,R,2026-02-18_12h28.23.521,VisualSearch_2526_3,,2025.2.4,2026-02-18 12h28.23.753137 +0100,
vertical.xlsx,The target is tilted.,135,26,2,3,1,1,1,1,0,0,0,0,0,0,0,0,0,3,4,135,space,2.844065000000228,None,1,1,0.5098360000001776,None,space,1.2007308000002013,None,0,1,1,1,,,,,3,2,26,2,372.81419170000026,,,,,,,,,,,,,,,,,,,,,372.79872180000075,372.81419170000026,373.2978826000008,373.30336720000014,373.3191374000007,373.83168320000004,,,,,373.8318584000008,373.84715210000013,374.04725680000047,374.0310965000008,373.3191374000007,,,,,,,,1,1,0.5098360000001776,None,,,,,,,,826,23,M,R,2026-02-18_12h28.23.521,VisualSearch_2526_3,,2025.2.4,2026-02-18 12h28.23.753137 +0100,
vertical.xlsx,The target is tilted.,135,27,3,3,1,1,1,1,1,1,1,1,1,1,1,1,0,11,12,135,space,2.844065000000228,None,1,1,0.7798684999997931,None,space,1.2007308000002013,None,0,1,1,1,,,,,3,3,27,0,374.04725680000047,,,,,,,,,,,,,,,,,,,,,374.03184930000043,374.04725680000047,374.5311330000004,374.5361718000004,374.5470671000003,375.33143370000016,,,,,375.3316035000007,375.34664300000077,375.5469632000004,375.53103140000076,374.5470671000003,,,,,,,,1,1,0.7798684999997931,None,,,,,,,,826,23,M,R,2026-02-18_12h28.23.521,VisualSearch_2526_3,,2025.2.4,2026-02-18 12h28.23.753137 +0100,
vertical.xlsx,The target is tilted.,135,28,4,3,0,0,0,0,0,0,0,0,0,0,0,0,1,1,1,135,space,2.844065000000228,None,0,1,0.47242519999963406,None,space,1.2007308000002013,None,0,1,1,1,,,,,3,4,28,7,375.5469632000004,,,,,,,,,,,,,,,,,,,,,375.53177940000023,375.5469632000004,376.0304364000003,376.03591420000066,376.0529933000007,376.5310139000003,,,,,376.5312038000002,376.54699920000076,376.7467856000003,376.7302109000002,376.0529933000007,,,,,,,,0,1,0.47242519999963406,None,,,,,,,,826,23,M,R,2026-02-18_12h28.23.521,VisualSearch_2526_3,,2025.2.4,2026-02-18 12h28.23.753137 +0100,
vertical.xlsx,The target is tilted.,135,29,5,3,1,1,1,1,1,1,1,1,0,0,0,0,0,7,8,135,space,2.844065000000228,None,1,1,0.7447647999997571,None,space,1.2007308000002013,None,0,1,1,1,,,,,3,5,29,1,376.7467856000003,,,,,,,,,,,,,,,,,,,,,376.7308997,376.7467856000003,377.23076910000054,377.2368664000005,377.25429710000026,378.01344380000046,,,,,378.0135476000005,378.0297564000002,378.2300844000001,378.21388920000027,377.25429710000026,,,,,,,,1,1,0.7447647999997571,None,,,,,,,,826,23,M,R,2026-02-18_12h28.23.521,VisualSearch_2526_3,,2025.2.4,2026-02-18 12h28.23.753137 +0100,
vertical.xlsx,The target is tilted.,135,30,6,3,0,1,1,1,0,0,0,0,0,0,0,0,1,3,4,135,space,2.844065000000228,None,0,1,0.6410171999996237,None,space,1.2007308000002013,None,0,1,1,1,,,,,3,6,30,6,378.2300844000001,,,,,,,,,,,,,,,,,,,,,378.2146205000008,378.2300844000001,378.7136898000008,378.7197719000005,378.73607300000003,379.3805276000003,,,,,379.38071820000005,379.3958977000002,379.59624860000076,379.5801106000008,378.73607300000003,,,,,,,,0,1,0.6410171999996237,None,,,,,,,,826,23,M,R,2026-02-18_12h28.23.521,VisualSearch_2526_3,,2025.2.4,2026-02-18 12h28.23.753137 +0100,
vertical.xlsx,The target is tilted.,135,31,7,3,0,1,1,1,1,1,1,1,0,0,0,0,1,7,8,135,space,2.844065000000228,None,0,1,1.3686353000002782,None,space,1.2007308000002013,None,0,1,1,1,,,,,3,7,31,5,379.59624860000076,,,,,,,,,,,,,,,,,,,,,379.5807725000004,379.59624860000076,380.07996580000054,380.08529570000064,380.0955625000006,381.4805060000008,,,,,381.4806987000002,381.4956942000008,381.6959413000004,381.6799372000005,380.0955625000006,,,,,,,,0,1,1.3686353000002782,None,,,,,,,,826,23,M,R,2026-02-18_12h28.23.521,VisualSearch_2526_3,,2025.2.4,2026-02-18 12h28.23.753137 +0100,
vertical.xlsx,The target is tilted.,135,32,0,4,1,1,1,1,1,1,1,1,1,1,1,1,0,11,12,135,space,2.844065000000228,None,1,1,1.362245499999517,None,space,1.2007308000002013,None,0,1,1,1,,,,,4,0,32,0,381.6959413000004,,,,,,,,,,,,,,,,,,,,,381.6806624999999,381.6959413000004,382.17992070000037,382.18613580000056,382.20031350000045,383.5802710000007,,,,,383.58047239999996,383.59557850000056,383.7955249000006,383.77917440000056,382.20031350000045,,,,,,,,1,1,1.362245499999517,None,,,,,,,,826,23,M,R,2026-02-18_12h28.23.521,VisualSearch_2526_3,,2025.2.4,2026-02-18 12h28.23.753137 +0100,
vertical.xlsx,The target is tilted.,135,33,1,4,0,1,1,1,1,1,1,1,1,1,1,1,1,11,12,135,space,2.844065000000228,None,0,1,2.181879700000536,None,space,1.2007308000002013,None,0,1,1,1,,,,,4,1,33,4,383.7955249000006,,,,,,,,,,,,,,,,,,,,,383.77991330000077,383.7955249000006,384.27959439999995,384.2851290000008,384.3014767000004,386.4960998000006,,,,,386.4962753,386.51145280000037,386.7118322000006,386.69555070000024,384.3014767000004,,,,,,,,0,1,2.181879700000536,None,,,,,,,,826,23,M,R,2026-02-18_12h28.23.521,VisualSearch_2526_3,,2025.2.4,2026-02-18 12h28.23.753137 +0100,
