file_name,block_instructions,target_example,thisN,thisTrialN,thisRepN,target_presence,opacity_1,opacity_2,opacity_3,opacity_4,opacity_5,opacity_6,opacity_7,opacity_8,opacity_9,opacity_10,opacity_11,opacity_12,n_distract,n_items,target_ori,key_resp_4.keys,key_resp_4.rt,key_resp_4.duration,key_resp.keys,key_resp.corr,key_resp.rt,key_resp.duration,key_resp_5.keys,key_resp_5.rt,key_resp_5.duration,blocks.thisRepN,blocks.thisTrialN,blocks.thisN,blocks.thisIndex,practice_trials.thisRepN,practice_trials.thisTrialN,practice_trials.thisN,practice_trials.thisIndex,trials.thisRepN,trials.thisTrialN,trials.thisN,trials.thisIndex,thisRow.t,notes,Welcome.started,WelcomeText.started,key_resp_2.started,Welcome.stopped,key_resp_2.keys,key_resp_2.rt,key_resp_2.duration,InformedConsent.started,text_4.started,InformedConsent.stopped,key_resp_6.keys,key_resp_6.rt,key_resp_6.duration,key_resp_4.started,example_target.started,text_3.started,blocks.key_resp_4.keys,blocks.key_resp_4.rt,blocks.key_resp_4.duration,FixCross.started,fixCross.started,fixCross.stopped,FixCross.stopped,Stimulus.started,key_resp.started,Stimulus.stopped,practice_trials.key_resp.keys,practice_trials.key_resp.corr,practice_trials.key_resp.rt,practice_trials.key_resp.duration,BlankScreen.started,text.started,text.stopped,BlankScreen.stopped,ExperimentStart.started,text_2.started,key_resp_5.started,ExperimentStart.stopped,blocks.key_resp_5.keys,blocks.key_resp_5.rt,blocks.key_resp_5.duration,trials.key_resp.keys,trials.key_resp.corr,trials.key_resp.rt,trials.key_resp.duration,Thanks.started,ThankYou.started,key_resp_3.started,Thanks.stopped,key_resp_3.keys,key_resp_3.rt,key_resp_3.duration,participant,leeftijd,gender,links/rechtshandig,date,expName,expVersion,psychopyVersion,expStart,
,,,,,,,,,,,,,,,,,,,,,,,,,,,,,,,,,,,,,,,,,,,,,,0.014937799999643175,0.028498399999989488,0.028498399999989488,55.24686910000037,space,55.20413550000012,None,,,,,,,,,,,,,,,,,,,,,,,,,,,,,,,,,,,,,,,,,,,,,,827,23,M,R,2026-02-18_12h38.28.624,VisualSearch_2526_3,,2025.2.4,2026-02-18 12h38.28.839465 +0100,
,,,,,,,,,,,,,,,,,,,,,,,,,,,,,,,,,,,,,,,,,,,,,,,,,,,,,55.24701389999973,55.25598019999961,68.21515590000035,y,12.963284700000258,None,,,,,,,,,,,,,,,,,,,,,,,,,,,,,,,,,,,,,,,,827,23,M,R,2026-02-18_12h38.28.624,VisualSearch_2526_3,,2025.2.4,2026-02-18 12h38.28.839465 +0100,
vertical.xlsx,The target is tilted.,135,0,0,0,1,0,0,0,0,0,0,0,0,0,0,0,0,0,1,135,space,4.307391600000301,None,1,1,0.6290677000006326,None,,,,0,0,0,1,0,0,0,3,,,,,72.59753879999971,,,,,,,,,,,,,,,68.2570896999996,68.2570896999996,68.2570896999996,space,4.307391600000301,None,72.59350929999982,72.59753879999971,73.10269770000014,73.08060540000042,73.08545830000003,73.10269770000014,73.74755269999969,1,1,0.6290677000006326,None,73.74772289999964,73.76335240000026,73.96317139999974,73.94669140000042,,,,,,,,,,,,,,,,,,,827,23,M,R,2026-02-18_12h38.28.624,VisualSearch_2526_3,,2025.2.4,2026-02-18 12h38.28.839465 +0100,
vertical.xlsx,The target is tilted.,135,1,1,0,0,1,1,1,1,1,1,1,1,1,1,1,1,11,12,135,space,4.307391600000301,None,0,1,2.1353939000000537,None,,,,0,0,0,1,0,1,1,4,,,,,73.96317139999974,,,,,,,,,,,,,,,,,,,,,73.94735800000035,73.96317139999974,74.46928229999958,74.44707800000015,74.4519822000002,74.46928229999958,76.61372409999967,0,1,2.1353939000000537,None,76.61389770000005,76.6294068999996,76.82943909999995,76.8132587,,,,,,,,,,,,,,,,,,,827,23,M,R,2026-02-18_12h38.28.624,VisualSearch_2526_3,,2025.2.4,2026-02-18 12h38.28.839465 +0100,
vertical.xlsx,The target is tilted.,135,2,2,0,0,1,1,1,0,0,0,0,0,0,0,0,1,3,4,135,space,4.307391600000301,None,0,1,0.8216741000005641,None,,,,0,0,0,1,0,2,2,6,,,,,76.82943909999995,,,,,,,,,,,,,,,,,,,,,76.81390649999958,76.82943909999995,77.3292005000003,77.31274120000035,77.31723450000027,77.3292005000003,78.16349840000021,0,1,0.8216741000005641,None,78.16366910000033,78.17856810000012,78.3790799999997,78.36275060000025,,,,,,,,,,,,,,,,,,,827,23,M,R,2026-02-18_12h38.28.624,VisualSearch_2526_3,,2025.2.4,2026-02-18 12h38.28.839465 +0100,
vertical.xlsx,The target is tilted.,135,3,3,0,1,1,1,1,0,0,0,0,0,0,0,0,0,3,4,135,space,4.307391600000301,None,1,1,0.6876474999999118,None,,,,0,0,0,1,0,3,3,2,,,,,78.3790799999997,,,,,,,,,,,,,,,,,,,,,78.36334950000037,78.3790799999997,78.88365859999976,78.86291220000021,78.86733920000006,78.88365859999976,79.5797548999999,1,1,0.6876474999999118,None,79.57992339999964,79.59502299999986,79.79533679999986,79.77939160000005,,,,,,,,,,,,,,,,,,,827,23,M,R,2026-02-18_12h38.28.624,VisualSearch_2526_3,,2025.2.4,2026-02-18 12h38.28.839465 +0100,
vertical.xlsx,The target is tilted.,135,4,4,0,1,1,1,1,1,1,1,1,0,0,0,0,0,7,8,135,space,4.307391600000301,None,1,1,1.2915963000004922,None,,,,0,0,0,1,0,4,4,1,,,,,79.79533679999986,,,,,,,,,,,,,,,,,,,,,79.7800556000002,79.79533679999986,80.30063859999973,80.27932950000013,80.28378710000015,80.30063859999973,81.59584689999974,1,1,1.2915963000004922,None,81.59601910000038,81.61129619999974,81.81194609999966,81.79539079999995,,,,,,,,,,,,,,,,,,,827,23,M,R,2026-02-18_12h38.28.624,VisualSearch_2526_3,,2025.2.4,2026-02-18 12h38.28.839465 +0100,
vertical.xlsx,The target is tilted.,135,5,5,0,1,1,1,1,1,1,1,1,1,1,1,1,0,11,12,135,space,4.307391600000301,None,1,1,1.0767088000002332,None,,,,0,0,0,1,0,5,5,0,,,,,81.81194609999966,,,,,,,,,,,,,,,,,,,,,81.79606880000028,81.81194609999966,82.31558940000014,82.29529139999977,82.29995289999988,82.31558940000014,83.39560509999956,1,1,1.0767088000002332,None,83.39577629999985,83.41106969999964,83.61162890000014,83.59523950000039,,,,,,,,,,,,,,,,,,,827,23,M,R,2026-02-18_12h38.28.624,VisualSearch_2526_3,,2025.2.4,2026-02-18 12h38.28.839465 +0100,
vertical.xlsx,The target is tilted.,135,6,6,0,0,1,1,1,1,1,1,1,0,0,0,0,1,7,8,135,space,4.307391600000301,None,0,1,1.7689738999997644,None,,,,0,0,0,1,0,6,6,5,,,,,83.61162890000014,,,,,,,,,,,,,,,,,,,,,83.5958856999996,83.61162890000014,84.11609409999983,84.09521539999969,84.09965699999975,84.11609409999983,85.89577329999975,0,1,1.7689738999997644,None,85.89597440000034,85.91049910000038,86.11120839999967,86.09491309999976,,,,,,,,,,,,,,,,,,,827,23,M,R,2026-02-18_12h38.28.624,VisualSearch_2526_3,,2025.2.4,2026-02-18 12h38.28.839465 +0100,
vertical.xlsx,The target is tilted.,135,7,7,0,0,0,0,0,0,0,0,0,0,0,0,0,1,1,1,135,space,4.307391600000301,None,0,1,0.6681596999997055,None,,,,0,0,0,1,0,7,7,7,,,,,86.11120839999967,,,,,,,,,,,,,,,,,,,,,86.0955801,86.11120839999967,86.61511429999973,86.5951457000001,86.59964080000009,86.61511429999973,87.29463430000033,0,1,0.6681596999997055,None,87.29477539999971,87.31028669999978,,87.49493429999984,,,,,,,,,,,,,,,,,,,827,23,M,R,2026-02-18_12h38.28.624,VisualSearch_2526_3,,2025.2.4,2026-02-18 12h38.28.839465 +0100,
vertical.xlsx,The target is tilted.,135,0,0,0,1,1,1,1,0,0,0,0,0,0,0,0,0,3,4,135,space,4.307391600000301,None,1,1,0.7425427999996828,None,space,2.5786026999994647,None,0,0,0,1,,,,,0,0,0,2,90.1258527,,,,,,,,,,,,,,,,,,,,,90.12174200000027,90.1258527,,90.61035650000031,90.61506989999998,90.6315209000004,91.37770389999969,,,,,91.37790589999986,91.39312340000015,91.59331719999955,91.57759799999985,87.50153880000016,87.51090629999999,87.51090629999999,90.09460579999995,space,2.5786026999994647,None,1,1,0.7425427999996828,None,,,,,,,,827,23,M,R,2026-02-18_12h38.28.624,VisualSearch_2526_3,,2025.2.4,2026-02-18 12h38.28.839465 +0100,
vertical.xlsx,The target is tilted.,135,1,1,0,1,0,0,0,0,0,0,0,0,0,0,0,0,0,1,135,space,4.307391600000301,None,1,1,0.43649030000051425,None,space,2.5786026999994647,None,0,0,0,1,,,,,0,1,1,3,91.59331719999955,,,,,,,,,,,,,,,,,,,,,91.57842849999997,91.59331719999955,92.10156879999977,92.07746680000037,92.08260169999994,92.10156879999977,92.54455990000042,,,,,92.54475710000042,92.5595884000004,92.76015449999977,92.74370980000003,,,,,,,,1,1,0.43649030000051425,None,,,,,,,,827,23,M,R,2026-02-18_12h38.28.624,VisualSearch_2526_3,,2025.2.4,2026-02-18 12h38.28.839465 +0100,
vertical.xlsx,The target is tilted.,135,2,2,0,1,1,1,1,1,1,1,1,1,1,1,1,0,11,12,135,space,4.307391600000301,None,1,1,0.7584931999999753,None,space,2.5786026999994647,None,0,0,0,1,,,,,0,2,2,0,92.76015449999977,,,,,,,,,,,,,,,,,,,,,92.74454640000022,92.76015449999977,93.26570119999997,93.24388710000039,93.24912070000028,93.26570119999997,94.02759520000018,,,,,94.02779519999967,94.04260979999981,94.24323970000023,94.2268654999998,,,,,,,,1,1,0.7584931999999753,None,,,,,,,,827,23,M,R,2026-02-18_12h38.28.624,VisualSearch_2526_3,,2025.2.4,2026-02-18 12h38.28.839465 +0100,
vertical.xlsx,The target is tilted.,135,3,3,0,1,1,1,1,1,1,1,1,0,0,0,0,0,7,8,135,space,4.307391600000301,None,0,0,0.9125610000000961,None,space,2.5786026999994647,None,0,0,0,1,,,,,0,3,3,1,94.24323970000023,,,,,,,,,,,,,,,,,,,,,94.2276138999996,94.24323970000023,94.74823610000021,94.72662409999975,94.73127730000033,94.74823610000021,95.67660520000027,,,,,95.67678820000037,95.6923085999997,95.89294950000021,95.8766813000002,,,,,,,,0,0,0.9125610000000961,None,,,,,,,,827,23,M,R,2026-02-18_12h38.28.624,VisualSearch_2526_3,,2025.2.4,2026-02-18 12h38.28.839465 +0100,
vertical.xlsx,The target is tilted.,135,4,4,0,0,1,1,1,1,1,1,1,1,1,1,1,1,11,12,135,space,4.307391600000301,None,0,1,3.218690599999718,None,space,2.5786026999994647,None,0,0,0,1,,,,,0,4,4,4,95.89294950000021,,,,,,,,,,,,,,,,,,,,,95.87744810000004,95.89294950000021,96.3968246000004,96.37644660000024,96.38100359999953,96.3968246000004,99.62643180000032,,,,,99.62661320000007,99.64163219999955,99.84211609999966,99.82549469999958,,,,,,,,0,1,3.218690599999718,None,,,,,,,,827,23,M,R,2026-02-18_12h38.28.624,VisualSearch_2526_3,,2025.2.4,2026-02-18 12h38.28.839465 +0100,
vertical.xlsx,The target is tilted.,135,5,5,0,0,1,1,1,1,1,1,1,0,0,0,0,1,7,8,135,space,4.307391600000301,None,0,1,1.9335996999998315,None,space,2.5786026999994647,None,0,0,0,1,,,,,0,5,5,5,99.84211609999966,,,,,,,,,,,,,,,,,,,,,99.8261537999997,99.84211609999966,100.34807660000024,100.32586790000005,100.33042490000025,100.34807660000024,102.29294690000006,,,,,102.29312690000006,102.3078658000004,102.50852399999985,102.49233009999989,,,,,,,,0,1,1.9335996999998315,None,,,,,,,,827,23,M,R,2026-02-18_12h38.28.624,VisualSearch_2526_3,,2025.2.4,2026-02-18 12h38.28.839465 +0100,
vertical.xlsx,The target is tilted.,135,6,6,0,0,1,1,1,0,0,0,0,0,0,0,0,1,3,4,135,space,4.307391600000301,None,0,1,0.662964600000123,None,space,2.5786026999994647,None,0,0,0,1,,,,,0,6,6,6,102.50852399999985,,,,,,,,,,,,,,,,,,,,,102.49305129999993,102.50852399999985,103.0137807000001,102.9922101000002,102.99684520000028,103.0137807000001,103.69187039999997,,,,,103.6920339999997,103.70759699999962,103.90778829999999,103.89221329999964,,,,,,,,0,1,0.662964600000123,None,,,,,,,,827,23,M,R,2026-02-18_12h38.28.624,VisualSearch_2526_3,,2025.2.4,2026-02-18 12h38.28.839465 +0100,
vertical.xlsx,The target is tilted.,135,7,7,0,0,0,0,0,0,0,0,0,0,0,0,0,1,1,1,135,space,4.307391600000301,None,0,1,0.514806099999987,None,space,2.5786026999994647,None,0,0,0,1,,,,,0,7,7,7,103.90778829999999,,,,,,,,,,,,,,,,,,,,,103.8929879999996,103.90778829999999,104.41365029999997,104.39205880000009,104.39656560000003,104.41365029999997,104.9417940000003,,,,,104.94198369999958,104.95734410000023,105.15803500000038,105.14190560000043,,,,,,,,0,1,0.514806099999987,None,,,,,,,,827,23,M,R,2026-02-18_12h38.28.624,VisualSearch_2526_3,,2025.2.4,2026-02-18 12h38.28.839465 +0100,
vertical.xlsx,The target is tilted.,135,8,0,1,1,1,1,1,1,1,1,1,1,1,1,1,0,11,12,135,space,4.307391600000301,None,1,1,0.6287762000001749,None,space,2.5786026999994647,None,0,0,0,1,,,,,1,0,8,0,105.15803500000038,,,,,,,,,,,,,,,,,,,,,105.14262500000041,105.15803500000038,105.66437779999978,105.64197330000025,105.64664139999968,105.66437779999978,106.30814230000033,,,,,106.30833410000014,106.32386560000032,106.52402660000007,106.50802899999962,,,,,,,,1,1,0.6287762000001749,None,,,,,,,,827,23,M,R,2026-02-18_12h38.28.624,VisualSearch_2526_3,,2025.2.4,2026-02-18 12h38.28.839465 +0100,
vertical.xlsx,The target is tilted.,135,9,1,1,0,0,0,0,0,0,0,0,0,0,0,0,1,1,1,135,space,4.307391600000301,None,0,1,0.726638100000855,None,space,2.5786026999994647,None,0,0,0,1,,,,,1,1,9,7,106.52402660000007,,,,,,,,,,,,,,,,,,,,,106.50877390000005,106.52402660000007,107.02880689999984,107.00828009999987,107.01291700000002,107.02880689999984,107.75872470000013,,,,,107.7589052000003,107.77375089999987,107.97381810000024,107.9577631000002,,,,,,,,0,1,0.726638100000855,None,,,,,,,,827,23,M,R,2026-02-18_12h38.28.624,VisualSearch_2526_3,,2025.2.4,2026-02-18 12h38.28.839465 +0100,
vertical.xlsx,The target is tilted.,135,10,2,1,1,1,1,1,0,0,0,0,0,0,0,0,0,3,4,135,space,4.307391600000301,None,1,1,0.6957297999997536,None,space,2.5786026999994647,None,0,0,0,1,,,,,1,2,10,2,107.97381810000024,,,,,,,,,,,,,,,,,,,,,107.95851609999954,107.97381810000024,108.47876710000037,108.45815500000026,108.46326020000015,108.47876710000037,109.19105239999953,,,,,109.19121720000021,109.20666280000023,109.40726340000037,109.39113600000019,,,,,,,,1,1,0.6957297999997536,None,,,,,,,,827,23,M,R,2026-02-18_12h38.28.624,VisualSearch_2526_3,,2025.2.4,2026-02-18 12h38.28.839465 +0100,
vertical.xlsx,The target is tilted.,135,11,3,1,1,0,0,0,0,0,0,0,0,0,0,0,0,0,1,135,space,4.307391600000301,None,1,1,0.600035299999945,None,space,2.5786026999994647,None,0,0,0,1,,,,,1,3,11,3,109.40726340000037,,,,,,,,,,,,,,,,,,,,,109.39188790000026,109.40726340000037,109.91283219999968,109.89115550000042,109.89573230000042,109.91283219999968,110.52486839999983,,,,,110.5251258999997,110.53991630000019,110.74046249999992,110.72437369999989,,,,,,,,1,1,0.600035299999945,None,,,,,,,,827,23,M,R,2026-02-18_12h38.28.624,VisualSearch_2526_3,,2025.2.4,2026-02-18 12h38.28.839465 +0100,
vertical.xlsx,The target is tilted.,135,12,4,1,1,1,1,1,1,1,1,1,0,0,0,0,0,7,8,135,space,4.307391600000301,None,1,1,1.0093144000002212,None,space,2.5786026999994647,None,0,0,0,1,,,,,1,4,12,1,110.74046249999992,,,,,,,,,,,,,,,,,,,,,110.72509569999966,110.74046249999992,111.24026599999979,111.2242213999998,111.22872600000028,111.24026599999979,112.25798180000038,,,,,112.34366380000029,112.3477654999997,112.55678259999968,112.54045430000042,,,,,,,,1,1,1.0093144000002212,None,,,,,,,,827,23,M,R,2026-02-18_12h38.28.624,VisualSearch_2526_3,,2025.2.4,2026-02-18 12h38.28.839465 +0100,
vertical.xlsx,The target is tilted.,135,13,5,1,0,1,1,1,1,1,1,1,1,1,1,1,1,11,12,135,space,4.307391600000301,None,0,1,2.4089923000001363,None,space,2.5786026999994647,None,0,0,0,1,,,,,1,5,13,4,112.55678259999968,,,,,,,,,,,,,,,,,,,,,112.54111509999984,112.55678259999968,113.06379949999973,113.04062830000021,113.0454149999996,113.06379949999973,115.4740227000002,,,,,115.47420469999997,115.48903289999998,115.68969459999971,115.6734962999999,,,,,,,,0,1,2.4089923000001363,None,,,,,,,,827,23,M,R,2026-02-18_12h38.28.624,VisualSearch_2526_3,,2025.2.4,2026-02-18 12h38.28.839465 +0100,
vertical.xlsx,The target is tilted.,135,14,6,1,0,1,1,1,0,0,0,0,0,0,0,0,1,3,4,135,space,4.307391600000301,None,0,1,0.8707100999999966,None,space,2.5786026999994647,None,0,0,0,1,,,,,1,6,14,6,115.68969459999971,,,,,,,,,,,,,,,,,,,,,115.67420729999958,115.68969459999971,116.19470519999959,116.17298109999956,116.17751320000025,116.19470519999959,117.0737239,,,,,117.07390120000036,117.08883710000009,117.28923279999981,117.27334359999986,,,,,,,,0,1,0.8707100999999966,None,,,,,,,,827,23,M,R,2026-02-18_12h38.28.624,VisualSearch_2526_3,,2025.2.4,2026-02-18 12h38.28.839465 +0100,
vertical.xlsx,The target is tilted.,135,15,7,1,0,1,1,1,1,1,1,1,0,0,0,0,1,7,8,135,space,4.307391600000301,None,0,1,2.4611980999998195,None,space,2.5786026999994647,None,0,0,0,1,,,,,1,7,15,5,117.28923279999981,,,,,,,,,,,,,,,,,,,,,117.27404819999992,117.28923279999981,117.78920190000008,117.7732159999996,117.77768800000013,117.78920190000008,120.25611519999984,,,,,120.2562955000003,120.27156869999999,120.47224259999984,120.4559376999996,,,,,,,,0,1,2.4611980999998195,None,,,,,,,,827,23,M,R,2026-02-18_12h38.28.624,VisualSearch_2526_3,,2025.2.4,2026-02-18 12h38.28.839465 +0100,
vertical.xlsx,The target is tilted.,135,16,0,2,0,1,1,1,1,1,1,1,1,1,1,1,1,11,12,135,space,4.307391600000301,None,0,1,2.6884117999998125,None,space,2.5786026999994647,None,0,0,0,1,,,,,2,0,16,4,120.47224259999984,,,,,,,,,,,,,,,,,,,,,120.4567847999997,120.47224259999984,120.97560460000022,120.95559010000034,120.9603618000001,120.97560460000022,123.6726421000003,,,,,123.67281889999958,123.68767630000002,123.88789449999967,123.87210640000012,,,,,,,,0,1,2.6884117999998125,None,,,,,,,,827,23,M,R,2026-02-18_12h38.28.624,VisualSearch_2526_3,,2025.2.4,2026-02-18 12h38.28.839465 +0100,
vertical.xlsx,The target is tilted.,135,17,1,2,0,1,1,1,1,1,1,1,0,0,0,0,1,7,8,135,space,4.307391600000301,None,0,1,2.2546509000003425,None,space,2.5786026999994647,None,0,0,0,1,,,,,2,1,17,5,123.88789449999967,,,,,,,,,,,,,,,,,,,,,123.87277830000039,123.88789449999967,124.3877708,124.37194850000014,124.37599059999957,124.3877708,126.65505610000037,,,,,126.65523419999954,126.67050269999982,126.87136230000033,126.85504339999989,,,,,,,,0,1,2.2546509000003425,None,,,,,,,,827,23,M,R,2026-02-18_12h38.28.624,VisualSearch_2526_3,,2025.2.4,2026-02-18 12h38.28.839465 +0100,
vertical.xlsx,The target is tilted.,135,18,2,2,1,0,0,0,0,0,0,0,0,0,0,0,0,0,1,135,space,4.307391600000301,None,1,1,0.45531750000009197,None,space,2.5786026999994647,None,0,0,0,1,,,,,2,2,18,3,126.87136230000033,,,,,,,,,,,,,,,,,,,,,126.8556993000002,126.87136230000033,127.37548700000025,127.35483300000033,127.35932560000037,127.37548700000025,127.83813389999978,,,,,127.83831689999988,127.85362329999953,128.05404259999978,128.0380739000002,,,,,,,,1,1,0.45531750000009197,None,,,,,,,,827,23,M,R,2026-02-18_12h38.28.624,VisualSearch_2526_3,,2025.2.4,2026-02-18 12h38.28.839465 +0100,
vertical.xlsx,The target is tilted.,135,19,3,2,1,1,1,1,1,1,1,1,0,0,0,0,0,7,8,135,space,4.307391600000301,None,1,1,0.7473064000005252,None,space,2.5786026999994647,None,0,0,0,1,,,,,2,3,19,1,128.05404259999978,,,,,,,,,,,,,,,,,,,,,128.03884110000035,128.05404259999978,128.56097039999986,128.53799780000008,128.54249160000018,128.56097039999986,129.3204225999998,,,,,129.32049449999977,129.3366262999998,,129.52092879999964,,,,,,,,1,1,0.7473064000005252,None,,,,,,,,827,23,M,R,2026-02-18_12h38.28.624,VisualSearch_2526_3,,2025.2.4,2026-02-18 12h38.28.839465 +0100,
vertical.xlsx,The target is tilted.,135,20,4,2,0,0,0,0,0,0,0,0,0,0,0,0,1,1,1,135,space,4.307391600000301,None,0,1,0.6429640999995172,None,space,2.5786026999994647,None,0,0,0,1,,,,,2,4,20,7,129.5373268000003,,,,,,,,,,,,,,,,,,,,,129.52165200000036,129.5373268000003,130.04092930000024,130.02061810000032,130.0246876000001,130.04092930000024,130.68795950000003,,,,,130.6881585000001,130.70326730000033,130.90384989999984,130.88749519999965,,,,,,,,0,1,0.6429640999995172,None,,,,,,,,827,23,M,R,2026-02-18_12h38.28.624,VisualSearch_2526_3,,2025.2.4,2026-02-18 12h38.28.839465 +0100,
vertical.xlsx,The target is tilted.,135,21,5,2,1,1,1,1,0,0,0,0,0,0,0,0,0,3,4,135,space,4.307391600000301,None,1,1,0.6886444000001575,None,space,2.5786026999994647,None,0,0,0,1,,,,,2,5,21,2,130.90384989999984,,,,,,,,,,,,,,,,,,,,,130.88821540000026,130.90384989999984,131.40965510000024,131.3876891,131.39274970000042,131.40965510000024,132.10408110000026,,,,,132.10424690000036,132.11966570000004,132.32023200000003,132.30412689999957,,,,,,,,1,1,0.6886444000001575,None,,,,,,,,827,23,M,R,2026-02-18_12h38.28.624,VisualSearch_2526_3,,2025.2.4,2026-02-18 12h38.28.839465 +0100,
vertical.xlsx,The target is tilted.,135,22,6,2,0,1,1,1,0,0,0,0,0,0,0,0,1,3,4,135,space,4.307391600000301,None,0,1,0.7965465999996013,None,space,2.5786026999994647,None,0,0,0,1,,,,,2,6,22,6,132.32023200000003,,,,,,,,,,,,,,,,,,,,,132.30485520000002,132.32023200000003,132.82411130000037,132.80405040000005,132.80852700000014,132.82411130000037,133.63710900000024,,,,,133.6373136000002,133.6526944999996,133.8527812000002,133.8367271999996,,,,,,,,0,1,0.7965465999996013,None,,,,,,,,827,23,M,R,2026-02-18_12h38.28.624,VisualSearch_2526_3,,2025.2.4,2026-02-18 12h38.28.839465 +0100,
vertical.xlsx,The target is tilted.,135,23,7,2,1,1,1,1,1,1,1,1,1,1,1,1,0,11,12,135,space,4.307391600000301,None,1,1,0.8924279000002571,None,space,2.5786026999994647,None,0,0,0,1,,,,,2,7,23,0,133.8527812000002,,,,,,,,,,,,,,,,,,,,,133.83741360000022,133.8527812000002,134.35306180000043,134.3367221999997,134.34132580000005,134.35306180000043,135.2539299,,,,,135.25410740000007,135.26916119999987,135.4691968999996,135.45304659999965,,,,,,,,1,1,0.8924279000002571,None,,,,,,,,827,23,M,R,2026-02-18_12h38.28.624,VisualSearch_2526_3,,2025.2.4,2026-02-18 12h38.28.839465 +0100,
vertical.xlsx,The target is tilted.,135,24,0,3,0,0,0,0,0,0,0,0,0,0,0,0,1,1,1,135,space,4.307391600000301,None,0,1,0.6344342000002143,None,space,2.5786026999994647,None,0,0,0,1,,,,,3,0,24,7,135.4691968999996,,,,,,,,,,,,,,,,,,,,,135.45370249999996,135.4691968999996,135.97566740000002,135.9537220000002,135.95882019999954,135.97566740000002,136.6201213000004,,,,,136.62030460000005,136.63553010000032,136.83601350000026,136.8200195999998,,,,,,,,0,1,0.6344342000002143,None,,,,,,,,827,23,M,R,2026-02-18_12h38.28.624,VisualSearch_2526_3,,2025.2.4,2026-02-18 12h38.28.839465 +0100,
vertical.xlsx,The target is tilted.,135,25,1,3,0,1,1,1,0,0,0,0,0,0,0,0,1,3,4,135,space,4.307391600000301,None,0,1,0.7058695000005173,None,space,2.5786026999994647,None,0,0,0,1,,,,,3,1,25,6,136.83601350000026,,,,,,,,,,,,,,,,,,,,,136.8207424000002,136.83601350000026,137.33999909999966,137.32009620000008,137.32508979999966,137.33999909999966,138.05373710000003,,,,,138.05393819999972,138.0686899000002,138.2691378999998,138.2527782999996,,,,,,,,0,1,0.7058695000005173,None,,,,,,,,827,23,M,R,2026-02-18_12h38.28.624,VisualSearch_2526_3,,2025.2.4,2026-02-18 12h38.28.839465 +0100,
vertical.xlsx,The target is tilted.,135,26,2,3,0,1,1,1,1,1,1,1,1,1,1,1,1,11,12,135,space,4.307391600000301,None,0,1,1.631927800000085,None,space,2.5786026999994647,None,0,0,0,1,,,,,3,2,26,4,138.2691378999998,,,,,,,,,,,,,,,,,,,,,138.25351339999997,138.2691378999998,138.7709015999999,138.75283339999987,138.75694589999966,138.7709015999999,140.4190748000001,,,,,140.41922890000023,140.43486510000002,140.63543449999997,140.6193916000002,,,,,,,,0,1,1.631927800000085,None,,,,,,,,827,23,M,R,2026-02-18_12h38.28.624,VisualSearch_2526_3,,2025.2.4,2026-02-18 12h38.28.839465 +0100,
vertical.xlsx,The target is tilted.,135,27,3,3,1,1,1,1,0,0,0,0,0,0,0,0,0,3,4,135,space,4.307391600000301,None,1,1,0.516228599999522,None,space,2.5786026999994647,None,0,0,0,1,,,,,3,3,27,2,140.63543449999997,,,,,,,,,,,,,,,,,,,,,140.62010960000043,140.63543449999997,141.14034840000022,141.11930140000004,141.1237640999998,141.14034840000022,141.66903280000042,,,,,141.66919659999985,141.68466100000023,141.88512939999964,141.86884139999984,,,,,,,,1,1,0.516228599999522,None,,,,,,,,827,23,M,R,2026-02-18_12h38.28.624,VisualSearch_2526_3,,2025.2.4,2026-02-18 12h38.28.839465 +0100,
vertical.xlsx,The target is tilted.,135,28,4,3,1,1,1,1,1,1,1,1,1,1,1,1,0,11,12,135,space,4.307391600000301,None,1,1,1.183433199999854,None,space,2.5786026999994647,None,0,0,0,1,,,,,3,4,28,0,141.88512939999964,,,,,,,,,,,,,,,,,,,,,141.86958010000035,141.88512939999964,142.3883033000002,142.36916850000034,142.37368700000025,142.3883033000002,143.58572060000006,,,,,143.58593949999977,143.60102579999966,143.80166240000017,143.78509550000035,,,,,,,,1,1,1.183433199999854,None,,,,,,,,827,23,M,R,2026-02-18_12h38.28.624,VisualSearch_2526_3,,2025.2.4,2026-02-18 12h38.28.839465 +0100,
vertical.xlsx,The target is tilted.,135,29,5,3,1,0,0,0,0,0,0,0,0,0,0,0,0,0,1,135,space,4.307391600000301,None,1,1,0.5815507999996044,None,space,2.5786026999994647,None,0,0,0,1,,,,,3,5,29,3,143.80166240000017,,,,,,,,,,,,,,,,,,,,,143.78578819999984,143.80166240000017,144.3064949999998,144.28527399999984,144.28995730000042,144.3064949999998,144.90180510000027,,,,,144.90200660000028,144.91751170000043,145.11735359999966,145.10139030000028,,,,,,,,1,1,0.5815507999996044,None,,,,,,,,827,23,M,R,2026-02-18_12h38.28.624,VisualSearch_2526_3,,2025.2.4,2026-02-18 12h38.28.839465 +0100,
vertical.xlsx,The target is tilted.,135,30,6,3,1,1,1,1,1,1,1,1,0,0,0,0,0,7,8,135,space,4.307391600000301,None,1,1,0.6076078000005509,None,space,2.5786026999994647,None,0,0,0,1,,,,,3,6,30,1,145.11735359999966,,,,,,,,,,,,,,,,,,,,,145.101901,145.11735359999966,145.62402629999997,145.60209229999964,145.60719510000035,145.62402629999997,146.23551440000028,,,,,146.23571360000005,146.25068809999993,146.4512668999996,146.43515839999964,,,,,,,,1,1,0.6076078000005509,None,,,,,,,,827,23,M,R,2026-02-18_12h38.28.624,VisualSearch_2526_3,,2025.2.4,2026-02-18 12h38.28.839465 +0100,
vertical.xlsx,The target is tilted.,135,31,7,3,0,1,1,1,1,1,1,1,0,0,0,0,1,7,8,135,space,4.307391600000301,None,0,1,1.6116782999997668,None,space,2.5786026999994647,None,0,0,0,1,,,,,3,7,31,5,146.4512668999996,,,,,,,,,,,,,,,,,,,,,146.43598209999982,146.4512668999996,146.9542806999998,146.93488499999967,146.93892030000006,146.9542806999998,148.56802590000007,,,,,148.56822470000043,148.58347549999962,148.78422190000038,148.7679146999999,,,,,,,,0,1,1.6116782999997668,None,,,,,,,,827,23,M,R,2026-02-18_12h38.28.624,VisualSearch_2526_3,,2025.2.4,2026-02-18 12h38.28.839465 +0100,
vertical.xlsx,The target is tilted.,135,32,0,4,0,1,1,1,1,1,1,1,0,0,0,0,1,7,8,135,space,4.307391600000301,None,0,1,2.016387399999985,None,space,2.5786026999994647,None,0,0,0,1,,,,,4,0,32,5,148.78422190000038,,,,,,,,,,,,,,,,,,,,,148.76864389999992,148.78422190000038,149.28915330000018,149.2678845999999,149.27251479999995,149.28915330000018,151.31787489999988,,,,,151.3180365999997,151.3330629000002,151.5338324000004,151.51752260000012,,,,,,,,0,1,2.016387399999985,None,,,,,,,,827,23,M,R,2026-02-18_12h38.28.624,VisualSearch_2526_3,,2025.2.4,2026-02-18 12h38.28.839465 +0100,
vertical.xlsx,The target is tilted.,135,33,1,4,0,1,1,1,0,0,0,0,0,0,0,0,1,3,4,135,space,4.307391600000301,None,0,1,0.9105595000000903,None,space,2.5786026999994647,None,0,0,0,1,,,,,4,1,33,6,151.5338324000004,,,,,,,,,,,,,,,,,,,,,151.51828240000032,151.5338324000004,152.03717549999965,152.0171264999999,152.02179030000025,152.03717549999965,152.95058590000008,,,,,152.95077239999955,152.96617359999982,153.16668870000012,153.15053780000017,,,,,,,,0,1,0.9105595000000903,None,,,,,,,,827,23,M,R,2026-02-18_12h38.28.624,VisualSearch_2526_3,,2025.2.4,2026-02-18 12h38.28.839465 +0100,
vertical.xlsx,The target is tilted.,135,34,2,4,1,0,0,0,0,0,0,0,0,0,0,0,0,0,1,135,space,4.307391600000301,None,1,1,0.5551253000003271,None,space,2.5786026999994647,None,0,0,0,1,,,,,4,2,34,3,153.16668870000012,,,,,,,,,,,,,,,,,,,,,153.1512990000001,153.16668870000012,153.6716047,153.65062729999954,153.65509099999963,153.6716047,154.23406520000026,,,,,154.2342281000001,154.24931970000034,154.44993390000036,154.43375170000036,,,,,,,,1,1,0.5551253000003271,None,,,,,,,,827,23,M,R,2026-02-18_12h38.28.624,VisualSearch_2526_3,,2025.2.4,2026-02-18 12h38.28.839465 +0100,
vertical.xlsx,The target is tilted.,135,35,3,4,1,1,1,1,1,1,1,1,0,0,0,0,0,7,8,135,space,4.307391600000301,None,1,1,0.9324866000006296,None,space,2.5786026999994647,None,0,0,0,1,,,,,4,3,35,1,154.44993390000036,,,,,,,,,,,,,,,,,,,,,154.43447130000004,154.44993390000036,154.95501090000016,154.93384460000016,154.93889880000006,154.95501090000016,155.9000575,,,,,155.90024790000007,155.9156369000002,156.11627419999968,156.10016259999975,,,,,,,,1,1,0.9324866000006296,None,,,,,,,,827,23,M,R,2026-02-18_12h38.28.624,VisualSearch_2526_3,,2025.2.4,2026-02-18 12h38.28.839465 +0100,
vertical.xlsx,The target is tilted.,135,36,4,4,0,0,0,0,0,0,0,0,0,0,0,0,1,1,1,135,space,4.307391600000301,None,0,1,0.6058038999999553,None,space,2.5786026999994647,None,0,0,0,1,,,,,4,4,36,7,156.11627419999968,,,,,,,,,,,,,,,,,,,,,156.10086990000036,156.11627419999968,156.61608410000008,156.60017470000003,156.60490500000014,156.61608410000008,157.23397139999997,,,,,157.23419889999968,157.24884089999978,157.44940169999973,157.43333230000007,,,,,,,,0,1,0.6058038999999553,None,,,,,,,,827,23,M,R,2026-02-18_12h38.28.624,VisualSearch_2526_3,,2025.2.4,2026-02-18 12h38.28.839465 +0100,
vertical.xlsx,The target is tilted.,135,37,5,4,1,1,1,1,1,1,1,1,1,1,1,1,0,11,12,135,space,4.307391600000301,None,1,1,1.2233985000002576,None,space,2.5786026999994647,None,0,0,0,1,,,,,4,5,37,0,157.44940169999973,,,,,,,,,,,,,,,,,,,,,157.43404720000035,157.44940169999973,157.94920879999972,157.9327344000003,157.9372129000003,157.94920879999972,159.18346159999965,,,,,159.18363959999988,159.1985235000002,159.3988946999998,159.38275739999972,,,,,,,,1,1,1.2233985000002576,None,,,,,,,,827,23,M,R,2026-02-18_12h38.28.624,VisualSearch_2526_3,,2025.2.4,2026-02-18 12h38.28.839465 +0100,
vertical.xlsx,The target is tilted.,135,38,6,4,1,1,1,1,0,0,0,0,0,0,0,0,0,3,4,135,space,4.307391600000301,None,1,1,0.5930321000005279,None,space,2.5786026999994647,None,0,0,0,1,,,,,4,6,38,2,159.3988946999998,,,,,,,,,,,,,,,,,,,,,159.3834827999999,159.3988946999998,159.90309660000003,159.88298060000034,159.8874294999996,159.90309660000003,160.4996097000003,,,,,160.49980890000006,160.51501949999965,160.71550130000014,160.6994106000002,,,,,,,,1,1,0.5930321000005279,None,,,,,,,,827,23,M,R,2026-02-18_12h38.28.624,VisualSearch_2526_3,,2025.2.4,2026-02-18 12h38.28.839465 +0100,
vertical.xlsx,The target is tilted.,135,39,7,4,0,1,1,1,1,1,1,1,1,1,1,1,1,11,12,135,space,4.307391600000301,None,0,1,2.4399726000001465,None,space,2.5786026999994647,None,0,0,0,1,,,,,4,7,39,4,160.71550130000014,,,,,,,,,,,,,,,,,,,,,160.7001223999996,160.71550130000014,161.21719389999998,161.19884280000042,161.20285929999955,161.21719389999998,163.66565509999964,,,,,163.66583470000023,163.68108940000002,163.88167689999955,163.86516370000027,,,,,,,,0,1,2.4399726000001465,None,,,,,,,,827,23,M,R,2026-02-18_12h38.28.624,VisualSearch_2526_3,,2025.2.4,2026-02-18 12h38.28.839465 +0100,
vertical.xlsx,The target is tilted.,135,40,0,5,0,0,0,0,0,0,0,0,0,0,0,0,1,1,1,135,space,4.307391600000301,None,0,1,0.5768297000004168,None,space,2.5786026999994647,None,0,0,0,1,,,,,5,0,40,7,163.88167689999955,,,,,,,,,,,,,,,,,,,,,163.86589850000018,163.88167689999955,164.38136779999968,164.3652949999996,164.36977500000012,164.38136779999968,164.96573910000006,,,,,164.96591499999977,164.98088240000016,165.18149799999992,165.16515900000013,,,,,,,,0,1,0.5768297000004168,None,,,,,,,,827,23,M,R,2026-02-18_12h38.28.624,VisualSearch_2526_3,,2025.2.4,2026-02-18 12h38.28.839465 +0100,
vertical.xlsx,The target is tilted.,135,41,1,5,1,1,1,1,0,0,0,0,0,0,0,0,0,3,4,135,space,4.307391600000301,None,1,1,0.6232656000001953,None,space,2.5786026999994647,None,0,0,0,1,,,,,5,1,41,2,165.18149799999992,,,,,,,,,,,,,,,,,,,,,165.1658841999997,165.18149799999992,165.6862970000002,165.6651023000004,165.66964310000003,165.6862970000002,166.3157124999998,,,,,166.31591039999967,166.33069559999967,166.53127549999954,166.51510870000038,,,,,,,,1,1,0.6232656000001953,None,,,,,,,,827,23,M,R,2026-02-18_12h38.28.624,VisualSearch_2526_3,,2025.2.4,2026-02-18 12h38.28.839465 +0100,
vertical.xlsx,The target is tilted.,135,42,2,5,0,1,1,1,1,1,1,1,1,1,1,1,1,11,12,135,space,4.307391600000301,None,0,1,2.5976611000005505,None,space,2.5786026999994647,None,0,0,0,1,,,,,5,2,42,4,166.53127549999954,,,,,,,,,,,,,,,,,,,,,166.51581989999977,166.53127549999954,167.0361856999998,167.01497689999997,167.01978270000018,167.0361856999998,169.64771310000015,,,,,169.64788520000002,169.66340190000028,169.86368330000005,169.84770130000015,,,,,,,,0,1,2.5976611000005505,None,,,,,,,,827,23,M,R,2026-02-18_12h38.28.624,VisualSearch_2526_3,,2025.2.4,2026-02-18 12h38.28.839465 +0100,
vertical.xlsx,The target is tilted.,135,43,3,5,1,1,1,1,1,1,1,1,1,1,1,1,0,11,12,135,space,4.307391600000301,None,1,1,1.1826138999995237,None,space,2.5786026999994647,None,0,0,0,1,,,,,5,3,43,0,169.86368330000005,,,,,,,,,,,,,,,,,,,,,169.8484423,169.86368330000005,170.36616130000039,170.34728240000004,170.35140760000013,170.36616130000039,171.56389620000027,,,,,171.5640440999996,171.5797050000001,171.78038199999992,171.76407240000026,,,,,,,,1,1,1.1826138999995237,None,,,,,,,,827,23,M,R,2026-02-18_12h38.28.624,VisualSearch_2526_3,,2025.2.4,2026-02-18 12h38.28.839465 +0100,
vertical.xlsx,The target is tilted.,135,44,4,5,1,1,1,1,1,1,1,1,0,0,0,0,0,7,8,135,space,4.307391600000301,None,1,1,0.4968337000000247,None,space,2.5786026999994647,None,0,0,0,1,,,,,5,4,44,1,171.78038199999992,,,,,,,,,,,,,,,,,,,,,171.76480329999958,171.78038199999992,172.28660930000024,172.2641953000002,172.26876300000004,172.28660930000024,172.79722729999958,,,,,172.79742720000013,172.81286809999983,173.01331070000015,172.99730499999987,,,,,,,,1,1,0.4968337000000247,None,,,,,,,,827,23,M,R,2026-02-18_12h38.28.624,VisualSearch_2526_3,,2025.2.4,2026-02-18 12h38.28.839465 +0100,
vertical.xlsx,The target is tilted.,135,45,5,5,0,1,1,1,1,1,1,1,0,0,0,0,1,7,8,135,space,4.307391600000301,None,0,1,2.717200000000048,None,space,2.5786026999994647,None,0,0,0,1,,,,,5,5,45,5,173.01331070000015,,,,,,,,,,,,,,,,,,,,,172.99806850000004,173.01331070000015,173.5175792,173.49736200000007,173.5018358999996,173.5175792,176.2471327000003,,,,,176.24731069999962,176.26233469999988,176.4629119000001,176.44661799999994,,,,,,,,0,1,2.717200000000048,None,,,,,,,,827,23,M,R,2026-02-18_12h38.28.624,VisualSearch_2526_3,,2025.2.4,2026-02-18 12h38.28.839465 +0100,
vertical.xlsx,The target is tilted.,135,46,6,5,1,0,0,0,0,0,0,0,0,0,0,0,0,0,1,135,space,4.307391600000301,None,1,1,0.9273340999998254,None,space,2.5786026999994647,None,0,0,0,1,,,,,5,6,46,3,176.4629119000001,,,,,,,,,,,,,,,,,,,,,176.44736720000037,176.4629119000001,176.96718129999954,176.94662489999973,176.9511653999998,176.96718129999954,177.89696000000004,,,,,177.89713959999972,177.91210440000032,178.11270710000008,178.09641199999987,,,,,,,,1,1,0.9273340999998254,None,,,,,,,,827,23,M,R,2026-02-18_12h38.28.624,VisualSearch_2526_3,,2025.2.4,2026-02-18 12h38.28.839465 +0100,
vertical.xlsx,The target is tilted.,135,47,7,5,0,1,1,1,0,0,0,0,0,0,0,0,1,3,4,135,space,4.307391600000301,None,0,1,1.3294870999998238,None,space,2.5786026999994647,None,0,0,0,1,,,,,5,7,47,6,178.11270710000008,,,,,,,,,,,,,,,,,,,,,178.09714540000004,178.11270710000008,178.61747749999995,178.59634800000003,178.60091139999986,178.61747749999995,179.96264830000018,,,,,179.9628101999997,179.97833189999983,180.17901170000005,180.16282669999964,,,,,,,,0,1,1.3294870999998238,None,,,,,,,,827,23,M,R,2026-02-18_12h38.28.624,VisualSearch_2526_3,,2025.2.4,2026-02-18 12h38.28.839465 +0100,
vertical.xlsx,The target is tilted.,135,48,0,6,1,1,1,1,1,1,1,1,1,1,1,1,0,11,12,135,space,4.307391600000301,None,1,1,0.712611800000559,None,space,2.5786026999994647,None,0,0,0,1,,,,,6,0,48,0,180.17901170000005,,,,,,,,,,,,,,,,,,,,,180.16356280000036,180.17901170000005,180.67860670000027,180.66218169999956,180.66365570000016,180.67860670000027,181.39630140000008,,,,,181.3965016000002,181.41145450000022,181.61203060000025,181.59578890000012,,,,,,,,1,1,0.712611800000559,None,,,,,,,,827,23,M,R,2026-02-18_12h38.28.624,VisualSearch_2526_3,,2025.2.4,2026-02-18 12h38.28.839465 +0100,
vertical.xlsx,The target is tilted.,135,49,1,6,0,0,0,0,0,0,0,0,0,0,0,0,1,1,1,135,space,4.307391600000301,None,0,1,0.5798323999997592,None,space,2.5786026999994647,None,0,0,0,1,,,,,6,1,49,7,181.61203060000025,,,,,,,,,,,,,,,,,,,,,181.59657419999985,181.61203060000025,182.1157357000002,182.09567669999979,182.10045179999997,182.1157357000002,182.71224580000035,,,,,182.71243070000037,182.72784630000024,182.9285686000003,182.91212879999966,,,,,,,,0,1,0.5798323999997592,None,,,,,,,,827,23,M,R,2026-02-18_12h38.28.624,VisualSearch_2526_3,,2025.2.4,2026-02-18 12h38.28.839465 +0100,
vertical.xlsx,The target is tilted.,135,50,2,6,0,1,1,1,1,1,1,1,0,0,0,0,1,7,8,135,space,4.307391600000301,None,0,1,2.714503600000171,None,space,2.5786026999994647,None,0,0,0,1,,,,,6,2,50,5,182.9285686000003,,,,,,,,,,,,,,,,,,,,,182.91297039999972,182.9285686000003,183.43208909999976,183.41217700000016,183.41666890000033,183.43208909999976,186.1615339,,,,,186.1616881,186.1772688000001,186.37773070000003,186.3617002000001,,,,,,,,0,1,2.714503600000171,None,,,,,,,,827,23,M,R,2026-02-18_12h38.28.624,VisualSearch_2526_3,,2025.2.4,2026-02-18 12h38.28.839465 +0100,
vertical.xlsx,The target is tilted.,135,51,3,6,1,0,0,0,0,0,0,0,0,0,0,0,0,0,1,135,space,4.307391600000301,None,1,1,0.5623003000000608,None,space,2.5786026999994647,None,0,0,0,1,,,,,6,3,51,3,186.37773070000003,,,,,,,,,,,,,,,,,,,,,186.36229869999988,186.37773070000003,186.87776479999957,186.86124519999976,186.86513430000014,186.87776479999957,187.44491779999953,,,,,187.4450809,187.4605277999999,187.6611237999996,187.6449644000004,,,,,,,,1,1,0.5623003000000608,None,,,,,,,,827,23,M,R,2026-02-18_12h38.28.624,VisualSearch_2526_3,,2025.2.4,2026-02-18 12h38.28.839465 +0100,
vertical.xlsx,The target is tilted.,135,52,4,6,1,1,1,1,1,1,1,1,0,0,0,0,0,7,8,135,space,4.307391600000301,None,1,1,1.016173400000298,None,space,2.5786026999994647,None,0,0,0,1,,,,,6,4,52,1,187.6611237999996,,,,,,,,,,,,,,,,,,,,,187.64567629999965,187.6611237999996,188.1608741,188.14509249999992,188.14967080000042,188.1608741,189.1784735000001,,,,,189.17867190000015,189.1935937999997,189.3941616000002,189.3776125000004,,,,,,,,1,1,1.016173400000298,None,,,,,,,,827,23,M,R,2026-02-18_12h38.28.624,VisualSearch_2526_3,,2025.2.4,2026-02-18 12h38.28.839465 +0100,
vertical.xlsx,The target is tilted.,135,53,5,6,1,1,1,1,0,0,0,0,0,0,0,0,0,3,4,135,space,4.307391600000301,None,1,1,0.5305834000000687,None,space,2.5786026999994647,None,0,0,0,1,,,,,6,5,53,2,189.3941616000002,,,,,,,,,,,,,,,,,,,,,189.37834699999985,189.3941616000002,189.90023480000036,189.87786959999994,189.88247179999962,189.90023480000036,190.44445149999956,,,,,190.4446742,190.46003420000034,190.66024050000033,190.64460580000014,,,,,,,,1,1,0.5305834000000687,None,,,,,,,,827,23,M,R,2026-02-18_12h38.28.624,VisualSearch_2526_3,,2025.2.4,2026-02-18 12h38.28.839465 +0100,
vertical.xlsx,The target is tilted.,135,54,6,6,0,1,1,1,0,0,0,0,0,0,0,0,1,3,4,135,space,4.307391600000301,None,0,1,0.7901762999999846,None,space,2.5786026999994647,None,0,0,0,1,,,,,6,6,54,6,190.66024050000033,,,,,,,,,,,,,,,,,,,,,190.64535220000016,190.66024050000033,191.16940460000023,191.14455180000004,191.14975659999982,191.16940460000023,191.96146090000002,,,,,191.9616377000002,191.97645250000005,192.17699019999964,192.16086900000028,,,,,,,,0,1,0.7901762999999846,None,,,,,,,,827,23,M,R,2026-02-18_12h38.28.624,VisualSearch_2526_3,,2025.2.4,2026-02-18 12h38.28.839465 +0100,
vertical.xlsx,The target is tilted.,135,55,7,6,0,1,1,1,1,1,1,1,1,1,1,1,1,11,12,135,space,4.307391600000301,None,0,1,2.7055570000002263,None,space,2.5786026999994647,None,0,0,0,1,,,,,6,7,55,4,192.17699019999964,,,,,,,,,,,,,,,,,,,,,192.16160899999977,192.17699019999964,192.68262680000043,192.66095760000007,192.66628469999978,192.68262680000043,195.3940634999999,,,,,195.39423950000037,195.40917960000024,195.60986839999987,195.5931701999998,,,,,,,,0,1,2.7055570000002263,None,,,,,,,,827,23,M,R,2026-02-18_12h38.28.624,VisualSearch_2526_3,,2025.2.4,2026-02-18 12h38.28.839465 +0100,
vertical.xlsx,The target is tilted.,135,56,0,7,0,1,1,1,1,1,1,1,1,1,1,1,1,11,12,135,space,4.307391600000301,None,0,1,2.4181967999993503,None,space,2.5786026999994647,None,0,0,0,1,,,,,7,0,56,4,195.60986839999987,,,,,,,,,,,,,,,,,,,,,195.5938532,195.60986839999987,196.10964119999971,196.0935671999996,196.09803420000026,196.10964119999971,198.54285189999973,,,,,198.5430022999999,198.5586132999997,198.75939319999998,198.74317900000005,,,,,,,,0,1,2.4181967999993503,None,,,,,,,,827,23,M,R,2026-02-18_12h38.28.624,VisualSearch_2526_3,,2025.2.4,2026-02-18 12h38.28.839465 +0100,
vertical.xlsx,The target is tilted.,135,57,1,7,1,0,0,0,0,0,0,0,0,0,0,0,0,0,1,135,space,4.307391600000301,None,1,1,0.5311754999993354,None,space,2.5786026999994647,None,0,0,0,1,,,,,7,1,57,3,198.75939319999998,,,,,,,,,,,,,,,,,,,,,198.7438877000004,198.75939319999998,199.25905909999983,199.2432257999999,199.24794790000033,199.25905909999983,199.79353919999994,,,,,199.79374999999982,199.80845539999973,200.0086954999997,199.99287110000023,,,,,,,,1,1,0.5311754999993354,None,,,,,,,,827,23,M,R,2026-02-18_12h38.28.624,VisualSearch_2526_3,,2025.2.4,2026-02-18 12h38.28.839465 +0100,
vertical.xlsx,The target is tilted.,135,58,2,7,0,1,1,1,1,1,1,1,0,0,0,0,1,7,8,135,space,4.307391600000301,None,0,1,1.887158200000158,None,space,2.5786026999994647,None,0,0,0,1,,,,,7,2,58,5,200.0086954999997,,,,,,,,,,,,,,,,,,,,,199.9936361,200.0086954999997,200.51439740000023,200.49285210000016,200.49742200000037,200.51439740000023,202.40958030000002,,,,,202.40976070000033,202.42467550000038,202.62490640000033,202.60916970000017,,,,,,,,0,1,1.887158200000158,None,,,,,,,,827,23,M,R,2026-02-18_12h38.28.624,VisualSearch_2526_3,,2025.2.4,2026-02-18 12h38.28.839465 +0100,
vertical.xlsx,The target is tilted.,135,59,3,7,1,1,1,1,0,0,0,0,0,0,0,0,0,3,4,135,space,4.307391600000301,None,1,1,1.2160981999995784,None,space,2.5786026999994647,None,0,0,0,1,,,,,7,3,59,2,202.62490640000033,,,,,,,,,,,,,,,,,,,,,202.60989770000015,202.62490640000033,203.12471199999982,203.1086365000001,203.11312739999994,203.12471199999982,204.34265270000014,,,,,204.34282910000002,204.3577167000003,204.55817000000025,204.54223019999972,,,,,,,,1,1,1.2160981999995784,None,,,,,,,,827,23,M,R,2026-02-18_12h38.28.624,VisualSearch_2526_3,,2025.2.4,2026-02-18 12h38.28.839465 +0100,
vertical.xlsx,The target is tilted.,135,60,4,7,1,1,1,1,1,1,1,1,0,0,0,0,0,7,8,135,space,4.307391600000301,None,1,1,1.3813771000004635,None,space,2.5786026999994647,None,0,0,0,1,,,,,7,4,60,1,204.55817000000025,,,,,,,,,,,,,,,,,,,,,204.54294240000036,204.55817000000025,205.06323669999983,205.0420909000004,205.04650700000002,205.06323669999983,206.4583700000003,,,,,206.45856699999968,206.4740337000003,206.6746710999996,206.65829810000014,,,,,,,,1,1,1.3813771000004635,None,,,,,,,,827,23,M,R,2026-02-18_12h38.28.624,VisualSearch_2526_3,,2025.2.4,2026-02-18 12h38.28.839465 +0100,
vertical.xlsx,The target is tilted.,135,61,5,7,0,1,1,1,0,0,0,0,0,0,0,0,1,3,4,135,space,4.307391600000301,None,0,1,0.770622000000003,None,space,2.5786026999994647,None,0,0,0,1,,,,,7,5,61,6,206.6746710999996,,,,,,,,,,,,,,,,,,,,,206.6590200999999,206.6746710999996,207.17788889999974,207.15795999999955,207.16221419999965,207.17788889999974,207.95883830000002,,,,,207.95903089999956,207.97382370000014,208.17439399999967,208.15805720000026,,,,,,,,0,1,0.770622000000003,None,,,,,,,,827,23,M,R,2026-02-18_12h38.28.624,VisualSearch_2526_3,,2025.2.4,2026-02-18 12h38.28.839465 +0100,
vertical.xlsx,The target is tilted.,135,62,6,7,0,0,0,0,0,0,0,0,0,0,0,0,1,1,1,135,space,4.307391600000301,None,0,1,0.6863355000004958,None,space,2.5786026999994647,None,0,0,0,1,,,,,7,6,62,7,208.17439399999967,,,,,,,,,,,,,,,,,,,,,208.15880780000043,208.17439399999967,208.67378689999987,208.65798970000014,208.6629654999997,208.67378689999987,209.3741028000004,,,,,209.37422229999993,209.39007049999964,,209.57446379999965,,,,,,,,0,1,0.6863355000004958,None,,,,,,,,827,23,M,R,2026-02-18_12h38.28.624,VisualSearch_2526_3,,2025.2.4,2026-02-18 12h38.28.839465 +0100,
vertical.xlsx,The target is tilted.,135,63,7,7,1,1,1,1,1,1,1,1,1,1,1,1,0,11,12,135,space,4.307391600000301,None,1,1,0.841446100000212,None,space,2.5786026999994647,None,0,0,0,1,,,,,7,7,63,0,209.59086769999976,,,,,,,,,,,,,,,,,,,,,209.57532859999992,209.59086769999976,,210.0745164,210.07983969999987,210.09785120000015,210.9417424000003,,,,,210.94193919999998,210.95670410000002,211.15730019999955,211.14109569999982,,,,,,,,1,1,0.841446100000212,None,,,,,,,,827,23,M,R,2026-02-18_12h38.28.624,VisualSearch_2526_3,,2025.2.4,2026-02-18 12h38.28.839465 +0100,
vertical.xlsx,The target is tilted.,135,64,0,8,0,0,0,0,0,0,0,0,0,0,0,0,1,1,1,135,space,4.307391600000301,None,0,1,0.7877054000000498,None,space,2.5786026999994647,None,0,0,0,1,,,,,8,0,64,7,211.15730019999955,,,,,,,,,,,,,,,,,,,,,211.14181110000027,211.15730019999955,211.6620356000003,211.6410036999996,211.64542019999953,211.6620356000003,212.4579332000003,,,,,212.45812599999954,212.47309930000029,212.6735888000003,212.65727919999972,,,,,,,,0,1,0.7877054000000498,None,,,,,,,,827,23,M,R,2026-02-18_12h38.28.624,VisualSearch_2526_3,,2025.2.4,2026-02-18 12h38.28.839465 +0100,
vertical.xlsx,The target is tilted.,135,65,1,8,1,1,1,1,0,0,0,0,0,0,0,0,0,3,4,135,space,4.307391600000301,None,1,1,0.6078809000000547,None,space,2.5786026999994647,None,0,0,0,1,,,,,8,1,65,2,212.6735888000003,,,,,,,,,,,,,,,,,,,,,212.65793339999982,212.6735888000003,213.1805172000004,213.15753370000039,213.1630449000004,213.1805172000004,213.79126220000035,,,,,213.79146870000022,213.80618349999986,214.00669689999995,213.99058429999968,,,,,,,,1,1,0.6078809000000547,None,,,,,,,,827,23,M,R,2026-02-18_12h38.28.624,VisualSearch_2526_3,,2025.2.4,2026-02-18 12h38.28.839465 +0100,
vertical.xlsx,The target is tilted.,135,66,2,8,1,1,1,1,1,1,1,1,1,1,1,1,0,11,12,135,space,4.307391600000301,None,1,1,2.4972334000003684,None,space,2.5786026999994647,None,0,0,0,1,,,,,8,2,66,0,214.00669689999995,,,,,,,,,,,,,,,,,,,,,213.9913134999997,214.00669689999995,214.51150700000017,214.48997299999974,214.4945846999999,214.51150700000017,217.02345309999964,,,,,217.02354600000035,217.03881679999995,217.23955060000026,217.2230523999997,,,,,,,,1,1,2.4972334000003684,None,,,,,,,,827,23,M,R,2026-02-18_12h38.28.624,VisualSearch_2526_3,,2025.2.4,2026-02-18 12h38.28.839465 +0100,
vertical.xlsx,The target is tilted.,135,67,3,8,1,1,1,1,1,1,1,1,0,0,0,0,0,7,8,135,space,4.307391600000301,None,1,1,0.6909130999993067,None,space,2.5786026999994647,None,0,0,0,1,,,,,8,3,67,1,217.23955060000026,,,,,,,,,,,,,,,,,,,,,217.2237984000003,217.23955060000026,217.74420939999982,217.72336180000002,217.72778540000036,217.74420939999982,218.44018620000043,,,,,218.44036210000013,218.4553589999996,218.65548860000035,218.63935159999983,,,,,,,,1,1,0.6909130999993067,None,,,,,,,,827,23,M,R,2026-02-18_12h38.28.624,VisualSearch_2526_3,,2025.2.4,2026-02-18 12h38.28.839465 +0100,
vertical.xlsx,The target is tilted.,135,68,4,8,0,1,1,1,0,0,0,0,0,0,0,0,1,3,4,135,space,4.307391600000301,None,0,1,1.1536709000001792,None,space,2.5786026999994647,None,0,0,0,1,,,,,8,4,68,6,218.65548860000035,,,,,,,,,,,,,,,,,,,,,218.64004920000025,218.65548860000035,219.16247360000034,219.1395276000003,219.14442810000037,219.16247360000034,220.32277429999976,,,,,220.3228697000004,220.33820360000027,220.5390037999996,220.52284469999995,,,,,,,,0,1,1.1536709000001792,None,,,,,,,,827,23,M,R,2026-02-18_12h38.28.624,VisualSearch_2526_3,,2025.2.4,2026-02-18 12h38.28.839465 +0100,
vertical.xlsx,The target is tilted.,135,69,5,8,0,1,1,1,1,1,1,1,1,1,1,1,1,11,12,135,space,4.307391600000301,None,0,1,2.592720499999814,None,space,2.5786026999994647,None,0,0,0,1,,,,,8,5,69,4,220.5390037999996,,,,,,,,,,,,,,,,,,,,,220.52356820000023,220.5390037999996,221.04341310000018,221.02278699999988,221.02729770000042,221.04341310000018,223.63945429999967,,,,,223.63962509999965,223.65456280000035,223.85473660000025,223.83888490000027,,,,,,,,0,1,2.592720499999814,None,,,,,,,,827,23,M,R,2026-02-18_12h38.28.624,VisualSearch_2526_3,,2025.2.4,2026-02-18 12h38.28.839465 +0100,
vertical.xlsx,The target is tilted.,135,70,6,8,0,1,1,1,1,1,1,1,0,0,0,0,1,7,8,135,space,4.307391600000301,None,0,1,2.202006900000015,None,space,2.5786026999994647,None,0,0,0,1,,,,,8,6,70,5,223.85473660000025,,,,,,,,,,,,,,,,,,,,,223.83962669999983,223.85473660000025,224.35858110000026,224.3388477999997,224.34335680000004,224.35858110000026,226.57226629999968,,,,,226.57244150000042,226.58736380000028,226.78800649999994,226.7718372999998,,,,,,,,0,1,2.202006900000015,None,,,,,,,,827,23,M,R,2026-02-18_12h38.28.624,VisualSearch_2526_3,,2025.2.4,2026-02-18 12h38.28.839465 +0100,
vertical.xlsx,The target is tilted.,135,71,7,8,1,0,0,0,0,0,0,0,0,0,0,0,0,0,1,135,space,4.307391600000301,None,1,1,0.563395500000297,None,space,2.5786026999994647,None,0,0,0,1,,,,,8,7,71,3,226.78800649999994,,,,,,,,,,,,,,,,,,,,,226.77255710000009,226.78800649999994,227.2930096,227.27197989999968,227.2766131999997,227.2930096,227.8715304999996,,,,,227.87171810000018,227.88715090000005,228.08778470000016,228.0715164000003,,,,,,,,1,1,0.563395500000297,None,,,,,,,,827,23,M,R,2026-02-18_12h38.28.624,VisualSearch_2526_3,,2025.2.4,2026-02-18 12h38.28.839465 +0100,
vertical.xlsx,The target is tilted.,135,72,0,9,1,1,1,1,0,0,0,0,0,0,0,0,0,3,4,135,space,4.307391600000301,None,1,1,0.6690657999997711,None,space,2.5786026999994647,None,0,0,0,1,,,,,9,0,72,2,228.08778470000016,,,,,,,,,,,,,,,,,,,,,228.07224159999987,228.08778470000016,228.59221789999992,228.57152029999997,228.5759839000002,228.59221789999992,229.27204770000026,,,,,229.27224089999982,229.28694710000036,229.48750540000037,229.4714342999996,,,,,,,,1,1,0.6690657999997711,None,,,,,,,,827,23,M,R,2026-02-18_12h38.28.624,VisualSearch_2526_3,,2025.2.4,2026-02-18 12h38.28.839465 +0100,
vertical.xlsx,The target is tilted.,135,73,1,9,0,1,1,1,1,1,1,1,0,0,0,0,1,7,8,135,space,4.307391600000301,None,0,1,1.6078369000006205,None,space,2.5786026999994647,None,0,0,0,1,,,,,9,1,73,5,229.48750540000037,,,,,,,,,,,,,,,,,,,,,229.4721896000001,229.48750540000037,229.98730330000035,229.97136880000016,229.9757284999996,229.98730330000035,231.6048006000001,,,,,231.6049740999997,231.61986139999954,231.82045089999974,231.80422530000033,,,,,,,,0,1,1.6078369000006205,None,,,,,,,,827,23,M,R,2026-02-18_12h38.28.624,VisualSearch_2526_3,,2025.2.4,2026-02-18 12h38.28.839465 +0100,
vertical.xlsx,The target is tilted.,135,74,2,9,1,1,1,1,1,1,1,1,1,1,1,1,0,11,12,135,space,4.307391600000301,None,1,1,1.0652851000004375,None,space,2.5786026999994647,None,0,0,0,1,,,,,9,2,74,0,231.82045089999974,,,,,,,,,,,,,,,,,,,,,231.80482779999966,231.82045089999974,232.3252424000002,232.30378999999994,232.3079719999996,232.3252424000002,233.40391960000034,,,,,233.40401120000024,233.41945190000024,233.62003379999987,233.60409739999977,,,,,,,,1,1,1.0652851000004375,None,,,,,,,,827,23,M,R,2026-02-18_12h38.28.624,VisualSearch_2526_3,,2025.2.4,2026-02-18 12h38.28.839465 +0100,
vertical.xlsx,The target is tilted.,135,75,3,9,0,0,0,0,0,0,0,0,0,0,0,0,1,1,1,135,space,4.307391600000301,None,0,1,0.5849527000000307,None,space,2.5786026999994647,None,0,0,0,1,,,,,9,3,75,7,233.62003379999987,,,,,,,,,,,,,,,,,,,,,233.60481849999996,233.62003379999987,234.12392379999983,234.10409009999967,234.1090506999999,234.12392379999983,234.72036599999956,,,,,234.72045119999984,234.73582090000036,234.93657669999993,234.92050319999998,,,,,,,,0,1,0.5849527000000307,None,,,,,,,,827,23,M,R,2026-02-18_12h38.28.624,VisualSearch_2526_3,,2025.2.4,2026-02-18 12h38.28.839465 +0100,
vertical.xlsx,The target is tilted.,135,76,4,9,0,1,1,1,0,0,0,0,0,0,0,0,1,3,4,135,space,4.307391600000301,None,0,1,0.6453074000000925,None,space,2.5786026999994647,None,0,0,0,1,,,,,9,4,76,6,234.93657669999993,,,,,,,,,,,,,,,,,,,,,234.9212153999997,234.93657669999993,235.44143150000036,235.42007269999976,235.4244633999997,235.44143150000036,236.10358879999967,,,,,236.1037809999998,236.1192632000002,236.31966180000018,236.30352560000028,,,,,,,,0,1,0.6453074000000925,None,,,,,,,,827,23,M,R,2026-02-18_12h38.28.624,VisualSearch_2526_3,,2025.2.4,2026-02-18 12h38.28.839465 +0100,
vertical.xlsx,The target is tilted.,135,77,5,9,1,1,1,1,1,1,1,1,0,0,0,0,0,7,8,135,space,4.307391600000301,None,1,1,0.7479111000002376,None,space,2.5786026999994647,None,0,0,0,1,,,,,9,5,77,1,236.31966180000018,,,,,,,,,,,,,,,,,,,,,236.30427229999987,236.31966180000018,236.8194327000001,236.80351789999986,236.80788380000013,236.8194327000001,237.57077420000041,,,,,237.5709807000003,237.5855646,237.78579569999965,237.76965120000023,,,,,,,,1,1,0.7479111000002376,None,,,,,,,,827,23,M,R,2026-02-18_12h38.28.624,VisualSearch_2526_3,,2025.2.4,2026-02-18 12h38.28.839465 +0100,
vertical.xlsx,The target is tilted.,135,78,6,9,0,1,1,1,1,1,1,1,1,1,1,1,1,11,12,135,space,4.307391600000301,None,0,1,3.317726799999946,None,space,2.5786026999994647,None,0,0,0,1,,,,,9,6,78,4,237.78579569999965,,,,,,,,,,,,,,,,,,,,,237.77041120000013,237.78579569999965,238.28649700000005,238.27000190000035,238.27504659999977,238.28649700000005,241.619009,,,,,241.61915930000032,241.63480199999958,241.8353463000003,241.8192379000002,,,,,,,,0,1,3.317726799999946,None,,,,,,,,827,23,M,R,2026-02-18_12h38.28.624,VisualSearch_2526_3,,2025.2.4,2026-02-18 12h38.28.839465 +0100,
vertical.xlsx,The target is tilted.,135,79,7,9,1,0,0,0,0,0,0,0,0,0,0,0,0,0,1,135,space,4.307391600000301,None,1,1,0.5713205000001835,None,space,2.5786026999994647,None,0,0,0,1,,,,,9,7,79,3,241.8353463000003,,,,,,,,,,,,,,,,,,,,,241.82000349999998,241.8353463000003,242.33961369999997,242.3193164000004,242.32370749999973,242.33961369999997,242.91966049999974,,,,,242.9198435999997,242.93467559999954,243.13487439999972,243.11913749999985,,,,,,,,1,1,0.5713205000001835,None,,,,,,,,827,23,M,R,2026-02-18_12h38.28.624,VisualSearch_2526_3,,2025.2.4,2026-02-18 12h38.28.839465 +0100,
vertical.xlsx,The target is tilted.,135,80,0,10,0,1,1,1,1,1,1,1,1,1,1,1,1,11,12,135,space,4.307391600000301,None,0,1,2.883748299999752,None,space,2.5786026999994647,None,0,0,0,1,,,,,10,0,80,4,243.13487439999972,,,,,,,,,,,,,,,,,,,,,243.11985449999975,243.13487439999972,243.64167780000025,243.61895170000025,243.6235416999998,243.64167780000025,246.53538349999963,,,,,246.53552899999977,246.55071140000018,246.75123710000025,246.73496350000005,,,,,,,,0,1,2.883748299999752,None,,,,,,,,827,23,M,R,2026-02-18_12h38.28.624,VisualSearch_2526_3,,2025.2.4,2026-02-18 12h38.28.839465 +0100,
vertical.xlsx,The target is tilted.,135,81,1,10,1,0,0,0,0,0,0,0,0,0,0,0,0,0,1,135,space,4.307391600000301,None,1,1,0.6331700999999157,None,space,2.5786026999994647,None,0,0,0,1,,,,,10,1,81,3,246.75123710000025,,,,,,,,,,,,,,,,,,,,,246.73560420000013,246.75123710000025,247.25638179999987,247.23512969999956,247.23961859999963,247.25638179999987,247.9020491000001,,,,,247.90222249999988,247.91715209999984,248.1177316000003,248.10114650000014,,,,,,,,1,1,0.6331700999999157,None,,,,,,,,827,23,M,R,2026-02-18_12h38.28.624,VisualSearch_2526_3,,2025.2.4,2026-02-18 12h38.28.839465 +0100,
vertical.xlsx,The target is tilted.,135,82,2,10,0,0,0,0,0,0,0,0,0,0,0,0,1,1,1,135,space,4.307391600000301,None,1,0,0.42924000000039086,None,space,2.5786026999994647,None,0,0,0,1,,,,,10,2,82,7,248.1177316000003,,,,,,,,,,,,,,,,,,,,,248.10179320000043,248.1177316000003,248.62450549999994,248.6015398999998,248.6065305000002,248.62450549999994,249.06804060000013,,,,,249.0682241000004,249.0836122999999,249.28406069999983,249.2677302000002,,,,,,,,1,0,0.42924000000039086,None,,,,,,,,827,23,M,R,2026-02-18_12h38.28.624,VisualSearch_2526_3,,2025.2.4,2026-02-18 12h38.28.839465 +0100,
vertical.xlsx,The target is tilted.,135,83,3,10,0,1,1,1,1,1,1,1,0,0,0,0,1,7,8,135,space,4.307391600000301,None,0,1,2.249320799999623,None,space,2.5786026999994647,None,0,0,0,1,,,,,10,3,83,5,249.28406069999983,,,,,,,,,,,,,,,,,,,,,249.26849690000017,249.28406069999983,249.7834644000004,249.76791570000023,249.77137959999982,249.7834644000004,252.03483450000022,,,,,252.0350000999997,252.0498649000001,252.25044830000024,252.23419430000013,,,,,,,,0,1,2.249320799999623,None,,,,,,,,827,23,M,R,2026-02-18_12h38.28.624,VisualSearch_2526_3,,2025.2.4,2026-02-18 12h38.28.839465 +0100,
vertical.xlsx,The target is tilted.,135,84,4,10,0,1,1,1,0,0,0,0,0,0,0,0,1,3,4,135,space,4.307391600000301,None,0,1,1.1442393000006632,None,space,2.5786026999994647,None,0,0,0,1,,,,,10,4,84,6,252.25044830000024,,,,,,,,,,,,,,,,,,,,,252.23492749999969,252.25044830000024,252.7564851999996,252.73421270000017,252.7386932999998,252.7564851999996,253.9171526,,,,,253.91730199999984,253.93358329999955,254.1333955,254.11668670000017,,,,,,,,0,1,1.1442393000006632,None,,,,,,,,827,23,M,R,2026-02-18_12h38.28.624,VisualSearch_2526_3,,2025.2.4,2026-02-18 12h38.28.839465 +0100,
vertical.xlsx,The target is tilted.,135,85,5,10,1,1,1,1,1,1,1,1,0,0,0,0,0,7,8,135,space,4.307391600000301,None,1,1,1.103874899999937,None,space,2.5786026999994647,None,0,0,0,1,,,,,10,5,85,1,254.1333955,,,,,,,,,,,,,,,,,,,,,254.1172802000001,254.1333955,254.63711969999986,254.61676559999978,254.62076549999983,254.63711969999986,255.75077020000026,,,,,255.75094030000037,255.76605930000005,255.96639909999976,255.95037179999963,,,,,,,,1,1,1.103874899999937,None,,,,,,,,827,23,M,R,2026-02-18_12h38.28.624,VisualSearch_2526_3,,2025.2.4,2026-02-18 12h38.28.839465 +0100,
vertical.xlsx,The target is tilted.,135,86,6,10,1,1,1,1,1,1,1,1,1,1,1,1,0,11,12,135,space,4.307391600000301,None,1,1,0.8095547000002625,None,space,2.5786026999994647,None,0,0,0,1,,,,,10,6,86,0,255.96639909999976,,,,,,,,,,,,,,,,,,,,,255.95108340000024,255.96639909999976,256.4731665999998,256.4504866999996,256.45541930000036,256.4731665999998,257.28388949999953,,,,,257.28406730000006,257.2994982,257.49954080000043,257.4833079,,,,,,,,1,1,0.8095547000002625,None,,,,,,,,827,23,M,R,2026-02-18_12h38.28.624,VisualSearch_2526_3,,2025.2.4,2026-02-18 12h38.28.839465 +0100,
vertical.xlsx,The target is tilted.,135,87,7,10,1,1,1,1,0,0,0,0,0,0,0,0,0,3,4,135,space,4.307391600000301,None,1,1,0.8877042999993137,None,space,2.5786026999994647,None,0,0,0,1,,,,,10,7,87,2,257.49954080000043,,,,,,,,,,,,,,,,,,,,,257.4840495999997,257.49954080000043,258.00485019999996,257.98303920000035,257.9875572000001,258.00485019999996,258.9004769000003,,,,,258.90067269999963,258.91593639999974,259.1158292,259.0998929999996,,,,,,,,1,1,0.8877042999993137,None,,,,,,,,827,23,M,R,2026-02-18_12h38.28.624,VisualSearch_2526_3,,2025.2.4,2026-02-18 12h38.28.839465 +0100,
vertical.xlsx,The target is tilted.,135,88,0,11,0,1,1,1,1,1,1,1,1,1,1,1,1,11,12,135,space,4.307391600000301,None,0,1,3.4145639999997,None,space,2.5786026999994647,None,0,0,0,1,,,,,11,0,88,4,259.1158292,,,,,,,,,,,,,,,,,,,,,259.10062219999963,259.1158292,259.6155198999995,259.5993947999996,259.60219510000024,259.6155198999995,263.0327967000003,,,,,263.0329548999998,263.0485417,263.2486485999998,263.2324332999997,,,,,,,,0,1,3.4145639999997,None,,,,,,,,827,23,M,R,2026-02-18_12h38.28.624,VisualSearch_2526_3,,2025.2.4,2026-02-18 12h38.28.839465 +0100,
vertical.xlsx,The target is tilted.,135,89,1,11,1,1,1,1,1,1,1,1,1,1,1,1,0,11,12,135,space,4.307391600000301,None,1,1,1.1646956999993563,None,space,2.5786026999994647,None,0,0,0,1,,,,,11,1,89,0,263.2486485999998,,,,,,,,,,,,,,,,,,,,,263.23317419999967,263.2486485999998,263.75378889999956,263.73250840000037,263.73696850000033,263.75378889999956,264.9326509000002,,,,,264.9328249,264.9482324999999,265.14827140000034,265.1321361999999,,,,,,,,1,1,1.1646956999993563,None,,,,,,,,827,23,M,R,2026-02-18_12h38.28.624,VisualSearch_2526_3,,2025.2.4,2026-02-18 12h38.28.839465 +0100,
vertical.xlsx,The target is tilted.,135,90,2,11,0,1,1,1,0,0,0,0,0,0,0,0,1,3,4,135,space,4.307391600000301,None,0,1,0.8911039000004166,None,space,2.5786026999994647,None,0,0,0,1,,,,,11,2,90,6,265.14827140000034,,,,,,,,,,,,,,,,,,,,,265.13288959999954,265.14827140000034,265.65247329999966,265.63204719999976,265.6364153000004,265.65247329999966,266.5477539000003,,,,,266.5478476999997,266.5640655999996,,266.74800549999964,,,,,,,,0,1,0.8911039000004166,None,,,,,,,,827,23,M,R,2026-02-18_12h38.28.624,VisualSearch_2526_3,,2025.2.4,2026-02-18 12h38.28.839465 +0100,
vertical.xlsx,The target is tilted.,135,91,3,11,1,1,1,1,0,0,0,0,0,0,0,0,0,3,4,135,space,4.307391600000301,None,1,1,0.8218465999998443,None,space,2.5786026999994647,None,0,0,0,1,,,,,11,3,91,2,266.76459609999984,,,,,,,,,,,,,,,,,,,,,266.7484695000003,266.76459609999984,267.2639916999997,267.2477968000003,267.2501011000004,267.2639916999997,268.0989354000003,,,,,268.09913080000024,268.1142034000004,268.3139637000004,268.2977886999997,,,,,,,,1,1,0.8218465999998443,None,,,,,,,,827,23,M,R,2026-02-18_12h38.28.624,VisualSearch_2526_3,,2025.2.4,2026-02-18 12h38.28.839465 +0100,
vertical.xlsx,The target is tilted.,135,92,4,11,0,0,0,0,0,0,0,0,0,0,0,0,1,1,1,135,space,4.307391600000301,None,0,1,0.7347727000005762,None,space,2.5786026999994647,None,0,0,0,1,,,,,11,4,92,7,268.3139637000004,,,,,,,,,,,,,,,,,,,,,268.2985184999998,268.3139637000004,268.8142748,268.7983537,268.80300629999965,268.8142748,269.56538100000034,,,,,269.56557729999986,269.5809489000003,269.78090989999964,269.7648429999999,,,,,,,,0,1,0.7347727000005762,None,,,,,,,,827,23,M,R,2026-02-18_12h38.28.624,VisualSearch_2526_3,,2025.2.4,2026-02-18 12h38.28.839465 +0100,
vertical.xlsx,The target is tilted.,135,93,5,11,1,1,1,1,1,1,1,1,0,0,0,0,0,7,8,135,space,4.307391600000301,None,1,1,1.5227428000007421,None,space,2.5786026999994647,None,0,0,0,1,,,,,11,5,93,1,269.78090989999964,,,,,,,,,,,,,,,,,,,,,269.7656515999997,269.78090989999964,270.28056190000007,270.26488080000036,270.26980339999955,270.28056190000007,271.81489059999967,,,,,271.8150648999999,271.83039949999966,272.0302419999998,272.0143721000004,,,,,,,,1,1,1.5227428000007421,None,,,,,,,,827,23,M,R,2026-02-18_12h38.28.624,VisualSearch_2526_3,,2025.2.4,2026-02-18 12h38.28.839465 +0100,
vertical.xlsx,The target is tilted.,135,94,6,11,0,1,1,1,1,1,1,1,0,0,0,0,1,7,8,135,space,4.307391600000301,None,0,1,3.2536411999999473,None,space,2.5786026999994647,None,0,0,0,1,,,,,11,6,94,5,272.0302419999998,,,,,,,,,,,,,,,,,,,,,272.0150772999996,272.0302419999998,272.5352708999999,272.51440120000007,272.5191458999998,272.5352708999999,275.79741019999983,,,,,275.7975698,275.8129906000004,276.01332749999983,275.99683970000024,,,,,,,,0,1,3.2536411999999473,None,,,,,,,,827,23,M,R,2026-02-18_12h38.28.624,VisualSearch_2526_3,,2025.2.4,2026-02-18 12h38.28.839465 +0100,
vertical.xlsx,The target is tilted.,135,95,7,11,1,0,0,0,0,0,0,0,0,0,0,0,0,0,1,135,space,4.307391600000301,None,1,1,1.3143878000000768,None,space,2.5786026999994647,None,0,0,0,1,,,,,11,7,95,3,276.01332749999983,,,,,,,,,,,,,,,,,,,,,275.99756940000043,276.01332749999983,276.5127884000003,276.49637919999986,276.4999717999999,276.5127884000003,277.8305499999997,,,,,277.83073030000014,277.8460742999996,278.04606109999986,278.0300344999996,,,,,,,,1,1,1.3143878000000768,None,,,,,,,,827,23,M,R,2026-02-18_12h38.28.624,VisualSearch_2526_3,,2025.2.4,2026-02-18 12h38.28.839465 +0100,
vertical.xlsx,The target is tilted.,135,96,0,12,0,1,1,1,1,1,1,1,1,1,1,1,1,11,12,135,space,4.307391600000301,None,0,1,3.971461900000577,None,space,2.5786026999994647,None,0,0,0,1,,,,,12,0,96,4,278.04606109999986,,,,,,,,,,,,,,,,,,,,,278.03075569999965,278.04606109999986,278.55194930000016,278.53014340000027,278.5348320000003,278.55194930000016,282.52923910000027,,,,,282.5293878000002,282.54501470000014,282.7450227999998,282.7292735000001,,,,,,,,0,1,3.971461900000577,None,,,,,,,,827,23,M,R,2026-02-18_12h38.28.624,VisualSearch_2526_3,,2025.2.4,2026-02-18 12h38.28.839465 +0100,
vertical.xlsx,The target is tilted.,135,97,1,12,0,0,0,0,0,0,0,0,0,0,0,0,1,1,1,135,space,4.307391600000301,None,0,1,0.6437244999997347,None,space,2.5786026999994647,None,0,0,0,1,,,,,12,1,97,7,282.7450227999998,,,,,,,,,,,,,,,,,,,,,282.72998000000007,282.7450227999998,283.25045880000016,283.2291862000002,283.23355830000037,283.25045880000016,283.8961840000002,,,,,283.89636210000026,283.91175310000017,284.1119103000001,284.0953235999996,,,,,,,,0,1,0.6437244999997347,None,,,,,,,,827,23,M,R,2026-02-18_12h38.28.624,VisualSearch_2526_3,,2025.2.4,2026-02-18 12h38.28.839465 +0100,
vertical.xlsx,The target is tilted.,135,98,2,12,1,1,1,1,1,1,1,1,0,0,0,0,0,7,8,135,space,4.307391600000301,None,1,1,1.0144116999999824,None,space,2.5786026999994647,None,0,0,0,1,,,,,12,2,98,1,284.1119103000001,,,,,,,,,,,,,,,,,,,,,284.09608730000036,284.1119103000001,284.6116086000002,284.5955329999997,284.5998903999998,284.6116086000002,285.6294534999997,,,,,285.62966979999965,285.64454360000036,285.844607,285.8281758000003,,,,,,,,1,1,1.0144116999999824,None,,,,,,,,827,23,M,R,2026-02-18_12h38.28.624,VisualSearch_2526_3,,2025.2.4,2026-02-18 12h38.28.839465 +0100,
vertical.xlsx,The target is tilted.,135,99,3,12,0,1,1,1,0,0,0,0,0,0,0,0,1,3,4,135,space,4.307391600000301,None,0,1,1.094419399999424,None,space,2.5786026999994647,None,0,0,0,1,,,,,12,3,99,6,285.844607,,,,,,,,,,,,,,,,,,,,,285.82876599999963,285.844607,286.35056319999967,286.3287409000004,286.33402899999965,286.35056319999967,287.4620124000003,,,,,287.46215949999987,287.47793980000006,287.67795209999986,287.6617268,,,,,,,,0,1,1.094419399999424,None,,,,,,,,827,23,M,R,2026-02-18_12h38.28.624,VisualSearch_2526_3,,2025.2.4,2026-02-18 12h38.28.839465 +0100,
vertical.xlsx,The target is tilted.,135,100,4,12,1,1,1,1,1,1,1,1,1,1,1,1,0,11,12,135,space,4.307391600000301,None,1,1,0.7447378000006211,None,space,2.5786026999994647,None,0,0,0,1,,,,,12,4,100,0,287.67795209999986,,,,,,,,,,,,,,,,,,,,,287.6624732,287.67795209999986,288.18189879999954,288.16175079999994,288.16614240000035,288.18189879999954,288.92929970000023,,,,,288.92949299999964,288.9439284,289.14437590000034,289.12808399999994,,,,,,,,1,1,0.7447378000006211,None,,,,,,,,827,23,M,R,2026-02-18_12h38.28.624,VisualSearch_2526_3,,2025.2.4,2026-02-18 12h38.28.839465 +0100,
vertical.xlsx,The target is tilted.,135,101,5,12,1,1,1,1,0,0,0,0,0,0,0,0,0,3,4,135,space,4.307391600000301,None,1,1,0.6246850999996241,None,space,2.5786026999994647,None,0,0,0,1,,,,,12,5,101,2,289.14437590000034,,,,,,,,,,,,,,,,,,,,,289.1287435000004,289.14437590000034,289.64766099999997,289.62761950000004,289.63185390000035,289.64766099999997,290.2784504000001,,,,,290.27863909999996,290.2940761,290.4937739999996,290.4780404000003,,,,,,,,1,1,0.6246850999996241,None,,,,,,,,827,23,M,R,2026-02-18_12h38.28.624,VisualSearch_2526_3,,2025.2.4,2026-02-18 12h38.28.839465 +0100,
vertical.xlsx,The target is tilted.,135,102,6,12,0,1,1,1,1,1,1,1,0,0,0,0,1,7,8,135,space,4.307391600000301,None,0,1,1.615803099999539,None,space,2.5786026999994647,None,0,0,0,1,,,,,12,6,102,5,290.4937739999996,,,,,,,,,,,,,,,,,,,,,290.4788201000001,290.4937739999996,290.9938044999999,290.9780088999996,290.9827315000002,290.9938044999999,292.61134390000007,,,,,292.61152839999977,292.6269451999997,292.8270629999997,292.81099879999965,,,,,,,,0,1,1.615803099999539,None,,,,,,,,827,23,M,R,2026-02-18_12h38.28.624,VisualSearch_2526_3,,2025.2.4,2026-02-18 12h38.28.839465 +0100,
vertical.xlsx,The target is tilted.,135,103,7,12,1,0,0,0,0,0,0,0,0,0,0,0,0,0,1,135,space,4.307391600000301,None,1,1,0.5082047000005332,None,space,2.5786026999994647,None,0,0,0,1,,,,,12,7,103,3,292.8270629999997,,,,,,,,,,,,,,,,,,,,,292.81170349999957,292.8270629999997,293.33294190000015,293.3110012999996,293.31547599999976,293.33294190000015,293.84414000000015,,,,,293.8443156000003,293.8602841000002,294.0600760999996,294.0435236000003,,,,,,,,1,1,0.5082047000005332,None,,,,,,,,827,23,M,R,2026-02-18_12h38.28.624,VisualSearch_2526_3,,2025.2.4,2026-02-18 12h38.28.839465 +0100,
vertical.xlsx,The target is tilted.,135,104,0,13,0,1,1,1,0,0,0,0,0,0,0,0,1,3,4,135,space,4.307391600000301,None,0,1,1.1908591999999771,None,space,2.5786026999994647,None,0,0,0,1,,,,,13,0,104,6,294.0600760999996,,,,,,,,,,,,,,,,,,,,,294.04412460000003,294.0600760999996,294.5659042999996,294.5439306999997,294.5488707000004,294.5659042999996,295.7607065000002,,,,,295.76089839999986,295.7765540999999,295.97652130000006,295.96046860000024,,,,,,,,0,1,1.1908591999999771,None,,,,,,,,827,23,M,R,2026-02-18_12h38.28.624,VisualSearch_2526_3,,2025.2.4,2026-02-18 12h38.28.839465 +0100,
vertical.xlsx,The target is tilted.,135,105,1,13,1,1,1,1,1,1,1,1,0,0,0,0,0,7,8,135,space,4.307391600000301,None,1,1,0.7407313999992766,None,space,2.5786026999994647,None,0,0,0,1,,,,,13,1,105,1,295.97652130000006,,,,,,,,,,,,,,,,,,,,,295.96116820000043,295.97652130000006,296.4817716999996,296.4600657000001,296.4651018000004,296.4817716999996,297.2271518999996,,,,,297.2273433999999,297.2424393000001,297.44243240000014,297.42673879999984,,,,,,,,1,1,0.7407313999992766,None,,,,,,,,827,23,M,R,2026-02-18_12h38.28.624,VisualSearch_2526_3,,2025.2.4,2026-02-18 12h38.28.839465 +0100,
vertical.xlsx,The target is tilted.,135,106,2,13,1,0,0,0,0,0,0,0,0,0,0,0,0,0,1,135,space,4.307391600000301,None,1,1,0.47649100000035105,None,space,2.5786026999994647,None,0,0,0,1,,,,,13,2,106,3,297.44243240000014,,,,,,,,,,,,,,,,,,,,,297.42751080000016,297.44243240000014,297.9471844999998,297.92671040000005,297.9314396,297.9471844999998,298.4267861999997,,,,,298.4269115999996,298.4426755000004,298.64280380000037,298.6266912000001,,,,,,,,1,1,0.47649100000035105,None,,,,,,,,827,23,M,R,2026-02-18_12h38.28.624,VisualSearch_2526_3,,2025.2.4,2026-02-18 12h38.28.839465 +0100,
vertical.xlsx,The target is tilted.,135,107,3,13,0,0,0,0,0,0,0,0,0,0,0,0,1,1,1,135,space,4.307391600000301,None,0,1,0.6289059999999154,None,space,2.5786026999994647,None,0,0,0,1,,,,,13,3,107,7,298.64280380000037,,,,,,,,,,,,,,,,,,,,,298.62756699999954,298.64280380000037,299.14809719999994,299.12667390000024,299.13181170000007,299.14809719999994,299.79350929999964,,,,,299.7936835999999,299.80913859999964,300.0088254000002,299.9928197999998,,,,,,,,0,1,0.6289059999999154,None,,,,,,,,827,23,M,R,2026-02-18_12h38.28.624,VisualSearch_2526_3,,2025.2.4,2026-02-18 12h38.28.839465 +0100,
vertical.xlsx,The target is tilted.,135,108,4,13,0,1,1,1,1,1,1,1,0,0,0,0,1,7,8,135,space,4.307391600000301,None,0,1,1.3405058999996982,None,space,2.5786026999994647,None,0,0,0,1,,,,,13,4,108,5,300.0088254000002,,,,,,,,,,,,,,,,,,,,,299.99367970000003,300.0088254000002,300.5152406999996,300.49326420000034,300.49828270000035,300.5152406999996,301.8595661999998,,,,,301.85974110000006,301.8754382999996,302.07539519999955,302.0593480999996,,,,,,,,0,1,1.3405058999996982,None,,,,,,,,827,23,M,R,2026-02-18_12h38.28.624,VisualSearch_2526_3,,2025.2.4,2026-02-18 12h38.28.839465 +0100,
vertical.xlsx,The target is tilted.,135,109,5,13,1,1,1,1,1,1,1,1,1,1,1,1,0,11,12,135,space,4.307391600000301,None,1,1,1.9922488000001977,None,space,2.5786026999994647,None,0,0,0,1,,,,,13,5,109,0,302.07539519999955,,,,,,,,,,,,,,,,,,,,,302.0601022000001,302.07539519999955,302.57896549999987,302.55904100000043,302.5639222,302.57896549999987,304.5757004999996,,,,,304.57587349999994,304.5916821999999,304.7917771000002,304.7752835000001,,,,,,,,1,1,1.9922488000001977,None,,,,,,,,827,23,M,R,2026-02-18_12h38.28.624,VisualSearch_2526_3,,2025.2.4,2026-02-18 12h38.28.839465 +0100,
vertical.xlsx,The target is tilted.,135,110,6,13,0,1,1,1,1,1,1,1,1,1,1,1,1,11,12,135,space,4.307391600000301,None,0,1,3.8353899000003366,None,space,2.5786026999994647,None,0,0,0,1,,,,,13,6,110,4,304.7917771000002,,,,,,,,,,,,,,,,,,,,,304.77611270000034,304.7917771000002,305.2945718000001,305.2752161999997,305.27965719999975,305.2945718000001,309.1418421999997,,,,,309.1419999,309.15755660000013,309.35760539999956,309.34093610000036,,,,,,,,0,1,3.8353899000003366,None,,,,,,,,827,23,M,R,2026-02-18_12h38.28.624,VisualSearch_2526_3,,2025.2.4,2026-02-18 12h38.28.839465 +0100,
vertical.xlsx,The target is tilted.,135,111,7,13,1,1,1,1,0,0,0,0,0,0,0,0,0,3,4,135,space,4.307391600000301,None,1,1,0.5084565000006478,None,space,2.5786026999994647,None,0,0,0,1,,,,,13,7,111,2,309.35760539999956,,,,,,,,,,,,,,,,,,,,,309.3415229000002,309.35760539999956,309.86235769999985,309.84143250000034,309.8459376999999,309.86235769999985,310.3746382999998,,,,,310.3748316000001,310.3906428,310.5908376999996,310.5747401999997,,,,,,,,1,1,0.5084565000006478,None,,,,,,,,827,23,M,R,2026-02-18_12h38.28.624,VisualSearch_2526_3,,2025.2.4,2026-02-18 12h38.28.839465 +0100,
vertical.xlsx,The target is tilted.,135,112,0,14,0,1,1,1,1,1,1,1,0,0,0,0,1,7,8,135,space,4.307391600000301,None,0,1,3.074833000000581,None,space,2.5786026999994647,None,0,0,0,1,,,,,14,0,112,5,310.5908376999996,,,,,,,,,,,,,,,,,,,,,310.5754487000004,310.5908376999996,311.09565810000004,311.0746916999997,311.0794463000002,311.09565810000004,314.17411770000035,,,,,314.1742954000001,314.1900507999999,314.3902244000001,314.3739026000003,,,,,,,,0,1,3.074833000000581,None,,,,,,,,827,23,M,R,2026-02-18_12h38.28.624,VisualSearch_2526_3,,2025.2.4,2026-02-18 12h38.28.839465 +0100,
vertical.xlsx,The target is tilted.,135,113,1,14,0,0,0,0,0,0,0,0,0,0,0,0,1,1,1,135,space,4.307391600000301,None,0,1,1.4343150999993668,None,space,2.5786026999994647,None,0,0,0,1,,,,,14,1,113,7,314.3902244000001,,,,,,,,,,,,,,,,,,,,,314.3746418999999,314.3902244000001,314.89391049999995,314.8735568000002,314.87806569999975,314.89391049999995,316.33969100000013,,,,,316.33978019999995,316.3559316999999,,316.5401149999998,,,,,,,,0,1,1.4343150999993668,None,,,,,,,,827,23,M,R,2026-02-18_12h38.28.624,VisualSearch_2526_3,,2025.2.4,2026-02-18 12h38.28.839465 +0100,
vertical.xlsx,The target is tilted.,135,114,2,14,0,1,1,1,0,0,0,0,0,0,0,0,1,3,4,135,space,4.307391600000301,None,0,1,0.7826611000000412,None,space,2.5786026999994647,None,0,0,0,1,,,,,14,2,114,6,316.5563837999998,,,,,,,,,,,,,,,,,,,,,316.5409034000004,316.5563837999998,,317.0400523999997,317.04462559999956,317.06162570000015,317.85743360000015,,,,,317.8576277000002,317.87251670000023,318.0728116,318.05656799999997,,,,,,,,0,1,0.7826611000000412,None,,,,,,,,827,23,M,R,2026-02-18_12h38.28.624,VisualSearch_2526_3,,2025.2.4,2026-02-18 12h38.28.839465 +0100,
vertical.xlsx,The target is tilted.,135,115,3,14,1,1,1,1,1,1,1,1,1,1,1,1,0,11,12,135,space,4.307391600000301,None,1,1,2.1357139000001553,None,space,2.5786026999994647,None,0,0,0,1,,,,,14,3,115,0,318.0728116,,,,,,,,,,,,,,,,,,,,,318.0572258000002,318.0728116,318.5765094999997,318.5563774000002,318.56096160000016,318.5765094999997,320.7225212000003,,,,,320.7226006000001,320.7388815000004,,320.9227516000001,,,,,,,,1,1,2.1357139000001553,None,,,,,,,,827,23,M,R,2026-02-18_12h38.28.624,VisualSearch_2526_3,,2025.2.4,2026-02-18 12h38.28.839465 +0100,
vertical.xlsx,The target is tilted.,135,116,4,14,1,0,0,0,0,0,0,0,0,0,0,0,0,0,1,135,space,4.307391600000301,None,1,1,0.4630942000003415,None,space,2.5786026999994647,None,0,0,0,1,,,,,14,4,116,3,320.9391335999999,,,,,,,,,,,,,,,,,,,,,320.92350480000005,320.9391335999999,,321.4227369,321.42739879999954,321.4438540000001,321.9231553999998,,,,,321.9233132999998,321.9388485999998,322.1388786999996,322.1227821000002,,,,,,,,1,1,0.4630942000003415,None,,,,,,,,827,23,M,R,2026-02-18_12h38.28.624,VisualSearch_2526_3,,2025.2.4,2026-02-18 12h38.28.839465 +0100,
vertical.xlsx,The target is tilted.,135,117,5,14,1,1,1,1,0,0,0,0,0,0,0,0,0,3,4,135,space,4.307391600000301,None,1,1,0.5791674000001876,None,space,2.5786026999994647,None,0,0,0,1,,,,,14,5,117,2,322.1388786999996,,,,,,,,,,,,,,,,,,,,,322.1235236000002,322.1388786999996,322.6435510000001,322.62269540000034,322.62713410000015,322.6435510000001,323.2397527000003,,,,,323.23992889999954,323.25534119999975,323.45502940000006,323.4391211000002,,,,,,,,1,1,0.5791674000001876,None,,,,,,,,827,23,M,R,2026-02-18_12h38.28.624,VisualSearch_2526_3,,2025.2.4,2026-02-18 12h38.28.839465 +0100,
vertical.xlsx,The target is tilted.,135,118,6,14,0,1,1,1,1,1,1,1,1,1,1,1,1,11,12,135,space,4.307391600000301,None,0,1,2.125599599999987,None,space,2.5786026999994647,None,0,0,0,1,,,,,14,6,118,4,323.45502940000006,,,,,,,,,,,,,,,,,,,,,323.4398860000001,323.45502940000006,323.96179310000025,323.93919430000005,323.94367429999966,323.96179310000025,326.08918449999965,,,,,326.0893612,326.10483079999995,326.3042580000001,326.2880538999998,,,,,,,,0,1,2.125599599999987,None,,,,,,,,827,23,M,R,2026-02-18_12h38.28.624,VisualSearch_2526_3,,2025.2.4,2026-02-18 12h38.28.839465 +0100,
vertical.xlsx,The target is tilted.,135,119,7,14,1,1,1,1,1,1,1,1,0,0,0,0,0,7,8,135,space,4.307391600000301,None,1,1,0.9741205999998783,None,space,2.5786026999994647,None,0,0,0,1,,,,,14,7,119,1,326.3042580000001,,,,,,,,,,,,,,,,,,,,,326.28836760000013,326.3042580000001,326.8075835999998,326.78841459999967,326.79230840000037,326.8075835999998,327.7889022999998,,,,,327.78907679999975,327.8042053999998,328.01868399999967,327.98851469999954,,,,,,,,1,1,0.9741205999998783,None,,,,,,,,827,23,M,R,2026-02-18_12h38.28.624,VisualSearch_2526_3,,2025.2.4,2026-02-18 12h38.28.839465 +0100,
vertical.xlsx,The target is tilted.,135,0,0,0,,,,,,,,,,,,,,,,,space,4.307391600000301,None,,,,,space,2.5786026999994647,None,0,0,0,1,,,,,,,,,,,,,,,,,,,,,,,,,,,,,,,,,,,,,,,,,,,,,,,,,,,,,,,,,,,,,,,827,23,M,R,2026-02-18_12h38.28.624,VisualSearch_2526_3,,2025.2.4,2026-02-18 12h38.28.839465 +0100,
tilted.xlsx,The target is tilted.,117,0,0,0,1,0,0,0,0,0,0,0,0,0,0,0,0,0,1,117,space,6.566595700000107,None,1,1,0.614008699999431,None,,,,0,1,1,0,0,0,0,3,,,,,334.6176045000002,,,,,,,,,,,,,,,328.01868399999967,328.01868399999967,328.01868399999967,space,6.566595700000107,None,334.6134898,334.6176045000002,,335.1038355999999,335.10839039999973,335.12429559999964,335.75368960000014,1,1,0.614008699999431,None,335.7538862000001,335.7693368,335.9694320999997,335.95322229999965,,,,,,,,,,,,,,,,,,,827,23,M,R,2026-02-18_12h38.28.624,VisualSearch_2526_3,,2025.2.4,2026-02-18 12h38.28.839465 +0100,
tilted.xlsx,The target is tilted.,117,1,1,0,0,0,0,0,0,0,0,0,0,0,0,0,1,1,1,117,space,6.566595700000107,None,0,1,0.6632061000000249,None,,,,0,1,1,0,0,1,1,7,,,,,335.9694320999997,,,,,,,,,,,,,,,,,,,,,335.95343669999966,335.9694320999997,336.4738550000002,336.45387690000007,336.4583542999999,336.4738550000002,337.1530665999999,0,1,0.6632061000000249,None,337.1531359999999,337.16909980000037,,337.3532567000002,,,,,,,,,,,,,,,,,,,827,23,M,R,2026-02-18_12h38.28.624,VisualSearch_2526_3,,2025.2.4,2026-02-18 12h38.28.839465 +0100,
tilted.xlsx,The target is tilted.,117,2,2,0,0,1,1,1,1,1,1,1,0,0,0,0,1,7,8,117,space,6.566595700000107,None,1,0,5.6851236000002245,None,,,,0,1,1,0,0,2,2,5,,,,,337.36973359999956,,,,,,,,,,,,,,,,,,,,,337.3540254999998,337.36973359999956,,337.85346479999953,337.8585833999996,337.87582889999976,343.5695319999995,1,0,5.6851236000002245,None,343.5696852000001,343.58492430000024,343.78490129999955,343.76905689999967,,,,,,,,,,,,,,,,,,,827,23,M,R,2026-02-18_12h38.28.624,VisualSearch_2526_3,,2025.2.4,2026-02-18 12h38.28.839465 +0100,
tilted.xlsx,The target is tilted.,117,3,3,0,0,1,1,1,1,1,1,1,1,1,1,1,1,11,12,117,space,6.566595700000107,None,1,0,5.012173400000393,None,,,,0,1,1,0,0,3,3,4,,,,,343.78490129999955,,,,,,,,,,,,,,,,,,,,,343.76968829999987,343.78490129999955,344.2866764999999,344.26882339999975,344.27271180000025,344.2866764999999,349.3020637999998,1,0,5.012173400000393,None,349.30222500000036,349.31767519999994,349.51774920000025,349.50159170000006,,,,,,,,,,,,,,,,,,,827,23,M,R,2026-02-18_12h38.28.624,VisualSearch_2526_3,,2025.2.4,2026-02-18 12h38.28.839465 +0100,
tilted.xlsx,The target is tilted.,117,4,4,0,1,1,1,1,1,1,1,1,1,1,1,1,0,11,12,117,space,6.566595700000107,None,1,1,4.1370427000001655,None,,,,0,1,1,0,0,4,4,0,,,,,349.51774920000025,,,,,,,,,,,,,,,,,,,,,349.50223840000035,349.51774920000025,350.02247460000035,350.0015064999998,350.0060491000004,350.02247460000035,354.1678297999997,1,1,4.1370427000001655,None,354.1679819000001,354.18345620000036,354.3836441000003,354.3674100999997,,,,,,,,,,,,,,,,,,,827,23,M,R,2026-02-18_12h38.28.624,VisualSearch_2526_3,,2025.2.4,2026-02-18 12h38.28.839465 +0100,
tilted.xlsx,The target is tilted.,117,5,5,0,1,1,1,1,1,1,1,1,0,0,0,0,0,7,8,117,space,6.566595700000107,None,0,0,5.8996846000000005,None,,,,0,1,1,0,0,5,5,1,,,,,354.3836441000003,,,,,,,,,,,,,,,,,,,,,354.3681557,354.3836441000003,354.8832722999996,354.86710479999965,354.8715540000003,354.8832722999996,360.8000996999999,0,0,5.8996846000000005,None,360.80025300000034,360.8156978999996,361.0154487,360.999597,,,,,,,,,,,,,,,,,,,827,23,M,R,2026-02-18_12h38.28.624,VisualSearch_2526_3,,2025.2.4,2026-02-18 12h38.28.839465 +0100,
tilted.xlsx,The target is tilted.,117,6,6,0,1,1,1,1,0,0,0,0,0,0,0,0,0,3,4,117,space,6.566595700000107,None,1,1,0.9834819999996398,None,,,,0,1,1,0,0,6,6,2,,,,,361.0154487,,,,,,,,,,,,,,,,,,,,,361.00023690000035,361.0154487,361.5193852000002,361.50016979999964,361.50457410000035,361.5193852000002,362.5165121,1,1,0.9834819999996398,None,362.51667670000006,362.53211529999953,362.73185209999974,362.7158849999996,,,,,,,,,,,,,,,,,,,827,23,M,R,2026-02-18_12h38.28.624,VisualSearch_2526_3,,2025.2.4,2026-02-18 12h38.28.839465 +0100,
tilted.xlsx,The target is tilted.,117,7,7,0,0,1,1,1,0,0,0,0,0,0,0,0,1,3,4,117,space,6.566595700000107,None,0,1,1.2145305000003646,None,,,,0,1,1,0,0,7,7,6,,,,,362.73185209999974,,,,,,,,,,,,,,,,,,,,,362.7165908999996,362.73185209999974,363.23805230000016,363.2156865999996,363.22050949999993,363.23805230000016,364.4658341000004,0,1,1.2145305000003646,None,364.4659988000003,364.48181999999997,364.6819347999999,364.66547290000017,,,,,,,,,,,,,,,,,,,827,23,M,R,2026-02-18_12h38.28.624,VisualSearch_2526_3,,2025.2.4,2026-02-18 12h38.28.839465 +0100,
tilted.xlsx,The target is tilted.,117,0,0,0,1,0,0,0,0,0,0,0,0,0,0,0,0,0,1,117,space,6.566595700000107,None,1,1,0.6162043000003905,None,space,2.6944009999997434,None,0,1,1,0,,,,,0,0,0,3,367.4155631000003,,,,,,,,,,,,,,,,,,,,,367.41129120000005,367.4155631000003,,367.89838249999957,367.9036034999999,367.92059020000033,368.54901119999977,,,,,368.5492049000004,368.56417299999976,368.7642272000003,368.74852029999965,364.673186,364.6819347999999,364.6819347999999,367.3823685999996,space,2.6944009999997434,None,1,1,0.6162043000003905,None,,,,,,,,827,23,M,R,2026-02-18_12h38.28.624,VisualSearch_2526_3,,2025.2.4,2026-02-18 12h38.28.839465 +0100,
tilted.xlsx,The target is tilted.,117,1,1,0,0,1,1,1,1,1,1,1,1,1,1,1,1,11,12,117,space,6.566595700000107,None,0,1,4.43678970000019,None,space,2.6944009999997434,None,0,1,1,0,,,,,0,1,1,4,368.7642272000003,,,,,,,,,,,,,,,,,,,,,368.7493494,368.7642272000003,369.2708211999998,369.2484316,369.25346549999995,369.2708211999998,373.7146652000001,,,,,373.7148427000002,373.73032779999994,373.93035510000027,373.9142734999996,,,,,,,,0,1,4.43678970000019,None,,,,,,,,827,23,M,R,2026-02-18_12h38.28.624,VisualSearch_2526_3,,2025.2.4,2026-02-18 12h38.28.839465 +0100,
tilted.xlsx,The target is tilted.,117,2,2,0,1,1,1,1,0,0,0,0,0,0,0,0,0,3,4,117,space,6.566595700000107,None,1,1,1.0235352999998213,None,space,2.6944009999997434,None,0,1,1,0,,,,,0,2,2,2,373.93035510000027,,,,,,,,,,,,,,,,,,,,,373.9149795000003,373.93035510000027,374.4301268999998,374.41419510000014,374.41889509999965,374.4301268999998,375.46440259999963,,,,,375.4645749000001,375.4799763000001,375.68013040000005,375.66381,,,,,,,,1,1,1.0235352999998213,None,,,,,,,,827,23,M,R,2026-02-18_12h38.28.624,VisualSearch_2526_3,,2025.2.4,2026-02-18 12h38.28.839465 +0100,
tilted.xlsx,The target is tilted.,117,3,3,0,0,1,1,1,1,1,1,1,0,0,0,0,1,7,8,117,space,6.566595700000107,None,0,1,3.1800501999996413,None,space,2.6944009999997434,None,0,1,1,0,,,,,0,3,3,5,375.68013040000005,,,,,,,,,,,,,,,,,,,,,375.66456930000004,375.68013040000005,376.1855194999998,376.1640957999998,376.1691920000003,376.1855194999998,379.3803909999997,,,,,379.3805676000002,379.3959987999997,379.59563530000014,379.5794827999998,,,,,,,,0,1,3.1800501999996413,None,,,,,,,,827,23,M,R,2026-02-18_12h38.28.624,VisualSearch_2526_3,,2025.2.4,2026-02-18 12h38.28.839465 +0100,
tilted.xlsx,The target is tilted.,117,4,4,0,0,0,0,0,0,0,0,0,0,0,0,0,1,1,1,117,space,6.566595700000107,None,0,1,0.7501392999993186,None,space,2.6944009999997434,None,0,1,1,0,,,,,0,4,4,7,379.59563530000014,,,,,,,,,,,,,,,,,,,,,379.5801915000002,379.59563530000014,380.1009167000002,380.0800344999998,380.0847394000002,380.1009167000002,380.8637439000004,,,,,380.86394819999987,380.8790607000001,381.0792144999996,381.06304050000017,,,,,,,,0,1,0.7501392999993186,None,,,,,,,,827,23,M,R,2026-02-18_12h38.28.624,VisualSearch_2526_3,,2025.2.4,2026-02-18 12h38.28.839465 +0100,
tilted.xlsx,The target is tilted.,117,5,5,0,0,1,1,1,0,0,0,0,0,0,0,0,1,3,4,117,space,6.566595700000107,None,0,1,2.010361499999817,None,space,2.6944009999997434,None,0,1,1,0,,,,,0,5,5,6,381.0792144999996,,,,,,,,,,,,,,,,,,,,,381.0637614999996,381.0792144999996,381.58503010000004,381.56309559999954,381.56765689999975,381.58503010000004,383.61225039999954,,,,,383.61236420000023,383.6285362999997,383.8287491000001,383.81264660000033,,,,,,,,0,1,2.010361499999817,None,,,,,,,,827,23,M,R,2026-02-18_12h38.28.624,VisualSearch_2526_3,,2025.2.4,2026-02-18 12h38.28.839465 +0100,
tilted.xlsx,The target is tilted.,117,6,6,0,1,1,1,1,1,1,1,1,1,1,1,1,0,11,12,117,space,6.566595700000107,None,1,1,4.31370059999972,None,space,2.6944009999997434,None,0,1,1,0,,,,,0,6,6,0,383.8287491000001,,,,,,,,,,,,,,,,,,,,,383.8133719999996,383.8287491000001,384.3343235000002,384.31273189999956,384.3172918999999,384.3343235000002,388.66237999999976,,,,,388.6625723999996,388.67778029999954,388.8772706,388.8608469999999,,,,,,,,1,1,4.31370059999972,None,,,,,,,,827,23,M,R,2026-02-18_12h38.28.624,VisualSearch_2526_3,,2025.2.4,2026-02-18 12h38.28.839465 +0100,
tilted.xlsx,The target is tilted.,117,7,7,0,1,1,1,1,1,1,1,1,0,0,0,0,0,7,8,117,space,6.566595700000107,None,1,1,5.624851300000046,None,space,2.6944009999997434,None,0,1,1,0,,,,,0,7,7,1,388.8772706,,,,,,,,,,,,,,,,,,,,,388.86126929999955,388.8772706,389.3815784999997,389.3613443000004,389.3658922000004,389.3815784999997,395.0106635000002,,,,,395.01086250000026,395.0266631000004,395.22682129999976,395.21075010000004,,,,,,,,1,1,5.624851300000046,None,,,,,,,,827,23,M,R,2026-02-18_12h38.28.624,VisualSearch_2526_3,,2025.2.4,2026-02-18 12h38.28.839465 +0100,
tilted.xlsx,The target is tilted.,117,8,0,1,1,1,1,1,0,0,0,0,0,0,0,0,0,3,4,117,space,6.566595700000107,None,1,1,1.2187653999999384,None,space,2.6944009999997434,None,0,1,1,0,,,,,1,0,8,2,395.22682129999976,,,,,,,,,,,,,,,,,,,,,395.2114868999997,395.22682129999976,395.7321247,395.71062079999956,395.71502839999994,395.7321247,396.96081890000005,,,,,396.96099049999975,396.9764177999996,397.17640420000043,397.1603766999997,,,,,,,,1,1,1.2187653999999384,None,,,,,,,,827,23,M,R,2026-02-18_12h38.28.624,VisualSearch_2526_3,,2025.2.4,2026-02-18 12h38.28.839465 +0100,
tilted.xlsx,The target is tilted.,117,9,1,1,0,0,0,0,0,0,0,0,0,0,0,0,1,1,1,117,space,6.566595700000107,None,0,1,1.0284091000003173,None,space,2.6944009999997434,None,0,1,1,0,,,,,1,1,9,7,397.17640420000043,,,,,,,,,,,,,,,,,,,,,397.1611009999997,397.17640420000043,397.67630459999964,397.6603003,397.6646922,397.67630459999964,398.7100805,,,,,398.7102692999997,398.7261062999996,398.9261137000003,398.9100176000002,,,,,,,,0,1,1.0284091000003173,None,,,,,,,,827,23,M,R,2026-02-18_12h38.28.624,VisualSearch_2526_3,,2025.2.4,2026-02-18 12h38.28.839465 +0100,
tilted.xlsx,The target is tilted.,117,10,2,1,0,1,1,1,1,1,1,1,0,0,0,0,1,7,8,117,space,6.566595700000107,None,0,1,4.738197300000138,None,space,2.6944009999997434,None,0,1,1,0,,,,,1,2,10,5,398.9261137000003,,,,,,,,,,,,,,,,,,,,,398.9107690999999,398.9261137000003,399.4324561000003,399.4102337000004,399.4148890999995,399.4324561000003,404.17602480000005,,,,,404.1761808000001,404.1919061999997,404.3916029000002,404.37533259999964,,,,,,,,0,1,4.738197300000138,None,,,,,,,,827,23,M,R,2026-02-18_12h38.28.624,VisualSearch_2526_3,,2025.2.4,2026-02-18 12h38.28.839465 +0100,
tilted.xlsx,The target is tilted.,117,11,3,1,0,1,1,1,0,0,0,0,0,0,0,0,1,3,4,117,space,6.566595700000107,None,0,1,1.1123121999999057,None,space,2.6944009999997434,None,0,1,1,0,,,,,1,3,11,6,404.3916029000002,,,,,,,,,,,,,,,,,,,,,404.37613109999984,404.3916029000002,404.8960794000004,404.8756634000001,404.8801027999998,404.8960794000004,406.0095252000001,,,,,406.00971630000004,406.02491800000007,406.2248947999997,406.20881589999954,,,,,,,,0,1,1.1123121999999057,None,,,,,,,,827,23,M,R,2026-02-18_12h38.28.624,VisualSearch_2526_3,,2025.2.4,2026-02-18 12h38.28.839465 +0100,
tilted.xlsx,The target is tilted.,117,12,4,1,0,1,1,1,1,1,1,1,1,1,1,1,1,11,12,117,space,6.566595700000107,None,0,1,3.8469412999993438,None,space,2.6944009999997434,None,0,1,1,0,,,,,1,4,12,4,406.2248947999997,,,,,,,,,,,,,,,,,,,,,406.2095698000003,406.2248947999997,406.732524,406.70901890000005,406.71416429999954,406.732524,410.5920192000003,,,,,410.5921913000002,410.6074798999998,410.8074786999996,410.7909748000002,,,,,,,,0,1,3.8469412999993438,None,,,,,,,,827,23,M,R,2026-02-18_12h38.28.624,VisualSearch_2526_3,,2025.2.4,2026-02-18 12h38.28.839465 +0100,
tilted.xlsx,The target is tilted.,117,13,5,1,1,1,1,1,1,1,1,1,0,0,0,0,0,7,8,117,space,6.566595700000107,None,1,1,1.4530038000002605,None,space,2.6944009999997434,None,0,1,1,0,,,,,1,5,13,1,410.8074786999996,,,,,,,,,,,,,,,,,,,,,410.7916720000003,410.8074786999996,411.3101249000001,411.2913365000004,411.2952922000004,411.3101249000001,412.77487779999956,,,,,412.77503549999983,412.79042670000035,412.9906277,412.97444149999956,,,,,,,,1,1,1.4530038000002605,None,,,,,,,,827,23,M,R,2026-02-18_12h38.28.624,VisualSearch_2526_3,,2025.2.4,2026-02-18 12h38.28.839465 +0100,
tilted.xlsx,The target is tilted.,117,14,6,1,1,0,0,0,0,0,0,0,0,0,0,0,0,0,1,117,space,6.566595700000107,None,1,1,0.5736029999998209,None,space,2.6944009999997434,None,0,1,1,0,,,,,1,6,14,3,412.9906277,,,,,,,,,,,,,,,,,,,,,412.97516579999956,412.9906277,413.49226910000016,413.47413400000005,413.4780546000002,413.49226910000016,414.07486830000016,,,,,414.07505690000016,414.09035380000023,414.29032180000013,414.27419929999996,,,,,,,,1,1,0.5736029999998209,None,,,,,,,,827,23,M,R,2026-02-18_12h38.28.624,VisualSearch_2526_3,,2025.2.4,2026-02-18 12h38.28.839465 +0100,
tilted.xlsx,The target is tilted.,117,15,7,1,1,1,1,1,1,1,1,1,1,1,1,1,0,11,12,117,space,6.566595700000107,None,1,1,2.345837500000016,None,space,2.6944009999997434,None,0,1,1,0,,,,,1,7,15,0,414.29032180000013,,,,,,,,,,,,,,,,,,,,,414.27492470000016,414.29032180000013,414.79485039999963,414.7743000999999,414.7789929999999,414.79485039999963,417.15754540000034,,,,,417.1577215999996,417.1730827000001,417.3733019000001,417.3569889999999,,,,,,,,1,1,2.345837500000016,None,,,,,,,,827,23,M,R,2026-02-18_12h38.28.624,VisualSearch_2526_3,,2025.2.4,2026-02-18 12h38.28.839465 +0100,
tilted.xlsx,The target is tilted.,117,16,0,2,0,1,1,1,1,1,1,1,0,0,0,0,1,7,8,117,space,6.566595700000107,None,0,1,3.679105399999571,None,space,2.6944009999997434,None,0,1,1,0,,,,,2,0,16,5,417.3733019000001,,,,,,,,,,,,,,,,,,,,,417.3577499000003,417.3733019000001,417.87856680000004,417.85691119999956,417.86132480000015,417.87856680000004,421.5729815000004,,,,,421.57316379999975,421.58857530000023,421.7891362999999,421.7725154999998,,,,,,,,0,1,3.679105399999571,None,,,,,,,,827,23,M,R,2026-02-18_12h38.28.624,VisualSearch_2526_3,,2025.2.4,2026-02-18 12h38.28.839465 +0100,
tilted.xlsx,The target is tilted.,117,17,1,2,1,1,1,1,0,0,0,0,0,0,0,0,0,3,4,117,space,6.566595700000107,None,0,0,1.1929874000006748,None,space,2.6944009999997434,None,0,1,1,0,,,,,2,1,17,2,421.7891362999999,,,,,,,,,,,,,,,,,,,,,421.7731931999997,421.7891362999999,422.2889594999997,422.2729112999996,422.27726710000024,422.2889594999997,423.48983150000004,,,,,423.49000460000025,423.5054573999996,423.7054082000004,423.68932440000026,,,,,,,,0,0,1.1929874000006748,None,,,,,,,,827,23,M,R,2026-02-18_12h38.28.624,VisualSearch_2526_3,,2025.2.4,2026-02-18 12h38.28.839465 +0100,
tilted.xlsx,The target is tilted.,117,18,2,2,0,1,1,1,0,0,0,0,0,0,0,0,1,3,4,117,space,6.566595700000107,None,0,1,1.5700483000000531,None,space,2.6944009999997434,None,0,1,1,0,,,,,2,2,18,6,423.7054082000004,,,,,,,,,,,,,,,,,,,,,423.69003539999994,423.7054082000004,424.2094739000004,424.18925169999966,424.1936704999998,424.2094739000004,425.7894636000001,,,,,425.7896346999996,425.8046543999999,426.0046645000002,425.98878069999955,,,,,,,,0,1,1.5700483000000531,None,,,,,,,,827,23,M,R,2026-02-18_12h38.28.624,VisualSearch_2526_3,,2025.2.4,2026-02-18 12h38.28.839465 +0100,
tilted.xlsx,The target is tilted.,117,19,3,2,1,1,1,1,1,1,1,1,0,0,0,0,0,7,8,117,space,6.566595700000107,None,1,1,2.24135970000043,None,space,2.6944009999997434,None,0,1,1,0,,,,,2,3,19,1,426.0046645000002,,,,,,,,,,,,,,,,,,,,,425.9894058,426.0046645000002,426.5043248000002,426.48885080000036,426.4933073000002,426.5043248000002,428.75527129999955,,,,,428.75542359999963,428.77119029999994,428.97129760000007,428.95503350000035,,,,,,,,1,1,2.24135970000043,None,,,,,,,,827,23,M,R,2026-02-18_12h38.28.624,VisualSearch_2526_3,,2025.2.4,2026-02-18 12h38.28.839465 +0100,
tilted.xlsx,The target is tilted.,117,20,4,2,1,0,0,0,0,0,0,0,0,0,0,0,0,0,1,117,space,6.566595700000107,None,1,1,0.715303899999526,None,space,2.6944009999997434,None,0,1,1,0,,,,,2,4,20,3,428.97129760000007,,,,,,,,,,,,,,,,,,,,,428.9558057000004,428.97129760000007,429.47640599999977,429.45510809999996,429.46009760000015,429.47640599999977,430.20565759999954,,,,,430.2058778999999,430.22104599999966,430.42087960000026,430.4047091000002,,,,,,,,1,1,0.715303899999526,None,,,,,,,,827,23,M,R,2026-02-18_12h38.28.624,VisualSearch_2526_3,,2025.2.4,2026-02-18 12h38.28.839465 +0100,
tilted.xlsx,The target is tilted.,117,21,5,2,0,0,0,0,0,0,0,0,0,0,0,0,1,1,1,117,space,6.566595700000107,None,0,1,0.8770903999993607,None,space,2.6944009999997434,None,0,1,1,0,,,,,2,5,21,7,430.42087960000026,,,,,,,,,,,,,,,,,,,,,430.40544729999965,430.42087960000026,430.92491080000036,430.9044071999997,430.9084667999996,430.92491080000036,431.8054549999997,,,,,431.8056724999997,431.8208389000001,432.0207553,432.00443689999975,,,,,,,,0,1,0.8770903999993607,None,,,,,,,,827,23,M,R,2026-02-18_12h38.28.624,VisualSearch_2526_3,,2025.2.4,2026-02-18 12h38.28.839465 +0100,
tilted.xlsx,The target is tilted.,117,22,6,2,1,1,1,1,1,1,1,1,1,1,1,1,0,11,12,117,space,6.566595700000107,None,1,1,1.1682682000000568,None,space,2.6944009999997434,None,0,1,1,0,,,,,2,6,22,0,432.0207553,,,,,,,,,,,,,,,,,,,,,432.0051199999998,432.0207553,432.5200262999997,432.5046019000001,432.50956919999953,432.5200262999997,433.7048716999998,,,,,433.7050423999999,433.72035119999964,433.92050649999965,433.9043720999998,,,,,,,,1,1,1.1682682000000568,None,,,,,,,,827,23,M,R,2026-02-18_12h38.28.624,VisualSearch_2526_3,,2025.2.4,2026-02-18 12h38.28.839465 +0100,
tilted.xlsx,The target is tilted.,117,23,7,2,0,1,1,1,1,1,1,1,1,1,1,1,1,11,12,117,space,6.566595700000107,None,0,1,4.427664499999992,None,space,2.6944009999997434,None,0,1,1,0,,,,,2,7,23,4,433.92050649999965,,,,,,,,,,,,,,,,,,,,,433.90509719999955,433.92050649999965,434.42392519999976,434.4043861,434.4094863,434.42392519999976,438.85363309999957,,,,,438.85380460000033,438.8694109999997,439.06948009999996,439.0529792999996,,,,,,,,0,1,4.427664499999992,None,,,,,,,,827,23,M,R,2026-02-18_12h38.28.624,VisualSearch_2526_3,,2025.2.4,2026-02-18 12h38.28.839465 +0100,
tilted.xlsx,The target is tilted.,117,24,0,3,1,1,1,1,0,0,0,0,0,0,0,0,0,3,4,117,space,6.566595700000107,None,1,1,0.9916556000007404,None,space,2.6944009999997434,None,0,1,1,0,,,,,3,0,24,2,439.06948009999996,,,,,,,,,,,,,,,,,,,,,439.05370649999986,439.06948009999996,439.57483070000035,439.5535023000002,439.55854929999987,439.57483070000035,440.57002360000024,,,,,440.57019579999996,440.58593050000036,440.7858924000002,440.7699239000003,,,,,,,,1,1,0.9916556000007404,None,,,,,,,,827,23,M,R,2026-02-18_12h38.28.624,VisualSearch_2526_3,,2025.2.4,2026-02-18 12h38.28.839465 +0100,
tilted.xlsx,The target is tilted.,117,25,1,3,0,1,1,1,0,0,0,0,0,0,0,0,1,3,4,117,space,6.566595700000107,None,0,1,1.3649896000006265,None,space,2.6944009999997434,None,0,1,1,0,,,,,3,1,25,6,440.7858924000002,,,,,,,,,,,,,,,,,,,,,440.77064280000013,440.7858924000002,441.28903999999966,441.26937089999956,441.2734246,441.28903999999966,442.67009640000015,,,,,442.6702901999997,442.6855346000002,442.8851800000002,442.8690071000001,,,,,,,,0,1,1.3649896000006265,None,,,,,,,,827,23,M,R,2026-02-18_12h38.28.624,VisualSearch_2526_3,,2025.2.4,2026-02-18 12h38.28.839465 +0100,
tilted.xlsx,The target is tilted.,117,26,2,3,0,0,0,0,0,0,0,0,0,0,0,0,1,1,1,117,space,6.566595700000107,None,0,1,0.548697600000196,None,space,2.6944009999997434,None,0,1,1,0,,,,,3,2,26,7,442.8851800000002,,,,,,,,,,,,,,,,,,,,,442.8697566000001,442.8851800000002,443.39087740000014,443.36964439999974,443.3744256,443.39087740000014,443.9535586000002,,,,,443.95376099999976,443.9681853000002,444.1688164999996,444.15286469999955,,,,,,,,0,1,0.548697600000196,None,,,,,,,,827,23,M,R,2026-02-18_12h38.28.624,VisualSearch_2526_3,,2025.2.4,2026-02-18 12h38.28.839465 +0100,
tilted.xlsx,The target is tilted.,117,27,3,3,1,1,1,1,1,1,1,1,1,1,1,1,0,11,12,117,space,6.566595700000107,None,1,1,2.870028899999852,None,space,2.6944009999997434,None,0,1,1,0,,,,,3,3,27,0,444.1688164999996,,,,,,,,,,,,,,,,,,,,,444.15371760000016,444.1688164999996,444.6747795000001,444.65266359999987,444.6577532000001,444.6747795000001,447.55249040000035,,,,,447.55266089999986,447.5682340000003,447.76777200000015,447.7516985000002,,,,,,,,1,1,2.870028899999852,None,,,,,,,,827,23,M,R,2026-02-18_12h38.28.624,VisualSearch_2526_3,,2025.2.4,2026-02-18 12h38.28.839465 +0100,
tilted.xlsx,The target is tilted.,117,28,4,3,1,0,0,0,0,0,0,0,0,0,0,0,0,0,1,117,space,6.566595700000107,None,1,1,0.6267174999993586,None,space,2.6944009999997434,None,0,1,1,0,,,,,3,4,28,3,447.76777200000015,,,,,,,,,,,,,,,,,,,,,447.7524506999998,447.76777200000015,448.27278920000026,448.2519335999996,448.2565037000004,448.27278920000026,448.9018951999997,,,,,448.9020928,448.91756859999987,449.1178577999999,449.10148449999997,,,,,,,,1,1,0.6267174999993586,None,,,,,,,,827,23,M,R,2026-02-18_12h38.28.624,VisualSearch_2526_3,,2025.2.4,2026-02-18 12h38.28.839465 +0100,
tilted.xlsx,The target is tilted.,117,29,5,3,0,1,1,1,1,1,1,1,0,0,0,0,1,7,8,117,space,6.566595700000107,None,0,1,4.308986600000026,None,space,2.6944009999997434,None,0,1,1,0,,,,,3,5,29,5,449.1178577999999,,,,,,,,,,,,,,,,,,,,,449.1020445000004,449.1178577999999,449.62248180000006,449.60184709999976,449.6068690000002,449.62248180000006,453.93474779999997,,,,,453.9349036000003,453.95035199999984,454.15047419999973,454.1343360000001,,,,,,,,0,1,4.308986600000026,None,,,,,,,,827,23,M,R,2026-02-18_12h38.28.624,VisualSearch_2526_3,,2025.2.4,2026-02-18 12h38.28.839465 +0100,
tilted.xlsx,The target is tilted.,117,30,6,3,0,1,1,1,1,1,1,1,1,1,1,1,1,11,12,117,space,6.566595700000107,None,0,1,5.44328299999961,None,space,2.6944009999997434,None,0,1,1,0,,,,,3,6,30,4,454.15047419999973,,,,,,,,,,,,,,,,,,,,,454.13506080000025,454.15047419999973,454.6539579,454.6342217000001,454.6386080000002,454.6539579,460.1004746999997,,,,,460.1006361,460.11597840000013,460.3159518000002,460.29968219999955,,,,,,,,0,1,5.44328299999961,None,,,,,,,,827,23,M,R,2026-02-18_12h38.28.624,VisualSearch_2526_3,,2025.2.4,2026-02-18 12h38.28.839465 +0100,
tilted.xlsx,The target is tilted.,117,31,7,3,1,1,1,1,1,1,1,1,0,0,0,0,0,7,8,117,space,6.566595700000107,None,1,1,4.191246399999727,None,space,2.6944009999997434,None,0,1,1,0,,,,,3,7,31,1,460.3159518000002,,,,,,,,,,,,,,,,,,,,,460.3002656999997,460.3159518000002,460.81529859999955,460.7995887999996,460.80429149999964,460.81529859999955,465.01590250000027,,,,,465.0160679999999,465.0318865999998,465.231949,465.2153312999999,,,,,,,,1,1,4.191246399999727,None,,,,,,,,827,23,M,R,2026-02-18_12h38.28.624,VisualSearch_2526_3,,2025.2.4,2026-02-18 12h38.28.839465 +0100,
tilted.xlsx,The target is tilted.,117,32,0,4,0,1,1,1,0,0,0,0,0,0,0,0,1,3,4,117,space,6.566595700000107,None,0,1,1.1180270999993809,None,space,2.6944009999997434,None,0,1,1,0,,,,,4,0,32,6,465.231949,,,,,,,,,,,,,,,,,,,,,465.21605829999953,465.231949,465.73173899999983,465.71530580000035,465.7194771000004,465.73173899999983,466.8655961000004,,,,,466.86576739999964,466.8815175999998,467.08167950000006,467.06532270000025,,,,,,,,0,1,1.1180270999993809,None,,,,,,,,827,23,M,R,2026-02-18_12h38.28.624,VisualSearch_2526_3,,2025.2.4,2026-02-18 12h38.28.839465 +0100,
tilted.xlsx,The target is tilted.,117,33,1,4,1,1,1,1,0,0,0,0,0,0,0,0,0,3,4,117,space,6.566595700000107,None,1,1,1.2482552000001306,None,space,2.6944009999997434,None,0,1,1,0,,,,,4,1,33,2,467.08167950000006,,,,,,,,,,,,,,,,,,,,,467.0660604000004,467.08167950000006,467.58147329999974,467.56507390000024,467.5695046000001,467.58147329999974,468.8320855000002,,,,,468.8322274000002,468.84788109999954,469.04802409999957,469.0319292000004,,,,,,,,1,1,1.2482552000001306,None,,,,,,,,827,23,M,R,2026-02-18_12h38.28.624,VisualSearch_2526_3,,2025.2.4,2026-02-18 12h38.28.839465 +0100,
