file_name,block_instructions,target_example,thisN,thisTrialN,thisRepN,target_presence,opacity_1,opacity_2,opacity_3,opacity_4,opacity_5,opacity_6,opacity_7,opacity_8,opacity_9,opacity_10,opacity_11,opacity_12,n_distract,n_items,target_ori,key_resp_4.keys,key_resp_4.rt,key_resp_4.duration,key_resp.keys,key_resp.corr,key_resp.rt,key_resp.duration,key_resp_5.keys,key_resp_5.rt,key_resp_5.duration,blocks.thisRepN,blocks.thisTrialN,blocks.thisN,blocks.thisIndex,practice_trials.thisRepN,practice_trials.thisTrialN,practice_trials.thisN,practice_trials.thisIndex,trials.thisRepN,trials.thisTrialN,trials.thisN,trials.thisIndex,thisRow.t,notes,Welcome.started,WelcomeText.started,key_resp_2.started,Welcome.stopped,key_resp_2.keys,key_resp_2.rt,key_resp_2.duration,InformedConsent.started,text_4.started,InformedConsent.stopped,key_resp_6.keys,key_resp_6.rt,key_resp_6.duration,key_resp_4.started,example_target.started,text_3.started,blocks.key_resp_4.keys,blocks.key_resp_4.rt,blocks.key_resp_4.duration,FixCross.started,fixCross.started,FixCross.stopped,Stimulus.started,key_resp.started,Stimulus.stopped,practice_trials.key_resp.keys,practice_trials.key_resp.corr,practice_trials.key_resp.rt,practice_trials.key_resp.duration,BlankScreen.started,text.started,text.stopped,BlankScreen.stopped,fixCross.stopped,ExperimentStart.started,text_2.started,key_resp_5.started,ExperimentStart.stopped,blocks.key_resp_5.keys,blocks.key_resp_5.rt,blocks.key_resp_5.duration,trials.key_resp.keys,trials.key_resp.corr,trials.key_resp.rt,trials.key_resp.duration,Thanks.started,ThankYou.started,key_resp_3.started,Thanks.stopped,key_resp_3.keys,key_resp_3.rt,key_resp_3.duration,participant,leeftijd,gender,links/rechtshandig,date,expName,expVersion,psychopyVersion,expStart,
,,,,,,,,,,,,,,,,,,,,,,,,,,,,,,,,,,,,,,,,,,,,,,0.042086999999924046,0.0565783999999212,0.0565783999999212,38.63357199999996,space,38.485783399999946,None,,,,,,,,,,,,,,,,,,,,,,,,,,,,,,,,,,,,,,,,,,,,,,828,25,M,R,2026-02-23_11h09.11.854,VisualSearch_2526_3,,2025.2.4,2026-02-23 11h09.12.397508 +0100,
,,,,,,,,,,,,,,,,,,,,,,,,,,,,,,,,,,,,,,,,,,,,,,,,,,,,,38.63361639999994,38.63839299999995,42.6816892999999,y,4.043356399999993,None,,,,,,,,,,,,,,,,,,,,,,,,,,,,,,,,,,,,,,,,828,25,M,R,2026-02-23_11h09.11.854,VisualSearch_2526_3,,2025.2.4,2026-02-23 11h09.12.397508 +0100,
vertical.xlsx,The target is tilted.,135,0,0,0,1,1,1,1,1,1,1,1,1,1,1,1,0,11,12,135,space,3.6149586000000227,None,0,0,1.4246906999999283,None,,,,0,0,0,1,0,0,0,0,,,,,46.42146059999993,,,,,,,,,,,,,,,42.75747999999999,42.75747999999999,42.75747999999999,space,3.6149586000000227,None,46.417259899999976,46.42146059999993,46.89655579999999,46.89822099999992,46.913053099999956,48.34697819999997,0,0,1.4246906999999283,None,48.34705789999998,48.3631163,48.56299119999994,48.54666499999996,,,,,,,,,,,,,,,,,,,,828,25,M,R,2026-02-23_11h09.11.854,VisualSearch_2526_3,,2025.2.4,2026-02-23 11h09.12.397508 +0100,
vertical.xlsx,The target is tilted.,135,1,1,0,1,0,0,0,0,0,0,0,0,0,0,0,0,0,1,135,space,3.6149586000000227,None,1,1,0.6169565999999804,None,,,,0,0,0,1,0,1,1,3,,,,,48.56299119999994,,,,,,,,,,,,,,,,,,,,,48.54689769999993,48.56299119999994,49.04668329999993,49.049686799999904,49.06302740000001,49.69680799999992,1,1,0.6169565999999804,None,49.69689029999995,49.712856099999954,49.912946799999986,49.89648579999994,49.06302740000001,,,,,,,,,,,,,,,,,,,828,25,M,R,2026-02-23_11h09.11.854,VisualSearch_2526_3,,2025.2.4,2026-02-23 11h09.12.397508 +0100,
vertical.xlsx,The target is tilted.,135,2,2,0,1,1,1,1,1,1,1,1,0,0,0,0,0,7,8,135,space,3.6149586000000227,None,1,1,1.0799941999999874,None,,,,0,0,0,1,0,2,2,1,,,,,49.912946799999986,,,,,,,,,,,,,,,,,,,,,49.8966805,49.912946799999986,50.396629799999914,50.40062219999993,50.41670599999998,51.51285509999991,1,1,1.0799941999999874,None,51.512932099999944,51.52926359999992,51.72908099999995,51.712680999999975,50.41670599999998,,,,,,,,,,,,,,,,,,,828,25,M,R,2026-02-23_11h09.11.854,VisualSearch_2526_3,,2025.2.4,2026-02-23 11h09.12.397508 +0100,
vertical.xlsx,The target is tilted.,135,3,3,0,1,1,1,1,0,0,0,0,0,0,0,0,0,3,4,135,space,3.6149586000000227,None,1,1,0.8902439999999388,None,,,,0,0,0,1,0,3,3,2,,,,,51.72908099999995,,,,,,,,,,,,,,,,,,,,,51.71297059999995,51.72908099999995,52.21280839999997,52.214763099999914,52.22929899999997,53.130549299999984,1,1,0.8902439999999388,None,53.130745299999944,53.14570739999999,53.34616529999994,53.329780599999935,52.22929899999997,,,,,,,,,,,,,,,,,,,828,25,M,R,2026-02-23_11h09.11.854,VisualSearch_2526_3,,2025.2.4,2026-02-23 11h09.12.397508 +0100,
vertical.xlsx,The target is tilted.,135,4,4,0,0,1,1,1,1,1,1,1,0,0,0,0,1,7,8,135,space,3.6149586000000227,None,0,1,1.1541433999999526,None,,,,0,0,0,1,0,4,4,5,,,,,53.34616529999994,,,,,,,,,,,,,,,,,,,,,53.33042679999994,53.34616529999994,53.82887389999996,53.83045779999998,53.84523349999995,55.01212979999991,0,1,1.1541433999999526,None,55.01219029999993,55.02851839999994,55.228238499999975,55.2117743,53.84523349999995,,,,,,,,,,,,,,,,,,,828,25,M,R,2026-02-23_11h09.11.854,VisualSearch_2526_3,,2025.2.4,2026-02-23 11h09.12.397508 +0100,
vertical.xlsx,The target is tilted.,135,5,5,0,0,1,1,1,0,0,0,0,0,0,0,0,1,3,4,135,space,3.6149586000000227,None,0,1,0.8491310000000567,None,,,,0,0,0,1,0,5,5,6,,,,,55.228238499999975,,,,,,,,,,,,,,,,,,,,,55.211970199999996,55.228238499999975,55.71180749999996,55.713784799999985,55.7285402,56.578918499999986,0,1,0.8491310000000567,None,56.57899109999994,56.59475909999992,56.794681399999945,56.778148999999985,55.7285402,,,,,,,,,,,,,,,,,,,828,25,M,R,2026-02-23_11h09.11.854,VisualSearch_2526_3,,2025.2.4,2026-02-23 11h09.12.397508 +0100,
vertical.xlsx,The target is tilted.,135,6,6,0,0,0,0,0,0,0,0,0,0,0,0,0,1,1,1,135,space,3.6149586000000227,None,0,1,0.6806360000000495,None,,,,0,0,0,1,0,6,6,7,,,,,56.794681399999945,,,,,,,,,,,,,,,,,,,,,56.778328899999906,56.794681399999945,57.27816259999997,57.27961199999993,57.2950505,57.97851529999991,0,1,0.6806360000000495,None,57.97858889999998,57.99460519999991,58.19470630000001,58.178287299999965,57.2950505,,,,,,,,,,,,,,,,,,,828,25,M,R,2026-02-23_11h09.11.854,VisualSearch_2526_3,,2025.2.4,2026-02-23 11h09.12.397508 +0100,
vertical.xlsx,The target is tilted.,135,7,7,0,0,1,1,1,1,1,1,1,1,1,1,1,1,11,12,135,space,3.6149586000000227,None,0,1,1.971172700000011,None,,,,0,0,0,1,0,7,7,4,,,,,58.19470630000001,,,,,,,,,,,,,,,,,,,,,58.178663599999936,58.19470630000001,58.678773099999944,58.682960399999956,58.698742299999935,60.678636799999936,0,1,1.971172700000011,None,60.67874859999995,60.69423849999998,60.89526699999999,60.87792300000001,,,,,,,,,,,,,,,,,,,,828,25,M,R,2026-02-23_11h09.11.854,VisualSearch_2526_3,,2025.2.4,2026-02-23 11h09.12.397508 +0100,
vertical.xlsx,The target is tilted.,135,0,0,0,0,1,1,1,1,1,1,1,0,0,0,0,1,7,8,135,space,3.6149586000000227,None,0,1,1.2261831000000711,None,space,8.065448700000047,None,0,0,0,1,,,,,0,0,0,5,68.99399069999993,,,,,,,,,,,,,,,,,,,,,68.99047519999999,68.99399069999993,69.47697649999998,69.4816970999999,69.49799519999999,70.72660589999998,,,,,70.72669669999993,70.74242670000001,70.94262399999991,70.92643049999992,69.49799519999999,60.88982390000001,60.89526699999999,60.89526699999999,68.97709090000001,space,8.065448700000047,None,0,1,1.2261831000000711,None,,,,,,,,828,25,M,R,2026-02-23_11h09.11.854,VisualSearch_2526_3,,2025.2.4,2026-02-23 11h09.12.397508 +0100,
vertical.xlsx,The target is tilted.,135,1,1,0,0,1,1,1,1,1,1,1,1,1,1,1,1,11,12,135,space,3.6149586000000227,None,0,1,1.7379958999999872,None,space,8.065448700000047,None,0,0,0,1,,,,,0,1,1,4,70.94262399999991,,,,,,,,,,,,,,,,,,,,,70.9271046,70.94262399999991,71.42685039999992,71.43141449999996,71.44802069999992,73.1930802999999,,,,,73.19318439999995,73.20876469999996,73.40902159999996,73.39238749999993,71.44802069999992,,,,,,,,0,1,1.7379958999999872,None,,,,,,,,828,25,M,R,2026-02-23_11h09.11.854,VisualSearch_2526_3,,2025.2.4,2026-02-23 11h09.12.397508 +0100,
vertical.xlsx,The target is tilted.,135,2,2,0,1,0,0,0,0,0,0,0,0,0,0,0,0,0,1,135,space,3.6149586000000227,None,1,1,0.47829269999999724,None,space,8.065448700000047,None,0,0,0,1,,,,,0,2,2,3,73.40902159999996,,,,,,,,,,,,,,,,,,,,,73.39289049999991,73.40902159999996,73.89304559999994,73.89713339999992,73.91272919999994,74.39223159999995,,,,,74.39229479999995,74.40840059999994,,74.59292210000001,73.91272919999994,,,,,,,,1,1,0.47829269999999724,None,,,,,,,,828,25,M,R,2026-02-23_11h09.11.854,VisualSearch_2526_3,,2025.2.4,2026-02-23 11h09.12.397508 +0100,
vertical.xlsx,The target is tilted.,135,3,3,0,0,0,0,0,0,0,0,0,0,0,0,0,1,1,1,135,space,3.6149586000000227,None,0,1,0.611143200000015,None,space,8.065448700000047,None,0,0,0,1,,,,,0,3,3,7,74.60916149999991,,,,,,,,,,,,,,,,,,,,,74.59370289999993,74.60916149999991,75.09191290000001,75.09357949999992,75.10837939999999,75.7261428999999,,,,,75.72629529999995,75.74187129999996,75.94225919999997,75.92541039999992,75.10837939999999,,,,,,,,0,1,0.611143200000015,None,,,,,,,,828,25,M,R,2026-02-23_11h09.11.854,VisualSearch_2526_3,,2025.2.4,2026-02-23 11h09.12.397508 +0100,
vertical.xlsx,The target is tilted.,135,4,4,0,0,1,1,1,0,0,0,0,0,0,0,0,1,3,4,135,space,3.6149586000000227,None,0,1,0.7379108000000087,None,space,8.065448700000047,None,0,0,0,1,,,,,0,4,4,6,75.94225919999997,,,,,,,,,,,,,,,,,,,,,75.92592400000001,75.94225919999997,76.42581189999999,76.4303562,76.44266649999997,77.19168359999992,,,,,77.19175559999996,77.20833529999993,77.4079544,77.3915399,76.44266649999997,,,,,,,,0,1,0.7379108000000087,None,,,,,,,,828,25,M,R,2026-02-23_11h09.11.854,VisualSearch_2526_3,,2025.2.4,2026-02-23 11h09.12.397508 +0100,
vertical.xlsx,The target is tilted.,135,5,5,0,1,1,1,1,1,1,1,1,0,0,0,0,0,7,8,135,space,3.6149586000000227,None,1,1,1.1012670999999727,None,space,8.065448700000047,None,0,0,0,1,,,,,0,5,5,1,77.4079544,,,,,,,,,,,,,,,,,,,,,77.39177669999992,77.4079544,77.89177309999991,77.893147,77.90816480000001,79.0253755,,,,,79.02544079999996,79.04104489999997,79.24111489999996,79.2244723,77.90816480000001,,,,,,,,1,1,1.1012670999999727,None,,,,,,,,828,25,M,R,2026-02-23_11h09.11.854,VisualSearch_2526_3,,2025.2.4,2026-02-23 11h09.12.397508 +0100,
vertical.xlsx,The target is tilted.,135,6,6,0,1,1,1,1,1,1,1,1,1,1,1,1,0,11,12,135,space,3.6149586000000227,None,1,1,1.2243232000000717,None,space,8.065448700000047,None,0,0,0,1,,,,,0,6,6,0,79.24111489999996,,,,,,,,,,,,,,,,,,,,,79.2246768,79.24111489999996,79.72482719999994,79.7261064999999,79.7412665999999,80.97458729999994,,,,,80.97465679999993,80.99069420000001,,81.17475129999991,79.7412665999999,,,,,,,,1,1,1.2243232000000717,None,,,,,,,,828,25,M,R,2026-02-23_11h09.11.854,VisualSearch_2526_3,,2025.2.4,2026-02-23 11h09.12.397508 +0100,
vertical.xlsx,The target is tilted.,135,7,7,0,1,1,1,1,0,0,0,0,0,0,0,0,0,3,4,135,space,3.6149586000000227,None,1,1,0.8899806000000581,None,space,8.065448700000047,None,0,0,0,1,,,,,0,7,7,2,81.19108080000001,,,,,,,,,,,,,,,,,,,,,81.1753688,81.19108080000001,81.67438719999996,81.67632629999991,81.6906404,82.5908743,,,,,82.59093839999991,82.60707649999995,,82.79116569999996,81.6906404,,,,,,,,1,1,0.8899806000000581,None,,,,,,,,828,25,M,R,2026-02-23_11h09.11.854,VisualSearch_2526_3,,2025.2.4,2026-02-23 11h09.12.397508 +0100,
vertical.xlsx,The target is tilted.,135,8,0,1,1,1,1,1,1,1,1,1,0,0,0,0,0,7,8,135,space,3.6149586000000227,None,1,1,1.5587200999999595,None,space,8.065448700000047,None,0,0,0,1,,,,,1,0,8,1,82.8072535,,,,,,,,,,,,,,,,,,,,,82.79192599999999,82.8072535,83.29049459999999,83.29164309999999,83.30705079999996,84.87396089999993,,,,,84.8740178999999,84.89022039999998,85.09010789999991,85.07352819999994,83.30705079999996,,,,,,,,1,1,1.5587200999999595,None,,,,,,,,828,25,M,R,2026-02-23_11h09.11.854,VisualSearch_2526_3,,2025.2.4,2026-02-23 11h09.12.397508 +0100,
vertical.xlsx,The target is tilted.,135,9,1,1,0,1,1,1,1,1,1,1,1,1,1,1,1,11,12,135,space,3.6149586000000227,None,0,1,1.5840279000000237,None,space,8.065448700000047,None,0,0,0,1,,,,,1,1,9,4,85.09010789999991,,,,,,,,,,,,,,,,,,,,,85.0737709,85.09010789999991,85.57344679999994,85.57462639999994,85.58997019999993,87.19021190000001,,,,,87.19029899999998,87.20641419999993,87.40633479999997,87.3904473,85.58997019999993,,,,,,,,0,1,1.5840279000000237,None,,,,,,,,828,25,M,R,2026-02-23_11h09.11.854,VisualSearch_2526_3,,2025.2.4,2026-02-23 11h09.12.397508 +0100,
vertical.xlsx,The target is tilted.,135,10,2,1,0,1,1,1,1,1,1,1,0,0,0,0,1,7,8,135,space,3.6149586000000227,None,0,1,1.4130946999999878,None,space,8.065448700000047,None,0,0,0,1,,,,,1,2,10,5,87.40633479999997,,,,,,,,,,,,,,,,,,,,,87.3908434,87.40633479999997,87.88973379999993,87.89096289999998,87.9062687999999,89.32352119999996,,,,,89.3236083999999,89.33939229999999,89.53999449999992,89.52324809999993,87.9062687999999,,,,,,,,0,1,1.4130946999999878,None,,,,,,,,828,25,M,R,2026-02-23_11h09.11.854,VisualSearch_2526_3,,2025.2.4,2026-02-23 11h09.12.397508 +0100,
vertical.xlsx,The target is tilted.,135,11,3,1,0,1,1,1,0,0,0,0,0,0,0,0,1,3,4,135,space,3.6149586000000227,None,0,1,0.7371478999999681,None,space,8.065448700000047,None,0,0,0,1,,,,,1,3,11,6,89.53999449999992,,,,,,,,,,,,,,,,,,,,,89.5236582,89.53999449999992,90.0240207999999,90.03116769999997,90.04823279999994,90.78946209999992,,,,,90.78952159999994,90.80577239999991,91.00573359999999,90.9894554,90.04823279999994,,,,,,,,0,1,0.7371478999999681,None,,,,,,,,828,25,M,R,2026-02-23_11h09.11.854,VisualSearch_2526_3,,2025.2.4,2026-02-23 11h09.12.397508 +0100,
vertical.xlsx,The target is tilted.,135,12,4,1,0,0,0,0,0,0,0,0,0,0,0,0,1,1,1,135,space,3.6149586000000227,None,0,1,0.7110187999999198,None,space,8.065448700000047,None,0,0,0,1,,,,,1,4,12,7,91.00573359999999,,,,,,,,,,,,,,,,,,,,,90.98981879999997,91.00573359999999,91.48909040000001,91.49024439999994,91.50565589999997,92.22295899999995,,,,,92.22304329999997,92.23888669999997,92.43906049999998,92.42262319999998,91.50565589999997,,,,,,,,0,1,0.7110187999999198,None,,,,,,,,828,25,M,R,2026-02-23_11h09.11.854,VisualSearch_2526_3,,2025.2.4,2026-02-23 11h09.12.397508 +0100,
vertical.xlsx,The target is tilted.,135,13,5,1,1,1,1,1,0,0,0,0,0,0,0,0,0,3,4,135,space,3.6149586000000227,None,1,1,0.891686400000026,None,space,8.065448700000047,None,0,0,0,1,,,,,1,5,13,2,92.43906049999998,,,,,,,,,,,,,,,,,,,,,92.42288599999995,92.43906049999998,92.92316449999998,92.92753779999998,92.94475779999993,93.83976269999994,,,,,93.8399877999999,93.85564189999991,94.05613589999996,94.03962089999993,92.94475779999993,,,,,,,,1,1,0.891686400000026,None,,,,,,,,828,25,M,R,2026-02-23_11h09.11.854,VisualSearch_2526_3,,2025.2.4,2026-02-23 11h09.12.397508 +0100,
vertical.xlsx,The target is tilted.,135,14,6,1,1,0,0,0,0,0,0,0,0,0,0,0,0,0,1,135,space,3.6149586000000227,None,1,1,0.5596965000000864,None,space,8.065448700000047,None,0,0,0,1,,,,,1,6,14,3,94.05613589999996,,,,,,,,,,,,,,,,,,,,,94.04032969999992,94.05613589999996,94.53900579999993,94.54101119999996,94.5552662,95.1224044999999,,,,,95.12247329999991,95.1383990999999,95.33866049999995,95.32188959999996,94.5552662,,,,,,,,1,1,0.5596965000000864,None,,,,,,,,828,25,M,R,2026-02-23_11h09.11.854,VisualSearch_2526_3,,2025.2.4,2026-02-23 11h09.12.397508 +0100,
vertical.xlsx,The target is tilted.,135,15,7,1,1,1,1,1,1,1,1,1,1,1,1,1,0,11,12,135,space,3.6149586000000227,None,1,1,1.2659582999999657,None,space,8.065448700000047,None,0,0,0,1,,,,,1,7,15,0,95.33866049999995,,,,,,,,,,,,,,,,,,,,,95.3220978999999,95.33866049999995,95.82260109999993,95.82620479999991,95.83988319999992,97.12180969999997,,,,,97.12186769999994,97.13816399999996,97.33801829999993,97.32151279999994,95.83988319999992,,,,,,,,1,1,1.2659582999999657,None,,,,,,,,828,25,M,R,2026-02-23_11h09.11.854,VisualSearch_2526_3,,2025.2.4,2026-02-23 11h09.12.397508 +0100,
vertical.xlsx,The target is tilted.,135,16,0,2,1,1,1,1,1,1,1,1,0,0,0,0,0,7,8,135,space,3.6149586000000227,None,1,1,1.0654730999999629,None,space,8.065448700000047,None,0,0,0,1,,,,,2,0,16,1,97.33801829999993,,,,,,,,,,,,,,,,,,,,,97.32172629999991,97.33801829999993,97.82188869999993,97.8231346,97.83818309999992,98.90497269999992,,,,,98.90505919999998,98.9210301999999,99.1212440999999,99.1052226999999,97.83818309999992,,,,,,,,1,1,1.0654730999999629,None,,,,,,,,828,25,M,R,2026-02-23_11h09.11.854,VisualSearch_2526_3,,2025.2.4,2026-02-23 11h09.12.397508 +0100,
vertical.xlsx,The target is tilted.,135,17,1,2,1,0,0,0,0,0,0,0,0,0,0,0,0,0,1,135,space,3.6149586000000227,None,1,1,0.6270853000000898,None,space,8.065448700000047,None,0,0,0,1,,,,,2,1,17,3,99.1212440999999,,,,,,,,,,,,,,,,,,,,,99.10586369999999,99.1212440999999,99.60445889999994,99.60563679999996,99.62098279999998,100.2546170999999,,,,,100.25468430000001,100.27092259999995,100.47093209999991,100.4546057,99.62098279999998,,,,,,,,1,1,0.6270853000000898,None,,,,,,,,828,25,M,R,2026-02-23_11h09.11.854,VisualSearch_2526_3,,2025.2.4,2026-02-23 11h09.12.397508 +0100,
vertical.xlsx,The target is tilted.,135,18,2,2,0,1,1,1,1,1,1,1,1,1,1,1,1,11,12,135,space,3.6149586000000227,None,0,1,1.899901600000021,None,space,8.065448700000047,None,0,0,0,1,,,,,2,2,18,4,100.47093209999991,,,,,,,,,,,,,,,,,,,,,100.45499299999994,100.47093209999991,100.95422819999999,100.95537049999996,100.9707957999999,102.87169080000001,,,,,102.87178699999993,102.88718869999991,103.0878545999999,103.07129889999999,100.9707957999999,,,,,,,,0,1,1.899901600000021,None,,,,,,,,828,25,M,R,2026-02-23_11h09.11.854,VisualSearch_2526_3,,2025.2.4,2026-02-23 11h09.12.397508 +0100,
vertical.xlsx,The target is tilted.,135,19,3,2,0,1,1,1,1,1,1,1,0,0,0,0,1,7,8,135,space,3.6149586000000227,None,0,1,1.3282808999999816,None,space,8.065448700000047,None,0,0,0,1,,,,,2,3,19,5,103.0878545999999,,,,,,,,,,,,,,,,,,,,,103.07176759999993,103.0878545999999,103.5715075999999,103.57551869999998,103.58709549999992,104.92192299999999,,,,,104.92210339999997,104.93710509999994,105.13738799999999,105.12102589999995,103.58709549999992,,,,,,,,0,1,1.3282808999999816,None,,,,,,,,828,25,M,R,2026-02-23_11h09.11.854,VisualSearch_2526_3,,2025.2.4,2026-02-23 11h09.12.397508 +0100,
vertical.xlsx,The target is tilted.,135,20,4,2,1,1,1,1,0,0,0,0,0,0,0,0,0,3,4,135,space,3.6149586000000227,None,1,1,0.8936523000000989,None,space,8.065448700000047,None,0,0,0,1,,,,,2,4,20,2,105.13738799999999,,,,,,,,,,,,,,,,,,,,,105.12156929999992,105.13738799999999,105.62035659999992,105.622341,105.6366468,106.53690109999991,,,,,106.53696709999997,106.55311589999997,106.75312819999999,106.73705919999998,105.6366468,,,,,,,,1,1,0.8936523000000989,None,,,,,,,,828,25,M,R,2026-02-23_11h09.11.854,VisualSearch_2526_3,,2025.2.4,2026-02-23 11h09.12.397508 +0100,
vertical.xlsx,The target is tilted.,135,21,5,2,1,1,1,1,1,1,1,1,1,1,1,1,0,11,12,135,space,3.6149586000000227,None,1,1,0.8541290000000572,None,space,8.065448700000047,None,0,0,0,1,,,,,2,5,21,0,106.75312819999999,,,,,,,,,,,,,,,,,,,,,106.73747279999998,106.75312819999999,107.23653579999996,107.23766809999995,107.25325609999993,108.1199830999999,,,,,108.1200427,108.13618999999994,108.3362148,108.32017529999996,107.25325609999993,,,,,,,,1,1,0.8541290000000572,None,,,,,,,,828,25,M,R,2026-02-23_11h09.11.854,VisualSearch_2526_3,,2025.2.4,2026-02-23 11h09.12.397508 +0100,
vertical.xlsx,The target is tilted.,135,22,6,2,0,0,0,0,0,0,0,0,0,0,0,0,1,1,1,135,space,3.6149586000000227,None,0,1,0.6673013000000765,None,space,8.065448700000047,None,0,0,0,1,,,,,2,6,22,7,108.3362148,,,,,,,,,,,,,,,,,,,,,108.32066909999992,108.3362148,108.81965119999995,108.8208879,108.8361251,109.51993429999993,,,,,109.52003049999996,109.53638849999993,109.73629339999991,109.7196320999999,108.8361251,,,,,,,,0,1,0.6673013000000765,None,,,,,,,,828,25,M,R,2026-02-23_11h09.11.854,VisualSearch_2526_3,,2025.2.4,2026-02-23 11h09.12.397508 +0100,
vertical.xlsx,The target is tilted.,135,23,7,2,0,1,1,1,0,0,0,0,0,0,0,0,1,3,4,135,space,3.6149586000000227,None,0,1,1.1292343000000074,None,space,8.065448700000047,None,0,0,0,1,,,,,2,7,23,6,109.73629339999991,,,,,,,,,,,,,,,,,,,,,109.71983239999997,109.73629339999991,110.21986809999999,110.22197399999993,110.23666089999995,111.36995389999993,,,,,111.37004739999998,111.38582389999999,111.58629289999999,111.56947159999993,110.23666089999995,,,,,,,,0,1,1.1292343000000074,None,,,,,,,,828,25,M,R,2026-02-23_11h09.11.854,VisualSearch_2526_3,,2025.2.4,2026-02-23 11h09.12.397508 +0100,
vertical.xlsx,The target is tilted.,135,24,0,3,0,0,0,0,0,0,0,0,0,0,0,0,1,1,1,135,space,3.6149586000000227,None,0,1,0.5148434000000179,None,space,8.065448700000047,None,0,0,0,1,,,,,3,0,24,7,111.58629289999999,,,,,,,,,,,,,,,,,,,,,111.56979309999997,111.58629289999999,112.07006630000001,112.07407119999993,112.08914319999997,112.6191634999999,,,,,112.61922319999996,112.63543770000001,112.8355765,112.81949589999999,112.08914319999997,,,,,,,,0,1,0.5148434000000179,None,,,,,,,,828,25,M,R,2026-02-23_11h09.11.854,VisualSearch_2526_3,,2025.2.4,2026-02-23 11h09.12.397508 +0100,
vertical.xlsx,The target is tilted.,135,25,1,3,0,1,1,1,0,0,0,0,0,0,0,0,1,3,4,135,space,3.6149586000000227,None,0,1,1.0092286000000286,None,space,8.065448700000047,None,0,0,0,1,,,,,3,1,25,6,112.8355765,,,,,,,,,,,,,,,,,,,,,112.82001789999993,112.8355765,113.31889430000001,113.3201517,113.33543529999997,114.35316189999992,,,,,114.35334389999991,114.36893139999995,114.56893989999992,114.55247279999992,113.33543529999997,,,,,,,,0,1,1.0092286000000286,None,,,,,,,,828,25,M,R,2026-02-23_11h09.11.854,VisualSearch_2526_3,,2025.2.4,2026-02-23 11h09.12.397508 +0100,
vertical.xlsx,The target is tilted.,135,26,2,3,1,1,1,1,0,0,0,0,0,0,0,0,0,3,4,135,space,3.6149586000000227,None,1,1,0.6090614000000869,None,space,8.065448700000047,None,0,0,0,1,,,,,3,2,26,2,114.56893989999992,,,,,,,,,,,,,,,,,,,,,114.55281889999992,114.56893989999992,115.05209400000001,115.05363699999998,115.06843529999992,115.68667069999992,,,,,115.68684919999998,115.70186009999998,115.90216629999998,115.8854869999999,115.06843529999992,,,,,,,,1,1,0.6090614000000869,None,,,,,,,,828,25,M,R,2026-02-23_11h09.11.854,VisualSearch_2526_3,,2025.2.4,2026-02-23 11h09.12.397508 +0100,
vertical.xlsx,The target is tilted.,135,27,3,3,1,1,1,1,1,1,1,1,0,0,0,0,0,7,8,135,space,3.6149586000000227,None,1,1,0.6774034000000029,None,space,8.065448700000047,None,0,0,0,1,,,,,3,3,27,1,115.90216629999998,,,,,,,,,,,,,,,,,,,,,115.88592119999998,115.90216629999998,116.38632209999992,116.39046780000001,116.40232619999995,117.08609669999998,,,,,117.08626169999991,117.10159009999995,117.30193699999995,117.28540879999991,116.40232619999995,,,,,,,,1,1,0.6774034000000029,None,,,,,,,,828,25,M,R,2026-02-23_11h09.11.854,VisualSearch_2526_3,,2025.2.4,2026-02-23 11h09.12.397508 +0100,
vertical.xlsx,The target is tilted.,135,28,4,3,0,1,1,1,1,1,1,1,1,1,1,1,1,11,12,135,space,3.6149586000000227,None,0,1,1.5867586000000529,None,space,8.065448700000047,None,0,0,0,1,,,,,3,4,28,4,117.30193699999995,,,,,,,,,,,,,,,,,,,,,117.28581259999999,117.30193699999995,117.78609649999999,117.79063969999993,117.80608309999991,119.40141089999997,,,,,119.40147179999997,119.41777109999998,119.61803559999998,119.60177039999996,117.80608309999991,,,,,,,,0,1,1.5867586000000529,None,,,,,,,,828,25,M,R,2026-02-23_11h09.11.854,VisualSearch_2526_3,,2025.2.4,2026-02-23 11h09.12.397508 +0100,
vertical.xlsx,The target is tilted.,135,29,5,3,1,0,0,0,0,0,0,0,0,0,0,0,0,0,1,135,space,3.6149586000000227,None,1,1,0.5482518000000027,None,space,8.065448700000047,None,0,0,0,1,,,,,3,5,29,3,119.61803559999998,,,,,,,,,,,,,,,,,,,,,119.60242719999997,119.61803559999998,120.10106929999995,120.10230100000001,120.11763189999999,120.6682303,,,,,120.6683172999999,120.68425349999995,120.88434689999997,120.86782269999992,120.11763189999999,,,,,,,,1,1,0.5482518000000027,None,,,,,,,,828,25,M,R,2026-02-23_11h09.11.854,VisualSearch_2526_3,,2025.2.4,2026-02-23 11h09.12.397508 +0100,
vertical.xlsx,The target is tilted.,135,30,6,3,1,1,1,1,1,1,1,1,1,1,1,1,0,11,12,135,space,3.6149586000000227,None,1,1,0.9227330000001075,None,space,8.065448700000047,None,0,0,0,1,,,,,3,6,30,0,120.88434689999997,,,,,,,,,,,,,,,,,,,,,120.86812139999995,120.88434689999997,121.36798299999998,121.37075959999993,121.38487579999992,122.3187777999999,,,,,122.3189554999999,122.33427619999998,122.53475919999994,122.5185320999999,121.38487579999992,,,,,,,,1,1,0.9227330000001075,None,,,,,,,,828,25,M,R,2026-02-23_11h09.11.854,VisualSearch_2526_3,,2025.2.4,2026-02-23 11h09.12.397508 +0100,
vertical.xlsx,The target is tilted.,135,31,7,3,0,1,1,1,1,1,1,1,0,0,0,0,1,7,8,135,space,3.6149586000000227,None,1,0,1.6378240000000233,None,space,8.065448700000047,None,0,0,0,1,,,,,3,7,31,5,122.53475919999994,,,,,,,,,,,,,,,,,,,,,122.51926279999998,122.53475919999994,123.01810409999996,123.02256319999992,123.03620039999998,124.68387929999994,,,,,124.68393889999993,124.7001201999999,124.90012789999992,124.88360209999996,123.03620039999998,,,,,,,,1,0,1.6378240000000233,None,,,,,,,,828,25,M,R,2026-02-23_11h09.11.854,VisualSearch_2526_3,,2025.2.4,2026-02-23 11h09.12.397508 +0100,
vertical.xlsx,The target is tilted.,135,32,0,4,0,1,1,1,1,1,1,1,1,1,1,1,1,11,12,135,space,3.6149586000000227,None,0,1,1.9157144999999218,None,space,8.065448700000047,None,0,0,0,1,,,,,4,0,32,4,124.90012789999992,,,,,,,,,,,,,,,,,,,,,124.88380799999993,124.90012789999992,125.3835671999999,125.38471809999999,125.40048049999996,127.31758229999991,,,,,127.31773329999999,127.3330264,127.53348749999998,127.51788439999996,125.40048049999996,,,,,,,,0,1,1.9157144999999218,None,,,,,,,,828,25,M,R,2026-02-23_11h09.11.854,VisualSearch_2526_3,,2025.2.4,2026-02-23 11h09.12.397508 +0100,
vertical.xlsx,The target is tilted.,135,33,1,4,1,0,0,0,0,0,0,0,0,0,0,0,0,0,1,135,space,3.6149586000000227,None,1,1,0.6513297000000193,None,space,8.065448700000047,None,0,0,0,1,,,,,4,1,33,3,127.53348749999998,,,,,,,,,,,,,,,,,,,,,127.51864009999997,127.53348749999998,128.0164085,128.01759629999992,128.0329926999999,128.69980939999994,,,,,128.69986859999995,128.7161383,128.916064,128.8996027999999,128.0329926999999,,,,,,,,1,1,0.6513297000000193,None,,,,,,,,828,25,M,R,2026-02-23_11h09.11.854,VisualSearch_2526_3,,2025.2.4,2026-02-23 11h09.12.397508 +0100,
vertical.xlsx,The target is tilted.,135,34,2,4,1,1,1,1,1,1,1,1,1,1,1,1,0,11,12,135,space,3.6149586000000227,None,1,1,1.645887000000016,None,space,8.065448700000047,None,0,0,0,1,,,,,4,2,34,0,128.916064,,,,,,,,,,,,,,,,,,,,,128.899815,128.916064,129.39954509999995,129.4006693,129.41653699999995,131.06665199999998,,,,,131.06673769999998,131.08246079999992,131.28267849999997,131.26634769999998,129.41653699999995,,,,,,,,1,1,1.645887000000016,None,,,,,,,,828,25,M,R,2026-02-23_11h09.11.854,VisualSearch_2526_3,,2025.2.4,2026-02-23 11h09.12.397508 +0100,
vertical.xlsx,The target is tilted.,135,35,3,4,0,1,1,1,1,1,1,1,0,0,0,0,1,7,8,135,space,3.6149586000000227,None,0,1,1.934691799999996,None,space,8.065448700000047,None,0,0,0,1,,,,,4,3,35,5,131.28267849999997,,,,,,,,,,,,,,,,,,,,,131.26657289999991,131.28267849999997,131.76684089999992,131.77108539999995,131.7830674999999,133.73277659999997,,,,,133.73283819999995,133.74864409999998,133.9489719999999,133.93220139999994,131.7830674999999,,,,,,,,0,1,1.934691799999996,None,,,,,,,,828,25,M,R,2026-02-23_11h09.11.854,VisualSearch_2526_3,,2025.2.4,2026-02-23 11h09.12.397508 +0100,
vertical.xlsx,The target is tilted.,135,36,4,4,0,1,1,1,0,0,0,0,0,0,0,0,1,3,4,135,space,3.6149586000000227,None,0,1,0.7759443000001056,None,space,8.065448700000047,None,0,0,0,1,,,,,4,4,36,6,133.9489719999999,,,,,,,,,,,,,,,,,,,,,133.93241189999992,133.9489719999999,134.43234169999994,134.4348627999999,134.4487808,135.23336619999998,,,,,135.2335425,135.2485557,135.44862239999998,135.43199949999996,134.4487808,,,,,,,,0,1,0.7759443000001056,None,,,,,,,,828,25,M,R,2026-02-23_11h09.11.854,VisualSearch_2526_3,,2025.2.4,2026-02-23 11h09.12.397508 +0100,
vertical.xlsx,The target is tilted.,135,37,5,4,1,1,1,1,0,0,0,0,0,0,0,0,0,3,4,135,space,3.6149586000000227,None,1,1,0.6364360000000033,None,space,8.065448700000047,None,0,0,0,1,,,,,4,5,37,2,135.44862239999998,,,,,,,,,,,,,,,,,,,,,135.43229229999997,135.44862239999998,135.93319799999995,135.93780849999996,135.9548575,136.59912869999994,,,,,136.59924439999998,136.61504449999995,136.81512659999999,136.7987448,135.9548575,,,,,,,,1,1,0.6364360000000033,None,,,,,,,,828,25,M,R,2026-02-23_11h09.11.854,VisualSearch_2526_3,,2025.2.4,2026-02-23 11h09.12.397508 +0100,
vertical.xlsx,The target is tilted.,135,38,6,4,1,1,1,1,1,1,1,1,0,0,0,0,0,7,8,135,space,3.6149586000000227,None,1,1,2.044867599999975,None,space,8.065448700000047,None,0,0,0,1,,,,,4,6,38,1,136.81512659999999,,,,,,,,,,,,,,,,,,,,,136.79894539999998,136.81512659999999,137.29848399999992,137.30043849999993,137.31497979999995,139.365902,,,,,139.36608279999996,139.38116279999997,139.5818451,139.5652285,137.31497979999995,,,,,,,,1,1,2.044867599999975,None,,,,,,,,828,25,M,R,2026-02-23_11h09.11.854,VisualSearch_2526_3,,2025.2.4,2026-02-23 11h09.12.397508 +0100,
vertical.xlsx,The target is tilted.,135,39,7,4,0,0,0,0,0,0,0,0,0,0,0,0,1,1,1,135,space,3.6149586000000227,None,0,1,0.6423521000000392,None,space,8.065448700000047,None,0,0,0,1,,,,,4,7,39,7,139.5818451,,,,,,,,,,,,,,,,,,,,,139.56587209999998,139.5818451,140.06480079999994,140.0665545999999,140.0810912999999,140.7319367,,,,,140.73207309999998,140.7476767999999,140.94772479999995,140.9318950999999,140.0810912999999,,,,,,,,0,1,0.6423521000000392,None,,,,,,,,828,25,M,R,2026-02-23_11h09.11.854,VisualSearch_2526_3,,2025.2.4,2026-02-23 11h09.12.397508 +0100,
vertical.xlsx,The target is tilted.,135,40,0,5,0,1,1,1,1,1,1,1,0,0,0,0,1,7,8,135,space,3.6149586000000227,None,1,0,1.3173530999999912,None,space,8.065448700000047,None,0,0,0,1,,,,,5,0,40,5,140.94772479999995,,,,,,,,,,,,,,,,,,,,,140.93300369999997,140.94772479999995,141.4310061,141.43245489999993,141.44750119999992,142.7659324,,,,,142.76613959999997,142.78075239999998,142.98119109999993,142.96491939999999,141.44750119999992,,,,,,,,1,0,1.3173530999999912,None,,,,,,,,828,25,M,R,2026-02-23_11h09.11.854,VisualSearch_2526_3,,2025.2.4,2026-02-23 11h09.12.397508 +0100,
vertical.xlsx,The target is tilted.,135,41,1,5,0,1,1,1,0,0,0,0,0,0,0,0,1,3,4,135,space,3.6149586000000227,None,0,1,0.9398515000000316,None,space,8.065448700000047,None,0,0,0,1,,,,,5,1,41,6,142.98119109999993,,,,,,,,,,,,,,,,,,,,,142.96555419999993,142.98119109999993,143.46444969999993,143.46686699999998,143.4804125999999,144.4310868,,,,,144.43114789999993,144.4468753,144.6469866,144.6304788,143.4804125999999,,,,,,,,0,1,0.9398515000000316,None,,,,,,,,828,25,M,R,2026-02-23_11h09.11.854,VisualSearch_2526_3,,2025.2.4,2026-02-23 11h09.12.397508 +0100,
vertical.xlsx,The target is tilted.,135,42,2,5,1,1,1,1,1,1,1,1,1,1,1,1,0,11,12,135,space,3.6149586000000227,None,1,1,1.4525416999999834,None,space,8.065448700000047,None,0,0,0,1,,,,,5,2,42,0,144.6469866,,,,,,,,,,,,,,,,,,,,,144.6306823,144.6469866,145.13074559999995,145.13189779999993,145.14716169999997,146.61409049999997,,,,,146.6141874,146.6299275,146.8307041999999,146.81437289999997,145.14716169999997,,,,,,,,1,1,1.4525416999999834,None,,,,,,,,828,25,M,R,2026-02-23_11h09.11.854,VisualSearch_2526_3,,2025.2.4,2026-02-23 11h09.12.397508 +0100,
vertical.xlsx,The target is tilted.,135,43,3,5,0,0,0,0,0,0,0,0,0,0,0,0,1,1,1,135,space,3.6149586000000227,None,0,1,0.7164168000000473,None,space,8.065448700000047,None,0,0,0,1,,,,,5,3,43,7,146.8307041999999,,,,,,,,,,,,,,,,,,,,,146.8151052999999,146.8307041999999,147.3139969,147.31798819999995,147.33109459999991,148.0635287,,,,,148.06358469999998,148.08001919999992,148.27970069999992,148.26329309999994,147.33109459999991,,,,,,,,0,1,0.7164168000000473,None,,,,,,,,828,25,M,R,2026-02-23_11h09.11.854,VisualSearch_2526_3,,2025.2.4,2026-02-23 11h09.12.397508 +0100,
vertical.xlsx,The target is tilted.,135,44,4,5,0,1,1,1,1,1,1,1,1,1,1,1,1,11,12,135,space,3.6149586000000227,None,0,1,2.5672045000000026,None,space,8.065448700000047,None,0,0,0,1,,,,,5,4,44,4,148.27970069999992,,,,,,,,,,,,,,,,,,,,,148.26351899999997,148.27970069999992,148.7634081,148.76482449999992,148.77988759999994,151.36347779999994,,,,,151.36367139999993,151.37902109999993,151.5795205999999,151.56321289999994,148.77988759999994,,,,,,,,0,1,2.5672045000000026,None,,,,,,,,828,25,M,R,2026-02-23_11h09.11.854,VisualSearch_2526_3,,2025.2.4,2026-02-23 11h09.12.397508 +0100,
vertical.xlsx,The target is tilted.,135,45,5,5,1,1,1,1,1,1,1,1,0,0,0,0,0,7,8,135,space,3.6149586000000227,None,1,1,0.8351302999999461,None,space,8.065448700000047,None,0,0,0,1,,,,,5,5,45,1,151.5795205999999,,,,,,,,,,,,,,,,,,,,,151.56386769999995,151.5795205999999,152.06245589999992,152.0635668,152.07911689999992,152.93041949999997,,,,,152.93061809999995,152.94563659999994,153.1459137999999,153.1298749,152.07911689999992,,,,,,,,1,1,0.8351302999999461,None,,,,,,,,828,25,M,R,2026-02-23_11h09.11.854,VisualSearch_2526_3,,2025.2.4,2026-02-23 11h09.12.397508 +0100,
vertical.xlsx,The target is tilted.,135,46,6,5,1,0,0,0,0,0,0,0,0,0,0,0,0,0,1,135,space,3.6149586000000227,None,1,1,0.5773575000000619,None,space,8.065448700000047,None,0,0,0,1,,,,,5,6,46,3,153.1459137999999,,,,,,,,,,,,,,,,,,,,,153.13052549999998,153.1459137999999,153.6289908,153.63095599999997,153.64542859999995,154.22953269999994,,,,,154.22961969999994,154.2453562999999,154.44583809999995,154.4291071,153.64542859999995,,,,,,,,1,1,0.5773575000000619,None,,,,,,,,828,25,M,R,2026-02-23_11h09.11.854,VisualSearch_2526_3,,2025.2.4,2026-02-23 11h09.12.397508 +0100,
vertical.xlsx,The target is tilted.,135,47,7,5,1,1,1,1,0,0,0,0,0,0,0,0,0,3,4,135,space,3.6149586000000227,None,1,1,0.5765120999999453,None,space,8.065448700000047,None,0,0,0,1,,,,,5,7,47,2,154.44583809999995,,,,,,,,,,,,,,,,,,,,,154.42945439999994,154.44583809999995,154.92949169999997,154.933902,154.9498989,155.52941839999994,,,,,155.52947459999996,155.54515809999998,155.74500679999994,155.72857009999996,154.9498989,,,,,,,,1,1,0.5765120999999453,None,,,,,,,,828,25,M,R,2026-02-23_11h09.11.854,VisualSearch_2526_3,,2025.2.4,2026-02-23 11h09.12.397508 +0100,
vertical.xlsx,The target is tilted.,135,48,0,6,0,1,1,1,0,0,0,0,0,0,0,0,1,3,4,135,space,3.6149586000000227,None,0,1,1.1898089000000027,None,space,8.065448700000047,None,0,0,0,1,,,,,6,0,48,6,155.74500679999994,,,,,,,,,,,,,,,,,,,,,155.7287763999999,155.74500679999994,156.22872869999992,156.23015829999997,156.2453099999999,157.44661989999997,,,,,157.446817,157.46181319999994,157.66201309999997,157.6457542999999,156.2453099999999,,,,,,,,0,1,1.1898089000000027,None,,,,,,,,828,25,M,R,2026-02-23_11h09.11.854,VisualSearch_2526_3,,2025.2.4,2026-02-23 11h09.12.397508 +0100,
vertical.xlsx,The target is tilted.,135,49,1,6,0,0,0,0,0,0,0,0,0,0,0,0,1,1,1,135,space,3.6149586000000227,None,0,1,0.6753598999999895,None,space,8.065448700000047,None,0,0,0,1,,,,,6,1,49,7,157.66201309999997,,,,,,,,,,,,,,,,,,,,,157.64634539999997,157.66201309999997,158.14578289999997,158.15100869999992,158.16141789999995,158.84554909999997,,,,,158.84565939999993,158.8613054,159.0619137,159.04562539999995,158.16141789999995,,,,,,,,0,1,0.6753598999999895,None,,,,,,,,828,25,M,R,2026-02-23_11h09.11.854,VisualSearch_2526_3,,2025.2.4,2026-02-23 11h09.12.397508 +0100,
vertical.xlsx,The target is tilted.,135,50,2,6,0,1,1,1,1,1,1,1,1,1,1,1,1,11,12,135,space,3.6149586000000227,None,0,1,2.4080425000000787,None,space,8.065448700000047,None,0,0,0,1,,,,,6,2,50,4,159.0619137,,,,,,,,,,,,,,,,,,,,,159.04633219999994,159.0619137,159.54559359999996,159.5501625999999,159.56324999999993,161.9784689999999,,,,,161.97856389999993,161.9940322,162.1940414999999,162.17801479999991,159.56324999999993,,,,,,,,0,1,2.4080425000000787,None,,,,,,,,828,25,M,R,2026-02-23_11h09.11.854,VisualSearch_2526_3,,2025.2.4,2026-02-23 11h09.12.397508 +0100,
vertical.xlsx,The target is tilted.,135,51,3,6,0,1,1,1,1,1,1,1,0,0,0,0,1,7,8,135,space,3.6149586000000227,None,0,1,1.4597478999999112,None,space,8.065448700000047,None,0,0,0,1,,,,,6,3,51,5,162.1940414999999,,,,,,,,,,,,,,,,,,,,,162.17823339999995,162.1940414999999,162.6774577,162.67908669999997,162.6939443,164.16147919999992,,,,,164.1615905,164.1771576,164.3774287,164.36094559999992,162.6939443,,,,,,,,0,1,1.4597478999999112,None,,,,,,,,828,25,M,R,2026-02-23_11h09.11.854,VisualSearch_2526_3,,2025.2.4,2026-02-23 11h09.12.397508 +0100,
vertical.xlsx,The target is tilted.,135,52,4,6,1,1,1,1,0,0,0,0,0,0,0,0,0,3,4,135,space,3.6149586000000227,None,1,1,0.7303289000000177,None,space,8.065448700000047,None,0,0,0,1,,,,,6,4,52,2,164.3774287,,,,,,,,,,,,,,,,,,,,,164.3612149999999,164.3774287,164.8610364,164.86459519999994,164.87943269999994,165.61189869999998,,,,,165.61211409999999,165.62721349999993,165.8276401999999,165.81124969999996,164.87943269999994,,,,,,,,1,1,0.7303289000000177,None,,,,,,,,828,25,M,R,2026-02-23_11h09.11.854,VisualSearch_2526_3,,2025.2.4,2026-02-23 11h09.12.397508 +0100,
vertical.xlsx,The target is tilted.,135,53,5,6,1,1,1,1,1,1,1,1,1,1,1,1,0,11,12,135,space,3.6149586000000227,None,1,1,1.2646638999999595,None,space,8.065448700000047,None,0,0,0,1,,,,,6,5,53,0,165.8276401999999,,,,,,,,,,,,,,,,,,,,,165.81206399999996,165.8276401999999,166.31094889999997,166.31564789999993,166.33175199999994,167.61075039999992,,,,,167.61085979999996,167.6267006999999,167.82698819999996,167.8103994999999,166.33175199999994,,,,,,,,1,1,1.2646638999999595,None,,,,,,,,828,25,M,R,2026-02-23_11h09.11.854,VisualSearch_2526_3,,2025.2.4,2026-02-23 11h09.12.397508 +0100,
vertical.xlsx,The target is tilted.,135,54,6,6,1,1,1,1,1,1,1,1,0,0,0,0,0,7,8,135,space,3.6149586000000227,None,1,1,1.1490901000000804,None,space,8.065448700000047,None,0,0,0,1,,,,,6,6,54,1,167.82698819999996,,,,,,,,,,,,,,,,,,,,,167.8106993,167.82698819999996,168.31082349999997,168.3148059,168.32971379999992,169.49427549999996,,,,,169.49447439999994,169.50966459999995,169.71022419999997,169.69381269999997,168.32971379999992,,,,,,,,1,1,1.1490901000000804,None,,,,,,,,828,25,M,R,2026-02-23_11h09.11.854,VisualSearch_2526_3,,2025.2.4,2026-02-23 11h09.12.397508 +0100,
vertical.xlsx,The target is tilted.,135,55,7,6,1,0,0,0,0,0,0,0,0,0,0,0,0,0,1,135,space,3.6149586000000227,None,1,1,0.6639880999999832,None,space,8.065448700000047,None,0,0,0,1,,,,,6,7,55,3,169.71022419999997,,,,,,,,,,,,,,,,,,,,,169.69446289999996,169.71022419999997,170.1938477,170.19839649999994,170.21460289999993,170.8937173999999,,,,,170.89382289999992,170.90942299999995,171.10967589999996,171.09341599999993,170.21460289999993,,,,,,,,1,1,0.6639880999999832,None,,,,,,,,828,25,M,R,2026-02-23_11h09.11.854,VisualSearch_2526_3,,2025.2.4,2026-02-23 11h09.12.397508 +0100,
vertical.xlsx,The target is tilted.,135,56,0,7,0,1,1,1,1,1,1,1,0,0,0,0,1,7,8,135,space,3.6149586000000227,None,0,1,1.7535017000000153,None,space,8.065448700000047,None,0,0,0,1,,,,,7,0,56,5,171.10967589999996,,,,,,,,,,,,,,,,,,,,,171.09372129999997,171.10967589999996,171.59328059999996,171.5960543,171.60975799999994,173.3767198999999,,,,,173.37691339999992,173.39236929999993,173.59234089999995,173.57580929999995,171.60975799999994,,,,,,,,0,1,1.7535017000000153,None,,,,,,,,828,25,M,R,2026-02-23_11h09.11.854,VisualSearch_2526_3,,2025.2.4,2026-02-23 11h09.12.397508 +0100,
vertical.xlsx,The target is tilted.,135,57,1,7,1,1,1,1,1,1,1,1,0,0,0,0,0,7,8,135,space,3.6149586000000227,None,1,1,1.5227498000000423,None,space,8.065448700000047,None,0,0,0,1,,,,,7,1,57,1,173.59234089999995,,,,,,,,,,,,,,,,,,,,,173.57618579999996,173.59234089999995,174.07657629999994,174.08104859999992,174.09781209999994,175.62691439999992,,,,,175.6271084,175.6421891,175.84197989999996,175.82557659999998,174.09781209999994,,,,,,,,1,1,1.5227498000000423,None,,,,,,,,828,25,M,R,2026-02-23_11h09.11.854,VisualSearch_2526_3,,2025.2.4,2026-02-23 11h09.12.397508 +0100,
vertical.xlsx,The target is tilted.,135,58,2,7,0,0,0,0,0,0,0,0,0,0,0,0,1,1,1,135,space,3.6149586000000227,None,0,1,0.6347077000000354,None,space,8.065448700000047,None,0,0,0,1,,,,,7,2,58,7,175.84197989999996,,,,,,,,,,,,,,,,,,,,,175.8258558,175.84197989999996,176.32546089999994,176.32758769999998,176.341678,176.99178169999993,,,,,176.99183889999995,177.00839699999995,177.20839249999995,177.1918667,176.341678,,,,,,,,0,1,0.6347077000000354,None,,,,,,,,828,25,M,R,2026-02-23_11h09.11.854,VisualSearch_2526_3,,2025.2.4,2026-02-23 11h09.12.397508 +0100,
vertical.xlsx,The target is tilted.,135,59,3,7,1,0,0,0,0,0,0,0,0,0,0,0,0,0,1,135,space,3.6149586000000227,None,1,1,0.5805342999999539,None,space,8.065448700000047,None,0,0,0,1,,,,,7,3,59,3,177.20839249999995,,,,,,,,,,,,,,,,,,,,,177.19212319999997,177.20839249999995,177.69207239999992,177.69324069999993,177.70813079999994,178.2918282999999,,,,,178.29188239999996,178.30823609999993,178.5078805999999,178.4914496,,,,,,,,,1,1,0.5805342999999539,None,,,,,,,,828,25,M,R,2026-02-23_11h09.11.854,VisualSearch_2526_3,,2025.2.4,2026-02-23 11h09.12.397508 +0100,
vertical.xlsx,The target is tilted.,135,60,4,7,0,1,1,1,1,1,1,1,1,1,1,1,1,11,12,135,space,3.6149586000000227,None,0,1,2.4748753999999735,None,space,8.065448700000047,None,0,0,0,1,,,,,7,4,60,4,178.5078805999999,,,,,,,,,,,,,,,,,,,,,178.49166639999999,178.5078805999999,178.9924221,178.99766169999998,179.0156364999999,181.49206709999999,,,,,181.4922029999999,181.50746099999992,181.70767839999996,181.691413,,,,,,,,,0,1,2.4748753999999735,None,,,,,,,,828,25,M,R,2026-02-23_11h09.11.854,VisualSearch_2526_3,,2025.2.4,2026-02-23 11h09.12.397508 +0100,
vertical.xlsx,The target is tilted.,135,61,5,7,1,1,1,1,1,1,1,1,1,1,1,1,0,11,12,135,space,3.6149586000000227,None,1,1,1.185262899999998,None,space,8.065448700000047,None,0,0,0,1,,,,,7,5,61,0,181.70767839999996,,,,,,,,,,,,,,,,,,,,,181.69179279999992,181.70767839999996,182.19076929999994,182.1918958,182.20742399999995,183.4078756,,,,,183.40793969999993,183.42375729999992,183.62433929999997,183.6073427,182.20742399999995,,,,,,,,1,1,1.185262899999998,None,,,,,,,,828,25,M,R,2026-02-23_11h09.11.854,VisualSearch_2526_3,,2025.2.4,2026-02-23 11h09.12.397508 +0100,
vertical.xlsx,The target is tilted.,135,62,6,7,0,1,1,1,0,0,0,0,0,0,0,0,1,3,4,135,space,3.6149586000000227,None,0,1,1.0582405999999764,None,space,8.065448700000047,None,0,0,0,1,,,,,7,6,62,6,183.62433929999997,,,,,,,,,,,,,,,,,,,,,183.6075598,183.62433929999997,184.1076936999999,184.1095828,184.12391909999997,185.1909758999999,,,,,185.19103239999993,185.2069775,185.40684699999997,185.39056729999993,184.12391909999997,,,,,,,,0,1,1.0582405999999764,None,,,,,,,,828,25,M,R,2026-02-23_11h09.11.854,VisualSearch_2526_3,,2025.2.4,2026-02-23 11h09.12.397508 +0100,
vertical.xlsx,The target is tilted.,135,63,7,7,1,1,1,1,0,0,0,0,0,0,0,0,0,3,4,135,space,3.6149586000000227,None,1,1,0.826679600000034,None,space,8.065448700000047,None,0,0,0,1,,,,,7,7,63,2,185.40684699999997,,,,,,,,,,,,,,,,,,,,,185.39084549999995,185.40684699999997,185.89078469999993,185.89229409999996,185.90688039999998,186.74069079999992,,,,,186.74077239999997,186.75663479999992,186.95678109999994,186.94110909999995,185.90688039999998,,,,,,,,1,1,0.826679600000034,None,,,,,,,,828,25,M,R,2026-02-23_11h09.11.854,VisualSearch_2526_3,,2025.2.4,2026-02-23 11h09.12.397508 +0100,
vertical.xlsx,The target is tilted.,135,64,0,8,1,1,1,1,0,0,0,0,0,0,0,0,0,3,4,135,space,3.6149586000000227,None,1,1,0.6452060999999958,None,space,8.065448700000047,None,0,0,0,1,,,,,8,0,64,2,186.95678109999994,,,,,,,,,,,,,,,,,,,,,186.9419441,186.95678109999994,187.44022639999991,187.44164849999993,187.45658779999997,188.10698989999992,,,,,188.10709269999995,188.1230888,188.32342929999993,188.30744819999995,187.45658779999997,,,,,,,,1,1,0.6452060999999958,None,,,,,,,,828,25,M,R,2026-02-23_11h09.11.854,VisualSearch_2526_3,,2025.2.4,2026-02-23 11h09.12.397508 +0100,
vertical.xlsx,The target is tilted.,135,65,1,8,1,1,1,1,1,1,1,1,1,1,1,1,0,11,12,135,space,3.6149586000000227,None,1,1,1.0880693999999949,None,space,8.065448700000047,None,0,0,0,1,,,,,8,1,65,0,188.32342929999993,,,,,,,,,,,,,,,,,,,,,188.30827969999996,188.32342929999993,188.80726229999993,188.8123154,188.83070199999997,189.92350609999994,,,,,189.92361169999992,189.93964619999997,190.1394259,190.12289899999996,188.83070199999997,,,,,,,,1,1,1.0880693999999949,None,,,,,,,,828,25,M,R,2026-02-23_11h09.11.854,VisualSearch_2526_3,,2025.2.4,2026-02-23 11h09.12.397508 +0100,
vertical.xlsx,The target is tilted.,135,66,2,8,1,0,0,0,0,0,0,0,0,0,0,0,0,0,1,135,space,3.6149586000000227,None,1,1,0.5953362000000197,None,space,8.065448700000047,None,0,0,0,1,,,,,8,2,66,3,190.1394259,,,,,,,,,,,,,,,,,,,,,190.1231057,190.1394259,190.62276499999996,190.62404379999998,190.63941769999997,191.24092559999997,,,,,191.2411219999999,191.256078,191.45653529999993,191.4402584999999,190.63941769999997,,,,,,,,1,1,0.5953362000000197,None,,,,,,,,828,25,M,R,2026-02-23_11h09.11.854,VisualSearch_2526_3,,2025.2.4,2026-02-23 11h09.12.397508 +0100,
vertical.xlsx,The target is tilted.,135,67,3,8,0,1,1,1,1,1,1,1,0,0,0,0,1,7,8,135,space,3.6149586000000227,None,0,1,1.3993485999999393,None,space,8.065448700000047,None,0,0,0,1,,,,,8,3,67,5,191.45653529999993,,,,,,,,,,,,,,,,,,,,,191.4409829,191.45653529999993,191.9400205999999,191.94375229999991,191.9558662999999,193.35692319999998,,,,,193.35701769999991,193.37225109999997,193.57291699999996,193.55672559999994,191.9558662999999,,,,,,,,0,1,1.3993485999999393,None,,,,,,,,828,25,M,R,2026-02-23_11h09.11.854,VisualSearch_2526_3,,2025.2.4,2026-02-23 11h09.12.397508 +0100,
vertical.xlsx,The target is tilted.,135,68,4,8,1,1,1,1,1,1,1,1,0,0,0,0,0,7,8,135,space,3.6149586000000227,None,1,1,1.3215112999999974,None,space,8.065448700000047,None,0,0,0,1,,,,,8,4,68,1,193.57291699999996,,,,,,,,,,,,,,,,,,,,,193.55755639999995,193.57291699999996,194.05632619999994,194.05995229999996,194.0720665,195.40675339999996,,,,,195.40689909999992,195.42211299999997,195.62204199999996,195.6060771,194.0720665,,,,,,,,1,1,1.3215112999999974,None,,,,,,,,828,25,M,R,2026-02-23_11h09.11.854,VisualSearch_2526_3,,2025.2.4,2026-02-23 11h09.12.397508 +0100,
vertical.xlsx,The target is tilted.,135,69,5,8,0,1,1,1,1,1,1,1,1,1,1,1,1,11,12,135,space,3.6149586000000227,None,0,1,2.0365017000000307,None,space,8.065448700000047,None,0,0,0,1,,,,,8,5,69,4,195.62204199999996,,,,,,,,,,,,,,,,,,,,,195.60681669999997,195.62204199999996,196.10591109999996,196.108877,196.12231669999994,198.17265709999992,,,,,198.1728524,198.1883173,198.3881801,198.3715651,196.12231669999994,,,,,,,,0,1,2.0365017000000307,None,,,,,,,,828,25,M,R,2026-02-23_11h09.11.854,VisualSearch_2526_3,,2025.2.4,2026-02-23 11h09.12.397508 +0100,
vertical.xlsx,The target is tilted.,135,70,6,8,0,0,0,0,0,0,0,0,0,0,0,0,1,1,1,135,space,3.6149586000000227,None,0,1,0.842259199999944,None,space,8.065448700000047,None,0,0,0,1,,,,,8,6,70,7,198.3881801,,,,,,,,,,,,,,,,,,,,,198.3718252,198.3881801,198.8714058999999,198.87266,198.8883136999999,199.73825609999994,,,,,199.73834649999992,199.75445679999996,199.95460709999998,199.9383894,198.8883136999999,,,,,,,,0,1,0.842259199999944,None,,,,,,,,828,25,M,R,2026-02-23_11h09.11.854,VisualSearch_2526_3,,2025.2.4,2026-02-23 11h09.12.397508 +0100,
vertical.xlsx,The target is tilted.,135,71,7,8,0,1,1,1,0,0,0,0,0,0,0,0,1,3,4,135,space,3.6149586000000227,None,0,1,1.0426903000000038,None,space,8.065448700000047,None,0,0,0,1,,,,,8,7,71,6,199.95460709999998,,,,,,,,,,,,,,,,,,,,,199.93883119999998,199.95460709999998,200.4379288,200.4396087,200.45431889999998,201.505085,,,,,201.50517559999992,201.5208925999999,201.72082869999997,201.70445719999998,200.45431889999998,,,,,,,,0,1,1.0426903000000038,None,,,,,,,,828,25,M,R,2026-02-23_11h09.11.854,VisualSearch_2526_3,,2025.2.4,2026-02-23 11h09.12.397508 +0100,
vertical.xlsx,The target is tilted.,135,72,0,9,0,1,1,1,1,1,1,1,0,0,0,0,1,7,8,135,space,3.6149586000000227,None,0,1,1.2339235999999119,None,space,8.065448700000047,None,0,0,0,1,,,,,9,0,72,5,201.72082869999997,,,,,,,,,,,,,,,,,,,,,201.7047784,201.72082869999997,202.2043069,202.20560039999998,202.22095109999998,203.47136119999993,,,,,203.47148759999993,203.4873361,203.68786219999993,203.67140719999998,202.22095109999998,,,,,,,,0,1,1.2339235999999119,None,,,,,,,,828,25,M,R,2026-02-23_11h09.11.854,VisualSearch_2526_3,,2025.2.4,2026-02-23 11h09.12.397508 +0100,
vertical.xlsx,The target is tilted.,135,73,1,9,1,1,1,1,0,0,0,0,0,0,0,0,0,3,4,135,space,3.6149586000000227,None,1,1,0.5857173999999077,None,space,8.065448700000047,None,0,0,0,1,,,,,9,1,73,2,203.68786219999993,,,,,,,,,,,,,,,,,,,,,203.6718932,203.68786219999993,204.1715812,204.1759025,204.19369389999997,204.7877648,,,,,204.78782679999995,204.803634,205.0043455,204.9874476,204.19369389999997,,,,,,,,1,1,0.5857173999999077,None,,,,,,,,828,25,M,R,2026-02-23_11h09.11.854,VisualSearch_2526_3,,2025.2.4,2026-02-23 11h09.12.397508 +0100,
vertical.xlsx,The target is tilted.,135,74,2,9,1,0,0,0,0,0,0,0,0,0,0,0,0,0,1,135,space,3.6149586000000227,None,1,1,0.4752248999999438,None,space,8.065448700000047,None,0,0,0,1,,,,,9,2,74,3,205.0043455,,,,,,,,,,,,,,,,,,,,,204.9876711999999,205.0043455,205.4876473999999,205.4896698,205.50416969999992,205.98868659999994,,,,,205.98889069999996,206.00373719999993,206.20419679999998,206.18754669999998,205.50416969999992,,,,,,,,1,1,0.4752248999999438,None,,,,,,,,828,25,M,R,2026-02-23_11h09.11.854,VisualSearch_2526_3,,2025.2.4,2026-02-23 11h09.12.397508 +0100,
vertical.xlsx,The target is tilted.,135,75,3,9,0,1,1,1,1,1,1,1,1,1,1,1,1,11,12,135,space,3.6149586000000227,None,0,1,1.9989451000000145,None,space,8.065448700000047,None,0,0,0,1,,,,,9,3,75,4,206.20419679999998,,,,,,,,,,,,,,,,,,,,,206.18803449999996,206.20419679999998,206.68770669999992,206.69124679999993,206.70586519999995,208.7203584,,,,,208.72047079999993,208.73653909999996,208.93693099999996,208.92039899999997,206.70586519999995,,,,,,,,0,1,1.9989451000000145,None,,,,,,,,828,25,M,R,2026-02-23_11h09.11.854,VisualSearch_2526_3,,2025.2.4,2026-02-23 11h09.12.397508 +0100,
vertical.xlsx,The target is tilted.,135,76,4,9,0,1,1,1,0,0,0,0,0,0,0,0,1,3,4,135,space,3.6149586000000227,None,0,1,0.9221895999999106,None,space,8.065448700000047,None,0,0,0,1,,,,,9,4,76,6,208.93693099999996,,,,,,,,,,,,,,,,,,,,,208.92084899999998,208.93693099999996,209.4206534,209.424938,209.4411012999999,210.37071329999992,,,,,210.37085979999995,210.3862643,210.586681,210.57000399999993,209.4411012999999,,,,,,,,0,1,0.9221895999999106,None,,,,,,,,828,25,M,R,2026-02-23_11h09.11.854,VisualSearch_2526_3,,2025.2.4,2026-02-23 11h09.12.397508 +0100,
vertical.xlsx,The target is tilted.,135,77,5,9,1,1,1,1,1,1,1,1,1,1,1,1,0,11,12,135,space,3.6149586000000227,None,0,0,1.7567483999999922,None,space,8.065448700000047,None,0,0,0,1,,,,,9,5,77,0,210.586681,,,,,,,,,,,,,,,,,,,,,210.57041809999998,210.586681,211.0699846,211.07361129999992,211.08714759999998,212.852527,,,,,212.85258209999995,212.86892669999997,213.06899579999993,213.0527558,211.08714759999998,,,,,,,,0,0,1.7567483999999922,None,,,,,,,,828,25,M,R,2026-02-23_11h09.11.854,VisualSearch_2526_3,,2025.2.4,2026-02-23 11h09.12.397508 +0100,
vertical.xlsx,The target is tilted.,135,78,6,9,0,0,0,0,0,0,0,0,0,0,0,0,1,1,1,135,space,3.6149586000000227,None,0,1,0.5657715999999482,None,space,8.065448700000047,None,0,0,0,1,,,,,9,6,78,7,213.06899579999993,,,,,,,,,,,,,,,,,,,,,213.05317979999995,213.06899579999993,213.55261929999995,213.55391629999997,213.5695136999999,214.13618109999993,,,,,214.13647419999995,214.15209049999999,214.3524741,214.33656919999999,213.5695136999999,,,,,,,,0,1,0.5657715999999482,None,,,,,,,,828,25,M,R,2026-02-23_11h09.11.854,VisualSearch_2526_3,,2025.2.4,2026-02-23 11h09.12.397508 +0100,
vertical.xlsx,The target is tilted.,135,79,7,9,1,1,1,1,1,1,1,1,0,0,0,0,0,7,8,135,space,3.6149586000000227,None,1,1,0.7548054999999749,None,space,8.065448700000047,None,0,0,0,1,,,,,9,7,79,1,214.3524741,,,,,,,,,,,,,,,,,,,,,214.33757659999992,214.3524741,214.83572729999992,214.83812119999993,214.85202419999996,215.6199143,,,,,215.6201148,215.63546139999994,215.83562359999996,215.81895889999998,214.85202419999996,,,,,,,,1,1,0.7548054999999749,None,,,,,,,,828,25,M,R,2026-02-23_11h09.11.854,VisualSearch_2526_3,,2025.2.4,2026-02-23 11h09.12.397508 +0100,
vertical.xlsx,The target is tilted.,135,80,0,10,0,1,1,1,1,1,1,1,1,1,1,1,1,11,12,135,space,3.6149586000000227,None,0,1,1.331347199999982,None,space,8.065448700000047,None,0,0,0,1,,,,,10,0,80,4,215.83562359999996,,,,,,,,,,,,,,,,,,,,,215.819256,215.83562359999996,216.3186407999999,216.31977089999998,216.33507709999992,217.6698788,,,,,217.67008139999996,217.68518289999997,217.885764,217.86923749999994,216.33507709999992,,,,,,,,0,1,1.331347199999982,None,,,,,,,,828,25,M,R,2026-02-23_11h09.11.854,VisualSearch_2526_3,,2025.2.4,2026-02-23 11h09.12.397508 +0100,
vertical.xlsx,The target is tilted.,135,81,1,10,0,1,1,1,1,1,1,1,0,0,0,0,1,7,8,135,space,3.6149586000000227,None,0,1,0.9921269000000166,None,space,8.065448700000047,None,0,0,0,1,,,,,10,1,81,5,217.885764,,,,,,,,,,,,,,,,,,,,,217.8700581999999,217.885764,218.3849224999999,218.38616679999996,218.40147089999994,219.4021113,,,,,219.4022101999999,219.41790989999993,219.6178764,219.60194839999997,,,,,,,,,0,1,0.9921269000000166,None,,,,,,,,828,25,M,R,2026-02-23_11h09.11.854,VisualSearch_2526_3,,2025.2.4,2026-02-23 11h09.12.397508 +0100,
vertical.xlsx,The target is tilted.,135,82,2,10,1,0,0,0,0,0,0,0,0,0,0,0,0,0,1,135,space,3.6149586000000227,None,1,1,0.5537591999999449,None,space,8.065448700000047,None,0,0,0,1,,,,,10,2,82,3,219.6178764,,,,,,,,,,,,,,,,,,,,,219.60221079999997,219.6178764,220.10252179999998,220.1075945,220.12325349999992,220.68477539999992,,,,,220.6848304,220.70104609999999,220.90102889999991,220.88457469999992,220.12325349999992,,,,,,,,1,1,0.5537591999999449,None,,,,,,,,828,25,M,R,2026-02-23_11h09.11.854,VisualSearch_2526_3,,2025.2.4,2026-02-23 11h09.12.397508 +0100,
vertical.xlsx,The target is tilted.,135,83,3,10,0,0,0,0,0,0,0,0,0,0,0,0,1,1,1,135,space,3.6149586000000227,None,0,1,0.683647800000017,None,space,8.065448700000047,None,0,0,0,1,,,,,10,3,83,7,220.90102889999991,,,,,,,,,,,,,,,,,,,,,220.88494259999993,220.90102889999991,221.3845465999999,221.3856768999999,221.40131069999995,222.10134269999992,,,,,222.10140779999995,222.11797619999993,222.3173713,222.30103729999996,221.40131069999995,,,,,,,,0,1,0.683647800000017,None,,,,,,,,828,25,M,R,2026-02-23_11h09.11.854,VisualSearch_2526_3,,2025.2.4,2026-02-23 11h09.12.397508 +0100,
vertical.xlsx,The target is tilted.,135,84,4,10,0,1,1,1,0,0,0,0,0,0,0,0,1,3,4,135,space,3.6149586000000227,None,0,1,0.8831343000000516,None,space,8.065448700000047,None,0,0,0,1,,,,,10,4,84,6,222.3173713,,,,,,,,,,,,,,,,,,,,,222.30128029999992,222.3173713,222.8009075,222.80211209999993,222.81733869999994,223.7011147999999,,,,,223.70116919999998,223.71754839999994,223.9172256999999,223.90067209999995,222.81733869999994,,,,,,,,0,1,0.8831343000000516,None,,,,,,,,828,25,M,R,2026-02-23_11h09.11.854,VisualSearch_2526_3,,2025.2.4,2026-02-23 11h09.12.397508 +0100,
vertical.xlsx,The target is tilted.,135,85,5,10,1,1,1,1,1,1,1,1,1,1,1,1,0,11,12,135,space,3.6149586000000227,None,1,1,0.9462158999999701,None,space,8.065448700000047,None,0,0,0,1,,,,,10,5,85,0,223.9172256999999,,,,,,,,,,,,,,,,,,,,,223.9009173999999,223.9172256999999,224.40097479999997,224.40217189999998,224.4177176999999,225.3681072999999,,,,,225.3682182,225.38421259999996,225.58418829999994,225.5676959,224.4177176999999,,,,,,,,1,1,0.9462158999999701,None,,,,,,,,828,25,M,R,2026-02-23_11h09.11.854,VisualSearch_2526_3,,2025.2.4,2026-02-23 11h09.12.397508 +0100,
vertical.xlsx,The target is tilted.,135,86,6,10,1,1,1,1,0,0,0,0,0,0,0,0,0,3,4,135,space,3.6149586000000227,None,1,1,0.6648929000000408,None,space,8.065448700000047,None,0,0,0,1,,,,,10,6,86,2,225.58418829999994,,,,,,,,,,,,,,,,,,,,,225.56797099999994,225.58418829999994,226.0676583999999,226.0693933,226.08413919999998,226.75076019999995,,,,,226.7508385,226.76686029999996,226.9672041,226.95073639999998,226.08413919999998,,,,,,,,1,1,0.6648929000000408,None,,,,,,,,828,25,M,R,2026-02-23_11h09.11.854,VisualSearch_2526_3,,2025.2.4,2026-02-23 11h09.12.397508 +0100,
vertical.xlsx,The target is tilted.,135,87,7,10,1,1,1,1,1,1,1,1,0,0,0,0,0,7,8,135,space,3.6149586000000227,None,0,0,1.847865200000001,None,space,8.065448700000047,None,0,0,0,1,,,,,10,7,87,1,226.9672041,,,,,,,,,,,,,,,,,,,,,226.95094519999998,226.9672041,227.45070269999997,227.45327279999992,227.46725429999992,229.31727079999996,,,,,229.3174014,229.3333429999999,229.53345579999996,229.5170473999999,227.46725429999992,,,,,,,,0,0,1.847865200000001,None,,,,,,,,828,25,M,R,2026-02-23_11h09.11.854,VisualSearch_2526_3,,2025.2.4,2026-02-23 11h09.12.397508 +0100,
vertical.xlsx,The target is tilted.,135,88,0,11,1,1,1,1,1,1,1,1,1,1,1,1,0,11,12,135,space,3.6149586000000227,None,1,1,1.2041165000000547,None,space,8.065448700000047,None,0,0,0,1,,,,,11,0,88,0,229.53345579999996,,,,,,,,,,,,,,,,,,,,,229.51741719999995,229.53345579999996,230.01748109999994,230.0218367,230.0385642,231.25005679999992,,,,,231.25015999999994,231.26594739999996,231.4659474,231.4496820999999,230.0385642,,,,,,,,1,1,1.2041165000000547,None,,,,,,,,828,25,M,R,2026-02-23_11h09.11.854,VisualSearch_2526_3,,2025.2.4,2026-02-23 11h09.12.397508 +0100,
vertical.xlsx,The target is tilted.,135,89,1,11,1,0,0,0,0,0,0,0,0,0,0,0,0,0,1,135,space,3.6149586000000227,None,1,1,0.6189775999999938,None,space,8.065448700000047,None,0,0,0,1,,,,,11,1,89,3,231.4659474,,,,,,,,,,,,,,,,,,,,,231.45010109999998,231.4659474,231.9494957999999,231.95069879999994,231.96627439999997,232.59982459999992,,,,,232.5999008,232.61590339999998,232.8162352999999,232.7999931999999,231.96627439999997,,,,,,,,1,1,0.6189775999999938,None,,,,,,,,828,25,M,R,2026-02-23_11h09.11.854,VisualSearch_2526_3,,2025.2.4,2026-02-23 11h09.12.397508 +0100,
vertical.xlsx,The target is tilted.,135,90,2,11,0,1,1,1,1,1,1,1,0,0,0,0,1,7,8,135,space,3.6149586000000227,None,0,1,1.5495438000000377,None,space,8.065448700000047,None,0,0,0,1,,,,,11,2,90,5,232.8162352999999,,,,,,,,,,,,,,,,,,,,,232.8007503,232.8162352999999,233.2996283,233.3026913,233.3158699999999,234.8669407,,,,,234.86714009999992,234.882073,235.0827425,235.06666329999996,233.3158699999999,,,,,,,,0,1,1.5495438000000377,None,,,,,,,,828,25,M,R,2026-02-23_11h09.11.854,VisualSearch_2526_3,,2025.2.4,2026-02-23 11h09.12.397508 +0100,
vertical.xlsx,The target is tilted.,135,91,3,11,1,1,1,1,1,1,1,1,0,0,0,0,0,7,8,135,space,3.6149586000000227,None,0,0,1.4284212000000025,None,space,8.065448700000047,None,0,0,0,1,,,,,11,3,91,1,235.0827425,,,,,,,,,,,,,,,,,,,,,235.06738819999998,235.0827425,235.56551089999994,235.5672391999999,235.58224299999995,237.01583269999992,,,,,237.0158937,237.0321715,237.2321781999999,237.21563879999997,235.58224299999995,,,,,,,,0,0,1.4284212000000025,None,,,,,,,,828,25,M,R,2026-02-23_11h09.11.854,VisualSearch_2526_3,,2025.2.4,2026-02-23 11h09.12.397508 +0100,
vertical.xlsx,The target is tilted.,135,92,4,11,0,1,1,1,0,0,0,0,0,0,0,0,1,3,4,135,space,3.6149586000000227,None,0,1,0.6963610000000244,None,space,8.065448700000047,None,0,0,0,1,,,,,11,4,92,6,237.2321781999999,,,,,,,,,,,,,,,,,,,,,237.2158389,237.2321781999999,237.7156377,237.71774119999998,237.73220179999998,238.43227739999998,,,,,238.43238499999995,238.44831929999998,238.6484074,238.63182699999993,237.73220179999998,,,,,,,,0,1,0.6963610000000244,None,,,,,,,,828,25,M,R,2026-02-23_11h09.11.854,VisualSearch_2526_3,,2025.2.4,2026-02-23 11h09.12.397508 +0100,
vertical.xlsx,The target is tilted.,135,93,5,11,1,1,1,1,0,0,0,0,0,0,0,0,0,3,4,135,space,3.6149586000000227,None,1,1,0.7845899000000145,None,space,8.065448700000047,None,0,0,0,1,,,,,11,5,93,2,238.6484074,,,,,,,,,,,,,,,,,,,,,238.63220749999994,238.6484074,239.13202589999992,239.13415579999992,239.14819239999997,239.94887369999992,,,,,239.94895339999994,239.9650716,240.16456359999995,240.14813529999992,239.14819239999997,,,,,,,,1,1,0.7845899000000145,None,,,,,,,,828,25,M,R,2026-02-23_11h09.11.854,VisualSearch_2526_3,,2025.2.4,2026-02-23 11h09.12.397508 +0100,
vertical.xlsx,The target is tilted.,135,94,6,11,0,1,1,1,1,1,1,1,1,1,1,1,1,11,12,135,space,3.6149586000000227,None,0,1,1.4688310000000229,None,space,8.065448700000047,None,0,0,0,1,,,,,11,6,94,4,240.16456359999995,,,,,,,,,,,,,,,,,,,,,240.14846709999995,240.16456359999995,240.6484415,240.64969209999992,240.6644849999999,242.14871159999996,,,,,242.14886379999996,242.16444689999992,242.3649653,242.3487204999999,240.6644849999999,,,,,,,,0,1,1.4688310000000229,None,,,,,,,,828,25,M,R,2026-02-23_11h09.11.854,VisualSearch_2526_3,,2025.2.4,2026-02-23 11h09.12.397508 +0100,
vertical.xlsx,The target is tilted.,135,95,7,11,0,0,0,0,0,0,0,0,0,0,0,0,1,1,1,135,space,3.6149586000000227,None,0,1,0.5997511000000486,None,space,8.065448700000047,None,0,0,0,1,,,,,11,7,95,7,242.3649653,,,,,,,,,,,,,,,,,,,,,242.34941279999998,242.3649653,242.8480156999999,242.85065559999998,242.86424899999997,243.4658637,,,,,243.46605599999998,243.48098069999992,243.68078479999997,243.6648424,242.86424899999997,,,,,,,,0,1,0.5997511000000486,None,,,,,,,,828,25,M,R,2026-02-23_11h09.11.854,VisualSearch_2526_3,,2025.2.4,2026-02-23 11h09.12.397508 +0100,
vertical.xlsx,The target is tilted.,135,96,0,12,1,0,0,0,0,0,0,0,0,0,0,0,0,0,1,135,space,3.6149586000000227,None,0,0,0.598949800000014,None,space,8.065448700000047,None,0,0,0,1,,,,,12,0,96,3,243.68078479999997,,,,,,,,,,,,,,,,,,,,,243.6653298,243.68078479999997,244.16454209999995,244.1665355,244.1811108999999,244.7811011,,,,,244.78115919999993,244.79784959999995,244.9970363,244.98059669999998,244.1811108999999,,,,,,,,0,0,0.598949800000014,None,,,,,,,,828,25,M,R,2026-02-23_11h09.11.854,VisualSearch_2526_3,,2025.2.4,2026-02-23 11h09.12.397508 +0100,
vertical.xlsx,The target is tilted.,135,97,1,12,0,1,1,1,1,1,1,1,0,0,0,0,1,7,8,135,space,3.6149586000000227,None,0,1,1.3464906000000383,None,space,8.065448700000047,None,0,0,0,1,,,,,12,1,97,5,244.9970363,,,,,,,,,,,,,,,,,,,,,244.9808726,244.9970363,245.4807277,245.48311409999997,245.4970469,246.8479287,,,,,246.8480887999999,246.8635766,247.0637607,247.0474797999999,245.4970469,,,,,,,,0,1,1.3464906000000383,None,,,,,,,,828,25,M,R,2026-02-23_11h09.11.854,VisualSearch_2526_3,,2025.2.4,2026-02-23 11h09.12.397508 +0100,
vertical.xlsx,The target is tilted.,135,98,2,12,1,1,1,1,0,0,0,0,0,0,0,0,0,3,4,135,space,3.6149586000000227,None,1,1,0.7427977999999484,None,space,8.065448700000047,None,0,0,0,1,,,,,12,2,98,2,247.0637607,,,,,,,,,,,,,,,,,,,,,247.04818439999997,247.0637607,247.54798459999995,247.55282149999994,247.56326419999994,248.3144873,,,,,248.31462149999993,248.3298539,248.5301839,248.5142518,247.56326419999994,,,,,,,,1,1,0.7427977999999484,None,,,,,,,,828,25,M,R,2026-02-23_11h09.11.854,VisualSearch_2526_3,,2025.2.4,2026-02-23 11h09.12.397508 +0100,
vertical.xlsx,The target is tilted.,135,99,3,12,0,1,1,1,1,1,1,1,1,1,1,1,1,11,12,135,space,3.6149586000000227,None,0,1,1.7460418999999092,None,space,8.065448700000047,None,0,0,0,1,,,,,12,3,99,4,248.5301839,,,,,,,,,,,,,,,,,,,,,248.51496469999995,248.5301839,249.0138278999999,249.01798739999992,249.02985439999998,250.78104159999998,,,,,250.78123859999994,250.7964839,250.99665579999998,250.9800419999999,249.02985439999998,,,,,,,,0,1,1.7460418999999092,None,,,,,,,,828,25,M,R,2026-02-23_11h09.11.854,VisualSearch_2526_3,,2025.2.4,2026-02-23 11h09.12.397508 +0100,
vertical.xlsx,The target is tilted.,135,100,4,12,0,0,0,0,0,0,0,0,0,0,0,0,1,1,1,135,space,3.6149586000000227,None,0,1,0.5893287999999757,None,space,8.065448700000047,None,0,0,0,1,,,,,12,4,100,7,250.99665579999998,,,,,,,,,,,,,,,,,,,,,250.98050019999994,250.99665579999998,251.48050089999992,251.48497199999997,251.5030382,252.0964525999999,,,,,252.09652129999995,252.11247319999995,252.31248729999993,252.29605589999994,251.5030382,,,,,,,,0,1,0.5893287999999757,None,,,,,,,,828,25,M,R,2026-02-23_11h09.11.854,VisualSearch_2526_3,,2025.2.4,2026-02-23 11h09.12.397508 +0100,
vertical.xlsx,The target is tilted.,135,101,5,12,1,1,1,1,1,1,1,1,1,1,1,1,0,11,12,135,space,3.6149586000000227,None,1,1,1.0516665000000103,None,space,8.065448700000047,None,0,0,0,1,,,,,12,5,101,0,252.31248729999993,,,,,,,,,,,,,,,,,,,,,252.29633909999995,252.31248729999993,252.79595169999993,252.79710439999997,252.8124171999999,253.88044459999992,,,,,253.88064379999992,253.89561219999996,254.0959780999999,254.0802327,252.8124171999999,,,,,,,,1,1,1.0516665000000103,None,,,,,,,,828,25,M,R,2026-02-23_11h09.11.854,VisualSearch_2526_3,,2025.2.4,2026-02-23 11h09.12.397508 +0100,
vertical.xlsx,The target is tilted.,135,102,6,12,0,1,1,1,0,0,0,0,0,0,0,0,1,3,4,135,space,3.6149586000000227,None,0,1,0.8095910000000686,None,space,8.065448700000047,None,0,0,0,1,,,,,12,6,102,6,254.0959780999999,,,,,,,,,,,,,,,,,,,,,254.08108259999995,254.0959780999999,254.5800008,254.5849912,254.5954438,255.41289599999993,,,,,255.4129643,255.4289541999999,255.62894659999995,255.6122648999999,254.5954438,,,,,,,,0,1,0.8095910000000686,None,,,,,,,,828,25,M,R,2026-02-23_11h09.11.854,VisualSearch_2526_3,,2025.2.4,2026-02-23 11h09.12.397508 +0100,
vertical.xlsx,The target is tilted.,135,103,7,12,1,1,1,1,1,1,1,1,0,0,0,0,0,7,8,135,space,3.6149586000000227,None,1,1,0.856256099999996,None,space,8.065448700000047,None,0,0,0,1,,,,,12,7,103,1,255.62894659999995,,,,,,,,,,,,,,,,,,,,,255.6124731,255.62894659999995,256.11259629999995,256.1139652999999,256.1288063999999,256.99572049999995,,,,,256.9957777999999,257.01190529999997,257.21196269999996,257.1951391,256.1288063999999,,,,,,,,1,1,0.856256099999996,None,,,,,,,,828,25,M,R,2026-02-23_11h09.11.854,VisualSearch_2526_3,,2025.2.4,2026-02-23 11h09.12.397508 +0100,
vertical.xlsx,The target is tilted.,135,104,0,13,1,1,1,1,1,1,1,1,1,1,1,1,0,11,12,135,space,3.6149586000000227,None,1,1,1.7228896000000304,None,space,8.065448700000047,None,0,0,0,1,,,,,13,0,104,0,257.21196269999996,,,,,,,,,,,,,,,,,,,,,257.1953332999999,257.21196269999996,257.6954038,257.69684859999995,257.7121817,259.4453831999999,,,,,259.44544329999997,259.46157559999995,259.6612624999999,259.64481579999995,257.7121817,,,,,,,,1,1,1.7228896000000304,None,,,,,,,,828,25,M,R,2026-02-23_11h09.11.854,VisualSearch_2526_3,,2025.2.4,2026-02-23 11h09.12.397508 +0100,
vertical.xlsx,The target is tilted.,135,105,1,13,0,1,1,1,1,1,1,1,1,1,1,1,1,11,12,135,space,3.6149586000000227,None,0,1,1.758248500000036,None,space,8.065448700000047,None,0,0,0,1,,,,,13,1,105,4,259.6612624999999,,,,,,,,,,,,,,,,,,,,,259.6450301,259.6612624999999,260.14527669999995,260.14680469999996,260.1616388,261.92838429999995,,,,,261.92843889999995,261.94474619999994,262.1443432,262.12792749999994,260.1616388,,,,,,,,0,1,1.758248500000036,None,,,,,,,,828,25,M,R,2026-02-23_11h09.11.854,VisualSearch_2526_3,,2025.2.4,2026-02-23 11h09.12.397508 +0100,
vertical.xlsx,The target is tilted.,135,106,2,13,1,1,1,1,0,0,0,0,0,0,0,0,0,3,4,135,space,3.6149586000000227,None,1,1,1.1303581000000804,None,space,8.065448700000047,None,0,0,0,1,,,,,13,2,106,2,262.1443432,,,,,,,,,,,,,,,,,,,,,262.12817929999994,262.1443432,262.6282177999999,262.62978269999996,262.6446676999999,263.7780002999999,,,,,263.77811199999996,263.79447389999996,263.99440089999996,263.97813699999995,262.6446676999999,,,,,,,,1,1,1.1303581000000804,None,,,,,,,,828,25,M,R,2026-02-23_11h09.11.854,VisualSearch_2526_3,,2025.2.4,2026-02-23 11h09.12.397508 +0100,
vertical.xlsx,The target is tilted.,135,107,3,13,0,1,1,1,0,0,0,0,0,0,0,0,1,3,4,135,space,3.6149586000000227,None,0,1,0.9047985999999355,None,space,8.065448700000047,None,0,0,0,1,,,,,13,3,107,6,263.99440089999996,,,,,,,,,,,,,,,,,,,,,263.97840899999994,263.99440089999996,264.47803969999995,264.48234619999994,264.4980102999999,265.4118345999999,,,,,265.4123979,265.42738399999996,265.6276822,265.6109964,264.4980102999999,,,,,,,,0,1,0.9047985999999355,None,,,,,,,,828,25,M,R,2026-02-23_11h09.11.854,VisualSearch_2526_3,,2025.2.4,2026-02-23 11h09.12.397508 +0100,
vertical.xlsx,The target is tilted.,135,108,4,13,0,0,0,0,0,0,0,0,0,0,0,0,1,1,1,135,space,3.6149586000000227,None,0,1,0.9328523000000359,None,space,8.065448700000047,None,0,0,0,1,,,,,13,4,108,7,265.6276822,,,,,,,,,,,,,,,,,,,,,265.61142169999994,265.6276822,266.11086909999995,266.1135177,266.1269741,267.06060949999994,,,,,267.0606955999999,267.07670339999993,267.2767202,267.2603375,266.1269741,,,,,,,,0,1,0.9328523000000359,None,,,,,,,,828,25,M,R,2026-02-23_11h09.11.854,VisualSearch_2526_3,,2025.2.4,2026-02-23 11h09.12.397508 +0100,
vertical.xlsx,The target is tilted.,135,109,5,13,1,1,1,1,1,1,1,1,0,0,0,0,0,7,8,135,space,3.6149586000000227,None,1,1,0.9427196000000322,None,space,8.065448700000047,None,0,0,0,1,,,,,13,5,109,1,267.2767202,,,,,,,,,,,,,,,,,,,,,267.26074059999996,267.2767202,267.7600587999999,267.7611288999999,267.7772279999999,268.7276031,,,,,268.72770689999993,268.7433013,268.9434713999999,268.9271140999999,267.7772279999999,,,,,,,,1,1,0.9427196000000322,None,,,,,,,,828,25,M,R,2026-02-23_11h09.11.854,VisualSearch_2526_3,,2025.2.4,2026-02-23 11h09.12.397508 +0100,
vertical.xlsx,The target is tilted.,135,110,6,13,0,1,1,1,1,1,1,1,0,0,0,0,1,7,8,135,space,3.6149586000000227,None,0,1,1.7616775000000189,None,space,8.065448700000047,None,0,0,0,1,,,,,13,6,110,5,268.9434713999999,,,,,,,,,,,,,,,,,,,,,268.9274145999999,268.9434713999999,269.4270027,269.4286179999999,269.4436366,271.2100425,,,,,271.2101194999999,271.2262144,271.4265852,271.41008609999994,269.4436366,,,,,,,,0,1,1.7616775000000189,None,,,,,,,,828,25,M,R,2026-02-23_11h09.11.854,VisualSearch_2526_3,,2025.2.4,2026-02-23 11h09.12.397508 +0100,
vertical.xlsx,The target is tilted.,135,111,7,13,1,0,0,0,0,0,0,0,0,0,0,0,0,0,1,135,space,3.6149586000000227,None,1,1,0.6370134000000007,None,space,8.065448700000047,None,0,0,0,1,,,,,13,7,111,3,271.4265852,,,,,,,,,,,,,,,,,,,,,271.4104354,271.4265852,271.9097762,271.9116555999999,271.9267345999999,272.576557,,,,,272.5766245,272.59263899999996,272.79300939999996,272.7761041,271.9267345999999,,,,,,,,1,1,0.6370134000000007,None,,,,,,,,828,25,M,R,2026-02-23_11h09.11.854,VisualSearch_2526_3,,2025.2.4,2026-02-23 11h09.12.397508 +0100,
vertical.xlsx,The target is tilted.,135,112,0,14,0,1,1,1,0,0,0,0,0,0,0,0,1,3,4,135,space,3.6149586000000227,None,0,1,1.1460982000000968,None,space,8.065448700000047,None,0,0,0,1,,,,,14,0,112,6,272.79300939999996,,,,,,,,,,,,,,,,,,,,,272.77632389999997,272.79300939999996,273.2762710999999,273.2780798,273.2926549,274.443171,,,,,274.4432569999999,274.45932159999995,274.65936539999996,274.64282519999995,273.2926549,,,,,,,,0,1,1.1460982000000968,None,,,,,,,,828,25,M,R,2026-02-23_11h09.11.854,VisualSearch_2526_3,,2025.2.4,2026-02-23 11h09.12.397508 +0100,
vertical.xlsx,The target is tilted.,135,113,1,14,1,1,1,1,1,1,1,1,1,1,1,1,0,11,12,135,space,3.6149586000000227,None,1,1,0.8518088999999236,None,space,8.065448700000047,None,0,0,0,1,,,,,14,1,113,0,274.65936539999996,,,,,,,,,,,,,,,,,,,,,274.64305349999995,274.65936539999996,275.1431415999999,275.14668389999997,275.1603364,276.02642589999994,,,,,276.02651219999996,276.0423307,276.24233159999994,276.2261929,275.1603364,,,,,,,,1,1,0.8518088999999236,None,,,,,,,,828,25,M,R,2026-02-23_11h09.11.854,VisualSearch_2526_3,,2025.2.4,2026-02-23 11h09.12.397508 +0100,
vertical.xlsx,The target is tilted.,135,114,2,14,0,1,1,1,1,1,1,1,1,1,1,1,1,11,12,135,space,3.6149586000000227,None,0,1,1.2376357000000553,None,space,8.065448700000047,None,0,0,0,1,,,,,14,2,114,4,276.24233159999994,,,,,,,,,,,,,,,,,,,,,276.22642039999994,276.24233159999994,276.72597599999995,276.7283678,276.7420060999999,277.9923233999999,,,,,277.99237759999994,278.00826429999995,278.2082881,278.1918801999999,276.7420060999999,,,,,,,,0,1,1.2376357000000553,None,,,,,,,,828,25,M,R,2026-02-23_11h09.11.854,VisualSearch_2526_3,,2025.2.4,2026-02-23 11h09.12.397508 +0100,
vertical.xlsx,The target is tilted.,135,115,3,14,1,1,1,1,1,1,1,1,0,0,0,0,0,7,8,135,space,3.6149586000000227,None,1,1,0.7725953000000345,None,space,8.065448700000047,None,0,0,0,1,,,,,14,3,115,1,278.2082881,,,,,,,,,,,,,,,,,,,,,278.1922843,278.2082881,278.6916209,278.69295149999994,278.70836469999995,279.492257,,,,,279.4923884,279.5082281,279.70837989999995,279.6919277999999,278.70836469999995,,,,,,,,1,1,0.7725953000000345,None,,,,,,,,828,25,M,R,2026-02-23_11h09.11.854,VisualSearch_2526_3,,2025.2.4,2026-02-23 11h09.12.397508 +0100,
vertical.xlsx,The target is tilted.,135,116,4,14,1,0,0,0,0,0,0,0,0,0,0,0,0,0,1,135,space,3.6149586000000227,None,1,1,0.6793479000000389,None,space,8.065448700000047,None,0,0,0,1,,,,,14,4,116,3,279.70837989999995,,,,,,,,,,,,,,,,,,,,,279.6922149999999,279.70837989999995,280.1914972999999,280.1938478999999,280.2079597999999,280.89198980000003,,,,,280.8921065999999,280.9080313999999,281.10792720000006,281.09150739999984,280.2079597999999,,,,,,,,1,1,0.6793479000000389,None,,,,,,,,828,25,M,R,2026-02-23_11h09.11.854,VisualSearch_2526_3,,2025.2.4,2026-02-23 11h09.12.397508 +0100,
vertical.xlsx,The target is tilted.,135,117,5,14,1,1,1,1,0,0,0,0,0,0,0,0,0,3,4,135,space,3.6149586000000227,None,1,1,0.6338036000001921,None,space,8.065448700000047,None,0,0,0,1,,,,,14,5,117,2,281.10792720000006,,,,,,,,,,,,,,,,,,,,,281.0918611999999,281.10792720000006,281.5922766,281.60020559999987,281.6159469999999,282.2580967,,,,,282.25815279999995,282.27414310000006,282.47407169999985,282.4581030999999,,,,,,,,,1,1,0.6338036000001921,None,,,,,,,,828,25,M,R,2026-02-23_11h09.11.854,VisualSearch_2526_3,,2025.2.4,2026-02-23 11h09.12.397508 +0100,
vertical.xlsx,The target is tilted.,135,118,6,14,0,1,1,1,1,1,1,1,0,0,0,0,1,7,8,135,space,3.6149586000000227,None,0,1,0.8813436000000365,None,space,8.065448700000047,None,0,0,0,1,,,,,14,6,118,5,282.47407169999985,,,,,,,,,,,,,,,,,,,,,282.4588103,282.47407169999985,282.95751229999985,282.95891189999986,282.97408370000005,283.85838239999987,,,,,283.85848440000007,283.87430570000004,284.07428590000006,284.0579732,282.97408370000005,,,,,,,,0,1,0.8813436000000365,None,,,,,,,,828,25,M,R,2026-02-23_11h09.11.854,VisualSearch_2526_3,,2025.2.4,2026-02-23 11h09.12.397508 +0100,
vertical.xlsx,The target is tilted.,135,119,7,14,0,0,0,0,0,0,0,0,0,0,0,0,1,1,1,135,space,3.6149586000000227,None,0,1,0.587352699999883,None,space,8.065448700000047,None,0,0,0,1,,,,,14,7,119,7,284.07428590000006,,,,,,,,,,,,,,,,,,,,,284.05827579999993,284.07428590000006,284.55778640000005,284.56083309999997,284.57423759999995,285.1747589999999,,,,,285.1748234999999,285.19069780000007,285.39118959999985,285.37403559999996,284.57423759999995,,,,,,,,0,1,0.587352699999883,None,,,,,,,,828,25,M,R,2026-02-23_11h09.11.854,VisualSearch_2526_3,,2025.2.4,2026-02-23 11h09.12.397508 +0100,
vertical.xlsx,The target is tilted.,135,0,0,0,,,,,,,,,,,,,,,,,space,3.6149586000000227,None,,,,,space,8.065448700000047,None,0,0,0,1,,,,,,,,,,,,,,,,,,,,,,,,,,,,,,,,,,,,,,,,,,,,,,,,,,,,,,,,,,,,,,,828,25,M,R,2026-02-23_11h09.11.854,VisualSearch_2526_3,,2025.2.4,2026-02-23 11h09.12.397508 +0100,
tilted.xlsx,The target is tilted.,117,0,0,0,0,1,1,1,0,0,0,0,0,0,0,0,1,3,4,117,space,5.105869299999995,None,1,0,1.2623429000000215,None,,,,0,1,1,0,0,0,0,6,,,,,290.54223379999996,,,,,,,,,,,,,,,285.39118959999985,285.39118959999985,285.39118959999985,space,5.105869299999995,None,290.5385023,290.54223379999996,291.0237447999999,291.0283908,291.04617559999986,292.32295339999985,1,0,1.2623429000000215,None,292.32304250000004,292.33933549999995,,292.5237478,,,,,,,,,,,,,,,,,,,,828,25,M,R,2026-02-23_11h09.11.854,VisualSearch_2526_3,,2025.2.4,2026-02-23 11h09.12.397508 +0100,
tilted.xlsx,The target is tilted.,117,1,1,0,1,1,1,1,0,0,0,0,0,0,0,0,0,3,4,117,space,5.105869299999995,None,1,1,1.1118441999999504,None,,,,0,1,1,0,0,1,1,2,,,,,292.5397571,,,,,,,,,,,,,,,,,,,,,292.52463409999984,292.5397571,293.02280959999996,293.02473610000004,293.0392209999999,294.1572299999999,1,1,1.1118441999999504,None,294.1574423999999,294.1726728,294.37286000000006,294.3564112999999,293.0392209999999,,,,,,,,,,,,,,,,,,,828,25,M,R,2026-02-23_11h09.11.854,VisualSearch_2526_3,,2025.2.4,2026-02-23 11h09.12.397508 +0100,
tilted.xlsx,The target is tilted.,117,2,2,0,1,0,0,0,0,0,0,0,0,0,0,0,0,0,1,117,space,5.105869299999995,None,1,1,0.7108110000001489,None,,,,0,1,1,0,0,2,2,3,,,,,294.37286000000006,,,,,,,,,,,,,,,,,,,,,294.3569154999999,294.37286000000006,294.85613609999984,294.85868059999996,294.87266109999985,295.59043899999995,1,1,0.7108110000001489,None,295.5906073,295.6060446,295.80626629999995,295.78965749999986,294.87266109999985,,,,,,,,,,,,,,,,,,,828,25,M,R,2026-02-23_11h09.11.854,VisualSearch_2526_3,,2025.2.4,2026-02-23 11h09.12.397508 +0100,
tilted.xlsx,The target is tilted.,117,3,3,0,0,0,0,0,0,0,0,0,0,0,0,0,1,1,1,117,space,5.105869299999995,None,1,0,0.4577606000000287,None,,,,0,1,1,0,0,3,3,7,,,,,295.80626629999995,,,,,,,,,,,,,,,,,,,,,295.7902897,295.80626629999995,296.28995109999994,296.2964275999999,296.3115858,296.77331790000005,1,0,0.4577606000000287,None,296.7735025999999,296.7885467,296.9889672999999,296.97321899999986,296.3115858,,,,,,,,,,,,,,,,,,,828,25,M,R,2026-02-23_11h09.11.854,VisualSearch_2526_3,,2025.2.4,2026-02-23 11h09.12.397508 +0100,
tilted.xlsx,The target is tilted.,117,4,4,0,0,1,1,1,1,1,1,1,0,0,0,0,1,7,8,117,space,5.105869299999995,None,1,0,3.8744562999997925,None,,,,0,1,1,0,0,4,4,5,,,,,296.9889672999999,,,,,,,,,,,,,,,,,,,,,296.97400589999995,296.9889672999999,297.47278159999985,297.4762351999999,297.48846709999987,301.3724997999999,1,0,3.8744562999997925,None,301.37264689999995,301.3885506999999,301.5877606999999,301.57145750000007,297.48846709999987,,,,,,,,,,,,,,,,,,,828,25,M,R,2026-02-23_11h09.11.854,VisualSearch_2526_3,,2025.2.4,2026-02-23 11h09.12.397508 +0100,
tilted.xlsx,The target is tilted.,117,5,5,0,1,1,1,1,1,1,1,1,1,1,1,1,0,11,12,117,space,5.105869299999995,None,1,1,9.004272899999933,None,,,,0,1,1,0,0,5,5,0,,,,,301.5877606999999,,,,,,,,,,,,,,,,,,,,,301.5717979,301.5877606999999,302.07172219999995,302.07474820000004,302.08780650000006,311.1046917,1,1,9.004272899999933,None,311.1048809,311.1198269,311.32002869999985,311.30357259999994,302.08780650000006,,,,,,,,,,,,,,,,,,,828,25,M,R,2026-02-23_11h09.11.854,VisualSearch_2526_3,,2025.2.4,2026-02-23 11h09.12.397508 +0100,
tilted.xlsx,The target is tilted.,117,6,6,0,1,1,1,1,1,1,1,1,0,0,0,0,0,7,8,117,space,5.105869299999995,None,1,1,2.7559486999998626,None,,,,0,1,1,0,0,6,6,1,,,,,311.32002869999985,,,,,,,,,,,,,,,,,,,,,311.30400470000006,311.32002869999985,311.80362460000003,311.80801869999993,311.82454889999997,314.58597629999997,1,1,2.7559486999998626,None,314.58608659999993,314.6021110999999,,314.7863954999999,311.82454889999997,,,,,,,,,,,,,,,,,,,828,25,M,R,2026-02-23_11h09.11.854,VisualSearch_2526_3,,2025.2.4,2026-02-23 11h09.12.397508 +0100,
tilted.xlsx,The target is tilted.,117,7,7,0,0,1,1,1,1,1,1,1,1,1,1,1,1,11,12,117,space,5.105869299999995,None,1,0,2.076296599999978,None,,,,0,1,1,0,0,7,7,4,,,,,314.8025858,,,,,,,,,,,,,,,,,,,,,314.78709979999996,314.8025858,315.28602050000006,315.2871693999999,315.30220499999984,317.385844,1,0,2.076296599999978,None,317.3859136,317.40185280000003,317.60171449999996,317.5854395,315.30220499999984,,,,,,,,,,,,,,,,,,,828,25,M,R,2026-02-23_11h09.11.854,VisualSearch_2526_3,,2025.2.4,2026-02-23 11h09.12.397508 +0100,
tilted.xlsx,The target is tilted.,117,0,0,0,0,1,1,1,1,1,1,1,0,0,0,0,1,7,8,117,space,5.105869299999995,None,1,0,1.9501384000000144,None,space,69.00111100000004,None,0,1,1,0,,,,,0,0,0,5,386.64083859999994,,,,,,,,,,,,,,,,,,,,,386.63684350000005,386.64083859999994,387.1236132,387.1249704999999,387.1402540999999,389.10709280000003,,,,,389.10715489999995,389.12325440000006,389.3231354999999,389.30690760000005,,317.58724659999996,317.60171449999996,317.60171449999996,386.6089183,space,69.00111100000004,None,1,0,1.9501384000000144,None,,,,,,,,828,25,M,R,2026-02-23_11h09.11.854,VisualSearch_2526_3,,2025.2.4,2026-02-23 11h09.12.397508 +0100,
tilted.xlsx,The target is tilted.,117,1,1,0,0,1,1,1,0,0,0,0,0,0,0,0,1,3,4,117,space,5.105869299999995,None,0,1,2.3135804000000917,None,space,69.00111100000004,None,0,1,1,0,,,,,0,1,1,6,389.3231354999999,,,,,,,,,,,,,,,,,,,,,389.3072575,389.3231354999999,389.80682719999993,389.80831839999985,389.8231173999999,392.1398301999999,,,,,392.13992930000006,392.15616179999995,,392.34047509999994,389.8231173999999,,,,,,,,0,1,2.3135804000000917,None,,,,,,,,828,25,M,R,2026-02-23_11h09.11.854,VisualSearch_2526_3,,2025.2.4,2026-02-23 11h09.12.397508 +0100,
tilted.xlsx,The target is tilted.,117,2,2,0,1,1,1,1,1,1,1,1,0,0,0,0,0,7,8,117,space,5.105869299999995,None,1,1,1.5921588999999585,None,space,69.00111100000004,None,0,1,1,0,,,,,0,2,2,1,392.3565877,,,,,,,,,,,,,,,,,,,,,392.3414366999999,392.3565877,392.83943469999997,392.8405941,392.8562054999999,394.45687179999993,,,,,394.4569344999999,394.47300959999995,394.6727663999999,394.65612499999986,392.8562054999999,,,,,,,,1,1,1.5921588999999585,None,,,,,,,,828,25,M,R,2026-02-23_11h09.11.854,VisualSearch_2526_3,,2025.2.4,2026-02-23 11h09.12.397508 +0100,
tilted.xlsx,The target is tilted.,117,3,3,0,1,0,0,0,0,0,0,0,0,0,0,0,0,0,1,117,space,5.105869299999995,None,1,1,1.1131871000000046,None,space,69.00111100000004,None,0,1,1,0,,,,,0,3,3,3,394.6727663999999,,,,,,,,,,,,,,,,,,,,,394.65634940000007,394.6727663999999,395.1559793,395.15709849999996,395.1726216999999,396.28907049999987,,,,,396.28912479999997,396.3055195999999,396.5052391999999,396.48896290000005,395.1726216999999,,,,,,,,1,1,1.1131871000000046,None,,,,,,,,828,25,M,R,2026-02-23_11h09.11.854,VisualSearch_2526_3,,2025.2.4,2026-02-23 11h09.12.397508 +0100,
tilted.xlsx,The target is tilted.,117,4,4,0,0,0,0,0,0,0,0,0,0,0,0,0,1,1,1,117,space,5.105869299999995,None,0,1,2.0249780000001465,None,space,69.00111100000004,None,0,1,1,0,,,,,0,4,4,7,396.5052391999999,,,,,,,,,,,,,,,,,,,,,396.48930540000003,396.5052391999999,396.9887250999999,396.99002959999996,397.0052399,399.03866099999993,,,,,399.03872349999995,399.05493479999984,399.2551754,399.2386525999999,397.0052399,,,,,,,,0,1,2.0249780000001465,None,,,,,,,,828,25,M,R,2026-02-23_11h09.11.854,VisualSearch_2526_3,,2025.2.4,2026-02-23 11h09.12.397508 +0100,
tilted.xlsx,The target is tilted.,117,5,5,0,1,1,1,1,1,1,1,1,1,1,1,1,0,11,12,117,space,5.105869299999995,None,1,1,1.0196605000001,None,space,69.00111100000004,None,0,1,1,0,,,,,0,5,5,0,399.2551754,,,,,,,,,,,,,,,,,,,,,399.2390746,399.2551754,399.73832649999997,399.7394929999999,399.7548814999999,400.7888589999999,,,,,400.7889835,400.8052770999999,401.00516159999995,400.9887279999999,399.7548814999999,,,,,,,,1,1,1.0196605000001,None,,,,,,,,828,25,M,R,2026-02-23_11h09.11.854,VisualSearch_2526_3,,2025.2.4,2026-02-23 11h09.12.397508 +0100,
tilted.xlsx,The target is tilted.,117,6,6,0,1,1,1,1,0,0,0,0,0,0,0,0,0,3,4,117,space,5.105869299999995,None,1,1,1.245773999999983,None,space,69.00111100000004,None,0,1,1,0,,,,,0,6,6,2,401.00516159999995,,,,,,,,,,,,,,,,,,,,,400.9889546999999,401.00516159999995,401.48907240000005,401.49363489999985,401.50865179999994,402.77173489999984,,,,,402.77179620000004,402.7880079999999,402.98767269999996,402.97162939999987,401.50865179999994,,,,,,,,1,1,1.245773999999983,None,,,,,,,,828,25,M,R,2026-02-23_11h09.11.854,VisualSearch_2526_3,,2025.2.4,2026-02-23 11h09.12.397508 +0100,
tilted.xlsx,The target is tilted.,117,7,7,0,0,1,1,1,1,1,1,1,1,1,1,1,1,11,12,117,space,5.105869299999995,None,1,0,3.369591799999853,None,space,69.00111100000004,None,0,1,1,0,,,,,0,7,7,4,402.98767269999996,,,,,,,,,,,,,,,,,,,,,402.97216330000003,402.98767269999996,403.4711762999999,403.4725471999999,403.48752379999985,406.87146369999994,,,,,406.87161779999985,406.8870997,407.08773600000006,407.07141609999996,403.48752379999985,,,,,,,,1,0,3.369591799999853,None,,,,,,,,828,25,M,R,2026-02-23_11h09.11.854,VisualSearch_2526_3,,2025.2.4,2026-02-23 11h09.12.397508 +0100,
tilted.xlsx,The target is tilted.,117,8,0,1,0,0,0,0,0,0,0,0,0,0,0,0,1,1,1,117,space,5.105869299999995,None,0,1,2.388314799999989,None,space,69.00111100000004,None,0,1,1,0,,,,,1,0,8,7,407.08773600000006,,,,,,,,,,,,,,,,,,,,,407.07215659999986,407.08773600000006,407.57119279999995,407.57588610000005,407.59367110000005,409.98733189999996,,,,,409.98741129999996,410.0035001,410.20367479999993,410.1872302999999,407.59367110000005,,,,,,,,0,1,2.388314799999989,None,,,,,,,,828,25,M,R,2026-02-23_11h09.11.854,VisualSearch_2526_3,,2025.2.4,2026-02-23 11h09.12.397508 +0100,
tilted.xlsx,The target is tilted.,117,9,1,1,0,1,1,1,1,1,1,1,1,1,1,1,1,11,12,117,space,5.105869299999995,None,1,0,1.311564800000042,None,space,69.00111100000004,None,0,1,1,0,,,,,1,1,9,4,410.20367479999993,,,,,,,,,,,,,,,,,,,,,410.1875486,410.20367479999993,410.6869103,410.6888253999999,410.7036104,412.0200025999999,,,,,412.02009970000006,412.0360115,412.2362359,412.2195461,410.7036104,,,,,,,,1,0,1.311564800000042,None,,,,,,,,828,25,M,R,2026-02-23_11h09.11.854,VisualSearch_2526_3,,2025.2.4,2026-02-23 11h09.12.397508 +0100,
tilted.xlsx,The target is tilted.,117,10,2,1,1,1,1,1,0,0,0,0,0,0,0,0,0,3,4,117,space,5.105869299999995,None,0,0,1.7682717000000139,None,space,69.00111100000004,None,0,1,1,0,,,,,1,2,10,2,412.2362359,,,,,,,,,,,,,,,,,,,,,412.2199196999999,412.2362359,412.71958719999986,412.7206958999999,412.73607830000003,414.51997990000007,,,,,414.52009899999996,414.5359089,414.7361460999999,414.7197533,412.73607830000003,,,,,,,,0,0,1.7682717000000139,None,,,,,,,,828,25,M,R,2026-02-23_11h09.11.854,VisualSearch_2526_3,,2025.2.4,2026-02-23 11h09.12.397508 +0100,
tilted.xlsx,The target is tilted.,117,11,3,1,0,1,1,1,0,0,0,0,0,0,0,0,1,3,4,117,space,5.105869299999995,None,0,1,1.3483860999999706,None,space,69.00111100000004,None,0,1,1,0,,,,,1,3,11,6,414.7361460999999,,,,,,,,,,,,,,,,,,,,,414.72021000000007,414.7361460999999,415.22009879999985,415.2245446999999,415.24096010000005,416.60304699999995,,,,,416.60313469999994,416.61922859999993,416.81906360000005,416.80266229999995,415.24096010000005,,,,,,,,0,1,1.3483860999999706,None,,,,,,,,828,25,M,R,2026-02-23_11h09.11.854,VisualSearch_2526_3,,2025.2.4,2026-02-23 11h09.12.397508 +0100,
tilted.xlsx,The target is tilted.,117,12,4,1,0,1,1,1,1,1,1,1,0,0,0,0,1,7,8,117,space,5.105869299999995,None,1,0,0.9268958000000111,None,space,69.00111100000004,None,0,1,1,0,,,,,1,4,12,5,416.81906360000005,,,,,,,,,,,,,,,,,,,,,416.80298849999997,416.81906360000005,417.30238109999993,417.30377020000003,417.31900759999996,418.25274009999987,,,,,418.25281259999986,418.2686829999999,418.46868889999985,418.45225519999997,417.31900759999996,,,,,,,,1,0,0.9268958000000111,None,,,,,,,,828,25,M,R,2026-02-23_11h09.11.854,VisualSearch_2526_3,,2025.2.4,2026-02-23 11h09.12.397508 +0100,
tilted.xlsx,The target is tilted.,117,13,5,1,1,0,0,0,0,0,0,0,0,0,0,0,0,0,1,117,space,5.105869299999995,None,1,1,0.7449561999999332,None,space,69.00111100000004,None,0,1,1,0,,,,,1,5,13,3,418.46868889999985,,,,,,,,,,,,,,,,,,,,,418.4525152,418.46868889999985,418.95219229999987,418.9536403999999,418.96867140000006,419.7199314999999,,,,,419.72012259999985,419.7357418999999,419.9353669999999,419.91871230000004,418.96867140000006,,,,,,,,1,1,0.7449561999999332,None,,,,,,,,828,25,M,R,2026-02-23_11h09.11.854,VisualSearch_2526_3,,2025.2.4,2026-02-23 11h09.12.397508 +0100,
tilted.xlsx,The target is tilted.,117,14,6,1,1,1,1,1,1,1,1,1,1,1,1,1,0,11,12,117,space,5.105869299999995,None,1,1,1.5851212000000032,None,space,69.00111100000004,None,0,1,1,0,,,,,1,6,14,0,419.9353669999999,,,,,,,,,,,,,,,,,,,,,419.91901389999987,419.9353669999999,420.41897989999995,420.42338370000004,420.43949280000004,422.03573990000007,,,,,422.03587519999985,422.0512983,422.2515104999999,422.23519810000005,420.43949280000004,,,,,,,,1,1,1.5851212000000032,None,,,,,,,,828,25,M,R,2026-02-23_11h09.11.854,VisualSearch_2526_3,,2025.2.4,2026-02-23 11h09.12.397508 +0100,
tilted.xlsx,The target is tilted.,117,15,7,1,1,1,1,1,1,1,1,1,0,0,0,0,0,7,8,117,space,5.105869299999995,None,1,1,1.9755585999998857,None,space,69.00111100000004,None,0,1,1,0,,,,,1,7,15,1,422.2515104999999,,,,,,,,,,,,,,,,,,,,,422.2355160999999,422.2515104999999,422.7350803999999,422.73730650000005,422.75157780000006,424.7345411,,,,,424.7346282,424.7507861,424.9506694999999,424.9342218999999,422.75157780000006,,,,,,,,1,1,1.9755585999998857,None,,,,,,,,828,25,M,R,2026-02-23_11h09.11.854,VisualSearch_2526_3,,2025.2.4,2026-02-23 11h09.12.397508 +0100,
tilted.xlsx,The target is tilted.,117,16,0,2,1,0,0,0,0,0,0,0,0,0,0,0,0,0,1,117,space,5.105869299999995,None,1,1,0.7551005999998779,None,space,69.00111100000004,None,0,1,1,0,,,,,2,0,16,3,424.9506694999999,,,,,,,,,,,,,,,,,,,,,424.9344508999999,424.9506694999999,425.4341997999999,425.4354218,425.45047369999986,426.21755429999996,,,,,426.2176536999999,426.23390489999986,426.4337145999999,426.4172539,425.45047369999986,,,,,,,,1,1,0.7551005999998779,None,,,,,,,,828,25,M,R,2026-02-23_11h09.11.854,VisualSearch_2526_3,,2025.2.4,2026-02-23 11h09.12.397508 +0100,
tilted.xlsx,The target is tilted.,117,17,1,2,1,1,1,1,1,1,1,1,1,1,1,1,0,11,12,117,space,5.105869299999995,None,1,1,2.276603199999954,None,space,69.00111100000004,None,0,1,1,0,,,,,2,1,17,0,426.4337145999999,,,,,,,,,,,,,,,,,,,,,426.4175217999999,426.4337145999999,426.91742609999994,426.9186948999999,426.93404099999987,429.2168654999999,,,,,429.2169198,429.23319849999996,,429.41728950000004,426.93404099999987,,,,,,,,1,1,2.276603199999954,None,,,,,,,,828,25,M,R,2026-02-23_11h09.11.854,VisualSearch_2526_3,,2025.2.4,2026-02-23 11h09.12.397508 +0100,
tilted.xlsx,The target is tilted.,117,18,2,2,1,1,1,1,1,1,1,1,0,0,0,0,0,7,8,117,space,5.105869299999995,None,1,1,1.1599433000001227,None,space,69.00111100000004,None,0,1,1,0,,,,,2,2,18,1,429.4333989999999,,,,,,,,,,,,,,,,,,,,,429.4180527,429.4333989999999,429.9166919999999,429.9179117,429.9334319999999,431.1011393,,,,,431.10133239999993,431.1163049999999,431.31665039999996,431.30065479999996,429.9334319999999,,,,,,,,1,1,1.1599433000001227,None,,,,,,,,828,25,M,R,2026-02-23_11h09.11.854,VisualSearch_2526_3,,2025.2.4,2026-02-23 11h09.12.397508 +0100,
tilted.xlsx,The target is tilted.,117,19,3,2,0,1,1,1,0,0,0,0,0,0,0,0,1,3,4,117,space,5.105869299999995,None,0,1,1.4250872999998592,None,space,69.00111100000004,None,0,1,1,0,,,,,2,3,19,6,431.31665039999996,,,,,,,,,,,,,,,,,,,,,431.3013766999999,431.31665039999996,431.80032900000003,431.8046578,431.82077790000005,433.2499982999999,,,,,433.2500868999999,433.26618700000006,433.4660132,433.4497147999999,431.82077790000005,,,,,,,,0,1,1.4250872999998592,None,,,,,,,,828,25,M,R,2026-02-23_11h09.11.854,VisualSearch_2526_3,,2025.2.4,2026-02-23 11h09.12.397508 +0100,
tilted.xlsx,The target is tilted.,117,20,4,2,0,1,1,1,1,1,1,1,1,1,1,1,1,11,12,117,space,5.105869299999995,None,1,0,1.428806399999985,None,space,69.00111100000004,None,0,1,1,0,,,,,2,4,20,4,433.4660132,,,,,,,,,,,,,,,,,,,,,433.44994600000007,433.4660132,433.94941059999985,433.95056009999996,433.9665243999999,435.39937129999987,,,,,435.399458,435.41570609999997,435.6156115,435.59931989999984,433.9665243999999,,,,,,,,1,0,1.428806399999985,None,,,,,,,,828,25,M,R,2026-02-23_11h09.11.854,VisualSearch_2526_3,,2025.2.4,2026-02-23 11h09.12.397508 +0100,
tilted.xlsx,The target is tilted.,117,21,5,2,0,0,0,0,0,0,0,0,0,0,0,0,1,1,1,117,space,5.105869299999995,None,0,1,2.050098799999887,None,space,69.00111100000004,None,0,1,1,0,,,,,2,5,21,7,435.6156115,,,,,,,,,,,,,,,,,,,,,435.5997650999999,435.6156115,436.0990573,436.10027230000003,436.11556170000006,438.18217289999996,,,,,438.1822306,438.1987499999999,,438.3823684,436.11556170000006,,,,,,,,0,1,2.050098799999887,None,,,,,,,,828,25,M,R,2026-02-23_11h09.11.854,VisualSearch_2526_3,,2025.2.4,2026-02-23 11h09.12.397508 +0100,
tilted.xlsx,The target is tilted.,117,22,6,2,1,1,1,1,0,0,0,0,0,0,0,0,0,3,4,117,space,5.105869299999995,None,1,1,1.2360063000000991,None,space,69.00111100000004,None,0,1,1,0,,,,,2,6,22,2,438.39865739999993,,,,,,,,,,,,,,,,,,,,,438.3826063,438.39865739999993,438.8823160999999,438.88442840000005,438.89862059999984,440.14896799999985,,,,,440.1490215,440.1647735,440.36498189999986,440.34828230000005,438.89862059999984,,,,,,,,1,1,1.2360063000000991,None,,,,,,,,828,25,M,R,2026-02-23_11h09.11.854,VisualSearch_2526_3,,2025.2.4,2026-02-23 11h09.12.397508 +0100,
tilted.xlsx,The target is tilted.,117,23,7,2,0,1,1,1,1,1,1,1,0,0,0,0,1,7,8,117,space,5.105869299999995,None,1,0,0.8394355999998879,None,space,69.00111100000004,None,0,1,1,0,,,,,2,7,23,5,440.36498189999986,,,,,,,,,,,,,,,,,,,,,440.3485649999999,440.36498189999986,440.8482419999999,440.8496122,440.86466259999986,441.7154927999999,,,,,441.7156048999999,441.7317093999999,441.93159,441.91524590000006,440.86466259999986,,,,,,,,1,0,0.8394355999998879,None,,,,,,,,828,25,M,R,2026-02-23_11h09.11.854,VisualSearch_2526_3,,2025.2.4,2026-02-23 11h09.12.397508 +0100,
tilted.xlsx,The target is tilted.,117,24,0,3,0,1,1,1,1,1,1,1,1,1,1,1,1,11,12,117,space,5.105869299999995,None,1,0,1.292504400000098,None,space,69.00111100000004,None,0,1,1,0,,,,,3,0,24,4,441.93159,,,,,,,,,,,,,,,,,,,,,441.91548550000005,441.93159,442.4147486999999,442.4159659999999,442.4316103,443.73140639999986,,,,,443.73149239999987,443.74745529999984,,443.93173220000006,442.4316103,,,,,,,,1,0,1.292504400000098,None,,,,,,,,828,25,M,R,2026-02-23_11h09.11.854,VisualSearch_2526_3,,2025.2.4,2026-02-23 11h09.12.397508 +0100,
tilted.xlsx,The target is tilted.,117,25,1,3,1,1,1,1,1,1,1,1,0,0,0,0,0,7,8,117,space,5.105869299999995,None,1,1,1.145911500000011,None,space,69.00111100000004,None,0,1,1,0,,,,,3,1,25,1,443.9483239,,,,,,,,,,,,,,,,,,,,,443.93249430000003,443.9483239,444.4310302,444.43283669999994,444.4474297999999,445.59795999999994,,,,,445.5980289999999,445.6141286999999,445.81408939999994,445.79767260000006,444.4474297999999,,,,,,,,1,1,1.145911500000011,None,,,,,,,,828,25,M,R,2026-02-23_11h09.11.854,VisualSearch_2526_3,,2025.2.4,2026-02-23 11h09.12.397508 +0100,
tilted.xlsx,The target is tilted.,117,26,2,3,1,1,1,1,1,1,1,1,1,1,1,1,0,11,12,117,space,5.105869299999995,None,1,1,1.3944693999999345,None,space,69.00111100000004,None,0,1,1,0,,,,,3,2,26,0,445.81408939999994,,,,,,,,,,,,,,,,,,,,,445.79789849999986,445.81408939999994,446.2977812999999,446.29907349999996,446.31420949999995,447.7149343,,,,,447.71506809999994,447.7308715999999,447.93020650000005,447.9137488,446.31420949999995,,,,,,,,1,1,1.3944693999999345,None,,,,,,,,828,25,M,R,2026-02-23_11h09.11.854,VisualSearch_2526_3,,2025.2.4,2026-02-23 11h09.12.397508 +0100,
tilted.xlsx,The target is tilted.,117,27,3,3,0,1,1,1,0,0,0,0,0,0,0,0,1,3,4,117,space,5.105869299999995,None,0,1,1.1308849000001828,None,space,69.00111100000004,None,0,1,1,0,,,,,3,3,27,6,447.93020650000005,,,,,,,,,,,,,,,,,,,,,447.91398679999986,447.93020650000005,448.4146162999999,448.4189605999999,448.43424919999995,449.5809470999999,,,,,449.58102670000005,449.5972902,449.7970712,449.7804818999999,448.43424919999995,,,,,,,,0,1,1.1308849000001828,None,,,,,,,,828,25,M,R,2026-02-23_11h09.11.854,VisualSearch_2526_3,,2025.2.4,2026-02-23 11h09.12.397508 +0100,
tilted.xlsx,The target is tilted.,117,28,4,3,1,1,1,1,0,0,0,0,0,0,0,0,0,3,4,117,space,5.105869299999995,None,1,1,1.723854099999926,None,space,69.00111100000004,None,0,1,1,0,,,,,3,4,28,2,449.7970712,,,,,,,,,,,,,,,,,,,,,449.78074019999997,449.7970712,450.2801943999999,450.2819819,450.29652640000006,452.0302350999999,,,,,452.0302883999999,452.04647439999997,452.24680849999993,452.2297677,450.29652640000006,,,,,,,,1,1,1.723854099999926,None,,,,,,,,828,25,M,R,2026-02-23_11h09.11.854,VisualSearch_2526_3,,2025.2.4,2026-02-23 11h09.12.397508 +0100,
tilted.xlsx,The target is tilted.,117,29,5,3,0,0,0,0,0,0,0,0,0,0,0,0,1,1,1,117,space,5.105869299999995,None,1,0,0.6556935000000976,None,space,69.00111100000004,None,0,1,1,0,,,,,3,5,29,7,452.24680849999993,,,,,,,,,,,,,,,,,,,,,452.2299947999999,452.24680849999993,452.72998859999996,452.73132269999985,452.7466874999999,453.4133605999999,,,,,453.4134249,453.4293119,453.6296409999999,453.6133053,452.7466874999999,,,,,,,,1,0,0.6556935000000976,None,,,,,,,,828,25,M,R,2026-02-23_11h09.11.854,VisualSearch_2526_3,,2025.2.4,2026-02-23 11h09.12.397508 +0100,
tilted.xlsx,The target is tilted.,117,30,6,3,0,1,1,1,1,1,1,1,0,0,0,0,1,7,8,117,space,5.105869299999995,None,1,0,1.1559460999999374,None,space,69.00111100000004,None,0,1,1,0,,,,,3,6,30,5,453.6296409999999,,,,,,,,,,,,,,,,,,,,,453.61351249999996,453.6296409999999,454.1132016999999,454.11544820000006,454.12969499999997,455.2970646,,,,,455.2972386,455.3123901,455.51271229999986,455.4962953999999,454.12969499999997,,,,,,,,1,0,1.1559460999999374,None,,,,,,,,828,25,M,R,2026-02-23_11h09.11.854,VisualSearch_2526_3,,2025.2.4,2026-02-23 11h09.12.397508 +0100,
tilted.xlsx,The target is tilted.,117,31,7,3,1,0,0,0,0,0,0,0,0,0,0,0,0,0,1,117,space,5.105869299999995,None,1,1,0.8570070000000669,None,space,69.00111100000004,None,0,1,1,0,,,,,3,7,31,3,455.51271229999986,,,,,,,,,,,,,,,,,,,,,455.4969253999999,455.51271229999986,455.9955739999999,455.9967662999999,456.0121255,456.8791009999999,,,,,456.8791634999999,456.8952636,457.09537710000006,457.07897449999984,456.0121255,,,,,,,,1,1,0.8570070000000669,None,,,,,,,,828,25,M,R,2026-02-23_11h09.11.854,VisualSearch_2526_3,,2025.2.4,2026-02-23 11h09.12.397508 +0100,
tilted.xlsx,The target is tilted.,117,32,0,4,1,1,1,1,0,0,0,0,0,0,0,0,0,3,4,117,space,5.105869299999995,None,1,1,0.7498476999999184,None,space,69.00111100000004,None,0,1,1,0,,,,,4,0,32,2,457.09537710000006,,,,,,,,,,,,,,,,,,,,,457.0792989,457.09537710000006,457.5786855,457.5798979,457.5954948,458.3464874,,,,,458.34661429999994,458.3624719999999,458.56245239999987,458.54554959999984,457.5954948,,,,,,,,1,1,0.7498476999999184,None,,,,,,,,828,25,M,R,2026-02-23_11h09.11.854,VisualSearch_2526_3,,2025.2.4,2026-02-23 11h09.12.397508 +0100,
tilted.xlsx,The target is tilted.,117,33,1,4,1,0,0,0,0,0,0,0,0,0,0,0,0,0,1,117,space,5.105869299999995,None,1,1,0.8236936000000696,None,space,69.00111100000004,None,0,1,1,0,,,,,4,1,33,3,458.56245239999987,,,,,,,,,,,,,,,,,,,,,458.54601909999985,458.56245239999987,459.0459302999999,459.05031989999986,459.0643979,459.89573429999984,,,,,459.8958194999999,459.91214609999986,460.1117372,460.0954054,459.0643979,,,,,,,,1,1,0.8236936000000696,None,,,,,,,,828,25,M,R,2026-02-23_11h09.11.854,VisualSearch_2526_3,,2025.2.4,2026-02-23 11h09.12.397508 +0100,
tilted.xlsx,The target is tilted.,117,34,2,4,0,1,1,1,1,1,1,1,0,0,0,0,1,7,8,117,space,5.105869299999995,None,1,0,1.508375800000067,None,space,69.00111100000004,None,0,1,1,0,,,,,4,2,34,5,460.1117372,,,,,,,,,,,,,,,,,,,,,460.09560309999995,460.1117372,460.59519190000003,460.5975984999999,460.61210689999996,462.1282912999999,,,,,462.1283539,462.1444648999999,462.3444676999999,462.3280876,460.61210689999996,,,,,,,,1,0,1.508375800000067,None,,,,,,,,828,25,M,R,2026-02-23_11h09.11.854,VisualSearch_2526_3,,2025.2.4,2026-02-23 11h09.12.397508 +0100,
tilted.xlsx,The target is tilted.,117,35,3,4,0,1,1,1,0,0,0,0,0,0,0,0,1,3,4,117,space,5.105869299999995,None,0,1,1.300866699999915,None,space,69.00111100000004,None,0,1,1,0,,,,,4,3,35,6,462.3444676999999,,,,,,,,,,,,,,,,,,,,,462.32844569999986,462.3444676999999,462.82839120000006,462.82982219999997,462.84505939999997,464.1617126,,,,,464.1617792999999,464.17787310000006,464.37763630000006,464.3612110999999,,,,,,,,,0,1,1.300866699999915,None,,,,,,,,828,25,M,R,2026-02-23_11h09.11.854,VisualSearch_2526_3,,2025.2.4,2026-02-23 11h09.12.397508 +0100,
tilted.xlsx,The target is tilted.,117,36,4,4,1,1,1,1,1,1,1,1,1,1,1,1,0,11,12,117,space,5.105869299999995,None,1,1,2.020494000000099,None,space,69.00111100000004,None,0,1,1,0,,,,,4,4,36,0,464.37763630000006,,,,,,,,,,,,,,,,,,,,,464.3616438,464.37763630000006,464.86173729999985,464.8629058999999,464.87803559999986,466.9115410999999,,,,,466.9116783999999,466.9270547,467.12756780000007,467.1117814999999,464.87803559999986,,,,,,,,1,1,2.020494000000099,None,,,,,,,,828,25,M,R,2026-02-23_11h09.11.854,VisualSearch_2526_3,,2025.2.4,2026-02-23 11h09.12.397508 +0100,
tilted.xlsx,The target is tilted.,117,37,5,4,1,1,1,1,1,1,1,1,0,0,0,0,0,7,8,117,space,5.105869299999995,None,1,1,1.4376922000001287,None,space,69.00111100000004,None,0,1,1,0,,,,,4,5,37,1,467.12756780000007,,,,,,,,,,,,,,,,,,,,,467.1126086999999,467.12756780000007,467.6114621999999,467.61590850000005,467.63113609999994,469.07795840000006,,,,,469.0781811999999,469.093798,469.2933328999999,469.2769428999999,467.63113609999994,,,,,,,,1,1,1.4376922000001287,None,,,,,,,,828,25,M,R,2026-02-23_11h09.11.854,VisualSearch_2526_3,,2025.2.4,2026-02-23 11h09.12.397508 +0100,
