file_name,block_instructions,target_example,thisN,thisTrialN,thisRepN,target_presence,opacity_1,opacity_2,opacity_3,opacity_4,opacity_5,opacity_6,opacity_7,opacity_8,opacity_9,opacity_10,opacity_11,opacity_12,n_distract,n_items,target_ori,key_resp_4.keys,key_resp_4.rt,key_resp_4.duration,key_resp.keys,key_resp.corr,key_resp.rt,key_resp.duration,key_resp_5.keys,key_resp_5.rt,key_resp_5.duration,blocks.thisRepN,blocks.thisTrialN,blocks.thisN,blocks.thisIndex,practice_trials.thisRepN,practice_trials.thisTrialN,practice_trials.thisN,practice_trials.thisIndex,trials.thisRepN,trials.thisTrialN,trials.thisN,trials.thisIndex,thisRow.t,notes,Welcome.started,WelcomeText.started,key_resp_2.started,Welcome.stopped,key_resp_2.keys,key_resp_2.rt,key_resp_2.duration,InformedConsent.started,text_4.started,InformedConsent.stopped,key_resp_6.keys,key_resp_6.rt,key_resp_6.duration,key_resp_4.started,example_target.started,text_3.started,blocks.key_resp_4.keys,blocks.key_resp_4.rt,blocks.key_resp_4.duration,FixCross.started,fixCross.started,FixCross.stopped,Stimulus.started,key_resp.started,Stimulus.stopped,practice_trials.key_resp.keys,practice_trials.key_resp.corr,practice_trials.key_resp.rt,practice_trials.key_resp.duration,BlankScreen.started,text.started,text.stopped,BlankScreen.stopped,fixCross.stopped,ExperimentStart.started,text_2.started,key_resp_5.started,ExperimentStart.stopped,blocks.key_resp_5.keys,blocks.key_resp_5.rt,blocks.key_resp_5.duration,trials.key_resp.keys,trials.key_resp.corr,trials.key_resp.rt,trials.key_resp.duration,Thanks.started,ThankYou.started,key_resp_3.started,Thanks.stopped,key_resp_3.keys,key_resp_3.rt,key_resp_3.duration,participant,leeftijd,gender,links/rechtshandig,date,expName,expVersion,psychopyVersion,expStart,
,,,,,,,,,,,,,,,,,,,,,,,,,,,,,,,,,,,,,,,,,,,,,,0.023765500000081374,0.04075310000007448,0.04075310000007448,40.661235300000044,space,40.604773099999875,None,,,,,,,,,,,,,,,,,,,,,,,,,,,,,,,,,,,,,,,,,,,,,,829,25,V,R,2026-02-23_11h27.02.657,VisualSearch_2526_3,,2025.2.4,2026-02-23 11h27.02.903071 +0100,
,,,,,,,,,,,,,,,,,,,,,,,,,,,,,,,,,,,,,,,,,,,,,,,,,,,,,40.66141940000011,40.67012,64.71093050000013,y,24.048264800000197,None,,,,,,,,,,,,,,,,,,,,,,,,,,,,,,,,,,,,,,,,829,25,V,R,2026-02-23_11h27.02.657,VisualSearch_2526_3,,2025.2.4,2026-02-23 11h27.02.903071 +0100,
tilted.xlsx,The target is tilted.,117,0,0,0,0,1,1,1,1,1,1,1,0,0,0,0,1,7,8,117,space,9.212630900000022,None,1,0,2.262069399999973,None,,,,0,0,0,0,0,0,0,5,,,,,73.99346650000007,,,,,,,,,,,,,,,64.7563027000001,64.7563027000001,64.7563027000001,space,9.212630900000022,None,73.98814570000013,73.99346650000007,74.49162420000016,74.49683870000013,74.516705,76.79190300000005,1,0,2.262069399999973,None,76.7920987,76.80746360000012,77.0070505000001,76.9909877,,,,,,,,,,,,,,,,,,,,829,25,V,R,2026-02-23_11h27.02.657,VisualSearch_2526_3,,2025.2.4,2026-02-23 11h27.02.903071 +0100,
tilted.xlsx,The target is tilted.,117,1,1,0,1,1,1,1,1,1,1,1,1,1,1,1,0,11,12,117,space,9.212630900000022,None,1,1,2.3241411999999855,None,,,,0,0,0,0,0,1,1,0,,,,,77.0070505000001,,,,,,,,,,,,,,,,,,,,,76.99174660000017,77.0070505000001,77.4911476000002,77.49586110000018,77.51264110000011,79.8410272000001,1,1,2.3241411999999855,None,79.8412142000002,79.85682850000012,80.05692520000002,80.04076400000008,77.51264110000011,,,,,,,,,,,,,,,,,,,829,25,V,R,2026-02-23_11h27.02.657,VisualSearch_2526_3,,2025.2.4,2026-02-23 11h27.02.903071 +0100,
tilted.xlsx,The target is tilted.,117,2,2,0,1,0,0,0,0,0,0,0,0,0,0,0,0,0,1,117,space,9.212630900000022,None,1,1,0.6411912999999458,None,,,,0,0,0,0,0,2,2,3,,,,,80.05692520000002,,,,,,,,,,,,,,,,,,,,,80.0414267000001,80.05692520000002,80.5409575000001,80.54573660000005,80.56186630000002,81.20744330000002,1,1,0.6411912999999458,None,81.20763060000013,81.2228857,81.4233908000001,81.40717390000009,80.56186630000002,,,,,,,,,,,,,,,,,,,829,25,V,R,2026-02-23_11h27.02.657,VisualSearch_2526_3,,2025.2.4,2026-02-23 11h27.02.903071 +0100,
tilted.xlsx,The target is tilted.,117,3,3,0,0,0,0,0,0,0,0,0,0,0,0,0,1,1,1,117,space,9.212630900000022,None,0,1,1.055239100000108,None,,,,0,0,0,0,0,3,3,7,,,,,81.4233908000001,,,,,,,,,,,,,,,,,,,,,81.40785690000007,81.4233908000001,81.90674810000019,81.91137990000016,81.92836420000003,82.98940380000022,0,1,1.055239100000108,None,82.9894921,83.00567290000004,,83.1899472,81.92836420000003,,,,,,,,,,,,,,,,,,,829,25,V,R,2026-02-23_11h27.02.657,VisualSearch_2526_3,,2025.2.4,2026-02-23 11h27.02.903071 +0100,
tilted.xlsx,The target is tilted.,117,4,4,0,1,1,1,1,0,0,0,0,0,0,0,0,0,3,4,117,space,9.212630900000022,None,1,1,1.213939900000014,None,,,,0,0,0,0,0,4,4,2,,,,,83.20641230000001,,,,,,,,,,,,,,,,,,,,,83.19065060000003,83.20641230000001,83.69011690000002,83.69535510000014,83.71224930000017,84.93982240000014,1,1,1.213939900000014,None,84.94002710000018,84.95546310000009,85.15594540000006,85.13983820000021,,,,,,,,,,,,,,,,,,,,829,25,V,R,2026-02-23_11h27.02.657,VisualSearch_2526_3,,2025.2.4,2026-02-23 11h27.02.903071 +0100,
tilted.xlsx,The target is tilted.,117,5,5,0,0,1,1,1,0,0,0,0,0,0,0,0,1,3,4,117,space,9.212630900000022,None,0,1,1.514709000000039,None,,,,0,0,0,0,0,5,5,6,,,,,85.15594540000006,,,,,,,,,,,,,,,,,,,,,85.14051900000004,85.15594540000006,85.63986790000013,85.64439720000018,85.66223350000018,87.19006460000014,0,1,1.514709000000039,None,87.19023510000011,87.20518190000007,87.40557330000001,87.38937140000007,85.66223350000018,,,,,,,,,,,,,,,,,,,829,25,V,R,2026-02-23_11h27.02.657,VisualSearch_2526_3,,2025.2.4,2026-02-23 11h27.02.903071 +0100,
tilted.xlsx,The target is tilted.,117,6,6,0,0,1,1,1,1,1,1,1,1,1,1,1,1,11,12,117,space,9.212630900000022,None,1,0,5.786177700000053,None,,,,0,0,0,0,0,6,6,4,,,,,87.40557330000001,,,,,,,,,,,,,,,,,,,,,87.39004210000007,87.40557330000001,87.88909940000008,87.89374550000002,87.91017960000022,93.70551260000002,1,0,5.786177700000053,None,93.70568130000015,93.72072690000005,93.9211928000002,93.90443690000006,87.91017960000022,,,,,,,,,,,,,,,,,,,829,25,V,R,2026-02-23_11h27.02.657,VisualSearch_2526_3,,2025.2.4,2026-02-23 11h27.02.903071 +0100,
tilted.xlsx,The target is tilted.,117,7,7,0,1,1,1,1,1,1,1,1,0,0,0,0,0,7,8,117,space,9.212630900000022,None,1,1,3.584980099999939,None,,,,0,0,0,0,0,7,7,1,,,,,93.9211928000002,,,,,,,,,,,,,,,,,,,,,93.90494950000016,93.9211928000002,94.4047214000002,94.40930540000022,94.42574050000007,98.02144430000021,1,1,3.584980099999939,None,98.0216127000001,98.03669570000011,98.23727580000013,98.22106160000021,94.42574050000007,,,,,,,,,,,,,,,,,,,829,25,V,R,2026-02-23_11h27.02.657,VisualSearch_2526_3,,2025.2.4,2026-02-23 11h27.02.903071 +0100,
tilted.xlsx,The target is tilted.,117,0,0,0,0,1,1,1,1,1,1,1,0,0,0,0,1,7,8,117,space,9.212630900000022,None,1,0,5.3372018000000025,None,space,4.808186500000147,None,0,0,0,0,,,,,0,0,0,5,103.08803610000018,,,,,,,,,,,,,,,,,,,,,103.08382110000002,103.08803610000018,103.56987830000003,103.57514400000014,103.59086270000012,108.93551090000005,,,,,108.93563610000001,108.95142810000016,109.15198610000016,109.1357101000001,,98.2274030000001,98.23727580000013,98.23727580000013,103.05415760000005,space,4.808186500000147,None,1,0,5.3372018000000025,None,,,,,,,,829,25,V,R,2026-02-23_11h27.02.657,VisualSearch_2526_3,,2025.2.4,2026-02-23 11h27.02.903071 +0100,
tilted.xlsx,The target is tilted.,117,1,1,0,0,1,1,1,0,0,0,0,0,0,0,0,1,3,4,117,space,9.212630900000022,None,0,1,1.087640599999986,None,space,4.808186500000147,None,0,0,0,0,,,,,0,1,1,6,109.15198610000016,,,,,,,,,,,,,,,,,,,,,109.13643910000019,109.15198610000016,109.63583230000017,109.64031150000005,109.65581020000013,110.75294440000016,,,,,110.75313940000001,110.76791870000011,110.96852350000017,110.95213160000003,109.65581020000013,,,,,,,,0,1,1.087640599999986,None,,,,,,,,829,25,V,R,2026-02-23_11h27.02.657,VisualSearch_2526_3,,2025.2.4,2026-02-23 11h27.02.903071 +0100,
tilted.xlsx,The target is tilted.,117,2,2,0,1,1,1,1,0,0,0,0,0,0,0,0,0,3,4,117,space,9.212630900000022,None,0,0,0.8962066000001414,None,space,4.808186500000147,None,0,0,0,0,,,,,0,2,2,2,110.96852350000017,,,,,,,,,,,,,,,,,,,,,110.95286770000007,110.96852350000017,111.45216410000012,111.45660390000012,111.4732457,112.38531770000009,,,,,112.38550750000013,112.4009645000001,112.6013796000002,112.58529200000021,111.4732457,,,,,,,,0,0,0.8962066000001414,None,,,,,,,,829,25,V,R,2026-02-23_11h27.02.657,VisualSearch_2526_3,,2025.2.4,2026-02-23 11h27.02.903071 +0100,
tilted.xlsx,The target is tilted.,117,3,3,0,1,0,0,0,0,0,0,0,0,0,0,0,0,0,1,117,space,9.212630900000022,None,1,1,0.6790829999999914,None,space,4.808186500000147,None,0,0,0,0,,,,,0,3,3,3,112.6013796000002,,,,,,,,,,,,,,,,,,,,,112.58612390000008,112.6013796000002,113.08504160000007,113.08913510000002,113.10253140000009,113.78555490000008,,,,,113.78575460000002,113.80084620000002,114.00082410000005,113.98492800000008,113.10253140000009,,,,,,,,1,1,0.6790829999999914,None,,,,,,,,829,25,V,R,2026-02-23_11h27.02.657,VisualSearch_2526_3,,2025.2.4,2026-02-23 11h27.02.903071 +0100,
tilted.xlsx,The target is tilted.,117,4,4,0,1,1,1,1,1,1,1,1,0,0,0,0,0,7,8,117,space,9.212630900000022,None,1,1,0.8398939000001064,None,space,4.808186500000147,None,0,0,0,0,,,,,0,4,4,1,114.00082410000005,,,,,,,,,,,,,,,,,,,,,113.98615930000005,114.00082410000005,114.4848992000002,114.49007850000021,114.5069053000002,115.35172500000022,,,,,115.35187110000015,115.36721280000006,115.56755440000006,115.55132790000016,114.5069053000002,,,,,,,,1,1,0.8398939000001064,None,,,,,,,,829,25,V,R,2026-02-23_11h27.02.657,VisualSearch_2526_3,,2025.2.4,2026-02-23 11h27.02.903071 +0100,
tilted.xlsx,The target is tilted.,117,5,5,0,1,1,1,1,1,1,1,1,1,1,1,1,0,11,12,117,space,9.212630900000022,None,1,1,2.323670500000162,None,space,4.808186500000147,None,0,0,0,0,,,,,0,5,5,0,115.56755440000006,,,,,,,,,,,,,,,,,,,,,115.55173560000003,115.56755440000006,116.05172560000005,116.05677460000015,116.07619290000002,118.40162420000001,,,,,118.40190340000004,118.41667690000008,118.6172097000001,118.60090790000004,116.07619290000002,,,,,,,,1,1,2.323670500000162,None,,,,,,,,829,25,V,R,2026-02-23_11h27.02.657,VisualSearch_2526_3,,2025.2.4,2026-02-23 11h27.02.903071 +0100,
tilted.xlsx,The target is tilted.,117,6,6,0,0,1,1,1,1,1,1,1,1,1,1,1,1,11,12,117,space,9.212630900000022,None,1,0,1.056411399999888,None,space,4.808186500000147,None,0,0,0,0,,,,,0,6,6,4,118.6172097000001,,,,,,,,,,,,,,,,,,,,,118.60165420000021,118.6172097000001,119.100819,119.10518220000017,119.12146980000011,120.18477070000017,,,,,120.18496830000004,120.19972620000021,120.4002481,120.38404010000022,119.12146980000011,,,,,,,,1,0,1.056411399999888,None,,,,,,,,829,25,V,R,2026-02-23_11h27.02.657,VisualSearch_2526_3,,2025.2.4,2026-02-23 11h27.02.903071 +0100,
tilted.xlsx,The target is tilted.,117,7,7,0,0,0,0,0,0,0,0,0,0,0,0,0,1,1,1,117,space,9.212630900000022,None,0,1,0.6705594000000019,None,space,4.808186500000147,None,0,0,0,0,,,,,0,7,7,7,120.4002481,,,,,,,,,,,,,,,,,,,,,120.38481480000019,120.4002481,120.88416080000002,120.88866120000012,120.9052372000001,121.5844883000002,,,,,121.58468360000006,121.5995104000001,121.80007650000016,121.78395520000004,120.9052372000001,,,,,,,,0,1,0.6705594000000019,None,,,,,,,,829,25,V,R,2026-02-23_11h27.02.657,VisualSearch_2526_3,,2025.2.4,2026-02-23 11h27.02.903071 +0100,
tilted.xlsx,The target is tilted.,117,8,0,1,1,1,1,1,0,0,0,0,0,0,0,0,0,3,4,117,space,9.212630900000022,None,1,1,1.8540608999999222,None,space,4.808186500000147,None,0,0,0,0,,,,,1,0,8,2,121.80007650000016,,,,,,,,,,,,,,,,,,,,,121.7846714000002,121.80007650000016,122.2837872,122.28820130000008,122.30448880000017,124.1673489000002,,,,,124.16753420000009,124.1823588000002,124.38258250000013,124.36632940000004,122.30448880000017,,,,,,,,1,1,1.8540608999999222,None,,,,,,,,829,25,V,R,2026-02-23_11h27.02.657,VisualSearch_2526_3,,2025.2.4,2026-02-23 11h27.02.903071 +0100,
tilted.xlsx,The target is tilted.,117,9,1,1,1,0,0,0,0,0,0,0,0,0,0,0,0,0,1,117,space,9.212630900000022,None,1,1,0.8597694999998566,None,space,4.808186500000147,None,0,0,0,0,,,,,1,1,9,3,124.38258250000013,,,,,,,,,,,,,,,,,,,,,124.36702920000016,124.38258250000013,124.86666990000003,124.8711115000001,124.88682780000022,125.8217588,,,,,125.82186030000003,125.82480610000016,126.0322050000002,126.01592140000002,124.88682780000022,,,,,,,,1,1,0.8597694999998566,None,,,,,,,,829,25,V,R,2026-02-23_11h27.02.657,VisualSearch_2526_3,,2025.2.4,2026-02-23 11h27.02.903071 +0100,
tilted.xlsx,The target is tilted.,117,10,2,1,1,1,1,1,1,1,1,1,1,1,1,1,0,11,12,117,space,9.212630900000022,None,1,1,1.854454700000133,None,space,4.808186500000147,None,0,0,0,0,,,,,1,2,10,0,126.0322050000002,,,,,,,,,,,,,,,,,,,,,126.0165194000001,126.0322050000002,126.51639190000014,126.52091020000012,126.53709090000007,128.39990860000012,,,,,128.4000883000001,128.41498650000017,128.61544320000007,128.59902530000022,126.53709090000007,,,,,,,,1,1,1.854454700000133,None,,,,,,,,829,25,V,R,2026-02-23_11h27.02.657,VisualSearch_2526_3,,2025.2.4,2026-02-23 11h27.02.903071 +0100,
tilted.xlsx,The target is tilted.,117,11,3,1,0,1,1,1,1,1,1,1,0,0,0,0,1,7,8,117,space,9.212630900000022,None,0,1,2.3747979000002033,None,space,4.808186500000147,None,0,0,0,0,,,,,1,3,11,5,128.61544320000007,,,,,,,,,,,,,,,,,,,,,128.5997579000002,128.61544320000007,129.09936670000002,129.10378190000006,129.12063230000012,131.49905080000008,,,,,131.49922730000003,131.51450830000022,131.7148826,131.69879760000003,129.12063230000012,,,,,,,,0,1,2.3747979000002033,None,,,,,,,,829,25,V,R,2026-02-23_11h27.02.657,VisualSearch_2526_3,,2025.2.4,2026-02-23 11h27.02.903071 +0100,
tilted.xlsx,The target is tilted.,117,12,4,1,1,1,1,1,1,1,1,1,0,0,0,0,0,7,8,117,space,9.212630900000022,None,0,0,1.688748300000043,None,space,4.808186500000147,None,0,0,0,0,,,,,1,4,12,1,131.7148826,,,,,,,,,,,,,,,,,,,,,131.69948360000012,131.7148826,132.19885210000007,132.2033547000001,132.2190051,133.91562280000016,,,,,133.91582040000003,133.93081030000008,134.13091810000014,134.11468890000015,132.2190051,,,,,,,,0,0,1.688748300000043,None,,,,,,,,829,25,V,R,2026-02-23_11h27.02.657,VisualSearch_2526_3,,2025.2.4,2026-02-23 11h27.02.903071 +0100,
tilted.xlsx,The target is tilted.,117,13,5,1,0,1,1,1,0,0,0,0,0,0,0,0,1,3,4,117,space,9.212630900000022,None,0,1,0.771208599999909,None,space,4.808186500000147,None,0,0,0,0,,,,,1,5,13,6,134.13091810000014,,,,,,,,,,,,,,,,,,,,,134.11537390000012,134.13091810000014,134.61472430000003,134.61914690000003,134.6355149000001,135.41530650000004,,,,,135.4155052000001,135.43059190000008,135.63114300000007,135.61467760000005,134.6355149000001,,,,,,,,0,1,0.771208599999909,None,,,,,,,,829,25,V,R,2026-02-23_11h27.02.657,VisualSearch_2526_3,,2025.2.4,2026-02-23 11h27.02.903071 +0100,
tilted.xlsx,The target is tilted.,117,14,6,1,0,1,1,1,1,1,1,1,1,1,1,1,1,11,12,117,space,9.212630900000022,None,0,1,3.0073723000000427,None,space,4.808186500000147,None,0,0,0,0,,,,,1,6,14,4,135.63114300000007,,,,,,,,,,,,,,,,,,,,,135.6154927,135.63114300000007,136.1146348000002,136.11971000000017,136.13493150000022,139.14798880000012,,,,,139.14816530000007,139.16322920000016,139.36380470000017,139.34754050000015,136.13493150000022,,,,,,,,0,1,3.0073723000000427,None,,,,,,,,829,25,V,R,2026-02-23_11h27.02.657,VisualSearch_2526_3,,2025.2.4,2026-02-23 11h27.02.903071 +0100,
tilted.xlsx,The target is tilted.,117,15,7,1,0,0,0,0,0,0,0,0,0,0,0,0,1,1,1,117,space,9.212630900000022,None,0,1,1.2556655999999293,None,space,4.808186500000147,None,0,0,0,0,,,,,1,7,15,7,139.36380470000017,,,,,,,,,,,,,,,,,,,,,139.3482014000001,139.36380470000017,139.84714240000017,139.85120860000006,139.86656380000022,141.13129120000008,,,,,141.1314854000002,141.1462887,141.3467571000001,141.33058630000005,139.86656380000022,,,,,,,,0,1,1.2556655999999293,None,,,,,,,,829,25,V,R,2026-02-23_11h27.02.657,VisualSearch_2526_3,,2025.2.4,2026-02-23 11h27.02.903071 +0100,
tilted.xlsx,The target is tilted.,117,16,0,2,0,0,0,0,0,0,0,0,0,0,0,0,1,1,1,117,space,9.212630900000022,None,0,1,0.5519196000000193,None,space,4.808186500000147,None,0,0,0,0,,,,,2,0,16,7,141.3467571000001,,,,,,,,,,,,,,,,,,,,,141.33126770000013,141.3467571000001,141.83060210000008,141.8349975000001,141.8520347000001,142.41447930000004,,,,,142.41471070000011,142.42942000000016,142.62995210000008,142.6137543000002,141.8520347000001,,,,,,,,0,1,0.5519196000000193,None,,,,,,,,829,25,V,R,2026-02-23_11h27.02.657,VisualSearch_2526_3,,2025.2.4,2026-02-23 11h27.02.903071 +0100,
tilted.xlsx,The target is tilted.,117,17,1,2,1,1,1,1,1,1,1,1,0,0,0,0,0,7,8,117,space,9.212630900000022,None,1,1,1.8219575999999051,None,space,4.808186500000147,None,0,0,0,0,,,,,2,1,17,1,142.62995210000008,,,,,,,,,,,,,,,,,,,,,142.6145150000002,142.62995210000008,143.1136494000002,143.1184466000002,143.13447940000015,144.96384060000014,,,,,144.9640256,144.97911410000006,145.1792151000002,145.16345290000004,143.13447940000015,,,,,,,,1,1,1.8219575999999051,None,,,,,,,,829,25,V,R,2026-02-23_11h27.02.657,VisualSearch_2526_3,,2025.2.4,2026-02-23 11h27.02.903071 +0100,
tilted.xlsx,The target is tilted.,117,18,2,2,1,1,1,1,0,0,0,0,0,0,0,0,0,3,4,117,space,9.212630900000022,None,1,1,0.7817015000000538,None,space,4.808186500000147,None,0,0,0,0,,,,,2,2,18,2,145.1792151000002,,,,,,,,,,,,,,,,,,,,,145.16416670000012,145.1792151000002,145.66279380000014,145.66688620000014,145.6809393000001,146.4637686000001,,,,,146.46398540000018,146.4787232000001,146.67869800000017,146.66284310000015,145.6809393000001,,,,,,,,1,1,0.7817015000000538,None,,,,,,,,829,25,V,R,2026-02-23_11h27.02.657,VisualSearch_2526_3,,2025.2.4,2026-02-23 11h27.02.903071 +0100,
tilted.xlsx,The target is tilted.,117,19,3,2,0,1,1,1,1,1,1,1,0,0,0,0,1,7,8,117,space,9.212630900000022,None,0,1,3.527836799999932,None,space,4.808186500000147,None,0,0,0,0,,,,,2,3,19,5,146.67869800000017,,,,,,,,,,,,,,,,,,,,,146.66362750000008,146.67869800000017,147.1632837000002,147.16833930000007,147.18492460000016,150.72896990000004,,,,,150.7291669000001,150.74458520000007,150.94512570000006,150.92914340000016,147.18492460000016,,,,,,,,0,1,3.527836799999932,None,,,,,,,,829,25,V,R,2026-02-23_11h27.02.657,VisualSearch_2526_3,,2025.2.4,2026-02-23 11h27.02.903071 +0100,
tilted.xlsx,The target is tilted.,117,20,4,2,1,1,1,1,1,1,1,1,1,1,1,1,0,11,12,117,space,9.212630900000022,None,1,1,3.4727323999998134,None,space,4.808186500000147,None,0,0,0,0,,,,,2,4,20,0,150.94512570000006,,,,,,,,,,,,,,,,,,,,,150.92987690000018,150.94512570000006,151.42919630000006,151.4342756000001,151.45086520000018,154.9288286000001,,,,,154.9290139000002,154.94395320000012,155.14375830000017,155.12744700000007,151.45086520000018,,,,,,,,1,1,3.4727323999998134,None,,,,,,,,829,25,V,R,2026-02-23_11h27.02.657,VisualSearch_2526_3,,2025.2.4,2026-02-23 11h27.02.903071 +0100,
tilted.xlsx,The target is tilted.,117,21,5,2,0,1,1,1,0,0,0,0,0,0,0,0,1,3,4,117,space,9.212630900000022,None,0,1,1.4779695000001993,None,space,4.808186500000147,None,0,0,0,0,,,,,2,5,21,6,155.14375830000017,,,,,,,,,,,,,,,,,,,,,155.12768970000002,155.14375830000017,155.6283131,155.63277400000015,155.64872000000014,157.12818720000018,,,,,157.12836860000016,157.14366100000007,157.34378500000003,157.32794250000006,155.64872000000014,,,,,,,,0,1,1.4779695000001993,None,,,,,,,,829,25,V,R,2026-02-23_11h27.02.657,VisualSearch_2526_3,,2025.2.4,2026-02-23 11h27.02.903071 +0100,
tilted.xlsx,The target is tilted.,117,22,6,2,1,0,0,0,0,0,0,0,0,0,0,0,0,0,1,117,space,9.212630900000022,None,1,1,1.089145500000086,None,space,4.808186500000147,None,0,0,0,0,,,,,2,6,22,3,157.34378500000003,,,,,,,,,,,,,,,,,,,,,157.32871420000015,157.34378500000003,157.8280877000002,157.83328450000022,157.84976240000015,158.94484610000018,,,,,158.9450240000001,158.96000740000022,159.15997180000022,159.14403990000005,157.84976240000015,,,,,,,,1,1,1.089145500000086,None,,,,,,,,829,25,V,R,2026-02-23_11h27.02.657,VisualSearch_2526_3,,2025.2.4,2026-02-23 11h27.02.903071 +0100,
tilted.xlsx,The target is tilted.,117,23,7,2,0,1,1,1,1,1,1,1,1,1,1,1,1,11,12,117,space,9.212630900000022,None,1,0,4.9901462999998785,None,space,4.808186500000147,None,0,0,0,0,,,,,2,7,23,4,159.15997180000022,,,,,,,,,,,,,,,,,,,,,159.1447558000002,159.15997180000022,159.64412160000006,159.64856590000022,159.66464090000022,164.66033790000006,,,,,164.6605195000002,164.67560850000018,164.87616990000015,164.85997770000017,159.66464090000022,,,,,,,,1,0,4.9901462999998785,None,,,,,,,,829,25,V,R,2026-02-23_11h27.02.657,VisualSearch_2526_3,,2025.2.4,2026-02-23 11h27.02.903071 +0100,
tilted.xlsx,The target is tilted.,117,24,0,3,0,1,1,1,1,1,1,1,0,0,0,0,1,7,8,117,space,9.212630900000022,None,0,1,1.7529374000000644,None,space,4.808186500000147,None,0,0,0,0,,,,,3,0,24,5,164.87616990000015,,,,,,,,,,,,,,,,,,,,,164.860635,164.87616990000015,165.3598919000001,165.36452040000017,165.38047200000005,167.1434200000001,,,,,167.14359680000007,167.15860020000014,167.35905930000013,167.34278110000014,165.38047200000005,,,,,,,,0,1,1.7529374000000644,None,,,,,,,,829,25,V,R,2026-02-23_11h27.02.657,VisualSearch_2526_3,,2025.2.4,2026-02-23 11h27.02.903071 +0100,
tilted.xlsx,The target is tilted.,117,25,1,3,1,1,1,1,0,0,0,0,0,0,0,0,0,3,4,117,space,9.212630900000022,None,1,1,0.8585983999998916,None,space,4.808186500000147,None,0,0,0,0,,,,,3,1,25,2,167.35905930000013,,,,,,,,,,,,,,,,,,,,,167.34337770000002,167.35905930000013,167.84269980000022,167.84749680000004,167.8647629000002,168.72678680000013,,,,,168.72699310000007,168.74172110000018,168.94183080000016,168.9255674000001,167.8647629000002,,,,,,,,1,1,0.8585983999998916,None,,,,,,,,829,25,V,R,2026-02-23_11h27.02.657,VisualSearch_2526_3,,2025.2.4,2026-02-23 11h27.02.903071 +0100,
tilted.xlsx,The target is tilted.,117,26,2,3,1,1,1,1,1,1,1,1,1,1,1,1,0,11,12,117,space,9.212630900000022,None,0,0,3.637121900000011,None,space,4.808186500000147,None,0,0,0,0,,,,,3,2,26,0,168.94183080000016,,,,,,,,,,,,,,,,,,,,,168.92622700000015,168.94183080000016,169.4261332000001,169.43118300000015,169.44719080000004,173.09250640000005,,,,,173.09268440000005,173.10759190000022,173.30792140000017,173.29199990000006,169.44719080000004,,,,,,,,0,0,3.637121900000011,None,,,,,,,,829,25,V,R,2026-02-23_11h27.02.657,VisualSearch_2526_3,,2025.2.4,2026-02-23 11h27.02.903071 +0100,
tilted.xlsx,The target is tilted.,117,27,3,3,0,0,0,0,0,0,0,0,0,0,0,0,1,1,1,117,space,9.212630900000022,None,0,1,0.8994147999999313,None,space,4.808186500000147,None,0,0,0,0,,,,,3,3,27,7,173.30792140000017,,,,,,,,,,,,,,,,,,,,,173.29276360000017,173.30792140000017,173.7920359000002,173.7964475000001,173.81317990000002,174.72503530000017,,,,,174.72522600000002,174.74070640000014,174.94124540000007,174.92488690000005,173.81317990000002,,,,,,,,0,1,0.8994147999999313,None,,,,,,,,829,25,V,R,2026-02-23_11h27.02.657,VisualSearch_2526_3,,2025.2.4,2026-02-23 11h27.02.903071 +0100,
tilted.xlsx,The target is tilted.,117,28,4,3,1,0,0,0,0,0,0,0,0,0,0,0,0,0,1,117,space,9.212630900000022,None,0,0,0.645699200000081,None,space,4.808186500000147,None,0,0,0,0,,,,,3,4,28,3,174.94124540000007,,,,,,,,,,,,,,,,,,,,,174.92569060000005,174.94124540000007,175.4251279,175.4302306000002,175.44626590000007,176.10761090000005,,,,,176.10772490000022,176.1236805000001,,176.30792900000006,175.44626590000007,,,,,,,,0,0,0.645699200000081,None,,,,,,,,829,25,V,R,2026-02-23_11h27.02.657,VisualSearch_2526_3,,2025.2.4,2026-02-23 11h27.02.903071 +0100,
tilted.xlsx,The target is tilted.,117,29,5,3,0,1,1,1,1,1,1,1,1,1,1,1,1,11,12,117,space,9.212630900000022,None,0,1,3.419493300000113,None,space,4.808186500000147,None,0,0,0,0,,,,,3,5,29,4,176.32397070000002,,,,,,,,,,,,,,,,,,,,,176.30868570000007,176.32397070000002,176.8079881000001,176.8132191000002,176.83010120000017,180.25802050000016,,,,,180.25820230000022,180.27310340000008,180.47352170000022,180.4568276,,,,,,,,,0,1,3.419493300000113,None,,,,,,,,829,25,V,R,2026-02-23_11h27.02.657,VisualSearch_2526_3,,2025.2.4,2026-02-23 11h27.02.903071 +0100,
tilted.xlsx,The target is tilted.,117,30,6,3,0,1,1,1,0,0,0,0,0,0,0,0,1,3,4,117,space,9.212630900000022,None,0,1,0.9284364000000096,None,space,4.808186500000147,None,0,0,0,0,,,,,3,6,30,6,180.47352170000022,,,,,,,,,,,,,,,,,,,,,180.4573785,180.47352170000022,180.95746830000007,180.9619133000001,180.97857010000007,181.9237386000002,,,,,181.92390400000022,181.9393603000001,182.13972860000013,182.1234604000001,180.97857010000007,,,,,,,,0,1,0.9284364000000096,None,,,,,,,,829,25,V,R,2026-02-23_11h27.02.657,VisualSearch_2526_3,,2025.2.4,2026-02-23 11h27.02.903071 +0100,
tilted.xlsx,The target is tilted.,117,31,7,3,1,1,1,1,1,1,1,1,0,0,0,0,0,7,8,117,space,9.212630900000022,None,1,1,2.0580808999998226,None,space,4.808186500000147,None,0,0,0,0,,,,,3,7,31,1,182.13972860000013,,,,,,,,,,,,,,,,,,,,,182.1241245000001,182.13972860000013,182.62370510000005,182.62953360000006,182.6460516000002,184.7074603000001,,,,,184.70766290000006,184.7223749000002,184.92250290000015,184.9062702000001,182.6460516000002,,,,,,,,1,1,2.0580808999998226,None,,,,,,,,829,25,V,R,2026-02-23_11h27.02.657,VisualSearch_2526_3,,2025.2.4,2026-02-23 11h27.02.903071 +0100,
tilted.xlsx,The target is tilted.,117,32,0,4,1,1,1,1,1,1,1,1,1,1,1,1,0,11,12,117,space,9.212630900000022,None,1,1,1.7648963999999978,None,space,4.808186500000147,None,0,0,0,0,,,,,4,0,32,0,184.92250290000015,,,,,,,,,,,,,,,,,,,,,184.90695790000018,184.92250290000015,185.40634760000012,185.41105740000012,185.42745780000018,187.20622390000017,,,,,187.20639960000017,187.2218378,187.4223952000002,187.40631070000018,185.42745780000018,,,,,,,,1,1,1.7648963999999978,None,,,,,,,,829,25,V,R,2026-02-23_11h27.02.657,VisualSearch_2526_3,,2025.2.4,2026-02-23 11h27.02.903071 +0100,
tilted.xlsx,The target is tilted.,117,33,1,4,0,0,0,0,0,0,0,0,0,0,0,0,1,1,1,117,space,9.212630900000022,None,0,1,0.7602024000000256,None,space,4.808186500000147,None,0,0,0,0,,,,,4,1,33,7,187.4223952000002,,,,,,,,,,,,,,,,,,,,,187.40706120000004,187.4223952000002,187.90640580000013,187.91112110000017,187.92666670000017,188.69007120000015,,,,,188.6902752000001,188.7052189000001,188.9056822,188.88961230000018,187.92666670000017,,,,,,,,0,1,0.7602024000000256,None,,,,,,,,829,25,V,R,2026-02-23_11h27.02.657,VisualSearch_2526_3,,2025.2.4,2026-02-23 11h27.02.903071 +0100,
tilted.xlsx,The target is tilted.,117,34,2,4,0,1,1,1,1,1,1,1,0,0,0,0,1,7,8,117,space,9.212630900000022,None,1,0,4.052312099999881,None,space,4.808186500000147,None,0,0,0,0,,,,,4,2,34,5,188.9056822,,,,,,,,,,,,,,,,,,,,,188.89042980000022,188.9056822,189.38957640000012,189.39453460000004,189.4116170000002,193.4724979,,,,,193.47267720000013,193.4875794000002,193.68801940000003,193.67175550000002,189.4116170000002,,,,,,,,1,0,4.052312099999881,None,,,,,,,,829,25,V,R,2026-02-23_11h27.02.657,VisualSearch_2526_3,,2025.2.4,2026-02-23 11h27.02.903071 +0100,
tilted.xlsx,The target is tilted.,117,35,3,4,0,1,1,1,0,0,0,0,0,0,0,0,1,3,4,117,space,9.212630900000022,None,0,1,1.3079788000000008,None,space,4.808186500000147,None,0,0,0,0,,,,,4,3,35,6,193.68801940000003,,,,,,,,,,,,,,,,,,,,,193.67236110000022,193.68801940000003,194.1715541000001,194.17609630000015,194.1907559000001,195.50499480000008,,,,,195.50522960000012,195.52064000000018,195.7212125000001,195.7046799000002,194.1907559000001,,,,,,,,0,1,1.3079788000000008,None,,,,,,,,829,25,V,R,2026-02-23_11h27.02.657,VisualSearch_2526_3,,2025.2.4,2026-02-23 11h27.02.903071 +0100,
tilted.xlsx,The target is tilted.,117,36,4,4,1,1,1,1,1,1,1,1,0,0,0,0,0,7,8,117,space,9.212630900000022,None,1,1,0.8687316999998984,None,space,4.808186500000147,None,0,0,0,0,,,,,4,4,36,1,195.7212125000001,,,,,,,,,,,,,,,,,,,,,195.7054426000002,195.7212125000001,196.20469120000007,196.20976830000018,196.22580140000014,197.1049872000001,,,,,197.1051910000001,197.12037880000003,197.32105820000015,197.3044983000002,196.22580140000014,,,,,,,,1,1,0.8687316999998984,None,,,,,,,,829,25,V,R,2026-02-23_11h27.02.657,VisualSearch_2526_3,,2025.2.4,2026-02-23 11h27.02.903071 +0100,
tilted.xlsx,The target is tilted.,117,37,5,4,1,1,1,1,0,0,0,0,0,0,0,0,0,3,4,117,space,9.212630900000022,None,0,0,1.0332115999999587,None,space,4.808186500000147,None,0,0,0,0,,,,,4,5,37,2,197.32105820000015,,,,,,,,,,,,,,,,,,,,,197.3054591,197.32105820000015,197.8046349000001,197.80938640000022,197.8202924000002,198.85485780000022,,,,,198.85505610000018,198.87016990000006,199.07022920000009,199.0545360000001,197.8202924000002,,,,,,,,0,0,1.0332115999999587,None,,,,,,,,829,25,V,R,2026-02-23_11h27.02.657,VisualSearch_2526_3,,2025.2.4,2026-02-23 11h27.02.903071 +0100,
tilted.xlsx,The target is tilted.,117,38,6,4,0,1,1,1,1,1,1,1,1,1,1,1,1,11,12,117,space,9.212630900000022,None,1,0,4.3474317999998675,None,space,4.808186500000147,None,0,0,0,0,,,,,4,6,38,4,199.07022920000009,,,,,,,,,,,,,,,,,,,,,199.0553834000002,199.07022920000009,199.55398440000022,199.55848260000016,199.57477300000005,203.93662940000013,,,,,203.93680200000017,203.9524342000002,204.1526854000001,204.1369396,199.57477300000005,,,,,,,,1,0,4.3474317999998675,None,,,,,,,,829,25,V,R,2026-02-23_11h27.02.657,VisualSearch_2526_3,,2025.2.4,2026-02-23 11h27.02.903071 +0100,
tilted.xlsx,The target is tilted.,117,39,7,4,1,0,0,0,0,0,0,0,0,0,0,0,0,0,1,117,space,9.212630900000022,None,1,1,0.8145165999999335,None,space,4.808186500000147,None,0,0,0,0,,,,,4,7,39,3,204.1526854000001,,,,,,,,,,,,,,,,,,,,,204.13767630000007,204.1526854000001,204.6365052000001,204.64099220000003,204.6566114000002,205.48580620000007,,,,,205.48588530000006,205.5026613,,205.68609830000014,204.6566114000002,,,,,,,,1,1,0.8145165999999335,None,,,,,,,,829,25,V,R,2026-02-23_11h27.02.657,VisualSearch_2526_3,,2025.2.4,2026-02-23 11h27.02.903071 +0100,
tilted.xlsx,The target is tilted.,117,40,0,5,1,1,1,1,1,1,1,1,0,0,0,0,0,7,8,117,space,9.212630900000022,None,1,1,4.023736900000131,None,space,4.808186500000147,None,0,0,0,0,,,,,5,0,40,1,205.70244300000013,,,,,,,,,,,,,,,,,,,,,205.68679800000018,205.70244300000013,206.1860200000001,206.19066220000013,206.20987430000014,210.23639550000007,,,,,210.2365996000001,210.2515108,210.45220210000002,210.43583450000006,,,,,,,,,1,1,4.023736900000131,None,,,,,,,,829,25,V,R,2026-02-23_11h27.02.657,VisualSearch_2526_3,,2025.2.4,2026-02-23 11h27.02.903071 +0100,
tilted.xlsx,The target is tilted.,117,41,1,5,0,1,1,1,0,0,0,0,0,0,0,0,1,3,4,117,space,9.212630900000022,None,0,1,1.5503555000000233,None,space,4.808186500000147,None,0,0,0,0,,,,,5,1,41,6,210.45220210000002,,,,,,,,,,,,,,,,,,,,,210.43658560000017,210.45220210000002,210.93591460000016,210.9409349,210.9576390000002,212.51938280000013,,,,,212.5195725000001,212.53443850000008,212.7346695000001,212.71876620000012,210.9576390000002,,,,,,,,0,1,1.5503555000000233,None,,,,,,,,829,25,V,R,2026-02-23_11h27.02.657,VisualSearch_2526_3,,2025.2.4,2026-02-23 11h27.02.903071 +0100,
tilted.xlsx,The target is tilted.,117,42,2,5,0,1,1,1,1,1,1,1,0,0,0,0,1,7,8,117,space,9.212630900000022,None,0,1,2.113125000000082,None,space,4.808186500000147,None,0,0,0,0,,,,,5,2,42,5,212.7346695000001,,,,,,,,,,,,,,,,,,,,,212.71953080000003,212.7346695000001,213.2186004,213.22347890000015,213.2406179000002,215.36819730000002,,,,,215.36836010000002,215.3838634000001,215.58442120000018,215.5684119,213.2406179000002,,,,,,,,0,1,2.113125000000082,None,,,,,,,,829,25,V,R,2026-02-23_11h27.02.657,VisualSearch_2526_3,,2025.2.4,2026-02-23 11h27.02.903071 +0100,
tilted.xlsx,The target is tilted.,117,43,3,5,0,1,1,1,1,1,1,1,1,1,1,1,1,11,12,117,space,9.212630900000022,None,0,1,3.60483760000011,None,space,4.808186500000147,None,0,0,0,0,,,,,5,3,43,4,215.58442120000018,,,,,,,,,,,,,,,,,,,,,215.56912660000012,215.58442120000018,216.06799920000003,216.07255680000003,216.08786710000004,219.70147440000005,,,,,219.70165280000015,219.7165788000002,219.9169515000001,219.90095850000012,216.08786710000004,,,,,,,,0,1,3.60483760000011,None,,,,,,,,829,25,V,R,2026-02-23_11h27.02.657,VisualSearch_2526_3,,2025.2.4,2026-02-23 11h27.02.903071 +0100,
tilted.xlsx,The target is tilted.,117,44,4,5,1,0,0,0,0,0,0,0,0,0,0,0,0,0,1,117,space,9.212630900000022,None,1,1,0.7378822999999102,None,space,4.808186500000147,None,0,0,0,0,,,,,5,4,44,3,219.9169515000001,,,,,,,,,,,,,,,,,,,,,219.9016455000001,219.9169515000001,220.40069400000016,220.4039705,220.4166944000001,221.16697670000008,,,,,221.16710810000018,221.18303490000017,,221.3672239,220.4166944000001,,,,,,,,1,1,0.7378822999999102,None,,,,,,,,829,25,V,R,2026-02-23_11h27.02.657,VisualSearch_2526_3,,2025.2.4,2026-02-23 11h27.02.903071 +0100,
tilted.xlsx,The target is tilted.,117,45,5,5,1,1,1,1,1,1,1,1,1,1,1,1,0,11,12,117,space,9.212630900000022,None,1,1,2.911484800000153,None,space,4.808186500000147,None,0,0,0,0,,,,,5,5,45,0,221.3837202000002,,,,,,,,,,,,,,,,,,,,,221.36798220000014,221.3837202000002,221.8672617000002,221.87236080000002,221.88754200000017,224.79966940000008,,,,,224.79976140000008,224.81604070000003,,224.99993210000002,,,,,,,,,1,1,2.911484800000153,None,,,,,,,,829,25,V,R,2026-02-23_11h27.02.657,VisualSearch_2526_3,,2025.2.4,2026-02-23 11h27.02.903071 +0100,
tilted.xlsx,The target is tilted.,117,46,6,5,1,1,1,1,0,0,0,0,0,0,0,0,0,3,4,117,space,9.212630900000022,None,1,1,1.6001177000000553,None,space,4.808186500000147,None,0,0,0,0,,,,,5,6,46,2,225.0159443,,,,,,,,,,,,,,,,,,,,,225.0007035000001,225.0159443,225.49990330000014,225.5044359000001,225.52294580000012,227.1336427000001,,,,,227.13382590000015,227.14874800000007,227.34932230000004,227.3331588000001,,,,,,,,,1,1,1.6001177000000553,None,,,,,,,,829,25,V,R,2026-02-23_11h27.02.657,VisualSearch_2526_3,,2025.2.4,2026-02-23 11h27.02.903071 +0100,
tilted.xlsx,The target is tilted.,117,47,7,5,0,0,0,0,0,0,0,0,0,0,0,0,1,1,1,117,space,9.212630900000022,None,0,1,0.6700949999999466,None,space,4.808186500000147,None,0,0,0,0,,,,,5,7,47,7,227.34932230000004,,,,,,,,,,,,,,,,,,,,,227.3338788000001,227.34932230000004,227.83292300000016,227.83734700000014,227.85235260000013,228.5329792,,,,,228.53314450000016,228.54847510000013,228.74891540000021,228.73271320000003,227.85235260000013,,,,,,,,0,1,0.6700949999999466,None,,,,,,,,829,25,V,R,2026-02-23_11h27.02.657,VisualSearch_2526_3,,2025.2.4,2026-02-23 11h27.02.903071 +0100,
tilted.xlsx,The target is tilted.,117,48,0,6,0,1,1,1,1,1,1,1,1,1,1,1,1,11,12,117,space,9.212630900000022,None,1,0,3.326516800000036,None,space,4.808186500000147,None,0,0,0,0,,,,,6,0,48,4,228.74891540000021,,,,,,,,,,,,,,,,,,,,,228.73339760000022,228.74891540000021,229.23271780000005,229.23714730000006,229.25304290000008,232.58274660000006,,,,,232.5829090000002,232.59772550000002,232.79831630000012,232.78218800000013,229.25304290000008,,,,,,,,1,0,3.326516800000036,None,,,,,,,,829,25,V,R,2026-02-23_11h27.02.657,VisualSearch_2526_3,,2025.2.4,2026-02-23 11h27.02.903071 +0100,
tilted.xlsx,The target is tilted.,117,49,1,6,0,1,1,1,0,0,0,0,0,0,0,0,1,3,4,117,space,9.212630900000022,None,0,1,1.2531835999998293,None,space,4.808186500000147,None,0,0,0,0,,,,,6,1,49,6,232.79831630000012,,,,,,,,,,,,,,,,,,,,,232.78294870000013,232.79831630000012,233.2820032000002,233.28644910000003,233.3027935,234.56526609999992,,,,,234.56550030000017,234.58079840000028,234.78127769999992,234.76504310000018,233.3027935,,,,,,,,0,1,1.2531835999998293,None,,,,,,,,829,25,V,R,2026-02-23_11h27.02.657,VisualSearch_2526_3,,2025.2.4,2026-02-23 11h27.02.903071 +0100,
tilted.xlsx,The target is tilted.,117,50,2,6,1,1,1,1,0,0,0,0,0,0,0,0,0,3,4,117,space,9.212630900000022,None,1,1,1.2089364999997088,None,space,4.808186500000147,None,0,0,0,0,,,,,6,2,50,2,234.78127769999992,,,,,,,,,,,,,,,,,,,,,234.76578310000014,234.78127769999992,235.26525470000024,235.27020010000024,235.2867223000003,236.4989989999999,,,,,236.49920939999993,236.51358419999997,236.7139886,236.6983024000001,235.2867223000003,,,,,,,,1,1,1.2089364999997088,None,,,,,,,,829,25,V,R,2026-02-23_11h27.02.657,VisualSearch_2526_3,,2025.2.4,2026-02-23 11h27.02.903071 +0100,
tilted.xlsx,The target is tilted.,117,51,3,6,1,0,0,0,0,0,0,0,0,0,0,0,0,0,1,117,space,9.212630900000022,None,1,1,0.6472975000001497,None,space,4.808186500000147,None,0,0,0,0,,,,,6,3,51,3,236.7139886,,,,,,,,,,,,,,,,,,,,,236.69918929999994,236.7139886,237.19831620000014,237.2034346999999,237.22000759999992,237.8809713999999,,,,,237.8811000999999,237.89680249999992,238.09744679999994,238.0811536000001,237.22000759999992,,,,,,,,1,1,0.6472975000001497,None,,,,,,,,829,25,V,R,2026-02-23_11h27.02.657,VisualSearch_2526_3,,2025.2.4,2026-02-23 11h27.02.903071 +0100,
tilted.xlsx,The target is tilted.,117,52,4,6,1,1,1,1,1,1,1,1,1,1,1,1,0,11,12,117,space,9.212630900000022,None,1,1,1.0935349999999744,None,space,4.808186500000147,None,0,0,0,0,,,,,6,4,52,0,238.09744679999994,,,,,,,,,,,,,,,,,,,,,238.0819773000003,238.09744679999994,238.58133369999996,238.58638939999992,238.60232730000007,239.69844090000015,,,,,239.6986555000003,239.71337110000013,239.91392910000013,239.8976907000001,238.60232730000007,,,,,,,,1,1,1.0935349999999744,None,,,,,,,,829,25,V,R,2026-02-23_11h27.02.657,VisualSearch_2526_3,,2025.2.4,2026-02-23 11h27.02.903071 +0100,
tilted.xlsx,The target is tilted.,117,53,5,6,1,1,1,1,1,1,1,1,0,0,0,0,0,7,8,117,space,9.212630900000022,None,1,1,0.8741719999998168,None,space,4.808186500000147,None,0,0,0,0,,,,,6,5,53,1,239.91392910000013,,,,,,,,,,,,,,,,,,,,,239.89845030000015,239.91392910000013,240.39735560000008,240.40233390000003,240.4137069000003,241.29806929999995,,,,,241.2982634,241.3131042,241.51353670000026,241.49753150000015,240.4137069000003,,,,,,,,1,1,0.8741719999998168,None,,,,,,,,829,25,V,R,2026-02-23_11h27.02.657,VisualSearch_2526_3,,2025.2.4,2026-02-23 11h27.02.903071 +0100,
tilted.xlsx,The target is tilted.,117,54,6,6,0,0,0,0,0,0,0,0,0,0,0,0,1,1,1,117,space,9.212630900000022,None,0,1,0.9906381000000692,None,space,4.808186500000147,None,0,0,0,0,,,,,6,6,54,7,241.51353670000026,,,,,,,,,,,,,,,,,,,,,241.49826280000025,241.51353670000026,241.9975357000003,242.00271520000024,242.01934570000003,243.0140792000002,,,,,243.01428780000015,243.02943559999994,243.23011380000025,243.21399310000015,242.01934570000003,,,,,,,,0,1,0.9906381000000692,None,,,,,,,,829,25,V,R,2026-02-23_11h27.02.657,VisualSearch_2526_3,,2025.2.4,2026-02-23 11h27.02.903071 +0100,
tilted.xlsx,The target is tilted.,117,55,7,6,0,1,1,1,1,1,1,1,0,0,0,0,1,7,8,117,space,9.212630900000022,None,1,0,1.833854799999699,None,space,4.808186500000147,None,0,0,0,0,,,,,6,7,55,5,243.23011380000025,,,,,,,,,,,,,,,,,,,,,243.2147514000003,243.23011380000025,243.71400919999996,243.71916630000032,243.73388539999996,245.58060870000008,,,,,245.58078550000027,245.59560820000024,245.7961782000002,245.78004020000026,243.73388539999996,,,,,,,,1,0,1.833854799999699,None,,,,,,,,829,25,V,R,2026-02-23_11h27.02.657,VisualSearch_2526_3,,2025.2.4,2026-02-23 11h27.02.903071 +0100,
tilted.xlsx,The target is tilted.,117,56,0,7,0,1,1,1,1,1,1,1,0,0,0,0,1,7,8,117,space,9.212630900000022,None,1,0,0.9629475000001548,None,space,4.808186500000147,None,0,0,0,0,,,,,7,0,56,5,245.7961782000002,,,,,,,,,,,,,,,,,,,,,245.7808296000003,245.7961782000002,246.27989060000027,246.2847687000003,246.30153370000016,247.27980650000018,,,,,247.28000490000022,247.29531160000033,247.49593619999996,247.47969580000017,246.30153370000016,,,,,,,,1,0,0.9629475000001548,None,,,,,,,,829,25,V,R,2026-02-23_11h27.02.657,VisualSearch_2526_3,,2025.2.4,2026-02-23 11h27.02.903071 +0100,
tilted.xlsx,The target is tilted.,117,57,1,7,1,0,0,0,0,0,0,0,0,0,0,0,0,0,1,117,space,9.212630900000022,None,1,1,0.5823806999997032,None,space,4.808186500000147,None,0,0,0,0,,,,,7,1,57,3,247.49593619999996,,,,,,,,,,,,,,,,,,,,,247.48040420000007,247.49593619999996,247.97983330000034,247.98423630000025,248.00044070000013,248.59629050000012,,,,,248.59647220000033,248.61178210000026,248.81208659999993,248.79587260000017,248.00044070000013,,,,,,,,1,1,0.5823806999997032,None,,,,,,,,829,25,V,R,2026-02-23_11h27.02.657,VisualSearch_2526_3,,2025.2.4,2026-02-23 11h27.02.903071 +0100,
tilted.xlsx,The target is tilted.,117,58,2,7,1,1,1,1,1,1,1,1,0,0,0,0,0,7,8,117,space,9.212630900000022,None,1,1,1.538926199999878,None,space,4.808186500000147,None,0,0,0,0,,,,,7,2,58,1,248.81208659999993,,,,,,,,,,,,,,,,,,,,,248.79662869999993,248.81208659999993,249.29635430000008,249.3014301000003,249.31739590000007,250.86289100000022,,,,,250.86306990000003,250.87809560000005,251.07827700000007,251.06213849999995,249.31739590000007,,,,,,,,1,1,1.538926199999878,None,,,,,,,,829,25,V,R,2026-02-23_11h27.02.657,VisualSearch_2526_3,,2025.2.4,2026-02-23 11h27.02.903071 +0100,
tilted.xlsx,The target is tilted.,117,59,3,7,0,1,1,1,0,0,0,0,0,0,0,0,1,3,4,117,space,9.212630900000022,None,0,1,1.3217960000001767,None,space,4.808186500000147,None,0,0,0,0,,,,,7,3,59,6,251.07827700000007,,,,,,,,,,,,,,,,,,,,,251.0628224000002,251.07827700000007,251.5620931000003,251.56688500000018,251.58484660000022,252.91236479999998,,,,,252.91253780000034,252.92776790000016,253.1282212000001,253.1123963,251.58484660000022,,,,,,,,0,1,1.3217960000001767,None,,,,,,,,829,25,V,R,2026-02-23_11h27.02.657,VisualSearch_2526_3,,2025.2.4,2026-02-23 11h27.02.903071 +0100,
tilted.xlsx,The target is tilted.,117,60,4,7,1,1,1,1,0,0,0,0,0,0,0,0,0,3,4,117,space,9.212630900000022,None,0,0,1.0676969999999528,None,space,4.808186500000147,None,0,0,0,0,,,,,7,4,60,2,253.1282212000001,,,,,,,,,,,,,,,,,,,,,253.11313430000018,253.1282212000001,253.6122193000001,253.61674170000015,253.62812620000022,254.71197299999994,,,,,254.7121500000003,254.7275450000002,254.9279277999999,254.9116799000003,253.62812620000022,,,,,,,,0,0,1.0676969999999528,None,,,,,,,,829,25,V,R,2026-02-23_11h27.02.657,VisualSearch_2526_3,,2025.2.4,2026-02-23 11h27.02.903071 +0100,
tilted.xlsx,The target is tilted.,117,61,5,7,0,1,1,1,1,1,1,1,1,1,1,1,1,11,12,117,space,9.212630900000022,None,1,0,1.0276813000000402,None,space,4.808186500000147,None,0,0,0,0,,,,,7,5,61,4,254.9279277999999,,,,,,,,,,,,,,,,,,,,,254.9124093999999,254.9279277999999,255.41147750000027,255.41598199999999,255.4296693000001,256.4619782,,,,,256.46217490000026,256.4773672000001,256.6777943000002,256.6614718000001,255.4296693000001,,,,,,,,1,0,1.0276813000000402,None,,,,,,,,829,25,V,R,2026-02-23_11h27.02.657,VisualSearch_2526_3,,2025.2.4,2026-02-23 11h27.02.903071 +0100,
tilted.xlsx,The target is tilted.,117,62,6,7,1,1,1,1,1,1,1,1,1,1,1,1,0,11,12,117,space,9.212630900000022,None,1,1,1.0264329999999973,None,space,4.808186500000147,None,0,0,0,0,,,,,7,6,62,0,256.6777943000002,,,,,,,,,,,,,,,,,,,,,256.6621771,256.6777943000002,257.16182130000016,257.1666825000002,257.17711180000015,258.2117946000003,,,,,258.21196710000004,258.22689089999994,258.42751990000033,258.41164000000026,257.17711180000015,,,,,,,,1,1,1.0264329999999973,None,,,,,,,,829,25,V,R,2026-02-23_11h27.02.657,VisualSearch_2526_3,,2025.2.4,2026-02-23 11h27.02.903071 +0100,
tilted.xlsx,The target is tilted.,117,63,7,7,0,0,0,0,0,0,0,0,0,0,0,0,1,1,1,117,space,9.212630900000022,None,0,1,0.7580063000000337,None,space,4.808186500000147,None,0,0,0,0,,,,,7,7,63,7,258.42751990000033,,,,,,,,,,,,,,,,,,,,,258.4123261,258.42751990000033,258.9112170000003,258.9156760999999,258.93270310000025,259.69480580000027,,,,,259.69500000000016,259.7100424,259.91059010000026,259.8943613000001,258.93270310000025,,,,,,,,0,1,0.7580063000000337,None,,,,,,,,829,25,V,R,2026-02-23_11h27.02.657,VisualSearch_2526_3,,2025.2.4,2026-02-23 11h27.02.903071 +0100,
tilted.xlsx,The target is tilted.,117,64,0,8,0,1,1,1,0,0,0,0,0,0,0,0,1,3,4,117,space,9.212630900000022,None,0,1,2.3313521999998557,None,space,4.808186500000147,None,0,0,0,0,,,,,8,0,64,6,259.91059010000026,,,,,,,,,,,,,,,,,,,,,259.89515759999995,259.91059010000026,260.3933589000003,260.3948290000003,260.4096623999999,262.74429680000003,,,,,262.74447210000017,262.7594895000002,262.9600943999999,262.9438675000001,260.4096623999999,,,,,,,,0,1,2.3313521999998557,None,,,,,,,,829,25,V,R,2026-02-23_11h27.02.657,VisualSearch_2526_3,,2025.2.4,2026-02-23 11h27.02.903071 +0100,
tilted.xlsx,The target is tilted.,117,65,1,8,1,1,1,1,1,1,1,1,0,0,0,0,0,7,8,117,space,9.212630900000022,None,1,1,2.8181233000000248,None,space,4.808186500000147,None,0,0,0,0,,,,,8,1,65,1,262.9600943999999,,,,,,,,,,,,,,,,,,,,,262.9446289000002,262.9600943999999,263.4440537999999,263.44895080000015,263.4652232000003,266.29357260000006,,,,,266.2937184000002,266.308853,266.5093466000003,266.4931295000001,263.4652232000003,,,,,,,,1,1,2.8181233000000248,None,,,,,,,,829,25,V,R,2026-02-23_11h27.02.657,VisualSearch_2526_3,,2025.2.4,2026-02-23 11h27.02.903071 +0100,
tilted.xlsx,The target is tilted.,117,66,2,8,0,0,0,0,0,0,0,0,0,0,0,0,1,1,1,117,space,9.212630900000022,None,0,1,0.5762038999996548,None,space,4.808186500000147,None,0,0,0,0,,,,,8,2,66,7,266.5093466000003,,,,,,,,,,,,,,,,,,,,,266.49384450000025,266.5093466000003,266.9927342000001,266.99672740000005,267.01181540000016,267.5942046,,,,,267.5944063000002,267.6087077000002,267.80887740000026,267.7931418000003,267.01181540000016,,,,,,,,0,1,0.5762038999996548,None,,,,,,,,829,25,V,R,2026-02-23_11h27.02.657,VisualSearch_2526_3,,2025.2.4,2026-02-23 11h27.02.903071 +0100,
tilted.xlsx,The target is tilted.,117,67,3,8,1,1,1,1,0,0,0,0,0,0,0,0,0,3,4,117,space,9.212630900000022,None,0,0,1.2247833999999784,None,space,4.808186500000147,None,0,0,0,0,,,,,8,3,67,2,267.80887740000026,,,,,,,,,,,,,,,,,,,,,267.79386710000017,267.80887740000026,268.2932667,268.29841110000007,268.3148003000001,269.5429925000003,,,,,269.5431856,269.55854020000015,269.7589604,269.74281010000004,268.3148003000001,,,,,,,,0,0,1.2247833999999784,None,,,,,,,,829,25,V,R,2026-02-23_11h27.02.657,VisualSearch_2526_3,,2025.2.4,2026-02-23 11h27.02.903071 +0100,
tilted.xlsx,The target is tilted.,117,68,4,8,0,1,1,1,1,1,1,1,0,0,0,0,1,7,8,117,space,9.212630900000022,None,1,0,2.594032900000002,None,space,4.808186500000147,None,0,0,0,0,,,,,8,4,68,5,269.7589604,,,,,,,,,,,,,,,,,,,,,269.7435220000002,269.7589604,270.24279460000025,270.24725639999997,270.2639383999999,272.8590846000002,,,,,272.85926530000006,272.87458240000024,273.0749756,273.05891010000005,270.2639383999999,,,,,,,,1,0,2.594032900000002,None,,,,,,,,829,25,V,R,2026-02-23_11h27.02.657,VisualSearch_2526_3,,2025.2.4,2026-02-23 11h27.02.903071 +0100,
tilted.xlsx,The target is tilted.,117,69,5,8,0,1,1,1,1,1,1,1,1,1,1,1,1,11,12,117,space,9.212630900000022,None,1,0,1.6676174999997784,None,space,4.808186500000147,None,0,0,0,0,,,,,8,5,69,4,273.0749756,,,,,,,,,,,,,,,,,,,,,273.05966260000014,273.0749756,273.5588445000003,273.56321049999997,273.57485320000023,275.2583321000002,,,,,275.2584925000001,275.27396369999997,275.4745026999999,275.4583080000002,273.57485320000023,,,,,,,,1,0,1.6676174999997784,None,,,,,,,,829,25,V,R,2026-02-23_11h27.02.657,VisualSearch_2526_3,,2025.2.4,2026-02-23 11h27.02.903071 +0100,
tilted.xlsx,The target is tilted.,117,70,6,8,1,1,1,1,1,1,1,1,1,1,1,1,0,11,12,117,space,9.212630900000022,None,0,0,3.2315354000002117,None,space,4.808186500000147,None,0,0,0,0,,,,,8,6,70,0,275.4745026999999,,,,,,,,,,,,,,,,,,,,,275.4590482000003,275.4745026999999,275.95844160000024,275.96283840000024,275.9788976,279.2243929000001,,,,,279.22455530000025,279.24007329999995,279.4402212,279.4239321,275.9788976,,,,,,,,0,0,3.2315354000002117,None,,,,,,,,829,25,V,R,2026-02-23_11h27.02.657,VisualSearch_2526_3,,2025.2.4,2026-02-23 11h27.02.903071 +0100,
tilted.xlsx,The target is tilted.,117,71,7,8,1,0,0,0,0,0,0,0,0,0,0,0,0,0,1,117,space,9.212630900000022,None,1,1,0.6749924999999166,None,space,4.808186500000147,None,0,0,0,0,,,,,8,7,71,3,279.4402212,,,,,,,,,,,,,,,,,,,,,279.4245095000001,279.4402212,279.92413780000015,279.9288061000002,279.9398521000003,280.6249120000002,,,,,280.6251026,280.63991970000006,280.84031270000014,280.8237815000002,279.9398521000003,,,,,,,,1,1,0.6749924999999166,None,,,,,,,,829,25,V,R,2026-02-23_11h27.02.657,VisualSearch_2526_3,,2025.2.4,2026-02-23 11h27.02.903071 +0100,
tilted.xlsx,The target is tilted.,117,72,0,9,0,1,1,1,1,1,1,1,0,0,0,0,1,7,8,117,space,9.212630900000022,None,1,0,1.164802100000088,None,space,4.808186500000147,None,0,0,0,0,,,,,9,0,72,5,280.84031270000014,,,,,,,,,,,,,,,,,,,,,280.8245348999999,280.84031270000014,281.3243698000001,281.32922830000007,281.3469349000002,282.5246646999999,,,,,282.5248580000002,282.5395994999999,282.74026920000006,282.72394060000033,281.3469349000002,,,,,,,,1,0,1.164802100000088,None,,,,,,,,829,25,V,R,2026-02-23_11h27.02.657,VisualSearch_2526_3,,2025.2.4,2026-02-23 11h27.02.903071 +0100,
tilted.xlsx,The target is tilted.,117,73,1,9,0,1,1,1,0,0,0,0,0,0,0,0,1,3,4,117,space,9.212630900000022,None,0,1,1.382706700000199,None,space,4.808186500000147,None,0,0,0,0,,,,,9,1,73,6,282.74026920000006,,,,,,,,,,,,,,,,,,,,,282.7246904000003,282.74026920000006,283.2238497000003,283.22842630000014,283.2398908,284.62352910000027,,,,,284.62368259999994,284.6392493000003,284.83921120000014,284.82315689999996,283.2398908,,,,,,,,0,1,1.382706700000199,None,,,,,,,,829,25,V,R,2026-02-23_11h27.02.657,VisualSearch_2526_3,,2025.2.4,2026-02-23 11h27.02.903071 +0100,
tilted.xlsx,The target is tilted.,117,74,2,9,0,0,0,0,0,0,0,0,0,0,0,0,1,1,1,117,space,9.212630900000022,None,0,1,1.3353265000000647,None,space,4.808186500000147,None,0,0,0,0,,,,,9,2,74,7,284.83921120000014,,,,,,,,,,,,,,,,,,,,,284.8238627999999,284.83921120000014,285.32362779999994,285.3282589999999,285.3450326000002,286.6905859000003,,,,,286.6907755000002,286.70557720000033,286.9060779000001,286.88992880000023,285.3450326000002,,,,,,,,0,1,1.3353265000000647,None,,,,,,,,829,25,V,R,2026-02-23_11h27.02.657,VisualSearch_2526_3,,2025.2.4,2026-02-23 11h27.02.903071 +0100,
tilted.xlsx,The target is tilted.,117,75,3,9,1,0,0,0,0,0,0,0,0,0,0,0,0,0,1,117,space,9.212630900000022,None,1,1,0.5779582999998638,None,space,4.808186500000147,None,0,0,0,0,,,,,9,3,75,3,286.9060779000001,,,,,,,,,,,,,,,,,,,,,286.8906761000003,286.9060779000001,287.38970880000034,287.3926295000001,287.40588909999997,287.9903121000002,,,,,287.9905174999999,288.0054428000003,288.20537060000015,288.1888463,287.40588909999997,,,,,,,,1,1,0.5779582999998638,None,,,,,,,,829,25,V,R,2026-02-23_11h27.02.657,VisualSearch_2526_3,,2025.2.4,2026-02-23 11h27.02.903071 +0100,
tilted.xlsx,The target is tilted.,117,76,4,9,1,1,1,1,1,1,1,1,0,0,0,0,0,7,8,117,space,9.212630900000022,None,1,1,1.0185578000000532,None,space,4.808186500000147,None,0,0,0,0,,,,,9,4,76,1,288.20537060000015,,,,,,,,,,,,,,,,,,,,,288.1890972000001,288.20537060000015,288.6895219000003,288.6956481000002,288.71792110000024,289.73928920000026,,,,,289.7394284000002,289.75495290000026,289.9555945000002,289.9394963,288.71792110000024,,,,,,,,1,1,1.0185578000000532,None,,,,,,,,829,25,V,R,2026-02-23_11h27.02.657,VisualSearch_2526_3,,2025.2.4,2026-02-23 11h27.02.903071 +0100,
tilted.xlsx,The target is tilted.,117,77,5,9,1,1,1,1,1,1,1,1,1,1,1,1,0,11,12,117,space,9.212630900000022,None,1,1,1.5291167999998834,None,space,4.808186500000147,None,0,0,0,0,,,,,9,5,77,0,289.9555945000002,,,,,,,,,,,,,,,,,,,,,289.94020980000005,289.9555945000002,290.4389355000003,290.4440635000001,290.4605274999999,292.0056533000002,,,,,292.00585219999994,292.0213017000001,292.22166460000017,292.2055845,290.4605274999999,,,,,,,,1,1,1.5291167999998834,None,,,,,,,,829,25,V,R,2026-02-23_11h27.02.657,VisualSearch_2526_3,,2025.2.4,2026-02-23 11h27.02.903071 +0100,
tilted.xlsx,The target is tilted.,117,78,6,9,1,1,1,1,0,0,0,0,0,0,0,0,0,3,4,117,space,9.212630900000022,None,1,1,1.1620404000000235,None,space,4.808186500000147,None,0,0,0,0,,,,,9,6,78,2,292.22166460000017,,,,,,,,,,,,,,,,,,,,,292.20631249999997,292.22166460000017,292.7058369000001,292.7107919,292.7270391000002,293.9053025000003,,,,,293.9054739000003,293.9208659000001,294.12152719999995,294.10512070000004,292.7270391000002,,,,,,,,1,1,1.1620404000000235,None,,,,,,,,829,25,V,R,2026-02-23_11h27.02.657,VisualSearch_2526_3,,2025.2.4,2026-02-23 11h27.02.903071 +0100,
tilted.xlsx,The target is tilted.,117,79,7,9,0,1,1,1,1,1,1,1,1,1,1,1,1,11,12,117,space,9.212630900000022,None,1,0,2.3701452000000245,None,space,4.808186500000147,None,0,0,0,0,,,,,9,7,79,4,294.12152719999995,,,,,,,,,,,,,,,,,,,,,294.1058627000002,294.12152719999995,294.6051851000002,294.6095626000001,294.62608320000027,297.0050395000003,,,,,297.0052132999999,297.02048330000025,297.2211030000003,297.2045605000003,294.62608320000027,,,,,,,,1,0,2.3701452000000245,None,,,,,,,,829,25,V,R,2026-02-23_11h27.02.657,VisualSearch_2526_3,,2025.2.4,2026-02-23 11h27.02.903071 +0100,
tilted.xlsx,The target is tilted.,117,80,0,10,1,1,1,1,1,1,1,1,1,1,1,1,0,11,12,117,space,9.212630900000022,None,1,1,1.4785988999997244,None,space,4.808186500000147,None,0,0,0,0,,,,,10,0,80,0,297.2211030000003,,,,,,,,,,,,,,,,,,,,,297.2053489,297.2211030000003,297.70447779999995,297.7088515999999,297.7261903000003,299.22117070000013,,,,,299.2213402000002,299.23667190000015,299.4373922,299.4211393999999,297.7261903000003,,,,,,,,1,1,1.4785988999997244,None,,,,,,,,829,25,V,R,2026-02-23_11h27.02.657,VisualSearch_2526_3,,2025.2.4,2026-02-23 11h27.02.903071 +0100,
tilted.xlsx,The target is tilted.,117,81,1,10,1,1,1,1,1,1,1,1,0,0,0,0,0,7,8,117,space,9.212630900000022,None,1,1,1.4132509999999456,None,space,4.808186500000147,None,0,0,0,0,,,,,10,1,81,1,299.4373922,,,,,,,,,,,,,,,,,,,,,299.4218871000003,299.4373922,299.92128660000026,299.9259677,299.9421947999999,301.3705560000003,,,,,301.37070110000013,301.38630890000013,301.5870533000002,301.5707531000003,299.9421947999999,,,,,,,,1,1,1.4132509999999456,None,,,,,,,,829,25,V,R,2026-02-23_11h27.02.657,VisualSearch_2526_3,,2025.2.4,2026-02-23 11h27.02.903071 +0100,
tilted.xlsx,The target is tilted.,117,82,2,10,0,1,1,1,0,0,0,0,0,0,0,0,1,3,4,117,space,9.212630900000022,None,0,1,0.9711610999997902,None,space,4.808186500000147,None,0,0,0,0,,,,,10,2,82,6,301.5870533000002,,,,,,,,,,,,,,,,,,,,,301.5714852000001,301.5870533000002,302.0707408000003,302.07510679999996,302.08971980000024,303.0711068999999,,,,,303.0712788000001,303.0859454000001,303.28678500000024,303.27064310000014,302.08971980000024,,,,,,,,0,1,0.9711610999997902,None,,,,,,,,829,25,V,R,2026-02-23_11h27.02.657,VisualSearch_2526_3,,2025.2.4,2026-02-23 11h27.02.903071 +0100,
tilted.xlsx,The target is tilted.,117,83,3,10,1,1,1,1,0,0,0,0,0,0,0,0,0,3,4,117,space,9.212630900000022,None,1,1,1.4453036999998403,None,space,4.808186500000147,None,0,0,0,0,,,,,10,3,83,2,303.28678500000024,,,,,,,,,,,,,,,,,,,,,303.27138749999995,303.28678500000024,303.7705702000003,303.77491150000014,303.79214470000034,305.25336719999996,,,,,305.2535283000002,305.26903440000024,305.4698308000002,305.45372450000013,303.79214470000034,,,,,,,,1,1,1.4453036999998403,None,,,,,,,,829,25,V,R,2026-02-23_11h27.02.657,VisualSearch_2526_3,,2025.2.4,2026-02-23 11h27.02.903071 +0100,
tilted.xlsx,The target is tilted.,117,84,4,10,0,1,1,1,1,1,1,1,1,1,1,1,1,11,12,117,space,9.212630900000022,None,1,0,1.7049887000002855,None,space,4.808186500000147,None,0,0,0,0,,,,,10,4,84,4,305.4698308000002,,,,,,,,,,,,,,,,,,,,,305.45446360000005,305.4698308000002,305.95344320000004,305.9578630000001,305.9755350999999,307.6869332000001,,,,,307.6871064000002,307.7027346,307.902196,307.8861031000001,305.9755350999999,,,,,,,,1,0,1.7049887000002855,None,,,,,,,,829,25,V,R,2026-02-23_11h27.02.657,VisualSearch_2526_3,,2025.2.4,2026-02-23 11h27.02.903071 +0100,
tilted.xlsx,The target is tilted.,117,85,5,10,1,0,0,0,0,0,0,0,0,0,0,0,0,0,1,117,space,9.212630900000022,None,1,1,0.8665501999998924,None,space,4.808186500000147,None,0,0,0,0,,,,,10,5,85,3,307.902196,,,,,,,,,,,,,,,,,,,,,307.88682900000003,307.902196,308.38624180000033,308.3912147000001,308.4067331000001,309.2866262000002,,,,,309.2867980000001,309.30229069999996,309.5022071000003,309.48567730000013,308.4067331000001,,,,,,,,1,1,0.8665501999998924,None,,,,,,,,829,25,V,R,2026-02-23_11h27.02.657,VisualSearch_2526_3,,2025.2.4,2026-02-23 11h27.02.903071 +0100,
tilted.xlsx,The target is tilted.,117,86,6,10,0,1,1,1,1,1,1,1,0,0,0,0,1,7,8,117,space,9.212630900000022,None,1,0,1.5843485999998848,None,space,4.808186500000147,None,0,0,0,0,,,,,10,6,86,5,309.5022071000003,,,,,,,,,,,,,,,,,,,,,309.4860229000001,309.5022071000003,309.9855809999999,309.9896127000002,310.0016719,311.6027902000001,,,,,311.60298280000006,311.61862229999997,311.8186958000001,311.80216139999993,310.0016719,,,,,,,,1,0,1.5843485999998848,None,,,,,,,,829,25,V,R,2026-02-23_11h27.02.657,VisualSearch_2526_3,,2025.2.4,2026-02-23 11h27.02.903071 +0100,
tilted.xlsx,The target is tilted.,117,87,7,10,0,0,0,0,0,0,0,0,0,0,0,0,1,1,1,117,space,9.212630900000022,None,0,1,0.9014345000000503,None,space,4.808186500000147,None,0,0,0,0,,,,,10,7,87,7,311.8186958000001,,,,,,,,,,,,,,,,,,,,,311.80289870000024,311.8186958000001,312.30215180000005,312.30661340000006,312.3229868000003,313.23596590000034,,,,,313.2361498,313.2516135000001,313.45182920000025,313.43537100000003,312.3229868000003,,,,,,,,0,1,0.9014345000000503,None,,,,,,,,829,25,V,R,2026-02-23_11h27.02.657,VisualSearch_2526_3,,2025.2.4,2026-02-23 11h27.02.903071 +0100,
tilted.xlsx,The target is tilted.,117,88,0,11,1,0,0,0,0,0,0,0,0,0,0,0,0,0,1,117,space,9.212630900000022,None,1,1,0.6177574000003005,None,space,4.808186500000147,None,0,0,0,0,,,,,11,0,88,3,313.45182920000025,,,,,,,,,,,,,,,,,,,,,313.43616840000004,313.45182920000025,313.93527870000025,313.9392496999999,313.95576329999994,314.5858469,,,,,314.5863574,314.60133240000005,314.80156290000014,314.7851829000001,313.95576329999994,,,,,,,,1,1,0.6177574000003005,None,,,,,,,,829,25,V,R,2026-02-23_11h27.02.657,VisualSearch_2526_3,,2025.2.4,2026-02-23 11h27.02.903071 +0100,
tilted.xlsx,The target is tilted.,117,89,1,11,0,1,1,1,1,1,1,1,0,0,0,0,1,7,8,117,space,9.212630900000022,None,0,1,2.1416157000003295,None,space,4.808186500000147,None,0,0,0,0,,,,,11,1,89,5,314.80156290000014,,,,,,,,,,,,,,,,,,,,,314.7859926000001,314.80156290000014,315.28517880000027,315.29016630000024,315.30665750000026,317.45172030000003,,,,,317.4518949000003,317.4676214000001,317.66729480000004,317.6512603000001,315.30665750000026,,,,,,,,0,1,2.1416157000003295,None,,,,,,,,829,25,V,R,2026-02-23_11h27.02.657,VisualSearch_2526_3,,2025.2.4,2026-02-23 11h27.02.903071 +0100,
tilted.xlsx,The target is tilted.,117,90,2,11,0,1,1,1,1,1,1,1,1,1,1,1,1,11,12,117,space,9.212630900000022,None,1,0,2.021994799999902,None,space,4.808186500000147,None,0,0,0,0,,,,,11,2,90,4,317.66729480000004,,,,,,,,,,,,,,,,,,,,,317.6519892000001,317.66729480000004,318.1517337,318.1566852000001,318.1735423,320.2011110000003,,,,,320.20129180000004,320.2171685000003,320.41722930000014,320.4011290000003,318.1735423,,,,,,,,1,0,2.021994799999902,None,,,,,,,,829,25,V,R,2026-02-23_11h27.02.657,VisualSearch_2526_3,,2025.2.4,2026-02-23 11h27.02.903071 +0100,
tilted.xlsx,The target is tilted.,117,91,3,11,0,0,0,0,0,0,0,0,0,0,0,0,1,1,1,117,space,9.212630900000022,None,0,1,0.7005191000002924,None,space,4.808186500000147,None,0,0,0,0,,,,,11,3,91,7,320.41722930000014,,,,,,,,,,,,,,,,,,,,,320.4018315000003,320.41722930000014,320.90109740000025,320.90555110000014,320.92167659999996,321.6348035000001,,,,,321.6349768,321.6503888000002,321.85040449999997,321.8342418000002,320.92167659999996,,,,,,,,0,1,0.7005191000002924,None,,,,,,,,829,25,V,R,2026-02-23_11h27.02.657,VisualSearch_2526_3,,2025.2.4,2026-02-23 11h27.02.903071 +0100,
tilted.xlsx,The target is tilted.,117,92,4,11,1,1,1,1,0,0,0,0,0,0,0,0,0,3,4,117,space,9.212630900000022,None,1,1,0.7821029000001545,None,space,4.808186500000147,None,0,0,0,0,,,,,11,4,92,2,321.85040449999997,,,,,,,,,,,,,,,,,,,,,321.83502320000025,321.85040449999997,322.3341015000001,322.3384436000001,322.3547106000001,323.1506893999999,,,,,323.1508606000002,323.1663171,323.3667846000003,323.3505189000002,322.3547106000001,,,,,,,,1,1,0.7821029000001545,None,,,,,,,,829,25,V,R,2026-02-23_11h27.02.657,VisualSearch_2526_3,,2025.2.4,2026-02-23 11h27.02.903071 +0100,
tilted.xlsx,The target is tilted.,117,93,5,11,0,1,1,1,0,0,0,0,0,0,0,0,1,3,4,117,space,9.212630900000022,None,0,1,1.409927300000163,None,space,4.808186500000147,None,0,0,0,0,,,,,11,5,93,6,323.3667846000003,,,,,,,,,,,,,,,,,,,,,323.3512885,323.3667846000003,323.8505521000002,323.8548595000002,323.8711069000001,325.2841612000002,,,,,325.2843184000003,325.2996065000002,325.4994606,325.48331740000003,323.8711069000001,,,,,,,,0,1,1.409927300000163,None,,,,,,,,829,25,V,R,2026-02-23_11h27.02.657,VisualSearch_2526_3,,2025.2.4,2026-02-23 11h27.02.903071 +0100,
tilted.xlsx,The target is tilted.,117,94,6,11,1,1,1,1,1,1,1,1,1,1,1,1,0,11,12,117,space,9.212630900000022,None,1,1,1.5936172000001534,None,space,4.808186500000147,None,0,0,0,0,,,,,11,6,94,0,325.4994606,,,,,,,,,,,,,,,,,,,,,325.48404400000027,325.4994606,325.9831723000002,325.98747200000025,326.0033677000001,327.5994277,,,,,327.5995035000001,327.61542469999995,327.8160189,327.79970000000003,326.0033677000001,,,,,,,,1,1,1.5936172000001534,None,,,,,,,,829,25,V,R,2026-02-23_11h27.02.657,VisualSearch_2526_3,,2025.2.4,2026-02-23 11h27.02.903071 +0100,
tilted.xlsx,The target is tilted.,117,95,7,11,1,1,1,1,1,1,1,1,0,0,0,0,0,7,8,117,space,9.212630900000022,None,1,1,1.9360217000003104,None,space,4.808186500000147,None,0,0,0,0,,,,,11,7,95,1,327.8160189,,,,,,,,,,,,,,,,,,,,,327.80044780000026,327.8160189,328.29981970000017,328.3044795999999,328.3203309999999,330.26624549999997,,,,,330.2664181,330.2818852999999,330.4822916000003,330.4660893,328.3203309999999,,,,,,,,1,1,1.9360217000003104,None,,,,,,,,829,25,V,R,2026-02-23_11h27.02.657,VisualSearch_2526_3,,2025.2.4,2026-02-23 11h27.02.903071 +0100,
tilted.xlsx,The target is tilted.,117,96,0,12,1,1,1,1,1,1,1,1,1,1,1,1,0,11,12,117,space,9.212630900000022,None,1,1,2.2831802000000607,None,space,4.808186500000147,None,0,0,0,0,,,,,12,0,96,0,330.4822916000003,,,,,,,,,,,,,,,,,,,,,330.4668188999999,330.4822916000003,330.96599920000017,330.97046180000007,330.9861767000002,333.2827253999999,,,,,333.2828973999999,333.2983448,333.49842179999996,333.48217520000026,330.9861767000002,,,,,,,,1,1,2.2831802000000607,None,,,,,,,,829,25,V,R,2026-02-23_11h27.02.657,VisualSearch_2526_3,,2025.2.4,2026-02-23 11h27.02.903071 +0100,
tilted.xlsx,The target is tilted.,117,97,1,12,1,1,1,1,1,1,1,1,0,0,0,0,0,7,8,117,space,9.212630900000022,None,1,1,1.100384800000029,None,space,4.808186500000147,None,0,0,0,0,,,,,12,1,97,1,333.49842179999996,,,,,,,,,,,,,,,,,,,,,333.48291930000005,333.49842179999996,333.9820657,333.986547,334.00272040000027,335.11505179999995,,,,,335.11519080000016,335.1308544000003,335.3315069,335.31515149999996,334.00272040000027,,,,,,,,1,1,1.100384800000029,None,,,,,,,,829,25,V,R,2026-02-23_11h27.02.657,VisualSearch_2526_3,,2025.2.4,2026-02-23 11h27.02.903071 +0100,
tilted.xlsx,The target is tilted.,117,98,2,12,0,1,1,1,1,1,1,1,1,1,1,1,1,11,12,117,space,9.212630900000022,None,0,1,2.2284724000001006,None,space,4.808186500000147,None,0,0,0,0,,,,,12,2,98,4,335.3315069,,,,,,,,,,,,,,,,,,,,,335.31587500000023,335.3315069,335.8148951000003,335.81894360000024,335.8319778,338.0653462,,,,,338.0655179999999,338.0808221000002,338.2809992000002,338.26442769999994,335.8319778,,,,,,,,0,1,2.2284724000001006,None,,,,,,,,829,25,V,R,2026-02-23_11h27.02.657,VisualSearch_2526_3,,2025.2.4,2026-02-23 11h27.02.903071 +0100,
tilted.xlsx,The target is tilted.,117,99,3,12,1,0,0,0,0,0,0,0,0,0,0,0,0,0,1,117,space,9.212630900000022,None,1,1,0.6306998000000021,None,space,4.808186500000147,None,0,0,0,0,,,,,12,3,99,3,338.2809992000002,,,,,,,,,,,,,,,,,,,,,338.26517170000034,338.2809992000002,338.7645799000002,338.7691053000003,338.7838987,339.4315442000002,,,,,339.4317178000001,339.4473532000002,339.64688350000006,339.6306582000002,338.7838987,,,,,,,,1,1,0.6306998000000021,None,,,,,,,,829,25,V,R,2026-02-23_11h27.02.657,VisualSearch_2526_3,,2025.2.4,2026-02-23 11h27.02.903071 +0100,
tilted.xlsx,The target is tilted.,117,100,4,12,0,0,0,0,0,0,0,0,0,0,0,0,1,1,1,117,space,9.212630900000022,None,0,1,0.8244918999998845,None,space,4.808186500000147,None,0,0,0,0,,,,,12,4,100,7,339.64688350000006,,,,,,,,,,,,,,,,,,,,,339.63123810000025,339.64688350000006,340.1312048,340.13562170000023,340.1507052000002,340.98121459999993,,,,,340.9813709,340.99676100000033,341.1972066000003,341.1810776000002,340.1507052000002,,,,,,,,0,1,0.8244918999998845,None,,,,,,,,829,25,V,R,2026-02-23_11h27.02.657,VisualSearch_2526_3,,2025.2.4,2026-02-23 11h27.02.903071 +0100,
tilted.xlsx,The target is tilted.,117,101,5,12,1,1,1,1,0,0,0,0,0,0,0,0,0,3,4,117,space,9.212630900000022,None,1,1,0.9084416000000601,None,space,4.808186500000147,None,0,0,0,0,,,,,12,5,101,2,341.1972066000003,,,,,,,,,,,,,,,,,,,,,341.18178549999993,341.1972066000003,341.6811224000003,341.6857434000003,341.7022095000002,342.6142140000002,,,,,342.61439310000014,342.63018390000025,342.83029860000033,342.8143494000001,341.7022095000002,,,,,,,,1,1,0.9084416000000601,None,,,,,,,,829,25,V,R,2026-02-23_11h27.02.657,VisualSearch_2526_3,,2025.2.4,2026-02-23 11h27.02.903071 +0100,
tilted.xlsx,The target is tilted.,117,102,6,12,0,1,1,1,1,1,1,1,0,0,0,0,1,7,8,117,space,9.212630900000022,None,1,0,0.8323247999996966,None,space,4.808186500000147,None,0,0,0,0,,,,,12,6,102,5,342.83029860000033,,,,,,,,,,,,,,,,,,,,,342.81517540000004,342.83029860000033,343.3140724,343.31922920000034,343.3346126000001,344.1809828999999,,,,,344.18115650000027,344.1965439999999,344.3965644,344.38064740000027,343.3346126000001,,,,,,,,1,0,0.8323247999996966,None,,,,,,,,829,25,V,R,2026-02-23_11h27.02.657,VisualSearch_2526_3,,2025.2.4,2026-02-23 11h27.02.903071 +0100,
tilted.xlsx,The target is tilted.,117,103,7,12,0,1,1,1,0,0,0,0,0,0,0,0,1,3,4,117,space,9.212630900000022,None,0,1,1.4744713999998567,None,space,4.808186500000147,None,0,0,0,0,,,,,12,7,103,6,344.3965644,,,,,,,,,,,,,,,,,,,,,344.3814477000001,344.3965644,344.88052629999993,344.8854316000002,344.9027325000002,346.38043259999995,,,,,346.38059980000025,346.3961069000002,346.5962623999999,346.58017470000004,344.9027325000002,,,,,,,,0,1,1.4744713999998567,None,,,,,,,,829,25,V,R,2026-02-23_11h27.02.657,VisualSearch_2526_3,,2025.2.4,2026-02-23 11h27.02.903071 +0100,
tilted.xlsx,The target is tilted.,117,104,0,13,1,1,1,1,1,1,1,1,1,1,1,1,0,11,12,117,space,9.212630900000022,None,1,1,2.6602121000000807,None,space,4.808186500000147,None,0,0,0,0,,,,,13,0,104,0,346.5962623999999,,,,,,,,,,,,,,,,,,,,,346.5808841000003,346.5962623999999,347.08019349999995,347.08512010000004,347.10120080000024,349.76332330000014,,,,,349.7634932000001,349.7789778000001,349.9786102000003,349.96286499999997,347.10120080000024,,,,,,,,1,1,2.6602121000000807,None,,,,,,,,829,25,V,R,2026-02-23_11h27.02.657,VisualSearch_2526_3,,2025.2.4,2026-02-23 11h27.02.903071 +0100,
tilted.xlsx,The target is tilted.,117,105,1,13,1,0,0,0,0,0,0,0,0,0,0,0,0,0,1,117,space,9.212630900000022,None,1,1,0.6019398000003093,None,space,4.808186500000147,None,0,0,0,0,,,,,13,1,105,3,349.9786102000003,,,,,,,,,,,,,,,,,,,,,349.9635894000003,349.9786102000003,350.4627347999999,350.4671464000003,350.47872129999996,351.0969427,,,,,351.0971459000002,351.11188200000015,351.3122926000001,351.2960382000001,350.47872129999996,,,,,,,,1,1,0.6019398000003093,None,,,,,,,,829,25,V,R,2026-02-23_11h27.02.657,VisualSearch_2526_3,,2025.2.4,2026-02-23 11h27.02.903071 +0100,
tilted.xlsx,The target is tilted.,117,106,2,13,1,1,1,1,0,0,0,0,0,0,0,0,0,3,4,117,space,9.212630900000022,None,1,1,1.005030799999986,None,space,4.808186500000147,None,0,0,0,0,,,,,13,2,106,2,351.3122926000001,,,,,,,,,,,,,,,,,,,,,351.2967413000001,351.3122926000001,351.79553680000026,351.79994620000025,351.81201390000024,352.8294925,,,,,352.8296846000003,352.84480329999997,353.0451447999999,353.0287824000002,351.81201390000024,,,,,,,,1,1,1.005030799999986,None,,,,,,,,829,25,V,R,2026-02-23_11h27.02.657,VisualSearch_2526_3,,2025.2.4,2026-02-23 11h27.02.903071 +0100,
tilted.xlsx,The target is tilted.,117,107,3,13,1,1,1,1,1,1,1,1,0,0,0,0,0,7,8,117,space,9.212630900000022,None,1,1,1.681206100000054,None,space,4.808186500000147,None,0,0,0,0,,,,,13,3,107,1,353.0451447999999,,,,,,,,,,,,,,,,,,,,,353.02959710000005,353.0451447999999,353.5291105000001,353.5341406000002,353.55065190000005,355.2457500999999,,,,,355.24594479999996,355.26136480000014,355.4610585999999,355.4449864000003,353.55065190000005,,,,,,,,1,1,1.681206100000054,None,,,,,,,,829,25,V,R,2026-02-23_11h27.02.657,VisualSearch_2526_3,,2025.2.4,2026-02-23 11h27.02.903071 +0100,
tilted.xlsx,The target is tilted.,117,108,4,13,0,1,1,1,1,1,1,1,0,0,0,0,1,7,8,117,space,9.212630900000022,None,1,0,1.8212996000002022,None,space,4.808186500000147,None,0,0,0,0,,,,,13,4,108,5,355.4610585999999,,,,,,,,,,,,,,,,,,,,,355.4457674,355.4610585999999,355.9450254000003,355.9495803,355.96609020000005,357.79511890000003,,,,,357.7952905000002,357.8109704000003,358.0110546000001,357.9944902000002,355.96609020000005,,,,,,,,1,0,1.8212996000002022,None,,,,,,,,829,25,V,R,2026-02-23_11h27.02.657,VisualSearch_2526_3,,2025.2.4,2026-02-23 11h27.02.903071 +0100,
tilted.xlsx,The target is tilted.,117,109,5,13,0,1,1,1,0,0,0,0,0,0,0,0,1,3,4,117,space,9.212630900000022,None,0,1,1.261156800000208,None,space,4.808186500000147,None,0,0,0,0,,,,,13,5,109,6,358.0110546000001,,,,,,,,,,,,,,,,,,,,,357.9952320000002,358.0110546000001,358.49471680000033,358.4991454000001,358.51735080000026,359.79387350000025,,,,,359.79395060000024,359.81033800000023,360.0107081000001,359.99418719999994,358.51735080000026,,,,,,,,0,1,1.261156800000208,None,,,,,,,,829,25,V,R,2026-02-23_11h27.02.657,VisualSearch_2526_3,,2025.2.4,2026-02-23 11h27.02.903071 +0100,
tilted.xlsx,The target is tilted.,117,110,6,13,0,1,1,1,1,1,1,1,1,1,1,1,1,11,12,117,space,9.212630900000022,None,0,1,2.1510815999999977,None,space,4.808186500000147,None,0,0,0,0,,,,,13,6,110,4,360.0107081000001,,,,,,,,,,,,,,,,,,,,,359.99496980000004,360.0107081000001,360.4942793,360.49901950000003,360.51556870000013,362.6775716000002,,,,,362.6777565000002,362.69347560000006,362.89364720000003,362.87738549999995,,,,,,,,,0,1,2.1510815999999977,None,,,,,,,,829,25,V,R,2026-02-23_11h27.02.657,VisualSearch_2526_3,,2025.2.4,2026-02-23 11h27.02.903071 +0100,
tilted.xlsx,The target is tilted.,117,111,7,13,0,0,0,0,0,0,0,0,0,0,0,0,1,1,1,117,space,9.212630900000022,None,0,1,0.8946051000002626,None,space,4.808186500000147,None,0,0,0,0,,,,,13,7,111,7,362.89364720000003,,,,,,,,,,,,,,,,,,,,,362.8781518999999,362.89364720000003,363.3772965000003,363.3817441000001,363.3971518000003,364.29455499999995,,,,,364.29475660000026,364.3096251000002,364.51000410000006,364.4938416,363.3971518000003,,,,,,,,0,1,0.8946051000002626,None,,,,,,,,829,25,V,R,2026-02-23_11h27.02.657,VisualSearch_2526_3,,2025.2.4,2026-02-23 11h27.02.903071 +0100,
tilted.xlsx,The target is tilted.,117,112,0,14,1,0,0,0,0,0,0,0,0,0,0,0,0,0,1,117,space,9.212630900000022,None,1,1,0.5499607000001561,None,space,4.808186500000147,None,0,0,0,0,,,,,14,0,112,3,364.51000410000006,,,,,,,,,,,,,,,,,,,,,364.49455220000027,364.51000410000006,364.99383190000026,364.99876730000005,365.01576060000025,365.57759540000006,,,,,365.5777876000002,365.5932740000003,365.79279270000006,365.7764992000002,365.01576060000025,,,,,,,,1,1,0.5499607000001561,None,,,,,,,,829,25,V,R,2026-02-23_11h27.02.657,VisualSearch_2526_3,,2025.2.4,2026-02-23 11h27.02.903071 +0100,
tilted.xlsx,The target is tilted.,117,113,1,14,0,0,0,0,0,0,0,0,0,0,0,0,1,1,1,117,space,9.212630900000022,None,0,1,1.3413872000000993,None,space,4.808186500000147,None,0,0,0,0,,,,,14,1,113,7,365.79279270000006,,,,,,,,,,,,,,,,,,,,,365.7771805000002,365.79279270000006,366.2766783000002,366.2815118000003,366.2923447000003,367.64361770000005,,,,,367.6437888999999,367.6593226,367.85951460000024,367.84332700000004,366.2923447000003,,,,,,,,0,1,1.3413872000000993,None,,,,,,,,829,25,V,R,2026-02-23_11h27.02.657,VisualSearch_2526_3,,2025.2.4,2026-02-23 11h27.02.903071 +0100,
tilted.xlsx,The target is tilted.,117,114,2,14,1,1,1,1,1,1,1,1,0,0,0,0,0,7,8,117,space,9.212630900000022,None,1,1,2.123159900000246,None,space,4.808186500000147,None,0,0,0,0,,,,,14,2,114,1,367.85951460000024,,,,,,,,,,,,,,,,,,,,,367.8440376000003,367.85951460000024,368.3431055000001,368.3475397000002,368.3636584000001,370.49326199999996,,,,,370.49343369999997,370.5087619000001,370.7085509000003,370.6923260000003,368.3636584000001,,,,,,,,1,1,2.123159900000246,None,,,,,,,,829,25,V,R,2026-02-23_11h27.02.657,VisualSearch_2526_3,,2025.2.4,2026-02-23 11h27.02.903071 +0100,
tilted.xlsx,The target is tilted.,117,115,3,14,0,1,1,1,1,1,1,1,0,0,0,0,1,7,8,117,space,9.212630900000022,None,1,0,3.2023816999999326,None,space,4.808186500000147,None,0,0,0,0,,,,,14,3,115,5,370.7085509000003,,,,,,,,,,,,,,,,,,,,,370.6929645,370.7085509000003,371.1922228000003,371.1969288,371.2117102000002,374.4259241,,,,,374.42609900000025,374.4412348999999,374.641478,374.6253243000001,371.2117102000002,,,,,,,,1,0,3.2023816999999326,None,,,,,,,,829,25,V,R,2026-02-23_11h27.02.657,VisualSearch_2526_3,,2025.2.4,2026-02-23 11h27.02.903071 +0100,
tilted.xlsx,The target is tilted.,117,116,4,14,0,1,1,1,1,1,1,1,1,1,1,1,1,11,12,117,space,9.212630900000022,None,1,0,3.1711224000000584,None,space,4.808186500000147,None,0,0,0,0,,,,,14,4,116,4,374.641478,,,,,,,,,,,,,,,,,,,,,374.62607000000025,374.641478,375.1252396,375.1296339999999,375.14566860000014,378.3254096999999,,,,,378.3255890999999,378.3408996000003,378.54097040000033,378.52443870000025,375.14566860000014,,,,,,,,1,0,3.1711224000000584,None,,,,,,,,829,25,V,R,2026-02-23_11h27.02.657,VisualSearch_2526_3,,2025.2.4,2026-02-23 11h27.02.903071 +0100,
tilted.xlsx,The target is tilted.,117,117,5,14,0,1,1,1,0,0,0,0,0,0,0,0,1,3,4,117,space,9.212630900000022,None,0,1,1.8700928999996904,None,space,4.808186500000147,None,0,0,0,0,,,,,14,5,117,6,378.54097040000033,,,,,,,,,,,,,,,,,,,,,378.5251680000001,378.54097040000033,379.0243991000002,379.0287771000003,379.0406661000002,380.9248889999999,,,,,380.9250624000001,380.9403446000001,381.14059590000033,381.12425140000005,379.0406661000002,,,,,,,,0,1,1.8700928999996904,None,,,,,,,,829,25,V,R,2026-02-23_11h27.02.657,VisualSearch_2526_3,,2025.2.4,2026-02-23 11h27.02.903071 +0100,
tilted.xlsx,The target is tilted.,117,118,6,14,1,1,1,1,1,1,1,1,1,1,1,1,0,11,12,117,space,9.212630900000022,None,1,1,0.6075605000000905,None,space,4.808186500000147,None,0,0,0,0,,,,,14,6,118,0,381.14059590000033,,,,,,,,,,,,,,,,,,,,,381.1249863000003,381.14059590000033,381.6242669000003,381.62821380000014,381.6430934,382.2574577999999,,,,,382.2576260000001,382.2736057000002,382.47370490000003,382.45708160000004,381.6430934,,,,,,,,1,1,0.6075605000000905,None,,,,,,,,829,25,V,R,2026-02-23_11h27.02.657,VisualSearch_2526_3,,2025.2.4,2026-02-23 11h27.02.903071 +0100,
tilted.xlsx,The target is tilted.,117,119,7,14,1,1,1,1,0,0,0,0,0,0,0,0,0,3,4,117,space,9.212630900000022,None,1,1,0.9493935999998939,None,space,4.808186500000147,None,0,0,0,0,,,,,14,7,119,2,382.47370490000003,,,,,,,,,,,,,,,,,,,,,382.45776019999994,382.47370490000003,382.9574980000002,382.96180700000014,382.9789464999999,383.9411223000002,,,,,383.9412972,383.95656869999993,384.17195979999997,384.1405405999999,382.9789464999999,,,,,,,,1,1,0.9493935999998939,None,,,,,,,,829,25,V,R,2026-02-23_11h27.02.657,VisualSearch_2526_3,,2025.2.4,2026-02-23 11h27.02.903071 +0100,
tilted.xlsx,The target is tilted.,117,0,0,0,,,,,,,,,,,,,,,,,space,9.212630900000022,None,,,,,space,4.808186500000147,None,0,0,0,0,,,,,,,,,,,,,,,,,,,,,,,,,,,,,,,,,,,,,,,,,,,,,,,,,,,,,,,,,,,,,,,829,25,V,R,2026-02-23_11h27.02.657,VisualSearch_2526_3,,2025.2.4,2026-02-23 11h27.02.903071 +0100,
vertical.xlsx,The target is tilted.,135,0,0,0,0,1,1,1,1,1,1,1,1,1,1,1,1,11,12,135,space,4.572820600000341,None,0,1,2.5215651000003163,None,,,,0,1,1,1,0,0,0,4,,,,,388.77690359999997,,,,,,,,,,,,,,,384.17195979999997,384.17195979999997,384.17195979999997,space,4.572820600000341,None,388.77293550000013,388.77690359999997,389.27255920000016,389.27728490000027,389.2945702000002,391.82309699999996,0,1,2.5215651000003163,None,391.8232729000001,391.83860129999994,392.0382764000001,392.0219763,,,,,,,,,,,,,,,,,,,,829,25,V,R,2026-02-23_11h27.02.657,VisualSearch_2526_3,,2025.2.4,2026-02-23 11h27.02.903071 +0100,
vertical.xlsx,The target is tilted.,135,1,1,0,0,0,0,0,0,0,0,0,0,0,0,0,1,1,1,135,space,4.572820600000341,None,0,1,0.5706457000001137,None,,,,0,1,1,1,0,1,1,7,,,,,392.0382764000001,,,,,,,,,,,,,,,,,,,,,392.0223828000003,392.0382764000001,392.5228285000003,392.5278148000002,392.5380166,393.12370420000025,0,1,0.5706457000001137,None,393.12389110000004,393.13830080000025,393.33864459999995,393.32252500000004,392.5380166,,,,,,,,,,,,,,,,,,,829,25,V,R,2026-02-23_11h27.02.657,VisualSearch_2526_3,,2025.2.4,2026-02-23 11h27.02.903071 +0100,
vertical.xlsx,The target is tilted.,135,2,2,0,1,1,1,1,1,1,1,1,0,0,0,0,0,7,8,135,space,4.572820600000341,None,1,1,1.0403040000001056,None,,,,0,1,1,1,0,2,2,1,,,,,393.33864459999995,,,,,,,,,,,,,,,,,,,,,393.32330649999994,393.33864459999995,393.82244660000015,393.8274842000001,393.8441458000002,394.8886114000002,1,1,1.0403040000001056,None,394.8887067999999,394.9046873000002,395.1048513999999,395.088925,393.8441458000002,,,,,,,,,,,,,,,,,,,829,25,V,R,2026-02-23_11h27.02.657,VisualSearch_2526_3,,2025.2.4,2026-02-23 11h27.02.903071 +0100,
vertical.xlsx,The target is tilted.,135,3,3,0,0,1,1,1,1,1,1,1,0,0,0,0,1,7,8,135,space,4.572820600000341,None,0,1,1.7173541000001933,None,,,,0,1,1,1,0,3,3,5,,,,,395.1048513999999,,,,,,,,,,,,,,,,,,,,,395.0896974000002,395.1048513999999,395.5888196000001,395.59356660000003,395.60465320000003,397.33847030000015,0,1,1.7173541000001933,None,397.3385791999999,397.35412270000006,397.5542168000002,397.5379151000002,395.60465320000003,,,,,,,,,,,,,,,,,,,829,25,V,R,2026-02-23_11h27.02.657,VisualSearch_2526_3,,2025.2.4,2026-02-23 11h27.02.903071 +0100,
vertical.xlsx,The target is tilted.,135,4,4,0,1,0,0,0,0,0,0,0,0,0,0,0,0,0,1,135,space,4.572820600000341,None,1,1,0.5062394000001404,None,,,,0,1,1,1,0,4,4,3,,,,,397.5542168000002,,,,,,,,,,,,,,,,,,,,,397.53859740000007,397.5542168000002,398.0378989999999,398.0424478,398.0586793000002,398.5709433000002,1,1,0.5062394000001404,None,398.5710337999999,398.58744430000024,,398.7711875,398.0586793000002,,,,,,,,,,,,,,,,,,,829,25,V,R,2026-02-23_11h27.02.657,VisualSearch_2526_3,,2025.2.4,2026-02-23 11h27.02.903071 +0100,
vertical.xlsx,The target is tilted.,135,5,5,0,0,1,1,1,0,0,0,0,0,0,0,0,1,3,4,135,space,4.572820600000341,None,0,1,0.6511269000002358,None,,,,0,1,1,1,0,5,5,6,,,,,398.7876569,,,,,,,,,,,,,,,,,,,,,398.77190070000006,398.7876569,399.27122899999995,399.2756787000003,399.2908126000002,399.9544424999999,0,1,0.6511269000002358,None,399.95453640000005,399.9705121000002,400.1708819999999,400.1545403,,,,,,,,,,,,,,,,,,,,829,25,V,R,2026-02-23_11h27.02.657,VisualSearch_2526_3,,2025.2.4,2026-02-23 11h27.02.903071 +0100,
vertical.xlsx,The target is tilted.,135,6,6,0,1,1,1,1,1,1,1,1,1,1,1,1,0,11,12,135,space,4.572820600000341,None,1,1,0.8389300999997431,None,,,,0,1,1,1,0,6,6,0,,,,,400.1708819999999,,,,,,,,,,,,,,,,,,,,,400.15534000000025,400.1708819999999,400.65452589999995,400.65953100000024,400.6769521000001,401.5215615000002,1,1,0.8389300999997431,None,401.52174990000003,401.53705990000026,401.7371482000003,401.7209534000003,400.6769521000001,,,,,,,,,,,,,,,,,,,829,25,V,R,2026-02-23_11h27.02.657,VisualSearch_2526_3,,2025.2.4,2026-02-23 11h27.02.903071 +0100,
vertical.xlsx,The target is tilted.,135,7,7,0,1,1,1,1,0,0,0,0,0,0,0,0,0,3,4,135,space,4.572820600000341,None,1,1,0.709275499999876,None,,,,0,1,1,1,0,7,7,2,,,,,401.7371482000003,,,,,,,,,,,,,,,,,,,,,401.7216506,401.7371482000003,402.2211210999999,402.2260971999999,402.2437878999999,402.9543256000002,1,1,0.709275499999876,None,402.9545214,402.9700052000003,403.1703029,403.1542889000002,402.2437878999999,,,,,,,,,,,,,,,,,,,829,25,V,R,2026-02-23_11h27.02.657,VisualSearch_2526_3,,2025.2.4,2026-02-23 11h27.02.903071 +0100,
vertical.xlsx,The target is tilted.,135,0,0,0,1,1,1,1,0,0,0,0,0,0,0,0,0,3,4,135,space,4.572820600000341,None,1,1,0.561765700000251,None,space,1.4896848999997019,None,0,1,1,1,,,,,0,0,0,2,404.70436870000003,,,,,,,,,,,,,,,,,,,,,404.7000173000001,404.70436870000003,405.1866565,405.19181000000026,405.2057347,405.7710154000001,,,,,405.7712482000002,405.7861929999999,405.98650050000015,405.9700404,,403.16187530000025,403.1703029,403.1703029,404.67116609999994,space,1.4896848999997019,None,1,1,0.561765700000251,None,,,,,,,,829,25,V,R,2026-02-23_11h27.02.657,VisualSearch_2526_3,,2025.2.4,2026-02-23 11h27.02.903071 +0100,
vertical.xlsx,The target is tilted.,135,1,1,0,1,1,1,1,1,1,1,1,0,0,0,0,0,7,8,135,space,4.572820600000341,None,1,1,0.9883761999999479,None,space,1.4896848999997019,None,0,1,1,1,,,,,0,1,1,1,405.98650050000015,,,,,,,,,,,,,,,,,,,,,405.9708697000001,405.98650050000015,406.4700577000003,406.47518360000004,406.4939268000003,407.48699720000013,,,,,407.4871879000002,407.5027632000001,407.70287099999996,407.68682480000007,406.4939268000003,,,,,,,,1,1,0.9883761999999479,None,,,,,,,,829,25,V,R,2026-02-23_11h27.02.657,VisualSearch_2526_3,,2025.2.4,2026-02-23 11h27.02.903071 +0100,
vertical.xlsx,The target is tilted.,135,2,2,0,0,0,0,0,0,0,0,0,0,0,0,0,1,1,1,135,space,4.572820600000341,None,0,1,0.5676143999999113,None,space,1.4896848999997019,None,0,1,1,1,,,,,0,2,2,7,407.70287099999996,,,,,,,,,,,,,,,,,,,,,407.68763050000007,407.70287099999996,408.18674009999995,408.1916793999999,408.20744779999995,408.78706060000013,,,,,408.78725010000016,408.8025683000001,409.00249239999994,408.9864127999999,408.20744779999995,,,,,,,,0,1,0.5676143999999113,None,,,,,,,,829,25,V,R,2026-02-23_11h27.02.657,VisualSearch_2526_3,,2025.2.4,2026-02-23 11h27.02.903071 +0100,
vertical.xlsx,The target is tilted.,135,3,3,0,0,1,1,1,1,1,1,1,1,1,1,1,1,11,12,135,space,4.572820600000341,None,0,1,1.1693206999998438,None,space,1.4896848999997019,None,0,1,1,1,,,,,0,3,3,4,409.00249239999994,,,,,,,,,,,,,,,,,,,,,408.98716000000013,409.00249239999994,409.4859727000003,409.4896598,409.5020623999999,410.68667460000006,,,,,410.6868718999999,410.70225130000017,410.9024908000001,410.88624100000015,409.5020623999999,,,,,,,,0,1,1.1693206999998438,None,,,,,,,,829,25,V,R,2026-02-23_11h27.02.657,VisualSearch_2526_3,,2025.2.4,2026-02-23 11h27.02.903071 +0100,
vertical.xlsx,The target is tilted.,135,4,4,0,0,1,1,1,1,1,1,1,0,0,0,0,1,7,8,135,space,4.572820600000341,None,0,1,0.9239974000001894,None,space,1.4896848999997019,None,0,1,1,1,,,,,0,4,4,5,410.9024908000001,,,,,,,,,,,,,,,,,,,,,410.8870589000003,410.9024908000001,411.38620530000026,411.39117410000017,411.40757110000004,412.3362514999999,,,,,412.33646450000015,412.3519344000001,412.5520604000003,412.5358323999999,411.40757110000004,,,,,,,,0,1,0.9239974000001894,None,,,,,,,,829,25,V,R,2026-02-23_11h27.02.657,VisualSearch_2526_3,,2025.2.4,2026-02-23 11h27.02.903071 +0100,
vertical.xlsx,The target is tilted.,135,5,5,0,1,0,0,0,0,0,0,0,0,0,0,0,0,0,1,135,space,4.572820600000341,None,1,1,0.40738429999964865,None,space,1.4896848999997019,None,0,1,1,1,,,,,0,5,5,3,412.5520604000003,,,,,,,,,,,,,,,,,,,,,412.5365842000001,412.5520604000003,413.0359168,413.0408892999999,413.0561923,413.4696214999999,,,,,413.4698115000001,413.48513030000004,413.6851501000001,413.6692210000001,413.0561923,,,,,,,,1,1,0.40738429999964865,None,,,,,,,,829,25,V,R,2026-02-23_11h27.02.657,VisualSearch_2526_3,,2025.2.4,2026-02-23 11h27.02.903071 +0100,
vertical.xlsx,The target is tilted.,135,6,6,0,1,1,1,1,1,1,1,1,1,1,1,1,0,11,12,135,space,4.572820600000341,None,0,0,0.7865826000002016,None,space,1.4896848999997019,None,0,1,1,1,,,,,0,6,6,0,413.6851501000001,,,,,,,,,,,,,,,,,,,,,413.6700241000003,413.6851501000001,414.1690864000002,414.1738003999999,414.1903916000001,414.9858655000003,,,,,414.9860604999999,415.0013699000001,415.2016355999999,415.1853286999999,414.1903916000001,,,,,,,,0,0,0.7865826000002016,None,,,,,,,,829,25,V,R,2026-02-23_11h27.02.657,VisualSearch_2526_3,,2025.2.4,2026-02-23 11h27.02.903071 +0100,
vertical.xlsx,The target is tilted.,135,7,7,0,0,1,1,1,0,0,0,0,0,0,0,0,1,3,4,135,space,4.572820600000341,None,0,1,0.904928800000107,None,space,1.4896848999997019,None,0,1,1,1,,,,,0,7,7,6,415.2016355999999,,,,,,,,,,,,,,,,,,,,,415.18606150000005,415.2016355999999,415.6854572000002,415.69040240000004,415.7071626000002,416.61899110000013,,,,,416.6191656000001,416.6344971000003,416.8346411000002,416.8184792000002,415.7071626000002,,,,,,,,0,1,0.904928800000107,None,,,,,,,,829,25,V,R,2026-02-23_11h27.02.657,VisualSearch_2526_3,,2025.2.4,2026-02-23 11h27.02.903071 +0100,
vertical.xlsx,The target is tilted.,135,8,0,1,1,1,1,1,1,1,1,1,0,0,0,0,0,7,8,135,space,4.572820600000341,None,0,0,1.0556778000000122,None,space,1.4896848999997019,None,0,1,1,1,,,,,1,0,8,1,416.8346411000002,,,,,,,,,,,,,,,,,,,,,416.8192455000003,416.8346411000002,417.31855620000033,417.3233244000003,417.33962010000005,418.4022202000001,,,,,418.4024118000002,418.4176557999999,418.61733159999994,418.60170930000004,417.33962010000005,,,,,,,,0,0,1.0556778000000122,None,,,,,,,,829,25,V,R,2026-02-23_11h27.02.657,VisualSearch_2526_3,,2025.2.4,2026-02-23 11h27.02.903071 +0100,
vertical.xlsx,The target is tilted.,135,9,1,1,1,0,0,0,0,0,0,0,0,0,0,0,0,0,1,135,space,4.572820600000341,None,1,1,0.40785520000008546,None,space,1.4896848999997019,None,0,1,1,1,,,,,1,1,9,3,418.61733159999994,,,,,,,,,,,,,,,,,,,,,418.6024493,418.61733159999994,419.1017437999999,419.10670819999996,419.12497040000017,419.53493930000013,,,,,419.5351310000001,419.55085959999997,419.7504073,419.73392060000015,419.12497040000017,,,,,,,,1,1,0.40785520000008546,None,,,,,,,,829,25,V,R,2026-02-23_11h27.02.657,VisualSearch_2526_3,,2025.2.4,2026-02-23 11h27.02.903071 +0100,
vertical.xlsx,The target is tilted.,135,10,2,1,1,1,1,1,0,0,0,0,0,0,0,0,0,3,4,135,space,4.572820600000341,None,1,1,0.6981898000003639,None,space,1.4896848999997019,None,0,1,1,1,,,,,1,2,10,2,419.7504073,,,,,,,,,,,,,,,,,,,,,419.7342343,419.7504073,420.2344664000002,420.2389983000003,420.2530727000003,420.96713150000005,,,,,420.96721750000006,420.9836196000001,,421.16754579999997,420.2530727000003,,,,,,,,1,1,0.6981898000003639,None,,,,,,,,829,25,V,R,2026-02-23_11h27.02.657,VisualSearch_2526_3,,2025.2.4,2026-02-23 11h27.02.903071 +0100,
vertical.xlsx,The target is tilted.,135,11,3,1,0,1,1,1,1,1,1,1,0,0,0,0,1,7,8,135,space,4.572820600000341,None,0,1,0.9474250999996912,None,space,1.4896848999997019,None,0,1,1,1,,,,,1,3,11,5,421.1838845000002,,,,,,,,,,,,,,,,,,,,,421.1682943999999,421.1838845000002,421.6675586000001,421.67256720000023,421.6837125000002,422.6343514,,,,,422.63452800000005,422.6502206,422.8502013000002,422.8340903000003,,,,,,,,,0,1,0.9474250999996912,None,,,,,,,,829,25,V,R,2026-02-23_11h27.02.657,VisualSearch_2526_3,,2025.2.4,2026-02-23 11h27.02.903071 +0100,
vertical.xlsx,The target is tilted.,135,12,4,1,0,1,1,1,0,0,0,0,0,0,0,0,1,3,4,135,space,4.572820600000341,None,0,1,0.5226211999997759,None,space,1.4896848999997019,None,0,1,1,1,,,,,1,4,12,6,422.8502013000002,,,,,,,,,,,,,,,,,,,,,422.8348304000001,422.8502013000002,423.33424330000025,423.3393851999999,423.3571740000002,423.8841043000002,,,,,423.884274,423.90005150000025,424.1002824000002,424.08406220000006,423.3571740000002,,,,,,,,0,1,0.5226211999997759,None,,,,,,,,829,25,V,R,2026-02-23_11h27.02.657,VisualSearch_2526_3,,2025.2.4,2026-02-23 11h27.02.903071 +0100,
vertical.xlsx,The target is tilted.,135,13,5,1,0,0,0,0,0,0,0,0,0,0,0,0,1,1,1,135,space,4.572820600000341,None,0,1,0.4866968999999699,None,space,1.4896848999997019,None,0,1,1,1,,,,,1,5,13,7,424.1002824000002,,,,,,,,,,,,,,,,,,,,,424.0849174,424.1002824000002,424.5840254,424.58905129999994,424.6045672,425.10080689999995,,,,,425.1009855000002,425.11666060000016,425.3166504999999,425.3005949000003,424.6045672,,,,,,,,0,1,0.4866968999999699,None,,,,,,,,829,25,V,R,2026-02-23_11h27.02.657,VisualSearch_2526_3,,2025.2.4,2026-02-23 11h27.02.903071 +0100,
vertical.xlsx,The target is tilted.,135,14,6,1,1,1,1,1,1,1,1,1,1,1,1,1,0,11,12,135,space,4.572820600000341,None,1,1,0.8985929000000397,None,space,1.4896848999997019,None,0,1,1,1,,,,,1,6,14,0,425.3166504999999,,,,,,,,,,,,,,,,,,,,,425.30139670000017,425.3166504999999,425.8004974999999,425.80543720000014,425.8226530000002,426.73356360000025,,,,,426.7337322000003,426.7495282,426.94976369999995,426.9337749000001,425.8226530000002,,,,,,,,1,1,0.8985929000000397,None,,,,,,,,829,25,V,R,2026-02-23_11h27.02.657,VisualSearch_2526_3,,2025.2.4,2026-02-23 11h27.02.903071 +0100,
vertical.xlsx,The target is tilted.,135,15,7,1,0,1,1,1,1,1,1,1,1,1,1,1,1,11,12,135,space,4.572820600000341,None,0,1,1.915915000000041,None,space,1.4896848999997019,None,0,1,1,1,,,,,1,7,15,4,426.94976369999995,,,,,,,,,,,,,,,,,,,,,426.9345948,426.94976369999995,427.43303560000004,427.43819220000023,427.4544659000003,429.3835157000003,,,,,429.38368630000014,429.39911340000026,429.5992497000002,429.5831455000002,427.4544659000003,,,,,,,,0,1,1.915915000000041,None,,,,,,,,829,25,V,R,2026-02-23_11h27.02.657,VisualSearch_2526_3,,2025.2.4,2026-02-23 11h27.02.903071 +0100,
vertical.xlsx,The target is tilted.,135,16,0,2,0,1,1,1,1,1,1,1,0,0,0,0,1,7,8,135,space,4.572820600000341,None,0,1,1.4052527000003465,None,space,1.4896848999997019,None,0,1,1,1,,,,,2,0,16,5,429.5992497000002,,,,,,,,,,,,,,,,,,,,,429.5838910000002,429.5992497000002,430.0830228,430.08732480000026,430.098888,431.51614340000015,,,,,431.5163150000003,431.5321100000001,431.73227640000005,431.7158945000001,430.098888,,,,,,,,0,1,1.4052527000003465,None,,,,,,,,829,25,V,R,2026-02-23_11h27.02.657,VisualSearch_2526_3,,2025.2.4,2026-02-23 11h27.02.903071 +0100,
vertical.xlsx,The target is tilted.,135,17,1,2,1,1,1,1,0,0,0,0,0,0,0,0,0,3,4,135,space,4.572820600000341,None,0,0,1.5438530000001265,None,space,1.4896848999997019,None,0,1,1,1,,,,,2,1,17,2,431.73227640000005,,,,,,,,,,,,,,,,,,,,,431.71661250000034,431.73227640000005,432.21610520000013,432.2210178,432.2363588000003,433.7829641000003,,,,,433.78315569999995,433.79860800000006,433.9985363999999,433.9824217999999,432.2363588000003,,,,,,,,0,0,1.5438530000001265,None,,,,,,,,829,25,V,R,2026-02-23_11h27.02.657,VisualSearch_2526_3,,2025.2.4,2026-02-23 11h27.02.903071 +0100,
vertical.xlsx,The target is tilted.,135,18,2,2,0,1,1,1,1,1,1,1,1,1,1,1,1,11,12,135,space,4.572820600000341,None,0,1,3.589242199999717,None,space,1.4896848999997019,None,0,1,1,1,,,,,2,2,18,4,433.9985363999999,,,,,,,,,,,,,,,,,,,,,433.98326450000013,433.9985363999999,434.4825065,434.4876168999999,434.50472720000016,438.098442,,,,,438.0986112999999,438.11401460000025,438.3140936,438.2983174000001,434.50472720000016,,,,,,,,0,1,3.589242199999717,None,,,,,,,,829,25,V,R,2026-02-23_11h27.02.657,VisualSearch_2526_3,,2025.2.4,2026-02-23 11h27.02.903071 +0100,
vertical.xlsx,The target is tilted.,135,19,3,2,1,0,0,0,0,0,0,0,0,0,0,0,0,0,1,135,space,4.572820600000341,None,1,1,0.5333926000002975,None,space,1.4896848999997019,None,0,1,1,1,,,,,2,3,19,3,438.3140936,,,,,,,,,,,,,,,,,,,,,438.2990361000002,438.3140936,438.7980815000001,438.80244660000017,438.81798930000014,439.3649902000002,,,,,439.36517840000033,439.3808557000002,439.58053310000014,439.56452880000006,438.81798930000014,,,,,,,,1,1,0.5333926000002975,None,,,,,,,,829,25,V,R,2026-02-23_11h27.02.657,VisualSearch_2526_3,,2025.2.4,2026-02-23 11h27.02.903071 +0100,
vertical.xlsx,The target is tilted.,135,20,4,2,1,1,1,1,1,1,1,1,1,1,1,1,0,11,12,135,space,4.572820600000341,None,1,1,0.9467233000000306,None,space,1.4896848999997019,None,0,1,1,1,,,,,2,4,20,0,439.58053310000014,,,,,,,,,,,,,,,,,,,,,439.56529690000025,439.58053310000014,440.06458169999996,440.0691397999999,440.08874460000015,441.04776029999994,,,,,441.0478928000002,441.06374540000024,441.2636109,441.2475116999999,440.08874460000015,,,,,,,,1,1,0.9467233000000306,None,,,,,,,,829,25,V,R,2026-02-23_11h27.02.657,VisualSearch_2526_3,,2025.2.4,2026-02-23 11h27.02.903071 +0100,
vertical.xlsx,The target is tilted.,135,21,5,2,1,1,1,1,1,1,1,1,0,0,0,0,0,7,8,135,space,4.572820600000341,None,1,1,1.0243045000001985,None,space,1.4896848999997019,None,0,1,1,1,,,,,2,5,21,1,441.2636109,,,,,,,,,,,,,,,,,,,,,441.2482657999999,441.2636109,441.7478417000002,441.75351720000026,441.7686506,442.7976217999999,,,,,442.7977635000002,442.81360970000014,443.01352840000027,442.99743209999997,441.7686506,,,,,,,,1,1,1.0243045000001985,None,,,,,,,,829,25,V,R,2026-02-23_11h27.02.657,VisualSearch_2526_3,,2025.2.4,2026-02-23 11h27.02.903071 +0100,
vertical.xlsx,The target is tilted.,135,22,6,2,0,1,1,1,0,0,0,0,0,0,0,0,1,3,4,135,space,4.572820600000341,None,0,1,0.613267800000358,None,space,1.4896848999997019,None,0,1,1,1,,,,,2,6,22,6,443.01352840000027,,,,,,,,,,,,,,,,,,,,,442.99819560000014,443.01352840000027,443.49639160000015,443.4976566,443.51283220000005,444.13110700000016,,,,,444.1312978000001,444.1466857999999,444.34684640000023,444.3308006000002,443.51283220000005,,,,,,,,0,1,0.613267800000358,None,,,,,,,,829,25,V,R,2026-02-23_11h27.02.657,VisualSearch_2526_3,,2025.2.4,2026-02-23 11h27.02.903071 +0100,
vertical.xlsx,The target is tilted.,135,23,7,2,0,0,0,0,0,0,0,0,0,0,0,0,1,1,1,135,space,4.572820600000341,None,0,1,0.4682090999999673,None,space,1.4896848999997019,None,0,1,1,1,,,,,2,7,23,7,444.34684640000023,,,,,,,,,,,,,,,,,,,,,444.33161659999996,444.34684640000023,444.83057970000027,444.83489039999995,444.8511295000003,445.3307823,,,,,445.3309512000001,445.3465408000002,445.54665030000024,445.5306694000001,444.8511295000003,,,,,,,,0,1,0.4682090999999673,None,,,,,,,,829,25,V,R,2026-02-23_11h27.02.657,VisualSearch_2526_3,,2025.2.4,2026-02-23 11h27.02.903071 +0100,
vertical.xlsx,The target is tilted.,135,24,0,3,1,1,1,1,0,0,0,0,0,0,0,0,0,3,4,135,space,4.572820600000341,None,1,1,0.5188597999999729,None,space,1.4896848999997019,None,0,1,1,1,,,,,3,0,24,2,445.54665030000024,,,,,,,,,,,,,,,,,,,,,445.5314760000001,445.54665030000024,446.0305247000001,446.0353207000003,446.0463671000002,446.58071180000024,,,,,446.58088180000004,446.5963253,446.79642980000017,446.78022090000013,446.0463671000002,,,,,,,,1,1,0.5188597999999729,None,,,,,,,,829,25,V,R,2026-02-23_11h27.02.657,VisualSearch_2526_3,,2025.2.4,2026-02-23 11h27.02.903071 +0100,
vertical.xlsx,The target is tilted.,135,25,1,3,1,1,1,1,1,1,1,1,0,0,0,0,0,7,8,135,space,4.572820600000341,None,1,1,1.132229499999994,None,space,1.4896848999997019,None,0,1,1,1,,,,,3,1,25,1,446.79642980000017,,,,,,,,,,,,,,,,,,,,,446.78095170000006,446.79642980000017,447.27990520000003,447.2849024000002,447.30246020000004,448.44712180000033,,,,,448.4472945000002,448.4626908,448.6627917999999,448.6465091,447.30246020000004,,,,,,,,1,1,1.132229499999994,None,,,,,,,,829,25,V,R,2026-02-23_11h27.02.657,VisualSearch_2526_3,,2025.2.4,2026-02-23 11h27.02.903071 +0100,
vertical.xlsx,The target is tilted.,135,26,2,3,0,0,0,0,0,0,0,0,0,0,0,0,1,1,1,135,space,4.572820600000341,None,0,1,0.5890254000000823,None,space,1.4896848999997019,None,0,1,1,1,,,,,3,2,26,7,448.6627917999999,,,,,,,,,,,,,,,,,,,,,448.6472742000001,448.6627917999999,449.14664730000004,449.15159070000027,449.16808519999995,449.76338680000026,,,,,449.7635577000001,449.7790356999999,449.9792384000002,449.96303620000026,449.16808519999995,,,,,,,,0,1,0.5890254000000823,None,,,,,,,,829,25,V,R,2026-02-23_11h27.02.657,VisualSearch_2526_3,,2025.2.4,2026-02-23 11h27.02.903071 +0100,
vertical.xlsx,The target is tilted.,135,27,3,3,1,1,1,1,1,1,1,1,1,1,1,1,0,11,12,135,space,4.572820600000341,None,1,1,0.7559077000000798,None,space,1.4896848999997019,None,0,1,1,1,,,,,3,3,27,0,449.9792384000002,,,,,,,,,,,,,,,,,,,,,449.9637525000003,449.9792384000002,450.4632150000002,450.4682120000002,450.4848003000002,451.2467353000002,,,,,451.24695169999995,451.2622239000002,451.4623878000002,451.4461799999999,450.4848003000002,,,,,,,,1,1,0.7559077000000798,None,,,,,,,,829,25,V,R,2026-02-23_11h27.02.657,VisualSearch_2526_3,,2025.2.4,2026-02-23 11h27.02.903071 +0100,
vertical.xlsx,The target is tilted.,135,28,4,3,0,1,1,1,0,0,0,0,0,0,0,0,1,3,4,135,space,4.572820600000341,None,0,1,0.7513939999998911,None,space,1.4896848999997019,None,0,1,1,1,,,,,3,4,28,6,451.4623878000002,,,,,,,,,,,,,,,,,,,,,451.4469798,451.4623878000002,451.9458675000001,451.9508461999999,451.96753549999994,452.7295121000002,,,,,452.7297020000001,452.7453168000002,452.9452484000003,452.9291112000001,451.96753549999994,,,,,,,,0,1,0.7513939999998911,None,,,,,,,,829,25,V,R,2026-02-23_11h27.02.657,VisualSearch_2526_3,,2025.2.4,2026-02-23 11h27.02.903071 +0100,
vertical.xlsx,The target is tilted.,135,29,5,3,1,0,0,0,0,0,0,0,0,0,0,0,0,0,1,135,space,4.572820600000341,None,1,1,0.3363251999999193,None,space,1.4896848999997019,None,0,1,1,1,,,,,3,5,29,3,452.9452484000003,,,,,,,,,,,,,,,,,,,,,452.9298467000003,452.9452484000003,453.42922120000003,453.4336983000003,453.4500736,453.7963388000003,,,,,453.79652810000016,453.8117516000002,454.0119109000002,453.9952911999999,453.4500736,,,,,,,,1,1,0.3363251999999193,None,,,,,,,,829,25,V,R,2026-02-23_11h27.02.657,VisualSearch_2526_3,,2025.2.4,2026-02-23 11h27.02.903071 +0100,
vertical.xlsx,The target is tilted.,135,30,6,3,0,1,1,1,1,1,1,1,1,1,1,1,1,11,12,135,space,4.572820600000341,None,0,1,2.154562100000021,None,space,1.4896848999997019,None,0,1,1,1,,,,,3,6,30,4,454.0119109000002,,,,,,,,,,,,,,,,,,,,,453.99603190000016,454.0119109000002,454.4952906000003,454.4998018000001,454.5168880000001,456.6789426,,,,,456.6791167000001,456.6946947000001,456.89461470000015,456.87852999999996,454.5168880000001,,,,,,,,0,1,2.154562100000021,None,,,,,,,,829,25,V,R,2026-02-23_11h27.02.657,VisualSearch_2526_3,,2025.2.4,2026-02-23 11h27.02.903071 +0100,
vertical.xlsx,The target is tilted.,135,31,7,3,0,1,1,1,1,1,1,1,0,0,0,0,1,7,8,135,space,4.572820600000341,None,0,1,1.5449354000002131,None,space,1.4896848999997019,None,0,1,1,1,,,,,3,7,31,5,456.89461470000015,,,,,,,,,,,,,,,,,,,,,456.87928980000015,456.89461470000015,457.3786448000001,457.3834412000001,457.3998962999999,458.96184140000014,,,,,458.9620355000002,458.9775522,459.17714049999995,459.1609136000002,457.3998962999999,,,,,,,,0,1,1.5449354000002131,None,,,,,,,,829,25,V,R,2026-02-23_11h27.02.657,VisualSearch_2526_3,,2025.2.4,2026-02-23 11h27.02.903071 +0100,
vertical.xlsx,The target is tilted.,135,32,0,4,0,1,1,1,0,0,0,0,0,0,0,0,1,3,4,135,space,4.572820600000341,None,0,1,0.5714883000000555,None,space,1.4896848999997019,None,0,1,1,1,,,,,4,0,32,6,459.17714049999995,,,,,,,,,,,,,,,,,,,,,459.1615864999999,459.17714049999995,459.6616775000002,459.6666932000003,459.68322979999994,460.2610995,,,,,460.2611810000003,460.27706149999995,460.4770957999999,460.46085930000027,459.68322979999994,,,,,,,,0,1,0.5714883000000555,None,,,,,,,,829,25,V,R,2026-02-23_11h27.02.657,VisualSearch_2526_3,,2025.2.4,2026-02-23 11h27.02.903071 +0100,
vertical.xlsx,The target is tilted.,135,33,1,4,1,1,1,1,0,0,0,0,0,0,0,0,0,3,4,135,space,4.572820600000341,None,1,1,0.6530908999998246,None,space,1.4896848999997019,None,0,1,1,1,,,,,4,1,33,2,460.4770957999999,,,,,,,,,,,,,,,,,,,,,460.46160580000014,460.4770957999999,460.96143800000027,460.9661019,460.9771832000001,461.6449717999999,,,,,461.6451621000001,461.66058169999997,461.8606600000003,461.8444460999999,460.9771832000001,,,,,,,,1,1,0.6530908999998246,None,,,,,,,,829,25,V,R,2026-02-23_11h27.02.657,VisualSearch_2526_3,,2025.2.4,2026-02-23 11h27.02.903071 +0100,
vertical.xlsx,The target is tilted.,135,34,2,4,0,1,1,1,1,1,1,1,1,1,1,1,1,11,12,135,space,4.572820600000341,None,0,1,1.636020599999938,None,space,1.4896848999997019,None,0,1,1,1,,,,,4,2,34,4,461.8606600000003,,,,,,,,,,,,,,,,,,,,,461.84536879999996,461.8606600000003,462.3442892000003,462.34922700000016,462.36616170000025,464.0111308999999,,,,,464.0113018000002,464.0266790999999,464.22643830000015,464.21071900000015,462.36616170000025,,,,,,,,0,1,1.636020599999938,None,,,,,,,,829,25,V,R,2026-02-23_11h27.02.657,VisualSearch_2526_3,,2025.2.4,2026-02-23 11h27.02.903071 +0100,
vertical.xlsx,The target is tilted.,135,35,3,4,1,0,0,0,0,0,0,0,0,0,0,0,0,0,1,135,space,4.572820600000341,None,1,1,0.4287512999999308,None,space,1.4896848999997019,None,0,1,1,1,,,,,4,3,35,3,464.22643830000015,,,,,,,,,,,,,,,,,,,,,464.21144129999993,464.22643830000015,464.7107759999999,464.71568890000026,464.73233470000014,465.17781349999996,,,,,465.1780077000003,465.1933376000002,465.3933583000003,465.37706130000015,464.73233470000014,,,,,,,,1,1,0.4287512999999308,None,,,,,,,,829,25,V,R,2026-02-23_11h27.02.657,VisualSearch_2526_3,,2025.2.4,2026-02-23 11h27.02.903071 +0100,
