file_name,block_instructions,target_example,thisN,thisTrialN,thisRepN,target_presence,opacity_1,opacity_2,opacity_3,opacity_4,opacity_5,opacity_6,opacity_7,opacity_8,opacity_9,opacity_10,opacity_11,opacity_12,n_distract,n_items,target_ori,key_resp_4.keys,key_resp_4.rt,key_resp_4.duration,key_resp.keys,key_resp.corr,key_resp.rt,key_resp.duration,key_resp_5.keys,key_resp_5.rt,key_resp_5.duration,blocks.thisRepN,blocks.thisTrialN,blocks.thisN,blocks.thisIndex,practice_trials.thisRepN,practice_trials.thisTrialN,practice_trials.thisN,practice_trials.thisIndex,trials.thisRepN,trials.thisTrialN,trials.thisN,trials.thisIndex,thisRow.t,notes,Welcome.started,WelcomeText.started,key_resp_2.started,Welcome.stopped,key_resp_2.keys,key_resp_2.rt,key_resp_2.duration,InformedConsent.started,text_4.started,InformedConsent.stopped,key_resp_6.keys,key_resp_6.rt,key_resp_6.duration,key_resp_4.started,example_target.started,text_3.started,blocks.key_resp_4.keys,blocks.key_resp_4.rt,blocks.key_resp_4.duration,FixCross.started,fixCross.started,FixCross.stopped,Stimulus.started,key_resp.started,Stimulus.stopped,practice_trials.key_resp.keys,practice_trials.key_resp.corr,practice_trials.key_resp.rt,practice_trials.key_resp.duration,BlankScreen.started,text.started,BlankScreen.stopped,text.stopped,fixCross.stopped,ExperimentStart.started,text_2.started,key_resp_5.started,ExperimentStart.stopped,blocks.key_resp_5.keys,blocks.key_resp_5.rt,blocks.key_resp_5.duration,trials.key_resp.keys,trials.key_resp.corr,trials.key_resp.rt,trials.key_resp.duration,Thanks.started,ThankYou.started,key_resp_3.started,Thanks.stopped,key_resp_3.keys,key_resp_3.rt,key_resp_3.duration,participant,leeftijd,gender,links/rechtshandig,date,expName,expVersion,psychopyVersion,expStart,
,,,,,,,,,,,,,,,,,,,,,,,,,,,,,,,,,,,,,,,,,,,,,,0.01934159999973417,0.0484188999998878,0.0484188999998878,19.840026399999715,space,19.771345499999825,None,,,,,,,,,,,,,,,,,,,,,,,,,,,,,,,,,,,,,,,,,,,,,,830,21,M,L,2026-02-23_11h44.09.261,VisualSearch_2526_3,,2025.2.4,2026-02-23 11h44.09.483072 +0100,
,,,,,,,,,,,,,,,,,,,,,,,,,,,,,,,,,,,,,,,,,,,,,,,,,,,,,19.840093299999808,19.84744049999972,24.797261499999877,y,4.951046799999858,None,,,,,,,,,,,,,,,,,,,,,,,,,,,,,,,,,,,,,,,,830,21,M,L,2026-02-23_11h44.09.261,VisualSearch_2526_3,,2025.2.4,2026-02-23 11h44.09.483072 +0100,
tilted.xlsx,The target is tilted.,117,0,0,0,1,1,1,1,1,1,1,1,0,0,0,0,0,7,8,117,space,7.214106400000219,None,1,1,0.7387867000002188,None,,,,0,0,0,0,0,0,0,1,,,,,32.09588789999998,,,,,,,,,,,,,,,24.837920099999792,24.837920099999792,24.837920099999792,space,7.214106400000219,None,32.09020789999977,32.09588789999998,32.578352300000006,32.5836432000001,32.60133079999969,33.344827299999906,1,1,0.7387867000002188,None,33.34491029999981,33.36136949999991,33.545387899999696,,,,,,,,,,,,,,,,,,,,,830,21,M,L,2026-02-23_11h44.09.261,VisualSearch_2526_3,,2025.2.4,2026-02-23 11h44.09.483072 +0100,
tilted.xlsx,The target is tilted.,117,1,1,0,0,0,0,0,0,0,0,0,0,0,0,0,1,1,1,117,space,7.214106400000219,None,0,1,0.7588567000002513,None,,,,0,0,0,0,0,1,1,7,,,,,33.56138800000008,,,,,,,,,,,,,,,,,,,,,33.54616189999979,33.56138800000008,34.045208,34.050433899999916,34.06786349999993,34.829000899999755,0,1,0.7588567000002513,None,34.82917479999969,34.844712699999945,35.02817460000006,35.04435620000004,,,,,,,,,,,,,,,,,,,,830,21,M,L,2026-02-23_11h44.09.261,VisualSearch_2526_3,,2025.2.4,2026-02-23 11h44.09.483072 +0100,
tilted.xlsx,The target is tilted.,117,2,2,0,0,1,1,1,1,1,1,1,0,0,0,0,1,7,8,117,space,7.214106400000219,None,0,1,2.5121471000002202,None,,,,0,0,0,0,0,2,2,5,,,,,35.04435620000004,,,,,,,,,,,,,,,,,,,,,35.02882490000002,35.04435620000004,35.52815890000011,35.532883200000015,35.54942619999974,38.07778419999977,0,1,2.5121471000002202,None,38.07794419999982,38.0934115,38.277759499999775,38.294076099999984,35.54942619999974,,,,,,,,,,,,,,,,,,,830,21,M,L,2026-02-23_11h44.09.261,VisualSearch_2526_3,,2025.2.4,2026-02-23 11h44.09.483072 +0100,
tilted.xlsx,The target is tilted.,117,3,3,0,1,1,1,1,1,1,1,1,1,1,1,1,0,11,12,117,space,7.214106400000219,None,1,1,2.5018238000002384,None,,,,0,0,0,0,0,3,3,0,,,,,38.294076099999984,,,,,,,,,,,,,,,,,,,,,38.27834099999973,38.294076099999984,38.77745259999983,38.78169509999998,38.79763980000007,41.31127169999991,1,1,2.5018238000002384,None,41.31144779999977,41.326356900000064,41.51018750000003,41.52640119999978,38.79763980000007,,,,,,,,,,,,,,,,,,,830,21,M,L,2026-02-23_11h44.09.261,VisualSearch_2526_3,,2025.2.4,2026-02-23 11h44.09.483072 +0100,
tilted.xlsx,The target is tilted.,117,4,4,0,1,0,0,0,0,0,0,0,0,0,0,0,0,0,1,117,space,7.214106400000219,None,1,1,0.5003050999998777,None,,,,0,0,0,0,0,4,4,3,,,,,41.52640119999978,,,,,,,,,,,,,,,,,,,,,41.510721600000124,41.52640119999978,42.010643399999935,42.01523670000006,42.030822499999886,42.54457559999992,1,1,0.5003050999998777,None,42.544779599999856,42.55952290000005,42.74387660000002,42.7600910000001,42.030822499999886,,,,,,,,,,,,,,,,,,,830,21,M,L,2026-02-23_11h44.09.261,VisualSearch_2526_3,,2025.2.4,2026-02-23 11h44.09.483072 +0100,
tilted.xlsx,The target is tilted.,117,5,5,0,0,1,1,1,0,0,0,0,0,0,0,0,1,3,4,117,space,7.214106400000219,None,0,1,0.8052198999998836,None,,,,0,0,0,0,0,5,5,6,,,,,42.7600910000001,,,,,,,,,,,,,,,,,,,,,42.74454770000011,42.7600910000001,43.24377249999998,43.24819780000007,43.26518179999994,44.07756269999982,0,1,0.8052198999998836,None,44.0777522999997,44.092623699999876,44.27686559999984,44.293054799999936,43.26518179999994,,,,,,,,,,,,,,,,,,,830,21,M,L,2026-02-23_11h44.09.261,VisualSearch_2526_3,,2025.2.4,2026-02-23 11h44.09.483072 +0100,
tilted.xlsx,The target is tilted.,117,6,6,0,0,1,1,1,1,1,1,1,1,1,1,1,1,11,12,117,space,7.214106400000219,None,1,0,2.7962916000001314,None,,,,0,0,0,0,0,6,6,4,,,,,44.293054799999936,,,,,,,,,,,,,,,,,,,,,44.27747959999988,44.293054799999936,44.776689799999986,44.78177219999998,44.799365599999874,47.60959159999993,1,0,2.7962916000001314,None,47.609754000000066,47.62522149999995,47.80973629999971,47.82589169999983,44.799365599999874,,,,,,,,,,,,,,,,,,,830,21,M,L,2026-02-23_11h44.09.261,VisualSearch_2526_3,,2025.2.4,2026-02-23 11h44.09.483072 +0100,
tilted.xlsx,The target is tilted.,117,7,7,0,1,1,1,1,0,0,0,0,0,0,0,0,0,3,4,117,space,7.214106400000219,None,1,1,1.422684499999832,None,,,,0,0,0,0,0,7,7,2,,,,,47.82589169999983,,,,,,,,,,,,,,,,,,,,,47.81038409999974,47.82589169999983,48.30957959999978,48.314096399999926,48.33018979999997,49.75965279999991,1,1,1.422684499999832,None,49.75982560000011,49.77496659999997,49.95916050000005,49.97551590000012,48.33018979999997,,,,,,,,,,,,,,,,,,,830,21,M,L,2026-02-23_11h44.09.261,VisualSearch_2526_3,,2025.2.4,2026-02-23 11h44.09.483072 +0100,
tilted.xlsx,The target is tilted.,117,0,0,0,0,1,1,1,0,0,0,0,0,0,0,0,1,3,4,117,space,7.214106400000219,None,0,1,1.4329072000000451,None,space,1.4310593000000154,None,0,0,0,0,,,,,0,0,0,6,51.44640350000009,,,,,,,,,,,,,,,,,,,,,51.442190299999766,51.44640350000009,51.92534829999977,51.92848559999993,51.94157809999979,53.376105299999836,,,,,53.37633349999987,53.391073100000085,53.575285500000064,53.59154379999973,,49.965285400000084,49.97551590000012,49.97551590000012,51.40909590000001,space,1.4310593000000154,None,0,1,1.4329072000000451,None,,,,,,,,830,21,M,L,2026-02-23_11h44.09.261,VisualSearch_2526_3,,2025.2.4,2026-02-23 11h44.09.483072 +0100,
tilted.xlsx,The target is tilted.,117,1,1,0,1,0,0,0,0,0,0,0,0,0,0,0,0,0,1,117,space,7.214106400000219,None,1,1,0.52170950000027,None,space,1.4310593000000154,None,0,0,0,0,,,,,0,1,1,3,53.59154379999973,,,,,,,,,,,,,,,,,,,,,53.57604919999994,53.59154379999973,54.07487749999973,54.079038200000014,54.09520889999976,54.62511319999976,,,,,54.625214499999856,54.64059129999987,54.82518889999983,54.84121899999991,54.09520889999976,,,,,,,,1,1,0.52170950000027,None,,,,,,,,830,21,M,L,2026-02-23_11h44.09.261,VisualSearch_2526_3,,2025.2.4,2026-02-23 11h44.09.483072 +0100,
tilted.xlsx,The target is tilted.,117,2,2,0,1,1,1,1,1,1,1,1,1,1,1,1,0,11,12,117,space,7.214106400000219,None,1,1,2.4550859000000855,None,space,1.4310593000000154,None,0,0,0,0,,,,,0,2,2,0,54.84121899999991,,,,,,,,,,,,,,,,,,,,,54.825947799999994,54.84121899999991,55.325253299999986,55.33002639999995,55.34499719999985,57.80842940000002,,,,,57.808614900000066,57.82361219999984,58.007970099999966,58.02417349999996,55.34499719999985,,,,,,,,1,1,2.4550859000000855,None,,,,,,,,830,21,M,L,2026-02-23_11h44.09.261,VisualSearch_2526_3,,2025.2.4,2026-02-23 11h44.09.483072 +0100,
tilted.xlsx,The target is tilted.,117,3,3,0,1,1,1,1,1,1,1,1,0,0,0,0,0,7,8,117,space,7.214106400000219,None,1,1,1.1042607000003954,None,space,1.4310593000000154,None,0,0,0,0,,,,,0,3,3,1,58.02417349999996,,,,,,,,,,,,,,,,,,,,,58.009039999999914,58.02417349999996,58.50775509999994,58.512248499999714,58.5277487999997,59.64138099999991,,,,,59.64158240000006,59.65671629999997,59.840742599999885,59.85723879999978,58.5277487999997,,,,,,,,1,1,1.1042607000003954,None,,,,,,,,830,21,M,L,2026-02-23_11h44.09.261,VisualSearch_2526_3,,2025.2.4,2026-02-23 11h44.09.483072 +0100,
tilted.xlsx,The target is tilted.,117,4,4,0,0,1,1,1,1,1,1,1,0,0,0,0,1,7,8,117,space,7.214106400000219,None,0,1,2.476242100000036,None,space,1.4310593000000154,None,0,0,0,0,,,,,0,4,4,5,59.85723879999978,,,,,,,,,,,,,,,,,,,,,59.84149769999976,59.85723879999978,60.34096219999992,60.34587979999969,60.357018700000026,62.84066699999994,,,,,62.84084959999973,62.85610739999993,63.04051410000011,63.05671929999971,60.357018700000026,,,,,,,,0,1,2.476242100000036,None,,,,,,,,830,21,M,L,2026-02-23_11h44.09.261,VisualSearch_2526_3,,2025.2.4,2026-02-23 11h44.09.483072 +0100,
tilted.xlsx,The target is tilted.,117,5,5,0,0,0,0,0,0,0,0,0,0,0,0,0,1,1,1,117,space,7.214106400000219,None,0,1,0.669546800000262,None,space,1.4310593000000154,None,0,0,0,0,,,,,0,5,5,7,63.05671929999971,,,,,,,,,,,,,,,,,,,,,63.04128089999995,63.05671929999971,63.54050189999998,63.54500269999971,63.56018069999982,64.24107589999994,,,,,64.24128979999978,64.25600570000006,64.43975739999996,64.45592469999974,63.56018069999982,,,,,,,,0,1,0.669546800000262,None,,,,,,,,830,21,M,L,2026-02-23_11h44.09.261,VisualSearch_2526_3,,2025.2.4,2026-02-23 11h44.09.483072 +0100,
tilted.xlsx,The target is tilted.,117,6,6,0,1,1,1,1,0,0,0,0,0,0,0,0,0,3,4,117,space,7.214106400000219,None,1,1,1.1989305000001877,None,space,1.4310593000000154,None,0,0,0,0,,,,,0,6,6,2,64.45592469999974,,,,,,,,,,,,,,,,,,,,,64.44038339999997,64.45592469999974,64.9404340000001,64.94514429999981,64.96148279999989,66.17372660000001,,,,,66.17390609999984,66.18890099999999,66.37323100000003,66.38954059999969,64.96148279999989,,,,,,,,1,1,1.1989305000001877,None,,,,,,,,830,21,M,L,2026-02-23_11h44.09.261,VisualSearch_2526_3,,2025.2.4,2026-02-23 11h44.09.483072 +0100,
tilted.xlsx,The target is tilted.,117,7,7,0,0,1,1,1,1,1,1,1,1,1,1,1,1,11,12,117,space,7.214106400000219,None,0,1,4.2245874999998705,None,space,1.4310593000000154,None,0,0,0,0,,,,,0,7,7,4,66.38954059999969,,,,,,,,,,,,,,,,,,,,,66.37409279999974,66.38954059999969,66.87337489999982,66.87820329999977,66.89334120000012,71.12271740000006,,,,,71.12288409999974,71.13803789999974,71.32243779999999,71.33867779999991,66.89334120000012,,,,,,,,0,1,4.2245874999998705,None,,,,,,,,830,21,M,L,2026-02-23_11h44.09.261,VisualSearch_2526_3,,2025.2.4,2026-02-23 11h44.09.483072 +0100,
tilted.xlsx,The target is tilted.,117,8,0,1,1,1,1,1,1,1,1,1,0,0,0,0,0,7,8,117,space,7.214106400000219,None,1,1,1.1314572000001135,None,space,1.4310593000000154,None,0,0,0,0,,,,,1,0,8,1,71.33867779999991,,,,,,,,,,,,,,,,,,,,,71.32328719999987,71.33867779999991,71.82229359999974,71.82669399999986,71.8429516000001,72.98870110000007,,,,,72.98886779999975,73.00437669999974,73.18865490000007,73.20490449999988,71.8429516000001,,,,,,,,1,1,1.1314572000001135,None,,,,,,,,830,21,M,L,2026-02-23_11h44.09.261,VisualSearch_2526_3,,2025.2.4,2026-02-23 11h44.09.483072 +0100,
tilted.xlsx,The target is tilted.,117,9,1,1,0,1,1,1,0,0,0,0,0,0,0,0,1,3,4,117,space,7.214106400000219,None,0,1,1.5149215999999797,None,space,1.4310593000000154,None,0,0,0,0,,,,,1,1,9,6,73.20490449999988,,,,,,,,,,,,,,,,,,,,,73.18938320000007,73.20490449999988,73.68888070000003,73.6934409999999,73.71024450000004,75.23845219999976,,,,,75.23857700000008,75.25383749999992,75.43828059999987,75.4545035000001,73.71024450000004,,,,,,,,0,1,1.5149215999999797,None,,,,,,,,830,21,M,L,2026-02-23_11h44.09.261,VisualSearch_2526_3,,2025.2.4,2026-02-23 11h44.09.483072 +0100,
tilted.xlsx,The target is tilted.,117,10,2,1,1,1,1,1,1,1,1,1,1,1,1,1,0,11,12,117,space,7.214106400000219,None,1,1,4.738403800000015,None,space,1.4310593000000154,None,0,0,0,0,,,,,1,2,10,0,75.4545035000001,,,,,,,,,,,,,,,,,,,,,75.43902649999973,75.4545035000001,75.9386156999999,75.94364850000011,75.95849859999998,80.7041377999999,,,,,80.70432579999988,80.71977549999974,80.90419900000006,80.92028759999994,75.95849859999998,,,,,,,,1,1,4.738403800000015,None,,,,,,,,830,21,M,L,2026-02-23_11h44.09.261,VisualSearch_2526_3,,2025.2.4,2026-02-23 11h44.09.483072 +0100,
tilted.xlsx,The target is tilted.,117,11,3,1,0,1,1,1,1,1,1,1,0,0,0,0,1,7,8,117,space,7.214106400000219,None,0,1,2.8962240999999267,None,space,1.4310593000000154,None,0,0,0,0,,,,,1,3,11,5,80.92028759999994,,,,,,,,,,,,,,,,,,,,,80.90493049999986,80.92028759999994,81.40421269999979,81.40864609999971,81.42459999999983,84.33672660000002,,,,,84.33688249999977,84.3524567999998,84.53681379999989,84.55309850000003,81.42459999999983,,,,,,,,0,1,2.8962240999999267,None,,,,,,,,830,21,M,L,2026-02-23_11h44.09.261,VisualSearch_2526_3,,2025.2.4,2026-02-23 11h44.09.483072 +0100,
tilted.xlsx,The target is tilted.,117,12,4,1,1,0,0,0,0,0,0,0,0,0,0,0,0,0,1,117,space,7.214106400000219,None,1,1,0.6571295000003374,None,space,1.4310593000000154,None,0,0,0,0,,,,,1,4,12,3,84.55309850000003,,,,,,,,,,,,,,,,,,,,,84.53740949999974,84.55309850000003,85.03655519999984,85.04054709999991,85.05610750000005,85.72020199999997,,,,,85.72038789999988,85.73572149999973,85.91971909999984,85.93622329999971,85.05610750000005,,,,,,,,1,1,0.6571295000003374,None,,,,,,,,830,21,M,L,2026-02-23_11h44.09.261,VisualSearch_2526_3,,2025.2.4,2026-02-23 11h44.09.483072 +0100,
tilted.xlsx,The target is tilted.,117,13,5,1,0,0,0,0,0,0,0,0,0,0,0,0,1,1,1,117,space,7.214106400000219,None,0,1,0.6323452000001453,None,space,1.4310593000000154,None,0,0,0,0,,,,,1,5,13,7,85.93622329999971,,,,,,,,,,,,,,,,,,,,,85.92045319999988,85.93622329999971,86.41965419999997,86.4240722999998,86.44040769999992,87.08643780000011,,,,,87.08663149999984,87.1020937999997,87.28617750000012,87.30228179999995,86.44040769999992,,,,,,,,0,1,0.6323452000001453,None,,,,,,,,830,21,M,L,2026-02-23_11h44.09.261,VisualSearch_2526_3,,2025.2.4,2026-02-23 11h44.09.483072 +0100,
tilted.xlsx,The target is tilted.,117,14,6,1,0,1,1,1,1,1,1,1,1,1,1,1,1,11,12,117,space,7.214106400000219,None,0,1,4.829005100000359,None,space,1.4310593000000154,None,0,0,0,0,,,,,1,6,14,4,87.30228179999995,,,,,,,,,,,,,,,,,,,,,87.28695440000001,87.30228179999995,87.78612539999995,87.78977050000003,87.8048703999998,92.63557390000005,,,,,92.63576250000006,92.65125579999994,92.83570079999981,92.85165509999979,87.8048703999998,,,,,,,,0,1,4.829005100000359,None,,,,,,,,830,21,M,L,2026-02-23_11h44.09.261,VisualSearch_2526_3,,2025.2.4,2026-02-23 11h44.09.483072 +0100,
tilted.xlsx,The target is tilted.,117,15,7,1,1,1,1,1,0,0,0,0,0,0,0,0,0,3,4,117,space,7.214106400000219,None,1,1,1.1125580000002628,None,space,1.4310593000000154,None,0,0,0,0,,,,,1,7,15,2,92.85165509999979,,,,,,,,,,,,,,,,,,,,,92.83642650000002,92.85165509999979,93.33563049999975,93.34013370000002,93.35737749999998,94.48527269999977,,,,,94.4854762,94.50083730000006,94.68531859999985,94.70137549999981,93.35737749999998,,,,,,,,1,1,1.1125580000002628,None,,,,,,,,830,21,M,L,2026-02-23_11h44.09.261,VisualSearch_2526_3,,2025.2.4,2026-02-23 11h44.09.483072 +0100,
tilted.xlsx,The target is tilted.,117,16,0,2,0,1,1,1,0,0,0,0,0,0,0,0,1,3,4,117,space,7.214106400000219,None,0,1,1.1683796000002076,None,space,1.4310593000000154,None,0,0,0,0,,,,,2,0,16,6,94.70137549999981,,,,,,,,,,,,,,,,,,,,,94.68603949999988,94.70137549999981,95.18540859999985,95.19038520000004,95.20733990000008,96.38558770000009,,,,,96.38631200000009,96.4006532999997,96.58496909999985,96.60081140000011,95.20733990000008,,,,,,,,0,1,1.1683796000002076,None,,,,,,,,830,21,M,L,2026-02-23_11h44.09.261,VisualSearch_2526_3,,2025.2.4,2026-02-23 11h44.09.483072 +0100,
tilted.xlsx,The target is tilted.,117,17,1,2,0,1,1,1,1,1,1,1,0,0,0,0,1,7,8,117,space,7.214106400000219,None,0,1,2.716274500000054,None,space,1.4310593000000154,None,0,0,0,0,,,,,2,1,17,5,96.60081140000011,,,,,,,,,,,,,,,,,,,,,96.58571170000005,96.60081140000011,97.08462559999998,97.08915489999981,97.10417099999995,99.83422759999985,,,,,99.83438010000009,99.84988659999999,100.03386499999988,100.05037559999982,97.10417099999995,,,,,,,,0,1,2.716274500000054,None,,,,,,,,830,21,M,L,2026-02-23_11h44.09.261,VisualSearch_2526_3,,2025.2.4,2026-02-23 11h44.09.483072 +0100,
tilted.xlsx,The target is tilted.,117,18,2,2,1,0,0,0,0,0,0,0,0,0,0,0,0,0,1,117,space,7.214106400000219,None,1,1,0.6199781000000257,None,space,1.4310593000000154,None,0,0,0,0,,,,,2,2,18,3,100.05037559999982,,,,,,,,,,,,,,,,,,,,,100.0345225000001,100.05037559999982,100.53452419999985,100.53926539999975,100.5554619999998,101.18486639999992,,,,,101.18506909999996,101.19984260000001,101.38371909999978,101.39990540000008,100.5554619999998,,,,,,,,1,1,0.6199781000000257,None,,,,,,,,830,21,M,L,2026-02-23_11h44.09.261,VisualSearch_2526_3,,2025.2.4,2026-02-23 11h44.09.483072 +0100,
tilted.xlsx,The target is tilted.,117,19,3,2,0,1,1,1,1,1,1,1,1,1,1,1,1,11,12,117,space,7.214106400000219,None,0,1,6.9814541999999165,None,space,1.4310593000000154,None,0,0,0,0,,,,,2,3,19,4,101.39990540000008,,,,,,,,,,,,,,,,,,,,,101.38438939999969,101.39990540000008,101.88437579999982,101.88936749999993,101.90720409999994,108.90015640000001,,,,,108.90034059999971,108.91518309999992,109.09920409999995,109.11578299999974,101.90720409999994,,,,,,,,0,1,6.9814541999999165,None,,,,,,,,830,21,M,L,2026-02-23_11h44.09.261,VisualSearch_2526_3,,2025.2.4,2026-02-23 11h44.09.483072 +0100,
tilted.xlsx,The target is tilted.,117,20,4,2,0,0,0,0,0,0,0,0,0,0,0,0,1,1,1,117,space,7.214106400000219,None,0,1,0.7219495999997889,None,space,1.4310593000000154,None,0,0,0,0,,,,,2,4,20,7,109.11578299999974,,,,,,,,,,,,,,,,,,,,,109.09988669999984,109.11578299999974,109.59931869999991,109.60305359999984,109.61812639999971,110.34988720000001,,,,,110.35006739999972,110.3650047000001,110.54911619999984,110.56546589999971,109.61812639999971,,,,,,,,0,1,0.7219495999997889,None,,,,,,,,830,21,M,L,2026-02-23_11h44.09.261,VisualSearch_2526_3,,2025.2.4,2026-02-23 11h44.09.483072 +0100,
tilted.xlsx,The target is tilted.,117,21,5,2,1,1,1,1,1,1,1,1,1,1,1,1,0,11,12,117,space,7.214106400000219,None,1,1,4.65262359999997,None,space,1.4310593000000154,None,0,0,0,0,,,,,2,5,21,0,110.56546589999971,,,,,,,,,,,,,,,,,,,,,110.55042409999987,110.56546589999971,111.04931839999972,111.05387199999996,111.07036310000012,115.73217260000001,,,,,115.73235919999979,115.7473716999998,115.93166419999989,115.94798199999968,111.07036310000012,,,,,,,,1,1,4.65262359999997,None,,,,,,,,830,21,M,L,2026-02-23_11h44.09.261,VisualSearch_2526_3,,2025.2.4,2026-02-23 11h44.09.483072 +0100,
tilted.xlsx,The target is tilted.,117,22,6,2,1,1,1,1,1,1,1,1,0,0,0,0,0,7,8,117,space,7.214106400000219,None,1,1,3.0623578999998244,None,space,1.4310593000000154,None,0,0,0,0,,,,,2,6,22,1,115.94798199999968,,,,,,,,,,,,,,,,,,,,,115.93248529999983,115.94798199999968,116.43096680000008,116.4324117000001,116.44720259999986,119.51488399999971,,,,,119.5150666999998,119.53016739999975,119.71423879999975,119.73051129999976,116.44720259999986,,,,,,,,1,1,3.0623578999998244,None,,,,,,,,830,21,M,L,2026-02-23_11h44.09.261,VisualSearch_2526_3,,2025.2.4,2026-02-23 11h44.09.483072 +0100,
tilted.xlsx,The target is tilted.,117,23,7,2,1,1,1,1,0,0,0,0,0,0,0,0,0,3,4,117,space,7.214106400000219,None,1,1,0.712160699999913,None,space,1.4310593000000154,None,0,0,0,0,,,,,2,7,23,2,119.73051129999976,,,,,,,,,,,,,,,,,,,,,119.71497799999997,119.73051129999976,120.21448409999994,120.21899020000001,120.23559840000007,120.96351569999979,,,,,120.96361019999995,120.9800038999997,121.16393759999983,,120.23559840000007,,,,,,,,1,1,0.712160699999913,None,,,,,,,,830,21,M,L,2026-02-23_11h44.09.261,VisualSearch_2526_3,,2025.2.4,2026-02-23 11h44.09.483072 +0100,
tilted.xlsx,The target is tilted.,117,24,0,3,1,1,1,1,1,1,1,1,1,1,1,1,0,11,12,117,space,7.214106400000219,None,1,1,4.541089400000146,None,space,1.4310593000000154,None,0,0,0,0,,,,,3,0,24,0,121.18028729999969,,,,,,,,,,,,,,,,,,,,,121.16460879999977,121.18028729999969,121.66324970000005,121.6652482999998,121.67981569999984,126.2304307999998,,,,,126.2305938999998,126.24558309999975,126.4298530000001,126.44611739999982,121.67981569999984,,,,,,,,1,1,4.541089400000146,None,,,,,,,,830,21,M,L,2026-02-23_11h44.09.261,VisualSearch_2526_3,,2025.2.4,2026-02-23 11h44.09.483072 +0100,
tilted.xlsx,The target is tilted.,117,25,1,3,0,1,1,1,1,1,1,1,0,0,0,0,1,7,8,117,space,7.214106400000219,None,0,1,3.292475700000068,None,space,1.4310593000000154,None,0,0,0,0,,,,,3,1,25,5,126.44611739999982,,,,,,,,,,,,,,,,,,,,,126.43057769999996,126.44611739999982,126.9300902,126.93462899999986,126.95117769999979,130.2466942000001,,,,,130.24687799999992,130.2615020999997,130.44609979999996,130.4621788999998,126.95117769999979,,,,,,,,0,1,3.292475700000068,None,,,,,,,,830,21,M,L,2026-02-23_11h44.09.261,VisualSearch_2526_3,,2025.2.4,2026-02-23 11h44.09.483072 +0100,
tilted.xlsx,The target is tilted.,117,26,2,3,1,1,1,1,1,1,1,1,0,0,0,0,0,7,8,117,space,7.214106400000219,None,1,1,2.493503999999575,None,space,1.4310593000000154,None,0,0,0,0,,,,,3,2,26,1,130.4621788999998,,,,,,,,,,,,,,,,,,,,,130.4468155999998,130.4621788999998,130.9456651999999,130.9502265000001,130.9659305,133.4628131999998,,,,,133.46301249999988,133.47787119999975,133.66158039999982,133.67793819999997,130.9659305,,,,,,,,1,1,2.493503999999575,None,,,,,,,,830,21,M,L,2026-02-23_11h44.09.261,VisualSearch_2526_3,,2025.2.4,2026-02-23 11h44.09.483072 +0100,
tilted.xlsx,The target is tilted.,117,27,3,3,0,1,1,1,1,1,1,1,1,1,1,1,1,11,12,117,space,7.214106400000219,None,1,0,2.575453699999798,None,space,1.4310593000000154,None,0,0,0,0,,,,,3,3,27,4,133.67793819999997,,,,,,,,,,,,,,,,,,,,,133.66201999999976,133.67793819999997,134.1617913,134.1664455,134.18334520000008,136.76201140000012,,,,,136.76219330000004,136.77727109999978,136.96123929999976,136.97740059999978,134.18334520000008,,,,,,,,1,0,2.575453699999798,None,,,,,,,,830,21,M,L,2026-02-23_11h44.09.261,VisualSearch_2526_3,,2025.2.4,2026-02-23 11h44.09.483072 +0100,
tilted.xlsx,The target is tilted.,117,28,4,3,1,1,1,1,0,0,0,0,0,0,0,0,0,3,4,117,space,7.214106400000219,None,0,0,1.648775999999998,None,space,1.4310593000000154,None,0,0,0,0,,,,,3,4,28,2,136.97740059999978,,,,,,,,,,,,,,,,,,,,,136.96197839999968,136.97740059999978,137.46122160000004,137.4661068999999,137.48640350000005,139.14476560000003,,,,,139.14491899999985,139.1600957999999,139.34457859999975,139.36033899999984,137.48640350000005,,,,,,,,0,0,1.648775999999998,None,,,,,,,,830,21,M,L,2026-02-23_11h44.09.261,VisualSearch_2526_3,,2025.2.4,2026-02-23 11h44.09.483072 +0100,
tilted.xlsx,The target is tilted.,117,29,5,3,1,0,0,0,0,0,0,0,0,0,0,0,0,0,1,117,space,7.214106400000219,None,1,1,0.6349451999999474,None,space,1.4310593000000154,None,0,0,0,0,,,,,3,5,29,3,139.36033899999984,,,,,,,,,,,,,,,,,,,,,139.34535640000013,139.36033899999984,139.84387119999974,139.84722109999984,139.86208009999973,140.51116679999996,,,,,140.51136909999968,140.52665320000006,140.7109719,140.72731350000004,139.86208009999973,,,,,,,,1,1,0.6349451999999474,None,,,,,,,,830,21,M,L,2026-02-23_11h44.09.261,VisualSearch_2526_3,,2025.2.4,2026-02-23 11h44.09.483072 +0100,
tilted.xlsx,The target is tilted.,117,30,6,3,0,1,1,1,0,0,0,0,0,0,0,0,1,3,4,117,space,7.214106400000219,None,0,1,1.3879391999998916,None,space,1.4310593000000154,None,0,0,0,0,,,,,3,6,30,6,140.72731350000004,,,,,,,,,,,,,,,,,,,,,140.71181530000013,140.72731350000004,141.21093130000008,141.2160098999998,141.23325239999986,142.6277981999997,,,,,142.62798190000012,142.6429459000001,142.82723709999982,142.84346920000007,141.23325239999986,,,,,,,,0,1,1.3879391999998916,None,,,,,,,,830,21,M,L,2026-02-23_11h44.09.261,VisualSearch_2526_3,,2025.2.4,2026-02-23 11h44.09.483072 +0100,
tilted.xlsx,The target is tilted.,117,31,7,3,0,0,0,0,0,0,0,0,0,0,0,0,1,1,1,117,space,7.214106400000219,None,0,1,0.6109400999998797,None,space,1.4310593000000154,None,0,0,0,0,,,,,3,7,31,7,142.84346920000007,,,,,,,,,,,,,,,,,,,,,142.82799459999978,142.84346920000007,143.32752269999992,143.33254039999974,143.34853139999996,143.96130549999998,,,,,143.96154019999994,143.9761856,144.1605599999998,144.1766733999998,143.34853139999996,,,,,,,,0,1,0.6109400999998797,None,,,,,,,,830,21,M,L,2026-02-23_11h44.09.261,VisualSearch_2526_3,,2025.2.4,2026-02-23 11h44.09.483072 +0100,
tilted.xlsx,The target is tilted.,117,32,0,4,1,1,1,1,0,0,0,0,0,0,0,0,0,3,4,117,space,7.214106400000219,None,1,1,1.6777099000000817,None,space,1.4310593000000154,None,0,0,0,0,,,,,4,0,32,2,144.1766733999998,,,,,,,,,,,,,,,,,,,,,144.16132059999973,144.1766733999998,144.6605328999999,144.6650549000001,144.6815845000001,146.36068549999982,,,,,146.36088680000012,146.3757056999998,146.56015449999995,146.57626309999978,144.6815845000001,,,,,,,,1,1,1.6777099000000817,None,,,,,,,,830,21,M,L,2026-02-23_11h44.09.261,VisualSearch_2526_3,,2025.2.4,2026-02-23 11h44.09.483072 +0100,
tilted.xlsx,The target is tilted.,117,33,1,4,0,0,0,0,0,0,0,0,0,0,0,0,1,1,1,117,space,7.214106400000219,None,0,1,0.6227530000001025,None,space,1.4310593000000154,None,0,0,0,0,,,,,4,1,33,7,146.57626309999978,,,,,,,,,,,,,,,,,,,,,146.56088959999988,146.57626309999978,147.05988059999981,147.0644312999998,147.08048280000003,147.71032379999997,,,,,147.71050650000006,147.72546049999983,147.90947030000007,147.92560869999988,147.08048280000003,,,,,,,,0,1,0.6227530000001025,None,,,,,,,,830,21,M,L,2026-02-23_11h44.09.261,VisualSearch_2526_3,,2025.2.4,2026-02-23 11h44.09.483072 +0100,
tilted.xlsx,The target is tilted.,117,34,2,4,0,1,1,1,1,1,1,1,1,1,1,1,1,11,12,117,space,7.214106400000219,None,0,1,6.346242900000107,None,space,1.4310593000000154,None,0,0,0,0,,,,,4,2,34,4,147.92560869999988,,,,,,,,,,,,,,,,,,,,,147.91014319999977,147.92560869999988,148.40941859999975,148.41421869999976,148.43020339999975,154.79177019999997,,,,,154.7919281999998,154.8074856999997,154.99145950000002,155.00774189999993,148.43020339999975,,,,,,,,0,1,6.346242900000107,None,,,,,,,,830,21,M,L,2026-02-23_11h44.09.261,VisualSearch_2526_3,,2025.2.4,2026-02-23 11h44.09.483072 +0100,
tilted.xlsx,The target is tilted.,117,35,3,4,1,1,1,1,1,1,1,1,1,1,1,1,0,11,12,117,space,7.214106400000219,None,1,1,0.926943499999652,None,space,1.4310593000000154,None,0,0,0,0,,,,,4,3,35,0,155.00774189999993,,,,,,,,,,,,,,,,,,,,,154.9921264999998,155.00774189999993,155.4916705999999,155.49639309999975,155.51432750000004,156.45835119999992,,,,,156.45854009999994,156.47371539999995,156.65846729999976,156.67461709999998,155.51432750000004,,,,,,,,1,1,0.926943499999652,None,,,,,,,,830,21,M,L,2026-02-23_11h44.09.261,VisualSearch_2526_3,,2025.2.4,2026-02-23 11h44.09.483072 +0100,
tilted.xlsx,The target is tilted.,117,36,4,4,1,1,1,1,1,1,1,1,0,0,0,0,0,7,8,117,space,7.214106400000219,None,1,1,1.8242411999999604,None,space,1.4310593000000154,None,0,0,0,0,,,,,4,4,36,1,156.67461709999998,,,,,,,,,,,,,,,,,,,,,156.65917709999985,156.67461709999998,157.15836659999968,157.16273349999983,157.17656069999975,159.00847109999995,,,,,159.0086550000001,159.02360279999994,159.2080178000001,159.22415760000013,157.17656069999975,,,,,,,,1,1,1.8242411999999604,None,,,,,,,,830,21,M,L,2026-02-23_11h44.09.261,VisualSearch_2526_3,,2025.2.4,2026-02-23 11h44.09.483072 +0100,
tilted.xlsx,The target is tilted.,117,37,5,4,0,1,1,1,0,0,0,0,0,0,0,0,1,3,4,117,space,7.214106400000219,None,0,1,1.31260039999961,None,space,1.4310593000000154,None,0,0,0,0,,,,,4,5,37,6,159.22415760000013,,,,,,,,,,,,,,,,,,,,,159.20873729999994,159.22415760000013,159.70781020000004,159.71224170000005,159.7283499,161.0574649,,,,,161.05764709999994,161.07316609999998,161.25766720000001,161.2738175999998,159.7283499,,,,,,,,0,1,1.31260039999961,None,,,,,,,,830,21,M,L,2026-02-23_11h44.09.261,VisualSearch_2526_3,,2025.2.4,2026-02-23 11h44.09.483072 +0100,
tilted.xlsx,The target is tilted.,117,38,6,4,1,0,0,0,0,0,0,0,0,0,0,0,0,0,1,117,space,7.214106400000219,None,0,0,0.46676509999997506,None,space,1.4310593000000154,None,0,0,0,0,,,,,4,6,38,3,161.2738175999998,,,,,,,,,,,,,,,,,,,,,161.25838299999987,161.2738175999998,161.75720169999977,161.76159589999997,161.77740459999995,162.25743349999993,,,,,162.25765330000013,162.27302199999986,162.45745579999993,162.4736358,161.77740459999995,,,,,,,,0,0,0.46676509999997506,None,,,,,,,,830,21,M,L,2026-02-23_11h44.09.261,VisualSearch_2526_3,,2025.2.4,2026-02-23 11h44.09.483072 +0100,
tilted.xlsx,The target is tilted.,117,39,7,4,0,1,1,1,1,1,1,1,0,0,0,0,1,7,8,117,space,7.214106400000219,None,0,1,5.138520299999982,None,space,1.4310593000000154,None,0,0,0,0,,,,,4,7,39,5,162.4736358,,,,,,,,,,,,,,,,,,,,,162.45819489999985,162.4736358,162.9575219999997,162.9625090999998,162.97886089999975,168.12309229999983,,,,,168.12327129999994,168.1387052,168.32310909999978,168.33926220000012,162.97886089999975,,,,,,,,0,1,5.138520299999982,None,,,,,,,,830,21,M,L,2026-02-23_11h44.09.261,VisualSearch_2526_3,,2025.2.4,2026-02-23 11h44.09.483072 +0100,
tilted.xlsx,The target is tilted.,117,40,0,5,1,1,1,1,1,1,1,1,1,1,1,1,0,11,12,117,space,7.214106400000219,None,1,1,0.7750996999998279,None,space,1.4310593000000154,None,0,0,0,0,,,,,5,0,40,0,168.33926220000012,,,,,,,,,,,,,,,,,,,,,168.3238848000001,168.33926220000012,168.8227327999998,168.82551419999982,168.83848249999983,169.62351639999997,,,,,169.6237160999999,169.6386192,169.822807,169.83877679999978,168.83848249999983,,,,,,,,1,1,0.7750996999998279,None,,,,,,,,830,21,M,L,2026-02-23_11h44.09.261,VisualSearch_2526_3,,2025.2.4,2026-02-23 11h44.09.483072 +0100,
tilted.xlsx,The target is tilted.,117,41,1,5,0,0,0,0,0,0,0,0,0,0,0,0,1,1,1,117,space,7.214106400000219,None,0,1,1.0883912000003875,None,space,1.4310593000000154,None,0,0,0,0,,,,,5,1,41,7,169.83877679999978,,,,,,,,,,,,,,,,,,,,,169.82362079999984,169.83877679999978,170.32262910000009,170.3277605999997,170.3435430999998,171.4397273999998,,,,,171.43993199999977,171.4549546999997,171.63930949999985,171.65546379999978,170.3435430999998,,,,,,,,0,1,1.0883912000003875,None,,,,,,,,830,21,M,L,2026-02-23_11h44.09.261,VisualSearch_2526_3,,2025.2.4,2026-02-23 11h44.09.483072 +0100,
tilted.xlsx,The target is tilted.,117,42,2,5,0,1,1,1,0,0,0,0,0,0,0,0,1,3,4,117,space,7.214106400000219,None,0,1,1.48444150000023,None,space,1.4310593000000154,None,0,0,0,0,,,,,5,2,42,6,171.65546379999978,,,,,,,,,,,,,,,,,,,,,171.64003049999974,171.65546379999978,172.1393880999999,172.1443337999999,172.16040109999994,173.65611639999997,,,,,173.65629949999993,173.67120029999978,173.85559590000003,173.8716816000001,172.16040109999994,,,,,,,,0,1,1.48444150000023,None,,,,,,,,830,21,M,L,2026-02-23_11h44.09.261,VisualSearch_2526_3,,2025.2.4,2026-02-23 11h44.09.483072 +0100,
tilted.xlsx,The target is tilted.,117,43,3,5,1,0,0,0,0,0,0,0,0,0,0,0,0,0,1,117,space,7.214106400000219,None,1,1,0.6019820999999865,None,space,1.4310593000000154,None,0,0,0,0,,,,,5,3,43,3,173.8716816000001,,,,,,,,,,,,,,,,,,,,,173.85631569999987,173.8716816000001,174.35574210000004,174.36072710000008,174.3770881999999,174.9891588999999,,,,,174.98936219999996,175.0043115999997,175.18819910000002,175.2047923,174.3770881999999,,,,,,,,1,1,0.6019820999999865,None,,,,,,,,830,21,M,L,2026-02-23_11h44.09.261,VisualSearch_2526_3,,2025.2.4,2026-02-23 11h44.09.483072 +0100,
tilted.xlsx,The target is tilted.,117,44,4,5,1,1,1,1,1,1,1,1,0,0,0,0,0,7,8,117,space,7.214106400000219,None,1,1,0.7022529000000759,None,space,1.4310593000000154,None,0,0,0,0,,,,,5,4,44,1,175.2047923,,,,,,,,,,,,,,,,,,,,,175.1889355999997,175.2047923,175.68825900000002,175.6925011999997,175.7047004000001,176.42127690000007,,,,,176.42135980000012,176.4371068999999,176.62167999999974,176.6379022000001,175.7047004000001,,,,,,,,1,1,0.7022529000000759,None,,,,,,,,830,21,M,L,2026-02-23_11h44.09.261,VisualSearch_2526_3,,2025.2.4,2026-02-23 11h44.09.483072 +0100,
tilted.xlsx,The target is tilted.,117,45,5,5,0,1,1,1,1,1,1,1,0,0,0,0,1,7,8,117,space,7.214106400000219,None,0,1,2.848312999999962,None,space,1.4310593000000154,None,0,0,0,0,,,,,5,5,45,5,176.6379022000001,,,,,,,,,,,,,,,,,,,,,176.62255449999975,176.6379022000001,177.1216359,177.12668320000012,177.14397969999982,180.00452610000002,,,,,180.00474320000012,180.02026549999982,180.2045020999999,180.22029399999974,177.14397969999982,,,,,,,,0,1,2.848312999999962,None,,,,,,,,830,21,M,L,2026-02-23_11h44.09.261,VisualSearch_2526_3,,2025.2.4,2026-02-23 11h44.09.483072 +0100,
tilted.xlsx,The target is tilted.,117,46,6,5,0,1,1,1,1,1,1,1,1,1,1,1,1,11,12,117,space,7.214106400000219,None,0,1,5.2575425,None,space,1.4310593000000154,None,0,0,0,0,,,,,5,6,46,4,180.22029399999974,,,,,,,,,,,,,,,,,,,,,180.20524290000003,180.22029399999974,180.70426879999968,180.70867820000012,180.72673149999991,185.9870304000001,,,,,185.9872193000001,186.00247709999985,186.18677799999978,186.20265949999975,180.72673149999991,,,,,,,,0,1,5.2575425,None,,,,,,,,830,21,M,L,2026-02-23_11h44.09.261,VisualSearch_2526_3,,2025.2.4,2026-02-23 11h44.09.483072 +0100,
tilted.xlsx,The target is tilted.,117,47,7,5,1,1,1,1,0,0,0,0,0,0,0,0,0,3,4,117,space,7.214106400000219,None,1,1,0.9131959000001189,None,space,1.4310593000000154,None,0,0,0,0,,,,,5,7,47,2,186.20265949999975,,,,,,,,,,,,,,,,,,,,,186.18751040000006,186.20265949999975,186.68638800000008,186.69086689999995,186.70215989999997,187.62028039999996,,,,,187.6205175,187.63551460000008,187.8200281999998,187.83616170000005,186.70215989999997,,,,,,,,1,1,0.9131959000001189,None,,,,,,,,830,21,M,L,2026-02-23_11h44.09.261,VisualSearch_2526_3,,2025.2.4,2026-02-23 11h44.09.483072 +0100,
tilted.xlsx,The target is tilted.,117,48,0,6,1,1,1,1,1,1,1,1,1,1,1,1,0,11,12,117,space,7.214106400000219,None,0,0,4.395982600000025,None,space,1.4310593000000154,None,0,0,0,0,,,,,6,0,48,0,187.83616170000005,,,,,,,,,,,,,,,,,,,,,187.82078439999987,187.83616170000005,188.3187995999997,188.32023849999996,188.33528309999974,192.73598599999968,,,,,192.73615410000002,192.7513017000001,192.93578320000006,192.95154169999978,188.33528309999974,,,,,,,,0,0,4.395982600000025,None,,,,,,,,830,21,M,L,2026-02-23_11h44.09.261,VisualSearch_2526_3,,2025.2.4,2026-02-23 11h44.09.483072 +0100,
tilted.xlsx,The target is tilted.,117,49,1,6,0,1,1,1,1,1,1,1,1,1,1,1,1,11,12,117,space,7.214106400000219,None,0,1,5.412760900000194,None,space,1.4310593000000154,None,0,0,0,0,,,,,6,1,49,4,192.95154169999978,,,,,,,,,,,,,,,,,,,,,192.93649559999994,192.95154169999978,193.4358241,193.44082630000003,193.45539389999976,198.88456169999972,,,,,198.8847268999998,198.90022309999995,199.08448580000004,199.10044149999976,193.45539389999976,,,,,,,,0,1,5.412760900000194,None,,,,,,,,830,21,M,L,2026-02-23_11h44.09.261,VisualSearch_2526_3,,2025.2.4,2026-02-23 11h44.09.483072 +0100,
tilted.xlsx,The target is tilted.,117,50,2,6,0,1,1,1,0,0,0,0,0,0,0,0,1,3,4,117,space,7.214106400000219,None,0,1,1.0040914999999586,None,space,1.4310593000000154,None,0,0,0,0,,,,,6,2,50,6,199.10044149999976,,,,,,,,,,,,,,,,,,,,,199.08509969999977,199.10044149999976,199.58433509999986,199.5890529999997,199.6002327000001,200.61779930000012,,,,,200.61802009999974,200.63337569999976,200.8177052000001,200.83398859999988,199.6002327000001,,,,,,,,0,1,1.0040914999999586,None,,,,,,,,830,21,M,L,2026-02-23_11h44.09.261,VisualSearch_2526_3,,2025.2.4,2026-02-23 11h44.09.483072 +0100,
tilted.xlsx,The target is tilted.,117,51,3,6,1,0,0,0,0,0,0,0,0,0,0,0,0,0,1,117,space,7.214106400000219,None,1,1,0.6705142000000706,None,space,1.4310593000000154,None,0,0,0,0,,,,,6,3,51,3,200.83398859999988,,,,,,,,,,,,,,,,,,,,,200.81845569999996,200.83398859999988,201.31761929999993,201.32204539999975,201.33780209999986,202.01824529999976,,,,,202.01849360000006,202.03319349999992,202.21729520000008,202.2334719999999,201.33780209999986,,,,,,,,1,1,0.6705142000000706,None,,,,,,,,830,21,M,L,2026-02-23_11h44.09.261,VisualSearch_2526_3,,2025.2.4,2026-02-23 11h44.09.483072 +0100,
tilted.xlsx,The target is tilted.,117,52,4,6,1,1,1,1,1,1,1,1,0,0,0,0,0,7,8,117,space,7.214106400000219,None,1,1,4.2626218000000335,None,space,1.4310593000000154,None,0,0,0,0,,,,,6,4,52,1,202.2334719999999,,,,,,,,,,,,,,,,,,,,,202.21811260000004,202.2334719999999,202.71702019999975,202.71997949999968,202.73301570000012,207.00042589999975,,,,,207.00062930000013,207.0157147,207.1995569999999,207.21572719999995,202.73301570000012,,,,,,,,1,1,4.2626218000000335,None,,,,,,,,830,21,M,L,2026-02-23_11h44.09.261,VisualSearch_2526_3,,2025.2.4,2026-02-23 11h44.09.483072 +0100,
tilted.xlsx,The target is tilted.,117,53,5,6,0,1,1,1,1,1,1,1,0,0,0,0,1,7,8,117,space,7.214106400000219,None,0,1,2.5222492000002603,None,space,1.4310593000000154,None,0,0,0,0,,,,,6,5,53,5,207.21572719999995,,,,,,,,,,,,,,,,,,,,,207.20022199999994,207.21572719999995,207.6997996,207.7042805000001,207.7159517,210.2499686000001,,,,,210.2501532000001,210.26512169999978,210.4495554,210.4652983000001,207.7159517,,,,,,,,0,1,2.5222492000002603,None,,,,,,,,830,21,M,L,2026-02-23_11h44.09.261,VisualSearch_2526_3,,2025.2.4,2026-02-23 11h44.09.483072 +0100,
tilted.xlsx,The target is tilted.,117,54,6,6,0,0,0,0,0,0,0,0,0,0,0,0,1,1,1,117,space,7.214106400000219,None,0,1,0.5505271000001812,None,space,1.4310593000000154,None,0,0,0,0,,,,,6,6,54,7,210.4652983000001,,,,,,,,,,,,,,,,,,,,,210.4501995999999,210.4652983000001,210.94927989999996,210.95414619999974,210.96917219999978,211.53164779999997,,,,,211.53170739999996,211.54793119999977,211.73209259999976,,210.96917219999978,,,,,,,,0,1,0.5505271000001812,None,,,,,,,,830,21,M,L,2026-02-23_11h44.09.261,VisualSearch_2526_3,,2025.2.4,2026-02-23 11h44.09.483072 +0100,
tilted.xlsx,The target is tilted.,117,55,7,6,1,1,1,1,0,0,0,0,0,0,0,0,0,3,4,117,space,7.214106400000219,None,1,1,1.1792715999999928,None,space,1.4310593000000154,None,0,0,0,0,,,,,6,7,55,2,211.74870280000005,,,,,,,,,,,,,,,,,,,,,211.73275349999994,211.74870280000005,212.2315963000001,212.2334409,212.2478570999997,213.4327414999998,,,,,213.4329488999997,213.44797759999983,213.6324457999999,213.64859290000004,212.2478570999997,,,,,,,,1,1,1.1792715999999928,None,,,,,,,,830,21,M,L,2026-02-23_11h44.09.261,VisualSearch_2526_3,,2025.2.4,2026-02-23 11h44.09.483072 +0100,
tilted.xlsx,The target is tilted.,117,56,0,7,0,1,1,1,1,1,1,1,1,1,1,1,1,11,12,117,space,7.214106400000219,None,0,1,2.885825400000158,None,space,1.4310593000000154,None,0,0,0,0,,,,,7,0,56,4,213.64859290000004,,,,,,,,,,,,,,,,,,,,,213.63327879999997,213.64859290000004,214.13235889999987,214.13720169999988,214.1545111999999,217.04874119999977,,,,,217.0489121999999,217.0638917000001,217.24829649999992,217.2645238,214.1545111999999,,,,,,,,0,1,2.885825400000158,None,,,,,,,,830,21,M,L,2026-02-23_11h44.09.261,VisualSearch_2526_3,,2025.2.4,2026-02-23 11h44.09.483072 +0100,
tilted.xlsx,The target is tilted.,117,57,1,7,1,1,1,1,1,1,1,1,1,1,1,1,0,11,12,117,space,7.214106400000219,None,1,1,0.9661712000001899,None,space,1.4310593000000154,None,0,0,0,0,,,,,7,1,57,0,217.2645238,,,,,,,,,,,,,,,,,,,,,217.24903349999977,217.2645238,217.74857299999985,217.7534786000001,217.77013279999983,218.7487304000001,,,,,218.7489327999997,218.76378879999993,218.94740120000006,218.9640432000001,217.77013279999983,,,,,,,,1,1,0.9661712000001899,None,,,,,,,,830,21,M,L,2026-02-23_11h44.09.261,VisualSearch_2526_3,,2025.2.4,2026-02-23 11h44.09.483072 +0100,
tilted.xlsx,The target is tilted.,117,58,2,7,1,1,1,1,0,0,0,0,0,0,0,0,0,3,4,117,space,7.214106400000219,None,1,1,0.9820049999998446,None,space,1.4310593000000154,None,0,0,0,0,,,,,7,2,58,2,218.9640432000001,,,,,,,,,,,,,,,,,,,,,218.94786049999993,218.9640432000001,219.448081,219.45291850000012,219.46799409999994,220.4644619999999,,,,,220.46465529999978,220.4801567999998,220.6647152999999,220.6804449000001,219.46799409999994,,,,,,,,1,1,0.9820049999998446,None,,,,,,,,830,21,M,L,2026-02-23_11h44.09.261,VisualSearch_2526_3,,2025.2.4,2026-02-23 11h44.09.483072 +0100,
tilted.xlsx,The target is tilted.,117,59,3,7,0,1,1,1,1,1,1,1,0,0,0,0,1,7,8,117,space,7.214106400000219,None,0,1,3.606945799999721,None,space,1.4310593000000154,None,0,0,0,0,,,,,7,3,59,5,220.6804449000001,,,,,,,,,,,,,,,,,,,,,220.66551870000012,220.6804449000001,221.1645966000001,221.16946599999983,221.18008959999997,224.79767319999974,,,,,224.79785399999992,224.81274619999976,224.9972269,225.01319890000013,221.18008959999997,,,,,,,,0,1,3.606945799999721,None,,,,,,,,830,21,M,L,2026-02-23_11h44.09.261,VisualSearch_2526_3,,2025.2.4,2026-02-23 11h44.09.483072 +0100,
tilted.xlsx,The target is tilted.,117,60,4,7,1,1,1,1,1,1,1,1,0,0,0,0,0,7,8,117,space,7.214106400000219,None,1,1,2.7393722000001617,None,space,1.4310593000000154,None,0,0,0,0,,,,,7,4,60,1,225.01319890000013,,,,,,,,,,,,,,,,,,,,,224.9979373000001,225.01319890000013,225.49731089999977,225.50204649999978,225.51781699999992,228.26353930000005,,,,,228.26371289999997,228.2787687,228.4626613999999,228.47928950000005,225.51781699999992,,,,,,,,1,1,2.7393722000001617,None,,,,,,,,830,21,M,L,2026-02-23_11h44.09.261,VisualSearch_2526_3,,2025.2.4,2026-02-23 11h44.09.483072 +0100,
tilted.xlsx,The target is tilted.,117,61,5,7,0,0,0,0,0,0,0,0,0,0,0,0,1,1,1,117,space,7.214106400000219,None,0,1,0.6986758000002737,None,space,1.4310593000000154,None,0,0,0,0,,,,,7,5,61,7,228.47928950000005,,,,,,,,,,,,,,,,,,,,,228.46326980000003,228.47928950000005,228.96282949999977,228.96723999999995,228.98332789999995,229.69625989999986,,,,,229.69644769999968,229.7118501,229.8964708999997,229.91205379999974,228.98332789999995,,,,,,,,0,1,0.6986758000002737,None,,,,,,,,830,21,M,L,2026-02-23_11h44.09.261,VisualSearch_2526_3,,2025.2.4,2026-02-23 11h44.09.483072 +0100,
tilted.xlsx,The target is tilted.,117,62,6,7,0,1,1,1,0,0,0,0,0,0,0,0,1,3,4,117,space,7.214106400000219,None,0,1,1.3523902000001726,None,space,1.4310593000000154,None,0,0,0,0,,,,,7,6,62,6,229.91205379999974,,,,,,,,,,,,,,,,,,,,,229.89727940000012,229.91205379999974,230.39640999999983,230.40149440000005,230.41865069999994,231.7798485999997,,,,,231.7800483000001,231.7948776999997,231.97922769999968,231.99549380000008,230.41865069999994,,,,,,,,0,1,1.3523902000001726,None,,,,,,,,830,21,M,L,2026-02-23_11h44.09.261,VisualSearch_2526_3,,2025.2.4,2026-02-23 11h44.09.483072 +0100,
tilted.xlsx,The target is tilted.,117,63,7,7,1,0,0,0,0,0,0,0,0,0,0,0,0,0,1,117,space,7.214106400000219,None,1,1,1.0144298999998682,None,space,1.4310593000000154,None,0,0,0,0,,,,,7,7,63,3,231.99549380000008,,,,,,,,,,,,,,,,,,,,,231.9799691999997,231.99549380000008,232.47898029999988,232.4840952999998,232.50064810000003,233.52882279999994,,,,,233.5289843999999,233.54450180000003,233.72906179999973,233.7449115999998,232.50064810000003,,,,,,,,1,1,1.0144298999998682,None,,,,,,,,830,21,M,L,2026-02-23_11h44.09.261,VisualSearch_2526_3,,2025.2.4,2026-02-23 11h44.09.483072 +0100,
tilted.xlsx,The target is tilted.,117,64,0,8,0,1,1,1,0,0,0,0,0,0,0,0,1,3,4,117,space,7.214106400000219,None,0,1,2.272327099999984,None,space,1.4310593000000154,None,0,0,0,0,,,,,8,0,64,6,233.7449115999998,,,,,,,,,,,,,,,,,,,,,233.72988329999998,233.7449115999998,234.2290410999999,234.23402549999992,234.2514197999999,236.5289886999999,,,,,236.5291758999997,236.5441480999998,236.7281865,236.7443457999998,234.2514197999999,,,,,,,,0,1,2.272327099999984,None,,,,,,,,830,21,M,L,2026-02-23_11h44.09.261,VisualSearch_2526_3,,2025.2.4,2026-02-23 11h44.09.483072 +0100,
tilted.xlsx,The target is tilted.,117,65,1,8,0,1,1,1,1,1,1,1,0,0,0,0,1,7,8,117,space,7.214106400000219,None,0,1,2.8342428000000837,None,space,1.4310593000000154,None,0,0,0,0,,,,,8,1,65,5,236.7443457999998,,,,,,,,,,,,,,,,,,,,,236.72893879999992,236.7443457999998,237.22786799999994,237.2314093,237.2441275000001,240.0944043999998,,,,,240.09456790000013,240.11007289999998,240.29445540000006,240.31038899999976,237.2441275000001,,,,,,,,0,1,2.8342428000000837,None,,,,,,,,830,21,M,L,2026-02-23_11h44.09.261,VisualSearch_2526_3,,2025.2.4,2026-02-23 11h44.09.483072 +0100,
tilted.xlsx,The target is tilted.,117,66,2,8,1,0,0,0,0,0,0,0,0,0,0,0,0,0,1,117,space,7.214106400000219,None,1,1,0.6358700999999201,None,space,1.4310593000000154,None,0,0,0,0,,,,,8,2,66,3,240.31038899999976,,,,,,,,,,,,,,,,,,,,,240.29519979999986,240.31038899999976,240.79420019999998,240.7989561999998,240.8140427999997,241.46141050000006,,,,,241.4616057999997,241.47663860000011,241.6607300999999,241.6769615999997,240.8140427999997,,,,,,,,1,1,0.6358700999999201,None,,,,,,,,830,21,M,L,2026-02-23_11h44.09.261,VisualSearch_2526_3,,2025.2.4,2026-02-23 11h44.09.483072 +0100,
tilted.xlsx,The target is tilted.,117,67,3,8,0,0,0,0,0,0,0,0,0,0,0,0,1,1,1,117,space,7.214106400000219,None,0,1,0.6955995999996958,None,space,1.4310593000000154,None,0,0,0,0,,,,,8,3,67,7,241.6769615999997,,,,,,,,,,,,,,,,,,,,,241.66155759999992,241.6769615999997,242.16071280000006,242.16501339999968,242.17691669999977,242.87793809999994,,,,,242.87813370000003,242.89312089999976,243.07743789999995,243.09367399999974,242.17691669999977,,,,,,,,0,1,0.6955995999996958,None,,,,,,,,830,21,M,L,2026-02-23_11h44.09.261,VisualSearch_2526_3,,2025.2.4,2026-02-23 11h44.09.483072 +0100,
tilted.xlsx,The target is tilted.,117,68,4,8,1,1,1,1,0,0,0,0,0,0,0,0,0,3,4,117,space,7.214106400000219,None,1,1,0.8302364000001035,None,space,1.4310593000000154,None,0,0,0,0,,,,,8,4,68,2,243.09367399999974,,,,,,,,,,,,,,,,,,,,,243.07827300000008,243.09367399999974,243.57766119999997,243.58271259999992,243.5996270999999,244.44347340000013,,,,,244.44360430000006,244.45931990000008,244.64399419999972,244.66010640000013,243.5996270999999,,,,,,,,1,1,0.8302364000001035,None,,,,,,,,830,21,M,L,2026-02-23_11h44.09.261,VisualSearch_2526_3,,2025.2.4,2026-02-23 11h44.09.483072 +0100,
tilted.xlsx,The target is tilted.,117,69,5,8,0,1,1,1,1,1,1,1,1,1,1,1,1,11,12,117,space,7.214106400000219,None,0,1,4.799191600000086,None,space,1.4310593000000154,None,0,0,0,0,,,,,8,5,69,4,244.66010640000013,,,,,,,,,,,,,,,,,,,,,244.64481410000008,244.66010640000013,245.14392199999975,245.14886049999996,245.16607669999985,249.97672629999988,,,,,249.97688729999982,249.99192489999996,250.17623689999982,250.19236349999983,245.16607669999985,,,,,,,,0,1,4.799191600000086,None,,,,,,,,830,21,M,L,2026-02-23_11h44.09.261,VisualSearch_2526_3,,2025.2.4,2026-02-23 11h44.09.483072 +0100,
tilted.xlsx,The target is tilted.,117,70,6,8,1,1,1,1,1,1,1,1,1,1,1,1,0,11,12,117,space,7.214106400000219,None,1,1,1.514229400000204,None,space,1.4310593000000154,None,0,0,0,0,,,,,8,6,70,0,250.19236349999983,,,,,,,,,,,,,,,,,,,,,250.1769119999999,250.19236349999983,250.67626440000004,250.68066139999974,250.69642859999976,252.22578369999974,,,,,252.22595090000004,252.24146650000012,252.42588849999993,252.4420252,250.69642859999976,,,,,,,,1,1,1.514229400000204,None,,,,,,,,830,21,M,L,2026-02-23_11h44.09.261,VisualSearch_2526_3,,2025.2.4,2026-02-23 11h44.09.483072 +0100,
tilted.xlsx,The target is tilted.,117,71,7,8,1,1,1,1,1,1,1,1,0,0,0,0,0,7,8,117,space,7.214106400000219,None,1,1,1.8235783999998603,None,space,1.4310593000000154,None,0,0,0,0,,,,,8,7,71,1,252.4420252,,,,,,,,,,,,,,,,,,,,,252.42665069999975,252.4420252,252.92601190000005,252.9307558999999,252.9414437999999,254.77607940000007,,,,,254.77625609999996,254.7910339,254.9751194999999,254.9912291999999,252.9414437999999,,,,,,,,1,1,1.8235783999998603,None,,,,,,,,830,21,M,L,2026-02-23_11h44.09.261,VisualSearch_2526_3,,2025.2.4,2026-02-23 11h44.09.483072 +0100,
tilted.xlsx,The target is tilted.,117,72,0,9,1,1,1,1,1,1,1,1,0,0,0,0,0,7,8,117,space,7.214106400000219,None,1,1,1.245229399999971,None,space,1.4310593000000154,None,0,0,0,0,,,,,9,0,72,1,254.9912291999999,,,,,,,,,,,,,,,,,,,,,254.97580789999984,254.9912291999999,255.47553179999977,255.480098,255.4969633999999,256.75834699999996,,,,,256.7585076999999,256.77401569999984,256.9581017999999,256.9746388999997,255.4969633999999,,,,,,,,1,1,1.245229399999971,None,,,,,,,,830,21,M,L,2026-02-23_11h44.09.261,VisualSearch_2526_3,,2025.2.4,2026-02-23 11h44.09.483072 +0100,
tilted.xlsx,The target is tilted.,117,73,1,9,1,0,0,0,0,0,0,0,0,0,0,0,0,0,1,117,space,7.214106400000219,None,1,1,0.5061703000001216,None,space,1.4310593000000154,None,0,0,0,0,,,,,9,1,73,3,256.9746388999997,,,,,,,,,,,,,,,,,,,,,256.9587567999997,256.9746388999997,257.4579252999997,257.4618596999999,257.47420939999984,257.9918124000001,,,,,257.9919904999997,258.00731289999976,258.19143639999993,258.2078615999999,257.47420939999984,,,,,,,,1,1,0.5061703000001216,None,,,,,,,,830,21,M,L,2026-02-23_11h44.09.261,VisualSearch_2526_3,,2025.2.4,2026-02-23 11h44.09.483072 +0100,
tilted.xlsx,The target is tilted.,117,74,2,9,0,0,0,0,0,0,0,0,0,0,0,0,1,1,1,117,space,7.214106400000219,None,0,1,0.629102100000182,None,space,1.4310593000000154,None,0,0,0,0,,,,,9,2,74,7,258.2078615999999,,,,,,,,,,,,,,,,,,,,,258.1922265999997,258.2078615999999,258.6917026000001,258.6965261,258.7123730999997,259.35796619999974,,,,,259.35814619999974,259.3736205,259.5581953000001,259.5743812999999,258.7123730999997,,,,,,,,0,1,0.629102100000182,None,,,,,,,,830,21,M,L,2026-02-23_11h44.09.261,VisualSearch_2526_3,,2025.2.4,2026-02-23 11h44.09.483072 +0100,
tilted.xlsx,The target is tilted.,117,75,3,9,0,1,1,1,1,1,1,1,0,0,0,0,1,7,8,117,space,7.214106400000219,None,0,1,2.8430437000001803,None,space,1.4310593000000154,None,0,0,0,0,,,,,9,3,75,5,259.5743812999999,,,,,,,,,,,,,,,,,,,,,259.55901829999993,259.5743812999999,260.0581889,260.06311589999996,260.0801898999998,262.92439650000006,,,,,262.9245814000001,262.9398427000001,263.1241593999998,263.1403938999997,260.0801898999998,,,,,,,,0,1,2.8430437000001803,None,,,,,,,,830,21,M,L,2026-02-23_11h44.09.261,VisualSearch_2526_3,,2025.2.4,2026-02-23 11h44.09.483072 +0100,
tilted.xlsx,The target is tilted.,117,76,4,9,1,1,1,1,1,1,1,1,1,1,1,1,0,11,12,117,space,7.214106400000219,None,0,0,4.517772500000319,None,space,1.4310593000000154,None,0,0,0,0,,,,,9,4,76,0,263.1403938999997,,,,,,,,,,,,,,,,,,,,,263.1248925,263.1403938999997,263.6241291000001,263.62862959999984,263.64506619999975,268.17369529999996,,,,,268.1738765,268.1888842999997,268.3733441999998,268.3890696999997,263.64506619999975,,,,,,,,0,0,4.517772500000319,None,,,,,,,,830,21,M,L,2026-02-23_11h44.09.261,VisualSearch_2526_3,,2025.2.4,2026-02-23 11h44.09.483072 +0100,
tilted.xlsx,The target is tilted.,117,77,5,9,1,1,1,1,0,0,0,0,0,0,0,0,0,3,4,117,space,7.214106400000219,None,0,0,1.1280683999998473,None,space,1.4310593000000154,None,0,0,0,0,,,,,9,5,77,2,268.3890696999997,,,,,,,,,,,,,,,,,,,,,268.37409320000006,268.3890696999997,268.87322989999984,268.8776227999997,268.8929347999997,270.0223557999998,,,,,270.0224361999999,270.0383397999999,270.2224403,270.23870009999973,268.8929347999997,,,,,,,,0,0,1.1280683999998473,None,,,,,,,,830,21,M,L,2026-02-23_11h44.09.261,VisualSearch_2526_3,,2025.2.4,2026-02-23 11h44.09.483072 +0100,
tilted.xlsx,The target is tilted.,117,78,6,9,0,1,1,1,1,1,1,1,1,1,1,1,1,11,12,117,space,7.214106400000219,None,0,1,3.396038800000042,None,space,1.4310593000000154,None,0,0,0,0,,,,,9,6,78,4,270.23870009999973,,,,,,,,,,,,,,,,,,,,,270.22274879999986,270.23870009999973,270.7227429999998,270.72750769999993,270.74281889999975,274.15530469999976,,,,,274.1554517999998,274.17115639999975,274.3556088999999,,,,,,,,,,0,1,3.396038800000042,None,,,,,,,,830,21,M,L,2026-02-23_11h44.09.261,VisualSearch_2526_3,,2025.2.4,2026-02-23 11h44.09.483072 +0100,
tilted.xlsx,The target is tilted.,117,79,7,9,0,1,1,1,0,0,0,0,0,0,0,0,1,3,4,117,space,7.214106400000219,None,0,1,1.6040972999999212,None,space,1.4310593000000154,None,0,0,0,0,,,,,9,7,79,6,274.37143609999976,,,,,,,,,,,,,,,,,,,,,274.3564975999998,274.37143609999976,274.8557461999999,274.8608839999997,274.87810379999974,276.48918809999986,,,,,276.4893861999999,276.5042473999997,276.6881364000001,276.7048039000001,274.87810379999974,,,,,,,,0,1,1.6040972999999212,None,,,,,,,,830,21,M,L,2026-02-23_11h44.09.261,VisualSearch_2526_3,,2025.2.4,2026-02-23 11h44.09.483072 +0100,
tilted.xlsx,The target is tilted.,117,80,0,10,0,0,0,0,0,0,0,0,0,0,0,0,1,1,1,117,space,7.214106400000219,None,0,1,0.638036700000157,None,space,1.4310593000000154,None,0,0,0,0,,,,,10,0,80,7,276.7048039000001,,,,,,,,,,,,,,,,,,,,,276.68888049999987,276.7048039000001,277.1882326,277.19314529999974,277.2095912,277.8556891999997,,,,,277.8558831,277.87055599999985,278.0551250999997,278.07106479999993,277.2095912,,,,,,,,0,1,0.638036700000157,None,,,,,,,,830,21,M,L,2026-02-23_11h44.09.261,VisualSearch_2526_3,,2025.2.4,2026-02-23 11h44.09.483072 +0100,
tilted.xlsx,The target is tilted.,117,81,1,10,1,1,1,1,1,1,1,1,0,0,0,0,0,7,8,117,space,7.214106400000219,None,1,1,0.8215299999997114,None,space,1.4310593000000154,None,0,0,0,0,,,,,10,1,81,1,278.07106479999993,,,,,,,,,,,,,,,,,,,,,278.05594859999974,278.07106479999993,278.5551013999998,278.5600142999997,278.57805599999983,279.4051254000001,,,,,279.40531969999984,279.4204248000001,279.6049165999998,279.6206664000001,278.57805599999983,,,,,,,,1,1,0.8215299999997114,None,,,,,,,,830,21,M,L,2026-02-23_11h44.09.261,VisualSearch_2526_3,,2025.2.4,2026-02-23 11h44.09.483072 +0100,
tilted.xlsx,The target is tilted.,117,82,2,10,0,1,1,1,0,0,0,0,0,0,0,0,1,3,4,117,space,7.214106400000219,None,0,1,0.9305326999997305,None,space,1.4310593000000154,None,0,0,0,0,,,,,10,2,82,6,279.6206664000001,,,,,,,,,,,,,,,,,,,,,279.60569369999985,279.6206664000001,280.1042695000001,280.1081359,280.1222763999999,281.0550785999999,,,,,281.05528159999994,281.0701694999998,281.2545074999998,281.2702825000001,280.1222763999999,,,,,,,,0,1,0.9305326999997305,None,,,,,,,,830,21,M,L,2026-02-23_11h44.09.261,VisualSearch_2526_3,,2025.2.4,2026-02-23 11h44.09.483072 +0100,
tilted.xlsx,The target is tilted.,117,83,3,10,1,1,1,1,0,0,0,0,0,0,0,0,0,3,4,117,space,7.214106400000219,None,0,0,1.0938138999999865,None,space,1.4310593000000154,None,0,0,0,0,,,,,10,3,83,2,281.2702825000001,,,,,,,,,,,,,,,,,,,,,281.25526149999996,281.2702825000001,281.7545498999998,281.7595048999997,281.7742645999997,282.8715152,,,,,282.871713,282.8865476000001,283.07081019999987,283.08688189999975,281.7742645999997,,,,,,,,0,0,1.0938138999999865,None,,,,,,,,830,21,M,L,2026-02-23_11h44.09.261,VisualSearch_2526_3,,2025.2.4,2026-02-23 11h44.09.483072 +0100,
tilted.xlsx,The target is tilted.,117,84,4,10,1,1,1,1,1,1,1,1,1,1,1,1,0,11,12,117,space,7.214106400000219,None,1,1,4.200203400000191,None,space,1.4310593000000154,None,0,0,0,0,,,,,10,4,84,0,283.08688189999975,,,,,,,,,,,,,,,,,,,,,283.07164809999995,283.08688189999975,283.57055649999984,283.57631949999995,283.59249109999973,287.8039423,,,,,287.8041287000001,287.81949080000004,288.0031488999998,288.0195018999998,283.59249109999973,,,,,,,,1,1,4.200203400000191,None,,,,,,,,830,21,M,L,2026-02-23_11h44.09.261,VisualSearch_2526_3,,2025.2.4,2026-02-23 11h44.09.483072 +0100,
tilted.xlsx,The target is tilted.,117,85,5,10,1,0,0,0,0,0,0,0,0,0,0,0,0,0,1,117,space,7.214106400000219,None,1,1,0.7422215000001415,None,space,1.4310593000000154,None,0,0,0,0,,,,,10,5,85,3,288.0195018999998,,,,,,,,,,,,,,,,,,,,,288.0036148999998,288.0195018999998,288.5032974999999,288.5077903000001,288.52392069999996,289.27002319999974,,,,,289.2702018,289.28590669999994,289.4697087999998,289.4859857000001,288.52392069999996,,,,,,,,1,1,0.7422215000001415,None,,,,,,,,830,21,M,L,2026-02-23_11h44.09.261,VisualSearch_2526_3,,2025.2.4,2026-02-23 11h44.09.483072 +0100,
tilted.xlsx,The target is tilted.,117,86,6,10,0,1,1,1,1,1,1,1,0,0,0,0,1,7,8,117,space,7.214106400000219,None,0,1,2.5257550000001174,None,space,1.4310593000000154,None,0,0,0,0,,,,,10,6,86,5,289.4859857000001,,,,,,,,,,,,,,,,,,,,,289.4704394999999,289.4859857000001,289.96919309999976,289.9735059999998,289.9888130999998,292.5195463,,,,,292.5197245999998,292.5352859999998,292.71889869999995,292.7354458,289.9888130999998,,,,,,,,0,1,2.5257550000001174,None,,,,,,,,830,21,M,L,2026-02-23_11h44.09.261,VisualSearch_2526_3,,2025.2.4,2026-02-23 11h44.09.483072 +0100,
tilted.xlsx,The target is tilted.,117,87,7,10,0,1,1,1,1,1,1,1,1,1,1,1,1,11,12,117,space,7.214106400000219,None,0,1,3.3439508000001297,None,space,1.4310593000000154,None,0,0,0,0,,,,,10,7,87,4,292.7354458,,,,,,,,,,,,,,,,,,,,,292.71963000000005,292.7354458,293.2193198,293.2238702999998,293.2402785999998,296.5853539999998,,,,,296.5855293999998,296.6011174999999,296.7852490999999,296.80128319999994,293.2402785999998,,,,,,,,0,1,3.3439508000001297,None,,,,,,,,830,21,M,L,2026-02-23_11h44.09.261,VisualSearch_2526_3,,2025.2.4,2026-02-23 11h44.09.483072 +0100,
tilted.xlsx,The target is tilted.,117,88,0,11,0,1,1,1,1,1,1,1,0,0,0,0,1,7,8,117,space,7.214106400000219,None,0,1,2.5690606000002845,None,space,1.4310593000000154,None,0,0,0,0,,,,,11,0,88,5,296.80128319999994,,,,,,,,,,,,,,,,,,,,,296.7859945,296.80128319999994,297.28481280000005,297.28739559999985,297.30117819999987,299.88514639999994,,,,,299.8853122999999,299.9005039999997,300.0847475999999,300.1004849000001,297.30117819999987,,,,,,,,0,1,2.5690606000002845,None,,,,,,,,830,21,M,L,2026-02-23_11h44.09.261,VisualSearch_2526_3,,2025.2.4,2026-02-23 11h44.09.483072 +0100,
tilted.xlsx,The target is tilted.,117,89,1,11,1,1,1,1,0,0,0,0,0,0,0,0,0,3,4,117,space,7.214106400000219,None,1,1,1.2459602999997514,None,space,1.4310593000000154,None,0,0,0,0,,,,,11,1,89,2,300.1004849000001,,,,,,,,,,,,,,,,,,,,,300.0854617,300.1004849000001,300.5846687999997,300.5889705999998,300.6043808999998,301.86804559999973,,,,,301.86824149999984,301.88386820000005,302.0677698999998,302.0839252999999,300.6043808999998,,,,,,,,1,1,1.2459602999997514,None,,,,,,,,830,21,M,L,2026-02-23_11h44.09.261,VisualSearch_2526_3,,2025.2.4,2026-02-23 11h44.09.483072 +0100,
tilted.xlsx,The target is tilted.,117,90,2,11,1,1,1,1,1,1,1,1,0,0,0,0,0,7,8,117,space,7.214106400000219,None,0,0,2.370595400000184,None,space,1.4310593000000154,None,0,0,0,0,,,,,11,2,90,1,302.0839252999999,,,,,,,,,,,,,,,,,,,,,302.06848309999987,302.0839252999999,302.56780649999973,302.5728802999997,302.5897667999998,304.96755029999986,,,,,304.9677111000001,304.98328820000006,305.1669419,305.1829972999999,302.5897667999998,,,,,,,,0,0,2.370595400000184,None,,,,,,,,830,21,M,L,2026-02-23_11h44.09.261,VisualSearch_2526_3,,2025.2.4,2026-02-23 11h44.09.483072 +0100,
tilted.xlsx,The target is tilted.,117,91,3,11,0,1,1,1,0,0,0,0,0,0,0,0,1,3,4,117,space,7.214106400000219,None,0,1,1.1218681999998807,None,space,1.4310593000000154,None,0,0,0,0,,,,,11,3,91,6,305.1829972999999,,,,,,,,,,,,,,,,,,,,,305.1676554999999,305.1829972999999,305.6671873999999,305.6719264999997,305.6888703999998,306.8175401999997,,,,,306.8177347000001,306.83290880000004,307.01682059999985,307.0330676999997,305.6888703999998,,,,,,,,0,1,1.1218681999998807,None,,,,,,,,830,21,M,L,2026-02-23_11h44.09.261,VisualSearch_2526_3,,2025.2.4,2026-02-23 11h44.09.483072 +0100,
tilted.xlsx,The target is tilted.,117,92,4,11,1,1,1,1,1,1,1,1,1,1,1,1,0,11,12,117,space,7.214106400000219,None,0,0,4.927732400000423,None,space,1.4310593000000154,None,0,0,0,0,,,,,11,4,92,0,307.0330676999997,,,,,,,,,,,,,,,,,,,,,307.0175414999999,307.0330676999997,307.51691230000006,307.52118789999986,307.5384799999997,312.4830076999997,,,,,312.4831862000001,312.49839669999983,312.6825694999998,312.6988349999997,307.5384799999997,,,,,,,,0,0,4.927732400000423,None,,,,,,,,830,21,M,L,2026-02-23_11h44.09.261,VisualSearch_2526_3,,2025.2.4,2026-02-23 11h44.09.483072 +0100,
tilted.xlsx,The target is tilted.,117,93,5,11,1,0,0,0,0,0,0,0,0,0,0,0,0,0,1,117,space,7.214106400000219,None,1,1,0.6134399000002304,None,space,1.4310593000000154,None,0,0,0,0,,,,,11,5,93,3,312.6988349999997,,,,,,,,,,,,,,,,,,,,,312.6833340999997,312.6988349999997,313.1824655999999,313.1868822000001,313.20311349999974,313.83308499999976,,,,,313.8332799,313.84847949999994,314.03253270000005,314.0487595999998,313.20311349999974,,,,,,,,1,1,0.6134399000002304,None,,,,,,,,830,21,M,L,2026-02-23_11h44.09.261,VisualSearch_2526_3,,2025.2.4,2026-02-23 11h44.09.483072 +0100,
tilted.xlsx,The target is tilted.,117,94,6,11,0,1,1,1,1,1,1,1,1,1,1,1,1,11,12,117,space,7.214106400000219,None,0,1,4.008499400000346,None,space,1.4310593000000154,None,0,0,0,0,,,,,11,6,94,4,314.0487595999998,,,,,,,,,,,,,,,,,,,,,314.03337310000006,314.0487595999998,314.5325192,314.5372441999998,314.5485076,318.56472369999983,,,,,318.5648378000001,318.5809025999997,318.76497259999996,318.7810129999998,314.5485076,,,,,,,,0,1,4.008499400000346,None,,,,,,,,830,21,M,L,2026-02-23_11h44.09.261,VisualSearch_2526_3,,2025.2.4,2026-02-23 11h44.09.483072 +0100,
tilted.xlsx,The target is tilted.,117,95,7,11,0,0,0,0,0,0,0,0,0,0,0,0,1,1,1,117,space,7.214106400000219,None,0,1,0.6561023999997815,None,space,1.4310593000000154,None,0,0,0,0,,,,,11,7,95,7,318.7810129999998,,,,,,,,,,,,,,,,,,,,,318.7657113999999,318.7810129999998,319.26499609999973,319.26977149999993,319.28826789999994,319.9483034,,,,,319.948496,319.96408329999986,320.14788869999984,320.16426249999995,319.28826789999994,,,,,,,,0,1,0.6561023999997815,None,,,,,,,,830,21,M,L,2026-02-23_11h44.09.261,VisualSearch_2526_3,,2025.2.4,2026-02-23 11h44.09.483072 +0100,
tilted.xlsx,The target is tilted.,117,96,0,12,0,0,0,0,0,0,0,0,0,0,0,0,1,1,1,117,space,7.214106400000219,None,0,1,0.5968150999997306,None,space,1.4310593000000154,None,0,0,0,0,,,,,12,0,96,7,320.16426249999995,,,,,,,,,,,,,,,,,,,,,320.14848170000005,320.16426249999995,320.64823720000004,320.65368929999977,320.6703379999999,321.28064129999984,,,,,321.28070019999996,321.2968350000001,321.48079759999973,,320.6703379999999,,,,,,,,0,1,0.5968150999997306,None,,,,,,,,830,21,M,L,2026-02-23_11h44.09.261,VisualSearch_2526_3,,2025.2.4,2026-02-23 11h44.09.483072 +0100,
tilted.xlsx,The target is tilted.,117,97,1,12,0,1,1,1,1,1,1,1,1,1,1,1,1,11,12,117,space,7.214106400000219,None,0,1,3.6287924999996903,None,space,1.4310593000000154,None,0,0,0,0,,,,,12,1,97,4,321.4970976999998,,,,,,,,,,,,,,,,,,,,,321.48149509999985,321.4970976999998,321.9808935000001,321.98590179999974,322.0029267,325.6473526,,,,,325.64751380000007,325.6628568000001,325.84708809999984,325.86329829999977,322.0029267,,,,,,,,0,1,3.6287924999996903,None,,,,,,,,830,21,M,L,2026-02-23_11h44.09.261,VisualSearch_2526_3,,2025.2.4,2026-02-23 11h44.09.483072 +0100,
tilted.xlsx,The target is tilted.,117,98,2,12,0,1,1,1,1,1,1,1,0,0,0,0,1,7,8,117,space,7.214106400000219,None,0,1,2.272772200000418,None,space,1.4310593000000154,None,0,0,0,0,,,,,12,2,98,5,325.86329829999977,,,,,,,,,,,,,,,,,,,,,325.8478691,325.86329829999977,326.3470397000001,326.3515385999999,326.3665898999998,328.64725199999975,,,,,328.6474352,328.6625965999997,328.8460971999998,328.86232440000003,326.3665898999998,,,,,,,,0,1,2.272772200000418,None,,,,,,,,830,21,M,L,2026-02-23_11h44.09.261,VisualSearch_2526_3,,2025.2.4,2026-02-23 11h44.09.483072 +0100,
tilted.xlsx,The target is tilted.,117,99,3,12,1,0,0,0,0,0,0,0,0,0,0,0,0,0,1,117,space,7.214106400000219,None,1,1,0.5542588000002979,None,space,1.4310593000000154,None,0,0,0,0,,,,,12,3,99,3,328.86232440000003,,,,,,,,,,,,,,,,,,,,,328.8467286,328.86232440000003,329.3465659999997,329.3510166000001,329.3678328000001,329.92995139999994,,,,,329.9301498,329.94556669999974,330.1300398999997,330.14589879999994,329.3678328000001,,,,,,,,1,1,0.5542588000002979,None,,,,,,,,830,21,M,L,2026-02-23_11h44.09.261,VisualSearch_2526_3,,2025.2.4,2026-02-23 11h44.09.483072 +0100,
tilted.xlsx,The target is tilted.,117,100,4,12,1,1,1,1,1,1,1,1,1,1,1,1,0,11,12,117,space,7.214106400000219,None,1,1,1.56741860000011,None,space,1.4310593000000154,None,0,0,0,0,,,,,12,4,100,0,330.14589879999994,,,,,,,,,,,,,,,,,,,,,330.13083860000006,330.14589879999994,330.6296054999998,330.6345335000001,330.65078489999996,332.2299926999999,,,,,332.23016899999993,332.2456299999999,332.4293104999997,332.4454660000001,330.65078489999996,,,,,,,,1,1,1.56741860000011,None,,,,,,,,830,21,M,L,2026-02-23_11h44.09.261,VisualSearch_2526_3,,2025.2.4,2026-02-23 11h44.09.483072 +0100,
tilted.xlsx,The target is tilted.,117,101,5,12,1,1,1,1,1,1,1,1,0,0,0,0,0,7,8,117,space,7.214106400000219,None,1,1,1.5247497000000294,None,space,1.4310593000000154,None,0,0,0,0,,,,,12,5,101,1,332.4454660000001,,,,,,,,,,,,,,,,,,,,,332.4300513999997,332.4454660000001,332.9294488999999,332.9342392999997,332.9508679999999,334.4790531999997,,,,,334.47923519999995,334.49506040000006,334.6789875999998,334.69512769999983,332.9508679999999,,,,,,,,1,1,1.5247497000000294,None,,,,,,,,830,21,M,L,2026-02-23_11h44.09.261,VisualSearch_2526_3,,2025.2.4,2026-02-23 11h44.09.483072 +0100,
tilted.xlsx,The target is tilted.,117,102,6,12,0,1,1,1,0,0,0,0,0,0,0,0,1,3,4,117,space,7.214106400000219,None,0,1,1.1582148999996207,None,space,1.4310593000000154,None,0,0,0,0,,,,,12,6,102,6,334.69512769999983,,,,,,,,,,,,,,,,,,,,,334.6797410999998,334.69512769999983,335.17911939999976,335.18412069999977,335.2020926,336.36235579999993,,,,,336.3625333,336.378103,336.5620380999999,336.57814580000013,335.2020926,,,,,,,,0,1,1.1582148999996207,None,,,,,,,,830,21,M,L,2026-02-23_11h44.09.261,VisualSearch_2526_3,,2025.2.4,2026-02-23 11h44.09.483072 +0100,
tilted.xlsx,The target is tilted.,117,103,7,12,1,1,1,1,0,0,0,0,0,0,0,0,0,3,4,117,space,7.214106400000219,None,0,0,1.385953900000004,None,space,1.4310593000000154,None,0,0,0,0,,,,,12,7,103,2,336.57814580000013,,,,,,,,,,,,,,,,,,,,,336.5627894999998,336.57814580000013,337.06182039999976,337.06576210000003,337.0814752000001,338.4789224000001,,,,,338.4790985999998,338.49447469999996,338.6781904999998,338.6944619000001,337.0814752000001,,,,,,,,0,0,1.385953900000004,None,,,,,,,,830,21,M,L,2026-02-23_11h44.09.261,VisualSearch_2526_3,,2025.2.4,2026-02-23 11h44.09.483072 +0100,
tilted.xlsx,The target is tilted.,117,104,0,13,1,0,0,0,0,0,0,0,0,0,0,0,0,0,1,117,space,7.214106400000219,None,1,1,0.5597714000000451,None,space,1.4310593000000154,None,0,0,0,0,,,,,13,0,104,3,338.6944619000001,,,,,,,,,,,,,,,,,,,,,338.67886670000007,338.6944619000001,339.17779999999993,339.18233789999977,339.19948109999996,339.7617006999999,,,,,339.761923,339.7774171000001,339.9612066999998,339.97728340000003,339.19948109999996,,,,,,,,1,1,0.5597714000000451,None,,,,,,,,830,21,M,L,2026-02-23_11h44.09.261,VisualSearch_2526_3,,2025.2.4,2026-02-23 11h44.09.483072 +0100,
tilted.xlsx,The target is tilted.,117,105,1,13,1,1,1,1,0,0,0,0,0,0,0,0,0,3,4,117,space,7.214106400000219,None,1,1,0.8748156999999992,None,space,1.4310593000000154,None,0,0,0,0,,,,,13,1,105,2,339.97728340000003,,,,,,,,,,,,,,,,,,,,,339.9620221,339.97728340000003,340.46120659999997,340.4661160999999,340.4831214000001,341.36171719999993,,,,,341.3619120999997,341.37702579999996,341.56097339999997,341.5775429,340.4831214000001,,,,,,,,1,1,0.8748156999999992,None,,,,,,,,830,21,M,L,2026-02-23_11h44.09.261,VisualSearch_2526_3,,2025.2.4,2026-02-23 11h44.09.483072 +0100,
tilted.xlsx,The target is tilted.,117,106,2,13,0,0,0,0,0,0,0,0,0,0,0,0,1,1,1,117,space,7.214106400000219,None,0,1,0.6904303000001164,None,space,1.4310593000000154,None,0,0,0,0,,,,,13,2,106,7,341.5775429,,,,,,,,,,,,,,,,,,,,,341.56187009999985,341.5775429,342.0608115,342.06518800000003,342.081588,342.77813049999986,,,,,342.77832249999983,342.7936722999998,342.9776870999999,342.9938151000001,342.081588,,,,,,,,0,1,0.6904303000001164,None,,,,,,,,830,21,M,L,2026-02-23_11h44.09.261,VisualSearch_2526_3,,2025.2.4,2026-02-23 11h44.09.483072 +0100,
tilted.xlsx,The target is tilted.,117,107,3,13,1,1,1,1,1,1,1,1,1,1,1,1,0,11,12,117,space,7.214106400000219,None,1,1,1.2795792000001711,None,space,1.4310593000000154,None,0,0,0,0,,,,,13,3,107,0,342.9938151000001,,,,,,,,,,,,,,,,,,,,,342.9783959000001,342.9938151000001,343.4776895,343.48261409999986,343.4991089,344.7945867999997,,,,,344.7947842999997,344.8098273999999,344.9941352999999,345.0102630000001,343.4991089,,,,,,,,1,1,1.2795792000001711,None,,,,,,,,830,21,M,L,2026-02-23_11h44.09.261,VisualSearch_2526_3,,2025.2.4,2026-02-23 11h44.09.483072 +0100,
tilted.xlsx,The target is tilted.,117,108,4,13,1,1,1,1,1,1,1,1,0,0,0,0,0,7,8,117,space,7.214106400000219,None,1,1,1.900567300000148,None,space,1.4310593000000154,None,0,0,0,0,,,,,13,4,108,1,345.0102630000001,,,,,,,,,,,,,,,,,,,,,344.99494349999986,345.0102630000001,345.4940732,345.49908589999995,345.5159570999999,347.4268453999998,,,,,347.4269712999999,347.44286650000004,347.6267319999997,347.6429512999998,345.5159570999999,,,,,,,,1,1,1.900567300000148,None,,,,,,,,830,21,M,L,2026-02-23_11h44.09.261,VisualSearch_2526_3,,2025.2.4,2026-02-23 11h44.09.483072 +0100,
tilted.xlsx,The target is tilted.,117,109,5,13,0,1,1,1,1,1,1,1,1,1,1,1,1,11,12,117,space,7.214106400000219,None,0,1,4.757994300000064,None,space,1.4310593000000154,None,0,0,0,0,,,,,13,5,109,4,347.6429512999998,,,,,,,,,,,,,,,,,,,,,347.62747039999977,347.6429512999998,348.1269484999998,348.13161149999996,348.14734,352.90924159999986,,,,,352.90942259999974,352.9254977999999,353.1094125999998,353.12553179999986,348.14734,,,,,,,,0,1,4.757994300000064,None,,,,,,,,830,21,M,L,2026-02-23_11h44.09.261,VisualSearch_2526_3,,2025.2.4,2026-02-23 11h44.09.483072 +0100,
tilted.xlsx,The target is tilted.,117,110,6,13,0,1,1,1,0,0,0,0,0,0,0,0,1,3,4,117,space,7.214106400000219,None,0,1,1.6826421000000664,None,space,1.4310593000000154,None,0,0,0,0,,,,,13,6,110,6,353.12553179999986,,,,,,,,,,,,,,,,,,,,,353.1101401000001,353.12553179999986,353.6092579000001,353.6135574,353.63017709999986,355.3255294999999,,,,,355.3257066000001,355.3416881999997,355.52546489999986,355.5416971999998,353.63017709999986,,,,,,,,0,1,1.6826421000000664,None,,,,,,,,830,21,M,L,2026-02-23_11h44.09.261,VisualSearch_2526_3,,2025.2.4,2026-02-23 11h44.09.483072 +0100,
tilted.xlsx,The target is tilted.,117,111,7,13,0,1,1,1,1,1,1,1,0,0,0,0,1,7,8,117,space,7.214106400000219,None,0,1,2.5438413000001674,None,space,1.4310593000000154,None,0,0,0,0,,,,,13,7,111,5,355.5416971999998,,,,,,,,,,,,,,,,,,,,,355.5262211999998,355.5416971999998,356.02530279999974,356.0303031999997,356.0480260999998,358.6086998999999,,,,,358.6088716999998,358.62443059999987,358.8080934999998,358.82403369999975,356.0480260999998,,,,,,,,0,1,2.5438413000001674,None,,,,,,,,830,21,M,L,2026-02-23_11h44.09.261,VisualSearch_2526_3,,2025.2.4,2026-02-23 11h44.09.483072 +0100,
tilted.xlsx,The target is tilted.,117,112,0,14,1,0,0,0,0,0,0,0,0,0,0,0,0,0,1,117,space,7.214106400000219,None,1,1,0.5779848000001948,None,space,1.4310593000000154,None,0,0,0,0,,,,,14,0,112,3,358.82403369999975,,,,,,,,,,,,,,,,,,,,,358.80883110000013,358.82403369999975,359.3085536999997,359.3131509,359.32426239999995,359.90850009999986,,,,,359.90874140000005,359.92394579999973,360.1083994999999,360.12441409999974,359.32426239999995,,,,,,,,1,1,0.5779848000001948,None,,,,,,,,830,21,M,L,2026-02-23_11h44.09.261,VisualSearch_2526_3,,2025.2.4,2026-02-23 11h44.09.483072 +0100,
tilted.xlsx,The target is tilted.,117,113,1,14,1,1,1,1,1,1,1,1,0,0,0,0,0,7,8,117,space,7.214106400000219,None,1,1,1.3326716999999917,None,space,1.4310593000000154,None,0,0,0,0,,,,,14,1,113,1,360.12441409999974,,,,,,,,,,,,,,,,,,,,,360.10922359999995,360.12441409999974,360.6082164999998,360.6133383000001,360.6290662000001,361.9748648,,,,,361.9750621999997,361.9903383999999,362.1741357000001,362.19029999999975,360.6290662000001,,,,,,,,1,1,1.3326716999999917,None,,,,,,,,830,21,M,L,2026-02-23_11h44.09.261,VisualSearch_2526_3,,2025.2.4,2026-02-23 11h44.09.483072 +0100,
tilted.xlsx,The target is tilted.,117,114,2,14,0,0,0,0,0,0,0,0,0,0,0,0,1,1,1,117,space,7.214106400000219,None,0,1,0.6961341000001084,None,space,1.4310593000000154,None,0,0,0,0,,,,,14,2,114,7,362.19029999999975,,,,,,,,,,,,,,,,,,,,,362.1748705,362.19029999999975,362.67387830000007,362.6784404,362.6935435999999,363.3918742000001,,,,,363.3920675999998,363.40697409999984,363.5907732999999,363.6071425,362.6935435999999,,,,,,,,0,1,0.6961341000001084,None,,,,,,,,830,21,M,L,2026-02-23_11h44.09.261,VisualSearch_2526_3,,2025.2.4,2026-02-23 11h44.09.483072 +0100,
tilted.xlsx,The target is tilted.,117,115,3,14,0,1,1,1,1,1,1,1,0,0,0,0,1,7,8,117,space,7.214106400000219,None,0,1,2.4621032000000014,None,space,1.4310593000000154,None,0,0,0,0,,,,,14,3,115,5,363.6071425,,,,,,,,,,,,,,,,,,,,,363.59148959999993,363.6071425,364.09085559999994,364.0958492999998,364.11174059999985,366.5903426,,,,,366.5904860999999,366.6063994000001,366.79025090000005,366.8065262,364.11174059999985,,,,,,,,0,1,2.4621032000000014,None,,,,,,,,830,21,M,L,2026-02-23_11h44.09.261,VisualSearch_2526_3,,2025.2.4,2026-02-23 11h44.09.483072 +0100,
tilted.xlsx,The target is tilted.,117,116,4,14,0,1,1,1,0,0,0,0,0,0,0,0,1,3,4,117,space,7.214106400000219,None,0,1,0.9190442000003713,None,space,1.4310593000000154,None,0,0,0,0,,,,,14,4,116,6,366.8065262,,,,,,,,,,,,,,,,,,,,,366.79098429999976,366.8065262,367.2904416000001,367.29491759999974,367.3112093,368.24042099999997,,,,,368.24059739999984,368.256175,368.4401138999997,368.45633399999997,367.3112093,,,,,,,,0,1,0.9190442000003713,None,,,,,,,,830,21,M,L,2026-02-23_11h44.09.261,VisualSearch_2526_3,,2025.2.4,2026-02-23 11h44.09.483072 +0100,
tilted.xlsx,The target is tilted.,117,117,5,14,1,1,1,1,0,0,0,0,0,0,0,0,0,3,4,117,space,7.214106400000219,None,0,0,1.1456717999999455,None,space,1.4310593000000154,None,0,0,0,0,,,,,14,5,117,2,368.45633399999997,,,,,,,,,,,,,,,,,,,,,368.4408453000001,368.45633399999997,368.94018030000007,368.9444853,368.9606040999997,370.12387899999976,,,,,370.12409579999985,370.1389444000001,370.32271219999984,370.3388513,368.9606040999997,,,,,,,,0,0,1.1456717999999455,None,,,,,,,,830,21,M,L,2026-02-23_11h44.09.261,VisualSearch_2526_3,,2025.2.4,2026-02-23 11h44.09.483072 +0100,
tilted.xlsx,The target is tilted.,117,118,6,14,0,1,1,1,1,1,1,1,1,1,1,1,1,11,12,117,space,7.214106400000219,None,0,1,3.388007600000037,None,space,1.4310593000000154,None,0,0,0,0,,,,,14,6,118,4,370.3388513,,,,,,,,,,,,,,,,,,,,,370.32337789999974,370.3388513,370.82320389999995,370.8281363000001,370.8442829999999,374.2389515,,,,,374.23901990000013,374.25507770000013,374.4391602999999,374.4553249999999,370.8442829999999,,,,,,,,0,1,3.388007600000037,None,,,,,,,,830,21,M,L,2026-02-23_11h44.09.261,VisualSearch_2526_3,,2025.2.4,2026-02-23 11h44.09.483072 +0100,
tilted.xlsx,The target is tilted.,117,119,7,14,1,1,1,1,1,1,1,1,1,1,1,1,0,11,12,117,space,7.214106400000219,None,1,1,1.7970178999999007,None,space,1.4310593000000154,None,0,0,0,0,,,,,14,7,119,0,374.4553249999999,,,,,,,,,,,,,,,,,,,,,374.43989250000004,374.4553249999999,374.9389203999999,374.94321809999974,374.95975580000004,376.7723833,,,,,376.77255620000005,376.7881204999999,376.9719448000001,377.0034375,374.95975580000004,,,,,,,,1,1,1.7970178999999007,None,,,,,,,,830,21,M,L,2026-02-23_11h44.09.261,VisualSearch_2526_3,,2025.2.4,2026-02-23 11h44.09.483072 +0100,
tilted.xlsx,The target is tilted.,117,0,0,0,,,,,,,,,,,,,,,,,space,7.214106400000219,None,,,,,space,1.4310593000000154,None,0,0,0,0,,,,,,,,,,,,,,,,,,,,,,,,,,,,,,,,,,,,,,,,,,,,,,,,,,,,,,,,,,,,,,,830,21,M,L,2026-02-23_11h44.09.261,VisualSearch_2526_3,,2025.2.4,2026-02-23 11h44.09.483072 +0100,
vertical.xlsx,The target is tilted.,135,0,0,0,1,0,0,0,0,0,0,0,0,0,0,0,0,0,1,135,space,3.8484417999998186,None,1,1,0.6230482000000848,None,,,,0,1,1,1,0,0,0,3,,,,,380.8836312999997,,,,,,,,,,,,,,,377.0034375,377.0034375,377.0034375,space,3.8484417999998186,None,380.8792890999998,380.8836312999997,381.3709921999998,381.37617790000013,381.3925598000001,382.0205560999998,1,1,0.6230482000000848,None,382.0206493999999,382.03661009999996,382.2202696999998,382.23715390000007,,,,,,,,,,,,,,,,,,,,830,21,M,L,2026-02-23_11h44.09.261,VisualSearch_2526_3,,2025.2.4,2026-02-23 11h44.09.483072 +0100,
vertical.xlsx,The target is tilted.,135,1,1,0,1,1,1,1,1,1,1,1,1,1,1,1,0,11,12,135,space,3.8484417999998186,None,1,1,1.1374424999999064,None,,,,0,1,1,1,0,1,1,0,,,,,382.23715390000007,,,,,,,,,,,,,,,,,,,,,382.2205848999997,382.23715390000007,382.7209217999998,382.72590549999995,382.74300749999975,383.8881904,1,1,1.1374424999999064,None,383.88837779999994,383.9035455999997,384.08756459999995,384.1036559999998,382.74300749999975,,,,,,,,,,,,,,,,,,,830,21,M,L,2026-02-23_11h44.09.261,VisualSearch_2526_3,,2025.2.4,2026-02-23 11h44.09.483072 +0100,
vertical.xlsx,The target is tilted.,135,2,2,0,0,1,1,1,1,1,1,1,1,1,1,1,1,11,12,135,space,3.8484417999998186,None,0,1,1.5419011999997565,None,,,,0,1,1,1,0,2,2,4,,,,,384.1036559999998,,,,,,,,,,,,,,,,,,,,,384.08822770000006,384.1036559999998,384.5871358999998,384.5917119999999,384.6092051999999,386.15459109999983,0,1,1.5419011999997565,None,386.15480290000005,386.1698865999997,386.3538696999999,386.3698228999997,384.6092051999999,,,,,,,,,,,,,,,,,,,830,21,M,L,2026-02-23_11h44.09.261,VisualSearch_2526_3,,2025.2.4,2026-02-23 11h44.09.483072 +0100,
vertical.xlsx,The target is tilted.,135,3,3,0,0,1,1,1,1,1,1,1,0,0,0,0,1,7,8,135,space,3.8484417999998186,None,0,1,1.2916809000003013,None,,,,0,1,1,1,0,3,3,5,,,,,386.3698228999997,,,,,,,,,,,,,,,,,,,,,386.3545460999999,386.3698228999997,386.8537474,386.8580806,386.8758426999998,388.1709120999999,0,1,1.2916809000003013,None,388.17111339999974,388.1862554999998,388.37025749999975,388.3863498999999,386.8758426999998,,,,,,,,,,,,,,,,,,,830,21,M,L,2026-02-23_11h44.09.261,VisualSearch_2526_3,,2025.2.4,2026-02-23 11h44.09.483072 +0100,
vertical.xlsx,The target is tilted.,135,4,4,0,1,1,1,1,1,1,1,1,0,0,0,0,0,7,8,135,space,3.8484417999998186,None,1,1,0.7427286000001914,None,,,,0,1,1,1,0,4,4,1,,,,,388.3863498999999,,,,,,,,,,,,,,,,,,,,,388.37100469999996,388.3863498999999,388.8702712999998,388.8760551999999,388.8860986999998,389.6372348,1,1,0.7427286000001914,None,389.6374231,389.6526066000001,389.83668339999986,389.8528216999998,388.8860986999998,,,,,,,,,,,,,,,,,,,830,21,M,L,2026-02-23_11h44.09.261,VisualSearch_2526_3,,2025.2.4,2026-02-23 11h44.09.483072 +0100,
vertical.xlsx,The target is tilted.,135,5,5,0,1,1,1,1,0,0,0,0,0,0,0,0,0,3,4,135,space,3.8484417999998186,None,1,1,0.638604000000214,None,,,,0,1,1,1,0,5,5,2,,,,,389.8528216999998,,,,,,,,,,,,,,,,,,,,,389.83743449999974,389.8528216999998,390.3366851999999,390.3415986,390.35902910000004,391.0033811999997,1,1,0.638604000000214,None,391.0035665999999,391.01911040000005,391.2026436000001,391.2187982999999,390.35902910000004,,,,,,,,,,,,,,,,,,,830,21,M,L,2026-02-23_11h44.09.261,VisualSearch_2526_3,,2025.2.4,2026-02-23 11h44.09.483072 +0100,
vertical.xlsx,The target is tilted.,135,6,6,0,0,1,1,1,0,0,0,0,0,0,0,0,1,3,4,135,space,3.8484417999998186,None,0,1,0.7829463000002761,None,,,,0,1,1,1,0,6,6,6,,,,,391.2187982999999,,,,,,,,,,,,,,,,,,,,,391.2032771999998,391.2187982999999,391.70256070000005,391.70736399999987,391.7238096000001,392.5201149999998,0,1,0.7829463000002761,None,392.52030349999995,392.5356213,392.7194214000001,392.7356712999999,391.7238096000001,,,,,,,,,,,,,,,,,,,830,21,M,L,2026-02-23_11h44.09.261,VisualSearch_2526_3,,2025.2.4,2026-02-23 11h44.09.483072 +0100,
vertical.xlsx,The target is tilted.,135,7,7,0,0,0,0,0,0,0,0,0,0,0,0,0,1,1,1,135,space,3.8484417999998186,None,0,1,0.5433596999996553,None,,,,0,1,1,1,0,7,7,7,,,,,392.7356712999999,,,,,,,,,,,,,,,,,,,,,392.72011269999985,392.7356712999999,393.2193963999998,393.2243493000001,393.24042069999996,393.7864999999997,0,1,0.5433596999996553,None,393.7866871000001,393.8017154999998,393.9858884,394.0019462999999,393.24042069999996,,,,,,,,,,,,,,,,,,,830,21,M,L,2026-02-23_11h44.09.261,VisualSearch_2526_3,,2025.2.4,2026-02-23 11h44.09.483072 +0100,
vertical.xlsx,The target is tilted.,135,0,0,0,1,1,1,1,1,1,1,1,1,1,1,1,0,11,12,135,space,3.8484417999998186,None,1,1,0.8545967000000019,None,space,1.1333621000003404,None,0,1,1,1,,,,,0,0,0,0,395.1717441999999,,,,,,,,,,,,,,,,,,,,,395.16726199999994,395.1717441999999,395.6522173999997,395.6573165,395.6759576999998,396.5361659,,,,,396.5364043999998,396.5516346999998,396.7352443,396.75123940000003,,393.9916505000001,394.0019462999999,394.0019462999999,395.13642260000006,space,1.1333621000003404,None,1,1,0.8545967000000019,None,,,,,,,,830,21,M,L,2026-02-23_11h44.09.261,VisualSearch_2526_3,,2025.2.4,2026-02-23 11h44.09.483072 +0100,
vertical.xlsx,The target is tilted.,135,1,1,0,0,1,1,1,1,1,1,1,1,1,1,1,1,11,12,135,space,3.8484417999998186,None,0,1,2.2374330000002374,None,space,1.1333621000003404,None,0,1,1,1,,,,,0,1,1,4,396.75123940000003,,,,,,,,,,,,,,,,,,,,,396.7359762000001,396.75123940000003,397.23543329999984,397.24014480000005,397.2549128999999,399.5019226999998,,,,,399.50210289999995,399.51753800000006,399.70147450000013,399.7177931000001,397.2549128999999,,,,,,,,0,1,2.2374330000002374,None,,,,,,,,830,21,M,L,2026-02-23_11h44.09.261,VisualSearch_2526_3,,2025.2.4,2026-02-23 11h44.09.483072 +0100,
vertical.xlsx,The target is tilted.,135,2,2,0,0,1,1,1,0,0,0,0,0,0,0,0,1,3,4,135,space,3.8484417999998186,None,0,1,0.6236108000002787,None,space,1.1333621000003404,None,0,1,1,1,,,,,0,2,2,6,399.7177931000001,,,,,,,,,,,,,,,,,,,,,399.7022876000001,399.7177931000001,400.20150049999984,400.2062315999997,400.2223251999999,400.85170590000007,,,,,400.8519007,400.86738779999996,401.0510411,401.06758360000003,400.2223251999999,,,,,,,,0,1,0.6236108000002787,None,,,,,,,,830,21,M,L,2026-02-23_11h44.09.261,VisualSearch_2526_3,,2025.2.4,2026-02-23 11h44.09.483072 +0100,
vertical.xlsx,The target is tilted.,135,3,3,0,0,0,0,0,0,0,0,0,0,0,0,0,1,1,1,135,space,3.8484417999998186,None,0,1,0.4886142000000291,None,space,1.1333621000003404,None,0,1,1,1,,,,,0,3,3,7,401.06758360000003,,,,,,,,,,,,,,,,,,,,,401.05186860000003,401.06758360000003,401.5508466000001,401.5546792,401.5697067000001,402.0684173999998,,,,,402.06859499999973,402.08394670000007,402.26792179999984,402.28410759999997,401.5697067000001,,,,,,,,0,1,0.4886142000000291,None,,,,,,,,830,21,M,L,2026-02-23_11h44.09.261,VisualSearch_2526_3,,2025.2.4,2026-02-23 11h44.09.483072 +0100,
vertical.xlsx,The target is tilted.,135,4,4,0,1,1,1,1,0,0,0,0,0,0,0,0,0,3,4,135,space,3.8484417999998186,None,1,1,0.534543599999779,None,space,1.1333621000003404,None,0,1,1,1,,,,,0,4,4,2,402.28410759999997,,,,,,,,,,,,,,,,,,,,,402.2687471999998,402.28410759999997,402.76792769999975,402.7727987999997,402.7881156999997,403.3342659,,,,,403.33436269999993,403.3497689000001,403.53433369999993,403.55050200000005,402.7881156999997,,,,,,,,1,1,0.534543599999779,None,,,,,,,,830,21,M,L,2026-02-23_11h44.09.261,VisualSearch_2526_3,,2025.2.4,2026-02-23 11h44.09.483072 +0100,
vertical.xlsx,The target is tilted.,135,5,5,0,1,0,0,0,0,0,0,0,0,0,0,0,0,0,1,135,space,3.8484417999998186,None,1,1,0.3645963999997548,None,space,1.1333621000003404,None,0,1,1,1,,,,,0,5,5,3,403.55050200000005,,,,,,,,,,,,,,,,,,,,,403.53505259999974,403.55050200000005,404.0343877,404.03939869999977,404.05511339999975,404.4348296999997,,,,,404.4350261999998,404.45034179999993,404.63432710000006,404.65034830000013,404.05511339999975,,,,,,,,1,1,0.3645963999997548,None,,,,,,,,830,21,M,L,2026-02-23_11h44.09.261,VisualSearch_2526_3,,2025.2.4,2026-02-23 11h44.09.483072 +0100,
vertical.xlsx,The target is tilted.,135,6,6,0,1,1,1,1,1,1,1,1,0,0,0,0,0,7,8,135,space,3.8484417999998186,None,1,1,0.431912900000043,None,space,1.1333621000003404,None,0,1,1,1,,,,,0,6,6,1,404.65034830000013,,,,,,,,,,,,,,,,,,,,,404.63514959999975,404.65034830000013,405.13424510000004,405.1393708999999,405.1557902999998,405.60115270000006,,,,,405.60134789999984,405.6167569999998,405.8009434999999,405.8169041000001,405.1557902999998,,,,,,,,1,1,0.431912900000043,None,,,,,,,,830,21,M,L,2026-02-23_11h44.09.261,VisualSearch_2526_3,,2025.2.4,2026-02-23 11h44.09.483072 +0100,
vertical.xlsx,The target is tilted.,135,7,7,0,0,1,1,1,1,1,1,1,0,0,0,0,1,7,8,135,space,3.8484417999998186,None,0,1,0.6931915000000117,None,space,1.1333621000003404,None,0,1,1,1,,,,,0,7,7,5,405.8169041000001,,,,,,,,,,,,,,,,,,,,,405.8017676999998,405.8169041000001,406.3008098,406.3058565000001,406.3227910999999,407.0177628000001,,,,,407.0179954,407.0331520999998,407.21720060000007,407.2333031999997,406.3227910999999,,,,,,,,0,1,0.6931915000000117,None,,,,,,,,830,21,M,L,2026-02-23_11h44.09.261,VisualSearch_2526_3,,2025.2.4,2026-02-23 11h44.09.483072 +0100,
vertical.xlsx,The target is tilted.,135,8,0,1,0,1,1,1,1,1,1,1,1,1,1,1,1,11,12,135,space,3.8484417999998186,None,0,1,0.7481446000001597,None,space,1.1333621000003404,None,0,1,1,1,,,,,1,0,8,4,407.2333031999997,,,,,,,,,,,,,,,,,,,,,407.21800380000013,407.2333031999997,407.7171257,407.7220481999998,407.7382042999998,408.50080549999984,,,,,408.50100919999977,408.51622599999973,408.7001062999998,408.7163565000001,407.7382042999998,,,,,,,,0,1,0.7481446000001597,None,,,,,,,,830,21,M,L,2026-02-23_11h44.09.261,VisualSearch_2526_3,,2025.2.4,2026-02-23 11h44.09.483072 +0100,
vertical.xlsx,The target is tilted.,135,9,1,1,0,1,1,1,0,0,0,0,0,0,0,0,1,3,4,135,space,3.8484417999998186,None,0,1,0.542076900000211,None,space,1.1333621000003404,None,0,1,1,1,,,,,1,1,9,6,408.7163565000001,,,,,,,,,,,,,,,,,,,,,408.7008692999998,408.7163565000001,409.2000773999998,409.2043934999997,409.22081679999974,409.76674490000005,,,,,409.76692060000005,409.7826326999998,409.96677539999973,409.9828250999999,409.22081679999974,,,,,,,,0,1,0.542076900000211,None,,,,,,,,830,21,M,L,2026-02-23_11h44.09.261,VisualSearch_2526_3,,2025.2.4,2026-02-23 11h44.09.483072 +0100,
vertical.xlsx,The target is tilted.,135,10,2,1,1,1,1,1,0,0,0,0,0,0,0,0,0,3,4,135,space,3.8484417999998186,None,1,1,0.6586060999998153,None,space,1.1333621000003404,None,0,1,1,1,,,,,1,2,10,2,409.9828250999999,,,,,,,,,,,,,,,,,,,,,409.96761779999997,409.9828250999999,410.46677199999976,410.47163150000006,410.48840569999993,411.15026869999974,,,,,411.1504692999997,411.16580810000005,411.3496586000001,411.3657167000001,410.48840569999993,,,,,,,,1,1,0.6586060999998153,None,,,,,,,,830,21,M,L,2026-02-23_11h44.09.261,VisualSearch_2526_3,,2025.2.4,2026-02-23 11h44.09.483072 +0100,
vertical.xlsx,The target is tilted.,135,11,3,1,1,1,1,1,1,1,1,1,0,0,0,0,0,7,8,135,space,3.8484417999998186,None,1,1,1.0351768000000448,None,space,1.1333621000003404,None,0,1,1,1,,,,,1,3,11,1,411.3657167000001,,,,,,,,,,,,,,,,,,,,,411.350363,411.3657167000001,411.84984529999974,411.85476919999974,411.86516459999984,412.91657499999974,,,,,412.9167496,412.93197340000006,413.11609369999996,413.13222670000005,411.86516459999984,,,,,,,,1,1,1.0351768000000448,None,,,,,,,,830,21,M,L,2026-02-23_11h44.09.261,VisualSearch_2526_3,,2025.2.4,2026-02-23 11h44.09.483072 +0100,
vertical.xlsx,The target is tilted.,135,12,4,1,0,0,0,0,0,0,0,0,0,0,0,0,1,1,1,135,space,3.8484417999998186,None,0,1,0.6065091999998913,None,space,1.1333621000003404,None,0,1,1,1,,,,,1,4,12,7,413.13222670000005,,,,,,,,,,,,,,,,,,,,,413.1167996999998,413.13222670000005,413.61566889999995,413.62024500000007,413.63586110000006,414.2498046999999,,,,,414.2499963999999,414.2653071,414.4492022999998,414.46494269999994,413.63586110000006,,,,,,,,0,1,0.6065091999998913,None,,,,,,,,830,21,M,L,2026-02-23_11h44.09.261,VisualSearch_2526_3,,2025.2.4,2026-02-23 11h44.09.483072 +0100,
vertical.xlsx,The target is tilted.,135,13,5,1,0,1,1,1,1,1,1,1,0,0,0,0,1,7,8,135,space,3.8484417999998186,None,0,1,1.1377402000002803,None,space,1.1333621000003404,None,0,1,1,1,,,,,1,5,13,5,414.46494269999994,,,,,,,,,,,,,,,,,,,,,414.4499195999997,414.46494269999994,414.9495305999999,414.9543450000001,414.96523279999974,416.1162134000001,,,,,416.1164266999999,416.13162379999994,416.31540240000004,416.33159739999974,414.96523279999974,,,,,,,,0,1,1.1377402000002803,None,,,,,,,,830,21,M,L,2026-02-23_11h44.09.261,VisualSearch_2526_3,,2025.2.4,2026-02-23 11h44.09.483072 +0100,
vertical.xlsx,The target is tilted.,135,14,6,1,1,1,1,1,1,1,1,1,1,1,1,1,0,11,12,135,space,3.8484417999998186,None,1,1,0.8519390000001295,None,space,1.1333621000003404,None,0,1,1,1,,,,,1,6,14,0,416.33159739999974,,,,,,,,,,,,,,,,,,,,,416.3160090000001,416.33159739999974,416.81509959999994,416.8196614999997,416.83616359999996,417.6992372999998,,,,,417.69943220000005,417.7147436,417.8984525000001,417.9146335999999,416.83616359999996,,,,,,,,1,1,0.8519390000001295,None,,,,,,,,830,21,M,L,2026-02-23_11h44.09.261,VisualSearch_2526_3,,2025.2.4,2026-02-23 11h44.09.483072 +0100,
vertical.xlsx,The target is tilted.,135,15,7,1,1,0,0,0,0,0,0,0,0,0,0,0,0,0,1,135,space,3.8484417999998186,None,1,1,0.45775670000011814,None,space,1.1333621000003404,None,0,1,1,1,,,,,1,7,15,3,417.9146335999999,,,,,,,,,,,,,,,,,,,,,417.89963369999987,417.9146335999999,418.39876950000007,418.4038172999999,418.4192187999997,418.8822482999999,,,,,418.8824417999999,418.89810669999997,419.0811966000001,419.09762550000005,418.4192187999997,,,,,,,,1,1,0.45775670000011814,None,,,,,,,,830,21,M,L,2026-02-23_11h44.09.261,VisualSearch_2526_3,,2025.2.4,2026-02-23 11h44.09.483072 +0100,
vertical.xlsx,The target is tilted.,135,16,0,2,1,1,1,1,0,0,0,0,0,0,0,0,0,3,4,135,space,3.8484417999998186,None,1,1,0.5177078000001529,None,space,1.1333621000003404,None,0,1,1,1,,,,,2,0,16,2,419.09762550000005,,,,,,,,,,,,,,,,,,,,,419.0817112999998,419.09762550000005,419.58114479999995,419.5846510000001,419.5972888000001,420.13132749999977,,,,,420.13145399999985,420.1475959999998,420.33169469999984,420.34787800000004,419.5972888000001,,,,,,,,1,1,0.5177078000001529,None,,,,,,,,830,21,M,L,2026-02-23_11h44.09.261,VisualSearch_2526_3,,2025.2.4,2026-02-23 11h44.09.483072 +0100,
vertical.xlsx,The target is tilted.,135,17,1,2,0,1,1,1,1,1,1,1,0,0,0,0,1,7,8,135,space,3.8484417999998186,None,0,1,1.2007070999998177,None,space,1.1333621000003404,None,0,1,1,1,,,,,2,1,17,5,420.34787800000004,,,,,,,,,,,,,,,,,,,,,420.3325156000001,420.34787800000004,420.83161359999986,420.83662909999975,420.85268640000004,422.0653121,,,,,422.06552220000003,422.0806643000001,422.26432309999973,422.28053120000004,420.85268640000004,,,,,,,,0,1,1.2007070999998177,None,,,,,,,,830,21,M,L,2026-02-23_11h44.09.261,VisualSearch_2526_3,,2025.2.4,2026-02-23 11h44.09.483072 +0100,
vertical.xlsx,The target is tilted.,135,18,2,2,0,1,1,1,0,0,0,0,0,0,0,0,1,3,4,135,space,3.8484417999998186,None,0,1,0.6231373000000531,None,space,1.1333621000003404,None,0,1,1,1,,,,,2,2,18,6,422.28053120000004,,,,,,,,,,,,,,,,,,,,,422.2651047999998,422.28053120000004,422.7640739999997,422.7684221999998,422.7802161999998,423.4149321,,,,,423.4151278999998,423.430378,423.6139957999999,423.6301132999997,422.7802161999998,,,,,,,,0,1,0.6231373000000531,None,,,,,,,,830,21,M,L,2026-02-23_11h44.09.261,VisualSearch_2526_3,,2025.2.4,2026-02-23 11h44.09.483072 +0100,
vertical.xlsx,The target is tilted.,135,19,3,2,1,1,1,1,1,1,1,1,1,1,1,1,0,11,12,135,space,3.8484417999998186,None,1,1,0.5933853999999883,None,space,1.1333621000003404,None,0,1,1,1,,,,,2,3,19,0,423.6301132999997,,,,,,,,,,,,,,,,,,,,,423.6147556000001,423.6301132999997,424.11421519999976,424.11867299999994,424.13339300000007,424.7301862999998,,,,,424.7302688999998,424.7464976000001,424.9306182999999,,424.13339300000007,,,,,,,,1,1,0.5933853999999883,None,,,,,,,,830,21,M,L,2026-02-23_11h44.09.261,VisualSearch_2526_3,,2025.2.4,2026-02-23 11h44.09.483072 +0100,
vertical.xlsx,The target is tilted.,135,20,4,2,1,0,0,0,0,0,0,0,0,0,0,0,0,0,1,135,space,3.8484417999998186,None,1,1,0.41099279999980354,None,space,1.1333621000003404,None,0,1,1,1,,,,,2,4,20,3,424.94654619999983,,,,,,,,,,,,,,,,,,,,,424.93151869999974,424.94654619999983,425.4304597999999,425.4354284000001,425.4547170000001,425.88133489999973,,,,,425.8815497999999,425.89640310000004,426.08013889999984,426.0967711999997,425.4547170000001,,,,,,,,1,1,0.41099279999980354,None,,,,,,,,830,21,M,L,2026-02-23_11h44.09.261,VisualSearch_2526_3,,2025.2.4,2026-02-23 11h44.09.483072 +0100,
vertical.xlsx,The target is tilted.,135,21,5,2,0,1,1,1,1,1,1,1,1,1,1,1,1,11,12,135,space,3.8484417999998186,None,0,1,1.4041793000001235,None,space,1.1333621000003404,None,0,1,1,1,,,,,2,5,21,4,426.0967711999997,,,,,,,,,,,,,,,,,,,,,426.0808812999999,426.0967711999997,426.58076759999994,426.58556469999985,426.6020183999999,428.01416530000006,,,,,428.0143605999997,428.0295940000001,428.21355429999994,428.22932809999975,426.6020183999999,,,,,,,,0,1,1.4041793000001235,None,,,,,,,,830,21,M,L,2026-02-23_11h44.09.261,VisualSearch_2526_3,,2025.2.4,2026-02-23 11h44.09.483072 +0100,
vertical.xlsx,The target is tilted.,135,22,6,2,0,0,0,0,0,0,0,0,0,0,0,0,1,1,1,135,space,3.8484417999998186,None,0,1,0.5569104999999581,None,space,1.1333621000003404,None,0,1,1,1,,,,,2,6,22,7,428.22932809999975,,,,,,,,,,,,,,,,,,,,,428.21434,428.22932809999975,428.713612,428.7183898999997,428.7333582000001,429.29730199999995,,,,,429.2974951000001,429.31253149999975,429.49674389999973,429.51290259999996,428.7333582000001,,,,,,,,0,1,0.5569104999999581,None,,,,,,,,830,21,M,L,2026-02-23_11h44.09.261,VisualSearch_2526_3,,2025.2.4,2026-02-23 11h44.09.483072 +0100,
vertical.xlsx,The target is tilted.,135,23,7,2,1,1,1,1,1,1,1,1,0,0,0,0,0,7,8,135,space,3.8484417999998186,None,1,1,1.8903955000000678,None,space,1.1333621000003404,None,0,1,1,1,,,,,2,7,23,1,429.51290259999996,,,,,,,,,,,,,,,,,,,,,429.49755479999976,429.51290259999996,429.99682970000003,430.00175420000005,430.0192050999999,431.91302480000013,,,,,431.9132160999998,431.92898809999997,432.1127948999997,432.128917,430.0192050999999,,,,,,,,1,1,1.8903955000000678,None,,,,,,,,830,21,M,L,2026-02-23_11h44.09.261,VisualSearch_2526_3,,2025.2.4,2026-02-23 11h44.09.483072 +0100,
vertical.xlsx,The target is tilted.,135,24,0,3,1,0,0,0,0,0,0,0,0,0,0,0,0,0,1,135,space,3.8484417999998186,None,1,1,0.4815619000000879,None,space,1.1333621000003404,None,0,1,1,1,,,,,3,0,24,3,432.128917,,,,,,,,,,,,,,,,,,,,,432.1134665999998,432.128917,432.61276339999995,432.6155811999997,432.6287748999998,433.1131325000001,,,,,433.1133755000001,433.1286492999998,433.3130133999998,433.32893479999984,432.6287748999998,,,,,,,,1,1,0.4815619000000879,None,,,,,,,,830,21,M,L,2026-02-23_11h44.09.261,VisualSearch_2526_3,,2025.2.4,2026-02-23 11h44.09.483072 +0100,
vertical.xlsx,The target is tilted.,135,25,1,3,0,1,1,1,1,1,1,1,1,1,1,1,1,11,12,135,space,3.8484417999998186,None,0,1,1.462818100000277,None,space,1.1333621000003404,None,0,1,1,1,,,,,3,1,25,4,433.32893479999984,,,,,,,,,,,,,,,,,,,,,433.3137677999998,433.32893479999984,433.81279670000004,433.8177323,433.8342401,435.3125345999997,,,,,435.31269919999977,435.32848749999994,435.5122166000001,435.52851169999985,433.8342401,,,,,,,,0,1,1.462818100000277,None,,,,,,,,830,21,M,L,2026-02-23_11h44.09.261,VisualSearch_2526_3,,2025.2.4,2026-02-23 11h44.09.483072 +0100,
vertical.xlsx,The target is tilted.,135,26,2,3,1,1,1,1,1,1,1,1,0,0,0,0,0,7,8,135,space,3.8484417999998186,None,1,1,0.5834512000001268,None,space,1.1333621000003404,None,0,1,1,1,,,,,3,2,26,1,435.52851169999985,,,,,,,,,,,,,,,,,,,,,435.5129874999998,435.52851169999985,436.01240069999994,436.01738019999993,436.03310569999985,436.6297479,,,,,436.6299702000001,436.6448571000001,436.8290695999999,436.8449034,436.03310569999985,,,,,,,,1,1,0.5834512000001268,None,,,,,,,,830,21,M,L,2026-02-23_11h44.09.261,VisualSearch_2526_3,,2025.2.4,2026-02-23 11h44.09.483072 +0100,
vertical.xlsx,The target is tilted.,135,27,3,3,0,1,1,1,0,0,0,0,0,0,0,0,1,3,4,135,space,3.8484417999998186,None,0,1,0.611736099999689,None,space,1.1333621000003404,None,0,1,1,1,,,,,3,3,27,6,436.8449034,,,,,,,,,,,,,,,,,,,,,436.8298891999998,436.8449034,437.3289982000001,437.33397650000006,437.35117059999993,437.9790207000001,,,,,437.9791805,437.9944379999997,438.1785692999997,438.19479219999994,437.35117059999993,,,,,,,,0,1,0.611736099999689,None,,,,,,,,830,21,M,L,2026-02-23_11h44.09.261,VisualSearch_2526_3,,2025.2.4,2026-02-23 11h44.09.483072 +0100,
vertical.xlsx,The target is tilted.,135,28,4,3,1,1,1,1,0,0,0,0,0,0,0,0,0,3,4,135,space,3.8484417999998186,None,1,1,0.5144154999998136,None,space,1.1333621000003404,None,0,1,1,1,,,,,3,4,28,2,438.19479219999994,,,,,,,,,,,,,,,,,,,,,438.17932919999976,438.19479219999994,438.6787258999998,438.68341629999986,438.6983204999997,439.2289004999998,,,,,439.2290776,439.24464119999993,439.4285448999999,439.44464089999974,438.6983204999997,,,,,,,,1,1,0.5144154999998136,None,,,,,,,,830,21,M,L,2026-02-23_11h44.09.261,VisualSearch_2526_3,,2025.2.4,2026-02-23 11h44.09.483072 +0100,
vertical.xlsx,The target is tilted.,135,29,5,3,0,1,1,1,1,1,1,1,0,0,0,0,1,7,8,135,space,3.8484417999998186,None,0,1,0.8715102999999544,None,space,1.1333621000003404,None,0,1,1,1,,,,,3,5,29,5,439.44464089999974,,,,,,,,,,,,,,,,,,,,,439.4293663999997,439.44464089999974,439.92846759999975,439.9335765999999,439.9489285999998,440.8287657000001,,,,,440.82896200000005,440.8442821999997,441.0282698000001,441.0443620000001,439.9489285999998,,,,,,,,0,1,0.8715102999999544,None,,,,,,,,830,21,M,L,2026-02-23_11h44.09.261,VisualSearch_2526_3,,2025.2.4,2026-02-23 11h44.09.483072 +0100,
vertical.xlsx,The target is tilted.,135,30,6,3,0,0,0,0,0,0,0,0,0,0,0,0,1,1,1,135,space,3.8484417999998186,None,0,1,0.5252905000002102,None,space,1.1333621000003404,None,0,1,1,1,,,,,3,6,30,7,441.0443620000001,,,,,,,,,,,,,,,,,,,,,441.0290964999999,441.0443620000001,441.52831549999974,441.5332150999998,441.5497935999997,442.0783047,,,,,442.0784632,442.0939678,442.27816829999983,442.2941413999997,441.5497935999997,,,,,,,,0,1,0.5252905000002102,None,,,,,,,,830,21,M,L,2026-02-23_11h44.09.261,VisualSearch_2526_3,,2025.2.4,2026-02-23 11h44.09.483072 +0100,
vertical.xlsx,The target is tilted.,135,31,7,3,1,1,1,1,1,1,1,1,1,1,1,1,0,11,12,135,space,3.8484417999998186,None,0,0,1.332028100000116,None,space,1.1333621000003404,None,0,1,1,1,,,,,3,7,31,0,442.2941413999997,,,,,,,,,,,,,,,,,,,,,442.2789729000001,442.2941413999997,442.7778889000001,442.78303189999997,442.79935810000006,444.1448645999999,,,,,444.1450735999997,444.1602579999999,444.3442184999999,444.36033,442.79935810000006,,,,,,,,0,0,1.332028100000116,None,,,,,,,,830,21,M,L,2026-02-23_11h44.09.261,VisualSearch_2526_3,,2025.2.4,2026-02-23 11h44.09.483072 +0100,
vertical.xlsx,The target is tilted.,135,32,0,4,1,1,1,1,1,1,1,1,1,1,1,1,0,11,12,135,space,3.8484417999998186,None,1,1,0.8020968000000721,None,space,1.1333621000003404,None,0,1,1,1,,,,,4,0,32,0,444.36033,,,,,,,,,,,,,,,,,,,,,444.34496179999996,444.36033,444.84431959999984,444.84935859999996,444.864779,445.6772047999998,,,,,445.6772854999999,445.69329530000005,445.8773348999998,445.8935102999999,444.864779,,,,,,,,1,1,0.8020968000000721,None,,,,,,,,830,21,M,L,2026-02-23_11h44.09.261,VisualSearch_2526_3,,2025.2.4,2026-02-23 11h44.09.483072 +0100,
vertical.xlsx,The target is tilted.,135,33,1,4,1,1,1,1,0,0,0,0,0,0,0,0,0,3,4,135,space,3.8484417999998186,None,0,0,0.553207399999792,None,space,1.1333621000003404,None,0,1,1,1,,,,,4,1,33,2,445.8935102999999,,,,,,,,,,,,,,,,,,,,,445.878064,445.8935102999999,446.37749669999994,446.3823096000001,446.3991848999999,446.9611218,,,,,446.9613151999997,446.9762692999998,447.16061880000007,447.1766511999999,446.3991848999999,,,,,,,,0,0,0.553207399999792,None,,,,,,,,830,21,M,L,2026-02-23_11h44.09.261,VisualSearch_2526_3,,2025.2.4,2026-02-23 11h44.09.483072 +0100,
vertical.xlsx,The target is tilted.,135,34,2,4,0,1,1,1,0,0,0,0,0,0,0,0,1,3,4,135,space,3.8484417999998186,None,0,1,0.6326543000000129,None,space,1.1333621000003404,None,0,1,1,1,,,,,4,2,34,6,447.1766511999999,,,,,,,,,,,,,,,,,,,,,447.1614190999999,447.1766511999999,447.66056019999996,447.6655249999999,447.68236750000005,448.3274118999998,,,,,448.32758269999977,448.3429986000001,448.52708600000005,448.5431163999997,447.68236750000005,,,,,,,,0,1,0.6326543000000129,None,,,,,,,,830,21,M,L,2026-02-23_11h44.09.261,VisualSearch_2526_3,,2025.2.4,2026-02-23 11h44.09.483072 +0100,
vertical.xlsx,The target is tilted.,135,35,3,4,1,0,0,0,0,0,0,0,0,0,0,0,0,0,1,135,space,3.8484417999998186,None,1,1,0.714934500000254,None,space,1.1333621000003404,None,0,1,1,1,,,,,4,3,35,3,448.5431163999997,,,,,,,,,,,,,,,,,,,,,448.52789829999983,448.5431163999997,449.0269681,449.0361095999997,449.05153659999996,449.7773465,,,,,449.7775585999998,449.7927813000001,449.9769084999998,449.9928583000001,449.05153659999996,,,,,,,,1,1,0.714934500000254,None,,,,,,,,830,21,M,L,2026-02-23_11h44.09.261,VisualSearch_2526_3,,2025.2.4,2026-02-23 11h44.09.483072 +0100,
