file_name,block_instructions,target_example,thisN,thisTrialN,thisRepN,target_presence,opacity_1,opacity_2,opacity_3,opacity_4,opacity_5,opacity_6,opacity_7,opacity_8,opacity_9,opacity_10,opacity_11,opacity_12,n_distract,n_items,target_ori,key_resp_4.keys,key_resp_4.rt,key_resp_4.duration,key_resp.keys,key_resp.corr,key_resp.rt,key_resp.duration,key_resp_5.keys,key_resp_5.rt,key_resp_5.duration,blocks.thisRepN,blocks.thisTrialN,blocks.thisN,blocks.thisIndex,practice_trials.thisRepN,practice_trials.thisTrialN,practice_trials.thisN,practice_trials.thisIndex,trials.thisRepN,trials.thisTrialN,trials.thisN,trials.thisIndex,thisRow.t,notes,Welcome.started,WelcomeText.started,key_resp_2.started,Welcome.stopped,key_resp_2.keys,key_resp_2.rt,key_resp_2.duration,InformedConsent.started,text_4.started,InformedConsent.stopped,key_resp_6.keys,key_resp_6.rt,key_resp_6.duration,key_resp_4.started,example_target.started,text_3.started,blocks.key_resp_4.keys,blocks.key_resp_4.rt,blocks.key_resp_4.duration,FixCross.started,fixCross.started,fixCross.stopped,FixCross.stopped,Stimulus.started,key_resp.started,Stimulus.stopped,practice_trials.key_resp.keys,practice_trials.key_resp.corr,practice_trials.key_resp.rt,practice_trials.key_resp.duration,BlankScreen.started,text.started,text.stopped,BlankScreen.stopped,ExperimentStart.started,text_2.started,key_resp_5.started,ExperimentStart.stopped,blocks.key_resp_5.keys,blocks.key_resp_5.rt,blocks.key_resp_5.duration,trials.key_resp.keys,trials.key_resp.corr,trials.key_resp.rt,trials.key_resp.duration,Thanks.started,ThankYou.started,key_resp_3.started,Thanks.stopped,key_resp_3.keys,key_resp_3.rt,key_resp_3.duration,participant,leeftijd,gender,links/rechtshandig,date,expName,expVersion,psychopyVersion,expStart,
,,,,,,,,,,,,,,,,,,,,,,,,,,,,,,,,,,,,,,,,,,,,,,0.022650899999916874,0.03815690000010363,0.03815690000010363,34.66876439999987,space,34.62096169999995,None,,,,,,,,,,,,,,,,,,,,,,,,,,,,,,,,,,,,,,,,,,,,,,831,22,M,R,2026-02-23_12h01.00.730,VisualSearch_2526_3,,2025.2.4,2026-02-23 12h01.01.015900 +0100,
,,,,,,,,,,,,,,,,,,,,,,,,,,,,,,,,,,,,,,,,,,,,,,,,,,,,,34.66880600000013,34.68049719999999,56.19398950000004,y,21.51434590000008,None,,,,,,,,,,,,,,,,,,,,,,,,,,,,,,,,,,,,,,,,831,22,M,R,2026-02-23_12h01.00.730,VisualSearch_2526_3,,2025.2.4,2026-02-23 12h01.01.015900 +0100,
tilted.xlsx,The target is tilted.,117,0,0,0,0,1,1,1,1,1,1,1,1,1,1,1,1,11,12,117,space,3.3232057999998688,None,1,0,5.463526199999706,None,,,,0,0,0,0,0,0,0,4,,,,,59.559088800000154,,,,,,,,,,,,,,,56.21548530000018,56.21548530000018,56.21548530000018,space,3.3232057999998688,None,59.550897200000236,59.559088800000154,60.05931529999998,60.0425436999999,60.04369570000017,60.05931529999998,65.52609990000019,1,0,5.463526199999706,None,65.52627789999997,65.54220919999989,65.74189650000017,65.7262510999999,,,,,,,,,,,,,,,,,,,831,22,M,R,2026-02-23_12h01.00.730,VisualSearch_2526_3,,2025.2.4,2026-02-23 12h01.01.015900 +0100,
tilted.xlsx,The target is tilted.,117,1,1,0,0,1,1,1,1,1,1,1,0,0,0,0,1,7,8,117,space,3.3232057999998688,None,1,0,1.5924878000000717,None,,,,0,0,0,0,0,1,1,5,,,,,65.74189650000017,,,,,,,,,,,,,,,,,,,,,65.72690569999986,65.74189650000017,66.24660989999984,66.22616689999995,66.23068300000023,66.24660989999984,67.84244149999995,1,0,1.5924878000000717,None,67.84263529999998,67.85847330000024,68.05871960000013,68.04233750000003,,,,,,,,,,,,,,,,,,,831,22,M,R,2026-02-23_12h01.00.730,VisualSearch_2526_3,,2025.2.4,2026-02-23 12h01.01.015900 +0100,
tilted.xlsx,The target is tilted.,117,2,2,0,1,1,1,1,1,1,1,1,0,0,0,0,0,7,8,117,space,3.3232057999998688,None,1,1,1.7511494999998831,None,,,,0,0,0,0,0,2,2,1,,,,,68.05871960000013,,,,,,,,,,,,,,,,,,,,,68.04299889999993,68.05871960000013,68.56224370000018,68.54235610000023,68.54681690000007,68.56224370000018,70.32592380000006,1,1,1.7511494999998831,None,70.32609760000014,70.34099259999994,70.54137330000003,70.52507160000005,,,,,,,,,,,,,,,,,,,831,22,M,R,2026-02-23_12h01.00.730,VisualSearch_2526_3,,2025.2.4,2026-02-23 12h01.01.015900 +0100,
tilted.xlsx,The target is tilted.,117,3,3,0,0,0,0,0,0,0,0,0,0,0,0,0,1,1,1,117,space,3.3232057999998688,None,0,1,1.1567187999999078,None,,,,0,0,0,0,0,3,3,7,,,,,70.54137330000003,,,,,,,,,,,,,,,,,,,,,70.52566479999996,70.54137330000003,71.0410479000002,71.02535820000003,71.02987799999983,71.0410479000002,72.20881439999994,0,1,1.1567187999999078,None,72.20898720000014,72.22397480000018,72.42453810000006,72.40833340000017,,,,,,,,,,,,,,,,,,,831,22,M,R,2026-02-23_12h01.00.730,VisualSearch_2526_3,,2025.2.4,2026-02-23 12h01.01.015900 +0100,
tilted.xlsx,The target is tilted.,117,4,4,0,1,0,0,0,0,0,0,0,0,0,0,0,0,0,1,117,space,3.3232057999998688,None,0,0,0.8978447999998025,None,,,,0,0,0,0,0,4,4,3,,,,,72.42453810000006,,,,,,,,,,,,,,,,,,,,,72.40894750000007,72.42453810000006,72.92897799999992,72.90839570000026,72.91284439999981,72.92897799999992,73.841406,0,0,0.8978447999998025,None,73.84159490000002,73.85697770000024,74.05765120000024,74.04127629999994,,,,,,,,,,,,,,,,,,,831,22,M,R,2026-02-23_12h01.00.730,VisualSearch_2526_3,,2025.2.4,2026-02-23 12h01.01.015900 +0100,
tilted.xlsx,The target is tilted.,117,5,5,0,0,1,1,1,0,0,0,0,0,0,0,0,1,3,4,117,space,3.3232057999998688,None,0,1,0.887883100000181,None,,,,0,0,0,0,0,5,5,6,,,,,74.05765120000024,,,,,,,,,,,,,,,,,,,,,74.04196769999999,74.05765120000024,74.56242999999995,74.5412022999999,74.5457706000002,74.56242999999995,75.45807920000016,0,1,0.887883100000181,None,75.45827370000006,75.47348550000015,75.67387680000002,75.65751869999986,,,,,,,,,,,,,,,,,,,831,22,M,R,2026-02-23_12h01.00.730,VisualSearch_2526_3,,2025.2.4,2026-02-23 12h01.01.015900 +0100,
tilted.xlsx,The target is tilted.,117,6,6,0,1,1,1,1,1,1,1,1,1,1,1,1,0,11,12,117,space,3.3232057999998688,None,1,1,1.3383085999998912,None,,,,0,0,0,0,0,6,6,0,,,,,75.67387680000002,,,,,,,,,,,,,,,,,,,,,75.65806920000023,75.67387680000002,76.1793616,76.15792009999996,76.16242280000006,76.1793616,77.52405670000007,1,1,1.3383085999998912,None,77.52421869999989,77.53973339999993,77.73993109999992,77.72412459999987,,,,,,,,,,,,,,,,,,,831,22,M,R,2026-02-23_12h01.00.730,VisualSearch_2526_3,,2025.2.4,2026-02-23 12h01.01.015900 +0100,
tilted.xlsx,The target is tilted.,117,7,7,0,1,1,1,1,0,0,0,0,0,0,0,0,0,3,4,117,space,3.3232057999998688,None,0,0,0.9312641000001349,None,,,,0,0,0,0,0,7,7,2,,,,,77.73993109999992,,,,,,,,,,,,,,,,,,,,,77.72483289999991,77.73993109999992,78.24310319999995,78.22360650000019,78.22772799999984,78.24310319999995,79.19027249999999,0,0,0.9312641000001349,None,79.19041599999991,79.20602480000025,79.4063701,79.39052730000003,,,,,,,,,,,,,,,,,,,831,22,M,R,2026-02-23_12h01.00.730,VisualSearch_2526_3,,2025.2.4,2026-02-23 12h01.01.015900 +0100,
tilted.xlsx,The target is tilted.,117,0,0,0,0,1,1,1,1,1,1,1,1,1,1,1,1,11,12,117,space,3.3232057999998688,None,1,0,3.0428155999998125,None,space,1.6614951999999903,None,0,0,0,0,,,,,0,0,0,4,81.10659179999993,,,,,,,,,,,,,,,,,,,,,81.10247620000018,81.10659179999993,,81.58973759999981,81.59498829999984,81.61077750000004,84.65698500000008,,,,,84.65719339999987,84.67193009999983,84.8721131000002,84.85571140000002,79.39738970000008,79.4063701,79.4063701,81.07387199999994,space,1.6614951999999903,None,1,0,3.0428155999998125,None,,,,,,,,831,22,M,R,2026-02-23_12h01.00.730,VisualSearch_2526_3,,2025.2.4,2026-02-23 12h01.01.015900 +0100,
tilted.xlsx,The target is tilted.,117,1,1,0,1,1,1,1,1,1,1,1,0,0,0,0,0,7,8,117,space,3.3232057999998688,None,1,1,2.32423129999961,None,space,1.6614951999999903,None,0,0,0,0,,,,,0,1,1,1,84.8721131000002,,,,,,,,,,,,,,,,,,,,,84.85629550000021,84.8721131000002,85.37679070000013,85.3563293000002,85.36076689999982,85.37679070000013,87.70625389999987,,,,,87.70643650000011,87.72136679999994,87.92188739999983,87.90564039999981,,,,,,,,1,1,2.32423129999961,None,,,,,,,,831,22,M,R,2026-02-23_12h01.00.730,VisualSearch_2526_3,,2025.2.4,2026-02-23 12h01.01.015900 +0100,
tilted.xlsx,The target is tilted.,117,2,2,0,1,1,1,1,1,1,1,1,1,1,1,1,0,11,12,117,space,3.3232057999998688,None,1,1,0.9135667000000467,None,space,1.6614951999999903,None,0,0,0,0,,,,,0,2,2,0,87.92188739999983,,,,,,,,,,,,,,,,,,,,,87.90624780000007,87.92188739999983,88.42582589999984,88.40539519999993,88.41004109999994,88.42582589999984,89.3558535000002,,,,,89.35602980000021,89.3709988999999,89.57157139999981,89.55541670000002,,,,,,,,1,1,0.9135667000000467,None,,,,,,,,831,22,M,R,2026-02-23_12h01.00.730,VisualSearch_2526_3,,2025.2.4,2026-02-23 12h01.01.015900 +0100,
tilted.xlsx,The target is tilted.,117,3,3,0,1,0,0,0,0,0,0,0,0,0,0,0,0,0,1,117,space,3.3232057999998688,None,0,0,0.8081610999997793,None,space,1.6614951999999903,None,0,0,0,0,,,,,0,3,3,3,89.57157139999981,,,,,,,,,,,,,,,,,,,,,89.55607289999989,89.57157139999981,90.0753466000001,90.05507720000014,90.05971820000013,90.0753466000001,90.88881930000025,,,,,90.88899589999983,90.90422630000012,91.10481579999987,91.08871499999987,,,,,,,,0,0,0.8081610999997793,None,,,,,,,,831,22,M,R,2026-02-23_12h01.00.730,VisualSearch_2526_3,,2025.2.4,2026-02-23 12h01.01.015900 +0100,
tilted.xlsx,The target is tilted.,117,4,4,0,0,1,1,1,1,1,1,1,0,0,0,0,1,7,8,117,space,3.3232057999998688,None,1,0,1.8575911999996606,None,space,1.6614951999999903,None,0,0,0,0,,,,,0,4,4,5,91.10481579999987,,,,,,,,,,,,,,,,,,,,,91.0894271000002,91.10481579999987,91.60399460000008,91.58765850000009,91.58995520000008,91.60399460000008,93.47221179999997,,,,,93.47241780000013,93.48715840000023,93.68755969999984,93.67139640000005,,,,,,,,1,0,1.8575911999996606,None,,,,,,,,831,22,M,R,2026-02-23_12h01.00.730,VisualSearch_2526_3,,2025.2.4,2026-02-23 12h01.01.015900 +0100,
tilted.xlsx,The target is tilted.,117,5,5,0,1,1,1,1,0,0,0,0,0,0,0,0,0,3,4,117,space,3.3232057999998688,None,0,0,1.195340700000088,None,space,1.6614951999999903,None,0,0,0,0,,,,,0,5,5,2,93.68755969999984,,,,,,,,,,,,,,,,,,,,,93.67213959999981,93.68755969999984,94.19324629999983,94.17150470000024,94.17656829999987,94.19324629999983,95.40450670000018,,,,,95.40470659999983,95.42007460000013,95.62060190000011,95.6044723,,,,,,,,0,0,1.195340700000088,None,,,,,,,,831,22,M,R,2026-02-23_12h01.00.730,VisualSearch_2526_3,,2025.2.4,2026-02-23 12h01.01.015900 +0100,
tilted.xlsx,The target is tilted.,117,6,6,0,0,1,1,1,0,0,0,0,0,0,0,0,1,3,4,117,space,3.3232057999998688,None,0,1,0.9570883999999751,None,space,1.6614951999999903,None,0,0,0,0,,,,,0,6,6,6,95.62060190000011,,,,,,,,,,,,,,,,,,,,,95.60523289999992,95.62060190000011,96.12406869999995,96.10413199999994,96.10875699999997,96.12406869999995,97.08818440000005,,,,,97.0883816999999,97.10325509999984,97.30376539999997,97.28763220000019,,,,,,,,0,1,0.9570883999999751,None,,,,,,,,831,22,M,R,2026-02-23_12h01.00.730,VisualSearch_2526_3,,2025.2.4,2026-02-23 12h01.01.015900 +0100,
tilted.xlsx,The target is tilted.,117,7,7,0,0,0,0,0,0,0,0,0,0,0,0,0,1,1,1,117,space,3.3232057999998688,None,0,1,0.6899721999998292,None,space,1.6614951999999903,None,0,0,0,0,,,,,0,7,7,7,97.30376539999997,,,,,,,,,,,,,,,,,,,,,97.28833940000004,97.30376539999997,97.80916209999987,97.78748020000012,97.79206449999992,97.80916209999987,98.50335910000013,,,,,98.50345010000001,98.51930070000026,98.71937830000024,98.70293020000008,,,,,,,,0,1,0.6899721999998292,None,,,,,,,,831,22,M,R,2026-02-23_12h01.00.730,VisualSearch_2526_3,,2025.2.4,2026-02-23 12h01.01.015900 +0100,
tilted.xlsx,The target is tilted.,117,8,0,1,0,0,0,0,0,0,0,0,0,0,0,0,1,1,1,117,space,3.3232057999998688,None,0,1,0.6210457000001952,None,space,1.6614951999999903,None,0,0,0,0,,,,,1,0,8,7,98.71937830000024,,,,,,,,,,,,,,,,,,,,,98.70318230000021,98.71937830000024,99.21925120000014,99.20272419999992,99.20393939999985,99.21925120000014,99.8539654000001,,,,,99.85413530000005,99.8691259000002,100.07002449999982,100.05380330000025,,,,,,,,0,1,0.6210457000001952,None,,,,,,,,831,22,M,R,2026-02-23_12h01.00.730,VisualSearch_2526_3,,2025.2.4,2026-02-23 12h01.01.015900 +0100,
tilted.xlsx,The target is tilted.,117,9,1,1,0,1,1,1,1,1,1,1,0,0,0,0,1,7,8,117,space,3.3232057999998688,None,1,0,1.6060625999998592,None,space,1.6614951999999903,None,0,0,0,0,,,,,1,1,9,5,100.07002449999982,,,,,,,,,,,,,,,,,,,,,100.0545474999999,100.07002449999982,100.57284470000013,100.55367370000022,100.5581274000001,100.57284470000013,102.18725570000015,,,,,102.1874342000001,102.20239549999997,102.40277640000022,102.38666419999981,,,,,,,,1,0,1.6060625999998592,None,,,,,,,,831,22,M,R,2026-02-23_12h01.00.730,VisualSearch_2526_3,,2025.2.4,2026-02-23 12h01.01.015900 +0100,
tilted.xlsx,The target is tilted.,117,10,2,1,1,1,1,1,1,1,1,1,0,0,0,0,0,7,8,117,space,3.3232057999998688,None,1,1,1.2103187000002436,None,space,1.6614951999999903,None,0,0,0,0,,,,,1,2,10,1,102.40277640000022,,,,,,,,,,,,,,,,,,,,,102.38734299999987,102.40277640000022,102.90784170000006,102.88660780000009,102.89105500000005,102.90784170000006,104.12009260000013,,,,,104.12025790000007,104.1354096,104.33563940000022,104.31936189999988,,,,,,,,1,1,1.2103187000002436,None,,,,,,,,831,22,M,R,2026-02-23_12h01.00.730,VisualSearch_2526_3,,2025.2.4,2026-02-23 12h01.01.015900 +0100,
tilted.xlsx,The target is tilted.,117,11,3,1,1,0,0,0,0,0,0,0,0,0,0,0,0,0,1,117,space,3.3232057999998688,None,0,0,0.6316285000002608,None,space,1.6614951999999903,None,0,0,0,0,,,,,1,3,11,3,104.33563940000022,,,,,,,,,,,,,,,,,,,,,104.32004009999991,104.33563940000022,104.83519500000011,104.81873570000016,104.82124759999988,104.83519500000011,105.47012320000022,,,,,105.47030519999998,105.48509890000014,105.68551930000012,105.66971680000006,,,,,,,,0,0,0.6316285000002608,None,,,,,,,,831,22,M,R,2026-02-23_12h01.00.730,VisualSearch_2526_3,,2025.2.4,2026-02-23 12h01.01.015900 +0100,
tilted.xlsx,The target is tilted.,117,12,4,1,1,1,1,1,0,0,0,0,0,0,0,0,0,3,4,117,space,3.3232057999998688,None,0,0,1.5669034000002284,None,space,1.6614951999999903,None,0,0,0,0,,,,,1,4,12,2,105.68551930000012,,,,,,,,,,,,,,,,,,,,,105.67044440000018,105.68551930000012,106.1878528000002,106.16904699999986,106.17305390000001,106.1878528000002,107.76898770000025,,,,,107.76915270000018,107.78462820000004,107.9852850000002,107.96925199999987,,,,,,,,0,0,1.5669034000002284,None,,,,,,,,831,22,M,R,2026-02-23_12h01.00.730,VisualSearch_2526_3,,2025.2.4,2026-02-23 12h01.01.015900 +0100,
tilted.xlsx,The target is tilted.,117,13,5,1,0,1,1,1,0,0,0,0,0,0,0,0,1,3,4,117,space,3.3232057999998688,None,1,0,1.1362793999996939,None,space,1.6614951999999903,None,0,0,0,0,,,,,1,5,13,6,107.9852850000002,,,,,,,,,,,,,,,,,,,,,107.96995560000005,107.9852850000002,108.48912150000024,108.46924829999989,108.47384220000004,108.48912150000024,109.63607390000016,,,,,109.63625580000007,109.65109630000006,109.85163890000013,109.83555340000021,,,,,,,,1,0,1.1362793999996939,None,,,,,,,,831,22,M,R,2026-02-23_12h01.00.730,VisualSearch_2526_3,,2025.2.4,2026-02-23 12h01.01.015900 +0100,
tilted.xlsx,The target is tilted.,117,14,6,1,1,1,1,1,1,1,1,1,1,1,1,1,0,11,12,117,space,3.3232057999998688,None,1,1,3.1578276999998707,None,space,1.6614951999999903,None,0,0,0,0,,,,,1,6,14,0,109.85163890000013,,,,,,,,,,,,,,,,,,,,,109.83628429999999,109.85163890000013,110.35644490000004,110.33546419999993,110.33982199999991,110.35644490000004,113.51852659999986,,,,,113.51874510000016,113.53387750000002,113.7344336000001,113.71811810000008,,,,,,,,1,1,3.1578276999998707,None,,,,,,,,831,22,M,R,2026-02-23_12h01.00.730,VisualSearch_2526_3,,2025.2.4,2026-02-23 12h01.01.015900 +0100,
tilted.xlsx,The target is tilted.,117,15,7,1,0,1,1,1,1,1,1,1,1,1,1,1,1,11,12,117,space,3.3232057999998688,None,1,0,1.8446214999999029,None,space,1.6614951999999903,None,0,0,0,0,,,,,1,7,15,4,113.7344336000001,,,,,,,,,,,,,,,,,,,,,113.71885250000014,113.7344336000001,114.2370406,114.21817280000005,114.2224197999999,114.2370406,116.0849618000002,,,,,116.08513799999992,116.10005660000024,116.30044249999992,116.28395660000024,,,,,,,,1,0,1.8446214999999029,None,,,,,,,,831,22,M,R,2026-02-23_12h01.00.730,VisualSearch_2526_3,,2025.2.4,2026-02-23 12h01.01.015900 +0100,
tilted.xlsx,The target is tilted.,117,16,0,2,0,1,1,1,1,1,1,1,0,0,0,0,1,7,8,117,space,3.3232057999998688,None,1,0,1.3953520999998545,None,space,1.6614951999999903,None,0,0,0,0,,,,,2,0,16,5,116.30044249999992,,,,,,,,,,,,,,,,,,,,,116.2845814000002,116.30044249999992,116.80403010000009,116.78402950000009,116.78857199999993,116.80403010000009,118.20093750000024,,,,,118.20111730000008,118.21634459999996,118.41701740000008,118.40058020000015,,,,,,,,1,0,1.3953520999998545,None,,,,,,,,831,22,M,R,2026-02-23_12h01.00.730,VisualSearch_2526_3,,2025.2.4,2026-02-23 12h01.01.015900 +0100,
tilted.xlsx,The target is tilted.,117,17,1,2,0,1,1,1,1,1,1,1,1,1,1,1,1,11,12,117,space,3.3232057999998688,None,1,0,1.5486822999996548,None,space,1.6614951999999903,None,0,0,0,0,,,,,2,1,17,4,118.41701740000008,,,,,,,,,,,,,,,,,,,,,118.40136489999986,118.41701740000008,118.9226007000002,118.9005603999999,118.90508420000015,118.9226007000002,120.48415599999998,,,,,120.48433130000012,120.49931610000021,120.69952139999987,120.68321620000006,,,,,,,,1,0,1.5486822999996548,None,,,,,,,,831,22,M,R,2026-02-23_12h01.00.730,VisualSearch_2526_3,,2025.2.4,2026-02-23 12h01.01.015900 +0100,
tilted.xlsx,The target is tilted.,117,18,2,2,0,0,0,0,0,0,0,0,0,0,0,0,1,1,1,117,space,3.3232057999998688,None,0,1,0.6795938000000206,None,space,1.6614951999999903,None,0,0,0,0,,,,,2,2,18,7,120.69952139999987,,,,,,,,,,,,,,,,,,,,,120.68382070000007,120.69952139999987,121.2042190000002,121.18367050000006,121.18824110000014,121.2042190000002,121.89998190000006,,,,,121.90014580000025,121.91566640000019,122.11638110000013,122.10017449999987,,,,,,,,0,1,0.6795938000000206,None,,,,,,,,831,22,M,R,2026-02-23_12h01.00.730,VisualSearch_2526_3,,2025.2.4,2026-02-23 12h01.01.015900 +0100,
tilted.xlsx,The target is tilted.,117,19,3,2,1,0,0,0,0,0,0,0,0,0,0,0,0,0,1,117,space,3.3232057999998688,None,0,0,1.5621298999999453,None,space,1.6614951999999903,None,0,0,0,0,,,,,2,3,19,3,122.11638110000013,,,,,,,,,,,,,,,,,,,,,122.10089800000014,122.11638110000013,122.62033689999998,122.60009260000015,122.60458640000024,122.62033689999998,124.18346930000007,,,,,124.18365519999998,124.19874449999998,124.39935030000015,124.38318410000011,,,,,,,,0,0,1.5621298999999453,None,,,,,,,,831,22,M,R,2026-02-23_12h01.00.730,VisualSearch_2526_3,,2025.2.4,2026-02-23 12h01.01.015900 +0100,
tilted.xlsx,The target is tilted.,117,20,4,2,1,1,1,1,0,0,0,0,0,0,0,0,0,3,4,117,space,3.3232057999998688,None,0,0,1.4902931999999964,None,space,1.6614951999999903,None,0,0,0,0,,,,,2,4,20,2,124.39935030000015,,,,,,,,,,,,,,,,,,,,,124.38390459999982,124.39935030000015,124.9042359,124.8828668000001,124.88768859999982,124.9042359,126.39992480000001,,,,,126.40010429999984,126.41501920000019,126.61560000000009,126.59886580000011,,,,,,,,0,0,1.4902931999999964,None,,,,,,,,831,22,M,R,2026-02-23_12h01.00.730,VisualSearch_2526_3,,2025.2.4,2026-02-23 12h01.01.015900 +0100,
tilted.xlsx,The target is tilted.,117,21,5,2,0,1,1,1,0,0,0,0,0,0,0,0,1,3,4,117,space,3.3232057999998688,None,0,1,1.0178697000001193,None,space,1.6614951999999903,None,0,0,0,0,,,,,2,5,21,6,126.61560000000009,,,,,,,,,,,,,,,,,,,,,126.59952650000014,126.61560000000009,127.1194918000001,127.09951660000024,127.10399099999995,127.1194918000001,128.14982929999996,,,,,128.15005100000008,128.16476980000016,128.3652551,128.34904349999988,,,,,,,,0,1,1.0178697000001193,None,,,,,,,,831,22,M,R,2026-02-23_12h01.00.730,VisualSearch_2526_3,,2025.2.4,2026-02-23 12h01.01.015900 +0100,
tilted.xlsx,The target is tilted.,117,22,6,2,1,1,1,1,1,1,1,1,0,0,0,0,0,7,8,117,space,3.3232057999998688,None,1,1,0.8231763999997384,None,space,1.6614951999999903,None,0,0,0,0,,,,,2,6,22,1,128.3652551,,,,,,,,,,,,,,,,,,,,,128.34973089999994,128.3652551,128.87037450000025,128.84876029999987,128.85331300000007,128.87037450000025,129.69920730000013,,,,,129.69941000000017,129.71448390000023,129.91477680000025,129.89876370000002,,,,,,,,1,1,0.8231763999997384,None,,,,,,,,831,22,M,R,2026-02-23_12h01.00.730,VisualSearch_2526_3,,2025.2.4,2026-02-23 12h01.01.015900 +0100,
tilted.xlsx,The target is tilted.,117,23,7,2,1,1,1,1,1,1,1,1,1,1,1,1,0,11,12,117,space,3.3232057999998688,None,1,1,0.9933246000000509,None,space,1.6614951999999903,None,0,0,0,0,,,,,2,7,23,0,129.91477680000025,,,,,,,,,,,,,,,,,,,,,129.8994914,129.91477680000025,130.42019290000007,130.39890250000008,130.40346150000005,130.42019290000007,131.41479949999984,,,,,131.41492830000016,131.4307816999999,131.63096480000013,131.6147151,,,,,,,,1,1,0.9933246000000509,None,,,,,,,,831,22,M,R,2026-02-23_12h01.00.730,VisualSearch_2526_3,,2025.2.4,2026-02-23 12h01.01.015900 +0100,
tilted.xlsx,The target is tilted.,117,24,0,3,1,1,1,1,1,1,1,1,0,0,0,0,0,7,8,117,space,3.3232057999998688,None,1,1,1.3171376999998756,None,space,1.6614951999999903,None,0,0,0,0,,,,,3,0,24,1,131.63096480000013,,,,,,,,,,,,,,,,,,,,,131.61541669999997,131.63096480000013,132.13115000000016,132.11455750000005,132.1173521999999,132.13115000000016,133.46482520000018,,,,,133.46503680000023,133.4804420999999,133.68110030000025,133.66487110000025,,,,,,,,1,1,1.3171376999998756,None,,,,,,,,831,22,M,R,2026-02-23_12h01.00.730,VisualSearch_2526_3,,2025.2.4,2026-02-23 12h01.01.015900 +0100,
tilted.xlsx,The target is tilted.,117,25,1,3,0,1,1,1,1,1,1,1,1,1,1,1,1,11,12,117,space,3.3232057999998688,None,1,0,1.527828000000227,None,space,1.6614951999999903,None,0,0,0,0,,,,,3,1,25,4,133.68110030000025,,,,,,,,,,,,,,,,,,,,,133.6656164000001,133.68110030000025,134.18480580000005,134.16503250000005,134.16996840000002,134.18480580000005,135.71468589999995,,,,,135.71481200000017,135.73017340000024,135.93032219999986,135.91462420000016,,,,,,,,1,0,1.527828000000227,None,,,,,,,,831,22,M,R,2026-02-23_12h01.00.730,VisualSearch_2526_3,,2025.2.4,2026-02-23 12h01.01.015900 +0100,
tilted.xlsx,The target is tilted.,117,26,2,3,1,1,1,1,1,1,1,1,1,1,1,1,0,11,12,117,space,3.3232057999998688,None,1,1,2.2572110999999495,None,space,1.6614951999999903,None,0,0,0,0,,,,,3,2,26,0,135.93032219999986,,,,,,,,,,,,,,,,,,,,,135.91535699999986,135.93032219999986,136.43378080000002,136.41431950000015,136.41869670000005,136.43378080000002,138.6977778999999,,,,,138.69794330000013,138.7131841999999,138.91352110000025,138.89712580000014,,,,,,,,1,1,2.2572110999999495,None,,,,,,,,831,22,M,R,2026-02-23_12h01.00.730,VisualSearch_2526_3,,2025.2.4,2026-02-23 12h01.01.015900 +0100,
tilted.xlsx,The target is tilted.,117,27,3,3,0,1,1,1,1,1,1,1,0,0,0,0,1,7,8,117,space,3.3232057999998688,None,1,0,1.1094781000001603,None,space,1.6614951999999903,None,0,0,0,0,,,,,3,3,27,5,138.91352110000025,,,,,,,,,,,,,,,,,,,,,138.8978519000002,138.91352110000025,139.41833850000012,139.39741989999993,139.40191069999992,139.41833850000012,140.53113399999984,,,,,140.53131500000018,140.5457897000001,140.74662579999995,140.7303777000002,,,,,,,,1,0,1.1094781000001603,None,,,,,,,,831,22,M,R,2026-02-23_12h01.00.730,VisualSearch_2526_3,,2025.2.4,2026-02-23 12h01.01.015900 +0100,
tilted.xlsx,The target is tilted.,117,28,4,3,0,0,0,0,0,0,0,0,0,0,0,0,1,1,1,117,space,3.3232057999998688,None,0,1,0.646541900000102,None,space,1.6614951999999903,None,0,0,0,0,,,,,3,4,28,7,140.74662579999995,,,,,,,,,,,,,,,,,,,,,140.7311238000002,140.74662579999995,141.25075509999988,141.23065039999983,141.23551469999984,141.25075509999988,141.9136269999999,,,,,141.91381760000013,141.92916090000017,142.1291584999999,142.11313800000016,,,,,,,,0,1,0.646541900000102,None,,,,,,,,831,22,M,R,2026-02-23_12h01.00.730,VisualSearch_2526_3,,2025.2.4,2026-02-23 12h01.01.015900 +0100,
tilted.xlsx,The target is tilted.,117,29,5,3,1,1,1,1,0,0,0,0,0,0,0,0,0,3,4,117,space,3.3232057999998688,None,0,0,0.9901576000002024,None,space,1.6614951999999903,None,0,0,0,0,,,,,3,5,29,2,142.1291584999999,,,,,,,,,,,,,,,,,,,,,142.1137878999998,142.1291584999999,142.63434760000018,142.61338100000012,142.61742989999993,142.63434760000018,143.63022630000023,,,,,143.63042799999994,143.64555470000005,143.8459883999999,143.8298866,,,,,,,,0,0,0.9901576000002024,None,,,,,,,,831,22,M,R,2026-02-23_12h01.00.730,VisualSearch_2526_3,,2025.2.4,2026-02-23 12h01.01.015900 +0100,
tilted.xlsx,The target is tilted.,117,30,6,3,1,0,0,0,0,0,0,0,0,0,0,0,0,0,1,117,space,3.3232057999998688,None,0,0,0.4923813999998856,None,space,1.6614951999999903,None,0,0,0,0,,,,,3,6,30,3,143.8459883999999,,,,,,,,,,,,,,,,,,,,,143.83063579999998,143.8459883999999,144.3490968000001,144.32938920000015,144.33382770000026,144.3490968000001,144.84687799999983,,,,,144.84707459999981,144.86200929999995,145.0624687999998,145.04660539999986,,,,,,,,0,0,0.4923813999998856,None,,,,,,,,831,22,M,R,2026-02-23_12h01.00.730,VisualSearch_2526_3,,2025.2.4,2026-02-23 12h01.01.015900 +0100,
tilted.xlsx,The target is tilted.,117,31,7,3,0,1,1,1,0,0,0,0,0,0,0,0,1,3,4,117,space,3.3232057999998688,None,0,1,1.208770899999763,None,space,1.6614951999999903,None,0,0,0,0,,,,,3,7,31,6,145.0624687999998,,,,,,,,,,,,,,,,,,,,,145.0473178000002,145.0624687999998,145.56803760000003,145.54644850000022,145.55127420000008,145.56803760000003,146.7802514,,,,,146.78047800000013,146.79506170000013,146.9951799999999,146.97889320000013,,,,,,,,0,1,1.208770899999763,None,,,,,,,,831,22,M,R,2026-02-23_12h01.00.730,VisualSearch_2526_3,,2025.2.4,2026-02-23 12h01.01.015900 +0100,
tilted.xlsx,The target is tilted.,117,32,0,4,1,1,1,1,0,0,0,0,0,0,0,0,0,3,4,117,space,3.3232057999998688,None,0,0,0.7860485999999582,None,space,1.6614951999999903,None,0,0,0,0,,,,,4,0,32,2,146.9951799999999,,,,,,,,,,,,,,,,,,,,,146.97953020000023,146.9951799999999,147.50159350000013,147.47918720000007,147.48444960000006,147.50159350000013,148.2965266000001,,,,,148.2967635,148.31144200000017,148.51195749999988,148.4955077999998,,,,,,,,0,0,0.7860485999999582,None,,,,,,,,831,22,M,R,2026-02-23_12h01.00.730,VisualSearch_2526_3,,2025.2.4,2026-02-23 12h01.01.015900 +0100,
tilted.xlsx,The target is tilted.,117,33,1,4,1,1,1,1,1,1,1,1,0,0,0,0,0,7,8,117,space,3.3232057999998688,None,1,1,1.59225269999979,None,space,1.6614951999999903,None,0,0,0,0,,,,,4,1,33,1,148.51195749999988,,,,,,,,,,,,,,,,,,,,,148.49624140000014,148.51195749999988,149.01726259999987,148.99598560000004,149.00103609999996,149.01726259999987,150.61265439999988,,,,,150.6128374,150.6276812000001,150.82787020000023,150.81149069999992,,,,,,,,1,1,1.59225269999979,None,,,,,,,,831,22,M,R,2026-02-23_12h01.00.730,VisualSearch_2526_3,,2025.2.4,2026-02-23 12h01.01.015900 +0100,
tilted.xlsx,The target is tilted.,117,34,2,4,1,0,0,0,0,0,0,0,0,0,0,0,0,0,1,117,space,3.3232057999998688,None,0,0,0.5355211000000963,None,space,1.6614951999999903,None,0,0,0,0,,,,,4,2,34,3,150.82787020000023,,,,,,,,,,,,,,,,,,,,,150.81214020000016,150.82787020000023,151.33192770000005,151.31176129999994,151.3163024999999,151.33192770000005,151.8791139,,,,,151.87933190000012,151.89407389999997,152.09436090000008,152.07853999999998,,,,,,,,0,0,0.5355211000000963,None,,,,,,,,831,22,M,R,2026-02-23_12h01.00.730,VisualSearch_2526_3,,2025.2.4,2026-02-23 12h01.01.015900 +0100,
tilted.xlsx,The target is tilted.,117,35,3,4,0,0,0,0,0,0,0,0,0,0,0,0,1,1,1,117,space,3.3232057999998688,None,0,1,0.6262818000000152,None,space,1.6614951999999903,None,0,0,0,0,,,,,4,3,35,7,152.09436090000008,,,,,,,,,,,,,,,,,,,,,152.0792750999999,152.09436090000008,152.59835569999996,152.57861140000023,152.5829947000002,152.59835569999996,153.2286251999999,,,,,153.22882560000016,153.24399970000013,153.44459469999993,153.42860419999988,,,,,,,,0,1,0.6262818000000152,None,,,,,,,,831,22,M,R,2026-02-23_12h01.00.730,VisualSearch_2526_3,,2025.2.4,2026-02-23 12h01.01.015900 +0100,
tilted.xlsx,The target is tilted.,117,36,4,4,0,1,1,1,1,1,1,1,1,1,1,1,1,11,12,117,space,3.3232057999998688,None,1,0,1.5673602000001665,None,space,1.6614951999999903,None,0,0,0,0,,,,,4,4,36,4,153.44459469999993,,,,,,,,,,,,,,,,,,,,,153.4294473,153.44459469999993,153.95114680000006,153.9284435999998,153.93346780000002,153.95114680000006,155.5284200000001,,,,,155.52859960000023,155.54355220000025,155.7440227000002,155.72742560000006,,,,,,,,1,0,1.5673602000001665,None,,,,,,,,831,22,M,R,2026-02-23_12h01.00.730,VisualSearch_2526_3,,2025.2.4,2026-02-23 12h01.01.015900 +0100,
tilted.xlsx,The target is tilted.,117,37,5,4,0,1,1,1,1,1,1,1,0,0,0,0,1,7,8,117,space,3.3232057999998688,None,1,0,0.7180280999996285,None,space,1.6614951999999903,None,0,0,0,0,,,,,4,5,37,5,155.7440227000002,,,,,,,,,,,,,,,,,,,,,155.72802920000004,155.7440227000002,156.24638970000024,156.22795150000002,156.2324109000001,156.24638970000024,156.97763680000025,,,,,156.97783459999982,156.99305390000018,157.1939164999999,157.17778480000015,,,,,,,,1,0,0.7180280999996285,None,,,,,,,,831,22,M,R,2026-02-23_12h01.00.730,VisualSearch_2526_3,,2025.2.4,2026-02-23 12h01.01.015900 +0100,
tilted.xlsx,The target is tilted.,117,38,6,4,1,1,1,1,1,1,1,1,1,1,1,1,0,11,12,117,space,3.3232057999998688,None,0,0,2.0929818999998133,None,space,1.6614951999999903,None,0,0,0,0,,,,,4,6,38,0,157.1939164999999,,,,,,,,,,,,,,,,,,,,,157.17851180000025,157.1939164999999,157.69815449999987,157.67796129999988,157.68297089999987,157.69815449999987,159.79372700000022,,,,,159.7938936999999,159.80945209999982,160.00991310000018,159.99357210000016,,,,,,,,0,0,2.0929818999998133,None,,,,,,,,831,22,M,R,2026-02-23_12h01.00.730,VisualSearch_2526_3,,2025.2.4,2026-02-23 12h01.01.015900 +0100,
tilted.xlsx,The target is tilted.,117,39,7,4,0,1,1,1,0,0,0,0,0,0,0,0,1,3,4,117,space,3.3232057999998688,None,0,1,2.305017499999849,None,space,1.6614951999999903,None,0,0,0,0,,,,,4,7,39,6,160.00991310000018,,,,,,,,,,,,,,,,,,,,,159.99397399999998,160.00991310000018,160.51358489999984,160.49377090000007,160.4983428999999,160.51358489999984,162.8267119000002,,,,,162.8268939999998,162.8423544000002,163.0426424000002,163.02683160000015,,,,,,,,0,1,2.305017499999849,None,,,,,,,,831,22,M,R,2026-02-23_12h01.00.730,VisualSearch_2526_3,,2025.2.4,2026-02-23 12h01.01.015900 +0100,
tilted.xlsx,The target is tilted.,117,40,0,5,0,1,1,1,0,0,0,0,0,0,0,0,1,3,4,117,space,3.3232057999998688,None,0,1,0.5996069999996507,None,space,1.6614951999999903,None,0,0,0,0,,,,,5,0,40,6,163.0426424000002,,,,,,,,,,,,,,,,,,,,,163.02756399999998,163.0426424000002,163.54392890000008,163.52610790000017,163.5302915000002,163.54392890000008,164.15909749999992,,,,,164.15918479999982,164.17583869999999,,164.3596551999999,,,,,,,,0,1,0.5996069999996507,None,,,,,,,,831,22,M,R,2026-02-23_12h01.00.730,VisualSearch_2526_3,,2025.2.4,2026-02-23 12h01.01.015900 +0100,
tilted.xlsx,The target is tilted.,117,41,1,5,1,1,1,1,1,1,1,1,0,0,0,0,0,7,8,117,space,3.3232057999998688,None,1,1,0.9824346000000332,None,space,1.6614951999999903,None,0,0,0,0,,,,,5,1,41,1,164.37566449999986,,,,,,,,,,,,,,,,,,,,,164.36041909999994,164.37566449999986,,164.85969190000014,164.86431219999986,164.88086939999994,165.87622199999987,,,,,165.8763288,165.89165020000019,166.09232909999992,166.07577880000008,,,,,,,,1,1,0.9824346000000332,None,,,,,,,,831,22,M,R,2026-02-23_12h01.00.730,VisualSearch_2526_3,,2025.2.4,2026-02-23 12h01.01.015900 +0100,
tilted.xlsx,The target is tilted.,117,42,2,5,0,1,1,1,1,1,1,1,1,1,1,1,1,11,12,117,space,3.3232057999998688,None,1,0,2.1748634000000493,None,space,1.6614951999999903,None,0,0,0,0,,,,,5,2,42,4,166.09232909999992,,,,,,,,,,,,,,,,,,,,,166.07643300000018,166.09232909999992,166.5999753000001,166.57643270000017,166.5815004000001,166.5999753000001,168.77601330000016,,,,,168.7761991000002,168.79144189999988,168.99182419999988,168.97578509999994,,,,,,,,1,0,2.1748634000000493,None,,,,,,,,831,22,M,R,2026-02-23_12h01.00.730,VisualSearch_2526_3,,2025.2.4,2026-02-23 12h01.01.015900 +0100,
tilted.xlsx,The target is tilted.,117,43,3,5,1,1,1,1,0,0,0,0,0,0,0,0,0,3,4,117,space,3.3232057999998688,None,0,0,0.6345268000000033,None,space,1.6614951999999903,None,0,0,0,0,,,,,5,3,43,2,168.99182419999988,,,,,,,,,,,,,,,,,,,,,168.97651970000015,168.99182419999988,169.4956056000001,169.47542950000025,169.47989589999997,169.4956056000001,170.14260289999993,,,,,170.1427816999999,170.15779350000003,170.35849839999992,170.34211259999984,,,,,,,,0,0,0.6345268000000033,None,,,,,,,,831,22,M,R,2026-02-23_12h01.00.730,VisualSearch_2526_3,,2025.2.4,2026-02-23 12h01.01.015900 +0100,
tilted.xlsx,The target is tilted.,117,44,4,5,1,0,0,0,0,0,0,0,0,0,0,0,0,0,1,117,space,3.3232057999998688,None,0,0,0.48949809999976424,None,space,1.6614951999999903,None,0,0,0,0,,,,,5,4,44,3,170.35849839999992,,,,,,,,,,,,,,,,,,,,,170.3428328,170.35849839999992,170.8582193000002,170.84172350000017,170.84426859999985,170.8582193000002,171.35896970000022,,,,,171.35916929999985,171.37415539999984,171.57429090000005,171.5580190999999,,,,,,,,0,0,0.48949809999976424,None,,,,,,,,831,22,M,R,2026-02-23_12h01.00.730,VisualSearch_2526_3,,2025.2.4,2026-02-23 12h01.01.015900 +0100,
tilted.xlsx,The target is tilted.,117,45,5,5,0,1,1,1,1,1,1,1,0,0,0,0,1,7,8,117,space,3.3232057999998688,None,1,0,0.8543506999999408,None,space,1.6614951999999903,None,0,0,0,0,,,,,5,5,45,5,171.57429090000005,,,,,,,,,,,,,,,,,,,,,171.55837759999986,171.57429090000005,172.07995299999993,172.0587860999999,172.06413120000025,172.07995299999993,172.9424254999999,,,,,172.94262780000008,172.95742169999994,173.1574770000002,173.14157939999996,,,,,,,,1,0,0.8543506999999408,None,,,,,,,,831,22,M,R,2026-02-23_12h01.00.730,VisualSearch_2526_3,,2025.2.4,2026-02-23 12h01.01.015900 +0100,
tilted.xlsx,The target is tilted.,117,46,6,5,1,1,1,1,1,1,1,1,1,1,1,1,0,11,12,117,space,3.3232057999998688,None,1,1,0.9360845999999583,None,space,1.6614951999999903,None,0,0,0,0,,,,,5,6,46,0,173.1574770000002,,,,,,,,,,,,,,,,,,,,,173.14231969999992,173.1574770000002,173.6629370999999,173.64172120000012,173.64682679999987,173.6629370999999,174.60880469999984,,,,,174.60900840000022,174.62381490000007,174.82386970000016,174.80776090000018,,,,,,,,1,1,0.9360845999999583,None,,,,,,,,831,22,M,R,2026-02-23_12h01.00.730,VisualSearch_2526_3,,2025.2.4,2026-02-23 12h01.01.015900 +0100,
tilted.xlsx,The target is tilted.,117,47,7,5,0,0,0,0,0,0,0,0,0,0,0,0,1,1,1,117,space,3.3232057999998688,None,0,1,0.5513510000000679,None,space,1.6614951999999903,None,0,0,0,0,,,,,5,7,47,7,174.82386970000016,,,,,,,,,,,,,,,,,,,,,174.80850490000012,174.82386970000016,175.32993639999995,175.30818829999998,175.31289730000026,175.32993639999995,175.89042840000002,,,,,175.89053190000004,175.9066888000002,176.10728100000006,176.09064549999994,,,,,,,,0,1,0.5513510000000679,None,,,,,,,,831,22,M,R,2026-02-23_12h01.00.730,VisualSearch_2526_3,,2025.2.4,2026-02-23 12h01.01.015900 +0100,
tilted.xlsx,The target is tilted.,117,48,0,6,1,0,0,0,0,0,0,0,0,0,0,0,0,0,1,117,space,3.3232057999998688,None,0,0,0.4683079999999791,None,space,1.6614951999999903,None,0,0,0,0,,,,,6,0,48,3,176.10728100000006,,,,,,,,,,,,,,,,,,,,,176.09123369999998,176.10728100000006,,176.59069820000013,176.59606870000016,176.61327329999995,177.09167489999982,,,,,177.09190500000022,177.1068110000001,177.30736370000022,177.29082670000025,,,,,,,,0,0,0.4683079999999791,None,,,,,,,,831,22,M,R,2026-02-23_12h01.00.730,VisualSearch_2526_3,,2025.2.4,2026-02-23 12h01.01.015900 +0100,
tilted.xlsx,The target is tilted.,117,49,1,6,0,0,0,0,0,0,0,0,0,0,0,0,1,1,1,117,space,3.3232057999998688,None,0,1,0.40653699999984383,None,space,1.6614951999999903,None,0,0,0,0,,,,,6,1,49,7,177.30736370000022,,,,,,,,,,,,,,,,,,,,,177.29178339999999,177.30736370000022,177.81566410000005,177.79078029999982,177.7957550000001,177.81566410000005,178.2251342999998,,,,,178.22535659999994,178.2399531000001,178.44019079999998,178.42438459999994,,,,,,,,0,1,0.40653699999984383,None,,,,,,,,831,22,M,R,2026-02-23_12h01.00.730,VisualSearch_2526_3,,2025.2.4,2026-02-23 12h01.01.015900 +0100,
tilted.xlsx,The target is tilted.,117,50,2,6,0,1,1,1,1,1,1,1,0,0,0,0,1,7,8,117,space,3.3232057999998688,None,1,0,0.8391415000000961,None,space,1.6614951999999903,None,0,0,0,0,,,,,6,2,50,5,178.44019079999998,,,,,,,,,,,,,,,,,,,,,178.42520280000008,178.44019079999998,178.94654910000008,178.92427159999988,178.92940390000012,178.94654910000008,179.79097899999988,,,,,179.7911806000002,179.80634340000006,180.00649079999994,179.99050840000018,,,,,,,,1,0,0.8391415000000961,None,,,,,,,,831,22,M,R,2026-02-23_12h01.00.730,VisualSearch_2526_3,,2025.2.4,2026-02-23 12h01.01.015900 +0100,
tilted.xlsx,The target is tilted.,117,51,3,6,0,1,1,1,0,0,0,0,0,0,0,0,1,3,4,117,space,3.3232057999998688,None,0,1,0.6963415999998688,None,space,1.6614951999999903,None,0,0,0,0,,,,,6,3,51,6,180.00649079999994,,,,,,,,,,,,,,,,,,,,,179.99132360000021,180.00649079999994,180.5127950000001,180.4906436000001,180.4957519999998,180.5127950000001,181.22383149999996,,,,,181.22404039999992,181.2393388999999,181.4399595,181.42374610000024,,,,,,,,0,1,0.6963415999998688,None,,,,,,,,831,22,M,R,2026-02-23_12h01.00.730,VisualSearch_2526_3,,2025.2.4,2026-02-23 12h01.01.015900 +0100,
tilted.xlsx,The target is tilted.,117,52,4,6,0,1,1,1,1,1,1,1,1,1,1,1,1,11,12,117,space,3.3232057999998688,None,1,0,1.2496389999996609,None,space,1.6614951999999903,None,0,0,0,0,,,,,6,4,52,4,181.4399595,,,,,,,,,,,,,,,,,,,,,181.42445550000002,181.4399595,181.93942289999995,181.9230124999999,181.9243273000002,181.93942289999995,183.19067489999998,,,,,183.1908738000002,183.20566050000025,183.40638530000024,183.39031830000022,,,,,,,,1,0,1.2496389999996609,None,,,,,,,,831,22,M,R,2026-02-23_12h01.00.730,VisualSearch_2526_3,,2025.2.4,2026-02-23 12h01.01.015900 +0100,
tilted.xlsx,The target is tilted.,117,53,5,6,1,1,1,1,0,0,0,0,0,0,0,0,0,3,4,117,space,3.3232057999998688,None,0,0,0.8872572000000218,None,space,1.6614951999999903,None,0,0,0,0,,,,,6,5,53,2,183.40638530000024,,,,,,,,,,,,,,,,,,,,,183.3911717000001,183.40638530000024,183.9116772000002,183.89016219999985,183.8952663,183.9116772000002,184.80712529999983,,,,,184.80731730000025,184.8221583999998,185.02258660000007,185.0062683000001,,,,,,,,0,0,0.8872572000000218,None,,,,,,,,831,22,M,R,2026-02-23_12h01.00.730,VisualSearch_2526_3,,2025.2.4,2026-02-23 12h01.01.015900 +0100,
tilted.xlsx,The target is tilted.,117,54,6,6,1,1,1,1,1,1,1,1,1,1,1,1,0,11,12,117,space,3.3232057999998688,None,1,1,2.5329995000001873,None,space,1.6614951999999903,None,0,0,0,0,,,,,6,6,54,0,185.02258660000007,,,,,,,,,,,,,,,,,,,,,185.00704459999997,185.02258660000007,185.5286916,185.50661649999984,185.51168069999994,185.5286916,188.0730824000002,,,,,188.07326409999996,188.0882077000001,188.2887568000001,188.27252499999986,,,,,,,,1,1,2.5329995000001873,None,,,,,,,,831,22,M,R,2026-02-23_12h01.00.730,VisualSearch_2526_3,,2025.2.4,2026-02-23 12h01.01.015900 +0100,
tilted.xlsx,The target is tilted.,117,55,7,6,1,1,1,1,1,1,1,1,0,0,0,0,0,7,8,117,space,3.3232057999998688,None,1,1,0.7216183000000456,None,space,1.6614951999999903,None,0,0,0,0,,,,,6,7,55,1,188.2887568000001,,,,,,,,,,,,,,,,,,,,,188.2732787,188.2887568000001,188.7932936000002,188.77214219999996,188.77653869999995,188.7932936000002,189.52249849999998,,,,,189.52262770000016,189.53785890000017,189.73847130000013,189.7221859000001,,,,,,,,1,1,0.7216183000000456,None,,,,,,,,831,22,M,R,2026-02-23_12h01.00.730,VisualSearch_2526_3,,2025.2.4,2026-02-23 12h01.01.015900 +0100,
tilted.xlsx,The target is tilted.,117,56,0,7,0,1,1,1,0,0,0,0,0,0,0,0,1,3,4,117,space,3.3232057999998688,None,0,1,1.0208747000001495,None,space,1.6614951999999903,None,0,0,0,0,,,,,7,0,56,6,189.73847130000013,,,,,,,,,,,,,,,,,,,,,189.72285340000008,189.73847130000013,190.24281830000018,190.22227199999998,190.22669910000013,190.24281830000018,191.27151850000018,,,,,191.27163310000014,191.28746630000023,191.48730569999998,191.47076879999986,,,,,,,,0,1,1.0208747000001495,None,,,,,,,,831,22,M,R,2026-02-23_12h01.00.730,VisualSearch_2526_3,,2025.2.4,2026-02-23 12h01.01.015900 +0100,
tilted.xlsx,The target is tilted.,117,57,1,7,0,1,1,1,1,1,1,1,0,0,0,0,1,7,8,117,space,3.3232057999998688,None,1,0,0.8315708999998606,None,space,1.6614951999999903,None,0,0,0,0,,,,,7,1,57,5,191.48730569999998,,,,,,,,,,,,,,,,,,,,,191.4710156000001,191.48730569999998,191.99344090000022,191.97154460000002,191.97600019999982,191.99344090000022,192.8385655000002,,,,,192.83876659999987,192.85408610000013,193.05456520000007,193.03843069999994,,,,,,,,1,0,0.8315708999998606,None,,,,,,,,831,22,M,R,2026-02-23_12h01.00.730,VisualSearch_2526_3,,2025.2.4,2026-02-23 12h01.01.015900 +0100,
tilted.xlsx,The target is tilted.,117,58,2,7,1,1,1,1,0,0,0,0,0,0,0,0,0,3,4,117,space,3.3232057999998688,None,0,0,0.7190773000002082,None,space,1.6614951999999903,None,0,0,0,0,,,,,7,2,58,2,193.05456520000007,,,,,,,,,,,,,,,,,,,,,193.0391752999999,193.05456520000007,193.55913109999983,193.53811910000013,193.5431368999998,193.55913109999983,194.28877770000008,,,,,194.28895939999984,194.3038446999999,194.5044143,194.48830839999982,,,,,,,,0,0,0.7190773000002082,None,,,,,,,,831,22,M,R,2026-02-23_12h01.00.730,VisualSearch_2526_3,,2025.2.4,2026-02-23 12h01.01.015900 +0100,
tilted.xlsx,The target is tilted.,117,59,3,7,1,1,1,1,1,1,1,1,1,1,1,1,0,11,12,117,space,3.3232057999998688,None,1,1,0.8577204000002894,None,space,1.6614951999999903,None,0,0,0,0,,,,,7,3,59,0,194.5044143,,,,,,,,,,,,,,,,,,,,,194.48903610000025,194.5044143,195.0100226999998,194.98786870000004,194.99237519999997,195.0100226999998,195.87149,,,,,195.87166720000005,195.8869009,196.08708179999985,196.0707296999999,,,,,,,,1,1,0.8577204000002894,None,,,,,,,,831,22,M,R,2026-02-23_12h01.00.730,VisualSearch_2526_3,,2025.2.4,2026-02-23 12h01.01.015900 +0100,
tilted.xlsx,The target is tilted.,117,60,4,7,1,0,0,0,0,0,0,0,0,0,0,0,0,0,1,117,space,3.3232057999998688,None,0,0,0.5365002999997159,None,space,1.6614951999999903,None,0,0,0,0,,,,,7,4,60,3,196.08708179999985,,,,,,,,,,,,,,,,,,,,,196.07133860000022,196.08708179999985,196.59446879999996,196.57084399999985,196.5754750000001,196.59446879999996,197.13724270000012,,,,,197.13730859999987,197.1530969999999,197.3533308000001,197.33701359999986,,,,,,,,0,0,0.5365002999997159,None,,,,,,,,831,22,M,R,2026-02-23_12h01.00.730,VisualSearch_2526_3,,2025.2.4,2026-02-23 12h01.01.015900 +0100,
tilted.xlsx,The target is tilted.,117,61,5,7,1,1,1,1,1,1,1,1,0,0,0,0,0,7,8,117,space,3.3232057999998688,None,1,1,0.7859581000002436,None,space,1.6614951999999903,None,0,0,0,0,,,,,7,5,61,1,197.3533308000001,,,,,,,,,,,,,,,,,,,,,197.33750950000012,197.3533308000001,197.86053189999984,197.83762479999996,197.84270809999998,197.86053189999984,198.6547442000001,,,,,198.6549269000002,198.66988880000008,198.87023630000022,198.85431800000015,,,,,,,,1,1,0.7859581000002436,None,,,,,,,,831,22,M,R,2026-02-23_12h01.00.730,VisualSearch_2526_3,,2025.2.4,2026-02-23 12h01.01.015900 +0100,
tilted.xlsx,The target is tilted.,117,62,6,7,0,1,1,1,1,1,1,1,1,1,1,1,1,11,12,117,space,3.3232057999998688,None,1,0,0.6007163000003857,None,space,1.6614951999999903,None,0,0,0,0,,,,,7,6,62,4,198.87023630000022,,,,,,,,,,,,,,,,,,,,,198.85511760000009,198.87023630000022,199.37366380000003,199.3541156000001,199.35859070000015,199.37366380000003,199.9872137000002,,,,,199.98739920000025,200.0028897000002,200.20341510000026,200.18718609999996,,,,,,,,1,0,0.6007163000003857,None,,,,,,,,831,22,M,R,2026-02-23_12h01.00.730,VisualSearch_2526_3,,2025.2.4,2026-02-23 12h01.01.015900 +0100,
tilted.xlsx,The target is tilted.,117,63,7,7,0,0,0,0,0,0,0,0,0,0,0,0,1,1,1,117,space,3.3232057999998688,None,0,1,0.5648424000000887,None,space,1.6614951999999903,None,0,0,0,0,,,,,7,7,63,7,200.20341510000026,,,,,,,,,,,,,,,,,,,,,200.18796040000007,200.20341510000026,200.70865860000004,200.68745309999986,200.6925325000002,200.70865860000004,201.28630550000025,,,,,201.2863969,201.30298279999988,201.50311809999994,201.4864381000002,,,,,,,,0,1,0.5648424000000887,None,,,,,,,,831,22,M,R,2026-02-23_12h01.00.730,VisualSearch_2526_3,,2025.2.4,2026-02-23 12h01.01.015900 +0100,
tilted.xlsx,The target is tilted.,117,64,0,8,1,1,1,1,1,1,1,1,0,0,0,0,0,7,8,117,space,3.3232057999998688,None,1,1,1.3383668000001308,None,space,1.6614951999999903,None,0,0,0,0,,,,,8,0,64,1,201.50311809999994,,,,,,,,,,,,,,,,,,,,,201.48690050000005,201.50311809999994,,201.98673740000004,201.99121879999984,202.00911099999985,203.35401570000022,,,,,203.3542126000002,203.36903780000011,203.56972580000001,203.5535405999999,,,,,,,,1,1,1.3383668000001308,None,,,,,,,,831,22,M,R,2026-02-23_12h01.00.730,VisualSearch_2526_3,,2025.2.4,2026-02-23 12h01.01.015900 +0100,
tilted.xlsx,The target is tilted.,117,65,1,8,0,0,0,0,0,0,0,0,0,0,0,0,1,1,1,117,space,3.3232057999998688,None,0,1,0.5097319999999854,None,space,1.6614951999999903,None,0,0,0,0,,,,,8,1,65,7,203.56972580000001,,,,,,,,,,,,,,,,,,,,,203.55436580000014,203.56972580000001,204.07501839999986,204.0535077999998,204.05857680000008,204.07501839999986,204.58719999999994,,,,,204.58740290000014,204.60222699999986,204.8021494999998,204.78587490000018,,,,,,,,0,1,0.5097319999999854,None,,,,,,,,831,22,M,R,2026-02-23_12h01.00.730,VisualSearch_2526_3,,2025.2.4,2026-02-23 12h01.01.015900 +0100,
tilted.xlsx,The target is tilted.,117,66,2,8,0,1,1,1,1,1,1,1,0,0,0,0,1,7,8,117,space,3.3232057999998688,None,1,0,0.9042505999996138,None,space,1.6614951999999903,None,0,0,0,0,,,,,8,2,66,5,204.8021494999998,,,,,,,,,,,,,,,,,,,,,204.78638230000024,204.8021494999998,205.30852069999992,205.28641860000016,205.29083050000008,205.30852069999992,206.21997109999984,,,,,206.22014450000006,206.2352377000002,206.43576729999995,206.4195254000001,,,,,,,,1,0,0.9042505999996138,None,,,,,,,,831,22,M,R,2026-02-23_12h01.00.730,VisualSearch_2526_3,,2025.2.4,2026-02-23 12h01.01.015900 +0100,
tilted.xlsx,The target is tilted.,117,67,3,8,1,1,1,1,1,1,1,1,1,1,1,1,0,11,12,117,space,3.3232057999998688,None,0,0,2.545095500000116,None,space,1.6614951999999903,None,0,0,0,0,,,,,8,3,67,0,206.43576729999995,,,,,,,,,,,,,,,,,,,,,206.4201954,206.43576729999995,206.93777660000023,206.91890409999996,206.92263230000026,206.93777660000023,209.48616149999998,,,,,209.48634040000024,209.50135779999982,209.70170589999998,209.6851190000002,,,,,,,,0,0,2.545095500000116,None,,,,,,,,831,22,M,R,2026-02-23_12h01.00.730,VisualSearch_2526_3,,2025.2.4,2026-02-23 12h01.01.015900 +0100,
tilted.xlsx,The target is tilted.,117,68,4,8,1,1,1,1,0,0,0,0,0,0,0,0,0,3,4,117,space,3.3232057999998688,None,0,0,1.094293000000107,None,space,1.6614951999999903,None,0,0,0,0,,,,,8,4,68,2,209.70170589999998,,,,,,,,,,,,,,,,,,,,,209.68575839999994,209.70170589999998,210.2067087999999,210.18571569999995,210.19003500000008,210.2067087999999,211.3015522999999,,,,,211.30165080000006,211.31762930000014,211.5183118,211.50188579999985,,,,,,,,0,0,1.094293000000107,None,,,,,,,,831,22,M,R,2026-02-23_12h01.00.730,VisualSearch_2526_3,,2025.2.4,2026-02-23 12h01.01.015900 +0100,
tilted.xlsx,The target is tilted.,117,69,5,8,0,1,1,1,1,1,1,1,1,1,1,1,1,11,12,117,space,3.3232057999998688,None,1,0,1.2631208999996488,None,space,1.6614951999999903,None,0,0,0,0,,,,,8,5,69,4,211.5183118,,,,,,,,,,,,,,,,,,,,,211.50253620000012,211.5183118,212.02390939999987,212.0019228000001,212.0063126,212.02390939999987,213.30169849999993,,,,,213.30188559999988,213.3171766999999,213.5174480999999,213.50127040000007,,,,,,,,1,0,1.2631208999996488,None,,,,,,,,831,22,M,R,2026-02-23_12h01.00.730,VisualSearch_2526_3,,2025.2.4,2026-02-23 12h01.01.015900 +0100,
tilted.xlsx,The target is tilted.,117,70,6,8,0,1,1,1,0,0,0,0,0,0,0,0,1,3,4,117,space,3.3232057999998688,None,0,1,0.8891125000000102,None,space,1.6614951999999903,None,0,0,0,0,,,,,8,6,70,6,213.5174480999999,,,,,,,,,,,,,,,,,,,,,213.50201240000024,213.5174480999999,214.02283050000005,214.00162869999986,214.00638149999986,214.02283050000005,214.91870960000006,,,,,214.91890439999997,214.9337833999998,215.13385160000007,215.11778940000022,,,,,,,,0,1,0.8891125000000102,None,,,,,,,,831,22,M,R,2026-02-23_12h01.00.730,VisualSearch_2526_3,,2025.2.4,2026-02-23 12h01.01.015900 +0100,
tilted.xlsx,The target is tilted.,117,71,7,8,1,0,0,0,0,0,0,0,0,0,0,0,0,0,1,117,space,3.3232057999998688,None,0,0,0.6657073000001219,None,space,1.6614951999999903,None,0,0,0,0,,,,,8,7,71,3,215.13385160000007,,,,,,,,,,,,,,,,,,,,,215.11849200000006,215.13385160000007,215.63986560000012,215.61817130000009,215.62254810000013,215.63986560000012,216.3184325000002,,,,,216.3187241999999,216.3334877000002,216.5341131,216.5179051,,,,,,,,0,0,0.6657073000001219,None,,,,,,,,831,22,M,R,2026-02-23_12h01.00.730,VisualSearch_2526_3,,2025.2.4,2026-02-23 12h01.01.015900 +0100,
tilted.xlsx,The target is tilted.,117,72,0,9,1,1,1,1,1,1,1,1,0,0,0,0,0,7,8,117,space,3.3232057999998688,None,1,1,0.6294118000000708,None,space,1.6614951999999903,None,0,0,0,0,,,,,9,0,72,1,216.5341131,,,,,,,,,,,,,,,,,,,,,216.51863679999997,216.5341131,217.0395681,217.01798599999984,217.02296849999993,217.0395681,217.68433370000002,,,,,217.68453640000007,217.69996300000003,217.90017540000008,217.88432680000005,,,,,,,,1,1,0.6294118000000708,None,,,,,,,,831,22,M,R,2026-02-23_12h01.00.730,VisualSearch_2526_3,,2025.2.4,2026-02-23 12h01.01.015900 +0100,
tilted.xlsx,The target is tilted.,117,73,1,9,0,1,1,1,1,1,1,1,0,0,0,0,1,7,8,117,space,3.3232057999998688,None,1,0,0.8557832000001326,None,space,1.6614951999999903,None,0,0,0,0,,,,,9,1,73,5,217.90017540000008,,,,,,,,,,,,,,,,,,,,,217.88501940000015,217.90017540000008,218.4048584000002,218.38404549999996,218.3898279,218.4048584000002,219.2680651999999,,,,,219.26825839999992,219.2830887,219.48322999999982,219.46705410000004,,,,,,,,1,0,0.8557832000001326,None,,,,,,,,831,22,M,R,2026-02-23_12h01.00.730,VisualSearch_2526_3,,2025.2.4,2026-02-23 12h01.01.015900 +0100,
tilted.xlsx,The target is tilted.,117,74,2,9,1,0,0,0,0,0,0,0,0,0,0,0,0,0,1,117,space,3.3232057999998688,None,0,0,0.5754678000002968,None,space,1.6614951999999903,None,0,0,0,0,,,,,9,2,74,3,219.48322999999982,,,,,,,,,,,,,,,,,,,,,219.46777079999993,219.48322999999982,219.98910979999982,219.96748230000003,219.97188880000022,219.98910979999982,220.56787280000026,,,,,220.56804569999986,220.583032,220.78341279999995,220.76718200000005,,,,,,,,0,0,0.5754678000002968,None,,,,,,,,831,22,M,R,2026-02-23_12h01.00.730,VisualSearch_2526_3,,2025.2.4,2026-02-23 12h01.01.015900 +0100,
tilted.xlsx,The target is tilted.,117,75,3,9,1,1,1,1,0,0,0,0,0,0,0,0,0,3,4,117,space,3.3232057999998688,None,0,0,0.8832049999996343,None,space,1.6614951999999903,None,0,0,0,0,,,,,9,3,75,2,220.78341279999995,,,,,,,,,,,,,,,,,,,,,220.76794689999997,220.78341279999995,221.28746009999986,221.26723730000003,221.2719920999998,221.28746009999986,222.1834291,,,,,222.1836076999998,222.1991982999998,222.39978770000016,222.38362610000013,,,,,,,,0,0,0.8832049999996343,None,,,,,,,,831,22,M,R,2026-02-23_12h01.00.730,VisualSearch_2526_3,,2025.2.4,2026-02-23 12h01.01.015900 +0100,
tilted.xlsx,The target is tilted.,117,76,4,9,0,1,1,1,1,1,1,1,1,1,1,1,1,11,12,117,space,3.3232057999998688,None,1,0,1.0403105000000323,None,space,1.6614951999999903,None,0,0,0,0,,,,,9,4,76,4,222.39978770000016,,,,,,,,,,,,,,,,,,,,,222.38436120000006,222.39978770000016,222.9033789,222.88362099999995,222.88803300000018,222.9033789,223.9506319000002,,,,,223.95082649999995,223.96576670000013,224.16618359999984,224.1499988999999,,,,,,,,1,0,1.0403105000000323,None,,,,,,,,831,22,M,R,2026-02-23_12h01.00.730,VisualSearch_2526_3,,2025.2.4,2026-02-23 12h01.01.015900 +0100,
tilted.xlsx,The target is tilted.,117,77,5,9,1,1,1,1,1,1,1,1,1,1,1,1,0,11,12,117,space,3.3232057999998688,None,0,0,2.0300123000001804,None,space,1.6614951999999903,None,0,0,0,0,,,,,9,5,77,0,224.16618359999984,,,,,,,,,,,,,,,,,,,,,224.15072809999992,224.16618359999984,224.66609909999988,224.64984129999993,224.65425289999985,224.66609909999988,226.69964750000008,,,,,226.6998251,226.7151514000002,226.91561189999993,226.8991802999999,,,,,,,,0,0,2.0300123000001804,None,,,,,,,,831,22,M,R,2026-02-23_12h01.00.730,VisualSearch_2526_3,,2025.2.4,2026-02-23 12h01.01.015900 +0100,
tilted.xlsx,The target is tilted.,117,78,6,9,0,1,1,1,0,0,0,0,0,0,0,0,1,3,4,117,space,3.3232057999998688,None,0,1,0.7553732000001219,None,space,1.6614951999999903,None,0,0,0,0,,,,,9,6,78,6,226.91561189999993,,,,,,,,,,,,,,,,,,,,,226.89988260000018,226.91561189999993,227.4206592999999,227.3996118,227.4039432999998,227.4206592999999,228.18286850000004,,,,,228.18306260000008,228.1983381,228.39873110000008,228.38249429999996,,,,,,,,0,1,0.7553732000001219,None,,,,,,,,831,22,M,R,2026-02-23_12h01.00.730,VisualSearch_2526_3,,2025.2.4,2026-02-23 12h01.01.015900 +0100,
tilted.xlsx,The target is tilted.,117,79,7,9,0,0,0,0,0,0,0,0,0,0,0,0,1,1,1,117,space,3.3232057999998688,None,0,1,0.40845279999984996,None,space,1.6614951999999903,None,0,0,0,0,,,,,9,7,79,7,228.39873110000008,,,,,,,,,,,,,,,,,,,,,228.38328140000021,228.39873110000008,228.9025161999998,228.88253309999982,228.8869155000002,228.9025161999998,229.3161457000001,,,,,229.31635030000007,229.33147610000015,229.53161499999987,229.51599570000008,,,,,,,,0,1,0.40845279999984996,None,,,,,,,,831,22,M,R,2026-02-23_12h01.00.730,VisualSearch_2526_3,,2025.2.4,2026-02-23 12h01.01.015900 +0100,
tilted.xlsx,The target is tilted.,117,80,0,10,0,1,1,1,0,0,0,0,0,0,0,0,1,3,4,117,space,3.3232057999998688,None,0,1,0.7924404000000322,None,space,1.6614951999999903,None,0,0,0,0,,,,,10,0,80,6,229.53161499999987,,,,,,,,,,,,,,,,,,,,,229.5167931000001,229.53161499999987,230.03822850000006,230.0158421000001,230.02071710000018,230.03822850000006,230.83283340000025,,,,,230.83302830000002,230.84774719999996,231.04822220000005,231.03102940000008,,,,,,,,0,1,0.7924404000000322,None,,,,,,,,831,22,M,R,2026-02-23_12h01.00.730,VisualSearch_2526_3,,2025.2.4,2026-02-23 12h01.01.015900 +0100,
tilted.xlsx,The target is tilted.,117,81,1,10,1,1,1,1,1,1,1,1,1,1,1,1,0,11,12,117,space,3.3232057999998688,None,1,1,0.9906999999998334,None,space,1.6614951999999903,None,0,0,0,0,,,,,10,1,81,0,231.04822220000005,,,,,,,,,,,,,,,,,,,,,231.03128749999996,231.04822220000005,231.55153000000018,231.53173939999988,231.53618180000012,231.55153000000018,232.5491293,,,,,232.54932139999983,232.56427059999987,232.76478150000003,232.7486245,,,,,,,,1,1,0.9906999999998334,None,,,,,,,,831,22,M,R,2026-02-23_12h01.00.730,VisualSearch_2526_3,,2025.2.4,2026-02-23 12h01.01.015900 +0100,
tilted.xlsx,The target is tilted.,117,82,2,10,0,0,0,0,0,0,0,0,0,0,0,0,1,1,1,117,space,3.3232057999998688,None,0,1,0.7651049999999486,None,space,1.6614951999999903,None,0,0,0,0,,,,,10,2,82,7,232.76478150000003,,,,,,,,,,,,,,,,,,,,,232.74933439999995,232.76478150000003,233.2680905000002,233.2485845000001,233.25296470000012,233.2680905000002,234.04793329999984,,,,,234.0480676000002,234.06396640000003,234.26407640000025,234.24777360000007,,,,,,,,0,1,0.7651049999999486,None,,,,,,,,831,22,M,R,2026-02-23_12h01.00.730,VisualSearch_2526_3,,2025.2.4,2026-02-23 12h01.01.015900 +0100,
tilted.xlsx,The target is tilted.,117,83,3,10,0,1,1,1,1,1,1,1,1,1,1,1,1,11,12,117,space,3.3232057999998688,None,1,0,2.4048689000001104,None,space,1.6614951999999903,None,0,0,0,0,,,,,10,3,83,4,234.26407640000025,,,,,,,,,,,,,,,,,,,,,234.24842990000025,234.26407640000025,234.76376429999982,234.74833160000026,234.75308369999993,234.76376429999982,237.18099170000005,,,,,237.1811501000002,237.1966124999999,237.39713140000003,237.3807823000002,,,,,,,,1,0,2.4048689000001104,None,,,,,,,,831,22,M,R,2026-02-23_12h01.00.730,VisualSearch_2526_3,,2025.2.4,2026-02-23 12h01.01.015900 +0100,
tilted.xlsx,The target is tilted.,117,84,4,10,1,0,0,0,0,0,0,0,0,0,0,0,0,0,1,117,space,3.3232057999998688,None,0,0,0.6631517999999232,None,space,1.6614951999999903,None,0,0,0,0,,,,,10,4,84,3,237.39713140000003,,,,,,,,,,,,,,,,,,,,,237.38150300000007,237.39713140000003,237.90166279999994,237.88068500000008,237.88512609999998,237.90166279999994,238.58044759999984,,,,,238.58055319999994,238.59703510000008,238.79710090000026,238.78053499999987,,,,,,,,0,0,0.6631517999999232,None,,,,,,,,831,22,M,R,2026-02-23_12h01.00.730,VisualSearch_2526_3,,2025.2.4,2026-02-23 12h01.01.015900 +0100,
tilted.xlsx,The target is tilted.,117,85,5,10,0,1,1,1,1,1,1,1,0,0,0,0,1,7,8,117,space,3.3232057999998688,None,1,0,1.5576062000000093,None,space,1.6614951999999903,None,0,0,0,0,,,,,10,5,85,5,238.79710090000026,,,,,,,,,,,,,,,,,,,,,238.7812512999999,238.79710090000026,239.30202450000024,239.2807840999999,239.28574609999987,239.30202450000024,240.86403299999984,,,,,240.86420670000007,240.87995910000018,241.0797851000002,241.0637455000001,,,,,,,,1,0,1.5576062000000093,None,,,,,,,,831,22,M,R,2026-02-23_12h01.00.730,VisualSearch_2526_3,,2025.2.4,2026-02-23 12h01.01.015900 +0100,
tilted.xlsx,The target is tilted.,117,86,6,10,1,1,1,1,0,0,0,0,0,0,0,0,0,3,4,117,space,3.3232057999998688,None,0,0,0.7898328999999649,None,space,1.6614951999999903,None,0,0,0,0,,,,,10,6,86,2,241.0797851000002,,,,,,,,,,,,,,,,,,,,,241.0644674,241.0797851000002,241.5833189,241.56385929999988,241.56829000000016,241.5833189,242.38021819999994,,,,,242.38032550000025,242.39640520000012,242.5965624999999,242.58049329999994,,,,,,,,0,0,0.7898328999999649,None,,,,,,,,831,22,M,R,2026-02-23_12h01.00.730,VisualSearch_2526_3,,2025.2.4,2026-02-23 12h01.01.015900 +0100,
tilted.xlsx,The target is tilted.,117,87,7,10,1,1,1,1,1,1,1,1,0,0,0,0,0,7,8,117,space,3.3232057999998688,None,1,1,0.778017699999964,None,space,1.6614951999999903,None,0,0,0,0,,,,,10,7,87,1,242.5965624999999,,,,,,,,,,,,,,,,,,,,,242.58123160000014,242.5965624999999,243.10159340000018,243.08034550000002,243.08535560000018,243.10159340000018,243.8807393000002,,,,,243.8809639000001,243.89580260000002,244.09621819999984,244.07990050000035,,,,,,,,1,1,0.778017699999964,None,,,,,,,,831,22,M,R,2026-02-23_12h01.00.730,VisualSearch_2526_3,,2025.2.4,2026-02-23 12h01.01.015900 +0100,
tilted.xlsx,The target is tilted.,117,88,0,11,1,0,0,0,0,0,0,0,0,0,0,0,0,0,1,117,space,3.3232057999998688,None,0,0,0.598764299999857,None,space,1.6614951999999903,None,0,0,0,0,,,,,11,0,88,3,244.09621819999984,,,,,,,,,,,,,,,,,,,,,244.0806504999996,244.09621819999984,244.59596079999983,244.57904120000012,244.58125830000017,244.59596079999983,245.19693059999963,,,,,245.19710350000014,245.21256920000042,245.4125514000002,245.39647900000045,,,,,,,,0,0,0.598764299999857,None,,,,,,,,831,22,M,R,2026-02-23_12h01.00.730,VisualSearch_2526_3,,2025.2.4,2026-02-23 12h01.01.015900 +0100,
tilted.xlsx,The target is tilted.,117,89,1,11,0,0,0,0,0,0,0,0,0,0,0,0,1,1,1,117,space,3.3232057999998688,None,0,1,0.593349799999487,None,space,1.6614951999999903,None,0,0,0,0,,,,,11,1,89,7,245.4125514000002,,,,,,,,,,,,,,,,,,,,,245.39725820000012,245.4125514000002,245.91869420000012,245.89665639999976,245.90167410000004,245.91869420000012,246.51324020000038,,,,,246.51343450000013,246.52902550000044,246.728611,246.71253120000029,,,,,,,,0,1,0.593349799999487,None,,,,,,,,831,22,M,R,2026-02-23_12h01.00.730,VisualSearch_2526_3,,2025.2.4,2026-02-23 12h01.01.015900 +0100,
tilted.xlsx,The target is tilted.,117,90,2,11,0,1,1,1,1,1,1,1,1,1,1,1,1,11,12,117,space,3.3232057999998688,None,1,0,0.7726379000005181,None,space,1.6614951999999903,None,0,0,0,0,,,,,11,2,90,4,246.728611,,,,,,,,,,,,,,,,,,,,,246.71302309999965,246.728611,247.23446439999998,247.21271639999986,247.21797540000034,247.23446439999998,248.01299640000025,,,,,248.01318670000046,248.0284829999996,248.22877180000023,248.21197689999963,,,,,,,,1,0,0.7726379000005181,None,,,,,,,,831,22,M,R,2026-02-23_12h01.00.730,VisualSearch_2526_3,,2025.2.4,2026-02-23 12h01.01.015900 +0100,
tilted.xlsx,The target is tilted.,117,91,3,11,1,1,1,1,1,1,1,1,0,0,0,0,0,7,8,117,space,3.3232057999998688,None,1,1,1.172199399999954,None,space,1.6614951999999903,None,0,0,0,0,,,,,11,3,91,1,248.22877180000023,,,,,,,,,,,,,,,,,,,,,248.21232480000026,248.22877180000023,248.7349304000004,248.71275019999985,248.7176903000004,248.7349304000004,249.91281670000035,,,,,249.9130081999997,249.92841850000013,250.12857420000046,250.11235609999994,,,,,,,,1,1,1.172199399999954,None,,,,,,,,831,22,M,R,2026-02-23_12h01.00.730,VisualSearch_2526_3,,2025.2.4,2026-02-23 12h01.01.015900 +0100,
tilted.xlsx,The target is tilted.,117,92,4,11,1,1,1,1,1,1,1,1,1,1,1,1,0,11,12,117,space,3.3232057999998688,None,1,1,0.5903040000002875,None,space,1.6614951999999903,None,0,0,0,0,,,,,11,4,92,0,250.12857420000046,,,,,,,,,,,,,,,,,,,,,250.11311049999995,250.12857420000046,250.62772059999998,250.61138319999964,250.61371399999962,250.62772059999998,251.22847140000022,,,,,251.2286097000001,251.24436819999983,251.44505270000036,251.42857030000005,,,,,,,,1,1,0.5903040000002875,None,,,,,,,,831,22,M,R,2026-02-23_12h01.00.730,VisualSearch_2526_3,,2025.2.4,2026-02-23 12h01.01.015900 +0100,
tilted.xlsx,The target is tilted.,117,93,5,11,1,1,1,1,0,0,0,0,0,0,0,0,0,3,4,117,space,3.3232057999998688,None,0,0,1.036747699999978,None,space,1.6614951999999903,None,0,0,0,0,,,,,11,5,93,2,251.44505270000036,,,,,,,,,,,,,,,,,,,,,251.42938269999968,251.44505270000036,,251.9287829,251.93389799999977,251.95318069999985,252.9948849999996,,,,,252.99498110000013,253.01115020000043,253.21094800000037,253.19525920000024,,,,,,,,0,0,1.036747699999978,None,,,,,,,,831,22,M,R,2026-02-23_12h01.00.730,VisualSearch_2526_3,,2025.2.4,2026-02-23 12h01.01.015900 +0100,
tilted.xlsx,The target is tilted.,117,94,6,11,0,1,1,1,0,0,0,0,0,0,0,0,1,3,4,117,space,3.3232057999998688,None,0,1,0.8828141000003598,None,space,1.6614951999999903,None,0,0,0,0,,,,,11,6,94,6,253.21094800000037,,,,,,,,,,,,,,,,,,,,,253.1959984,253.21094800000037,253.71867780000002,253.69526730000007,253.70019060000004,253.71867780000002,254.61217299999998,,,,,254.6123634999999,254.62767060000033,254.82782819999966,254.81153089999998,,,,,,,,0,1,0.8828141000003598,None,,,,,,,,831,22,M,R,2026-02-23_12h01.00.730,VisualSearch_2526_3,,2025.2.4,2026-02-23 12h01.01.015900 +0100,
tilted.xlsx,The target is tilted.,117,95,7,11,0,1,1,1,1,1,1,1,0,0,0,0,1,7,8,117,space,3.3232057999998688,None,1,0,1.1412084000003233,None,space,1.6614951999999903,None,0,0,0,0,,,,,11,7,95,5,254.82782819999966,,,,,,,,,,,,,,,,,,,,,254.8122873999996,254.82782819999966,255.33037360000026,255.3114725999999,255.31624909999982,255.33037360000026,256.4785489000001,,,,,256.4787403000005,256.49374209999996,256.6940937000004,256.6779067000002,,,,,,,,1,0,1.1412084000003233,None,,,,,,,,831,22,M,R,2026-02-23_12h01.00.730,VisualSearch_2526_3,,2025.2.4,2026-02-23 12h01.01.015900 +0100,
tilted.xlsx,The target is tilted.,117,96,0,12,0,1,1,1,0,0,0,0,0,0,0,0,1,3,4,117,space,3.3232057999998688,None,0,1,0.72553919999973,None,space,1.6614951999999903,None,0,0,0,0,,,,,12,0,96,6,256.6940937000004,,,,,,,,,,,,,,,,,,,,,256.6786718999997,256.6940937000004,257.1994055,257.1779773000003,257.1824075999998,257.1994055,257.92830040000035,,,,,257.9284738000001,257.94377550000036,258.14350140000033,258.1279271999997,,,,,,,,0,1,0.72553919999973,None,,,,,,,,831,22,M,R,2026-02-23_12h01.00.730,VisualSearch_2526_3,,2025.2.4,2026-02-23 12h01.01.015900 +0100,
tilted.xlsx,The target is tilted.,117,97,1,12,1,1,1,1,1,1,1,1,0,0,0,0,0,7,8,117,space,3.3232057999998688,None,1,1,1.182329700000082,None,space,1.6614951999999903,None,0,0,0,0,,,,,12,1,97,1,258.14350140000033,,,,,,,,,,,,,,,,,,,,,258.1287618000001,258.14350140000033,258.64976140000044,258.6278895999999,258.6328451000004,258.64976140000044,259.8440306999996,,,,,259.8441809000001,259.85990530000026,260.06004259999963,260.0440534000004,,,,,,,,1,1,1.182329700000082,None,,,,,,,,831,22,M,R,2026-02-23_12h01.00.730,VisualSearch_2526_3,,2025.2.4,2026-02-23 12h01.01.015900 +0100,
tilted.xlsx,The target is tilted.,117,98,2,12,1,0,0,0,0,0,0,0,0,0,0,0,0,0,1,117,space,3.3232057999998688,None,0,0,0.5425012999994578,None,space,1.6614951999999903,None,0,0,0,0,,,,,12,2,98,3,260.06004259999963,,,,,,,,,,,,,,,,,,,,,260.0447860999998,260.06004259999963,260.56523100000004,260.544136,260.5490456000002,260.56523100000004,261.1110150999998,,,,,261.1112108000002,261.1263173000002,261.3262031999998,261.30980880000016,,,,,,,,0,0,0.5425012999994578,None,,,,,,,,831,22,M,R,2026-02-23_12h01.00.730,VisualSearch_2526_3,,2025.2.4,2026-02-23 12h01.01.015900 +0100,
tilted.xlsx,The target is tilted.,117,99,3,12,0,0,0,0,0,0,0,0,0,0,0,0,1,1,1,117,space,3.3232057999998688,None,0,1,0.5763397000000623,None,space,1.6614951999999903,None,0,0,0,0,,,,,12,3,99,7,261.3262031999998,,,,,,,,,,,,,,,,,,,,,261.31007569999974,261.3262031999998,261.83131040000035,261.81053850000035,261.8150993000004,261.83131040000035,262.4111577999997,,,,,262.4113804000003,262.42634560000033,262.62596689999964,262.60974250000027,,,,,,,,0,1,0.5763397000000623,None,,,,,,,,831,22,M,R,2026-02-23_12h01.00.730,VisualSearch_2526_3,,2025.2.4,2026-02-23 12h01.01.015900 +0100,
tilted.xlsx,The target is tilted.,117,100,4,12,0,1,1,1,1,1,1,1,1,1,1,1,1,11,12,117,space,3.3232057999998688,None,1,0,0.5610507999999754,None,space,1.6614951999999903,None,0,0,0,0,,,,,12,4,100,4,262.62596689999964,,,,,,,,,,,,,,,,,,,,,262.61039949999986,262.62596689999964,263.13230369999974,263.11028730000044,263.1145915000002,263.13230369999974,263.71048070000006,,,,,263.7106753000003,263.7263146999999,263.9259020000004,263.91015990000005,,,,,,,,1,0,0.5610507999999754,None,,,,,,,,831,22,M,R,2026-02-23_12h01.00.730,VisualSearch_2526_3,,2025.2.4,2026-02-23 12h01.01.015900 +0100,
tilted.xlsx,The target is tilted.,117,101,5,12,1,1,1,1,0,0,0,0,0,0,0,0,0,3,4,117,space,3.3232057999998688,None,0,0,0.6230694000005315,None,space,1.6614951999999903,None,0,0,0,0,,,,,12,5,101,2,263.9259020000004,,,,,,,,,,,,,,,,,,,,,263.9110003999999,263.9259020000004,264.43306210000037,264.4102705,264.41542700000036,264.43306210000037,265.06021590000046,,,,,265.0604091,265.0757215999997,265.27565619999996,265.2596029000001,,,,,,,,0,0,0.6230694000005315,None,,,,,,,,831,22,M,R,2026-02-23_12h01.00.730,VisualSearch_2526_3,,2025.2.4,2026-02-23 12h01.01.015900 +0100,
tilted.xlsx,The target is tilted.,117,102,6,12,1,1,1,1,1,1,1,1,1,1,1,1,0,11,12,117,space,3.3232057999998688,None,1,1,1.603763600000093,None,space,1.6614951999999903,None,0,0,0,0,,,,,12,6,102,0,265.27565619999996,,,,,,,,,,,,,,,,,,,,,265.2603915000004,265.27565619999996,265.7805395999999,265.76003100000025,265.76502709999977,265.7805395999999,267.39331600000014,,,,,267.39350220000006,267.40886830000045,267.6087757,267.5924779000002,,,,,,,,1,1,1.603763600000093,None,,,,,,,,831,22,M,R,2026-02-23_12h01.00.730,VisualSearch_2526_3,,2025.2.4,2026-02-23 12h01.01.015900 +0100,
tilted.xlsx,The target is tilted.,117,103,7,12,0,1,1,1,1,1,1,1,0,0,0,0,1,7,8,117,space,3.3232057999998688,None,1,0,0.8349775999995472,None,space,1.6614951999999903,None,0,0,0,0,,,,,12,7,103,5,267.6087757,,,,,,,,,,,,,,,,,,,,,267.59331390000034,267.6087757,268.1121108000002,268.09243449999985,268.0968343999998,268.1121108000002,268.9597940999997,,,,,268.9599739999999,268.9754146,269.1750434999999,269.15881469999977,,,,,,,,1,0,0.8349775999995472,None,,,,,,,,831,22,M,R,2026-02-23_12h01.00.730,VisualSearch_2526_3,,2025.2.4,2026-02-23 12h01.01.015900 +0100,
tilted.xlsx,The target is tilted.,117,104,0,13,0,1,1,1,1,1,1,1,0,0,0,0,1,7,8,117,space,3.3232057999998688,None,1,0,1.053715000000011,None,space,1.6614951999999903,None,0,0,0,0,,,,,13,0,104,5,269.1750434999999,,,,,,,,,,,,,,,,,,,,,269.1594915999999,269.1750434999999,269.67949799999997,269.6587929000002,269.6635124999998,269.67949799999997,270.74273159999984,,,,,270.7429339000005,270.7580425000001,270.9584847000001,270.94223029999966,,,,,,,,1,0,1.053715000000011,None,,,,,,,,831,22,M,R,2026-02-23_12h01.00.730,VisualSearch_2526_3,,2025.2.4,2026-02-23 12h01.01.015900 +0100,
tilted.xlsx,The target is tilted.,117,105,1,13,0,1,1,1,1,1,1,1,1,1,1,1,1,11,12,117,space,3.3232057999998688,None,0,1,2.087283699999716,None,space,1.6614951999999903,None,0,0,0,0,,,,,13,1,105,4,270.9584847000001,,,,,,,,,,,,,,,,,,,,,270.94303379999974,270.9584847000001,271.46357709999984,271.4421631,271.4466632999997,271.46357709999984,273.55884190000006,,,,,273.5590182000001,273.5746567000001,273.77460310000015,273.7584370999998,,,,,,,,0,1,2.087283699999716,None,,,,,,,,831,22,M,R,2026-02-23_12h01.00.730,VisualSearch_2526_3,,2025.2.4,2026-02-23 12h01.01.015900 +0100,
tilted.xlsx,The target is tilted.,117,106,2,13,1,1,1,1,0,0,0,0,0,0,0,0,0,3,4,117,space,3.3232057999998688,None,0,0,0.5242385000001377,None,space,1.6614951999999903,None,0,0,0,0,,,,,13,2,106,2,273.77460310000015,,,,,,,,,,,,,,,,,,,,,273.7591986000002,273.77460310000015,274.27445880000005,274.2577862000003,274.2615251000002,274.27445880000005,274.8088266999998,,,,,274.80901909999966,274.82431849999966,275.0244727000004,275.00840990000006,,,,,,,,0,0,0.5242385000001377,None,,,,,,,,831,22,M,R,2026-02-23_12h01.00.730,VisualSearch_2526_3,,2025.2.4,2026-02-23 12h01.01.015900 +0100,
tilted.xlsx,The target is tilted.,117,107,3,13,1,1,1,1,1,1,1,1,0,0,0,0,0,7,8,117,space,3.3232057999998688,None,1,1,0.7449563999998645,None,space,1.6614951999999903,None,0,0,0,0,,,,,13,3,107,1,275.0244727000004,,,,,,,,,,,,,,,,,,,,,275.00922579999997,275.0244727000004,275.53049039999996,275.5084413999998,275.5136134999998,275.53049039999996,276.2912534000002,,,,,276.29135890000043,276.30743740000025,276.50757290000047,276.4912812999996,,,,,,,,1,1,0.7449563999998645,None,,,,,,,,831,22,M,R,2026-02-23_12h01.00.730,VisualSearch_2526_3,,2025.2.4,2026-02-23 12h01.01.015900 +0100,
tilted.xlsx,The target is tilted.,117,108,4,13,0,0,0,0,0,0,0,0,0,0,0,0,1,1,1,117,space,3.3232057999998688,None,0,1,0.6113875999999436,None,space,1.6614951999999903,None,0,0,0,0,,,,,13,4,108,7,276.50757290000047,,,,,,,,,,,,,,,,,,,,,276.4921024,276.50757290000047,277.0118631,276.99107870000034,276.99612149999984,277.0118631,277.62493049999966,,,,,277.6251279000003,277.6405872,277.8402309999997,277.8241315,,,,,,,,0,1,0.6113875999999436,None,,,,,,,,831,22,M,R,2026-02-23_12h01.00.730,VisualSearch_2526_3,,2025.2.4,2026-02-23 12h01.01.015900 +0100,
tilted.xlsx,The target is tilted.,117,109,5,13,1,1,1,1,1,1,1,1,1,1,1,1,0,11,12,117,space,3.3232057999998688,None,1,1,1.0674521999999342,None,space,1.6614951999999903,None,0,0,0,0,,,,,13,5,109,0,277.8402309999997,,,,,,,,,,,,,,,,,,,,,277.8248758000004,277.8402309999997,278.3464049999998,278.3242789000001,278.3294318000003,278.3464049999998,279.42429440000024,,,,,279.42449390000047,279.4398034999999,279.6400298000003,279.6238324000001,,,,,,,,1,1,1.0674521999999342,None,,,,,,,,831,22,M,R,2026-02-23_12h01.00.730,VisualSearch_2526_3,,2025.2.4,2026-02-23 12h01.01.015900 +0100,
tilted.xlsx,The target is tilted.,117,110,6,13,1,0,0,0,0,0,0,0,0,0,0,0,0,0,1,117,space,3.3232057999998688,None,0,0,0.6000119999998788,None,space,1.6614951999999903,None,0,0,0,0,,,,,13,6,110,3,279.6400298000003,,,,,,,,,,,,,,,,,,,,,279.62460109999984,279.6400298000003,280.1485796000002,280.12428299999965,280.1292655000002,280.1485796000002,280.7577919999999,,,,,280.7579846000003,280.77307559999963,280.97338439999976,280.9574869000003,,,,,,,,0,0,0.6000119999998788,None,,,,,,,,831,22,M,R,2026-02-23_12h01.00.730,VisualSearch_2526_3,,2025.2.4,2026-02-23 12h01.01.015900 +0100,
tilted.xlsx,The target is tilted.,117,111,7,13,0,1,1,1,0,0,0,0,0,0,0,0,1,3,4,117,space,3.3232057999998688,None,0,1,0.6945562000000791,None,space,1.6614951999999903,None,0,0,0,0,,,,,13,7,111,6,280.97338439999976,,,,,,,,,,,,,,,,,,,,,280.95822050000015,280.97338439999976,281.4787588000004,281.45735000000013,281.4622823000004,281.4787588000004,282.1743289000001,,,,,282.1745219999998,282.18956300000036,282.3896331000001,282.3732963999996,,,,,,,,0,1,0.6945562000000791,None,,,,,,,,831,22,M,R,2026-02-23_12h01.00.730,VisualSearch_2526_3,,2025.2.4,2026-02-23 12h01.01.015900 +0100,
tilted.xlsx,The target is tilted.,117,112,0,14,0,1,1,1,0,0,0,0,0,0,0,0,1,3,4,117,space,3.3232057999998688,None,0,1,0.7824362000001202,None,space,1.6614951999999903,None,0,0,0,0,,,,,14,0,112,6,282.3896331000001,,,,,,,,,,,,,,,,,,,,,282.3739833000004,282.3896331000001,282.8953644999997,282.8735875999996,282.8781092000004,282.8953644999997,283.6908406999996,,,,,283.69106560000046,283.7062549999996,283.9058492999998,283.8898855000002,,,,,,,,0,1,0.7824362000001202,None,,,,,,,,831,22,M,R,2026-02-23_12h01.00.730,VisualSearch_2526_3,,2025.2.4,2026-02-23 12h01.01.015900 +0100,
tilted.xlsx,The target is tilted.,117,113,1,14,1,1,1,1,1,1,1,1,0,0,0,0,0,7,8,117,space,3.3232057999998688,None,1,1,0.9557469999999739,None,space,1.6614951999999903,None,0,0,0,0,,,,,14,1,113,1,283.9058492999998,,,,,,,,,,,,,,,,,,,,,283.8903611999999,283.9058492999998,284.41350139999986,284.3903102999998,284.39549769999985,284.41350139999986,285.37350490000017,,,,,285.37369629999966,285.38887060000025,285.5894819,285.5732135000003,,,,,,,,1,1,0.9557469999999739,None,,,,,,,,831,22,M,R,2026-02-23_12h01.00.730,VisualSearch_2526_3,,2025.2.4,2026-02-23 12h01.01.015900 +0100,
tilted.xlsx,The target is tilted.,117,114,2,14,1,0,0,0,0,0,0,0,0,0,0,0,0,0,1,117,space,3.3232057999998688,None,0,0,0.7488138999997318,None,space,1.6614951999999903,None,0,0,0,0,,,,,14,2,114,3,285.5894819,,,,,,,,,,,,,,,,,,,,,285.57392779999964,285.5894819,286.0934892999999,286.07297679999965,286.07684800000015,286.0934892999999,286.85612939999965,,,,,286.8562010999999,286.8722603000001,287.07223810000005,287.0559881000004,,,,,,,,0,0,0.7488138999997318,None,,,,,,,,831,22,M,R,2026-02-23_12h01.00.730,VisualSearch_2526_3,,2025.2.4,2026-02-23 12h01.01.015900 +0100,
tilted.xlsx,The target is tilted.,117,115,3,14,1,1,1,1,1,1,1,1,1,1,1,1,0,11,12,117,space,3.3232057999998688,None,1,1,1.1607088000000658,None,space,1.6614951999999903,None,0,0,0,0,,,,,14,3,115,0,287.07223810000005,,,,,,,,,,,,,,,,,,,,,287.0567195999997,287.07223810000005,287.57764890000044,287.5564237000003,287.56136749999996,287.57764890000044,288.7558917000001,,,,,288.7560642000003,288.7720224999998,288.97209260000045,288.9555489999998,,,,,,,,1,1,1.1607088000000658,None,,,,,,,,831,22,M,R,2026-02-23_12h01.00.730,VisualSearch_2526_3,,2025.2.4,2026-02-23 12h01.01.015900 +0100,
tilted.xlsx,The target is tilted.,117,116,4,14,0,0,0,0,0,0,0,0,0,0,0,0,1,1,1,117,space,3.3232057999998688,None,0,1,0.625227200000154,None,space,1.6614951999999903,None,0,0,0,0,,,,,14,4,116,7,288.97209260000045,,,,,,,,,,,,,,,,,,,,,288.95628739999984,288.97209260000045,289.4774873000001,289.45612740000024,289.4610252999996,289.4774873000001,290.1061854000004,,,,,290.1063895000002,290.1218045999999,290.3219273999998,290.30602320000025,,,,,,,,0,1,0.625227200000154,None,,,,,,,,831,22,M,R,2026-02-23_12h01.00.730,VisualSearch_2526_3,,2025.2.4,2026-02-23 12h01.01.015900 +0100,
tilted.xlsx,The target is tilted.,117,117,5,14,1,1,1,1,0,0,0,0,0,0,0,0,0,3,4,117,space,3.3232057999998688,None,0,0,0.6048262000003888,None,space,1.6614951999999903,None,0,0,0,0,,,,,14,5,117,2,290.3219273999998,,,,,,,,,,,,,,,,,,,,,290.3068583999998,290.3219273999998,290.82818460000044,290.80580169999985,290.8108508999999,290.82818460000044,291.43948969999974,,,,,291.4396797000004,291.4547491999997,291.6550752999997,291.63895379999985,,,,,,,,0,0,0.6048262000003888,None,,,,,,,,831,22,M,R,2026-02-23_12h01.00.730,VisualSearch_2526_3,,2025.2.4,2026-02-23 12h01.01.015900 +0100,
tilted.xlsx,The target is tilted.,117,118,6,14,0,1,1,1,1,1,1,1,0,0,0,0,1,7,8,117,space,3.3232057999998688,None,1,0,0.6430833000003986,None,space,1.6614951999999903,None,0,0,0,0,,,,,14,6,118,5,291.6550752999997,,,,,,,,,,,,,,,,,,,,,291.63976800000046,291.6550752999997,292.1630495000004,292.13903979999986,292.14393470000005,292.1630495000004,292.8226329000004,,,,,292.82282669999995,292.8381980999998,293.0382752999999,293.02207060000046,,,,,,,,1,0,0.6430833000003986,None,,,,,,,,831,22,M,R,2026-02-23_12h01.00.730,VisualSearch_2526_3,,2025.2.4,2026-02-23 12h01.01.015900 +0100,
tilted.xlsx,The target is tilted.,117,119,7,14,0,1,1,1,1,1,1,1,1,1,1,1,1,11,12,117,space,3.3232057999998688,None,1,0,0.6159800000004907,None,space,1.6614951999999903,None,0,0,0,0,,,,,14,7,119,4,293.0382752999999,,,,,,,,,,,,,,,,,,,,,293.02289619999965,293.0382752999999,293.5431775000002,293.5219863999996,293.52684929999987,293.5431775000002,294.1719723000001,,,,,294.17210529999966,294.1877814000004,294.40367540000034,294.37182170000005,,,,,,,,1,0,0.6159800000004907,None,,,,,,,,831,22,M,R,2026-02-23_12h01.00.730,VisualSearch_2526_3,,2025.2.4,2026-02-23 12h01.01.015900 +0100,
tilted.xlsx,The target is tilted.,117,0,0,0,,,,,,,,,,,,,,,,,space,3.3232057999998688,None,,,,,space,1.6614951999999903,None,0,0,0,0,,,,,,,,,,,,,,,,,,,,,,,,,,,,,,,,,,,,,,,,,,,,,,,,,,,,,,,,,,,,,,,831,22,M,R,2026-02-23_12h01.00.730,VisualSearch_2526_3,,2025.2.4,2026-02-23 12h01.01.015900 +0100,
vertical.xlsx,The target is tilted.,135,0,0,0,0,0,0,0,0,0,0,0,0,0,0,0,1,1,1,135,space,7.871199300000626,None,0,1,2.5696016999991116,None,,,,0,1,1,1,0,0,0,7,,,,,302.3176159999998,,,,,,,,,,,,,,,294.40367540000034,294.40367540000034,294.40367540000034,space,7.871199300000626,None,302.3132521000002,302.3176159999998,,302.8034617999997,302.8081519000002,302.8244751999996,305.4038883999997,0,1,2.5696016999991116,None,305.4040798000001,305.4192473999997,305.6194022000004,305.60308790000045,,,,,,,,,,,,,,,,,,,831,22,M,R,2026-02-23_12h01.00.730,VisualSearch_2526_3,,2025.2.4,2026-02-23 12h01.01.015900 +0100,
vertical.xlsx,The target is tilted.,135,1,1,0,0,1,1,1,1,1,1,1,0,0,0,0,1,7,8,135,space,7.871199300000626,None,0,1,1.9863134999995964,None,,,,0,1,1,1,0,1,1,5,,,,,305.6194022000004,,,,,,,,,,,,,,,,,,,,,305.6037345,305.6194022000004,306.12387160000026,306.10327860000007,306.1080800000004,306.12387160000026,308.12023610000006,0,1,1.9863134999995964,None,308.12045199999966,308.1356055000001,308.3354757000002,308.3196009999997,,,,,,,,,,,,,,,,,,,831,22,M,R,2026-02-23_12h01.00.730,VisualSearch_2526_3,,2025.2.4,2026-02-23 12h01.01.015900 +0100,
vertical.xlsx,The target is tilted.,135,2,2,0,0,1,1,1,1,1,1,1,1,1,1,1,1,11,12,135,space,7.871199300000626,None,0,1,1.3810332000002745,None,,,,0,1,1,1,0,2,2,4,,,,,308.3354757000002,,,,,,,,,,,,,,,,,,,,,308.3202490999997,308.3354757000002,308.83949299999995,308.8195983999999,308.82461040000044,308.83949299999995,310.23630619999994,0,1,1.3810332000002745,None,310.2364209000002,310.25140500000043,310.4515200999999,310.43555719999995,,,,,,,,,,,,,,,,,,,831,22,M,R,2026-02-23_12h01.00.730,VisualSearch_2526_3,,2025.2.4,2026-02-23 12h01.01.015900 +0100,
vertical.xlsx,The target is tilted.,135,3,3,0,0,1,1,1,0,0,0,0,0,0,0,0,1,3,4,135,space,7.871199300000626,None,0,1,1.0535199999994802,None,,,,0,1,1,1,0,3,3,6,,,,,310.4515200999999,,,,,,,,,,,,,,,,,,,,,310.43621329999996,310.4515200999999,310.9561865999999,310.9359207000002,310.9412242000003,310.9561865999999,312.01910309999994,0,1,1.0535199999994802,None,312.01925359999996,312.0348551000002,312.23504879999973,312.21903470000007,,,,,,,,,,,,,,,,,,,831,22,M,R,2026-02-23_12h01.00.730,VisualSearch_2526_3,,2025.2.4,2026-02-23 12h01.01.015900 +0100,
vertical.xlsx,The target is tilted.,135,4,4,0,1,0,0,0,0,0,0,0,0,0,0,0,0,0,1,135,space,7.871199300000626,None,1,1,0.9842085999998744,None,,,,0,1,1,1,0,4,4,3,,,,,312.23504879999973,,,,,,,,,,,,,,,,,,,,,312.2197849999998,312.23504879999973,312.7407411999998,312.71885260000045,312.72383599999966,312.7407411999998,313.7354258999999,1,1,0.9842085999998744,None,313.7356163999998,313.75121609999997,313.95092369999975,313.93518470000026,,,,,,,,,,,,,,,,,,,831,22,M,R,2026-02-23_12h01.00.730,VisualSearch_2526_3,,2025.2.4,2026-02-23 12h01.01.015900 +0100,
vertical.xlsx,The target is tilted.,135,5,5,0,1,1,1,1,1,1,1,1,0,0,0,0,0,7,8,135,space,7.871199300000626,None,1,1,0.9514892000006512,None,,,,0,1,1,1,0,5,5,1,,,,,313.95092369999975,,,,,,,,,,,,,,,,,,,,,313.9358436999996,313.95092369999975,314.4569448999996,314.43527159999985,314.4403180000004,314.4569448999996,315.4188462999996,1,1,0.9514892000006512,None,315.4190319000004,315.4343052999998,315.6341392999998,315.6184195000001,,,,,,,,,,,,,,,,,,,831,22,M,R,2026-02-23_12h01.00.730,VisualSearch_2526_3,,2025.2.4,2026-02-23 12h01.01.015900 +0100,
vertical.xlsx,The target is tilted.,135,6,6,0,1,1,1,1,0,0,0,0,0,0,0,0,0,3,4,135,space,7.871199300000626,None,0,0,0.9149229000004198,None,,,,0,1,1,1,0,6,6,2,,,,,315.6341392999998,,,,,,,,,,,,,,,,,,,,,315.61916470000006,315.6341392999998,316.1410006000001,316.1183374999996,316.1232740999999,316.1410006000001,317.0686141000001,0,0,0.9149229000004198,None,317.0687995000003,317.0840271000002,317.2838729,317.2681927999997,,,,,,,,,,,,,,,,,,,831,22,M,R,2026-02-23_12h01.00.730,VisualSearch_2526_3,,2025.2.4,2026-02-23 12h01.01.015900 +0100,
vertical.xlsx,The target is tilted.,135,7,7,0,1,1,1,1,1,1,1,1,1,1,1,1,0,11,12,135,space,7.871199300000626,None,1,1,0.5704894000000422,None,,,,0,1,1,1,0,7,7,0,,,,,317.2838729,,,,,,,,,,,,,,,,,,,,,317.26896239999996,317.2838729,317.789577,317.7681201999999,317.77336760000026,317.789577,318.3675798999998,1,1,0.5704894000000422,None,318.3677316999997,318.3833579999996,318.5839208000002,318.56782969999995,,,,,,,,,,,,,,,,,,,831,22,M,R,2026-02-23_12h01.00.730,VisualSearch_2526_3,,2025.2.4,2026-02-23 12h01.01.015900 +0100,
vertical.xlsx,The target is tilted.,135,0,0,0,1,1,1,1,0,0,0,0,0,0,0,0,0,3,4,135,space,7.871199300000626,None,1,1,0.5637155000003986,None,space,2.2858902999996644,None,0,1,1,1,,,,,0,0,0,2,320.90426350000007,,,,,,,,,,,,,,,,,,,,,320.9004485999999,320.90426350000007,,321.40045469999995,321.40542010000036,321.42386899999974,322.00096619999977,,,,,322.00114189999977,322.01672029999963,322.2163727000002,322.2004383999997,318.57527170000003,318.5839208000002,318.5839208000002,320.88464690000046,space,2.2858902999996644,None,1,1,0.5637155000003986,None,,,,,,,,831,22,M,R,2026-02-23_12h01.00.730,VisualSearch_2526_3,,2025.2.4,2026-02-23 12h01.01.015900 +0100,
vertical.xlsx,The target is tilted.,135,1,1,0,1,1,1,1,1,1,1,1,1,1,1,1,0,11,12,135,space,7.871199300000626,None,1,1,0.7719551000000138,None,space,2.2858902999996644,None,0,1,1,1,,,,,0,1,1,0,322.2163727000002,,,,,,,,,,,,,,,,,,,,,322.20126480000044,322.2163727000002,322.7227876000002,322.7001188999998,322.70520689999967,322.7227876000002,323.5008654999997,,,,,323.5010821999999,323.5163355999998,323.7159912000002,323.7004119999997,,,,,,,,1,1,0.7719551000000138,None,,,,,,,,831,22,M,R,2026-02-23_12h01.00.730,VisualSearch_2526_3,,2025.2.4,2026-02-23 12h01.01.015900 +0100,
vertical.xlsx,The target is tilted.,135,2,2,0,1,1,1,1,1,1,1,1,0,0,0,0,0,7,8,135,space,7.871199300000626,None,1,1,1.9272144999995362,None,space,2.2858902999996644,None,0,1,1,1,,,,,0,2,2,1,323.7159912000002,,,,,,,,,,,,,,,,,,,,,323.70121419999987,323.7159912000002,324.22278179999967,324.20039769999994,324.20554440000024,324.22278179999967,326.1668383000001,,,,,326.16699860000017,326.18252450000045,326.3825477000005,326.3664729999996,,,,,,,,1,1,1.9272144999995362,None,,,,,,,,831,22,M,R,2026-02-23_12h01.00.730,VisualSearch_2526_3,,2025.2.4,2026-02-23 12h01.01.015900 +0100,
vertical.xlsx,The target is tilted.,135,3,3,0,0,1,1,1,1,1,1,1,0,0,0,0,1,7,8,135,space,7.871199300000626,None,0,1,1.8662321000001612,None,space,2.2858902999996644,None,0,1,1,1,,,,,0,3,3,5,326.3825477000005,,,,,,,,,,,,,,,,,,,,,326.3671809000002,326.3825477000005,326.8880803999996,326.86640000000034,326.8706838000003,326.8880803999996,328.76653099999976,,,,,328.76671880000004,328.78185749999966,328.98178229999985,328.96615539999993,,,,,,,,0,1,1.8662321000001612,None,,,,,,,,831,22,M,R,2026-02-23_12h01.00.730,VisualSearch_2526_3,,2025.2.4,2026-02-23 12h01.01.015900 +0100,
vertical.xlsx,The target is tilted.,135,4,4,0,0,0,0,0,0,0,0,0,0,0,0,0,1,1,1,135,space,7.871199300000626,None,0,1,0.5335011999995913,None,space,2.2858902999996644,None,0,1,1,1,,,,,0,4,4,7,328.98178229999985,,,,,,,,,,,,,,,,,,,,,328.96686679999993,328.98178229999985,329.4857728000002,329.4659776000003,329.4703145999997,329.4857728000002,330.03312909999977,,,,,330.03332249999994,330.0485567999999,330.2487391999998,330.2326028000002,,,,,,,,0,1,0.5335011999995913,None,,,,,,,,831,22,M,R,2026-02-23_12h01.00.730,VisualSearch_2526_3,,2025.2.4,2026-02-23 12h01.01.015900 +0100,
vertical.xlsx,The target is tilted.,135,5,5,0,1,0,0,0,0,0,0,0,0,0,0,0,0,0,1,135,space,7.871199300000626,None,1,1,0.8691908000000694,None,space,2.2858902999996644,None,0,1,1,1,,,,,0,5,5,3,330.2487391999998,,,,,,,,,,,,,,,,,,,,,330.23341480000045,330.2487391999998,330.7537782000004,330.73249950000036,330.7375423999997,330.7537782000004,331.63263099999995,,,,,331.6328040000003,331.6485276999997,331.8484623999998,331.83234500000026,,,,,,,,1,1,0.8691908000000694,None,,,,,,,,831,22,M,R,2026-02-23_12h01.00.730,VisualSearch_2526_3,,2025.2.4,2026-02-23 12h01.01.015900 +0100,
vertical.xlsx,The target is tilted.,135,6,6,0,0,1,1,1,1,1,1,1,1,1,1,1,1,11,12,135,space,7.871199300000626,None,0,1,2.466557200000352,None,space,2.2858902999996644,None,0,1,1,1,,,,,0,6,6,4,331.8484623999998,,,,,,,,,,,,,,,,,,,,,331.8331591000001,331.8484623999998,332.35350679999965,332.33214290000024,332.3371038999999,332.35350679999965,334.8319225,,,,,334.8321192999997,334.8475321000001,335.0480123000002,335.0318307000002,,,,,,,,0,1,2.466557200000352,None,,,,,,,,831,22,M,R,2026-02-23_12h01.00.730,VisualSearch_2526_3,,2025.2.4,2026-02-23 12h01.01.015900 +0100,
vertical.xlsx,The target is tilted.,135,7,7,0,0,1,1,1,0,0,0,0,0,0,0,0,1,3,4,135,space,7.871199300000626,None,0,1,0.5737303999994765,None,space,2.2858902999996644,None,0,1,1,1,,,,,0,7,7,6,335.0480123000002,,,,,,,,,,,,,,,,,,,,,335.03274699999974,335.0480123000002,335.5522930000002,335.5316273000003,335.5366654000004,335.5522930000002,336.13195680000035,,,,,336.1321567,336.1472005999999,336.3477230000003,336.3314773999996,,,,,,,,0,1,0.5737303999994765,None,,,,,,,,831,22,M,R,2026-02-23_12h01.00.730,VisualSearch_2526_3,,2025.2.4,2026-02-23 12h01.01.015900 +0100,
vertical.xlsx,The target is tilted.,135,8,0,1,1,1,1,1,1,1,1,1,0,0,0,0,0,7,8,135,space,7.871199300000626,None,1,1,0.9462311999996018,None,space,2.2858902999996644,None,0,1,1,1,,,,,1,0,8,1,336.3477230000003,,,,,,,,,,,,,,,,,,,,,336.3323052999999,336.3477230000003,336.85385129999986,336.8313290000001,336.83645079999997,336.85385129999986,337.81573960000014,,,,,337.81594220000034,337.83042909999995,338.03038760000027,338.0146718000001,,,,,,,,1,1,0.9462311999996018,None,,,,,,,,831,22,M,R,2026-02-23_12h01.00.730,VisualSearch_2526_3,,2025.2.4,2026-02-23 12h01.01.015900 +0100,
vertical.xlsx,The target is tilted.,135,9,1,1,1,0,0,0,0,0,0,0,0,0,0,0,0,0,1,135,space,7.871199300000626,None,1,1,0.8081482999996297,None,space,2.2858902999996644,None,0,1,1,1,,,,,1,1,9,3,338.03038760000027,,,,,,,,,,,,,,,,,,,,,338.01549039999963,338.03038760000027,338.5353858000003,338.5145706999997,338.51960590000044,338.5353858000003,339.34798439999986,,,,,339.3481735999999,339.3636941,339.5638492000003,339.54784640000025,,,,,,,,1,1,0.8081482999996297,None,,,,,,,,831,22,M,R,2026-02-23_12h01.00.730,VisualSearch_2526_3,,2025.2.4,2026-02-23 12h01.01.015900 +0100,
vertical.xlsx,The target is tilted.,135,10,2,1,1,1,1,1,0,0,0,0,0,0,0,0,0,3,4,135,space,7.871199300000626,None,1,1,0.5416565999994418,None,space,2.2858902999996644,None,0,1,1,1,,,,,1,2,10,2,339.5638492000003,,,,,,,,,,,,,,,,,,,,,339.5486662999997,339.5638492000003,340.06953010000007,340.04772060000005,340.05269629999975,340.06953010000007,340.61450300000024,,,,,340.6146939000005,340.63011140000026,340.8298157000004,340.81366670000034,,,,,,,,1,1,0.5416565999994418,None,,,,,,,,831,22,M,R,2026-02-23_12h01.00.730,VisualSearch_2526_3,,2025.2.4,2026-02-23 12h01.01.015900 +0100,
vertical.xlsx,The target is tilted.,135,11,3,1,0,0,0,0,0,0,0,0,0,0,0,0,1,1,1,135,space,7.871199300000626,None,0,1,0.6542923999995764,None,space,2.2858902999996644,None,0,1,1,1,,,,,1,3,11,7,340.8298157000004,,,,,,,,,,,,,,,,,,,,,340.8144263999998,340.8298157000004,341.33629129999963,341.3141360000004,341.3192475000001,341.33629129999963,341.9977845999997,,,,,341.9979734000003,342.01323209999964,342.2134245000002,342.1973761000004,,,,,,,,0,1,0.6542923999995764,None,,,,,,,,831,22,M,R,2026-02-23_12h01.00.730,VisualSearch_2526_3,,2025.2.4,2026-02-23 12h01.01.015900 +0100,
vertical.xlsx,The target is tilted.,135,12,4,1,0,1,1,1,1,1,1,1,0,0,0,0,1,7,8,135,space,7.871199300000626,None,0,1,1.5865888999996969,None,space,2.2858902999996644,None,0,1,1,1,,,,,1,4,12,5,342.2134245000002,,,,,,,,,,,,,,,,,,,,,342.1981668000003,342.2134245000002,342.7188342000004,342.6972816000002,342.7022229999998,342.7188342000004,344.3141268000004,,,,,344.3143170999997,344.3295836000002,344.52977299999975,344.5134277000002,,,,,,,,0,1,1.5865888999996969,None,,,,,,,,831,22,M,R,2026-02-23_12h01.00.730,VisualSearch_2526_3,,2025.2.4,2026-02-23 12h01.01.015900 +0100,
vertical.xlsx,The target is tilted.,135,13,5,1,1,1,1,1,1,1,1,1,1,1,1,1,0,11,12,135,space,7.871199300000626,None,1,1,0.6957406000001356,None,space,2.2858902999996644,None,0,1,1,1,,,,,1,5,13,0,344.52977299999975,,,,,,,,,,,,,,,,,,,,,344.514173,344.52977299999975,345.03624230000014,345.0135234000004,345.01855190000015,345.03624230000014,345.7468580999998,,,,,345.7470543000004,345.76275289999967,345.9627581999998,345.9466974000002,,,,,,,,1,1,0.6957406000001356,None,,,,,,,,831,22,M,R,2026-02-23_12h01.00.730,VisualSearch_2526_3,,2025.2.4,2026-02-23 12h01.01.015900 +0100,
vertical.xlsx,The target is tilted.,135,14,6,1,0,1,1,1,1,1,1,1,1,1,1,1,1,11,12,135,space,7.871199300000626,None,0,1,1.8994728000006944,None,space,2.2858902999996644,None,0,1,1,1,,,,,1,6,14,4,345.9627581999998,,,,,,,,,,,,,,,,,,,,,345.9474946000005,345.9627581999998,346.4688136,346.44661659999974,346.4516374,346.4688136,348.37904500000013,,,,,348.37914649999993,348.3949692000001,348.5956417000002,348.5794069999997,,,,,,,,0,1,1.8994728000006944,None,,,,,,,,831,22,M,R,2026-02-23_12h01.00.730,VisualSearch_2526_3,,2025.2.4,2026-02-23 12h01.01.015900 +0100,
vertical.xlsx,The target is tilted.,135,15,7,1,0,1,1,1,0,0,0,0,0,0,0,0,1,3,4,135,space,7.871199300000626,None,0,1,0.7042547000000923,None,space,2.2858902999996644,None,0,1,1,1,,,,,1,7,15,6,348.5956417000002,,,,,,,,,,,,,,,,,,,,,348.58016590000034,348.5956417000002,,349.07927299999983,349.08426610000015,349.1019977000001,349.81317739999986,,,,,349.81336839999994,349.8286801999998,350.0288819000002,350.0126819000002,,,,,,,,0,1,0.7042547000000923,None,,,,,,,,831,22,M,R,2026-02-23_12h01.00.730,VisualSearch_2526_3,,2025.2.4,2026-02-23 12h01.01.015900 +0100,
vertical.xlsx,The target is tilted.,135,16,0,2,1,0,0,0,0,0,0,0,0,0,0,0,0,0,1,135,space,7.871199300000626,None,1,1,0.6081936999999016,None,space,2.2858902999996644,None,0,1,1,1,,,,,2,0,16,3,350.0288819000002,,,,,,,,,,,,,,,,,,,,,350.01348579999967,350.0288819000002,350.52802010000005,350.5121218999998,350.5150841999998,350.52802010000005,351.14621229999966,,,,,351.14649059999965,351.16167019999966,351.36184809999986,351.34585149999975,,,,,,,,1,1,0.6081936999999016,None,,,,,,,,831,22,M,R,2026-02-23_12h01.00.730,VisualSearch_2526_3,,2025.2.4,2026-02-23 12h01.01.015900 +0100,
vertical.xlsx,The target is tilted.,135,17,1,2,0,1,1,1,1,1,1,1,0,0,0,0,1,7,8,135,space,7.871199300000626,None,0,1,0.7663277999999991,None,space,2.2858902999996644,None,0,1,1,1,,,,,2,1,17,5,351.36184809999986,,,,,,,,,,,,,,,,,,,,,351.3466782999999,351.36184809999986,351.86828060000016,351.8457252000003,351.8506674000005,351.86828060000016,352.6460737000002,,,,,352.6462736999997,352.66138809999984,352.8611471999998,352.8450380999998,,,,,,,,0,1,0.7663277999999991,None,,,,,,,,831,22,M,R,2026-02-23_12h01.00.730,VisualSearch_2526_3,,2025.2.4,2026-02-23 12h01.01.015900 +0100,
vertical.xlsx,The target is tilted.,135,18,2,2,1,1,1,1,0,0,0,0,0,0,0,0,0,3,4,135,space,7.871199300000626,None,1,1,0.546144799999638,None,space,2.2858902999996644,None,0,1,1,1,,,,,2,2,18,2,352.8611471999998,,,,,,,,,,,,,,,,,,,,,352.84578869999996,352.8611471999998,353.3658599000005,353.3451779000002,353.34941279999975,353.3658599000005,353.9284510000002,,,,,353.9286336,353.94428519999974,354.14445430000023,354.1287827000001,,,,,,,,1,1,0.546144799999638,None,,,,,,,,831,22,M,R,2026-02-23_12h01.00.730,VisualSearch_2526_3,,2025.2.4,2026-02-23 12h01.01.015900 +0100,
vertical.xlsx,The target is tilted.,135,19,3,2,1,1,1,1,1,1,1,1,1,1,1,1,0,11,12,135,space,7.871199300000626,None,1,1,1.2446623000005275,None,space,2.2858902999996644,None,0,1,1,1,,,,,2,3,19,0,354.14445430000023,,,,,,,,,,,,,,,,,,,,,354.1295898000003,354.14445430000023,354.6507104999996,354.6287133999999,354.63359439999977,354.6507104999996,355.91168830000015,,,,,355.91189780000013,355.9277764000003,356.1273563,356.1111397999998,,,,,,,,1,1,1.2446623000005275,None,,,,,,,,831,22,M,R,2026-02-23_12h01.00.730,VisualSearch_2526_3,,2025.2.4,2026-02-23 12h01.01.015900 +0100,
vertical.xlsx,The target is tilted.,135,20,4,2,0,0,0,0,0,0,0,0,0,0,0,0,1,1,1,135,space,7.871199300000626,None,0,1,0.5652106999996249,None,space,2.2858902999996644,None,0,1,1,1,,,,,2,4,20,7,356.1273563,,,,,,,,,,,,,,,,,,,,,356.1118935999998,356.1273563,356.6332980000002,356.6112870000002,356.6162982999999,356.6332980000002,357.2109383000002,,,,,357.21101099999987,357.2271661,357.4275682000002,357.41128140000046,,,,,,,,0,1,0.5652106999996249,None,,,,,,,,831,22,M,R,2026-02-23_12h01.00.730,VisualSearch_2526_3,,2025.2.4,2026-02-23 12h01.01.015900 +0100,
vertical.xlsx,The target is tilted.,135,21,5,2,0,1,1,1,1,1,1,1,1,1,1,1,1,11,12,135,space,7.871199300000626,None,0,1,1.3046054000005824,None,space,2.2858902999996644,None,0,1,1,1,,,,,2,5,21,4,357.4275682000002,,,,,,,,,,,,,,,,,,,,,357.4122401999998,357.4275682000002,357.9337211999996,357.9113929,357.91631650000045,357.9337211999996,359.2445382000001,,,,,359.2447139000001,359.2600354000001,359.46037620000016,359.444344,,,,,,,,0,1,1.3046054000005824,None,,,,,,,,831,22,M,R,2026-02-23_12h01.00.730,VisualSearch_2526_3,,2025.2.4,2026-02-23 12h01.01.015900 +0100,
vertical.xlsx,The target is tilted.,135,22,6,2,0,1,1,1,0,0,0,0,0,0,0,0,1,3,4,135,space,7.871199300000626,None,0,1,0.9563594000001103,None,space,2.2858902999996644,None,0,1,1,1,,,,,2,6,22,6,359.46037620000016,,,,,,,,,,,,,,,,,,,,,359.44508650000034,359.46037620000016,359.9598239000002,359.94361439999966,359.94645770000034,359.9598239000002,360.9285224,,,,,360.9287148999997,360.94343549999985,361.14346650000016,361.1274704000002,,,,,,,,0,1,0.9563594000001103,None,,,,,,,,831,22,M,R,2026-02-23_12h01.00.730,VisualSearch_2526_3,,2025.2.4,2026-02-23 12h01.01.015900 +0100,
vertical.xlsx,The target is tilted.,135,23,7,2,1,1,1,1,1,1,1,1,0,0,0,0,0,7,8,135,space,7.871199300000626,None,0,0,0.6480246999999508,None,space,2.2858902999996644,None,0,1,1,1,,,,,2,7,23,1,361.14346650000016,,,,,,,,,,,,,,,,,,,,,361.1281786000004,361.14346650000016,361.6475320000004,361.62702990000025,361.6313498000004,361.6475320000004,362.3109378000004,,,,,362.31111139999985,362.3266206000003,362.52673579999964,362.51062709999997,,,,,,,,0,0,0.6480246999999508,None,,,,,,,,831,22,M,R,2026-02-23_12h01.00.730,VisualSearch_2526_3,,2025.2.4,2026-02-23 12h01.01.015900 +0100,
vertical.xlsx,The target is tilted.,135,24,0,3,1,0,0,0,0,0,0,0,0,0,0,0,0,0,1,135,space,7.871199300000626,None,1,1,0.5973978000001807,None,space,2.2858902999996644,None,0,1,1,1,,,,,3,0,24,3,362.52673579999964,,,,,,,,,,,,,,,,,,,,,362.51147790000005,362.52673579999964,363.0325846999999,363.0103488,363.0152922000002,363.0325846999999,363.6441912000005,,,,,363.64438720000044,363.6596611,363.8598899000003,363.8435641000001,,,,,,,,1,1,0.5973978000001807,None,,,,,,,,831,22,M,R,2026-02-23_12h01.00.730,VisualSearch_2526_3,,2025.2.4,2026-02-23 12h01.01.015900 +0100,
vertical.xlsx,The target is tilted.,135,25,1,3,1,1,1,1,1,1,1,1,1,1,1,1,0,11,12,135,space,7.871199300000626,None,1,1,1.222051200000351,None,space,2.2858902999996644,None,0,1,1,1,,,,,3,1,25,0,363.8598899000003,,,,,,,,,,,,,,,,,,,,,363.8443656000004,363.8598899000003,364.36123,364.34349129999964,364.3479675000003,364.36123,365.5938979999996,,,,,365.59408959999973,365.6093305999998,365.80949029999965,365.79325670000026,,,,,,,,1,1,1.222051200000351,None,,,,,,,,831,22,M,R,2026-02-23_12h01.00.730,VisualSearch_2526_3,,2025.2.4,2026-02-23 12h01.01.015900 +0100,
vertical.xlsx,The target is tilted.,135,26,2,3,0,1,1,1,1,1,1,1,0,0,0,0,1,7,8,135,space,7.871199300000626,None,0,1,2.0162406999997984,None,space,2.2858902999996644,None,0,1,1,1,,,,,3,2,26,5,365.80949029999965,,,,,,,,,,,,,,,,,,,,,365.79401499999994,365.80949029999965,366.31406279999965,366.29331239999965,366.29847110000037,366.31406279999965,368.3433557000003,,,,,368.34353130000045,368.3588691,368.55902410000044,368.5427758000001,,,,,,,,0,1,2.0162406999997984,None,,,,,,,,831,22,M,R,2026-02-23_12h01.00.730,VisualSearch_2526_3,,2025.2.4,2026-02-23 12h01.01.015900 +0100,
vertical.xlsx,The target is tilted.,135,27,3,3,0,1,1,1,0,0,0,0,0,0,0,0,1,3,4,135,space,7.871199300000626,None,0,1,0.7568866000001435,None,space,2.2858902999996644,None,0,1,1,1,,,,,3,3,27,6,368.55902410000044,,,,,,,,,,,,,,,,,,,,,368.54358360000015,368.55902410000044,369.0641134000002,369.0428245999997,369.04768490000015,369.0641134000002,369.82647339999994,,,,,369.8266437999996,369.8417575999997,370.0416544000004,370.0260067000004,,,,,,,,0,1,0.7568866000001435,None,,,,,,,,831,22,M,R,2026-02-23_12h01.00.730,VisualSearch_2526_3,,2025.2.4,2026-02-23 12h01.01.015900 +0100,
vertical.xlsx,The target is tilted.,135,28,4,3,0,0,0,0,0,0,0,0,0,0,0,0,1,1,1,135,space,7.871199300000626,None,0,1,0.4177812999996604,None,space,2.2858902999996644,None,0,1,1,1,,,,,3,4,28,7,370.0416544000004,,,,,,,,,,,,,,,,,,,,,370.0267282,370.0416544000004,370.5496715000004,370.5260212999997,370.5309628,370.5496715000004,370.97547780000014,,,,,370.9755565999999,370.9916653000005,371.1919449000002,371.17540150000013,,,,,,,,0,1,0.4177812999996604,None,,,,,,,,831,22,M,R,2026-02-23_12h01.00.730,VisualSearch_2526_3,,2025.2.4,2026-02-23 12h01.01.015900 +0100,
vertical.xlsx,The target is tilted.,135,29,5,3,1,1,1,1,1,1,1,1,0,0,0,0,0,7,8,135,space,7.871199300000626,None,1,1,0.9200793999998496,None,space,2.2858902999996644,None,0,1,1,1,,,,,3,5,29,1,371.1919449000002,,,,,,,,,,,,,,,,,,,,,371.17614000000003,371.1919449000002,371.69924779999974,371.67583220000006,371.6808206999999,371.69924779999974,372.6261142999997,,,,,372.62630599999966,372.64149680000037,372.8414988999998,372.8256316000002,,,,,,,,1,1,0.9200793999998496,None,,,,,,,,831,22,M,R,2026-02-23_12h01.00.730,VisualSearch_2526_3,,2025.2.4,2026-02-23 12h01.01.015900 +0100,
vertical.xlsx,The target is tilted.,135,30,6,3,1,1,1,1,0,0,0,0,0,0,0,0,0,3,4,135,space,7.871199300000626,None,1,1,0.6982865999998467,None,space,2.2858902999996644,None,0,1,1,1,,,,,3,6,30,2,372.8414988999998,,,,,,,,,,,,,,,,,,,,,372.8264250999996,372.8414988999998,373.34606229999963,373.3255600999996,373.33051469999964,373.34606229999963,374.05933200000027,,,,,374.05955010000025,374.07477919999974,374.27473169999985,374.25864409999986,,,,,,,,1,1,0.6982865999998467,None,,,,,,,,831,22,M,R,2026-02-23_12h01.00.730,VisualSearch_2526_3,,2025.2.4,2026-02-23 12h01.01.015900 +0100,
vertical.xlsx,The target is tilted.,135,31,7,3,0,1,1,1,1,1,1,1,1,1,1,1,1,11,12,135,space,7.871199300000626,None,0,1,0.9736094999998386,None,space,2.2858902999996644,None,0,1,1,1,,,,,3,7,31,4,374.27473169999985,,,,,,,,,,,,,,,,,,,,,374.2593678999997,374.27473169999985,374.77451750000046,374.7583794999996,374.7627084999999,374.77451750000046,375.7579569000004,,,,,375.7580929999999,375.7738611999998,375.97447669999974,375.95837100000017,,,,,,,,0,1,0.9736094999998386,None,,,,,,,,831,22,M,R,2026-02-23_12h01.00.730,VisualSearch_2526_3,,2025.2.4,2026-02-23 12h01.01.015900 +0100,
vertical.xlsx,The target is tilted.,135,32,0,4,0,1,1,1,0,0,0,0,0,0,0,0,1,3,4,135,space,7.871199300000626,None,0,1,0.37237480000021606,None,space,2.2858902999996644,None,0,1,1,1,,,,,4,0,32,6,375.97447669999974,,,,,,,,,,,,,,,,,,,,,375.95917640000016,375.97447669999974,376.4794348999999,376.45784460000004,376.46230070000047,376.4794348999999,376.8574205,,,,,376.85747670000046,376.87362239999993,377.0734789000003,377.0572020000004,,,,,,,,0,1,0.37237480000021606,None,,,,,,,,831,22,M,R,2026-02-23_12h01.00.730,VisualSearch_2526_3,,2025.2.4,2026-02-23 12h01.01.015900 +0100,
vertical.xlsx,The target is tilted.,135,33,1,4,1,1,1,1,0,0,0,0,0,0,0,0,0,3,4,135,space,7.871199300000626,None,1,1,1.0350370000005569,None,space,2.2858902999996644,None,0,1,1,1,,,,,4,1,33,2,377.0734789000003,,,,,,,,,,,,,,,,,,,,,377.0574652,377.0734789000003,377.5734398999998,377.5569369,377.55841009999995,377.5734398999998,378.6251186000004,,,,,378.62531420000005,378.6405479,378.84004890000006,378.82419869999967,,,,,,,,1,1,1.0350370000005569,None,,,,,,,,831,22,M,R,2026-02-23_12h01.00.730,VisualSearch_2526_3,,2025.2.4,2026-02-23 12h01.01.015900 +0100,
