file_name,block_instructions,target_example,thisN,thisTrialN,thisRepN,target_presence,opacity_1,opacity_2,opacity_3,opacity_4,opacity_5,opacity_6,opacity_7,opacity_8,opacity_9,opacity_10,opacity_11,opacity_12,n_distract,n_items,target_ori,key_resp_4.keys,key_resp_4.rt,key_resp_4.duration,key_resp.keys,key_resp.corr,key_resp.rt,key_resp.duration,key_resp_5.keys,key_resp_5.rt,key_resp_5.duration,blocks.thisRepN,blocks.thisTrialN,blocks.thisN,blocks.thisIndex,practice_trials.thisRepN,practice_trials.thisTrialN,practice_trials.thisN,practice_trials.thisIndex,trials.thisRepN,trials.thisTrialN,trials.thisN,trials.thisIndex,thisRow.t,notes,Welcome.started,WelcomeText.started,key_resp_2.started,Welcome.stopped,key_resp_2.keys,key_resp_2.rt,key_resp_2.duration,InformedConsent.started,text_4.started,InformedConsent.stopped,key_resp_6.keys,key_resp_6.rt,key_resp_6.duration,key_resp_4.started,example_target.started,text_3.started,blocks.key_resp_4.keys,blocks.key_resp_4.rt,blocks.key_resp_4.duration,FixCross.started,fixCross.started,FixCross.stopped,Stimulus.started,key_resp.started,Stimulus.stopped,practice_trials.key_resp.keys,practice_trials.key_resp.corr,practice_trials.key_resp.rt,practice_trials.key_resp.duration,BlankScreen.started,text.started,text.stopped,BlankScreen.stopped,fixCross.stopped,ExperimentStart.started,text_2.started,key_resp_5.started,ExperimentStart.stopped,blocks.key_resp_5.keys,blocks.key_resp_5.rt,blocks.key_resp_5.duration,trials.key_resp.keys,trials.key_resp.corr,trials.key_resp.rt,trials.key_resp.duration,Thanks.started,ThankYou.started,key_resp_3.started,Thanks.stopped,key_resp_3.keys,key_resp_3.rt,key_resp_3.duration,participant,leeftijd,gender,links/rechtshandig,date,expName,expVersion,psychopyVersion,expStart,
,,,,,,,,,,,,,,,,,,,,,,,,,,,,,,,,,,,,,,,,,,,,,,0.017022399999405025,0.04639669999960461,0.04639669999960461,24.90968939999948,space,24.835654199999226,None,,,,,,,,,,,,,,,,,,,,,,,,,,,,,,,,,,,,,,,,,,,,,,832,20,V,R,2026-02-23_12h13.50.784,VisualSearch_2526_3,,2025.2.4,2026-02-23 12h13.51.004725 +0100,
,,,,,,,,,,,,,,,,,,,,,,,,,,,,,,,,,,,,,,,,,,,,,,,,,,,,,24.909816999999748,24.917634799999178,27.87863870000001,y,2.952058999999281,None,,,,,,,,,,,,,,,,,,,,,,,,,,,,,,,,,,,,,,,,832,20,V,R,2026-02-23_12h13.50.784,VisualSearch_2526_3,,2025.2.4,2026-02-23 12h13.51.004725 +0100,
tilted.xlsx,The target is tilted.,117,0,0,0,0,1,1,1,1,1,1,1,0,0,0,0,1,7,8,117,space,3.3975578999998106,None,0,1,1.388155900000129,None,,,,0,0,0,0,0,0,0,5,,,,,31.358530799999244,,,,,,,,,,,,,,,27.922176099999888,27.922176099999888,27.922176099999888,space,3.3975578999998106,None,31.35267169999952,31.358530799999244,31.8433957999996,31.848552299999938,31.86402839999937,33.26057009999931,0,1,1.388155900000129,None,33.26076549999925,33.275594299999284,33.475692699999854,33.459823099999994,,,,,,,,,,,,,,,,,,,,832,20,V,R,2026-02-23_12h13.50.784,VisualSearch_2526_3,,2025.2.4,2026-02-23 12h13.51.004725 +0100,
tilted.xlsx,The target is tilted.,117,1,1,0,0,0,0,0,0,0,0,0,0,0,0,0,1,1,1,117,space,3.3975578999998106,None,0,1,0.6164716000002954,None,,,,0,0,0,0,0,1,1,7,,,,,33.475692699999854,,,,,,,,,,,,,,,,,,,,,33.460499799999525,33.475692699999854,33.9599634999995,33.964897500000006,33.975752499999544,34.59373219999998,0,1,0.6164716000002954,None,34.593947399999706,34.60886329999994,34.80925849999949,34.79313489999913,33.975752499999544,,,,,,,,,,,,,,,,,,,832,20,V,R,2026-02-23_12h13.50.784,VisualSearch_2526_3,,2025.2.4,2026-02-23 12h13.51.004725 +0100,
tilted.xlsx,The target is tilted.,117,2,2,0,1,1,1,1,1,1,1,1,1,1,1,1,0,11,12,117,space,3.3975578999998106,None,1,1,2.478203300000132,None,,,,0,0,0,0,0,2,2,0,,,,,34.80925849999949,,,,,,,,,,,,,,,,,,,,,34.79377690000001,34.80925849999949,35.29268209999918,35.29820919999929,35.315464999999676,37.80897659999937,1,1,2.478203300000132,None,37.80913409999994,37.82466799999929,38.024894799999856,38.008922600000005,35.315464999999676,,,,,,,,,,,,,,,,,,,832,20,V,R,2026-02-23_12h13.50.784,VisualSearch_2526_3,,2025.2.4,2026-02-23 12h13.51.004725 +0100,
tilted.xlsx,The target is tilted.,117,3,3,0,0,1,1,1,0,0,0,0,0,0,0,0,1,3,4,117,space,3.3975578999998106,None,0,1,1.0345655999999508,None,,,,0,0,0,0,0,3,3,6,,,,,38.024894799999856,,,,,,,,,,,,,,,,,,,,,38.00958919999994,38.024894799999856,38.508826399999634,38.513802999999825,38.5248032999998,39.5756578999999,0,1,1.0345655999999508,None,39.57585719999952,39.59112509999977,39.79172879999987,39.77562969999963,38.5248032999998,,,,,,,,,,,,,,,,,,,832,20,V,R,2026-02-23_12h13.50.784,VisualSearch_2526_3,,2025.2.4,2026-02-23 12h13.51.004725 +0100,
tilted.xlsx,The target is tilted.,117,4,4,0,1,0,0,0,0,0,0,0,0,0,0,0,0,0,1,117,space,3.3975578999998106,None,1,1,0.5068219000004319,None,,,,0,0,0,0,0,4,4,3,,,,,39.79172879999987,,,,,,,,,,,,,,,,,,,,,39.776309499999115,39.79172879999987,40.275136699999166,40.279669999999896,40.29631029999928,40.80881549999958,1,1,0.5068219000004319,None,40.80895689999943,40.82425389999935,41.02484379999987,41.00864399999955,40.29631029999928,,,,,,,,,,,,,,,,,,,832,20,V,R,2026-02-23_12h13.50.784,VisualSearch_2526_3,,2025.2.4,2026-02-23 12h13.51.004725 +0100,
tilted.xlsx,The target is tilted.,117,5,5,0,0,1,1,1,1,1,1,1,1,1,1,1,1,11,12,117,space,3.3975578999998106,None,1,0,1.1728797000005216,None,,,,0,0,0,0,0,5,5,4,,,,,41.02484379999987,,,,,,,,,,,,,,,,,,,,,41.009349799999654,41.02484379999987,41.50867219999964,41.5136937999996,41.528956399999515,42.70896619999985,1,0,1.1728797000005216,None,42.7091548999997,42.723963399999775,42.92449839999972,42.90835729999981,41.528956399999515,,,,,,,,,,,,,,,,,,,832,20,V,R,2026-02-23_12h13.50.784,VisualSearch_2526_3,,2025.2.4,2026-02-23 12h13.51.004725 +0100,
tilted.xlsx,The target is tilted.,117,6,6,0,1,1,1,1,1,1,1,1,0,0,0,0,0,7,8,117,space,3.3975578999998106,None,1,1,1.3057143999994878,None,,,,0,0,0,0,0,6,6,1,,,,,42.92449839999972,,,,,,,,,,,,,,,,,,,,,42.90902869999991,42.92449839999972,43.40807749999931,43.41282509999928,43.42426219999925,44.74201069999981,1,1,1.3057143999994878,None,44.74221569999918,44.75706459999947,44.95747759999995,44.94141689999924,43.42426219999925,,,,,,,,,,,,,,,,,,,832,20,V,R,2026-02-23_12h13.50.784,VisualSearch_2526_3,,2025.2.4,2026-02-23 12h13.51.004725 +0100,
tilted.xlsx,The target is tilted.,117,7,7,0,1,1,1,1,0,0,0,0,0,0,0,0,0,3,4,117,space,3.3975578999998106,None,1,1,0.7773661000001084,None,,,,0,0,0,0,0,7,7,2,,,,,44.95747759999995,,,,,,,,,,,,,,,,,,,,,44.9420627999998,44.95747759999995,45.44140569999945,45.44647029999942,45.46283459999995,46.25690919999943,1,1,0.7773661000001084,None,46.25703599999997,46.27327419999983,,46.457578399999875,45.46283459999995,,,,,,,,,,,,,,,,,,,832,20,V,R,2026-02-23_12h13.50.784,VisualSearch_2526_3,,2025.2.4,2026-02-23 12h13.51.004725 +0100,
tilted.xlsx,The target is tilted.,117,0,0,0,1,1,1,1,0,0,0,0,0,0,0,0,0,3,4,117,space,3.3975578999998106,None,1,1,0.7809846000000107,None,space,3.104870199999823,None,0,0,0,0,,,,,0,0,0,2,49.62336569999934,,,,,,,,,,,,,,,,,,,,,49.619479999999385,49.62336569999934,50.10699989999921,50.112241699999686,50.128248999999414,50.92366629999924,,,,,50.923898899999585,50.9393115999992,51.139907499999936,51.12378639999952,,46.46538139999939,46.47393359999933,46.47393359999933,49.59082259999923,space,3.104870199999823,None,1,1,0.7809846000000107,None,,,,,,,,832,20,V,R,2026-02-23_12h13.50.784,VisualSearch_2526_3,,2025.2.4,2026-02-23 12h13.51.004725 +0100,
tilted.xlsx,The target is tilted.,117,1,1,0,1,1,1,1,1,1,1,1,1,1,1,1,0,11,12,117,space,3.3975578999998106,None,1,1,1.6956196000001,None,space,3.104870199999823,None,0,0,0,0,,,,,0,1,1,0,51.139907499999936,,,,,,,,,,,,,,,,,,,,,51.12459209999997,51.139907499999936,51.623606899999686,51.62890629999947,51.64666289999968,53.35654389999945,,,,,53.35674799999924,53.372117799999614,53.572687199999564,53.55647659999977,51.64666289999968,,,,,,,,1,1,1.6956196000001,None,,,,,,,,832,20,V,R,2026-02-23_12h13.50.784,VisualSearch_2526_3,,2025.2.4,2026-02-23 12h13.51.004725 +0100,
tilted.xlsx,The target is tilted.,117,2,2,0,0,1,1,1,0,0,0,0,0,0,0,0,1,3,4,117,space,3.3975578999998106,None,0,1,0.873982099999921,None,space,3.104870199999823,None,0,0,0,0,,,,,0,2,2,6,53.572687199999564,,,,,,,,,,,,,,,,,,,,,53.55727549999938,53.572687199999564,54.05621589999919,54.06079879999925,54.07715759999974,54.956897399999434,,,,,54.95709649999935,54.97199219999948,55.17206189999979,55.15611039999931,54.07715759999974,,,,,,,,0,1,0.873982099999921,None,,,,,,,,832,20,V,R,2026-02-23_12h13.50.784,VisualSearch_2526_3,,2025.2.4,2026-02-23 12h13.51.004725 +0100,
tilted.xlsx,The target is tilted.,117,3,3,0,0,0,0,0,0,0,0,0,0,0,0,0,1,1,1,117,space,3.3975578999998106,None,0,1,0.5918541000000914,None,space,3.104870199999823,None,0,0,0,0,,,,,0,3,3,7,55.17206189999979,,,,,,,,,,,,,,,,,,,,,55.15686259999984,55.17206189999979,55.65586489999987,55.66047489999983,55.674047399999836,56.27246289999948,,,,,56.27253639999981,56.288070999999945,56.489011599999685,56.47288979999939,55.674047399999836,,,,,,,,0,1,0.5918541000000914,None,,,,,,,,832,20,V,R,2026-02-23_12h13.50.784,VisualSearch_2526_3,,2025.2.4,2026-02-23 12h13.51.004725 +0100,
tilted.xlsx,The target is tilted.,117,4,4,0,0,1,1,1,1,1,1,1,0,0,0,0,1,7,8,117,space,3.3975578999998106,None,1,0,1.6922334000000774,None,space,3.104870199999823,None,0,0,0,0,,,,,0,4,4,5,56.489011599999685,,,,,,,,,,,,,,,,,,,,,56.47370259999934,56.489011599999685,56.972644299999956,56.977805499999704,56.99470849999943,58.68953199999942,,,,,58.6897100999995,58.70462639999914,58.90467929999977,58.88859879999927,56.99470849999943,,,,,,,,1,0,1.6922334000000774,None,,,,,,,,832,20,V,R,2026-02-23_12h13.50.784,VisualSearch_2526_3,,2025.2.4,2026-02-23 12h13.51.004725 +0100,
tilted.xlsx,The target is tilted.,117,5,5,0,1,1,1,1,1,1,1,1,0,0,0,0,0,7,8,117,space,3.3975578999998106,None,1,1,1.553421999999955,None,space,3.104870199999823,None,0,0,0,0,,,,,0,5,5,1,58.90467929999977,,,,,,,,,,,,,,,,,,,,,58.889292799999566,58.90467929999977,59.389102099999945,59.39412969999921,59.40982309999981,60.972077499999614,,,,,60.97225619999972,60.987589799999114,61.18814079999993,61.17208849999952,59.40982309999981,,,,,,,,1,1,1.553421999999955,None,,,,,,,,832,20,V,R,2026-02-23_12h13.50.784,VisualSearch_2526_3,,2025.2.4,2026-02-23 12h13.51.004725 +0100,
tilted.xlsx,The target is tilted.,117,6,6,0,0,1,1,1,1,1,1,1,1,1,1,1,1,11,12,117,space,3.3975578999998106,None,1,0,2.274934700000813,None,space,3.104870199999823,None,0,0,0,0,,,,,0,6,6,4,61.18814079999993,,,,,,,,,,,,,,,,,,,,,61.172919899999215,61.18814079999993,61.67159199999969,61.67600229999971,61.69062599999961,63.97213239999928,,,,,63.9723297999999,63.987175399999614,64.18760189999921,64.17152029999943,61.69062599999961,,,,,,,,1,0,2.274934700000813,None,,,,,,,,832,20,V,R,2026-02-23_12h13.50.784,VisualSearch_2526_3,,2025.2.4,2026-02-23 12h13.51.004725 +0100,
tilted.xlsx,The target is tilted.,117,7,7,0,1,0,0,0,0,0,0,0,0,0,0,0,0,0,1,117,space,3.3975578999998106,None,1,1,0.6155884999998307,None,space,3.104870199999823,None,0,0,0,0,,,,,0,7,7,3,64.18760189999921,,,,,,,,,,,,,,,,,,,,,64.17223169999943,64.18760189999921,64.67161019999912,64.67650029999913,64.69293749999997,65.32144569999946,,,,,65.3216451999997,65.33681449999949,65.5369799,65.52136059999975,64.69293749999997,,,,,,,,1,1,0.6155884999998307,None,,,,,,,,832,20,V,R,2026-02-23_12h13.50.784,VisualSearch_2526_3,,2025.2.4,2026-02-23 12h13.51.004725 +0100,
tilted.xlsx,The target is tilted.,117,8,0,1,0,1,1,1,1,1,1,1,1,1,1,1,1,11,12,117,space,3.3975578999998106,None,0,1,2.126780300000064,None,space,3.104870199999823,None,0,0,0,0,,,,,1,0,8,4,65.5369799,,,,,,,,,,,,,,,,,,,,,65.5220703999994,65.5369799,66.02110879999964,66.02571149999949,66.0408895999999,68.17078749999928,,,,,68.17098589999932,68.18636479999986,68.38687619999928,68.37086389999968,66.0408895999999,,,,,,,,0,1,2.126780300000064,None,,,,,,,,832,20,V,R,2026-02-23_12h13.50.784,VisualSearch_2526_3,,2025.2.4,2026-02-23 12h13.51.004725 +0100,
tilted.xlsx,The target is tilted.,117,9,1,1,0,0,0,0,0,0,0,0,0,0,0,0,1,1,1,117,space,3.3975578999998106,None,0,1,0.5607874999996056,None,space,3.104870199999823,None,0,0,0,0,,,,,1,1,9,7,68.38687619999928,,,,,,,,,,,,,,,,,,,,,68.37157699999989,68.38687619999928,68.87074389999998,68.8751657999992,68.89025269999911,69.45414609999989,,,,,69.45479569999952,69.46955659999912,69.67017039999973,69.65400449999925,68.89025269999911,,,,,,,,0,1,0.5607874999996056,None,,,,,,,,832,20,V,R,2026-02-23_12h13.50.784,VisualSearch_2526_3,,2025.2.4,2026-02-23 12h13.51.004725 +0100,
tilted.xlsx,The target is tilted.,117,10,2,1,0,1,1,1,1,1,1,1,0,0,0,0,1,7,8,117,space,3.3975578999998106,None,1,0,0.6100317999998879,None,space,3.104870199999823,None,0,0,0,0,,,,,1,2,10,5,69.67017039999973,,,,,,,,,,,,,,,,,,,,,69.65471679999973,69.67017039999973,70.1694654999992,70.17061879999983,70.18642869999985,70.8043577999997,,,,,70.80456029999914,70.8193554999998,71.02003859999968,71.00373229999968,,,,,,,,,1,0,0.6100317999998879,None,,,,,,,,832,20,V,R,2026-02-23_12h13.50.784,VisualSearch_2526_3,,2025.2.4,2026-02-23 12h13.51.004725 +0100,
tilted.xlsx,The target is tilted.,117,11,3,1,0,1,1,1,0,0,0,0,0,0,0,0,1,3,4,117,space,3.3975578999998106,None,0,1,0.7384302000000389,None,space,3.104870199999823,None,0,0,0,0,,,,,1,3,11,6,71.02003859999968,,,,,,,,,,,,,,,,,,,,,71.00457049999932,71.02003859999968,71.50318109999989,71.50772369999959,71.52133429999958,72.27076869999928,,,,,72.27096679999977,72.28577309999946,72.48602399999982,72.47012309999991,71.52133429999958,,,,,,,,0,1,0.7384302000000389,None,,,,,,,,832,20,V,R,2026-02-23_12h13.50.784,VisualSearch_2526_3,,2025.2.4,2026-02-23 12h13.51.004725 +0100,
tilted.xlsx,The target is tilted.,117,12,4,1,1,1,1,1,0,0,0,0,0,0,0,0,0,3,4,117,space,3.3975578999998106,None,1,1,0.7153468999995312,None,space,3.104870199999823,None,0,0,0,0,,,,,1,4,12,2,72.48602399999982,,,,,,,,,,,,,,,,,,,,,72.47084639999957,72.48602399999982,72.9701473999994,72.97521269999925,72.99128429999928,73.72008679999999,,,,,73.72028959999989,73.73552139999993,73.93578949999937,73.92006539999966,72.99128429999928,,,,,,,,1,1,0.7153468999995312,None,,,,,,,,832,20,V,R,2026-02-23_12h13.50.784,VisualSearch_2526_3,,2025.2.4,2026-02-23 12h13.51.004725 +0100,
tilted.xlsx,The target is tilted.,117,13,5,1,1,1,1,1,1,1,1,1,0,0,0,0,0,7,8,117,space,3.3975578999998106,None,1,1,1.0586879000002227,None,space,3.104870199999823,None,0,0,0,0,,,,,1,5,13,1,73.93578949999937,,,,,,,,,,,,,,,,,,,,,73.9208979999994,73.93578949999937,74.42008069999974,74.4251179999992,74.44116689999919,75.50328759999957,,,,,75.5035042999998,75.51858959999936,75.71915269999954,75.70307309999953,74.44116689999919,,,,,,,,1,1,1.0586879000002227,None,,,,,,,,832,20,V,R,2026-02-23_12h13.50.784,VisualSearch_2526_3,,2025.2.4,2026-02-23 12h13.51.004725 +0100,
tilted.xlsx,The target is tilted.,117,14,6,1,1,0,0,0,0,0,0,0,0,0,0,0,0,0,1,117,space,3.3975578999998106,None,1,1,0.531991900000321,None,space,3.104870199999823,None,0,0,0,0,,,,,1,6,14,3,75.71915269999954,,,,,,,,,,,,,,,,,,,,,75.7038823999992,75.71915269999954,76.20296879999933,76.20744739999918,76.2253695999998,76.76947199999995,,,,,76.76965299999938,76.78502449999996,76.98545789999935,76.96928839999964,76.2253695999998,,,,,,,,1,1,0.531991900000321,None,,,,,,,,832,20,V,R,2026-02-23_12h13.50.784,VisualSearch_2526_3,,2025.2.4,2026-02-23 12h13.51.004725 +0100,
tilted.xlsx,The target is tilted.,117,15,7,1,1,1,1,1,1,1,1,1,1,1,1,1,0,11,12,117,space,3.3975578999998106,None,1,1,1.3387208999993163,None,space,3.104870199999823,None,0,0,0,0,,,,,1,7,15,0,76.98545789999935,,,,,,,,,,,,,,,,,,,,,76.97001649999947,76.98545789999935,77.46903759999987,77.47344359999988,77.49153919999935,78.83622469999955,,,,,78.8364247999998,78.85132899999917,79.05191549999927,79.03580399999919,77.49153919999935,,,,,,,,1,1,1.3387208999993163,None,,,,,,,,832,20,V,R,2026-02-23_12h13.50.784,VisualSearch_2526_3,,2025.2.4,2026-02-23 12h13.51.004725 +0100,
tilted.xlsx,The target is tilted.,117,16,0,2,1,1,1,1,1,1,1,1,1,1,1,1,0,11,12,117,space,3.3975578999998106,None,1,1,1.5153162000005977,None,space,3.104870199999823,None,0,0,0,0,,,,,2,0,16,0,79.05191549999927,,,,,,,,,,,,,,,,,,,,,79.03650599999946,79.05191549999927,79.53560509999988,79.54057279999961,79.55519539999932,81.08532239999931,,,,,81.08553839999968,81.1006712999997,81.30105829999957,81.28476689999934,79.55519539999932,,,,,,,,1,1,1.5153162000005977,None,,,,,,,,832,20,V,R,2026-02-23_12h13.50.784,VisualSearch_2526_3,,2025.2.4,2026-02-23 12h13.51.004725 +0100,
tilted.xlsx,The target is tilted.,117,17,1,2,1,1,1,1,1,1,1,1,0,0,0,0,0,7,8,117,space,3.3975578999998106,None,1,1,1.23873950000052,None,space,3.104870199999823,None,0,0,0,0,,,,,2,1,17,1,81.30105829999957,,,,,,,,,,,,,,,,,,,,,81.28537249999954,81.30105829999957,81.78516609999951,81.78968189999978,81.8082061999994,83.05205279999973,,,,,83.05222929999945,83.06716269999924,83.26783349999914,83.25172239999938,81.8082061999994,,,,,,,,1,1,1.23873950000052,None,,,,,,,,832,20,V,R,2026-02-23_12h13.50.784,VisualSearch_2526_3,,2025.2.4,2026-02-23 12h13.51.004725 +0100,
tilted.xlsx,The target is tilted.,117,18,2,2,1,0,0,0,0,0,0,0,0,0,0,0,0,0,1,117,space,3.3975578999998106,None,1,1,0.504607699999724,None,space,3.104870199999823,None,0,0,0,0,,,,,2,2,18,3,83.26783349999914,,,,,,,,,,,,,,,,,,,,,83.25245029999951,83.26783349999914,83.75090789999922,83.75431339999977,83.76755999999932,84.2847598999997,,,,,84.28490489999967,84.30039269999997,84.50097549999919,84.48489889999928,83.76755999999932,,,,,,,,1,1,0.504607699999724,None,,,,,,,,832,20,V,R,2026-02-23_12h13.50.784,VisualSearch_2526_3,,2025.2.4,2026-02-23 12h13.51.004725 +0100,
tilted.xlsx,The target is tilted.,117,19,3,2,0,1,1,1,1,1,1,1,1,1,1,1,1,11,12,117,space,3.3975578999998106,None,0,1,1.8416667999999845,None,space,3.104870199999823,None,0,0,0,0,,,,,2,3,19,4,84.50097549999919,,,,,,,,,,,,,,,,,,,,,84.48561339999924,84.50097549999919,84.98500499999955,84.98999089999961,85.00849609999932,86.85151719999976,,,,,86.85169309999947,86.8666334999998,87.06715169999916,87.05080569999973,85.00849609999932,,,,,,,,0,1,1.8416667999999845,None,,,,,,,,832,20,V,R,2026-02-23_12h13.50.784,VisualSearch_2526_3,,2025.2.4,2026-02-23 12h13.51.004725 +0100,
tilted.xlsx,The target is tilted.,117,20,4,2,0,0,0,0,0,0,0,0,0,0,0,0,1,1,1,117,space,3.3975578999998106,None,0,1,0.5309984999994413,None,space,3.104870199999823,None,0,0,0,0,,,,,2,4,20,7,87.06715169999916,,,,,,,,,,,,,,,,,,,,,87.05151769999975,87.06715169999916,87.55094329999974,87.55551989999913,87.57305639999959,88.11740649999956,,,,,88.11761729999944,88.13311159999921,88.33337689999917,88.31743599999936,87.57305639999959,,,,,,,,0,1,0.5309984999994413,None,,,,,,,,832,20,V,R,2026-02-23_12h13.50.784,VisualSearch_2526_3,,2025.2.4,2026-02-23 12h13.51.004725 +0100,
tilted.xlsx,The target is tilted.,117,21,5,2,1,1,1,1,0,0,0,0,0,0,0,0,0,3,4,117,space,3.3975578999998106,None,1,1,0.865768399999979,None,space,3.104870199999823,None,0,0,0,0,,,,,2,5,21,2,88.33337689999917,,,,,,,,,,,,,,,,,,,,,88.3181840999996,88.33337689999917,88.81757819999984,88.8221952999993,88.83343019999938,89.70055719999982,,,,,89.70063449999998,89.71593329999996,89.9163896,89.90037849999953,88.83343019999938,,,,,,,,1,1,0.865768399999979,None,,,,,,,,832,20,V,R,2026-02-23_12h13.50.784,VisualSearch_2526_3,,2025.2.4,2026-02-23 12h13.51.004725 +0100,
tilted.xlsx,The target is tilted.,117,22,6,2,0,1,1,1,0,0,0,0,0,0,0,0,1,3,4,117,space,3.3975578999998106,None,0,1,0.8157995000001392,None,space,3.104870199999823,None,0,0,0,0,,,,,2,6,22,6,89.9163896,,,,,,,,,,,,,,,,,,,,,89.90109009999924,89.9163896,90.40064879999954,90.40563139999995,90.42367769999964,91.25033089999943,,,,,91.25047019999965,91.26577159999943,91.4661161999993,91.45034629999918,90.42367769999964,,,,,,,,0,1,0.8157995000001392,None,,,,,,,,832,20,V,R,2026-02-23_12h13.50.784,VisualSearch_2526_3,,2025.2.4,2026-02-23 12h13.51.004725 +0100,
tilted.xlsx,The target is tilted.,117,23,7,2,0,1,1,1,1,1,1,1,0,0,0,0,1,7,8,117,space,3.3975578999998106,None,0,1,1.193806900000709,None,space,3.104870199999823,None,0,0,0,0,,,,,2,7,23,5,91.4661161999993,,,,,,,,,,,,,,,,,,,,,91.4510524999996,91.4661161999993,91.95022199999948,91.95472379999956,91.97186839999995,93.16673929999979,,,,,93.16691809999975,93.18223849999958,93.3827824,93.36651879999954,91.97186839999995,,,,,,,,0,1,1.193806900000709,None,,,,,,,,832,20,V,R,2026-02-23_12h13.50.784,VisualSearch_2526_3,,2025.2.4,2026-02-23 12h13.51.004725 +0100,
tilted.xlsx,The target is tilted.,117,24,0,3,1,0,0,0,0,0,0,0,0,0,0,0,0,0,1,117,space,3.3975578999998106,None,1,1,0.4868380999996589,None,space,3.104870199999823,None,0,0,0,0,,,,,3,0,24,3,93.3827824,,,,,,,,,,,,,,,,,,,,,93.36723579999943,93.3827824,93.86613939999916,93.86919449999914,93.88226899999972,94.3830111999996,,,,,94.3831554999997,94.39884079999956,94.59934449999946,94.58304189999944,93.88226899999972,,,,,,,,1,1,0.4868380999996589,None,,,,,,,,832,20,V,R,2026-02-23_12h13.50.784,VisualSearch_2526_3,,2025.2.4,2026-02-23 12h13.51.004725 +0100,
tilted.xlsx,The target is tilted.,117,25,1,3,1,1,1,1,1,1,1,1,0,0,0,0,0,7,8,117,space,3.3975578999998106,None,0,0,1.4245332000000417,None,space,3.104870199999823,None,0,0,0,0,,,,,3,1,25,1,94.59934449999946,,,,,,,,,,,,,,,,,,,,,94.58370519999971,94.59934449999946,95.08297629999925,95.08742279999933,95.10332669999934,96.53293229999963,,,,,96.53312129999995,96.54856419999942,96.74869819999913,96.73240889999943,95.10332669999934,,,,,,,,0,0,1.4245332000000417,None,,,,,,,,832,20,V,R,2026-02-23_12h13.50.784,VisualSearch_2526_3,,2025.2.4,2026-02-23 12h13.51.004725 +0100,
tilted.xlsx,The target is tilted.,117,26,2,3,0,1,1,1,1,1,1,1,1,1,1,1,1,11,12,117,space,3.3975578999998106,None,0,1,2.009737400000631,None,space,3.104870199999823,None,0,0,0,0,,,,,3,2,26,4,96.74869819999913,,,,,,,,,,,,,,,,,,,,,96.73276729999998,96.74869819999913,97.2327794999992,97.23722879999968,97.25248699999975,99.2658449999999,,,,,99.26602599999933,99.28140599999915,99.48186889999943,99.46527309999965,97.25248699999975,,,,,,,,0,1,2.009737400000631,None,,,,,,,,832,20,V,R,2026-02-23_12h13.50.784,VisualSearch_2526_3,,2025.2.4,2026-02-23 12h13.51.004725 +0100,
tilted.xlsx,The target is tilted.,117,27,3,3,0,0,0,0,0,0,0,0,0,0,0,0,1,1,1,117,space,3.3975578999998106,None,0,1,0.568444599999566,None,space,3.104870199999823,None,0,0,0,0,,,,,3,3,27,7,99.48186889999943,,,,,,,,,,,,,,,,,,,,,99.46602910000001,99.48186889999943,99.96572149999974,99.9703155999996,99.98675269999967,100.56614649999938,,,,,100.56642519999968,100.58107889999974,100.78165279999939,100.7654810999993,99.98675269999967,,,,,,,,0,1,0.568444599999566,None,,,,,,,,832,20,V,R,2026-02-23_12h13.50.784,VisualSearch_2526_3,,2025.2.4,2026-02-23 12h13.51.004725 +0100,
tilted.xlsx,The target is tilted.,117,28,4,3,0,1,1,1,0,0,0,0,0,0,0,0,1,3,4,117,space,3.3975578999998106,None,0,1,0.965647999999419,None,space,3.104870199999823,None,0,0,0,0,,,,,3,4,28,6,100.78165279999939,,,,,,,,,,,,,,,,,,,,,100.76619349999964,100.78165279999939,101.26543099999981,101.26985349999995,101.28606129999935,102.26479119999931,,,,,102.26492879999932,102.2807503999993,102.48140909999984,102.4651543,101.28606129999935,,,,,,,,0,1,0.965647999999419,None,,,,,,,,832,20,V,R,2026-02-23_12h13.50.784,VisualSearch_2526_3,,2025.2.4,2026-02-23 12h13.51.004725 +0100,
tilted.xlsx,The target is tilted.,117,29,5,3,0,1,1,1,1,1,1,1,0,0,0,0,1,7,8,117,space,3.3975578999998106,None,1,0,1.0421415999999226,None,space,3.104870199999823,None,0,0,0,0,,,,,3,5,29,5,102.48140909999984,,,,,,,,,,,,,,,,,,,,,102.46589659999972,102.48140909999984,102.9652772999998,102.97027009999965,102.98111809999955,104.03208859999995,,,,,104.03228759999911,104.04722909999964,104.24727659999917,104.23097429999962,102.98111809999955,,,,,,,,1,0,1.0421415999999226,None,,,,,,,,832,20,V,R,2026-02-23_12h13.50.784,VisualSearch_2526_3,,2025.2.4,2026-02-23 12h13.51.004725 +0100,
tilted.xlsx,The target is tilted.,117,30,6,3,1,1,1,1,1,1,1,1,1,1,1,1,0,11,12,117,space,3.3975578999998106,None,0,0,1.1472308000002158,None,space,3.104870199999823,None,0,0,0,0,,,,,3,6,30,0,104.24727659999917,,,,,,,,,,,,,,,,,,,,,104.23162589999993,104.24727659999917,104.7316409999994,104.7367463999999,104.75205259999984,105.9143839999997,,,,,105.91454799999974,105.93008589999954,106.13065119999919,106.11456239999916,104.75205259999984,,,,,,,,0,0,1.1472308000002158,None,,,,,,,,832,20,V,R,2026-02-23_12h13.50.784,VisualSearch_2526_3,,2025.2.4,2026-02-23 12h13.51.004725 +0100,
tilted.xlsx,The target is tilted.,117,31,7,3,1,1,1,1,0,0,0,0,0,0,0,0,0,3,4,117,space,3.3975578999998106,None,1,1,0.9782764999999927,None,space,3.104870199999823,None,0,0,0,0,,,,,3,7,31,2,106.13065119999919,,,,,,,,,,,,,,,,,,,,,106.11531289999948,106.13065119999919,106.61467509999966,106.61975339999935,106.63514059999943,107.61444149999988,,,,,107.61462019999999,107.62997219999943,107.83059839999987,107.8142042999998,106.63514059999943,,,,,,,,1,1,0.9782764999999927,None,,,,,,,,832,20,V,R,2026-02-23_12h13.50.784,VisualSearch_2526_3,,2025.2.4,2026-02-23 12h13.51.004725 +0100,
tilted.xlsx,The target is tilted.,117,32,0,4,0,1,1,1,1,1,1,1,0,0,0,0,1,7,8,117,space,3.3975578999998106,None,0,1,1.1648589000005813,None,space,3.104870199999823,None,0,0,0,0,,,,,4,0,32,5,107.83059839999987,,,,,,,,,,,,,,,,,,,,,107.81494929999917,107.83059839999987,108.31376209999962,108.31821559999935,108.33478189999914,109.5137767999995,,,,,109.51395339999999,109.52964949999932,109.72975409999981,109.71348269999999,108.33478189999914,,,,,,,,0,1,1.1648589000005813,None,,,,,,,,832,20,V,R,2026-02-23_12h13.50.784,VisualSearch_2526_3,,2025.2.4,2026-02-23 12h13.51.004725 +0100,
tilted.xlsx,The target is tilted.,117,33,1,4,0,1,1,1,1,1,1,1,1,1,1,1,1,11,12,117,space,3.3975578999998106,None,0,1,2.117645899999843,None,space,3.104870199999823,None,0,0,0,0,,,,,4,1,33,4,109.72975409999981,,,,,,,,,,,,,,,,,,,,,109.71408139999949,109.72975409999981,110.21354059999976,110.21822749999956,110.23447879999912,112.36386709999988,,,,,112.36404479999965,112.37933059999978,112.57968349999919,112.56362319999971,110.23447879999912,,,,,,,,0,1,2.117645899999843,None,,,,,,,,832,20,V,R,2026-02-23_12h13.50.784,VisualSearch_2526_3,,2025.2.4,2026-02-23 12h13.51.004725 +0100,
tilted.xlsx,The target is tilted.,117,34,2,4,1,1,1,1,1,1,1,1,0,0,0,0,0,7,8,117,space,3.3975578999998106,None,0,0,1.0450916999998299,None,space,3.104870199999823,None,0,0,0,0,,,,,4,2,34,1,112.57968349999919,,,,,,,,,,,,,,,,,,,,,112.56433859999925,112.57968349999919,113.06345989999954,113.06781799999953,113.08423069999935,114.13040899999942,,,,,114.13060239999959,114.14545139999973,114.34567229999993,114.32989969999926,113.08423069999935,,,,,,,,0,0,1.0450916999998299,None,,,,,,,,832,20,V,R,2026-02-23_12h13.50.784,VisualSearch_2526_3,,2025.2.4,2026-02-23 12h13.51.004725 +0100,
tilted.xlsx,The target is tilted.,117,35,3,4,0,0,0,0,0,0,0,0,0,0,0,0,1,1,1,117,space,3.3975578999998106,None,0,1,0.44542920000003505,None,space,3.104870199999823,None,0,0,0,0,,,,,4,3,35,7,114.34567229999993,,,,,,,,,,,,,,,,,,,,,114.3306163999996,114.34567229999993,114.82978959999946,114.83428209999965,114.85185479999927,115.31221369999912,,,,,115.3123345999993,115.32910149999952,,115.51280809999935,114.85185479999927,,,,,,,,0,1,0.44542920000003505,None,,,,,,,,832,20,V,R,2026-02-23_12h13.50.784,VisualSearch_2526_3,,2025.2.4,2026-02-23 12h13.51.004725 +0100,
tilted.xlsx,The target is tilted.,117,36,4,4,1,1,1,1,1,1,1,1,1,1,1,1,0,11,12,117,space,3.3975578999998106,None,1,1,1.7394063000001552,None,space,3.104870199999823,None,0,0,0,0,,,,,4,4,36,0,115.52920499999982,,,,,,,,,,,,,,,,,,,,,115.51357019999978,115.52920499999982,116.0127838999997,116.01785599999948,116.03503609999916,117.7796871999999,,,,,117.77988049999931,117.79492069999924,117.99542959999962,117.97925139999916,,,,,,,,,1,1,1.7394063000001552,None,,,,,,,,832,20,V,R,2026-02-23_12h13.50.784,VisualSearch_2526_3,,2025.2.4,2026-02-23 12h13.51.004725 +0100,
tilted.xlsx,The target is tilted.,117,37,5,4,0,1,1,1,0,0,0,0,0,0,0,0,1,3,4,117,space,3.3975578999998106,None,0,1,0.5981773000003159,None,space,3.104870199999823,None,0,0,0,0,,,,,4,5,37,6,117.99542959999962,,,,,,,,,,,,,,,,,,,,,117.98001709999971,117.99542959999962,118.47889999999916,118.48331179999968,118.49806069999977,119.11221509999996,,,,,119.11237879999953,119.12787109999954,119.32854139999927,119.31242089999978,118.49806069999977,,,,,,,,0,1,0.5981773000003159,None,,,,,,,,832,20,V,R,2026-02-23_12h13.50.784,VisualSearch_2526_3,,2025.2.4,2026-02-23 12h13.51.004725 +0100,
tilted.xlsx,The target is tilted.,117,38,6,4,1,1,1,1,0,0,0,0,0,0,0,0,0,3,4,117,space,3.3975578999998106,None,0,0,1.1883042999997997,None,space,3.104870199999823,None,0,0,0,0,,,,,4,6,38,2,119.32854139999927,,,,,,,,,,,,,,,,,,,,,119.31312979999984,119.32854139999927,119.81252499999937,119.81755769999927,119.83607319999919,121.02910779999911,,,,,121.02930539999943,121.04439179999918,121.24480529999983,121.22862349999923,119.83607319999919,,,,,,,,0,0,1.1883042999997997,None,,,,,,,,832,20,V,R,2026-02-23_12h13.50.784,VisualSearch_2526_3,,2025.2.4,2026-02-23 12h13.51.004725 +0100,
tilted.xlsx,The target is tilted.,117,39,7,4,1,0,0,0,0,0,0,0,0,0,0,0,0,0,1,117,space,3.3975578999998106,None,1,1,0.6502139000003808,None,space,3.104870199999823,None,0,0,0,0,,,,,4,7,39,3,121.24480529999983,,,,,,,,,,,,,,,,,,,,,121.22937449999972,121.24480529999983,121.72857139999996,121.7329536999996,121.74838709999949,122.41178629999922,,,,,122.41197909999937,122.4274235999992,122.62806309999996,122.61202669999966,121.74838709999949,,,,,,,,1,1,0.6502139000003808,None,,,,,,,,832,20,V,R,2026-02-23_12h13.50.784,VisualSearch_2526_3,,2025.2.4,2026-02-23 12h13.51.004725 +0100,
tilted.xlsx,The target is tilted.,117,40,0,5,0,1,1,1,1,1,1,1,1,1,1,1,1,11,12,117,space,3.3975578999998106,None,1,0,1.0147165999997014,None,space,3.104870199999823,None,0,0,0,0,,,,,5,0,40,4,122.62806309999996,,,,,,,,,,,,,,,,,,,,,122.61285079999925,122.62806309999996,123.11196399999972,123.11704329999975,123.1332051999998,124.1616970999994,,,,,124.16189659999964,124.17715520000002,124.3769870999995,124.36095339999974,123.1332051999998,,,,,,,,1,0,1.0147165999997014,None,,,,,,,,832,20,V,R,2026-02-23_12h13.50.784,VisualSearch_2526_3,,2025.2.4,2026-02-23 12h13.51.004725 +0100,
tilted.xlsx,The target is tilted.,117,41,1,5,1,1,1,1,1,1,1,1,1,1,1,1,0,11,12,117,space,3.3975578999998106,None,1,1,1.7384780000002138,None,space,3.104870199999823,None,0,0,0,0,,,,,5,1,41,0,124.3769870999995,,,,,,,,,,,,,,,,,,,,,124.36122879999948,124.3769870999995,124.86076159999993,124.86260909999964,124.87703959999999,126.6279113999999,,,,,126.6280498999995,126.64338189999944,126.84405949999928,126.82779599999958,124.87703959999999,,,,,,,,1,1,1.7384780000002138,None,,,,,,,,832,20,V,R,2026-02-23_12h13.50.784,VisualSearch_2526_3,,2025.2.4,2026-02-23 12h13.51.004725 +0100,
tilted.xlsx,The target is tilted.,117,42,2,5,0,1,1,1,1,1,1,1,0,0,0,0,1,7,8,117,space,3.3975578999998106,None,0,1,1.699328300000161,None,space,3.104870199999823,None,0,0,0,0,,,,,5,2,42,5,126.84405949999928,,,,,,,,,,,,,,,,,,,,,126.82854969999971,126.84405949999928,127.32766509999965,127.33209949999946,127.3479942999993,129.06066269999974,,,,,129.0608515999993,129.0762238999996,129.27683309999975,129.26081689999955,127.3479942999993,,,,,,,,0,1,1.699328300000161,None,,,,,,,,832,20,V,R,2026-02-23_12h13.50.784,VisualSearch_2526_3,,2025.2.4,2026-02-23 12h13.51.004725 +0100,
tilted.xlsx,The target is tilted.,117,43,3,5,1,1,1,1,1,1,1,1,0,0,0,0,0,7,8,117,space,3.3975578999998106,None,1,1,1.4506844999996247,None,space,3.104870199999823,None,0,0,0,0,,,,,5,3,43,1,129.27683309999975,,,,,,,,,,,,,,,,,,,,,129.26152789999924,129.27683309999975,129.76085599999988,129.76600699999926,129.78116799999952,131.24450239999987,,,,,131.24471829999948,131.25934929999949,131.45954599999914,131.4438166,129.78116799999952,,,,,,,,1,1,1.4506844999996247,None,,,,,,,,832,20,V,R,2026-02-23_12h13.50.784,VisualSearch_2526_3,,2025.2.4,2026-02-23 12h13.51.004725 +0100,
tilted.xlsx,The target is tilted.,117,44,4,5,0,1,1,1,0,0,0,0,0,0,0,0,1,3,4,117,space,3.3975578999998106,None,0,1,0.8993518999996013,None,space,3.104870199999823,None,0,0,0,0,,,,,5,4,44,6,131.45954599999914,,,,,,,,,,,,,,,,,,,,,131.44453189999967,131.45954599999914,131.94367329999932,131.94831929999964,131.9650901999994,132.8766898999993,,,,,132.87688639999942,132.8923132,133.09260339999946,133.07657009999912,131.9650901999994,,,,,,,,0,1,0.8993518999996013,None,,,,,,,,832,20,V,R,2026-02-23_12h13.50.784,VisualSearch_2526_3,,2025.2.4,2026-02-23 12h13.51.004725 +0100,
tilted.xlsx,The target is tilted.,117,45,5,5,1,1,1,1,0,0,0,0,0,0,0,0,0,3,4,117,space,3.3975578999998106,None,0,0,0.6600539000000936,None,space,3.104870199999823,None,0,0,0,0,,,,,5,5,45,2,133.09260339999946,,,,,,,,,,,,,,,,,,,,,133.07732869999927,133.09260339999946,133.57648939999945,133.58152459999928,133.59803249999914,134.26007649999974,,,,,134.26025349999964,134.27545929999997,134.47550619999947,134.45932289999928,133.59803249999914,,,,,,,,0,0,0.6600539000000936,None,,,,,,,,832,20,V,R,2026-02-23_12h13.50.784,VisualSearch_2526_3,,2025.2.4,2026-02-23 12h13.51.004725 +0100,
tilted.xlsx,The target is tilted.,117,46,6,5,1,0,0,0,0,0,0,0,0,0,0,0,0,0,1,117,space,3.3975578999998106,None,1,1,0.6654593999992358,None,space,3.104870199999823,None,0,0,0,0,,,,,5,6,46,3,134.47550619999947,,,,,,,,,,,,,,,,,,,,,134.45997549999993,134.47550619999947,134.9598417999996,134.9643956,134.97940369999924,135.65967479999927,,,,,135.6598914999995,135.67523529999926,135.87537969999994,135.8592495999992,134.97940369999924,,,,,,,,1,1,0.6654593999992358,None,,,,,,,,832,20,V,R,2026-02-23_12h13.50.784,VisualSearch_2526_3,,2025.2.4,2026-02-23 12h13.51.004725 +0100,
tilted.xlsx,The target is tilted.,117,47,7,5,0,0,0,0,0,0,0,0,0,0,0,0,1,1,1,117,space,3.3975578999998106,None,0,1,0.5609751000001779,None,space,3.104870199999823,None,0,0,0,0,,,,,5,7,47,7,135.87537969999994,,,,,,,,,,,,,,,,,,,,,135.8599379999996,135.87537969999994,136.35974799999985,136.36467919999996,136.38104529999964,136.94315559999995,,,,,136.94334489999983,136.95811149999918,137.15892329999951,137.14259409999977,136.38104529999964,,,,,,,,0,1,0.5609751000001779,None,,,,,,,,832,20,V,R,2026-02-23_12h13.50.784,VisualSearch_2526_3,,2025.2.4,2026-02-23 12h13.51.004725 +0100,
tilted.xlsx,The target is tilted.,117,48,0,6,0,1,1,1,1,1,1,1,1,1,1,1,1,11,12,117,space,3.3975578999998106,None,0,1,1.9903201000006447,None,space,3.104870199999823,None,0,0,0,0,,,,,6,0,48,4,137.15892329999951,,,,,,,,,,,,,,,,,,,,,137.1433395999993,137.15892329999951,137.64297369999986,137.64809349999996,137.66509919999953,139.65864539999984,,,,,139.6587430999998,139.67450649999955,139.87519019999945,139.8590338999993,137.66509919999953,,,,,,,,0,1,1.9903201000006447,None,,,,,,,,832,20,V,R,2026-02-23_12h13.50.784,VisualSearch_2526_3,,2025.2.4,2026-02-23 12h13.51.004725 +0100,
tilted.xlsx,The target is tilted.,117,49,1,6,0,0,0,0,0,0,0,0,0,0,0,0,1,1,1,117,space,3.3975578999998106,None,0,1,0.6238838999997824,None,space,3.104870199999823,None,0,0,0,0,,,,,6,1,49,7,139.87519019999945,,,,,,,,,,,,,,,,,,,,,139.85976419999952,139.87519019999945,140.35896799999955,140.36333469999954,140.3811894999999,141.00903359999938,,,,,141.00921369999924,141.02436359999956,141.22498239999913,141.20881389999977,140.3811894999999,,,,,,,,0,1,0.6238838999997824,None,,,,,,,,832,20,V,R,2026-02-23_12h13.50.784,VisualSearch_2526_3,,2025.2.4,2026-02-23 12h13.51.004725 +0100,
tilted.xlsx,The target is tilted.,117,50,2,6,1,1,1,1,1,1,1,1,0,0,0,0,0,7,8,117,space,3.3975578999998106,None,1,1,1.0905228000001443,None,space,3.104870199999823,None,0,0,0,0,,,,,6,2,50,1,141.22498239999913,,,,,,,,,,,,,,,,,,,,,141.20952139999918,141.22498239999913,141.7088864999996,141.71400639999956,141.72922149999977,142.8258006999995,,,,,142.8260034999994,142.8408075999996,143.0413753999992,143.02533399999993,141.72922149999977,,,,,,,,1,1,1.0905228000001443,None,,,,,,,,832,20,V,R,2026-02-23_12h13.50.784,VisualSearch_2526_3,,2025.2.4,2026-02-23 12h13.51.004725 +0100,
tilted.xlsx,The target is tilted.,117,51,3,6,1,0,0,0,0,0,0,0,0,0,0,0,0,0,1,117,space,3.3975578999998106,None,1,1,0.8563655000007202,None,space,3.104870199999823,None,0,0,0,0,,,,,6,3,51,3,143.0413753999992,,,,,,,,,,,,,,,,,,,,,143.02607669999998,143.0413753999992,143.52523779999956,143.52969379999922,143.54720649999945,144.40870529999938,,,,,144.40890879999915,144.4238808,144.62438799999927,144.60811379999996,143.54720649999945,,,,,,,,1,1,0.8563655000007202,None,,,,,,,,832,20,V,R,2026-02-23_12h13.50.784,VisualSearch_2526_3,,2025.2.4,2026-02-23 12h13.51.004725 +0100,
tilted.xlsx,The target is tilted.,117,52,4,6,0,1,1,1,0,0,0,0,0,0,0,0,1,3,4,117,space,3.3975578999998106,None,0,1,1.0968917000000147,None,space,3.104870199999823,None,0,0,0,0,,,,,6,4,52,6,144.62438799999927,,,,,,,,,,,,,,,,,,,,,144.60891699999956,144.62438799999927,145.1082190999996,145.11245509999935,145.12502979999954,146.22556229999918,,,,,146.22577079999974,146.24022419999983,146.44083779999983,146.42471159999968,145.12502979999954,,,,,,,,0,1,1.0968917000000147,None,,,,,,,,832,20,V,R,2026-02-23_12h13.50.784,VisualSearch_2526_3,,2025.2.4,2026-02-23 12h13.51.004725 +0100,
tilted.xlsx,The target is tilted.,117,53,5,6,1,1,1,1,1,1,1,1,1,1,1,1,0,11,12,117,space,3.3975578999998106,None,0,0,1.4015191999997114,None,space,3.104870199999823,None,0,0,0,0,,,,,6,5,53,0,146.44083779999983,,,,,,,,,,,,,,,,,,,,,146.42553289999978,146.44083779999983,146.92469809999966,146.92953559999933,146.94059329999982,148.35745099999986,,,,,148.35761959999945,148.37305259999994,148.57378059999974,148.55748499999936,146.94059329999982,,,,,,,,0,0,1.4015191999997114,None,,,,,,,,832,20,V,R,2026-02-23_12h13.50.784,VisualSearch_2526_3,,2025.2.4,2026-02-23 12h13.51.004725 +0100,
tilted.xlsx,The target is tilted.,117,54,6,6,0,1,1,1,1,1,1,1,0,0,0,0,1,7,8,117,space,3.3975578999998106,None,0,1,1.380454699999973,None,space,3.104870199999823,None,0,0,0,0,,,,,6,6,54,5,148.57378059999974,,,,,,,,,,,,,,,,,,,,,148.5582416999996,148.57378059999974,149.0574858,149.06205859999955,149.07764699999916,150.47388089999913,,,,,150.47408019999966,150.48955259999912,150.6900711999997,150.67396389999976,149.07764699999916,,,,,,,,0,1,1.380454699999973,None,,,,,,,,832,20,V,R,2026-02-23_12h13.50.784,VisualSearch_2526_3,,2025.2.4,2026-02-23 12h13.51.004725 +0100,
tilted.xlsx,The target is tilted.,117,55,7,6,1,1,1,1,0,0,0,0,0,0,0,0,0,3,4,117,space,3.3975578999998106,None,0,0,0.7478062999998656,None,space,3.104870199999823,None,0,0,0,0,,,,,6,7,55,2,150.6900711999997,,,,,,,,,,,,,,,,,,,,,150.67473569999947,150.6900711999997,151.17342699999972,151.17512869999973,151.18987229999948,151.94105779999973,,,,,151.94127109999954,151.9558718999997,152.15622519999943,152.13928439999927,151.18987229999948,,,,,,,,0,0,0.7478062999998656,None,,,,,,,,832,20,V,R,2026-02-23_12h13.50.784,VisualSearch_2526_3,,2025.2.4,2026-02-23 12h13.51.004725 +0100,
tilted.xlsx,The target is tilted.,117,56,0,7,0,1,1,1,1,1,1,1,1,1,1,1,1,11,12,117,space,3.3975578999998106,None,1,0,1.7993102999998882,None,space,3.104870199999823,None,0,0,0,0,,,,,7,0,56,4,152.15622519999943,,,,,,,,,,,,,,,,,,,,,152.1395208999993,152.15622519999943,152.64036899999974,152.6456693,152.66204909999942,154.47375189999912,,,,,154.47392789999958,154.4888764999996,154.6894298999996,154.67332019999958,152.66204909999942,,,,,,,,1,0,1.7993102999998882,None,,,,,,,,832,20,V,R,2026-02-23_12h13.50.784,VisualSearch_2526_3,,2025.2.4,2026-02-23 12h13.51.004725 +0100,
tilted.xlsx,The target is tilted.,117,57,1,7,0,0,0,0,0,0,0,0,0,0,0,0,1,1,1,117,space,3.3975578999998106,None,0,1,0.47225930000058725,None,space,3.104870199999823,None,0,0,0,0,,,,,7,1,57,7,154.6894298999996,,,,,,,,,,,,,,,,,,,,,154.67403299999933,154.6894298999996,155.1733276999994,155.17843319999974,155.19423889999962,155.6736377999996,,,,,155.67383449999943,155.68876829999954,155.88925539999946,155.87322159999985,155.19423889999962,,,,,,,,0,1,0.47225930000058725,None,,,,,,,,832,20,V,R,2026-02-23_12h13.50.784,VisualSearch_2526_3,,2025.2.4,2026-02-23 12h13.51.004725 +0100,
tilted.xlsx,The target is tilted.,117,58,2,7,0,1,1,1,1,1,1,1,0,0,0,0,1,7,8,117,space,3.3975578999998106,None,0,1,1.427954800000407,None,space,3.104870199999823,None,0,0,0,0,,,,,7,2,58,5,155.88925539999946,,,,,,,,,,,,,,,,,,,,,155.87402929999917,155.88925539999946,156.37306589999935,156.37745909999921,156.39063839999926,157.8229180999997,,,,,157.82311879999997,157.83830259999922,158.03881589999946,158.0224306,156.39063839999926,,,,,,,,0,1,1.427954800000407,None,,,,,,,,832,20,V,R,2026-02-23_12h13.50.784,VisualSearch_2526_3,,2025.2.4,2026-02-23 12h13.51.004725 +0100,
tilted.xlsx,The target is tilted.,117,59,3,7,1,1,1,1,1,1,1,1,0,0,0,0,0,7,8,117,space,3.3975578999998106,None,1,1,0.935344399999849,None,space,3.104870199999823,None,0,0,0,0,,,,,7,3,59,1,158.03881589999946,,,,,,,,,,,,,,,,,,,,,158.02300999999989,158.03881589999946,158.5217066999994,158.52290389999962,158.53835849999996,159.48899509999956,,,,,159.48918969999977,159.50470009999935,159.7050961999994,159.6888199999994,158.53835849999996,,,,,,,,1,1,0.935344399999849,None,,,,,,,,832,20,V,R,2026-02-23_12h13.50.784,VisualSearch_2526_3,,2025.2.4,2026-02-23 12h13.51.004725 +0100,
tilted.xlsx,The target is tilted.,117,60,4,7,1,1,1,1,0,0,0,0,0,0,0,0,0,3,4,117,space,3.3975578999998106,None,0,0,0.7333708999994997,None,space,3.104870199999823,None,0,0,0,0,,,,,7,4,60,2,159.7050961999994,,,,,,,,,,,,,,,,,,,,,159.68962769999962,159.7050961999994,160.1891802,160.19443879999926,160.21292209999956,160.95616309999969,,,,,160.95636059999924,160.97114729999976,161.17167849999987,161.1554170999998,160.21292209999956,,,,,,,,0,0,0.7333708999994997,None,,,,,,,,832,20,V,R,2026-02-23_12h13.50.784,VisualSearch_2526_3,,2025.2.4,2026-02-23 12h13.51.004725 +0100,
tilted.xlsx,The target is tilted.,117,61,5,7,0,1,1,1,0,0,0,0,0,0,0,0,1,3,4,117,space,3.3975578999998106,None,0,1,0.7970777000000453,None,space,3.104870199999823,None,0,0,0,0,,,,,7,5,61,6,161.17167849999987,,,,,,,,,,,,,,,,,,,,,161.15615239999988,161.17167849999987,161.6556716999994,161.66063649999978,161.6777788999998,162.4886738999994,,,,,162.48887309999918,162.50452719999976,162.70479349999914,162.68871039999976,161.6777788999998,,,,,,,,0,1,0.7970777000000453,None,,,,,,,,832,20,V,R,2026-02-23_12h13.50.784,VisualSearch_2526_3,,2025.2.4,2026-02-23 12h13.51.004725 +0100,
tilted.xlsx,The target is tilted.,117,62,6,7,1,1,1,1,1,1,1,1,1,1,1,1,0,11,12,117,space,3.3975578999998106,None,1,1,1.5798768000004202,None,space,3.104870199999823,None,0,0,0,0,,,,,7,6,62,0,162.70479349999914,,,,,,,,,,,,,,,,,,,,,162.6895098999994,162.70479349999914,163.1883371999993,163.1934609,163.20917099999951,164.80469519999951,,,,,164.80485549999958,164.82033749999937,165.02106859999913,165.00495239999964,163.20917099999951,,,,,,,,1,1,1.5798768000004202,None,,,,,,,,832,20,V,R,2026-02-23_12h13.50.784,VisualSearch_2526_3,,2025.2.4,2026-02-23 12h13.51.004725 +0100,
tilted.xlsx,The target is tilted.,117,63,7,7,1,0,0,0,0,0,0,0,0,0,0,0,0,0,1,117,space,3.3975578999998106,None,1,1,0.6129030000001876,None,space,3.104870199999823,None,0,0,0,0,,,,,7,7,63,3,165.02106859999913,,,,,,,,,,,,,,,,,,,,,165.00569359999918,165.02106859999913,165.50492889999987,165.50946019999992,165.52564939999957,166.1536985999992,,,,,166.15376469999956,166.17060109999966,,166.35393509999994,165.52564939999957,,,,,,,,1,1,0.6129030000001876,None,,,,,,,,832,20,V,R,2026-02-23_12h13.50.784,VisualSearch_2526_3,,2025.2.4,2026-02-23 12h13.51.004725 +0100,
tilted.xlsx,The target is tilted.,117,64,0,8,1,0,0,0,0,0,0,0,0,0,0,0,0,0,1,117,space,3.3975578999998106,None,1,1,0.5346363999997266,None,space,3.104870199999823,None,0,0,0,0,,,,,8,0,64,3,166.37038799999937,,,,,,,,,,,,,,,,,,,,,166.35463399999935,166.37038799999937,166.85434189999978,166.8594762999992,166.87823689999914,167.42106239999976,,,,,167.42120579999937,167.4366771999994,167.63713019999977,167.62067359999946,,,,,,,,,1,1,0.5346363999997266,None,,,,,,,,832,20,V,R,2026-02-23_12h13.50.784,VisualSearch_2526_3,,2025.2.4,2026-02-23 12h13.51.004725 +0100,
tilted.xlsx,The target is tilted.,117,65,1,8,0,1,1,1,1,1,1,1,1,1,1,1,1,11,12,117,space,3.3975578999998106,None,0,1,1.6671160999994754,None,space,3.104870199999823,None,0,0,0,0,,,,,8,1,65,4,167.63713019999977,,,,,,,,,,,,,,,,,,,,,167.62142679999943,167.63713019999977,168.1208504999995,168.1259330999992,168.14365869999983,169.82121299999926,,,,,169.82138679999935,169.83634139999958,170.03676469999937,170.0203701999999,168.14365869999983,,,,,,,,0,1,1.6671160999994754,None,,,,,,,,832,20,V,R,2026-02-23_12h13.50.784,VisualSearch_2526_3,,2025.2.4,2026-02-23 12h13.51.004725 +0100,
tilted.xlsx,The target is tilted.,117,66,2,8,1,1,1,1,1,1,1,1,0,0,0,0,0,7,8,117,space,3.3975578999998106,None,1,1,1.2806510000000344,None,space,3.104870199999823,None,0,0,0,0,,,,,8,2,66,1,170.03676469999937,,,,,,,,,,,,,,,,,,,,,170.02111479999985,170.03676469999937,170.51986399999987,170.52230879999934,170.53663509999933,171.82072889999927,,,,,171.8209251999997,171.8362475999993,172.03636459999962,172.02038149999953,170.53663509999933,,,,,,,,1,1,1.2806510000000344,None,,,,,,,,832,20,V,R,2026-02-23_12h13.50.784,VisualSearch_2526_3,,2025.2.4,2026-02-23 12h13.51.004725 +0100,
tilted.xlsx,The target is tilted.,117,67,3,8,1,1,1,1,0,0,0,0,0,0,0,0,0,3,4,117,space,3.3975578999998106,None,1,1,0.803631900000255,None,space,3.104870199999823,None,0,0,0,0,,,,,8,3,67,2,172.03636459999962,,,,,,,,,,,,,,,,,,,,,172.0210993999999,172.03636459999962,172.52033729999948,172.52469929999916,172.54218919999948,173.35416629999963,,,,,173.35439049999968,173.36904069999946,173.56932249999954,173.55302739999934,172.54218919999948,,,,,,,,1,1,0.803631900000255,None,,,,,,,,832,20,V,R,2026-02-23_12h13.50.784,VisualSearch_2526_3,,2025.2.4,2026-02-23 12h13.51.004725 +0100,
tilted.xlsx,The target is tilted.,117,68,4,8,0,1,1,1,0,0,0,0,0,0,0,0,1,3,4,117,space,3.3975578999998106,None,0,1,0.690554499999962,None,space,3.104870199999823,None,0,0,0,0,,,,,8,4,68,6,173.56932249999954,,,,,,,,,,,,,,,,,,,,,173.55376269999942,173.56932249999954,174.05309879999913,174.0577429999994,174.06922459999987,174.7702049999998,,,,,174.77040109999962,174.78554079999958,174.98543579999932,174.97000789999947,174.06922459999987,,,,,,,,0,1,0.690554499999962,None,,,,,,,,832,20,V,R,2026-02-23_12h13.50.784,VisualSearch_2526_3,,2025.2.4,2026-02-23 12h13.51.004725 +0100,
tilted.xlsx,The target is tilted.,117,69,5,8,1,1,1,1,1,1,1,1,1,1,1,1,0,11,12,117,space,3.3975578999998106,None,0,0,1.211485000000721,None,space,3.104870199999823,None,0,0,0,0,,,,,8,5,69,0,174.98543579999932,,,,,,,,,,,,,,,,,,,,,174.9708189999992,174.98543579999932,175.4698811999997,175.4747822999998,175.4904788999993,176.70331409999926,,,,,176.70348789999935,176.71851139999944,176.9190420999994,176.9029862999996,175.4904788999993,,,,,,,,0,0,1.211485000000721,None,,,,,,,,832,20,V,R,2026-02-23_12h13.50.784,VisualSearch_2526_3,,2025.2.4,2026-02-23 12h13.51.004725 +0100,
tilted.xlsx,The target is tilted.,117,70,6,8,0,1,1,1,1,1,1,1,0,0,0,0,1,7,8,117,space,3.3975578999998106,None,0,1,1.406831800000873,None,space,3.104870199999823,None,0,0,0,0,,,,,8,6,70,5,176.9190420999994,,,,,,,,,,,,,,,,,,,,,176.90369359999931,176.9190420999994,177.4027718999996,177.4071912999998,177.42200089999915,178.8357600999998,,,,,178.83582439999918,178.8512154,179.05188309999994,179.03486389999944,177.42200089999915,,,,,,,,0,1,1.406831800000873,None,,,,,,,,832,20,V,R,2026-02-23_12h13.50.784,VisualSearch_2526_3,,2025.2.4,2026-02-23 12h13.51.004725 +0100,
tilted.xlsx,The target is tilted.,117,71,7,8,0,0,0,0,0,0,0,0,0,0,0,0,1,1,1,117,space,3.3975578999998106,None,0,1,0.4663732999997592,None,space,3.104870199999823,None,0,0,0,0,,,,,8,7,71,7,179.05188309999994,,,,,,,,,,,,,,,,,,,,,179.03518629999962,179.05188309999994,179.5359899999994,179.54036459999952,179.55603119999978,180.03588089999994,,,,,180.0360596999999,180.05131849999998,180.25188649999927,180.23533839999982,179.55603119999978,,,,,,,,0,1,0.4663732999997592,None,,,,,,,,832,20,V,R,2026-02-23_12h13.50.784,VisualSearch_2526_3,,2025.2.4,2026-02-23 12h13.51.004725 +0100,
tilted.xlsx,The target is tilted.,117,72,0,9,0,1,1,1,1,1,1,1,0,0,0,0,1,7,8,117,space,3.3975578999998106,None,0,1,2.1023260000001756,None,space,3.104870199999823,None,0,0,0,0,,,,,9,0,72,5,180.25188649999927,,,,,,,,,,,,,,,,,,,,,180.2360923999995,180.25188649999927,180.73568349999914,180.7405872999998,180.7575055999996,182.8688816999993,,,,,182.8690401999993,182.88415239999995,183.08465109999997,183.0683967999994,180.7575055999996,,,,,,,,0,1,2.1023260000001756,None,,,,,,,,832,20,V,R,2026-02-23_12h13.50.784,VisualSearch_2526_3,,2025.2.4,2026-02-23 12h13.51.004725 +0100,
tilted.xlsx,The target is tilted.,117,73,1,9,1,1,1,1,1,1,1,1,1,1,1,1,0,11,12,117,space,3.3975578999998106,None,1,1,1.0981916000000638,None,space,3.104870199999823,None,0,0,0,0,,,,,9,1,73,0,183.08465109999997,,,,,,,,,,,,,,,,,,,,,183.06908849999945,183.08465109999997,183.56847789999938,183.5728812999996,183.5889748999998,184.70141409999997,,,,,184.70157219999965,184.71704299999965,184.91769979999935,184.90137809999942,183.5889748999998,,,,,,,,1,1,1.0981916000000638,None,,,,,,,,832,20,V,R,2026-02-23_12h13.50.784,VisualSearch_2526_3,,2025.2.4,2026-02-23 12h13.51.004725 +0100,
tilted.xlsx,The target is tilted.,117,74,2,9,1,1,1,1,0,0,0,0,0,0,0,0,0,3,4,117,space,3.3975578999998106,None,0,0,0.6147492999998576,None,space,3.104870199999823,None,0,0,0,0,,,,,9,2,74,2,184.91769979999935,,,,,,,,,,,,,,,,,,,,,184.9021030999993,184.91769979999935,185.4015249999993,185.4058172999994,185.4220620999995,186.05128239999976,,,,,186.05146929999955,186.06703169999946,186.2675436999998,186.25152499999967,185.4220620999995,,,,,,,,0,0,0.6147492999998576,None,,,,,,,,832,20,V,R,2026-02-23_12h13.50.784,VisualSearch_2526_3,,2025.2.4,2026-02-23 12h13.51.004725 +0100,
tilted.xlsx,The target is tilted.,117,75,3,9,1,1,1,1,1,1,1,1,0,0,0,0,0,7,8,117,space,3.3975578999998106,None,1,1,1.660129599999891,None,space,3.104870199999823,None,0,0,0,0,,,,,9,3,75,1,186.2675436999998,,,,,,,,,,,,,,,,,,,,,186.25232369999958,186.2675436999998,186.75152669999989,186.75653969999985,186.7733746999993,188.43411729999934,,,,,188.43420159999914,188.44963879999978,188.65051409999978,188.6343913999999,186.7733746999993,,,,,,,,1,1,1.660129599999891,None,,,,,,,,832,20,V,R,2026-02-23_12h13.50.784,VisualSearch_2526_3,,2025.2.4,2026-02-23 12h13.51.004725 +0100,
tilted.xlsx,The target is tilted.,117,76,4,9,0,1,1,1,1,1,1,1,1,1,1,1,1,11,12,117,space,3.3975578999998106,None,0,1,1.112975799999731,None,space,3.104870199999823,None,0,0,0,0,,,,,9,4,76,4,188.65051409999978,,,,,,,,,,,,,,,,,,,,,188.63522639999974,188.65051409999978,189.13446779999958,189.13942609999958,189.15662509999947,190.2839312999995,,,,,190.28412209999988,190.29951009999968,190.49974659999953,190.4837334999993,189.15662509999947,,,,,,,,0,1,1.112975799999731,None,,,,,,,,832,20,V,R,2026-02-23_12h13.50.784,VisualSearch_2526_3,,2025.2.4,2026-02-23 12h13.51.004725 +0100,
tilted.xlsx,The target is tilted.,117,77,5,9,0,0,0,0,0,0,0,0,0,0,0,0,1,1,1,117,space,3.3975578999998106,None,0,1,0.5735211999999592,None,space,3.104870199999823,None,0,0,0,0,,,,,9,5,77,7,190.49974659999953,,,,,,,,,,,,,,,,,,,,,190.48446669999976,190.49974659999953,190.98415849999947,190.98946259999957,191.00687479999942,191.5838509999994,,,,,191.58402419999948,191.5993779999999,191.79997249999997,191.78401949999989,191.00687479999942,,,,,,,,0,1,0.5735211999999592,None,,,,,,,,832,20,V,R,2026-02-23_12h13.50.784,VisualSearch_2526_3,,2025.2.4,2026-02-23 12h13.51.004725 +0100,
tilted.xlsx,The target is tilted.,117,78,6,9,0,1,1,1,0,0,0,0,0,0,0,0,1,3,4,117,space,3.3975578999998106,None,0,1,0.6349857999994128,None,space,3.104870199999823,None,0,0,0,0,,,,,9,6,78,6,191.79997249999997,,,,,,,,,,,,,,,,,,,,,191.78481649999958,191.79997249999997,192.28396039999916,192.28886369999964,192.30591289999938,192.95103069999914,,,,,192.95130249999966,192.96588899999915,193.1662493999993,193.15039239999987,192.30591289999938,,,,,,,,0,1,0.6349857999994128,None,,,,,,,,832,20,V,R,2026-02-23_12h13.50.784,VisualSearch_2526_3,,2025.2.4,2026-02-23 12h13.51.004725 +0100,
tilted.xlsx,The target is tilted.,117,79,7,9,1,0,0,0,0,0,0,0,0,0,0,0,0,0,1,117,space,3.3975578999998106,None,0,0,0.35952520000046206,None,space,3.104870199999823,None,0,0,0,0,,,,,9,7,79,3,193.1662493999993,,,,,,,,,,,,,,,,,,,,,193.15119779999986,193.1662493999993,193.6499006999993,193.6548602999992,193.67372459999933,194.04996309999933,,,,,194.05014819999997,194.0656414999994,194.26620189999994,194.2500483999993,193.67372459999933,,,,,,,,0,0,0.35952520000046206,None,,,,,,,,832,20,V,R,2026-02-23_12h13.50.784,VisualSearch_2526_3,,2025.2.4,2026-02-23 12h13.51.004725 +0100,
tilted.xlsx,The target is tilted.,117,80,0,10,0,1,1,1,1,1,1,1,1,1,1,1,1,11,12,117,space,3.3975578999998106,None,0,1,2.3077352000000246,None,space,3.104870199999823,None,0,0,0,0,,,,,10,0,80,4,194.26620189999994,,,,,,,,,,,,,,,,,,,,,194.25075749999996,194.26620189999994,194.74990289999914,194.7544724999998,194.7656522999996,197.08285889999934,,,,,197.0829952999993,197.09824909999952,197.29883719999998,197.2826585999992,194.7656522999996,,,,,,,,0,1,2.3077352000000246,None,,,,,,,,832,20,V,R,2026-02-23_12h13.50.784,VisualSearch_2526_3,,2025.2.4,2026-02-23 12h13.51.004725 +0100,
tilted.xlsx,The target is tilted.,117,81,1,10,1,1,1,1,1,1,1,1,0,0,0,0,0,7,8,117,space,3.3975578999998106,None,0,0,1.6554065000000264,None,space,3.104870199999823,None,0,0,0,0,,,,,10,1,81,1,197.29883719999998,,,,,,,,,,,,,,,,,,,,,197.2833746999995,197.29883719999998,197.78297249999923,197.78782489999958,197.79883269999937,199.46641229999932,,,,,199.46658679999928,199.48137319999933,199.6818205999998,199.6657127999997,197.79883269999937,,,,,,,,0,0,1.6554065000000264,None,,,,,,,,832,20,V,R,2026-02-23_12h13.50.784,VisualSearch_2526_3,,2025.2.4,2026-02-23 12h13.51.004725 +0100,
tilted.xlsx,The target is tilted.,117,82,2,10,1,1,1,1,1,1,1,1,1,1,1,1,0,11,12,117,space,3.3975578999998106,None,0,0,1.7123804000002565,None,space,3.104870199999823,None,0,0,0,0,,,,,10,2,82,0,199.6818205999998,,,,,,,,,,,,,,,,,,,,,199.66649139999936,199.6818205999998,200.1659665999996,200.1707749999996,200.18696609999915,201.91481889999977,,,,,201.91493159999936,201.9308508999993,,202.11528159999943,200.18696609999915,,,,,,,,0,0,1.7123804000002565,None,,,,,,,,832,20,V,R,2026-02-23_12h13.50.784,VisualSearch_2526_3,,2025.2.4,2026-02-23 12h13.51.004725 +0100,
tilted.xlsx,The target is tilted.,117,83,3,10,0,1,1,1,1,1,1,1,0,0,0,0,1,7,8,117,space,3.3975578999998106,None,0,1,1.2303020999997898,None,space,3.104870199999823,None,0,0,0,0,,,,,10,3,83,5,202.1308726999996,,,,,,,,,,,,,,,,,,,,,202.11604809999972,202.1308726999996,202.6151136999997,202.61950139999954,202.63691819999985,203.88157219999994,,,,,203.88173469999947,203.89720989999932,204.09748319999926,204.08179089999976,,,,,,,,,0,1,1.2303020999997898,None,,,,,,,,832,20,V,R,2026-02-23_12h13.50.784,VisualSearch_2526_3,,2025.2.4,2026-02-23 12h13.51.004725 +0100,
tilted.xlsx,The target is tilted.,117,84,4,10,0,0,0,0,0,0,0,0,0,0,0,0,1,1,1,117,space,3.3975578999998106,None,0,1,0.47064440000031027,None,space,3.104870199999823,None,0,0,0,0,,,,,10,4,84,7,204.09748319999926,,,,,,,,,,,,,,,,,,,,,204.08252299999913,204.09748319999926,204.58192979999967,204.58686649999981,204.6022740999997,205.08223029999954,,,,,205.08242639999935,205.09750579999945,205.2976149999995,205.28143979999913,204.6022740999997,,,,,,,,0,1,0.47064440000031027,None,,,,,,,,832,20,V,R,2026-02-23_12h13.50.784,VisualSearch_2526_3,,2025.2.4,2026-02-23 12h13.51.004725 +0100,
tilted.xlsx,The target is tilted.,117,85,5,10,1,0,0,0,0,0,0,0,0,0,0,0,0,0,1,117,space,3.3975578999998106,None,0,0,0.4717845999994097,None,space,3.104870199999823,None,0,0,0,0,,,,,10,5,85,3,205.2976149999995,,,,,,,,,,,,,,,,,,,,,205.28218579999975,205.2976149999995,205.78145259999928,205.78446199999962,205.79723939999985,206.28051499999947,,,,,206.2806197,206.29724119999992,,206.48077990000002,205.79723939999985,,,,,,,,0,0,0.4717845999994097,None,,,,,,,,832,20,V,R,2026-02-23_12h13.50.784,VisualSearch_2526_3,,2025.2.4,2026-02-23 12h13.51.004725 +0100,
tilted.xlsx,The target is tilted.,117,86,6,10,1,1,1,1,0,0,0,0,0,0,0,0,0,3,4,117,space,3.3975578999998106,None,1,1,0.7456734999996115,None,space,3.104870199999823,None,0,0,0,0,,,,,10,6,86,2,206.49711489999936,,,,,,,,,,,,,,,,,,,,,206.4815669999998,206.49711489999936,206.98020029999952,206.98172839999916,206.9966932999996,207.74831389999963,,,,,207.74853579999944,207.76367929999924,207.96365379999952,207.94761129999915,206.9966932999996,,,,,,,,1,1,0.7456734999996115,None,,,,,,,,832,20,V,R,2026-02-23_12h13.50.784,VisualSearch_2526_3,,2025.2.4,2026-02-23 12h13.51.004725 +0100,
tilted.xlsx,The target is tilted.,117,87,7,10,0,1,1,1,0,0,0,0,0,0,0,0,1,3,4,117,space,3.3975578999998106,None,0,1,0.6686996999997064,None,space,3.104870199999823,None,0,0,0,0,,,,,10,7,87,6,207.96365379999952,,,,,,,,,,,,,,,,,,,,,207.94841579999957,207.96365379999952,208.44819709999956,208.45499929999914,208.46928389999994,209.1480163999995,,,,,209.1482232999997,209.16347659999974,209.36383289999958,209.34764689999975,208.46928389999994,,,,,,,,0,1,0.6686996999997064,None,,,,,,,,832,20,V,R,2026-02-23_12h13.50.784,VisualSearch_2526_3,,2025.2.4,2026-02-23 12h13.51.004725 +0100,
tilted.xlsx,The target is tilted.,117,88,0,11,1,1,1,1,1,1,1,1,0,0,0,0,0,7,8,117,space,3.3975578999998106,None,0,0,1.7022343999997247,None,space,3.104870199999823,None,0,0,0,0,,,,,11,0,88,1,209.36383289999958,,,,,,,,,,,,,,,,,,,,,209.34855059999973,209.36383289999958,209.84759309999936,209.85260969999945,209.8693132999997,211.58081409999977,,,,,211.58097159999943,211.5964224999998,211.79614869999932,211.78004689999943,209.8693132999997,,,,,,,,0,0,1.7022343999997247,None,,,,,,,,832,20,V,R,2026-02-23_12h13.50.784,VisualSearch_2526_3,,2025.2.4,2026-02-23 12h13.51.004725 +0100,
tilted.xlsx,The target is tilted.,117,89,1,11,0,1,1,1,1,1,1,1,1,1,1,1,1,11,12,117,space,3.3975578999998106,None,0,1,1.7435228000003917,None,space,3.104870199999823,None,0,0,0,0,,,,,11,1,89,4,211.79614869999932,,,,,,,,,,,,,,,,,,,,,211.78079909999997,211.79614869999932,212.28052799999932,212.2854303999993,212.30353279999963,214.06386869999915,,,,,214.06404659999953,214.0795053999991,214.27952879999975,214.2630492999997,212.30353279999963,,,,,,,,0,1,1.7435228000003917,None,,,,,,,,832,20,V,R,2026-02-23_12h13.50.784,VisualSearch_2526_3,,2025.2.4,2026-02-23 12h13.51.004725 +0100,
tilted.xlsx,The target is tilted.,117,90,2,11,0,1,1,1,1,1,1,1,0,0,0,0,1,7,8,117,space,3.3975578999998106,None,0,1,1.5304132999999638,None,space,3.104870199999823,None,0,0,0,0,,,,,11,2,90,5,214.27952879999975,,,,,,,,,,,,,,,,,,,,,214.26380059999974,214.27952879999975,214.76353649999965,214.76841349999995,214.77910259999953,216.3131530999999,,,,,216.31332519999978,216.3291649999992,216.52922879999915,216.51293629999964,214.77910259999953,,,,,,,,0,1,1.5304132999999638,None,,,,,,,,832,20,V,R,2026-02-23_12h13.50.784,VisualSearch_2526_3,,2025.2.4,2026-02-23 12h13.51.004725 +0100,
tilted.xlsx,The target is tilted.,117,91,3,11,0,1,1,1,0,0,0,0,0,0,0,0,1,3,4,117,space,3.3975578999998106,None,0,1,0.6456608999997115,None,space,3.104870199999823,None,0,0,0,0,,,,,11,3,91,6,216.52922879999915,,,,,,,,,,,,,,,,,,,,,216.51367929999924,216.52922879999915,217.01296869999987,217.01731089999976,217.03406079999968,217.6957995999992,,,,,217.69588419999945,217.71164899999985,217.9123299999992,217.89613829999962,217.03406079999968,,,,,,,,0,1,0.6456608999997115,None,,,,,,,,832,20,V,R,2026-02-23_12h13.50.784,VisualSearch_2526_3,,2025.2.4,2026-02-23 12h13.51.004725 +0100,
tilted.xlsx,The target is tilted.,117,92,4,11,1,0,0,0,0,0,0,0,0,0,0,0,0,0,1,117,space,3.3975578999998106,None,1,1,0.5828821999994034,None,space,3.104870199999823,None,0,0,0,0,,,,,11,4,92,3,217.9123299999992,,,,,,,,,,,,,,,,,,,,,217.89692569999988,217.9123299999992,218.39606169999934,218.40038149999964,218.41500439999982,219.0130694999998,,,,,219.01324739999927,219.0286671999993,219.22857529999965,219.21241869999994,218.41500439999982,,,,,,,,1,1,0.5828821999994034,None,,,,,,,,832,20,V,R,2026-02-23_12h13.50.784,VisualSearch_2526_3,,2025.2.4,2026-02-23 12h13.51.004725 +0100,
tilted.xlsx,The target is tilted.,117,93,5,11,0,0,0,0,0,0,0,0,0,0,0,0,1,1,1,117,space,3.3975578999998106,None,0,1,0.5726525999998557,None,space,3.104870199999823,None,0,0,0,0,,,,,11,5,93,7,219.22857529999965,,,,,,,,,,,,,,,,,,,,,219.21314679999978,219.22857529999965,219.7122260999995,219.7166385999999,219.7285215999991,220.31313729999965,,,,,220.31334909999987,220.32856479999919,220.52812359999916,220.5120408999992,219.7285215999991,,,,,,,,0,1,0.5726525999998557,None,,,,,,,,832,20,V,R,2026-02-23_12h13.50.784,VisualSearch_2526_3,,2025.2.4,2026-02-23 12h13.51.004725 +0100,
tilted.xlsx,The target is tilted.,117,94,6,11,1,1,1,1,0,0,0,0,0,0,0,0,0,3,4,117,space,3.3975578999998106,None,1,1,0.6862166999999317,None,space,3.104870199999823,None,0,0,0,0,,,,,11,6,94,2,220.52812359999916,,,,,,,,,,,,,,,,,,,,,220.51278329999968,220.52812359999916,221.01244829999996,221.01744109999981,221.03633939999963,221.7294538999995,,,,,221.72964759999923,221.74457579999944,221.9451283999997,221.9289403999992,221.03633939999963,,,,,,,,1,1,0.6862166999999317,None,,,,,,,,832,20,V,R,2026-02-23_12h13.50.784,VisualSearch_2526_3,,2025.2.4,2026-02-23 12h13.51.004725 +0100,
tilted.xlsx,The target is tilted.,117,95,7,11,1,1,1,1,1,1,1,1,1,1,1,1,0,11,12,117,space,3.3975578999998106,None,1,1,2.2420603999999003,None,space,3.104870199999823,None,0,0,0,0,,,,,11,7,95,0,221.9451283999997,,,,,,,,,,,,,,,,,,,,,221.92976109999927,221.9451283999997,222.42883699999948,222.4339971999998,222.4509779,224.69517709999946,,,,,224.6953580999998,224.71083829999952,224.91060889999972,224.89442429999963,222.4509779,,,,,,,,1,1,2.2420603999999003,None,,,,,,,,832,20,V,R,2026-02-23_12h13.50.784,VisualSearch_2526_3,,2025.2.4,2026-02-23 12h13.51.004725 +0100,
tilted.xlsx,The target is tilted.,117,96,0,12,0,1,1,1,0,0,0,0,0,0,0,0,1,3,4,117,space,3.3975578999998106,None,0,1,1.155482199999824,None,space,3.104870199999823,None,0,0,0,0,,,,,12,0,96,6,224.91060889999972,,,,,,,,,,,,,,,,,,,,,224.8949367999994,224.91060889999972,225.39513759999954,225.40016299999934,225.41698759999963,226.57836019999922,,,,,226.57857109999986,226.5938972999993,226.79411659999914,226.77789569999914,225.41698759999963,,,,,,,,0,1,1.155482199999824,None,,,,,,,,832,20,V,R,2026-02-23_12h13.50.784,VisualSearch_2526_3,,2025.2.4,2026-02-23 12h13.51.004725 +0100,
tilted.xlsx,The target is tilted.,117,97,1,12,1,1,1,1,1,1,1,1,1,1,1,1,0,11,12,117,space,3.3975578999998106,None,0,0,2.4254612999993697,None,space,3.104870199999823,None,0,0,0,0,,,,,12,1,97,0,226.79411659999914,,,,,,,,,,,,,,,,,,,,,226.77856899999915,226.79411659999914,227.27792789999967,227.28282039999976,227.2999608,229.72788909999963,,,,,229.72806689999925,229.74350949999916,229.94318489999932,229.92741939999996,227.2999608,,,,,,,,0,0,2.4254612999993697,None,,,,,,,,832,20,V,R,2026-02-23_12h13.50.784,VisualSearch_2526_3,,2025.2.4,2026-02-23 12h13.51.004725 +0100,
tilted.xlsx,The target is tilted.,117,98,2,12,0,0,0,0,0,0,0,0,0,0,0,0,1,1,1,117,space,3.3975578999998106,None,0,1,0.5032498999999007,None,space,3.104870199999823,None,0,0,0,0,,,,,12,2,98,7,229.94318489999932,,,,,,,,,,,,,,,,,,,,,229.9281717999993,229.94318489999932,230.42737569999917,230.43173219999971,230.44693799999914,230.96083459999954,,,,,230.96102669999982,230.97638239999924,231.1766705,231.16050779999932,230.44693799999914,,,,,,,,0,1,0.5032498999999007,None,,,,,,,,832,20,V,R,2026-02-23_12h13.50.784,VisualSearch_2526_3,,2025.2.4,2026-02-23 12h13.51.004725 +0100,
tilted.xlsx,The target is tilted.,117,99,3,12,0,1,1,1,1,1,1,1,0,0,0,0,1,7,8,117,space,3.3975578999998106,None,0,1,1.815429199999926,None,space,3.104870199999823,None,0,0,0,0,,,,,12,3,99,5,231.1766705,,,,,,,,,,,,,,,,,,,,,231.1612656999996,231.1766705,231.66070359999958,231.66574489999948,231.68128539999998,233.50947049999922,,,,,233.5095394,233.52607839999928,233.7258628999998,233.7098071999999,231.68128539999998,,,,,,,,0,1,1.815429199999926,None,,,,,,,,832,20,V,R,2026-02-23_12h13.50.784,VisualSearch_2526_3,,2025.2.4,2026-02-23 12h13.51.004725 +0100,
tilted.xlsx,The target is tilted.,117,100,4,12,1,0,0,0,0,0,0,0,0,0,0,0,0,0,1,117,space,3.3975578999998106,None,1,1,0.6050670000004175,None,space,3.104870199999823,None,0,0,0,0,,,,,12,4,100,3,233.7258628999998,,,,,,,,,,,,,,,,,,,,,233.7105400999999,233.7258628999998,234.2098122999996,234.2142331999994,234.23049309999988,234.84423059999972,,,,,234.8444471999992,234.85929059999944,235.05943679999928,235.04299449999962,,,,,,,,,1,1,0.6050670000004175,None,,,,,,,,832,20,V,R,2026-02-23_12h13.50.784,VisualSearch_2526_3,,2025.2.4,2026-02-23 12h13.51.004725 +0100,
tilted.xlsx,The target is tilted.,117,101,5,12,1,1,1,1,0,0,0,0,0,0,0,0,0,3,4,117,space,3.3975578999998106,None,0,0,0.6271025000005466,None,space,3.104870199999823,None,0,0,0,0,,,,,12,5,101,2,235.05943679999928,,,,,,,,,,,,,,,,,,,,,235.0438193,235.05943679999928,235.5433020999999,235.5482634,235.5649115999995,236.19378269999925,,,,,236.19400799999949,236.2088619999995,236.4092830999998,236.3927206999997,235.5649115999995,,,,,,,,0,0,0.6271025000005466,None,,,,,,,,832,20,V,R,2026-02-23_12h13.50.784,VisualSearch_2526_3,,2025.2.4,2026-02-23 12h13.51.004725 +0100,
tilted.xlsx,The target is tilted.,117,102,6,12,1,1,1,1,1,1,1,1,0,0,0,0,0,7,8,117,space,3.3975578999998106,None,1,1,1.912259499999891,None,space,3.104870199999823,None,0,0,0,0,,,,,12,6,102,1,236.4092830999998,,,,,,,,,,,,,,,,,,,,,236.39347019999968,236.4092830999998,236.89301879999948,236.89729589999934,236.91112519999933,238.82613559999936,,,,,238.8263139999999,238.8420116999996,239.04160349999984,239.02565519999916,236.91112519999933,,,,,,,,1,1,1.912259499999891,None,,,,,,,,832,20,V,R,2026-02-23_12h13.50.784,VisualSearch_2526_3,,2025.2.4,2026-02-23 12h13.51.004725 +0100,
tilted.xlsx,The target is tilted.,117,103,7,12,0,1,1,1,1,1,1,1,1,1,1,1,1,11,12,117,space,3.3975578999998106,None,0,1,2.358397999999397,None,space,3.104870199999823,None,0,0,0,0,,,,,12,7,103,4,239.04160349999984,,,,,,,,,,,,,,,,,,,,,239.0263471999997,239.04160349999984,239.52597119999973,239.53037289999975,239.54473269999926,241.9087099999997,,,,,241.90889249999964,241.92435859999932,242.1250298999994,242.10873319999973,239.54473269999926,,,,,,,,0,1,2.358397999999397,None,,,,,,,,832,20,V,R,2026-02-23_12h13.50.784,VisualSearch_2526_3,,2025.2.4,2026-02-23 12h13.51.004725 +0100,
tilted.xlsx,The target is tilted.,117,104,0,13,1,1,1,1,1,1,1,1,1,1,1,1,0,11,12,117,space,3.3975578999998106,None,1,1,2.0029099000003043,None,space,3.104870199999823,None,0,0,0,0,,,,,13,0,104,0,242.1250298999994,,,,,,,,,,,,,,,,,,,,,242.10949709999932,242.1250298999994,242.6085266,242.61288909999985,242.62896679999994,244.6418812999991,,,,,244.6420565999997,244.65745389999938,244.85767039999973,244.8416940999996,242.62896679999994,,,,,,,,1,1,2.0029099000003043,None,,,,,,,,832,20,V,R,2026-02-23_12h13.50.784,VisualSearch_2526_3,,2025.2.4,2026-02-23 12h13.51.004725 +0100,
tilted.xlsx,The target is tilted.,117,105,1,13,0,0,0,0,0,0,0,0,0,0,0,0,1,1,1,117,space,3.3975578999998106,None,0,1,0.5458115000001271,None,space,3.104870199999823,None,0,0,0,0,,,,,13,1,105,7,244.85767039999973,,,,,,,,,,,,,,,,,,,,,244.84241069999916,244.85767039999973,245.34176579999985,245.34612279999965,245.35763459999998,245.90864359999978,,,,,245.90883999999915,245.92422719999922,246.12387939999917,246.10776609999994,245.35763459999998,,,,,,,,0,1,0.5458115000001271,None,,,,,,,,832,20,V,R,2026-02-23_12h13.50.784,VisualSearch_2526_3,,2025.2.4,2026-02-23 12h13.51.004725 +0100,
tilted.xlsx,The target is tilted.,117,106,2,13,1,0,0,0,0,0,0,0,0,0,0,0,0,0,1,117,space,3.3975578999998106,None,1,1,0.5753858999996737,None,space,3.104870199999823,None,0,0,0,0,,,,,13,2,106,3,246.12387939999917,,,,,,,,,,,,,,,,,,,,,246.10851549999916,246.12387939999917,246.60809529999915,246.6131063999992,246.63008499999978,247.20791029999964,,,,,247.20807429999968,247.22396639999988,247.42417059999934,247.4079318999993,246.63008499999978,,,,,,,,1,1,0.5753858999996737,None,,,,,,,,832,20,V,R,2026-02-23_12h13.50.784,VisualSearch_2526_3,,2025.2.4,2026-02-23 12h13.51.004725 +0100,
tilted.xlsx,The target is tilted.,117,107,3,13,0,1,1,1,1,1,1,1,1,1,1,1,1,11,12,117,space,3.3975578999998106,None,0,1,1.4151993999994374,None,space,3.104870199999823,None,0,0,0,0,,,,,13,3,107,4,247.42417059999934,,,,,,,,,,,,,,,,,,,,,247.40864109999984,247.42417059999934,247.90797759999987,247.9129009999997,247.92835409999952,249.35711009999977,,,,,249.35726339999928,249.37341839999954,249.57377499999984,249.55745799999931,247.92835409999952,,,,,,,,0,1,1.4151993999994374,None,,,,,,,,832,20,V,R,2026-02-23_12h13.50.784,VisualSearch_2526_3,,2025.2.4,2026-02-23 12h13.51.004725 +0100,
tilted.xlsx,The target is tilted.,117,108,4,13,1,1,1,1,1,1,1,1,0,0,0,0,0,7,8,117,space,3.3975578999998106,None,0,0,1.139991000000009,None,space,3.104870199999823,None,0,0,0,0,,,,,13,4,108,1,249.57377499999984,,,,,,,,,,,,,,,,,,,,,249.55817969999953,249.57377499999984,250.05748379999932,250.06180549999954,250.07738319999953,251.22458789999928,,,,,251.2247811999996,251.2400233999997,251.44009429999915,251.42403039999954,250.07738319999953,,,,,,,,0,0,1.139991000000009,None,,,,,,,,832,20,V,R,2026-02-23_12h13.50.784,VisualSearch_2526_3,,2025.2.4,2026-02-23 12h13.51.004725 +0100,
tilted.xlsx,The target is tilted.,117,109,5,13,1,1,1,1,0,0,0,0,0,0,0,0,0,3,4,117,space,3.3975578999998106,None,0,0,0.9050451000002795,None,space,3.104870199999823,None,0,0,0,0,,,,,13,5,109,2,251.44009429999915,,,,,,,,,,,,,,,,,,,,,251.4247538999998,251.44009429999915,251.9239893999993,251.92897989999983,251.94675909999933,252.8574762999997,,,,,252.85767169999963,252.87317409999923,253.07302609999988,253.05690459999914,251.94675909999933,,,,,,,,0,0,0.9050451000002795,None,,,,,,,,832,20,V,R,2026-02-23_12h13.50.784,VisualSearch_2526_3,,2025.2.4,2026-02-23 12h13.51.004725 +0100,
tilted.xlsx,The target is tilted.,117,110,6,13,0,1,1,1,1,1,1,1,0,0,0,0,1,7,8,117,space,3.3975578999998106,None,0,1,1.3155346000003192,None,space,3.104870199999823,None,0,0,0,0,,,,,13,6,110,5,253.07302609999988,,,,,,,,,,,,,,,,,,,,,253.05788239999947,253.07302609999988,253.5568573999999,253.5611683999996,253.57710719999977,254.90732409999964,,,,,254.9075903999992,254.92271189999974,255.12286819999917,255.106315,253.57710719999977,,,,,,,,0,1,1.3155346000003192,None,,,,,,,,832,20,V,R,2026-02-23_12h13.50.784,VisualSearch_2526_3,,2025.2.4,2026-02-23 12h13.51.004725 +0100,
tilted.xlsx,The target is tilted.,117,111,7,13,0,1,1,1,0,0,0,0,0,0,0,0,1,3,4,117,space,3.3975578999998106,None,0,1,0.6907196000001932,None,space,3.104870199999823,None,0,0,0,0,,,,,13,7,111,6,255.12286819999917,,,,,,,,,,,,,,,,,,,,,255.10706699999992,255.12286819999917,255.60670599999958,255.61160559999917,255.6224932999994,256.3238180999997,,,,,256.32402679999996,256.3392275999995,256.5392822999993,256.52306409999983,255.6224932999994,,,,,,,,0,1,0.6907196000001932,None,,,,,,,,832,20,V,R,2026-02-23_12h13.50.784,VisualSearch_2526_3,,2025.2.4,2026-02-23 12h13.51.004725 +0100,
tilted.xlsx,The target is tilted.,117,112,0,14,0,1,1,1,1,1,1,1,1,1,1,1,1,11,12,117,space,3.3975578999998106,None,0,1,1.6970518999996784,None,space,3.104870199999823,None,0,0,0,0,,,,,14,0,112,4,256.5392822999993,,,,,,,,,,,,,,,,,,,,,256.5237965999995,256.5392822999993,257.0226297999998,257.0272253999992,257.0446050999999,258.7566803999998,,,,,258.75687429999925,258.7722578999992,258.97219159999986,258.9557397999997,257.0446050999999,,,,,,,,0,1,1.6970518999996784,None,,,,,,,,832,20,V,R,2026-02-23_12h13.50.784,VisualSearch_2526_3,,2025.2.4,2026-02-23 12h13.51.004725 +0100,
tilted.xlsx,The target is tilted.,117,113,1,14,1,1,1,1,0,0,0,0,0,0,0,0,0,3,4,117,space,3.3975578999998106,None,0,0,0.7491085000001476,None,space,3.104870199999823,None,0,0,0,0,,,,,14,1,113,2,258.97219159999986,,,,,,,,,,,,,,,,,,,,,258.9564681999991,258.97219159999986,259.45609709999917,259.4605109999993,259.4761979999994,260.2397738999998,,,,,260.23996889999944,260.25518439999996,260.45532059999914,260.4386644999995,259.4761979999994,,,,,,,,0,0,0.7491085000001476,None,,,,,,,,832,20,V,R,2026-02-23_12h13.50.784,VisualSearch_2526_3,,2025.2.4,2026-02-23 12h13.51.004725 +0100,
tilted.xlsx,The target is tilted.,117,114,2,14,1,1,1,1,1,1,1,1,0,0,0,0,0,7,8,117,space,3.3975578999998106,None,1,1,0.9547226999993654,None,space,3.104870199999823,None,0,0,0,0,,,,,14,2,114,1,260.45532059999914,,,,,,,,,,,,,,,,,,,,,260.4393973999995,260.45532059999914,260.9391803999997,260.9440633999993,260.9578823999991,261.9226598999994,,,,,261.9228545999995,261.9381209999992,262.13838959999975,262.1223393999999,260.9578823999991,,,,,,,,1,1,0.9547226999993654,None,,,,,,,,832,20,V,R,2026-02-23_12h13.50.784,VisualSearch_2526_3,,2025.2.4,2026-02-23 12h13.51.004725 +0100,
tilted.xlsx,The target is tilted.,117,115,3,14,0,1,1,1,0,0,0,0,0,0,0,0,1,3,4,117,space,3.3975578999998106,None,0,1,0.5411971000003177,None,space,3.104870199999823,None,0,0,0,0,,,,,14,3,115,6,262.13838959999975,,,,,,,,,,,,,,,,,,,,,262.1231371999993,262.13838959999975,262.62217639999926,262.6265504999992,262.64338399999997,263.18895859999975,,,,,263.1891638999996,263.20467409999947,263.4046565999997,263.3887826,262.64338399999997,,,,,,,,0,1,0.5411971000003177,None,,,,,,,,832,20,V,R,2026-02-23_12h13.50.784,VisualSearch_2526_3,,2025.2.4,2026-02-23 12h13.51.004725 +0100,
tilted.xlsx,The target is tilted.,117,116,4,14,0,0,0,0,0,0,0,0,0,0,0,0,1,1,1,117,space,3.3975578999998106,None,1,0,0.547802000000047,None,space,3.104870199999823,None,0,0,0,0,,,,,14,4,116,7,263.4046565999997,,,,,,,,,,,,,,,,,,,,,263.3896079999995,263.4046565999997,263.88864339999964,263.8936129999993,263.9082344999997,264.47240299999976,,,,,264.4725977999997,264.48792389999926,264.68747059999987,264.6717485999998,263.9082344999997,,,,,,,,1,0,0.547802000000047,None,,,,,,,,832,20,V,R,2026-02-23_12h13.50.784,VisualSearch_2526_3,,2025.2.4,2026-02-23 12h13.51.004725 +0100,
tilted.xlsx,The target is tilted.,117,117,5,14,1,0,0,0,0,0,0,0,0,0,0,0,0,0,1,117,space,3.3975578999998106,None,1,1,0.8662506000000576,None,space,3.104870199999823,None,0,0,0,0,,,,,14,5,117,3,264.68747059999987,,,,,,,,,,,,,,,,,,,,,264.67246779999914,264.68747059999987,265.1716233999996,265.1766513999992,265.1930674999994,266.07200919999923,,,,,266.07218249999914,266.0876896,266.2875445999998,266.2713135999993,265.1930674999994,,,,,,,,1,1,0.8662506000000576,None,,,,,,,,832,20,V,R,2026-02-23_12h13.50.784,VisualSearch_2526_3,,2025.2.4,2026-02-23 12h13.51.004725 +0100,
tilted.xlsx,The target is tilted.,117,118,6,14,0,1,1,1,1,1,1,1,0,0,0,0,1,7,8,117,space,3.3975578999998106,None,0,1,1.360788599999978,None,space,3.104870199999823,None,0,0,0,0,,,,,14,6,118,5,266.2875445999998,,,,,,,,,,,,,,,,,,,,,266.2720653999995,266.2875445999998,266.7711811999998,266.7759378999999,266.7936086999998,268.1716084999998,,,,,268.17178309999963,268.1871844999996,268.3872649999994,268.3712071,266.7936086999998,,,,,,,,0,1,1.360788599999978,None,,,,,,,,832,20,V,R,2026-02-23_12h13.50.784,VisualSearch_2526_3,,2025.2.4,2026-02-23 12h13.51.004725 +0100,
tilted.xlsx,The target is tilted.,117,119,7,14,1,1,1,1,1,1,1,1,1,1,1,1,0,11,12,117,space,3.3975578999998106,None,1,1,1.2134536000003209,None,space,3.104870199999823,None,0,0,0,0,,,,,14,7,119,0,268.3872649999994,,,,,,,,,,,,,,,,,,,,,268.3719523,268.3872649999994,268.87124069999936,268.8761085999995,268.89342509999915,270.12147209999966,,,,,270.1216822999995,270.1367361999992,270.35484969999925,270.32092699999976,268.89342509999915,,,,,,,,1,1,1.2134536000003209,None,,,,,,,,832,20,V,R,2026-02-23_12h13.50.784,VisualSearch_2526_3,,2025.2.4,2026-02-23 12h13.51.004725 +0100,
tilted.xlsx,The target is tilted.,117,0,0,0,,,,,,,,,,,,,,,,,space,3.3975578999998106,None,,,,,space,3.104870199999823,None,0,0,0,0,,,,,,,,,,,,,,,,,,,,,,,,,,,,,,,,,,,,,,,,,,,,,,,,,,,,,,,,,,,,,,,832,20,V,R,2026-02-23_12h13.50.784,VisualSearch_2526_3,,2025.2.4,2026-02-23 12h13.51.004725 +0100,
vertical.xlsx,The target is tilted.,135,0,0,0,1,0,0,0,0,0,0,0,0,0,0,0,0,0,1,135,space,5.520094399999834,None,1,1,0.42144920000009733,None,,,,0,1,1,1,0,0,0,3,,,,,275.9159218999994,,,,,,,,,,,,,,,270.35484969999925,270.35484969999925,270.35484969999925,space,5.520094399999834,None,275.91187509999963,275.9159218999994,276.40296559999933,276.4074864999993,276.42430869999953,276.8535188999995,1,1,0.42144920000009733,None,276.8536940999993,276.86907959999917,277.0691726999994,277.05318839999927,,,,,,,,,,,,,,,,,,,,832,20,V,R,2026-02-23_12h13.50.784,VisualSearch_2526_3,,2025.2.4,2026-02-23 12h13.51.004725 +0100,
vertical.xlsx,The target is tilted.,135,1,1,0,1,1,1,1,0,0,0,0,0,0,0,0,0,3,4,135,space,5.520094399999834,None,1,1,0.4212808000002042,None,,,,0,1,1,1,0,1,1,2,,,,,277.0691726999994,,,,,,,,,,,,,,,,,,,,,277.05384739999954,277.0691726999994,277.55308029999924,277.55792289999954,277.5745827999999,278.00399949999974,1,1,0.4212808000002042,None,278.0041879999999,278.01907929999925,278.2190551999993,278.20286359999955,277.5745827999999,,,,,,,,,,,,,,,,,,,832,20,V,R,2026-02-23_12h13.50.784,VisualSearch_2526_3,,2025.2.4,2026-02-23 12h13.51.004725 +0100,
vertical.xlsx,The target is tilted.,135,2,2,0,0,0,0,0,0,0,0,0,0,0,0,0,1,1,1,135,space,5.520094399999834,None,0,1,0.5060021999997844,None,,,,0,1,1,1,0,2,2,7,,,,,278.2190551999993,,,,,,,,,,,,,,,,,,,,,278.2036367999999,278.2190551999993,278.702714,278.70785259999957,278.7245250999995,279.2363138999999,0,1,0.5060021999997844,None,279.2364981999999,279.2520134999995,279.4522049999996,279.43610249999983,278.7245250999995,,,,,,,,,,,,,,,,,,,832,20,V,R,2026-02-23_12h13.50.784,VisualSearch_2526_3,,2025.2.4,2026-02-23 12h13.51.004725 +0100,
vertical.xlsx,The target is tilted.,135,3,3,0,0,1,1,1,1,1,1,1,0,0,0,0,1,7,8,135,space,5.520094399999834,None,0,1,0.73382010000023,None,,,,0,1,1,1,0,3,3,5,,,,,279.4522049999996,,,,,,,,,,,,,,,,,,,,,279.4368853999995,279.4522049999996,279.9361380999999,279.9412698999995,279.95797689999927,280.7030464999998,0,1,0.73382010000023,None,280.7032352999995,280.7184776999993,280.91859939999995,280.9024867999997,279.95797689999927,,,,,,,,,,,,,,,,,,,832,20,V,R,2026-02-23_12h13.50.784,VisualSearch_2526_3,,2025.2.4,2026-02-23 12h13.51.004725 +0100,
vertical.xlsx,The target is tilted.,135,4,4,0,1,1,1,1,1,1,1,1,1,1,1,1,0,11,12,135,space,5.520094399999834,None,1,1,1.1372904999998354,None,,,,0,1,1,1,0,4,4,0,,,,,280.91859939999995,,,,,,,,,,,,,,,,,,,,,280.9032469999993,280.91859939999995,281.40256429999954,281.40819249999913,281.4257969999999,282.56934659999934,1,1,1.1372904999998354,None,282.5695366,282.58482059999915,282.7844556,282.7682651999994,281.4257969999999,,,,,,,,,,,,,,,,,,,832,20,V,R,2026-02-23_12h13.50.784,VisualSearch_2526_3,,2025.2.4,2026-02-23 12h13.51.004725 +0100,
vertical.xlsx,The target is tilted.,135,5,5,0,0,1,1,1,0,0,0,0,0,0,0,0,1,3,4,135,space,5.520094399999834,None,0,1,0.6175408999997671,None,,,,0,1,1,1,0,5,5,6,,,,,282.7844556,,,,,,,,,,,,,,,,,,,,,282.76883759999964,282.7844556,283.26876959999936,283.2738903999998,283.2908766999999,283.91897589999917,0,1,0.6175408999997671,None,283.91914429999997,283.9347029999999,284.1345629999996,284.1185194999998,283.2908766999999,,,,,,,,,,,,,,,,,,,832,20,V,R,2026-02-23_12h13.50.784,VisualSearch_2526_3,,2025.2.4,2026-02-23 12h13.51.004725 +0100,
vertical.xlsx,The target is tilted.,135,6,6,0,0,1,1,1,1,1,1,1,1,1,1,1,1,11,12,135,space,5.520094399999834,None,0,1,1.1555084000001443,None,,,,0,1,1,1,0,6,6,4,,,,,284.1345629999996,,,,,,,,,,,,,,,,,,,,,284.1191928999997,284.1345629999996,284.6184734999997,284.6228027999996,284.6382576999995,285.8020014999993,0,1,1.1555084000001443,None,285.8021708999995,285.8176449999992,286.01768699999957,286.0014132999995,284.6382576999995,,,,,,,,,,,,,,,,,,,832,20,V,R,2026-02-23_12h13.50.784,VisualSearch_2526_3,,2025.2.4,2026-02-23 12h13.51.004725 +0100,
vertical.xlsx,The target is tilted.,135,7,7,0,1,1,1,1,1,1,1,1,0,0,0,0,0,7,8,135,space,5.520094399999834,None,0,0,1.0107651000007536,None,,,,0,1,1,1,0,7,7,1,,,,,286.01768699999957,,,,,,,,,,,,,,,,,,,,,286.0020973999999,286.01768699999957,286.5017281999999,286.5066442999996,286.5210438999993,287.5351321999997,0,0,1.0107651000007536,None,287.53530189999947,287.55072989999917,287.75029149999955,287.73432389999925,286.5210438999993,,,,,,,,,,,,,,,,,,,832,20,V,R,2026-02-23_12h13.50.784,VisualSearch_2526_3,,2025.2.4,2026-02-23 12h13.51.004725 +0100,
vertical.xlsx,The target is tilted.,135,0,0,0,1,1,1,1,1,1,1,1,0,0,0,0,0,7,8,135,space,5.520094399999834,None,1,1,0.7457571000004464,None,space,0.9838452000003599,None,0,1,1,1,,,,,0,0,0,1,288.77841089999947,,,,,,,,,,,,,,,,,,,,,288.7748327999998,288.77841089999947,289.26747779999914,289.2725750999998,289.2924774999992,290.05147169999964,,,,,290.0516513999992,290.0670268999993,290.26676419999967,290.25055129999964,,287.7409721999993,287.75029149999955,287.75029149999955,288.7516853999996,space,0.9838452000003599,None,1,1,0.7457571000004464,None,,,,,,,,832,20,V,R,2026-02-23_12h13.50.784,VisualSearch_2526_3,,2025.2.4,2026-02-23 12h13.51.004725 +0100,
vertical.xlsx,The target is tilted.,135,1,1,0,1,1,1,1,1,1,1,1,1,1,1,1,0,11,12,135,space,5.520094399999834,None,1,1,0.6270276000004742,None,space,0.9838452000003599,None,0,1,1,1,,,,,0,1,1,0,290.26676419999967,,,,,,,,,,,,,,,,,,,,,290.2512743999996,290.26676419999967,290.7509044999997,290.7558462999996,290.7737595999997,291.4176385999999,,,,,291.4178174999997,291.4334124999996,291.6331021999995,291.61705429999984,290.7737595999997,,,,,,,,1,1,0.6270276000004742,None,,,,,,,,832,20,V,R,2026-02-23_12h13.50.784,VisualSearch_2526_3,,2025.2.4,2026-02-23 12h13.51.004725 +0100,
vertical.xlsx,The target is tilted.,135,2,2,0,0,1,1,1,0,0,0,0,0,0,0,0,1,3,4,135,space,5.520094399999834,None,0,1,0.5353194999997868,None,space,0.9838452000003599,None,0,1,1,1,,,,,0,2,2,6,291.6331021999995,,,,,,,,,,,,,,,,,,,,,291.6177613,291.6331021999995,292.1174218999995,292.12210949999917,292.13338009999916,292.6843208999999,,,,,292.68451509999977,292.6998904999991,292.89996319999955,292.8838920999997,292.13338009999916,,,,,,,,0,1,0.5353194999997868,None,,,,,,,,832,20,V,R,2026-02-23_12h13.50.784,VisualSearch_2526_3,,2025.2.4,2026-02-23 12h13.51.004725 +0100,
vertical.xlsx,The target is tilted.,135,3,3,0,0,1,1,1,1,1,1,1,0,0,0,0,1,7,8,135,space,5.520094399999834,None,0,1,1.0531879000000117,None,space,0.9838452000003599,None,0,1,1,1,,,,,0,3,3,5,292.89996319999955,,,,,,,,,,,,,,,,,,,,,292.8847004999998,292.89996319999955,293.38393069999984,293.38881879999917,293.4061886999998,294.4672479999999,,,,,294.4674438999991,294.4829089999994,294.68280549999963,294.66674949999924,293.4061886999998,,,,,,,,0,1,1.0531879000000117,None,,,,,,,,832,20,V,R,2026-02-23_12h13.50.784,VisualSearch_2526_3,,2025.2.4,2026-02-23 12h13.51.004725 +0100,
vertical.xlsx,The target is tilted.,135,4,4,0,1,1,1,1,0,0,0,0,0,0,0,0,0,3,4,135,space,5.520094399999834,None,1,1,0.48247859999992215,None,space,0.9838452000003599,None,0,1,1,1,,,,,0,4,4,2,294.68280549999963,,,,,,,,,,,,,,,,,,,,,294.66769489999933,294.68280549999963,295.1665398999994,295.1716215999995,295.1888949999993,295.6839003999994,,,,,295.68409279999923,295.6992492999998,295.89891109999917,295.8826841,295.1888949999993,,,,,,,,1,1,0.48247859999992215,None,,,,,,,,832,20,V,R,2026-02-23_12h13.50.784,VisualSearch_2526_3,,2025.2.4,2026-02-23 12h13.51.004725 +0100,
vertical.xlsx,The target is tilted.,135,5,5,0,0,1,1,1,1,1,1,1,1,1,1,1,1,11,12,135,space,5.520094399999834,None,0,1,0.879400999999234,None,space,0.9838452000003599,None,0,1,1,1,,,,,0,5,5,4,295.89891109999917,,,,,,,,,,,,,,,,,,,,,295.88316719999966,295.89891109999917,296.3834268999999,296.38835329999984,296.40479249999953,297.29944739999974,,,,,297.29958349999924,297.31539559999965,297.5153586999995,297.4993445,296.40479249999953,,,,,,,,0,1,0.879400999999234,None,,,,,,,,832,20,V,R,2026-02-23_12h13.50.784,VisualSearch_2526_3,,2025.2.4,2026-02-23 12h13.51.004725 +0100,
vertical.xlsx,The target is tilted.,135,6,6,0,1,0,0,0,0,0,0,0,0,0,0,0,0,0,1,135,space,5.520094399999834,None,1,1,0.5078315999999177,None,space,0.9838452000003599,None,0,1,1,1,,,,,0,6,6,3,297.5153586999995,,,,,,,,,,,,,,,,,,,,,297.50016049999977,297.5153586999995,297.99930999999924,298.0043670999994,298.0221726,298.53355309999915,,,,,298.5337574999994,298.5489544999991,298.7489982999996,298.7329700999999,298.0221726,,,,,,,,1,1,0.5078315999999177,None,,,,,,,,832,20,V,R,2026-02-23_12h13.50.784,VisualSearch_2526_3,,2025.2.4,2026-02-23 12h13.51.004725 +0100,
vertical.xlsx,The target is tilted.,135,7,7,0,0,0,0,0,0,0,0,0,0,0,0,0,1,1,1,135,space,5.520094399999834,None,0,1,0.506644399999459,None,space,0.9838452000003599,None,0,1,1,1,,,,,0,7,7,7,298.7489982999996,,,,,,,,,,,,,,,,,,,,,298.73378929999944,298.7489982999996,299.2327987999997,299.23774649999996,299.25415899999916,299.76623989999916,,,,,299.76645389999976,299.78201119999994,299.98224129999926,299.9661725999995,299.25415899999916,,,,,,,,0,1,0.506644399999459,None,,,,,,,,832,20,V,R,2026-02-23_12h13.50.784,VisualSearch_2526_3,,2025.2.4,2026-02-23 12h13.51.004725 +0100,
vertical.xlsx,The target is tilted.,135,8,0,1,1,0,0,0,0,0,0,0,0,0,0,0,0,0,1,135,space,5.520094399999834,None,1,1,0.4443965999998909,None,space,0.9838452000003599,None,0,1,1,1,,,,,1,0,8,3,299.98224129999926,,,,,,,,,,,,,,,,,,,,,299.9670598999992,299.98224129999926,300.46610129999954,300.47120259999974,300.48857039999984,300.9498642999997,,,,,300.9501145999993,300.9652630999999,301.1652247999991,301.1487832999992,300.48857039999984,,,,,,,,1,1,0.4443965999998909,None,,,,,,,,832,20,V,R,2026-02-23_12h13.50.784,VisualSearch_2526_3,,2025.2.4,2026-02-23 12h13.51.004725 +0100,
vertical.xlsx,The target is tilted.,135,9,1,1,0,0,0,0,0,0,0,0,0,0,0,0,1,1,1,135,space,5.520094399999834,None,0,1,0.5267562999997608,None,space,0.9838452000003599,None,0,1,1,1,,,,,1,1,9,7,301.1652247999991,,,,,,,,,,,,,,,,,,,,,301.1496411999997,301.1652247999991,301.64909389999957,301.6540301999994,301.6700216999998,302.19945689999986,,,,,302.1996491,302.21463799999947,302.41472949999934,302.3990012999993,301.6700216999998,,,,,,,,0,1,0.5267562999997608,None,,,,,,,,832,20,V,R,2026-02-23_12h13.50.784,VisualSearch_2526_3,,2025.2.4,2026-02-23 12h13.51.004725 +0100,
vertical.xlsx,The target is tilted.,135,10,2,1,0,1,1,1,1,1,1,1,1,1,1,1,1,11,12,135,space,5.520094399999834,None,0,1,0.7841439000003447,None,space,0.9838452000003599,None,0,1,1,1,,,,,1,2,10,4,302.41472949999934,,,,,,,,,,,,,,,,,,,,,302.39981219999936,302.41472949999934,302.89890429999923,302.9038264999999,302.9232457999997,303.7148000999996,,,,,303.7149058999994,303.7307764999996,,303.9152105999992,302.9232457999997,,,,,,,,0,1,0.7841439000003447,None,,,,,,,,832,20,V,R,2026-02-23_12h13.50.784,VisualSearch_2526_3,,2025.2.4,2026-02-23 12h13.51.004725 +0100,
vertical.xlsx,The target is tilted.,135,11,3,1,1,1,1,1,1,1,1,1,0,0,0,0,0,7,8,135,space,5.520094399999834,None,1,1,0.7455485999998928,None,space,0.9838452000003599,None,0,1,1,1,,,,,1,3,11,1,303.9314932999996,,,,,,,,,,,,,,,,,,,,,303.91607249999925,303.9314932999996,304.41531769999983,304.4203553999996,304.43728369999917,305.1985044999992,,,,,305.1986401999993,305.2141890999992,305.4143045999999,305.39845159999913,304.43728369999917,,,,,,,,1,1,0.7455485999998928,None,,,,,,,,832,20,V,R,2026-02-23_12h13.50.784,VisualSearch_2526_3,,2025.2.4,2026-02-23 12h13.51.004725 +0100,
vertical.xlsx,The target is tilted.,135,12,4,1,0,1,1,1,0,0,0,0,0,0,0,0,1,3,4,135,space,5.520094399999834,None,0,1,0.5291551000000254,None,space,0.9838452000003599,None,0,1,1,1,,,,,1,4,12,6,305.4143045999999,,,,,,,,,,,,,,,,,,,,,305.3992750999996,305.4143045999999,305.89842749999934,305.90338079999947,305.9196519999996,306.46545909999986,,,,,306.4656538999998,306.4810104999997,306.68096869999954,306.66495959999975,305.9196519999996,,,,,,,,0,1,0.5291551000000254,None,,,,,,,,832,20,V,R,2026-02-23_12h13.50.784,VisualSearch_2526_3,,2025.2.4,2026-02-23 12h13.51.004725 +0100,
vertical.xlsx,The target is tilted.,135,13,5,1,0,1,1,1,1,1,1,1,0,0,0,0,1,7,8,135,space,5.520094399999834,None,0,1,0.9140948000003846,None,space,0.9838452000003599,None,0,1,1,1,,,,,1,5,13,5,306.68096869999954,,,,,,,,,,,,,,,,,,,,,306.6657587999998,306.68096869999954,307.16499659999954,307.1698644999997,307.18075149999913,308.0983260999992,,,,,308.0985228999998,308.1139536999999,308.31407919999947,308.29778909999914,307.18075149999913,,,,,,,,0,1,0.9140948000003846,None,,,,,,,,832,20,V,R,2026-02-23_12h13.50.784,VisualSearch_2526_3,,2025.2.4,2026-02-23 12h13.51.004725 +0100,
vertical.xlsx,The target is tilted.,135,14,6,1,1,1,1,1,0,0,0,0,0,0,0,0,0,3,4,135,space,5.520094399999834,None,1,1,0.7125794000003225,None,space,0.9838452000003599,None,0,1,1,1,,,,,1,6,14,2,308.31407919999947,,,,,,,,,,,,,,,,,,,,,308.2985315999995,308.31407919999947,308.79791359999945,308.8029446999999,308.8188913999993,309.54819679999946,,,,,309.5489297999993,309.5634205999995,309.7638588,309.7476498999995,308.8188913999993,,,,,,,,1,1,0.7125794000003225,None,,,,,,,,832,20,V,R,2026-02-23_12h13.50.784,VisualSearch_2526_3,,2025.2.4,2026-02-23 12h13.51.004725 +0100,
vertical.xlsx,The target is tilted.,135,15,7,1,1,1,1,1,1,1,1,1,1,1,1,1,0,11,12,135,space,5.520094399999834,None,1,1,1.7350311000000147,None,space,0.9838452000003599,None,0,1,1,1,,,,,1,7,15,0,309.7638588,,,,,,,,,,,,,,,,,,,,,309.74838139999974,309.7638588,310.2476244999998,310.2523572,310.2682443999993,312.0142004999998,,,,,312.0143829999997,312.0300180999993,312.23004929999934,312.2139849999994,310.2682443999993,,,,,,,,1,1,1.7350311000000147,None,,,,,,,,832,20,V,R,2026-02-23_12h13.50.784,VisualSearch_2526_3,,2025.2.4,2026-02-23 12h13.51.004725 +0100,
vertical.xlsx,The target is tilted.,135,16,0,2,0,1,1,1,1,1,1,1,1,1,1,1,1,11,12,135,space,5.520094399999834,None,0,1,1.4818909000005078,None,space,0.9838452000003599,None,0,1,1,1,,,,,2,0,16,4,312.23004929999934,,,,,,,,,,,,,,,,,,,,,312.21470209999916,312.23004929999934,312.7140019999997,312.71835439999995,312.73455359999934,314.2305314999994,,,,,314.23071509999954,314.2463820999992,314.4462107999998,314.4302390999992,312.73455359999934,,,,,,,,0,1,1.4818909000005078,None,,,,,,,,832,20,V,R,2026-02-23_12h13.50.784,VisualSearch_2526_3,,2025.2.4,2026-02-23 12h13.51.004725 +0100,
vertical.xlsx,The target is tilted.,135,17,1,2,0,1,1,1,0,0,0,0,0,0,0,0,1,3,4,135,space,5.520094399999834,None,0,1,0.6054079999994428,None,space,0.9838452000003599,None,0,1,1,1,,,,,2,1,17,6,314.4462107999998,,,,,,,,,,,,,,,,,,,,,314.4309710999996,314.4462107999998,314.9302966999994,314.9350545999996,314.95153779999964,315.5637309999993,,,,,315.5639335999995,315.5790182999999,315.77905909999936,315.7633756999994,314.95153779999964,,,,,,,,0,1,0.6054079999994428,None,,,,,,,,832,20,V,R,2026-02-23_12h13.50.784,VisualSearch_2526_3,,2025.2.4,2026-02-23 12h13.51.004725 +0100,
vertical.xlsx,The target is tilted.,135,18,2,2,1,1,1,1,0,0,0,0,0,0,0,0,0,3,4,135,space,5.520094399999834,None,0,0,0.5717461000003823,None,space,0.9838452000003599,None,0,1,1,1,,,,,2,2,18,2,315.77905909999936,,,,,,,,,,,,,,,,,,,,,315.76412379999965,315.77905909999936,316.2633690999992,316.26783459999933,316.27931119999994,316.8638340999996,,,,,316.8640388999993,316.87914869999986,317.07931609999923,317.06317089999993,316.27931119999994,,,,,,,,0,0,0.5717461000003823,None,,,,,,,,832,20,V,R,2026-02-23_12h13.50.784,VisualSearch_2526_3,,2025.2.4,2026-02-23 12h13.51.004725 +0100,
vertical.xlsx,The target is tilted.,135,19,3,2,1,0,0,0,0,0,0,0,0,0,0,0,0,0,1,135,space,5.520094399999834,None,0,0,0.4994349000007787,None,space,0.9838452000003599,None,0,1,1,1,,,,,2,3,19,3,317.07931609999923,,,,,,,,,,,,,,,,,,,,,317.0639158999993,317.07931609999923,317.5627676999993,317.5676584999992,317.58235589999913,318.09666109999944,,,,,318.0968648999997,318.1122839999998,318.31200459999945,318.2963052999994,317.58235589999913,,,,,,,,0,0,0.4994349000007787,None,,,,,,,,832,20,V,R,2026-02-23_12h13.50.784,VisualSearch_2526_3,,2025.2.4,2026-02-23 12h13.51.004725 +0100,
vertical.xlsx,The target is tilted.,135,20,4,2,0,1,1,1,1,1,1,1,0,0,0,0,1,7,8,135,space,5.520094399999834,None,0,1,1.5251144000003478,None,space,0.9838452000003599,None,0,1,1,1,,,,,2,4,20,5,318.31200459999945,,,,,,,,,,,,,,,,,,,,,318.29716219999955,318.31200459999945,318.7962697999992,318.8019027999999,318.8179990999997,320.3467082999996,,,,,320.3469189999996,320.36206649999986,320.5619982999997,320.54539679999925,318.8179990999997,,,,,,,,0,1,1.5251144000003478,None,,,,,,,,832,20,V,R,2026-02-23_12h13.50.784,VisualSearch_2526_3,,2025.2.4,2026-02-23 12h13.51.004725 +0100,
vertical.xlsx,The target is tilted.,135,21,5,2,1,1,1,1,1,1,1,1,0,0,0,0,0,7,8,135,space,5.520094399999834,None,1,1,0.8713382000005367,None,space,0.9838452000003599,None,0,1,1,1,,,,,2,5,21,1,320.5619982999997,,,,,,,,,,,,,,,,,,,,,320.5460787999991,320.5619982999997,321.0461061999995,321.05100909999965,321.0673827999999,321.94605429999956,,,,,321.94623559999945,321.96162509999976,322.1613591999994,322.1454985999999,321.0673827999999,,,,,,,,1,1,0.8713382000005367,None,,,,,,,,832,20,V,R,2026-02-23_12h13.50.784,VisualSearch_2526_3,,2025.2.4,2026-02-23 12h13.51.004725 +0100,
vertical.xlsx,The target is tilted.,135,22,6,2,1,1,1,1,1,1,1,1,1,1,1,1,0,11,12,135,space,5.520094399999834,None,1,1,1.0389923000002455,None,space,0.9838452000003599,None,0,1,1,1,,,,,2,6,22,0,322.1613591999994,,,,,,,,,,,,,,,,,,,,,322.14640149999923,322.1613591999994,322.6457982999991,322.65071479999915,322.6675022999998,323.7123438999997,,,,,323.7125411999996,323.72807869999997,323.9280872999998,323.9119579999997,322.6675022999998,,,,,,,,1,1,1.0389923000002455,None,,,,,,,,832,20,V,R,2026-02-23_12h13.50.784,VisualSearch_2526_3,,2025.2.4,2026-02-23 12h13.51.004725 +0100,
vertical.xlsx,The target is tilted.,135,23,7,2,0,0,0,0,0,0,0,0,0,0,0,0,1,1,1,135,space,5.520094399999834,None,0,1,0.5016565000005357,None,space,0.9838452000003599,None,0,1,1,1,,,,,2,7,23,7,323.9280872999998,,,,,,,,,,,,,,,,,,,,,323.9126774999995,323.9280872999998,324.41188169999987,324.41617849999966,324.4292781999993,324.9452195999993,,,,,324.9453937999997,324.9612916999995,325.1612878999995,325.14520509999966,324.4292781999993,,,,,,,,0,1,0.5016565000005357,None,,,,,,,,832,20,V,R,2026-02-23_12h13.50.784,VisualSearch_2526_3,,2025.2.4,2026-02-23 12h13.51.004725 +0100,
vertical.xlsx,The target is tilted.,135,24,0,3,1,0,0,0,0,0,0,0,0,0,0,0,0,0,1,135,space,5.520094399999834,None,1,1,0.45965590000014345,None,space,0.9838452000003599,None,0,1,1,1,,,,,3,0,24,3,325.1612878999995,,,,,,,,,,,,,,,,,,,,,325.14598169999954,325.1612878999995,325.6452614,325.65020099999947,325.66670449999947,326.1288253999992,,,,,326.12902209999993,326.14441799999986,326.3445482999996,326.3283649999994,325.66670449999947,,,,,,,,1,1,0.45965590000014345,None,,,,,,,,832,20,V,R,2026-02-23_12h13.50.784,VisualSearch_2526_3,,2025.2.4,2026-02-23 12h13.51.004725 +0100,
vertical.xlsx,The target is tilted.,135,25,1,3,0,0,0,0,0,0,0,0,0,0,0,0,1,1,1,135,space,5.520094399999834,None,0,1,0.4754233000003296,None,space,0.9838452000003599,None,0,1,1,1,,,,,3,1,25,7,326.3445482999996,,,,,,,,,,,,,,,,,,,,,326.32919219999985,326.3445482999996,326.8282806999996,326.8334099999993,326.8503531999995,327.3280645999994,,,,,327.3282021999994,327.34406169999966,327.5440712999998,327.5281196999995,326.8503531999995,,,,,,,,0,1,0.4754233000003296,None,,,,,,,,832,20,V,R,2026-02-23_12h13.50.784,VisualSearch_2526_3,,2025.2.4,2026-02-23 12h13.51.004725 +0100,
vertical.xlsx,The target is tilted.,135,26,2,3,0,1,1,1,1,1,1,1,0,0,0,0,1,7,8,135,space,5.520094399999834,None,0,1,0.8543017000001782,None,space,0.9838452000003599,None,0,1,1,1,,,,,3,2,26,5,327.5440712999998,,,,,,,,,,,,,,,,,,,,,327.5289407999999,327.5440712999998,328.0281232999996,328.0330258999993,328.0490018999999,328.9117671999993,,,,,328.91197209999973,328.9272241999997,329.1272674999991,329.1112859999994,328.0490018999999,,,,,,,,0,1,0.8543017000001782,None,,,,,,,,832,20,V,R,2026-02-23_12h13.50.784,VisualSearch_2526_3,,2025.2.4,2026-02-23 12h13.51.004725 +0100,
vertical.xlsx,The target is tilted.,135,27,3,3,1,1,1,1,0,0,0,0,0,0,0,0,0,3,4,135,space,5.520094399999834,None,1,1,0.49110840000048483,None,space,0.9838452000003599,None,0,1,1,1,,,,,3,3,27,2,329.1272674999991,,,,,,,,,,,,,,,,,,,,,329.1121082999998,329.1272674999991,329.6112729999995,329.6163070999992,329.6345010999994,330.12814999999955,,,,,330.1283446999996,330.14367499999935,330.3433551999997,330.3274158999993,329.6345010999994,,,,,,,,1,1,0.49110840000048483,None,,,,,,,,832,20,V,R,2026-02-23_12h13.50.784,VisualSearch_2526_3,,2025.2.4,2026-02-23 12h13.51.004725 +0100,
vertical.xlsx,The target is tilted.,135,28,4,3,1,1,1,1,1,1,1,1,0,0,0,0,0,7,8,135,space,5.520094399999834,None,0,0,0.6862687000002552,None,space,0.9838452000003599,None,0,1,1,1,,,,,3,4,28,1,330.3433551999997,,,,,,,,,,,,,,,,,,,,,330.3282451999994,330.3433551999997,330.82760639999924,330.8325073999995,330.84942369999953,331.5442379999995,,,,,331.5443848999994,331.5600627999993,331.7598732999995,331.744103,330.84942369999953,,,,,,,,0,0,0.6862687000002552,None,,,,,,,,832,20,V,R,2026-02-23_12h13.50.784,VisualSearch_2526_3,,2025.2.4,2026-02-23 12h13.51.004725 +0100,
vertical.xlsx,The target is tilted.,135,29,5,3,0,1,1,1,0,0,0,0,0,0,0,0,1,3,4,135,space,5.520094399999834,None,0,1,0.644476599999507,None,space,0.9838452000003599,None,0,1,1,1,,,,,3,5,29,6,331.7598732999995,,,,,,,,,,,,,,,,,,,,,331.7449125999992,331.7598732999995,332.2443928999992,332.2494085999997,332.2665735999999,332.92757859999983,,,,,332.92777319999914,332.9433201999991,333.14333239999996,333.1268990999997,332.2665735999999,,,,,,,,0,1,0.644476599999507,None,,,,,,,,832,20,V,R,2026-02-23_12h13.50.784,VisualSearch_2526_3,,2025.2.4,2026-02-23 12h13.51.004725 +0100,
vertical.xlsx,The target is tilted.,135,30,6,3,0,1,1,1,1,1,1,1,1,1,1,1,1,11,12,135,space,5.520094399999834,None,0,1,1.352433099999871,None,space,0.9838452000003599,None,0,1,1,1,,,,,3,6,30,4,333.14333239999996,,,,,,,,,,,,,,,,,,,,,333.12769559999924,333.14333239999996,333.6268582999992,333.6322205999995,333.65070299999934,335.0107903999997,,,,,335.0110116999995,335.0262404999994,335.2260303999992,335.2097354999996,333.65070299999934,,,,,,,,0,1,1.352433099999871,None,,,,,,,,832,20,V,R,2026-02-23_12h13.50.784,VisualSearch_2526_3,,2025.2.4,2026-02-23 12h13.51.004725 +0100,
vertical.xlsx,The target is tilted.,135,31,7,3,1,1,1,1,1,1,1,1,1,1,1,1,0,11,12,135,space,5.520094399999834,None,1,1,1.8095086000002993,None,space,0.9838452000003599,None,0,1,1,1,,,,,3,7,31,0,335.2260303999992,,,,,,,,,,,,,,,,,,,,,335.2105726,335.2260303999992,335.71018749999985,335.71507069999916,335.73220239999955,337.54292759999953,,,,,337.54303959999925,337.5591543999999,337.7591375999991,337.7430640999992,335.73220239999955,,,,,,,,1,1,1.8095086000002993,None,,,,,,,,832,20,V,R,2026-02-23_12h13.50.784,VisualSearch_2526_3,,2025.2.4,2026-02-23 12h13.51.004725 +0100,
vertical.xlsx,The target is tilted.,135,32,0,4,0,0,0,0,0,0,0,0,0,0,0,0,1,1,1,135,space,5.520094399999834,None,0,1,0.6883592999993198,None,space,0.9838452000003599,None,0,1,1,1,,,,,4,0,32,7,337.7591375999991,,,,,,,,,,,,,,,,,,,,,337.7439026999991,337.7591375999991,338.2431156999992,338.24777389999963,338.2638873999995,338.9600793999998,,,,,338.9602787999993,338.97537639999973,339.1752348,339.15913979999914,338.2638873999995,,,,,,,,0,1,0.6883592999993198,None,,,,,,,,832,20,V,R,2026-02-23_12h13.50.784,VisualSearch_2526_3,,2025.2.4,2026-02-23 12h13.51.004725 +0100,
vertical.xlsx,The target is tilted.,135,33,1,4,0,1,1,1,1,1,1,1,0,0,0,0,1,7,8,135,space,5.520094399999834,None,0,1,1.0843696000001728,None,space,0.9838452000003599,None,0,1,1,1,,,,,4,1,33,5,339.1752348,,,,,,,,,,,,,,,,,,,,,339.15988579999976,339.1752348,339.65907459999926,339.6636390999993,339.6810745999992,340.77595049999945,,,,,340.77612469999985,340.7917746999992,340.9918306999998,340.97567399999934,339.6810745999992,,,,,,,,0,1,1.0843696000001728,None,,,,,,,,832,20,V,R,2026-02-23_12h13.50.784,VisualSearch_2526_3,,2025.2.4,2026-02-23 12h13.51.004725 +0100,
