file_name,block_instructions,target_example,thisN,thisTrialN,thisRepN,target_presence,opacity_1,opacity_2,opacity_3,opacity_4,opacity_5,opacity_6,opacity_7,opacity_8,opacity_9,opacity_10,opacity_11,opacity_12,n_distract,n_items,target_ori,key_resp_4.keys,key_resp_4.rt,key_resp_4.duration,key_resp.keys,key_resp.corr,key_resp.rt,key_resp.duration,key_resp_5.keys,key_resp_5.rt,key_resp_5.duration,blocks.thisRepN,blocks.thisTrialN,blocks.thisN,blocks.thisIndex,practice_trials.thisRepN,practice_trials.thisTrialN,practice_trials.thisN,practice_trials.thisIndex,trials.thisRepN,trials.thisTrialN,trials.thisN,trials.thisIndex,thisRow.t,notes,Welcome.started,WelcomeText.started,key_resp_2.started,Welcome.stopped,key_resp_2.keys,key_resp_2.rt,key_resp_2.duration,InformedConsent.started,text_4.started,InformedConsent.stopped,key_resp_6.keys,key_resp_6.rt,key_resp_6.duration,key_resp_4.started,example_target.started,text_3.started,blocks.key_resp_4.keys,blocks.key_resp_4.rt,blocks.key_resp_4.duration,FixCross.started,fixCross.started,FixCross.stopped,Stimulus.started,key_resp.started,Stimulus.stopped,practice_trials.key_resp.keys,practice_trials.key_resp.corr,practice_trials.key_resp.rt,practice_trials.key_resp.duration,BlankScreen.started,text.started,text.stopped,BlankScreen.stopped,fixCross.stopped,ExperimentStart.started,text_2.started,key_resp_5.started,ExperimentStart.stopped,blocks.key_resp_5.keys,blocks.key_resp_5.rt,blocks.key_resp_5.duration,trials.key_resp.keys,trials.key_resp.corr,trials.key_resp.rt,trials.key_resp.duration,Thanks.started,ThankYou.started,key_resp_3.started,Thanks.stopped,key_resp_3.keys,key_resp_3.rt,key_resp_3.duration,participant,leeftijd,gender,links/rechtshandig,date,expName,expVersion,psychopyVersion,expStart,
,,,,,,,,,,,,,,,,,,,,,,,,,,,,,,,,,,,,,,,,,,,,,,0.03171850000001086,0.04580620000001545,0.04580620000001545,54.36435430000006,space,54.202877599999965,None,,,,,,,,,,,,,,,,,,,,,,,,,,,,,,,,,,,,,,,,,,,,,,833,23,M,R,2026-02-25_11h04.48.208,VisualSearch_2526_3,,2025.2.4,2026-02-25 11h04.48.746413 +0100,
,,,,,,,,,,,,,,,,,,,,,,,,,,,,,,,,,,,,,,,,,,,,,,,,,,,,,54.36439840000003,54.36958260000006,64.8851641,y,10.516829500000085,None,,,,,,,,,,,,,,,,,,,,,,,,,,,,,,,,,,,,,,,,833,23,M,R,2026-02-25_11h04.48.208,VisualSearch_2526_3,,2025.2.4,2026-02-25 11h04.48.746413 +0100,
vertical.xlsx,The target is tilted.,135,0,0,0,0,1,1,1,1,1,1,1,1,1,1,1,1,11,12,135,space,9.460661500000015,None,0,1,1.8678605000000061,None,,,,0,0,0,1,0,0,0,4,,,,,74.52414980000003,,,,,,,,,,,,,,,65.00277260000007,65.00277260000007,65.00277260000007,space,9.460661500000015,None,74.51939909999999,74.52414980000003,74.98204859999998,74.98703350000005,74.9983813,76.88272620000009,0,1,1.8678605000000061,None,76.88293680000004,76.89806880000003,77.09814200000005,77.08209370000009,,,,,,,,,,,,,,,,,,,,833,23,M,R,2026-02-25_11h04.48.208,VisualSearch_2526_3,,2025.2.4,2026-02-25 11h04.48.746413 +0100,
vertical.xlsx,The target is tilted.,135,1,1,0,0,1,1,1,0,0,0,0,0,0,0,0,1,3,4,135,space,9.460661500000015,None,0,1,0.6435374999999794,None,,,,0,0,0,1,0,1,1,6,,,,,77.09814200000005,,,,,,,,,,,,,,,,,,,,,77.08276180000007,77.09814200000005,77.58178329999998,77.58601120000003,77.60253010000008,78.2489597,0,1,0.6435374999999794,None,78.24913200000003,78.26444079999999,78.46458130000008,78.4485105,77.60253010000008,,,,,,,,,,,,,,,,,,,833,23,M,R,2026-02-25_11h04.48.208,VisualSearch_2526_3,,2025.2.4,2026-02-25 11h04.48.746413 +0100,
vertical.xlsx,The target is tilted.,135,2,2,0,1,1,1,1,0,0,0,0,0,0,0,0,0,3,4,135,space,9.460661500000015,None,1,1,0.7201612000000068,None,,,,0,0,0,1,0,2,2,2,,,,,78.46458130000008,,,,,,,,,,,,,,,,,,,,,78.44915639999999,78.46458130000008,78.94858440000007,78.95389840000007,78.9701351,79.69856070000003,1,1,0.7201612000000068,None,79.69876040000008,79.7139664,79.91434150000009,79.8982211,78.9701351,,,,,,,,,,,,,,,,,,,833,23,M,R,2026-02-25_11h04.48.208,VisualSearch_2526_3,,2025.2.4,2026-02-25 11h04.48.746413 +0100,
vertical.xlsx,The target is tilted.,135,3,3,0,1,0,0,0,0,0,0,0,0,0,0,0,0,0,1,135,space,9.460661500000015,None,1,1,0.7318291000000272,None,,,,0,0,0,1,0,3,3,3,,,,,79.91434150000009,,,,,,,,,,,,,,,,,,,,,79.89886650000005,79.91434150000009,80.39814480000007,80.40271700000005,80.42106790000003,81.16463959999999,1,1,0.7318291000000272,None,81.1648391,81.18022189999999,81.38035020000007,81.3641967000001,80.42106790000003,,,,,,,,,,,,,,,,,,,833,23,M,R,2026-02-25_11h04.48.208,VisualSearch_2526_3,,2025.2.4,2026-02-25 11h04.48.746413 +0100,
vertical.xlsx,The target is tilted.,135,4,4,0,0,0,0,0,0,0,0,0,0,0,0,0,1,1,1,135,space,9.460661500000015,None,0,1,0.6300069000000121,None,,,,0,0,0,1,0,4,4,7,,,,,81.38035020000007,,,,,,,,,,,,,,,,,,,,,81.3649461,81.38035020000007,81.8644749,81.86949960000004,81.8859665,82.53037530000006,0,1,0.6300069000000121,None,82.53046720000009,82.54700130000003,,82.73085079999998,81.8859665,,,,,,,,,,,,,,,,,,,833,23,M,R,2026-02-25_11h04.48.208,VisualSearch_2526_3,,2025.2.4,2026-02-25 11h04.48.746413 +0100,
vertical.xlsx,The target is tilted.,135,5,5,0,1,1,1,1,1,1,1,1,1,1,1,1,0,11,12,135,space,9.460661500000015,None,1,1,1.0711595000000216,None,,,,0,0,0,1,0,5,5,0,,,,,82.74724079999999,,,,,,,,,,,,,,,,,,,,,82.73157950000007,82.74724079999999,83.23085360000005,83.2362157,83.2532007000001,84.33137470000008,1,1,1.0711595000000216,None,84.33156340000005,84.34640220000006,84.54695930000003,84.53083130000005,,,,,,,,,,,,,,,,,,,,833,23,M,R,2026-02-25_11h04.48.208,VisualSearch_2526_3,,2025.2.4,2026-02-25 11h04.48.746413 +0100,
vertical.xlsx,The target is tilted.,135,6,6,0,1,1,1,1,1,1,1,1,0,0,0,0,0,7,8,135,space,9.460661500000015,None,1,1,0.7701244000000997,None,,,,0,0,0,1,0,6,6,1,,,,,84.54695930000003,,,,,,,,,,,,,,,,,,,,,84.53149380000002,84.54695930000003,85.03086470000005,85.03613270000005,85.05282420000003,85.83118420000005,1,1,0.7701244000000997,None,85.83139200000005,85.84623250000004,86.0462804,86.03049410000006,85.05282420000003,,,,,,,,,,,,,,,,,,,833,23,M,R,2026-02-25_11h04.48.208,VisualSearch_2526_3,,2025.2.4,2026-02-25 11h04.48.746413 +0100,
vertical.xlsx,The target is tilted.,135,7,7,0,0,1,1,1,1,1,1,1,0,0,0,0,1,7,8,135,space,9.460661500000015,None,0,1,0.8894926000000396,None,,,,0,0,0,1,0,7,7,5,,,,,86.0462804,,,,,,,,,,,,,,,,,,,,,86.03117880000002,86.0462804,86.53067470000008,86.53596390000007,86.55276750000007,87.44746300000008,0,1,0.8894926000000396,None,87.44766320000008,87.46264500000007,87.66293360000009,87.64678700000002,86.55276750000007,,,,,,,,,,,,,,,,,,,833,23,M,R,2026-02-25_11h04.48.208,VisualSearch_2526_3,,2025.2.4,2026-02-25 11h04.48.746413 +0100,
vertical.xlsx,The target is tilted.,135,0,0,0,0,0,0,0,0,0,0,0,0,0,0,0,1,1,1,135,space,9.460661500000015,None,0,1,0.6176097999999683,None,space,9.942812300000014,None,0,0,0,1,,,,,0,0,0,7,97.64456690000009,,,,,,,,,,,,,,,,,,,,,97.64047400000004,97.64456690000009,98.1284435,98.13373590000003,98.15024390000008,98.77870000000007,,,,,98.77891780000004,98.79396900000006,98.99409300000002,98.97787400000004,,87.65450129999999,87.66293360000009,87.66293360000009,97.61238300000002,space,9.942812300000014,None,0,1,0.6176097999999683,None,,,,,,,,833,23,M,R,2026-02-25_11h04.48.208,VisualSearch_2526_3,,2025.2.4,2026-02-25 11h04.48.746413 +0100,
vertical.xlsx,The target is tilted.,135,1,1,0,0,1,1,1,1,1,1,1,1,1,1,1,1,11,12,135,space,9.460661500000015,None,0,1,0.7271570999999994,None,space,9.942812300000014,None,0,0,0,1,,,,,0,1,1,4,98.99409300000002,,,,,,,,,,,,,,,,,,,,,98.97856710000008,98.99409300000002,99.47816799999998,99.48387330000003,99.50266850000003,100.24456200000009,,,,,100.24473780000005,100.26025500000003,100.4609183,100.44445310000003,99.50266850000003,,,,,,,,0,1,0.7271570999999994,None,,,,,,,,833,23,M,R,2026-02-25_11h04.48.208,VisualSearch_2526_3,,2025.2.4,2026-02-25 11h04.48.746413 +0100,
vertical.xlsx,The target is tilted.,135,2,2,0,1,1,1,1,0,0,0,0,0,0,0,0,0,3,4,135,space,9.460661500000015,None,1,1,0.5414167000000134,None,space,9.942812300000014,None,0,0,0,1,,,,,0,2,2,2,100.4609183,,,,,,,,,,,,,,,,,,,,,100.44520090000003,100.4609183,100.94461460000002,100.94936519999999,100.96727140000007,101.51147939999998,,,,,101.51164290000008,101.5268777,101.72728219999999,101.7107469,100.96727140000007,,,,,,,,1,1,0.5414167000000134,None,,,,,,,,833,23,M,R,2026-02-25_11h04.48.208,VisualSearch_2526_3,,2025.2.4,2026-02-25 11h04.48.746413 +0100,
vertical.xlsx,The target is tilted.,135,3,3,0,0,1,1,1,1,1,1,1,0,0,0,0,1,7,8,135,space,9.460661500000015,None,0,1,0.731390499999975,None,space,9.942812300000014,None,0,0,0,1,,,,,0,3,3,5,101.72728219999999,,,,,,,,,,,,,,,,,,,,,101.7114656,101.72728219999999,102.21137710000005,102.21664670000007,102.23365290000004,102.97780599999999,,,,,102.97801020000009,102.9932652,103.19384480000008,103.17785160000005,102.23365290000004,,,,,,,,0,1,0.731390499999975,None,,,,,,,,833,23,M,R,2026-02-25_11h04.48.208,VisualSearch_2526_3,,2025.2.4,2026-02-25 11h04.48.746413 +0100,
vertical.xlsx,The target is tilted.,135,4,4,0,1,1,1,1,1,1,1,1,0,0,0,0,0,7,8,135,space,9.460661500000015,None,1,1,0.7853587000000744,None,space,9.942812300000014,None,0,0,0,1,,,,,0,4,4,1,103.19384480000008,,,,,,,,,,,,,,,,,,,,,103.17866100000003,103.19384480000008,103.67775879999999,103.68315700000005,103.70362470000009,104.49441740000009,,,,,104.49461800000006,104.5097002,104.71024050000005,104.69397590000005,103.70362470000009,,,,,,,,1,1,0.7853587000000744,None,,,,,,,,833,23,M,R,2026-02-25_11h04.48.208,VisualSearch_2526_3,,2025.2.4,2026-02-25 11h04.48.746413 +0100,
vertical.xlsx,The target is tilted.,135,5,5,0,0,1,1,1,0,0,0,0,0,0,0,0,1,3,4,135,space,9.460661500000015,None,0,1,0.5949995999999373,None,space,9.942812300000014,None,0,0,0,1,,,,,0,5,5,6,104.71024050000005,,,,,,,,,,,,,,,,,,,,,104.69475,104.71024050000005,105.19394160000002,105.1993625,105.21603010000001,105.82696110000006,,,,,105.82712700000002,105.84275070000001,106.04320690000009,106.02715820000003,105.21603010000001,,,,,,,,0,1,0.5949995999999373,None,,,,,,,,833,23,M,R,2026-02-25_11h04.48.208,VisualSearch_2526_3,,2025.2.4,2026-02-25 11h04.48.746413 +0100,
vertical.xlsx,The target is tilted.,135,6,6,0,1,0,0,0,0,0,0,0,0,0,0,0,0,0,1,135,space,9.460661500000015,None,1,1,0.5985054000000218,None,space,9.942812300000014,None,0,0,0,1,,,,,0,6,6,3,106.04320690000009,,,,,,,,,,,,,,,,,,,,,106.02797830000009,106.04320690000009,106.52720750000003,106.53241820000005,106.55128730000001,107.16067950000001,,,,,107.16090710000003,107.17605820000006,107.37645440000006,107.36044709999999,106.55128730000001,,,,,,,,1,1,0.5985054000000218,None,,,,,,,,833,23,M,R,2026-02-25_11h04.48.208,VisualSearch_2526_3,,2025.2.4,2026-02-25 11h04.48.746413 +0100,
vertical.xlsx,The target is tilted.,135,7,7,0,1,1,1,1,1,1,1,1,1,1,1,1,0,11,12,135,space,9.460661500000015,None,1,1,0.8309237999999368,None,space,9.942812300000014,None,0,0,0,1,,,,,0,7,7,0,107.37645440000006,,,,,,,,,,,,,,,,,,,,,107.36118880000004,107.37645440000006,107.86028480000004,107.8649954,107.88258480000002,108.72668040000008,,,,,108.72689009999999,108.74220839999998,108.94250650000004,108.9264164,107.88258480000002,,,,,,,,1,1,0.8309237999999368,None,,,,,,,,833,23,M,R,2026-02-25_11h04.48.208,VisualSearch_2526_3,,2025.2.4,2026-02-25 11h04.48.746413 +0100,
vertical.xlsx,The target is tilted.,135,8,0,1,0,0,0,0,0,0,0,0,0,0,0,0,1,1,1,135,space,9.460661500000015,None,0,1,0.5305610999999999,None,space,9.942812300000014,None,0,0,0,1,,,,,1,0,8,7,108.94250650000004,,,,,,,,,,,,,,,,,,,,,108.92713450000008,108.94250650000004,109.42640879999999,109.43054990000007,109.44223310000007,109.9762641000001,,,,,109.97640139999999,109.99207290000004,110.19223480000005,110.17638240000008,109.44223310000007,,,,,,,,0,1,0.5305610999999999,None,,,,,,,,833,23,M,R,2026-02-25_11h04.48.208,VisualSearch_2526_3,,2025.2.4,2026-02-25 11h04.48.746413 +0100,
vertical.xlsx,The target is tilted.,135,9,1,1,1,1,1,1,1,1,1,1,0,0,0,0,0,7,8,135,space,9.460661500000015,None,1,1,0.6910318000000188,None,space,9.942812300000014,None,0,0,0,1,,,,,1,1,9,1,110.19223480000005,,,,,,,,,,,,,,,,,,,,,110.17714460000002,110.19223480000005,110.67658140000003,110.68205890000002,110.69882440000003,111.39335080000001,,,,,111.3935543,111.40854339999999,111.60898650000001,111.59232710000003,110.69882440000003,,,,,,,,1,1,0.6910318000000188,None,,,,,,,,833,23,M,R,2026-02-25_11h04.48.208,VisualSearch_2526_3,,2025.2.4,2026-02-25 11h04.48.746413 +0100,
vertical.xlsx,The target is tilted.,135,10,2,1,1,1,1,1,0,0,0,0,0,0,0,0,0,3,4,135,space,9.460661500000015,None,1,1,0.5373405000000275,None,space,9.942812300000014,None,0,0,0,1,,,,,1,2,10,2,111.60898650000001,,,,,,,,,,,,,,,,,,,,,111.59297330000004,111.60898650000001,112.09276790000001,112.09747160000006,112.11588730000005,112.65967039999998,,,,,112.65986080000005,112.67501670000001,112.87544869999999,112.85931110000001,112.11588730000005,,,,,,,,1,1,0.5373405000000275,None,,,,,,,,833,23,M,R,2026-02-25_11h04.48.208,VisualSearch_2526_3,,2025.2.4,2026-02-25 11h04.48.746413 +0100,
vertical.xlsx,The target is tilted.,135,11,3,1,0,1,1,1,0,0,0,0,0,0,0,0,1,3,4,135,space,9.460661500000015,None,0,1,0.5412173000000848,None,space,9.942812300000014,None,0,0,0,1,,,,,1,3,11,6,112.87544869999999,,,,,,,,,,,,,,,,,,,,,112.86006689999999,112.87544869999999,113.35936880000008,113.36406910000005,113.38150230000008,113.92606080000007,,,,,113.92624540000008,113.94136360000005,114.14180480000005,114.12582840000005,113.38150230000008,,,,,,,,0,1,0.5412173000000848,None,,,,,,,,833,23,M,R,2026-02-25_11h04.48.208,VisualSearch_2526_3,,2025.2.4,2026-02-25 11h04.48.746413 +0100,
vertical.xlsx,The target is tilted.,135,12,4,1,1,1,1,1,1,1,1,1,1,1,1,1,0,11,12,135,space,9.460661500000015,None,1,1,0.5817421000000422,None,space,9.942812300000014,None,0,0,0,1,,,,,1,4,12,0,114.14180480000005,,,,,,,,,,,,,,,,,,,,,114.12655690000008,114.14180480000005,114.62594160000003,114.63109900000006,114.6464939,115.24187180000001,,,,,115.24197780000009,115.25763930000005,115.45787160000009,115.44221240000002,114.6464939,,,,,,,,1,1,0.5817421000000422,None,,,,,,,,833,23,M,R,2026-02-25_11h04.48.208,VisualSearch_2526_3,,2025.2.4,2026-02-25 11h04.48.746413 +0100,
vertical.xlsx,The target is tilted.,135,13,5,1,1,0,0,0,0,0,0,0,0,0,0,0,0,0,1,135,space,9.460661500000015,None,1,1,0.43544759999997495,None,space,9.942812300000014,None,0,0,0,1,,,,,1,5,13,3,115.45787160000009,,,,,,,,,,,,,,,,,,,,,115.4429083,115.45787160000009,115.94116990000009,115.943355,115.95812030000002,116.40862670000001,,,,,116.40881810000008,116.42418340000006,116.62483150000003,116.60860000000002,115.95812030000002,,,,,,,,1,1,0.43544759999997495,None,,,,,,,,833,23,M,R,2026-02-25_11h04.48.208,VisualSearch_2526_3,,2025.2.4,2026-02-25 11h04.48.746413 +0100,
vertical.xlsx,The target is tilted.,135,14,6,1,0,1,1,1,1,1,1,1,1,1,1,1,1,11,12,135,space,9.460661500000015,None,0,1,0.6933285000000069,None,space,9.942812300000014,None,0,0,0,1,,,,,1,6,14,4,116.62483150000003,,,,,,,,,,,,,,,,,,,,,116.60926010000003,116.62483150000003,117.10870350000005,117.11328920000005,117.12924150000003,117.82612920000008,,,,,117.82631480000009,117.84086410000009,118.04139129999999,118.02497720000008,117.12924150000003,,,,,,,,0,1,0.6933285000000069,None,,,,,,,,833,23,M,R,2026-02-25_11h04.48.208,VisualSearch_2526_3,,2025.2.4,2026-02-25 11h04.48.746413 +0100,
vertical.xlsx,The target is tilted.,135,15,7,1,0,1,1,1,1,1,1,1,0,0,0,0,1,7,8,135,space,9.460661500000015,None,0,1,0.7038559000000078,None,space,9.942812300000014,None,0,0,0,1,,,,,1,7,15,5,118.04139129999999,,,,,,,,,,,,,,,,,,,,,118.02570620000006,118.04139129999999,118.52503960000001,118.5297832,118.5481833,119.2583267,,,,,119.2584425,119.27371800000003,119.4744164,119.45826640000007,118.5481833,,,,,,,,0,1,0.7038559000000078,None,,,,,,,,833,23,M,R,2026-02-25_11h04.48.208,VisualSearch_2526_3,,2025.2.4,2026-02-25 11h04.48.746413 +0100,
vertical.xlsx,The target is tilted.,135,16,0,2,1,1,1,1,1,1,1,1,0,0,0,0,0,7,8,135,space,9.460661500000015,None,1,1,0.47067140000001473,None,space,9.942812300000014,None,0,0,0,1,,,,,2,0,16,1,119.4744164,,,,,,,,,,,,,,,,,,,,,119.45900649999999,119.4744164,119.95826620000003,119.96296870000003,119.98057420000009,120.4582388,,,,,120.45842110000001,120.47388860000001,120.67411350000009,120.65768639999999,119.98057420000009,,,,,,,,1,1,0.47067140000001473,None,,,,,,,,833,23,M,R,2026-02-25_11h04.48.208,VisualSearch_2526_3,,2025.2.4,2026-02-25 11h04.48.746413 +0100,
vertical.xlsx,The target is tilted.,135,17,1,2,1,1,1,1,0,0,0,0,0,0,0,0,0,3,4,135,space,9.460661500000015,None,1,1,0.4526389999999765,None,space,9.942812300000014,None,0,0,0,1,,,,,2,1,17,2,120.67411350000009,,,,,,,,,,,,,,,,,,,,,120.6584679,120.67411350000009,121.15826830000003,121.16349050000008,121.1812496,121.64227779999999,,,,,121.6424829,121.65684930000009,121.85734910000008,121.84120930000006,121.1812496,,,,,,,,1,1,0.4526389999999765,None,,,,,,,,833,23,M,R,2026-02-25_11h04.48.208,VisualSearch_2526_3,,2025.2.4,2026-02-25 11h04.48.746413 +0100,
vertical.xlsx,The target is tilted.,135,18,2,2,0,0,0,0,0,0,0,0,0,0,0,0,1,1,1,135,space,9.460661500000015,None,0,1,0.5446415000000115,None,space,9.942812300000014,None,0,0,0,1,,,,,2,2,18,7,121.85734910000008,,,,,,,,,,,,,,,,,,,,,121.84194339999999,121.85734910000008,122.34139820000007,122.34662490000005,122.36337800000001,122.9234179,,,,,122.92349680000007,122.94036430000006,,123.12402410000004,122.36337800000001,,,,,,,,0,1,0.5446415000000115,None,,,,,,,,833,23,M,R,2026-02-25_11h04.48.208,VisualSearch_2526_3,,2025.2.4,2026-02-25 11h04.48.746413 +0100,
vertical.xlsx,The target is tilted.,135,19,3,2,0,1,1,1,1,1,1,1,1,1,1,1,1,11,12,135,space,9.460661500000015,None,0,1,1.1781263000000308,None,space,9.942812300000014,None,0,0,0,1,,,,,2,3,19,4,123.14055600000006,,,,,,,,,,,,,,,,,,,,,123.12477990000002,123.14055600000006,123.62393080000004,123.6286073,123.6468092,124.84046120000005,,,,,124.84062740000002,124.85619650000001,125.05685060000008,125.04075740000007,,,,,,,,,0,1,1.1781263000000308,None,,,,,,,,833,23,M,R,2026-02-25_11h04.48.208,VisualSearch_2526_3,,2025.2.4,2026-02-25 11h04.48.746413 +0100,
vertical.xlsx,The target is tilted.,135,20,4,2,1,0,0,0,0,0,0,0,0,0,0,0,0,0,1,135,space,9.460661500000015,None,1,1,0.5464096000000609,None,space,9.942812300000014,None,0,0,0,1,,,,,2,4,20,3,125.05685060000008,,,,,,,,,,,,,,,,,,,,,125.04150470000002,125.05685060000008,125.5407262,125.54591390000007,125.56262160000006,126.12376000000006,,,,,126.12397570000007,126.13933730000008,126.33973990000004,126.32352160000005,125.56262160000006,,,,,,,,1,1,0.5464096000000609,None,,,,,,,,833,23,M,R,2026-02-25_11h04.48.208,VisualSearch_2526_3,,2025.2.4,2026-02-25 11h04.48.746413 +0100,
vertical.xlsx,The target is tilted.,135,21,5,2,0,1,1,1,0,0,0,0,0,0,0,0,1,3,4,135,space,9.460661500000015,None,0,1,0.5344881000000896,None,space,9.942812300000014,None,0,0,0,1,,,,,2,5,21,6,126.33973990000004,,,,,,,,,,,,,,,,,,,,,126.32406820000006,126.33973990000004,126.82311860000004,126.82517330000007,126.83919020000008,127.3898299,,,,,127.38996330000009,127.40577250000001,127.60637010000005,127.58989800000006,126.83919020000008,,,,,,,,0,1,0.5344881000000896,None,,,,,,,,833,23,M,R,2026-02-25_11h04.48.208,VisualSearch_2526_3,,2025.2.4,2026-02-25 11h04.48.746413 +0100,
vertical.xlsx,The target is tilted.,135,22,6,2,1,1,1,1,1,1,1,1,1,1,1,1,0,11,12,135,space,9.460661500000015,None,1,1,0.9728074999999308,None,space,9.942812300000014,None,0,0,0,1,,,,,2,6,22,0,127.60637010000005,,,,,,,,,,,,,,,,,,,,,127.590643,127.60637010000005,128.09010130000001,128.09556110000005,128.1136523,129.0901675,,,,,129.0903512,129.10548370000004,129.30573320000008,129.29006450000008,,,,,,,,,1,1,0.9728074999999308,None,,,,,,,,833,23,M,R,2026-02-25_11h04.48.208,VisualSearch_2526_3,,2025.2.4,2026-02-25 11h04.48.746413 +0100,
vertical.xlsx,The target is tilted.,135,23,7,2,0,1,1,1,1,1,1,1,0,0,0,0,1,7,8,135,space,9.460661500000015,None,0,1,0.5836282999999867,None,space,9.942812300000014,None,0,0,0,1,,,,,2,7,23,5,129.30573320000008,,,,,,,,,,,,,,,,,,,,,129.29079680000007,129.30573320000008,129.79013370000007,129.79546460000006,129.81303309999998,130.40705910000008,,,,,130.40726230000007,130.42208420000009,130.62229180000008,130.60639220000007,129.81303309999998,,,,,,,,0,1,0.5836282999999867,None,,,,,,,,833,23,M,R,2026-02-25_11h04.48.208,VisualSearch_2526_3,,2025.2.4,2026-02-25 11h04.48.746413 +0100,
vertical.xlsx,The target is tilted.,135,24,0,3,0,1,1,1,0,0,0,0,0,0,0,0,1,3,4,135,space,9.460661500000015,None,0,1,0.5370033000000376,None,space,9.942812300000014,None,0,0,0,1,,,,,3,0,24,6,130.62229180000008,,,,,,,,,,,,,,,,,,,,,130.6071287000001,130.62229180000008,131.10646480000003,131.1110308000001,131.1220991,131.67284370000004,,,,,131.67305540000007,131.68840340000008,131.88907140000003,131.87272900000005,131.1220991,,,,,,,,0,1,0.5370033000000376,None,,,,,,,,833,23,M,R,2026-02-25_11h04.48.208,VisualSearch_2526_3,,2025.2.4,2026-02-25 11h04.48.746413 +0100,
vertical.xlsx,The target is tilted.,135,25,1,3,0,1,1,1,1,1,1,1,0,0,0,0,1,7,8,135,space,9.460661500000015,None,0,1,0.721214400000008,None,space,9.942812300000014,None,0,0,0,1,,,,,3,1,25,5,131.88907140000003,,,,,,,,,,,,,,,,,,,,,131.87347020000004,131.88907140000003,132.37279250000006,132.37737860000004,132.3933713,133.1222937,,,,,133.12238450000007,133.13796350000007,133.33841100000006,133.32297230000006,132.3933713,,,,,,,,0,1,0.721214400000008,None,,,,,,,,833,23,M,R,2026-02-25_11h04.48.208,VisualSearch_2526_3,,2025.2.4,2026-02-25 11h04.48.746413 +0100,
vertical.xlsx,The target is tilted.,135,26,2,3,1,0,0,0,0,0,0,0,0,0,0,0,0,0,1,135,space,9.460661500000015,None,1,1,0.48190329999999904,None,space,9.942812300000014,None,0,0,0,1,,,,,3,2,26,3,133.33841100000006,,,,,,,,,,,,,,,,,,,,,133.32367910000005,133.33841100000006,133.82256640000003,133.82712420000007,133.84389320000002,134.33889250000004,,,,,134.33906020000006,134.35455550000006,134.55516080000007,134.53898450000008,133.84389320000002,,,,,,,,1,1,0.48190329999999904,None,,,,,,,,833,23,M,R,2026-02-25_11h04.48.208,VisualSearch_2526_3,,2025.2.4,2026-02-25 11h04.48.746413 +0100,
vertical.xlsx,The target is tilted.,135,27,3,3,1,1,1,1,1,1,1,1,1,1,1,1,0,11,12,135,space,9.460661500000015,None,1,1,0.5789035999999896,None,space,9.942812300000014,None,0,0,0,1,,,,,3,3,27,0,134.55516080000007,,,,,,,,,,,,,,,,,,,,,134.5396419,134.55516080000007,135.03857470000003,135.0427459,135.05675230000008,135.63913520000006,,,,,135.63933630000008,135.65445,135.8550180000001,135.8388506,135.05675230000008,,,,,,,,1,1,0.5789035999999896,None,,,,,,,,833,23,M,R,2026-02-25_11h04.48.208,VisualSearch_2526_3,,2025.2.4,2026-02-25 11h04.48.746413 +0100,
vertical.xlsx,The target is tilted.,135,28,4,3,1,1,1,1,1,1,1,1,0,0,0,0,0,7,8,135,space,9.460661500000015,None,1,1,0.5635494000000563,None,space,9.942812300000014,None,0,0,0,1,,,,,3,4,28,1,135.8550180000001,,,,,,,,,,,,,,,,,,,,,135.83959330000005,135.8550180000001,136.33875899999998,136.34341240000003,136.3594862,136.93860110000003,,,,,136.93878270000005,136.95433020000007,137.15438990000007,137.13801899999999,136.3594862,,,,,,,,1,1,0.5635494000000563,None,,,,,,,,833,23,M,R,2026-02-25_11h04.48.208,VisualSearch_2526_3,,2025.2.4,2026-02-25 11h04.48.746413 +0100,
vertical.xlsx,The target is tilted.,135,29,5,3,0,1,1,1,1,1,1,1,1,1,1,1,1,11,12,135,space,9.460661500000015,None,0,1,1.3092477000000144,None,space,9.942812300000014,None,0,0,0,1,,,,,3,5,29,4,137.15438990000007,,,,,,,,,,,,,,,,,,,,,137.13861150000002,137.15438990000007,137.6380954,137.64226140000005,137.65881560000003,138.97182400000008,,,,,138.9720066,138.98722410000005,139.18782640000006,139.17166310000005,137.65881560000003,,,,,,,,0,1,1.3092477000000144,None,,,,,,,,833,23,M,R,2026-02-25_11h04.48.208,VisualSearch_2526_3,,2025.2.4,2026-02-25 11h04.48.746413 +0100,
vertical.xlsx,The target is tilted.,135,30,6,3,0,0,0,0,0,0,0,0,0,0,0,0,1,1,1,135,space,9.460661500000015,None,0,1,0.5376072000000249,None,space,9.942812300000014,None,0,0,0,1,,,,,3,6,30,7,139.18782640000006,,,,,,,,,,,,,,,,,,,,,139.17238110000005,139.18782640000006,139.67182620000005,139.6777184,139.69401820000007,140.2379734,,,,,140.2380855,140.25365780000004,140.45423010000002,140.43830580000008,139.69401820000007,,,,,,,,0,1,0.5376072000000249,None,,,,,,,,833,23,M,R,2026-02-25_11h04.48.208,VisualSearch_2526_3,,2025.2.4,2026-02-25 11h04.48.746413 +0100,
vertical.xlsx,The target is tilted.,135,31,7,3,1,1,1,1,0,0,0,0,0,0,0,0,0,3,4,135,space,9.460661500000015,None,1,1,0.540106499999979,None,space,9.942812300000014,None,0,0,0,1,,,,,3,7,31,2,140.45423010000002,,,,,,,,,,,,,,,,,,,,,140.43902460000004,140.45423010000002,140.93802879999998,140.9426092,140.95864210000002,141.50458260000005,,,,,141.5047641,141.52020490000007,141.7207575,141.70447869999998,140.95864210000002,,,,,,,,1,1,0.540106499999979,None,,,,,,,,833,23,M,R,2026-02-25_11h04.48.208,VisualSearch_2526_3,,2025.2.4,2026-02-25 11h04.48.746413 +0100,
vertical.xlsx,The target is tilted.,135,32,0,4,0,0,0,0,0,0,0,0,0,0,0,0,1,1,1,135,space,9.460661500000015,None,0,1,0.5195103000000927,None,space,9.942812300000014,None,0,0,0,1,,,,,4,0,32,7,141.7207575,,,,,,,,,,,,,,,,,,,,,141.70523690000005,141.7207575,142.20459230000006,142.20971540000005,142.22711930000003,142.75494500000002,,,,,142.75516340000001,142.76996400000007,142.97043200000007,142.9542179,142.22711930000003,,,,,,,,0,1,0.5195103000000927,None,,,,,,,,833,23,M,R,2026-02-25_11h04.48.208,VisualSearch_2526_3,,2025.2.4,2026-02-25 11h04.48.746413 +0100,
vertical.xlsx,The target is tilted.,135,33,1,4,1,1,1,1,1,1,1,1,0,0,0,0,0,7,8,135,space,9.460661500000015,None,1,1,0.5316159999999854,None,space,9.942812300000014,None,0,0,0,1,,,,,4,1,33,1,142.97043200000007,,,,,,,,,,,,,,,,,,,,,142.95497910000006,142.97043200000007,143.4542179,143.45872640000005,143.47034240000005,144.00473140000008,,,,,144.0049328,144.0196023000001,144.2203184,144.20407090000003,143.47034240000005,,,,,,,,1,1,0.5316159999999854,None,,,,,,,,833,23,M,R,2026-02-25_11h04.48.208,VisualSearch_2526_3,,2025.2.4,2026-02-25 11h04.48.746413 +0100,
vertical.xlsx,The target is tilted.,135,34,2,4,0,1,1,1,1,1,1,1,1,1,1,1,1,11,12,135,space,9.460661500000015,None,0,1,1.0333941999999752,None,space,9.942812300000014,None,0,0,0,1,,,,,4,2,34,4,144.2203184,,,,,,,,,,,,,,,,,,,,,144.20484940000006,144.2203184,144.704068,144.70930270000008,144.72598140000002,145.77138810000008,,,,,145.77159160000008,145.786114,145.98669200000006,145.97057840000002,144.72598140000002,,,,,,,,0,1,1.0333941999999752,None,,,,,,,,833,23,M,R,2026-02-25_11h04.48.208,VisualSearch_2526_3,,2025.2.4,2026-02-25 11h04.48.746413 +0100,
vertical.xlsx,The target is tilted.,135,35,3,4,1,1,1,1,0,0,0,0,0,0,0,0,0,3,4,135,space,9.460661500000015,None,1,1,0.5596213999999691,None,space,9.942812300000014,None,0,0,0,1,,,,,4,3,35,2,145.98669200000006,,,,,,,,,,,,,,,,,,,,,145.97131020000006,145.98669200000006,146.4699025,146.47430020000002,146.49183800000003,147.05363880000004,,,,,147.05383460000007,147.0691855,147.2697859,147.25352350000003,146.49183800000003,,,,,,,,1,1,0.5596213999999691,None,,,,,,,,833,23,M,R,2026-02-25_11h04.48.208,VisualSearch_2526_3,,2025.2.4,2026-02-25 11h04.48.746413 +0100,
vertical.xlsx,The target is tilted.,135,36,4,4,0,1,1,1,1,1,1,1,0,0,0,0,1,7,8,135,space,9.460661500000015,None,0,1,0.6693487000000005,None,space,9.942812300000014,None,0,0,0,1,,,,,4,4,36,5,147.2697859,,,,,,,,,,,,,,,,,,,,,147.2542585,147.2697859,147.75350060000005,147.75882810000007,147.7743303000001,148.45386410000003,,,,,148.454071,148.46902060000002,148.66905170000007,148.6529312,147.7743303000001,,,,,,,,0,1,0.6693487000000005,None,,,,,,,,833,23,M,R,2026-02-25_11h04.48.208,VisualSearch_2526_3,,2025.2.4,2026-02-25 11h04.48.746413 +0100,
vertical.xlsx,The target is tilted.,135,37,5,4,0,1,1,1,0,0,0,0,0,0,0,0,1,3,4,135,space,9.460661500000015,None,0,1,0.529619499999967,None,space,9.942812300000014,None,0,0,0,1,,,,,4,5,37,6,148.66905170000007,,,,,,,,,,,,,,,,,,,,,148.65361510000002,148.66905170000007,149.15312240000003,149.15834640000003,149.1745228000001,149.7199289,,,,,149.72012890000008,149.73556530000008,149.93608030000007,149.91998740000008,149.1745228000001,,,,,,,,0,1,0.529619499999967,None,,,,,,,,833,23,M,R,2026-02-25_11h04.48.208,VisualSearch_2526_3,,2025.2.4,2026-02-25 11h04.48.746413 +0100,
vertical.xlsx,The target is tilted.,135,38,6,4,1,1,1,1,1,1,1,1,1,1,1,1,0,11,12,135,space,9.460661500000015,None,1,1,0.6092399999999998,None,space,9.942812300000014,None,0,0,0,1,,,,,4,6,38,0,149.93608030000007,,,,,,,,,,,,,,,,,,,,,149.92084610000006,149.93608030000007,150.41990140000007,150.42512540000007,150.44242050000003,151.05330590000005,,,,,151.05349280000007,151.0685708000001,151.2692224,151.25279870000008,150.44242050000003,,,,,,,,1,1,0.6092399999999998,None,,,,,,,,833,23,M,R,2026-02-25_11h04.48.208,VisualSearch_2526_3,,2025.2.4,2026-02-25 11h04.48.746413 +0100,
vertical.xlsx,The target is tilted.,135,39,7,4,1,0,0,0,0,0,0,0,0,0,0,0,0,0,1,135,space,9.460661500000015,None,1,1,0.49882530000002134,None,space,9.942812300000014,None,0,0,0,1,,,,,4,7,39,3,151.2692224,,,,,,,,,,,,,,,,,,,,,151.25352340000006,151.2692224,151.7527351,151.75737330000004,151.77335330000005,152.28591160000008,,,,,152.28608020000001,152.30158530000006,152.50221940000006,152.4858587,151.77335330000005,,,,,,,,1,1,0.49882530000002134,None,,,,,,,,833,23,M,R,2026-02-25_11h04.48.208,VisualSearch_2526_3,,2025.2.4,2026-02-25 11h04.48.746413 +0100,
vertical.xlsx,The target is tilted.,135,40,0,5,0,1,1,1,1,1,1,1,1,1,1,1,1,11,12,135,space,9.460661500000015,None,0,1,1.2589332000000013,None,space,9.942812300000014,None,0,0,0,1,,,,,5,0,40,4,152.50221940000006,,,,,,,,,,,,,,,,,,,,,152.48645870000007,152.50221940000006,152.9849845,152.98673700000006,153.00154940000004,154.2695113000001,,,,,154.26968980000004,154.2846578,154.48524730000008,154.4690306,153.00154940000004,,,,,,,,0,1,1.2589332000000013,None,,,,,,,,833,23,M,R,2026-02-25_11h04.48.208,VisualSearch_2526_3,,2025.2.4,2026-02-25 11h04.48.746413 +0100,
vertical.xlsx,The target is tilted.,135,41,1,5,0,0,0,0,0,0,0,0,0,0,0,0,1,1,1,135,space,9.460661500000015,None,0,1,0.4100131000000147,None,space,9.942812300000014,None,0,0,0,1,,,,,5,1,41,7,154.48524730000008,,,,,,,,,,,,,,,,,,,,,154.4697837,154.48524730000008,154.9690257000001,154.97414790000005,154.99015010000005,155.40265900000009,,,,,155.40284259999999,155.41780990000007,155.61840080000002,155.60213910000004,154.99015010000005,,,,,,,,0,1,0.4100131000000147,None,,,,,,,,833,23,M,R,2026-02-25_11h04.48.208,VisualSearch_2526_3,,2025.2.4,2026-02-25 11h04.48.746413 +0100,
vertical.xlsx,The target is tilted.,135,42,2,5,1,0,0,0,0,0,0,0,0,0,0,0,0,0,1,135,space,9.460661500000015,None,1,1,0.49547369999993407,None,space,9.942812300000014,None,0,0,0,1,,,,,5,2,42,3,155.61840080000002,,,,,,,,,,,,,,,,,,,,,155.60280699999998,155.61840080000002,156.1023351,156.10737530000006,156.12420580000003,156.63523870000006,,,,,156.63542870000003,156.6508024000001,156.8510685,156.83491300000003,156.12420580000003,,,,,,,,1,1,0.49547369999993407,None,,,,,,,,833,23,M,R,2026-02-25_11h04.48.208,VisualSearch_2526_3,,2025.2.4,2026-02-25 11h04.48.746413 +0100,
vertical.xlsx,The target is tilted.,135,43,3,5,0,1,1,1,0,0,0,0,0,0,0,0,1,3,4,135,space,9.460661500000015,None,0,1,0.4646711000000323,None,space,9.942812300000014,None,0,0,0,1,,,,,5,3,43,6,156.8510685,,,,,,,,,,,,,,,,,,,,,156.83559890000004,156.8510685,157.33561630000008,157.3411463,157.3590504,157.8358158000001,,,,,157.83601570000008,157.8507621,158.05132720000006,158.0351319,157.3590504,,,,,,,,0,1,0.4646711000000323,None,,,,,,,,833,23,M,R,2026-02-25_11h04.48.208,VisualSearch_2526_3,,2025.2.4,2026-02-25 11h04.48.746413 +0100,
vertical.xlsx,The target is tilted.,135,44,4,5,1,1,1,1,1,1,1,1,1,1,1,1,0,11,12,135,space,9.460661500000015,None,1,1,0.47317229999998744,None,space,9.942812300000014,None,0,0,0,1,,,,,5,4,44,0,158.05132720000006,,,,,,,,,,,,,,,,,,,,,158.0358755000001,158.05132720000006,158.53475990000004,158.53944560000002,158.55610060000004,159.03528820000008,,,,,159.03547179999998,159.05060260000005,159.25124300000004,159.23487580000005,158.55610060000004,,,,,,,,1,1,0.47317229999998744,None,,,,,,,,833,23,M,R,2026-02-25_11h04.48.208,VisualSearch_2526_3,,2025.2.4,2026-02-25 11h04.48.746413 +0100,
vertical.xlsx,The target is tilted.,135,45,5,5,0,1,1,1,1,1,1,1,0,0,0,0,1,7,8,135,space,9.460661500000015,None,0,1,0.7252121999999872,None,space,9.942812300000014,None,0,0,0,1,,,,,5,5,45,5,159.25124300000004,,,,,,,,,,,,,,,,,,,,,159.23564270000008,159.25124300000004,159.7348869,159.7394875,159.75475219999998,160.48506630000008,,,,,160.4852462,160.50031130000002,160.70051840000008,160.6843017,159.75475219999998,,,,,,,,0,1,0.7252121999999872,None,,,,,,,,833,23,M,R,2026-02-25_11h04.48.208,VisualSearch_2526_3,,2025.2.4,2026-02-25 11h04.48.746413 +0100,
vertical.xlsx,The target is tilted.,135,46,6,5,1,1,1,1,1,1,1,1,0,0,0,0,0,7,8,135,space,9.460661500000015,None,1,1,0.5519308000000365,None,space,9.942812300000014,None,0,0,0,1,,,,,5,6,46,1,160.70051840000008,,,,,,,,,,,,,,,,,,,,,160.6849933000001,160.70051840000008,161.18428010000002,161.18913280000004,161.20806900000002,161.76764620000006,,,,,161.76778090000005,161.78339720000008,161.98391560000005,161.96779100000003,161.20806900000002,,,,,,,,1,1,0.5519308000000365,None,,,,,,,,833,23,M,R,2026-02-25_11h04.48.208,VisualSearch_2526_3,,2025.2.4,2026-02-25 11h04.48.746413 +0100,
vertical.xlsx,The target is tilted.,135,47,7,5,1,1,1,1,0,0,0,0,0,0,0,0,0,3,4,135,space,9.460661500000015,None,1,1,0.4747828000000709,None,space,9.942812300000014,None,0,0,0,1,,,,,5,7,47,2,161.98391560000005,,,,,,,,,,,,,,,,,,,,,161.9685442,161.98391560000005,162.46778410000002,162.47233170000004,162.48946880000005,162.96729490000007,,,,,162.96738779999998,162.98295110000004,163.18374960000006,163.1676026,162.48946880000005,,,,,,,,1,1,0.4747828000000709,None,,,,,,,,833,23,M,R,2026-02-25_11h04.48.208,VisualSearch_2526_3,,2025.2.4,2026-02-25 11h04.48.746413 +0100,
vertical.xlsx,The target is tilted.,135,48,0,6,0,1,1,1,1,1,1,1,0,0,0,0,1,7,8,135,space,9.460661500000015,None,0,1,0.7771004999999604,None,space,9.942812300000014,None,0,0,0,1,,,,,6,0,48,5,163.18374960000006,,,,,,,,,,,,,,,,,,,,,163.1683451,163.18374960000006,163.66735760000006,163.6725755,163.68896030000008,164.4675522,,,,,164.46774700000003,164.48293650000005,164.68346630000008,164.66741820000004,163.68896030000008,,,,,,,,0,1,0.7771004999999604,None,,,,,,,,833,23,M,R,2026-02-25_11h04.48.208,VisualSearch_2526_3,,2025.2.4,2026-02-25 11h04.48.746413 +0100,
vertical.xlsx,The target is tilted.,135,49,1,6,0,1,1,1,0,0,0,0,0,0,0,0,1,3,4,135,space,9.460661500000015,None,0,1,0.4741288000000168,None,space,9.942812300000014,None,0,0,0,1,,,,,6,1,49,6,164.68346630000008,,,,,,,,,,,,,,,,,,,,,164.66814820000002,164.68346630000008,165.16744119999998,165.1727978,165.18886110000005,165.66754320000007,,,,,165.6677472,165.6828663,165.88324820000003,165.86714030000007,165.18886110000005,,,,,,,,0,1,0.4741288000000168,None,,,,,,,,833,23,M,R,2026-02-25_11h04.48.208,VisualSearch_2526_3,,2025.2.4,2026-02-25 11h04.48.746413 +0100,
vertical.xlsx,The target is tilted.,135,50,2,6,1,1,1,1,0,0,0,0,0,0,0,0,0,3,4,135,space,9.460661500000015,None,1,1,0.610013600000002,None,space,9.942812300000014,None,0,0,0,1,,,,,6,2,50,2,165.88324820000003,,,,,,,,,,,,,,,,,,,,,165.867888,165.88324820000003,166.3672851,166.37255190000008,166.38750560000005,167.0014883,,,,,167.00169360000007,167.01590980000003,167.21607390000008,167.199883,166.38750560000005,,,,,,,,1,1,0.610013600000002,None,,,,,,,,833,23,M,R,2026-02-25_11h04.48.208,VisualSearch_2526_3,,2025.2.4,2026-02-25 11h04.48.746413 +0100,
vertical.xlsx,The target is tilted.,135,51,3,6,1,0,0,0,0,0,0,0,0,0,0,0,0,0,1,135,space,9.460661500000015,None,1,1,0.5430851999999504,None,space,9.942812300000014,None,0,0,0,1,,,,,6,3,51,3,167.21607390000008,,,,,,,,,,,,,,,,,,,,,167.2005676,167.21607390000008,167.70029069999998,167.70548700000006,167.7234323,168.28300280000008,,,,,168.2831446,168.29880630000002,168.49960370000008,168.48305630000004,167.7234323,,,,,,,,1,1,0.5430851999999504,None,,,,,,,,833,23,M,R,2026-02-25_11h04.48.208,VisualSearch_2526_3,,2025.2.4,2026-02-25 11h04.48.746413 +0100,
vertical.xlsx,The target is tilted.,135,52,4,6,0,1,1,1,1,1,1,1,1,1,1,1,1,11,12,135,space,9.460661500000015,None,0,1,1.13641460000008,None,space,9.942812300000014,None,0,0,0,1,,,,,6,4,52,4,168.49960370000008,,,,,,,,,,,,,,,,,,,,,168.4838214,168.49960370000008,168.9830177,168.9876432000001,169.00358100000005,170.15017010000008,,,,,170.15035310000007,170.16534810000007,170.3659404,170.34978780000006,169.00358100000005,,,,,,,,0,1,1.13641460000008,None,,,,,,,,833,23,M,R,2026-02-25_11h04.48.208,VisualSearch_2526_3,,2025.2.4,2026-02-25 11h04.48.746413 +0100,
vertical.xlsx,The target is tilted.,135,53,5,6,1,1,1,1,1,1,1,1,1,1,1,1,0,11,12,135,space,9.460661500000015,None,1,1,0.7647703999999749,None,space,9.942812300000014,None,0,0,0,1,,,,,6,5,53,0,170.3659404,,,,,,,,,,,,,,,,,,,,,170.35052600000006,170.3659404,170.84971500000006,170.8544167,170.8657478,171.63345700000002,,,,,171.6336556,171.64851280000005,171.8490151000001,171.83273930000007,170.8657478,,,,,,,,1,1,0.7647703999999749,None,,,,,,,,833,23,M,R,2026-02-25_11h04.48.208,VisualSearch_2526_3,,2025.2.4,2026-02-25 11h04.48.746413 +0100,
vertical.xlsx,The target is tilted.,135,54,6,6,1,1,1,1,1,1,1,1,0,0,0,0,0,7,8,135,space,9.460661500000015,None,0,0,0.5904491000000007,None,space,9.942812300000014,None,0,0,0,1,,,,,6,6,54,1,171.8490151000001,,,,,,,,,,,,,,,,,,,,,171.83349110000006,171.8490151000001,172.332948,172.33818860000008,172.3548138,172.9496272,,,,,172.95033250000006,172.96498410000004,173.16514040000004,173.14902990000007,172.3548138,,,,,,,,0,0,0.5904491000000007,None,,,,,,,,833,23,M,R,2026-02-25_11h04.48.208,VisualSearch_2526_3,,2025.2.4,2026-02-25 11h04.48.746413 +0100,
vertical.xlsx,The target is tilted.,135,55,7,6,0,0,0,0,0,0,0,0,0,0,0,0,1,1,1,135,space,9.460661500000015,None,0,1,0.5821056000000908,None,space,9.942812300000014,None,0,0,0,1,,,,,6,7,55,7,173.16514040000004,,,,,,,,,,,,,,,,,,,,,173.14976820000004,173.16514040000004,173.6495059,173.6542436000001,173.66491910000002,174.2494475000001,,,,,174.24966410000002,174.26487010000005,174.46528850000004,174.4491736,173.66491910000002,,,,,,,,0,1,0.5821056000000908,None,,,,,,,,833,23,M,R,2026-02-25_11h04.48.208,VisualSearch_2526_3,,2025.2.4,2026-02-25 11h04.48.746413 +0100,
vertical.xlsx,The target is tilted.,135,56,0,7,1,1,1,1,1,1,1,1,1,1,1,1,0,11,12,135,space,9.460661500000015,None,1,1,0.5415448999999626,None,space,9.942812300000014,None,0,0,0,1,,,,,7,0,56,0,174.46528850000004,,,,,,,,,,,,,,,,,,,,,174.44989170000008,174.46528850000004,174.94906990000004,174.95365360000005,174.9703852,175.51578740000002,,,,,175.51598780000006,175.5312589,175.7317488,175.71551340000008,174.9703852,,,,,,,,1,1,0.5415448999999626,None,,,,,,,,833,23,M,R,2026-02-25_11h04.48.208,VisualSearch_2526_3,,2025.2.4,2026-02-25 11h04.48.746413 +0100,
vertical.xlsx,The target is tilted.,135,57,1,7,0,1,1,1,1,1,1,1,0,0,0,0,1,7,8,135,space,9.460661500000015,None,0,1,0.9416817999999694,None,space,9.942812300000014,None,0,0,0,1,,,,,7,1,57,5,175.7317488,,,,,,,,,,,,,,,,,,,,,175.7162674,175.7317488,176.21558520000008,176.22084960000007,176.23682860000008,177.18157930000007,,,,,177.18168820000005,177.1974894,177.39813490000006,177.3820194,176.23682860000008,,,,,,,,0,1,0.9416817999999694,None,,,,,,,,833,23,M,R,2026-02-25_11h04.48.208,VisualSearch_2526_3,,2025.2.4,2026-02-25 11h04.48.746413 +0100,
vertical.xlsx,The target is tilted.,135,58,2,7,1,1,1,1,0,0,0,0,0,0,0,0,0,3,4,135,space,9.460661500000015,None,1,1,0.5045824000000039,None,space,9.942812300000014,None,0,0,0,1,,,,,7,2,58,2,177.39813490000006,,,,,,,,,,,,,,,,,,,,,177.38274940000008,177.39813490000006,177.88202380000007,177.88743870000008,177.9041651,178.41560660000005,,,,,178.41581230000008,178.43065680000007,178.63078710000002,178.6148587,177.9041651,,,,,,,,1,1,0.5045824000000039,None,,,,,,,,833,23,M,R,2026-02-25_11h04.48.208,VisualSearch_2526_3,,2025.2.4,2026-02-25 11h04.48.746413 +0100,
vertical.xlsx,The target is tilted.,135,59,3,7,0,1,1,1,1,1,1,1,1,1,1,1,1,11,12,135,space,9.460661500000015,None,0,1,0.8474964999999202,None,space,9.942812300000014,None,0,0,0,1,,,,,7,3,59,4,178.63078710000002,,,,,,,,,,,,,,,,,,,,,178.61559740000007,178.63078710000002,179.1151039,179.12035509999998,179.13574660000006,179.99815610000007,,,,,179.9983472,180.01365610000005,180.21425829999998,180.19815330000006,179.13574660000006,,,,,,,,0,1,0.8474964999999202,None,,,,,,,,833,23,M,R,2026-02-25_11h04.48.208,VisualSearch_2526_3,,2025.2.4,2026-02-25 11h04.48.746413 +0100,
vertical.xlsx,The target is tilted.,135,60,4,7,1,0,0,0,0,0,0,0,0,0,0,0,0,0,1,135,space,9.460661500000015,None,1,1,0.3767296000000897,None,space,9.942812300000014,None,0,0,0,1,,,,,7,4,60,3,180.21425829999998,,,,,,,,,,,,,,,,,,,,,180.19886170000007,180.21425829999998,180.6982246,180.7034728,180.72041450000006,181.09850400000005,,,,,181.09869850000007,181.11357340000006,181.313721,181.29792370000007,180.72041450000006,,,,,,,,1,1,0.3767296000000897,None,,,,,,,,833,23,M,R,2026-02-25_11h04.48.208,VisualSearch_2526_3,,2025.2.4,2026-02-25 11h04.48.746413 +0100,
vertical.xlsx,The target is tilted.,135,61,5,7,0,0,0,0,0,0,0,0,0,0,0,0,1,1,1,135,space,9.460661500000015,None,0,1,0.4930578000000878,None,space,9.942812300000014,None,0,0,0,1,,,,,7,5,61,7,181.313721,,,,,,,,,,,,,,,,,,,,,181.29872160000002,181.313721,181.7981042,181.80394620000004,181.81861270000002,182.31471729999998,,,,,182.31491590000007,182.33005330000003,182.53034280000008,182.513919,181.81861270000002,,,,,,,,0,1,0.4930578000000878,None,,,,,,,,833,23,M,R,2026-02-25_11h04.48.208,VisualSearch_2526_3,,2025.2.4,2026-02-25 11h04.48.746413 +0100,
vertical.xlsx,The target is tilted.,135,62,6,7,0,1,1,1,0,0,0,0,0,0,0,0,1,3,4,135,space,9.460661500000015,None,0,1,0.5778497000000016,None,space,9.942812300000014,None,0,0,0,1,,,,,7,6,62,6,182.53034280000008,,,,,,,,,,,,,,,,,,,,,182.51425330000006,182.53034280000008,183.01447500000006,183.0200691,183.03794620000008,183.63039020000008,,,,,183.6305264,183.64627110000004,,183.8308247,183.03794620000008,,,,,,,,0,1,0.5778497000000016,None,,,,,,,,833,23,M,R,2026-02-25_11h04.48.208,VisualSearch_2526_3,,2025.2.4,2026-02-25 11h04.48.746413 +0100,
vertical.xlsx,The target is tilted.,135,63,7,7,1,1,1,1,1,1,1,1,0,0,0,0,0,7,8,135,space,9.460661500000015,None,1,1,0.5635427000000846,None,space,9.942812300000014,None,0,0,0,1,,,,,7,7,63,1,183.8471247,,,,,,,,,,,,,,,,,,,,,183.8316913,183.8471247,184.3308810000001,184.33609580000007,184.35351409999998,184.9305353000001,,,,,184.93073290000007,184.94617440000002,185.1468274,185.1306572000001,184.35351409999998,,,,,,,,1,1,0.5635427000000846,None,,,,,,,,833,23,M,R,2026-02-25_11h04.48.208,VisualSearch_2526_3,,2025.2.4,2026-02-25 11h04.48.746413 +0100,
vertical.xlsx,The target is tilted.,135,64,0,8,0,1,1,1,1,1,1,1,0,0,0,0,1,7,8,135,space,9.460661500000015,None,0,1,0.8907322000000022,None,space,9.942812300000014,None,0,0,0,1,,,,,8,0,64,5,185.1468274,,,,,,,,,,,,,,,,,,,,,185.1313639,185.1468274,185.6306912,185.63600970000005,185.65372060000004,186.54786230000002,,,,,186.5480963,186.5626661,186.76271610000003,186.74664240000004,185.65372060000004,,,,,,,,0,1,0.8907322000000022,None,,,,,,,,833,23,M,R,2026-02-25_11h04.48.208,VisualSearch_2526_3,,2025.2.4,2026-02-25 11h04.48.746413 +0100,
vertical.xlsx,The target is tilted.,135,65,1,8,1,1,1,1,1,1,1,1,1,1,1,1,0,11,12,135,space,9.460661500000015,None,1,1,0.4829254999999648,None,space,9.942812300000014,None,0,0,0,1,,,,,8,1,65,0,186.76271610000003,,,,,,,,,,,,,,,,,,,,,186.74737400000004,186.76271610000003,187.2470551,187.25226580000003,187.2693528000001,187.7639871,,,,,187.76418310000008,187.77909510000006,187.9796791,187.96272770000007,187.2693528000001,,,,,,,,1,1,0.4829254999999648,None,,,,,,,,833,23,M,R,2026-02-25_11h04.48.208,VisualSearch_2526_3,,2025.2.4,2026-02-25 11h04.48.746413 +0100,
vertical.xlsx,The target is tilted.,135,66,2,8,1,1,1,1,1,1,1,1,0,0,0,0,0,7,8,135,space,9.460661500000015,None,1,1,0.46043039999995017,None,space,9.942812300000014,None,0,0,0,1,,,,,8,2,66,1,187.9796791,,,,,,,,,,,,,,,,,,,,,187.9631481,187.9796791,188.46299980000003,188.4677643,188.4789032,188.94734170000004,,,,,188.94757120000008,188.96235410000008,189.1623915,189.14660250000009,188.4789032,,,,,,,,1,1,0.46043039999995017,None,,,,,,,,833,23,M,R,2026-02-25_11h04.48.208,VisualSearch_2526_3,,2025.2.4,2026-02-25 11h04.48.746413 +0100,
vertical.xlsx,The target is tilted.,135,67,3,8,1,0,0,0,0,0,0,0,0,0,0,0,0,0,1,135,space,9.460661500000015,None,1,1,0.5036951000000727,None,space,9.942812300000014,None,0,0,0,1,,,,,8,3,67,3,189.1623915,,,,,,,,,,,,,,,,,,,,,189.14734670000007,189.1623915,189.64626810000004,189.650938,189.66632140000002,190.18000340000003,,,,,190.1802007,190.19537990000003,190.39572210000006,190.37975770000003,189.66632140000002,,,,,,,,1,1,0.5036951000000727,None,,,,,,,,833,23,M,R,2026-02-25_11h04.48.208,VisualSearch_2526_3,,2025.2.4,2026-02-25 11h04.48.746413 +0100,
vertical.xlsx,The target is tilted.,135,68,4,8,1,1,1,1,0,0,0,0,0,0,0,0,0,3,4,135,space,9.460661500000015,None,1,1,0.5989206000000422,None,space,9.942812300000014,None,0,0,0,1,,,,,8,4,68,2,190.39572210000006,,,,,,,,,,,,,,,,,,,,,190.3804907,190.39572210000006,190.87988660000008,190.88498370000002,190.9014499,191.5128307,,,,,191.51303890000008,191.52839540000002,191.72863400000006,191.7127356000001,190.9014499,,,,,,,,1,1,0.5989206000000422,None,,,,,,,,833,23,M,R,2026-02-25_11h04.48.208,VisualSearch_2526_3,,2025.2.4,2026-02-25 11h04.48.746413 +0100,
vertical.xlsx,The target is tilted.,135,69,5,8,0,0,0,0,0,0,0,0,0,0,0,0,1,1,1,135,space,9.460661500000015,None,1,0,0.38210670000000846,None,space,9.942812300000014,None,0,0,0,1,,,,,8,5,69,7,191.72863400000006,,,,,,,,,,,,,,,,,,,,,191.7134877000001,191.72863400000006,192.21255200000007,192.2178043,192.23540820000005,192.6297615000001,,,,,192.62992140000006,192.64497110000002,192.84528840000007,192.82904200000007,192.23540820000005,,,,,,,,1,0,0.38210670000000846,None,,,,,,,,833,23,M,R,2026-02-25_11h04.48.208,VisualSearch_2526_3,,2025.2.4,2026-02-25 11h04.48.746413 +0100,
vertical.xlsx,The target is tilted.,135,70,6,8,0,1,1,1,0,0,0,0,0,0,0,0,1,3,4,135,space,9.460661500000015,None,0,1,0.8661462000000029,None,space,9.942812300000014,None,0,0,0,1,,,,,8,6,70,6,192.84528840000007,,,,,,,,,,,,,,,,,,,,,192.82980480000003,192.84528840000007,193.32907550000004,193.33424720000005,193.3507552000001,194.2298498,,,,,194.2300524000001,194.24468450000006,194.44528960000002,194.42908380000006,193.3507552000001,,,,,,,,0,1,0.8661462000000029,None,,,,,,,,833,23,M,R,2026-02-25_11h04.48.208,VisualSearch_2526_3,,2025.2.4,2026-02-25 11h04.48.746413 +0100,
vertical.xlsx,The target is tilted.,135,71,7,8,0,1,1,1,1,1,1,1,1,1,1,1,1,11,12,135,space,9.460661500000015,None,0,1,1.1518300999999838,None,space,9.942812300000014,None,0,0,0,1,,,,,8,7,71,4,194.44528960000002,,,,,,,,,,,,,,,,,,,,,194.4298033,194.44528960000002,194.92863870000008,194.93319760000009,194.94894950000003,196.1122799000001,,,,,196.1124592,196.1277302000001,196.3282858,196.31217560000005,194.94894950000003,,,,,,,,0,1,1.1518300999999838,None,,,,,,,,833,23,M,R,2026-02-25_11h04.48.208,VisualSearch_2526_3,,2025.2.4,2026-02-25 11h04.48.746413 +0100,
vertical.xlsx,The target is tilted.,135,72,0,9,0,1,1,1,0,0,0,0,0,0,0,0,1,3,4,135,space,9.460661500000015,None,0,1,0.6131140999999616,None,space,9.942812300000014,None,0,0,0,1,,,,,9,0,72,6,196.3282858,,,,,,,,,,,,,,,,,,,,,196.31288519999998,196.3282858,196.81218650000005,196.8174103,196.83320990000004,197.46182420000002,,,,,197.46201860000008,197.47742900000003,197.678041,197.66196230000003,196.83320990000004,,,,,,,,0,1,0.6131140999999616,None,,,,,,,,833,23,M,R,2026-02-25_11h04.48.208,VisualSearch_2526_3,,2025.2.4,2026-02-25 11h04.48.746413 +0100,
vertical.xlsx,The target is tilted.,135,73,1,9,1,1,1,1,0,0,0,0,0,0,0,0,0,3,4,135,space,9.460661500000015,None,1,1,0.42087390000006053,None,space,9.942812300000014,None,0,0,0,1,,,,,9,1,73,2,197.678041,,,,,,,,,,,,,,,,,,,,,197.66270940000004,197.678041,198.16205620000005,198.16743970000005,198.18450840000003,198.61180410000009,,,,,198.61193880000008,198.62713810000002,198.82761070000004,198.8117863,198.18450840000003,,,,,,,,1,1,0.42087390000006053,None,,,,,,,,833,23,M,R,2026-02-25_11h04.48.208,VisualSearch_2526_3,,2025.2.4,2026-02-25 11h04.48.746413 +0100,
vertical.xlsx,The target is tilted.,135,74,2,9,1,1,1,1,1,1,1,1,0,0,0,0,0,7,8,135,space,9.460661500000015,None,1,1,0.5385710000000472,None,space,9.942812300000014,None,0,0,0,1,,,,,9,2,74,1,198.82761070000004,,,,,,,,,,,,,,,,,,,,,198.8125057000001,198.82761070000004,199.3116374,199.31747710000002,199.33407140000008,199.87800490000006,,,,,199.8781166,199.89363880000008,200.09421340000006,200.07808480000006,199.33407140000008,,,,,,,,1,1,0.5385710000000472,None,,,,,,,,833,23,M,R,2026-02-25_11h04.48.208,VisualSearch_2526_3,,2025.2.4,2026-02-25 11h04.48.746413 +0100,
vertical.xlsx,The target is tilted.,135,75,3,9,1,0,0,0,0,0,0,0,0,0,0,0,0,0,1,135,space,9.460661500000015,None,1,1,0.48215779999998176,None,space,9.942812300000014,None,0,0,0,1,,,,,9,3,75,3,200.09421340000006,,,,,,,,,,,,,,,,,,,,,200.07884050000007,200.09421340000006,200.57807350000007,200.58271390000004,200.59984300000008,201.09455490000005,,,,,201.09474810000006,201.110146,201.31038310000008,201.29448160000004,200.59984300000008,,,,,,,,1,1,0.48215779999998176,None,,,,,,,,833,23,M,R,2026-02-25_11h04.48.208,VisualSearch_2526_3,,2025.2.4,2026-02-25 11h04.48.746413 +0100,
vertical.xlsx,The target is tilted.,135,76,4,9,0,1,1,1,1,1,1,1,0,0,0,0,1,7,8,135,space,9.460661500000015,None,0,1,0.8804030000000012,None,space,9.942812300000014,None,0,0,0,1,,,,,9,4,76,5,201.31038310000008,,,,,,,,,,,,,,,,,,,,,201.2952676,201.31038310000008,201.79466109999998,201.7997948000001,201.81579940000006,202.7103882,,,,,202.71047410000006,202.72633919999998,,202.91079390000004,201.81579940000006,,,,,,,,0,1,0.8804030000000012,None,,,,,,,,833,23,M,R,2026-02-25_11h04.48.208,VisualSearch_2526_3,,2025.2.4,2026-02-25 11h04.48.746413 +0100,
vertical.xlsx,The target is tilted.,135,77,5,9,0,1,1,1,1,1,1,1,1,1,1,1,1,11,12,135,space,9.460661500000015,None,0,1,0.712389499999972,None,space,9.942812300000014,None,0,0,0,1,,,,,9,5,77,4,202.92719050000005,,,,,,,,,,,,,,,,,,,,,202.91156510000008,202.92719050000005,203.41077300000006,203.41575580000006,203.43085940000003,204.14393289999998,,,,,204.14402180000002,204.15950080000005,204.35971510000002,204.34362140000007,203.43085940000003,,,,,,,,0,1,0.712389499999972,None,,,,,,,,833,23,M,R,2026-02-25_11h04.48.208,VisualSearch_2526_3,,2025.2.4,2026-02-25 11h04.48.746413 +0100,
vertical.xlsx,The target is tilted.,135,78,6,9,0,0,0,0,0,0,0,0,0,0,0,0,1,1,1,135,space,9.460661500000015,None,0,1,0.45053009999992355,None,space,9.942812300000014,None,0,0,0,1,,,,,9,6,78,7,204.35971510000002,,,,,,,,,,,,,,,,,,,,,204.34430240000006,204.35971510000002,204.84413519999998,204.84938870000008,204.86539090000008,205.32756419999998,,,,,205.32772740000007,205.3428279000001,205.54322000000002,205.5272486,204.86539090000008,,,,,,,,0,1,0.45053009999992355,None,,,,,,,,833,23,M,R,2026-02-25_11h04.48.208,VisualSearch_2526_3,,2025.2.4,2026-02-25 11h04.48.746413 +0100,
vertical.xlsx,The target is tilted.,135,79,7,9,1,1,1,1,1,1,1,1,1,1,1,1,0,11,12,135,space,9.460661500000015,None,1,1,0.8137216999999737,None,space,9.942812300000014,None,0,0,0,1,,,,,9,7,79,0,205.54322000000002,,,,,,,,,,,,,,,,,,,,,205.52795220000007,205.54322000000002,206.0267533,206.0308705,206.04668430000004,206.8767851,,,,,206.87695530000008,206.8924657,207.09276810000006,207.07639700000004,206.04668430000004,,,,,,,,1,1,0.8137216999999737,None,,,,,,,,833,23,M,R,2026-02-25_11h04.48.208,VisualSearch_2526_3,,2025.2.4,2026-02-25 11h04.48.746413 +0100,
vertical.xlsx,The target is tilted.,135,80,0,10,1,1,1,1,1,1,1,1,1,1,1,1,0,11,12,135,space,9.460661500000015,None,1,1,0.5179621999999426,None,space,9.942812300000014,None,0,0,0,1,,,,,10,0,80,0,207.09276810000006,,,,,,,,,,,,,,,,,,,,,207.0768951,207.09276810000006,207.5765461000001,207.58129200000008,207.59640009999998,208.12660270000003,,,,,208.12675339999998,208.14234199999999,208.34284530000002,208.32664110000007,207.59640009999998,,,,,,,,1,1,0.5179621999999426,None,,,,,,,,833,23,M,R,2026-02-25_11h04.48.208,VisualSearch_2526_3,,2025.2.4,2026-02-25 11h04.48.746413 +0100,
vertical.xlsx,The target is tilted.,135,81,1,10,0,1,1,1,1,1,1,1,0,0,0,0,1,7,8,135,space,9.460661500000015,None,0,1,0.703241999999932,None,space,9.942812300000014,None,0,0,0,1,,,,,10,1,81,5,208.34284530000002,,,,,,,,,,,,,,,,,,,,,208.32740030000002,208.34284530000002,208.8268677000001,208.83202000000006,208.8472955000001,209.56051300000001,,,,,209.5607195,209.5754819,209.7757312,209.7586751,208.8472955000001,,,,,,,,0,1,0.703241999999932,None,,,,,,,,833,23,M,R,2026-02-25_11h04.48.208,VisualSearch_2526_3,,2025.2.4,2026-02-25 11h04.48.746413 +0100,
vertical.xlsx,The target is tilted.,135,82,2,10,0,1,1,1,1,1,1,1,1,1,1,1,1,11,12,135,space,9.460661500000015,None,0,1,0.6742733999999473,None,space,9.942812300000014,None,0,0,0,1,,,,,10,2,82,4,209.7757312,,,,,,,,,,,,,,,,,,,,,209.75890220000008,209.7757312,210.2593551,210.26189080000006,210.27526690000002,210.9589651,,,,,210.9590379,210.97502989999998,,211.15941580000003,210.27526690000002,,,,,,,,0,1,0.6742733999999473,None,,,,,,,,833,23,M,R,2026-02-25_11h04.48.208,VisualSearch_2526_3,,2025.2.4,2026-02-25 11h04.48.746413 +0100,
vertical.xlsx,The target is tilted.,135,83,3,10,1,0,0,0,0,0,0,0,0,0,0,0,0,0,1,135,space,9.460661500000015,None,1,1,0.4814695999999685,None,space,9.942812300000014,None,0,0,0,1,,,,,10,3,83,3,211.17567000000008,,,,,,,,,,,,,,,,,,,,,211.1601802,211.17567000000008,211.65942360000008,211.66462190000004,211.6803897000001,212.17654830000004,,,,,212.17674240000008,212.19212200000004,212.3922973,212.37611360000005,,,,,,,,,1,1,0.4814695999999685,None,,,,,,,,833,23,M,R,2026-02-25_11h04.48.208,VisualSearch_2526_3,,2025.2.4,2026-02-25 11h04.48.746413 +0100,
vertical.xlsx,The target is tilted.,135,84,4,10,1,1,1,1,1,1,1,1,0,0,0,0,0,7,8,135,space,9.460661500000015,None,1,1,1.0435163999999304,None,space,9.942812300000014,None,0,0,0,1,,,,,10,4,84,1,212.3922973,,,,,,,,,,,,,,,,,,,,,212.3768454000001,212.3922973,212.87617540000008,212.8814496,212.8969009,213.9432263,,,,,213.9434315000001,213.95854970000005,214.1585063,214.14205850000008,212.8969009,,,,,,,,1,1,1.0435163999999304,None,,,,,,,,833,23,M,R,2026-02-25_11h04.48.208,VisualSearch_2526_3,,2025.2.4,2026-02-25 11h04.48.746413 +0100,
vertical.xlsx,The target is tilted.,135,85,5,10,0,0,0,0,0,0,0,0,0,0,0,0,1,1,1,135,space,9.460661500000015,None,0,1,0.5477054000000408,None,space,9.942812300000014,None,0,0,0,1,,,,,10,5,85,7,214.1585063,,,,,,,,,,,,,,,,,,,,,214.1427949,214.1585063,214.6424849,214.64893070000005,214.66679450000004,215.2256999,,,,,215.22582880000004,215.24169920000008,215.4417562,215.42558070000007,214.66679450000004,,,,,,,,0,1,0.5477054000000408,None,,,,,,,,833,23,M,R,2026-02-25_11h04.48.208,VisualSearch_2526_3,,2025.2.4,2026-02-25 11h04.48.746413 +0100,
vertical.xlsx,The target is tilted.,135,86,6,10,1,1,1,1,0,0,0,0,0,0,0,0,0,3,4,135,space,9.460661500000015,None,1,1,0.6324813999999606,None,space,9.942812300000014,None,0,0,0,1,,,,,10,6,86,2,215.4417562,,,,,,,,,,,,,,,,,,,,,215.42630600000007,215.4417562,215.925659,215.93077920000007,215.94853740000008,216.5924798000001,,,,,216.59267240000008,216.60814260000006,216.80824100000007,216.79199930000004,215.94853740000008,,,,,,,,1,1,0.6324813999999606,None,,,,,,,,833,23,M,R,2026-02-25_11h04.48.208,VisualSearch_2526_3,,2025.2.4,2026-02-25 11h04.48.746413 +0100,
vertical.xlsx,The target is tilted.,135,87,7,10,0,1,1,1,0,0,0,0,0,0,0,0,1,3,4,135,space,9.460661500000015,None,0,1,0.5639674000000241,None,space,9.942812300000014,None,0,0,0,1,,,,,10,7,87,6,216.80824100000007,,,,,,,,,,,,,,,,,,,,,216.7927277,216.80824100000007,217.29218230000004,217.29727739999998,217.3141468,217.89228910000008,,,,,217.89248410000005,217.9075133,218.10793290000004,218.09176550000007,217.3141468,,,,,,,,0,1,0.5639674000000241,None,,,,,,,,833,23,M,R,2026-02-25_11h04.48.208,VisualSearch_2526_3,,2025.2.4,2026-02-25 11h04.48.746413 +0100,
vertical.xlsx,The target is tilted.,135,88,0,11,1,1,1,1,1,1,1,1,1,1,1,1,0,11,12,135,space,9.460661500000015,None,1,1,0.7549105000000509,None,space,9.942812300000014,None,0,0,0,1,,,,,11,0,88,0,218.10793290000004,,,,,,,,,,,,,,,,,,,,,218.0925085,218.10793290000004,218.59174910000002,218.5962644,218.61226110000007,219.37538860000006,,,,,219.37558130000002,219.39067350000005,219.5907430000001,219.57446570000002,218.61226110000007,,,,,,,,1,1,0.7549105000000509,None,,,,,,,,833,23,M,R,2026-02-25_11h04.48.208,VisualSearch_2526_3,,2025.2.4,2026-02-25 11h04.48.746413 +0100,
vertical.xlsx,The target is tilted.,135,89,1,11,0,1,1,1,0,0,0,0,0,0,0,0,1,3,4,135,space,9.460661500000015,None,0,1,0.5321516999999858,None,space,9.942812300000014,None,0,0,0,1,,,,,11,1,89,6,219.5907430000001,,,,,,,,,,,,,,,,,,,,,219.57514750000007,219.5907430000001,220.07454440000004,220.07926580000003,220.09026630000005,220.6250457,,,,,220.6252654,220.64039020000007,220.84067160000006,220.824341,220.09026630000005,,,,,,,,0,1,0.5321516999999858,None,,,,,,,,833,23,M,R,2026-02-25_11h04.48.208,VisualSearch_2526_3,,2025.2.4,2026-02-25 11h04.48.746413 +0100,
vertical.xlsx,The target is tilted.,135,90,2,11,1,1,1,1,0,0,0,0,0,0,0,0,0,3,4,135,space,9.460661500000015,None,1,1,0.5246760999999651,None,space,9.942812300000014,None,0,0,0,1,,,,,11,2,90,2,220.84067160000006,,,,,,,,,,,,,,,,,,,,,220.8250726,220.84067160000006,221.3247252,221.3298642000001,221.3485383000001,221.87501640000005,,,,,221.87520730000006,221.89031280000006,222.09066389999998,222.07439680000005,221.3485383000001,,,,,,,,1,1,0.5246760999999651,None,,,,,,,,833,23,M,R,2026-02-25_11h04.48.208,VisualSearch_2526_3,,2025.2.4,2026-02-25 11h04.48.746413 +0100,
vertical.xlsx,The target is tilted.,135,91,3,11,1,1,1,1,1,1,1,1,0,0,0,0,0,7,8,135,space,9.460661500000015,None,1,1,0.6270137000000204,None,space,9.942812300000014,None,0,0,0,1,,,,,11,3,91,1,222.09066389999998,,,,,,,,,,,,,,,,,,,,,222.0751619,222.09066389999998,222.5745538,222.57990510000002,222.5978292000001,223.24142360000008,,,,,223.2415969,223.25712180000005,223.456773,223.44059820000007,222.5978292000001,,,,,,,,1,1,0.6270137000000204,None,,,,,,,,833,23,M,R,2026-02-25_11h04.48.208,VisualSearch_2526_3,,2025.2.4,2026-02-25 11h04.48.746413 +0100,
vertical.xlsx,The target is tilted.,135,92,4,11,0,1,1,1,1,1,1,1,1,1,1,1,1,11,12,135,space,9.460661500000015,None,0,1,1.1830555000000231,None,space,9.942812300000014,None,0,0,0,1,,,,,11,4,92,4,223.456773,,,,,,,,,,,,,,,,,,,,,223.4413217,223.456773,223.94033120000006,223.94518490000007,223.96218729999998,225.15784530000008,,,,,225.15802770000005,225.17333430000008,225.37326919999998,225.3572931,223.96218729999998,,,,,,,,0,1,1.1830555000000231,None,,,,,,,,833,23,M,R,2026-02-25_11h04.48.208,VisualSearch_2526_3,,2025.2.4,2026-02-25 11h04.48.746413 +0100,
vertical.xlsx,The target is tilted.,135,93,5,11,0,1,1,1,1,1,1,1,0,0,0,0,1,7,8,135,space,9.460661500000015,None,0,1,0.7792451000000256,None,space,9.942812300000014,None,0,0,0,1,,,,,11,5,93,5,225.37326919999998,,,,,,,,,,,,,,,,,,,,,225.35802580000006,225.37326919999998,225.85735020000004,225.86184530000003,225.8732176000001,226.65743700000007,,,,,226.65766310000004,226.67268660000002,226.87304270000004,226.8570999000001,225.8732176000001,,,,,,,,0,1,0.7792451000000256,None,,,,,,,,833,23,M,R,2026-02-25_11h04.48.208,VisualSearch_2526_3,,2025.2.4,2026-02-25 11h04.48.746413 +0100,
vertical.xlsx,The target is tilted.,135,94,6,11,0,0,0,0,0,0,0,0,0,0,0,0,1,1,1,135,space,9.460661500000015,None,0,1,0.48149820000003274,None,space,9.942812300000014,None,0,0,0,1,,,,,11,6,94,7,226.87304270000004,,,,,,,,,,,,,,,,,,,,,226.85789750000004,226.87304270000004,227.35705100000007,227.3621859,227.37881650000008,227.87399870000002,,,,,227.87419550000004,227.88916700000004,228.08977950000008,228.0732756,227.37881650000008,,,,,,,,0,1,0.48149820000003274,None,,,,,,,,833,23,M,R,2026-02-25_11h04.48.208,VisualSearch_2526_3,,2025.2.4,2026-02-25 11h04.48.746413 +0100,
vertical.xlsx,The target is tilted.,135,95,7,11,1,0,0,0,0,0,0,0,0,0,0,0,0,0,1,135,space,9.460661500000015,None,1,1,0.5110232000000678,None,space,9.942812300000014,None,0,0,0,1,,,,,11,7,95,3,228.08977950000008,,,,,,,,,,,,,,,,,,,,,228.0740823,228.08977950000008,228.57320270000002,228.57805510000003,228.58949760000007,229.10707109999998,,,,,229.10726340000008,229.12276310000004,229.3225156000001,229.30677150000008,228.58949760000007,,,,,,,,1,1,0.5110232000000678,None,,,,,,,,833,23,M,R,2026-02-25_11h04.48.208,VisualSearch_2526_3,,2025.2.4,2026-02-25 11h04.48.746413 +0100,
vertical.xlsx,The target is tilted.,135,96,0,12,1,0,0,0,0,0,0,0,0,0,0,0,0,0,1,135,space,9.460661500000015,None,1,1,0.493218899999988,None,space,9.942812300000014,None,0,0,0,1,,,,,12,0,96,3,229.3225156000001,,,,,,,,,,,,,,,,,,,,,229.30756970000004,229.3225156000001,229.80665710000005,229.81190270000002,229.83003700000006,230.3395623,,,,,230.3396308,230.35573720000002,230.55586970000002,230.5393808,229.83003700000006,,,,,,,,1,1,0.493218899999988,None,,,,,,,,833,23,M,R,2026-02-25_11h04.48.208,VisualSearch_2526_3,,2025.2.4,2026-02-25 11h04.48.746413 +0100,
vertical.xlsx,The target is tilted.,135,97,1,12,0,0,0,0,0,0,0,0,0,0,0,0,1,1,1,135,space,9.460661500000015,None,0,1,0.5851825999999392,None,space,9.942812300000014,None,0,0,0,1,,,,,12,1,97,7,230.55586970000002,,,,,,,,,,,,,,,,,,,,,230.54011620000006,230.55586970000002,231.03910310000003,231.04314640000007,231.05882370000006,231.65662480000003,,,,,231.6567993,231.672185,231.8722275,231.85618250000005,231.05882370000006,,,,,,,,0,1,0.5851825999999392,None,,,,,,,,833,23,M,R,2026-02-25_11h04.48.208,VisualSearch_2526_3,,2025.2.4,2026-02-25 11h04.48.746413 +0100,
vertical.xlsx,The target is tilted.,135,98,2,12,1,1,1,1,1,1,1,1,0,0,0,0,0,7,8,135,space,9.460661500000015,None,1,1,0.7251597000000629,None,space,9.942812300000014,None,0,0,0,1,,,,,12,2,98,1,231.8722275,,,,,,,,,,,,,,,,,,,,,231.85689690000004,231.8722275,232.35624230000008,232.36158520000004,232.3781838,233.1066677,,,,,233.10686770000007,233.12196700000004,233.322135,233.30590949999998,232.3781838,,,,,,,,1,1,0.7251597000000629,None,,,,,,,,833,23,M,R,2026-02-25_11h04.48.208,VisualSearch_2526_3,,2025.2.4,2026-02-25 11h04.48.746413 +0100,
vertical.xlsx,The target is tilted.,135,99,3,12,0,1,1,1,0,0,0,0,0,0,0,0,1,3,4,135,space,9.460661500000015,None,0,1,0.5769103999999743,None,space,9.942812300000014,None,0,0,0,1,,,,,12,3,99,6,233.322135,,,,,,,,,,,,,,,,,,,,,233.30666340000005,233.322135,233.80537990000005,233.80825579999998,233.82151040000008,234.40632360000006,,,,,234.40651580000008,234.42182209999999,234.621848,234.60563650000006,233.82151040000008,,,,,,,,0,1,0.5769103999999743,None,,,,,,,,833,23,M,R,2026-02-25_11h04.48.208,VisualSearch_2526_3,,2025.2.4,2026-02-25 11h04.48.746413 +0100,
vertical.xlsx,The target is tilted.,135,100,4,12,1,1,1,1,0,0,0,0,0,0,0,0,0,3,4,135,space,9.460661500000015,None,1,1,0.5908061000000089,None,space,9.942812300000014,None,0,0,0,1,,,,,12,4,100,2,234.621848,,,,,,,,,,,,,,,,,,,,,234.60640820000003,234.621848,235.10580040000002,235.11097360000008,235.12637560000007,235.72280970000008,,,,,235.7230035,235.73795010000003,235.9383726000001,235.9222943000001,235.12637560000007,,,,,,,,1,1,0.5908061000000089,None,,,,,,,,833,23,M,R,2026-02-25_11h04.48.208,VisualSearch_2526_3,,2025.2.4,2026-02-25 11h04.48.746413 +0100,
vertical.xlsx,The target is tilted.,135,101,5,12,1,1,1,1,1,1,1,1,1,1,1,1,0,11,12,135,space,9.460661500000015,None,1,1,0.5054850000000215,None,space,9.942812300000014,None,0,0,0,1,,,,,12,5,101,0,235.9383726000001,,,,,,,,,,,,,,,,,,,,,235.92309520000003,235.9383726000001,236.4222569000001,236.42756110000005,236.4452291,236.955913,,,,,236.95613860000003,236.97124960000008,237.1714796,237.15506700000003,236.4452291,,,,,,,,1,1,0.5054850000000215,None,,,,,,,,833,23,M,R,2026-02-25_11h04.48.208,VisualSearch_2526_3,,2025.2.4,2026-02-25 11h04.48.746413 +0100,
vertical.xlsx,The target is tilted.,135,102,6,12,0,1,1,1,1,1,1,1,1,1,1,1,1,11,12,135,space,9.460661500000015,None,0,1,1.156052499999987,None,space,9.942812300000014,None,0,0,0,1,,,,,12,6,102,4,237.1714796,,,,,,,,,,,,,,,,,,,,,237.15588650000007,237.1714796,237.65510110000002,237.65924100000007,237.6719204000001,238.8390267000001,,,,,238.83924080000008,238.85422979999998,239.054439,239.03807960000006,237.6719204000001,,,,,,,,0,1,1.156052499999987,None,,,,,,,,833,23,M,R,2026-02-25_11h04.48.208,VisualSearch_2526_3,,2025.2.4,2026-02-25 11h04.48.746413 +0100,
vertical.xlsx,The target is tilted.,135,103,7,12,0,1,1,1,1,1,1,1,0,0,0,0,1,7,8,135,space,9.460661500000015,None,0,1,0.7778447999999116,None,space,9.942812300000014,None,0,0,0,1,,,,,12,7,103,5,239.054439,,,,,,,,,,,,,,,,,,,,,239.03883110000004,239.054439,239.53819570000007,239.5434180000001,239.55928820000008,240.3382649,,,,,240.3383933,240.35369060000005,240.55375950000007,240.53783080000005,239.55928820000008,,,,,,,,0,1,0.7778447999999116,None,,,,,,,,833,23,M,R,2026-02-25_11h04.48.208,VisualSearch_2526_3,,2025.2.4,2026-02-25 11h04.48.746413 +0100,
vertical.xlsx,The target is tilted.,135,104,0,13,1,1,1,1,0,0,0,0,0,0,0,0,0,3,4,135,space,9.460661500000015,None,1,1,0.5567618999999695,None,space,9.942812300000014,None,0,0,0,1,,,,,13,0,104,2,240.55375950000007,,,,,,,,,,,,,,,,,,,,,240.53866030000006,240.55375950000007,241.03810700000008,241.04330460000006,241.0600598000001,241.62199010000006,,,,,241.6222438000001,241.63708540000005,241.83736740000006,241.8213435,241.0600598000001,,,,,,,,1,1,0.5567618999999695,None,,,,,,,,833,23,M,R,2026-02-25_11h04.48.208,VisualSearch_2526_3,,2025.2.4,2026-02-25 11h04.48.746413 +0100,
vertical.xlsx,The target is tilted.,135,105,1,13,0,1,1,1,1,1,1,1,1,1,1,1,1,11,12,135,space,9.460661500000015,None,0,1,1.2076085999999577,None,space,9.942812300000014,None,0,0,0,1,,,,,13,1,105,4,241.83736740000006,,,,,,,,,,,,,,,,,,,,,241.82216090000009,241.83736740000006,242.32134010000004,242.32655250000005,242.34421710000004,243.5548407,,,,,243.55503840000006,243.57028320000006,243.7703742,243.75409530000002,242.34421710000004,,,,,,,,0,1,1.2076085999999577,None,,,,,,,,833,23,M,R,2026-02-25_11h04.48.208,VisualSearch_2526_3,,2025.2.4,2026-02-25 11h04.48.746413 +0100,
vertical.xlsx,The target is tilted.,135,106,2,13,1,0,0,0,0,0,0,0,0,0,0,0,0,0,1,135,space,9.460661500000015,None,1,1,0.4103165999999874,None,space,9.942812300000014,None,0,0,0,1,,,,,13,2,106,3,243.7703742,,,,,,,,,,,,,,,,,,,,,243.7548468,243.7703742,244.25401510000006,244.25856410000006,244.27434990000006,244.6873336,,,,,244.68750269999998,244.7033269000001,244.9030854,244.8873476,244.27434990000006,,,,,,,,1,1,0.4103165999999874,None,,,,,,,,833,23,M,R,2026-02-25_11h04.48.208,VisualSearch_2526_3,,2025.2.4,2026-02-25 11h04.48.746413 +0100,
vertical.xlsx,The target is tilted.,135,107,3,13,0,1,1,1,0,0,0,0,0,0,0,0,1,3,4,135,space,9.460661500000015,None,0,1,0.5254948999998987,None,space,9.942812300000014,None,0,0,0,1,,,,,13,3,107,6,244.9030854,,,,,,,,,,,,,,,,,,,,,244.88805960000002,244.9030854,245.38742060000004,245.39242360000003,245.4102021,245.9377703,,,,,245.9379642,245.9531714000001,246.15315140000007,246.13695570000004,245.4102021,,,,,,,,0,1,0.5254948999998987,None,,,,,,,,833,23,M,R,2026-02-25_11h04.48.208,VisualSearch_2526_3,,2025.2.4,2026-02-25 11h04.48.746413 +0100,
vertical.xlsx,The target is tilted.,135,108,4,13,1,1,1,1,1,1,1,1,1,1,1,1,0,11,12,135,space,9.460661500000015,None,1,1,0.45630900000003294,None,space,9.942812300000014,None,0,0,0,1,,,,,13,4,108,0,246.15315140000007,,,,,,,,,,,,,,,,,,,,,246.13767330000007,246.15315140000007,246.6372771,246.6427734,246.65915530000007,247.12077310000006,,,,,247.12096510000003,247.1361802,247.33615300000008,247.32045340000002,246.65915530000007,,,,,,,,1,1,0.45630900000003294,None,,,,,,,,833,23,M,R,2026-02-25_11h04.48.208,VisualSearch_2526_3,,2025.2.4,2026-02-25 11h04.48.746413 +0100,
vertical.xlsx,The target is tilted.,135,109,5,13,0,1,1,1,1,1,1,1,0,0,0,0,1,7,8,135,space,9.460661500000015,None,0,1,0.9092136000000437,None,space,9.942812300000014,None,0,0,0,1,,,,,13,5,109,5,247.33615300000008,,,,,,,,,,,,,,,,,,,,,247.32128310000007,247.33615300000008,247.8204254000001,247.82555090000005,247.8428001000001,248.75250990000006,,,,,248.75256780000007,248.76868180000008,248.968572,248.9521651,247.8428001000001,,,,,,,,0,1,0.9092136000000437,None,,,,,,,,833,23,M,R,2026-02-25_11h04.48.208,VisualSearch_2526_3,,2025.2.4,2026-02-25 11h04.48.746413 +0100,
vertical.xlsx,The target is tilted.,135,110,6,13,1,1,1,1,1,1,1,1,0,0,0,0,0,7,8,135,space,9.460661500000015,None,1,1,0.4950288999999657,None,space,9.942812300000014,None,0,0,0,1,,,,,13,6,110,1,248.968572,,,,,,,,,,,,,,,,,,,,,248.9524193000001,248.968572,249.4522459000001,249.45354310000005,249.4687225,249.96907110000006,,,,,249.96921350000002,249.98519280000005,250.18500240000003,250.16879649999998,249.4687225,,,,,,,,1,1,0.4950288999999657,None,,,,,,,,833,23,M,R,2026-02-25_11h04.48.208,VisualSearch_2526_3,,2025.2.4,2026-02-25 11h04.48.746413 +0100,
vertical.xlsx,The target is tilted.,135,111,7,13,0,0,0,0,0,0,0,0,0,0,0,0,1,1,1,135,space,9.460661500000015,None,0,1,0.5479915000000801,None,space,9.942812300000014,None,0,0,0,1,,,,,13,7,111,7,250.18500240000003,,,,,,,,,,,,,,,,,,,,,250.1690013,250.18500240000003,250.66955470000005,250.6747246,250.6927952000001,251.2530809,,,,,251.25325550000002,251.2689325,251.46921610000004,251.4530006,,,,,,,,,0,1,0.5479915000000801,None,,,,,,,,833,23,M,R,2026-02-25_11h04.48.208,VisualSearch_2526_3,,2025.2.4,2026-02-25 11h04.48.746413 +0100,
vertical.xlsx,The target is tilted.,135,112,0,14,0,1,1,1,0,0,0,0,0,0,0,0,1,3,4,135,space,9.460661500000015,None,0,1,0.5080143999999791,None,space,9.942812300000014,None,0,0,0,1,,,,,14,0,112,6,251.46921610000004,,,,,,,,,,,,,,,,,,,,,251.4538271,251.46921610000004,251.952947,251.9582084,251.97514380000007,252.48665530000005,,,,,252.48684830000002,252.50193339999998,252.7021188,252.68602470000008,251.97514380000007,,,,,,,,0,1,0.5080143999999791,None,,,,,,,,833,23,M,R,2026-02-25_11h04.48.208,VisualSearch_2526_3,,2025.2.4,2026-02-25 11h04.48.746413 +0100,
vertical.xlsx,The target is tilted.,135,113,1,14,0,1,1,1,1,1,1,1,0,0,0,0,1,7,8,135,space,9.460661500000015,None,0,1,0.7831652999999505,None,space,9.942812300000014,None,0,0,0,1,,,,,14,1,113,5,252.7021188,,,,,,,,,,,,,,,,,,,,,252.68673910000007,252.7021188,253.1854581,253.1899836,253.2059597,254.0025786,,,,,254.00269780000008,254.0181007,254.21860320000008,254.2019395000001,253.2059597,,,,,,,,0,1,0.7831652999999505,None,,,,,,,,833,23,M,R,2026-02-25_11h04.48.208,VisualSearch_2526_3,,2025.2.4,2026-02-25 11h04.48.746413 +0100,
vertical.xlsx,The target is tilted.,135,114,2,14,1,0,0,0,0,0,0,0,0,0,0,0,0,0,1,135,space,9.460661500000015,None,0,0,0.47570970000003854,None,space,9.942812300000014,None,0,0,0,1,,,,,14,2,114,3,254.21860320000008,,,,,,,,,,,,,,,,,,,,,254.2027280000001,254.21860320000008,254.70229210000002,254.7068031,254.7238645,255.20209980000004,,,,,255.20218350000005,255.21806290000006,255.41791480000006,255.40225580000003,254.7238645,,,,,,,,0,0,0.47570970000003854,None,,,,,,,,833,23,M,R,2026-02-25_11h04.48.208,VisualSearch_2526_3,,2025.2.4,2026-02-25 11h04.48.746413 +0100,
vertical.xlsx,The target is tilted.,135,115,3,14,0,0,0,0,0,0,0,0,0,0,0,0,1,1,1,135,space,9.460661500000015,None,0,1,0.530793000000017,None,space,9.942812300000014,None,0,0,0,1,,,,,14,3,115,7,255.41791480000006,,,,,,,,,,,,,,,,,,,,,255.4029792,255.41791480000006,255.902338,255.9076374,255.92284600000005,256.4692166,,,,,256.4693983000001,256.48478510000007,256.68437300000005,256.66840780000007,255.92284600000005,,,,,,,,0,1,0.530793000000017,None,,,,,,,,833,23,M,R,2026-02-25_11h04.48.208,VisualSearch_2526_3,,2025.2.4,2026-02-25 11h04.48.746413 +0100,
vertical.xlsx,The target is tilted.,135,116,4,14,0,1,1,1,1,1,1,1,1,1,1,1,1,11,12,135,space,9.460661500000015,None,0,1,1.191237000000001,None,space,9.942812300000014,None,0,0,0,1,,,,,14,4,116,4,256.68437300000005,,,,,,,,,,,,,,,,,,,,,256.6691372,256.68437300000005,257.1682628000001,257.17289630000005,257.19041820000007,258.3850199000001,,,,,258.38521290000006,258.4010019,258.6012419,258.58502770000007,257.19041820000007,,,,,,,,0,1,1.191237000000001,None,,,,,,,,833,23,M,R,2026-02-25_11h04.48.208,VisualSearch_2526_3,,2025.2.4,2026-02-25 11h04.48.746413 +0100,
vertical.xlsx,The target is tilted.,135,117,5,14,1,1,1,1,1,1,1,1,1,1,1,1,0,11,12,135,space,9.460661500000015,None,1,1,0.5478895999999622,None,space,9.942812300000014,None,0,0,0,1,,,,,14,5,117,0,258.6012419,,,,,,,,,,,,,,,,,,,,,258.5857509,258.6012419,259.08509330000004,259.09033550000004,259.10621760000004,259.66843040000003,,,,,259.66857820000007,259.6843226000001,259.88431260000004,259.8683735000001,259.10621760000004,,,,,,,,1,1,0.5478895999999622,None,,,,,,,,833,23,M,R,2026-02-25_11h04.48.208,VisualSearch_2526_3,,2025.2.4,2026-02-25 11h04.48.746413 +0100,
vertical.xlsx,The target is tilted.,135,118,6,14,1,1,1,1,0,0,0,0,0,0,0,0,0,3,4,135,space,9.460661500000015,None,1,1,0.460377200000039,None,space,9.942812300000014,None,0,0,0,1,,,,,14,6,118,2,259.88431260000004,,,,,,,,,,,,,,,,,,,,,259.86917200000005,259.88431260000004,260.3683092,260.3733882,260.38930830000004,260.85204380000005,,,,,260.85276310000006,260.86739080000007,261.06703920000007,261.0509438,260.38930830000004,,,,,,,,1,1,0.460377200000039,None,,,,,,,,833,23,M,R,2026-02-25_11h04.48.208,VisualSearch_2526_3,,2025.2.4,2026-02-25 11h04.48.746413 +0100,
vertical.xlsx,The target is tilted.,135,119,7,14,1,1,1,1,1,1,1,1,0,0,0,0,0,7,8,135,space,9.460661500000015,None,1,1,0.8867989999999963,None,space,9.942812300000014,None,0,0,0,1,,,,,14,7,119,1,261.06703920000007,,,,,,,,,,,,,,,,,,,,,261.05171270000005,261.06703920000007,261.5511967,261.55598240000006,261.5744446,262.46864990000006,,,,,262.46885910000003,262.48357810000005,262.7021639000001,262.6677145,261.5744446,,,,,,,,1,1,0.8867989999999963,None,,,,,,,,833,23,M,R,2026-02-25_11h04.48.208,VisualSearch_2526_3,,2025.2.4,2026-02-25 11h04.48.746413 +0100,
vertical.xlsx,The target is tilted.,135,0,0,0,,,,,,,,,,,,,,,,,space,9.460661500000015,None,,,,,space,9.942812300000014,None,0,0,0,1,,,,,,,,,,,,,,,,,,,,,,,,,,,,,,,,,,,,,,,,,,,,,,,,,,,,,,,,,,,,,,,833,23,M,R,2026-02-25_11h04.48.208,VisualSearch_2526_3,,2025.2.4,2026-02-25 11h04.48.746413 +0100,
tilted.xlsx,The target is tilted.,117,0,0,0,1,1,1,1,1,1,1,1,0,0,0,0,0,7,8,117,space,8.25181079999993,None,0,0,1.8423372000000882,None,,,,0,1,1,0,0,0,0,1,,,,,271.0200837,,,,,,,,,,,,,,,262.7021639000001,262.7021639000001,262.7021639000001,space,8.25181079999993,None,271.0162986,271.0200837,271.4822207000001,271.48634530000004,271.4986233000001,273.34972500000003,0,0,1.8423372000000882,None,273.3498996000001,273.3652737,273.5645132000001,273.54812730000003,,,,,,,,,,,,,,,,,,,,833,23,M,R,2026-02-25_11h04.48.208,VisualSearch_2526_3,,2025.2.4,2026-02-25 11h04.48.746413 +0100,
tilted.xlsx,The target is tilted.,117,1,1,0,1,1,1,1,0,0,0,0,0,0,0,0,0,3,4,117,space,8.25181079999993,None,0,0,0.9944705999999996,None,,,,0,1,1,0,0,1,1,2,,,,,273.5645132000001,,,,,,,,,,,,,,,,,,,,,273.5484792000001,273.5645132000001,274.0489825000001,274.0530373,274.069208,275.0662376,0,0,0.9944705999999996,None,275.0664389000001,275.0815847,275.28176240000005,275.2652746,274.069208,,,,,,,,,,,,,,,,,,,833,23,M,R,2026-02-25_11h04.48.208,VisualSearch_2526_3,,2025.2.4,2026-02-25 11h04.48.746413 +0100,
tilted.xlsx,The target is tilted.,117,2,2,0,0,0,0,0,0,0,0,0,0,0,0,0,1,1,1,117,space,8.25181079999993,None,1,0,0.5600165999999263,None,,,,0,1,1,0,0,2,2,7,,,,,275.28176240000005,,,,,,,,,,,,,,,,,,,,,275.26596200000006,275.28176240000005,275.765528,275.77011390000007,275.78571880000004,276.3490588000001,1,0,0.5600165999999263,None,276.3492464000001,276.3645266000001,276.56492420000006,276.54886650000003,275.78571880000004,,,,,,,,,,,,,,,,,,,833,23,M,R,2026-02-25_11h04.48.208,VisualSearch_2526_3,,2025.2.4,2026-02-25 11h04.48.746413 +0100,
tilted.xlsx,The target is tilted.,117,3,3,0,0,1,1,1,1,1,1,1,1,1,1,1,1,11,12,117,space,8.25181079999993,None,1,0,0.6742827000000489,None,,,,0,1,1,0,0,3,3,4,,,,,276.56492420000006,,,,,,,,,,,,,,,,,,,,,276.5496892,276.56492420000006,277.0485838000001,277.05310410000004,277.0708443000001,277.74863500000004,1,0,0.6742827000000489,None,277.7488174,277.76445,277.96450130000005,277.94797260000007,277.0708443000001,,,,,,,,,,,,,,,,,,,833,23,M,R,2026-02-25_11h04.48.208,VisualSearch_2526_3,,2025.2.4,2026-02-25 11h04.48.746413 +0100,
tilted.xlsx,The target is tilted.,117,4,4,0,1,1,1,1,1,1,1,1,1,1,1,1,0,11,12,117,space,8.25181079999993,None,1,1,0.765080399999988,None,,,,0,1,1,0,0,4,4,0,,,,,277.96450130000005,,,,,,,,,,,,,,,,,,,,,277.94859710000003,277.96450130000005,278.44841570000006,278.4528968000001,278.4689243,279.24878680000006,1,1,0.765080399999988,None,279.248959,279.2642842,279.46428000000003,279.4478361,278.4689243,,,,,,,,,,,,,,,,,,,833,23,M,R,2026-02-25_11h04.48.208,VisualSearch_2526_3,,2025.2.4,2026-02-25 11h04.48.746413 +0100,
tilted.xlsx,The target is tilted.,117,5,5,0,0,1,1,1,0,0,0,0,0,0,0,0,1,3,4,117,space,8.25181079999993,None,0,1,0.8811029999999391,None,,,,0,1,1,0,0,5,5,6,,,,,279.46428000000003,,,,,,,,,,,,,,,,,,,,,279.44833330000006,279.46428000000003,279.9479715,279.95262650000006,279.969293,280.8650582,0,1,0.8811029999999391,None,280.86522690000004,280.8806175000001,281.0803718000001,281.0644846,279.969293,,,,,,,,,,,,,,,,,,,833,23,M,R,2026-02-25_11h04.48.208,VisualSearch_2526_3,,2025.2.4,2026-02-25 11h04.48.746413 +0100,
tilted.xlsx,The target is tilted.,117,6,6,0,1,0,0,0,0,0,0,0,0,0,0,0,0,0,1,117,space,8.25181079999993,None,0,0,1.2318705000000136,None,,,,0,1,1,0,0,6,6,3,,,,,281.0803718000001,,,,,,,,,,,,,,,,,,,,,281.06516050000005,281.0803718000001,281.5646356000001,281.56950900000004,281.5854264000001,282.8305328,0,0,1.2318705000000136,None,282.83063300000003,282.84672150000006,283.0470884,283.0309255000001,281.5854264000001,,,,,,,,,,,,,,,,,,,833,23,M,R,2026-02-25_11h04.48.208,VisualSearch_2526_3,,2025.2.4,2026-02-25 11h04.48.746413 +0100,
tilted.xlsx,The target is tilted.,117,7,7,0,0,1,1,1,1,1,1,1,0,0,0,0,1,7,8,117,space,8.25181079999993,None,1,0,4.623888100000045,None,,,,0,1,1,0,0,7,7,5,,,,,283.0470884,,,,,,,,,,,,,,,,,,,,,283.03162910000003,283.0470884,283.53080850000003,283.5359020000001,283.5525706000001,288.1802076,1,0,4.623888100000045,None,288.1803757,288.196097,288.396161,288.38003560000004,,,,,,,,,,,,,,,,,,,,833,23,M,R,2026-02-25_11h04.48.208,VisualSearch_2526_3,,2025.2.4,2026-02-25 11h04.48.746413 +0100,
tilted.xlsx,The target is tilted.,117,0,0,0,0,0,0,0,0,0,0,0,0,0,0,0,1,1,1,117,space,8.25181079999993,None,1,0,0.6901652999999897,None,space,8.927012300000001,None,0,1,1,0,,,,,0,0,0,7,297.3682189,,,,,,,,,,,,,,,,,,,,,297.36397410000006,297.3682189,297.84503330000007,297.8503713,297.8670178,298.5621516,,,,,298.5623471,298.5774471000001,298.7779641000001,298.76187930000003,,288.38682370000004,288.396161,288.396161,297.32935510000004,space,8.927012300000001,None,1,0,0.6901652999999897,None,,,,,,,,833,23,M,R,2026-02-25_11h04.48.208,VisualSearch_2526_3,,2025.2.4,2026-02-25 11h04.48.746413 +0100,
tilted.xlsx,The target is tilted.,117,1,1,0,1,1,1,1,1,1,1,1,1,1,1,1,0,11,12,117,space,8.25181079999993,None,1,1,0.7616957000000184,None,space,8.927012300000001,None,0,1,1,0,,,,,0,1,1,0,298.7779641000001,,,,,,,,,,,,,,,,,,,,,298.76270050000005,298.7779641000001,299.26176010000006,299.26757570000007,299.28360340000006,300.0621182,,,,,300.06234330000007,300.0774818,300.277643,300.2616578000001,299.28360340000006,,,,,,,,1,1,0.7616957000000184,None,,,,,,,,833,23,M,R,2026-02-25_11h04.48.208,VisualSearch_2526_3,,2025.2.4,2026-02-25 11h04.48.746413 +0100,
tilted.xlsx,The target is tilted.,117,2,2,0,1,1,1,1,0,0,0,0,0,0,0,0,0,3,4,117,space,8.25181079999993,None,0,0,1.0142070000000558,None,space,8.927012300000001,None,0,1,1,0,,,,,0,2,2,2,300.277643,,,,,,,,,,,,,,,,,,,,,300.2624597,300.277643,300.76146400000005,300.76662440000007,300.7872119,301.81186030000003,,,,,301.8120695,301.8269407,302.02718000000004,302.0112055000001,300.7872119,,,,,,,,0,0,1.0142070000000558,None,,,,,,,,833,23,M,R,2026-02-25_11h04.48.208,VisualSearch_2526_3,,2025.2.4,2026-02-25 11h04.48.746413 +0100,
tilted.xlsx,The target is tilted.,117,3,3,0,1,0,0,0,0,0,0,0,0,0,0,0,0,0,1,117,space,8.25181079999993,None,0,0,0.7244399999999587,None,space,8.927012300000001,None,0,1,1,0,,,,,0,3,3,3,302.02718000000004,,,,,,,,,,,,,,,,,,,,,302.01193950000004,302.02718000000004,302.511292,302.5165383000001,302.536161,303.2776183000001,,,,,303.2777489,303.29353720000006,303.49359490000006,303.4776057,302.536161,,,,,,,,0,0,0.7244399999999587,None,,,,,,,,833,23,M,R,2026-02-25_11h04.48.208,VisualSearch_2526_3,,2025.2.4,2026-02-25 11h04.48.746413 +0100,
tilted.xlsx,The target is tilted.,117,4,4,0,0,1,1,1,1,1,1,1,1,1,1,1,1,11,12,117,space,8.25181079999993,None,1,0,2.252921399999991,None,space,8.927012300000001,None,0,1,1,0,,,,,0,4,4,4,303.49359490000006,,,,,,,,,,,,,,,,,,,,,303.4783090000001,303.49359490000006,303.97765660000005,303.9829015,303.9976091000001,306.2610293,,,,,306.2612213,306.2760074,306.4765456,306.46034640000005,303.9976091000001,,,,,,,,1,0,2.252921399999991,None,,,,,,,,833,23,M,R,2026-02-25_11h04.48.208,VisualSearch_2526_3,,2025.2.4,2026-02-25 11h04.48.746413 +0100,
tilted.xlsx,The target is tilted.,117,5,5,0,0,1,1,1,0,0,0,0,0,0,0,0,1,3,4,117,space,8.25181079999993,None,0,1,1.996177399999965,None,space,8.927012300000001,None,0,1,1,0,,,,,0,5,5,6,306.4765456,,,,,,,,,,,,,,,,,,,,,306.4610855000001,306.4765456,306.9603843,306.9654991,306.9822270000001,308.9932433,,,,,308.9934362,309.0092880000001,309.2094347000001,309.1928523,306.9822270000001,,,,,,,,0,1,1.996177399999965,None,,,,,,,,833,23,M,R,2026-02-25_11h04.48.208,VisualSearch_2526_3,,2025.2.4,2026-02-25 11h04.48.746413 +0100,
tilted.xlsx,The target is tilted.,117,6,6,0,1,1,1,1,1,1,1,1,0,0,0,0,0,7,8,117,space,8.25181079999993,None,0,0,1.5607357000000093,None,space,8.927012300000001,None,0,1,1,0,,,,,0,6,6,1,309.2094347000001,,,,,,,,,,,,,,,,,,,,,309.1935893,309.2094347000001,309.6928306000001,309.697321,309.7139099000001,311.27668500000004,,,,,311.2768803,311.29220900000007,311.49222910000003,311.4759937,309.7139099000001,,,,,,,,0,0,1.5607357000000093,None,,,,,,,,833,23,M,R,2026-02-25_11h04.48.208,VisualSearch_2526_3,,2025.2.4,2026-02-25 11h04.48.746413 +0100,
tilted.xlsx,The target is tilted.,117,7,7,0,0,1,1,1,1,1,1,1,0,0,0,0,1,7,8,117,space,8.25181079999993,None,1,0,3.0237654999999677,None,space,8.927012300000001,None,0,1,1,0,,,,,0,7,7,5,311.49222910000003,,,,,,,,,,,,,,,,,,,,,311.4766591,311.49222910000003,311.9759825,311.98125030000006,311.99159710000004,315.02607980000005,,,,,315.0262726000001,315.04136830000004,315.24156590000007,315.2249296,311.99159710000004,,,,,,,,1,0,3.0237654999999677,None,,,,,,,,833,23,M,R,2026-02-25_11h04.48.208,VisualSearch_2526_3,,2025.2.4,2026-02-25 11h04.48.746413 +0100,
tilted.xlsx,The target is tilted.,117,8,0,1,0,1,1,1,0,0,0,0,0,0,0,0,1,3,4,117,space,8.25181079999993,None,0,1,2.4756009999999833,None,space,8.927012300000001,None,0,1,1,0,,,,,1,0,8,6,315.24156590000007,,,,,,,,,,,,,,,,,,,,,315.22549760000004,315.24156590000007,315.72541320000005,315.73004360000004,315.74791000000005,318.2255142,,,,,318.22568950000004,318.2412684000001,318.4411834,318.42501920000007,315.74791000000005,,,,,,,,0,1,2.4756009999999833,None,,,,,,,,833,23,M,R,2026-02-25_11h04.48.208,VisualSearch_2526_3,,2025.2.4,2026-02-25 11h04.48.746413 +0100,
tilted.xlsx,The target is tilted.,117,9,1,1,0,1,1,1,1,1,1,1,1,1,1,1,1,11,12,117,space,8.25181079999993,None,0,1,4.589559699999995,None,space,8.927012300000001,None,0,1,1,0,,,,,1,1,9,4,318.4411834,,,,,,,,,,,,,,,,,,,,,318.42578490000005,318.4411834,318.92502450000006,318.9295161,318.9446828,323.5411226,,,,,323.5412845000001,323.5568721000001,323.7568107000001,323.7410267,318.9446828,,,,,,,,0,1,4.589559699999995,None,,,,,,,,833,23,M,R,2026-02-25_11h04.48.208,VisualSearch_2526_3,,2025.2.4,2026-02-25 11h04.48.746413 +0100,
tilted.xlsx,The target is tilted.,117,10,2,1,1,1,1,1,0,0,0,0,0,0,0,0,0,3,4,117,space,8.25181079999993,None,0,0,1.0939388000000463,None,space,8.927012300000001,None,0,1,1,0,,,,,1,2,10,2,323.7568107000001,,,,,,,,,,,,,,,,,,,,,323.7417405,323.7568107000001,324.240631,324.2446990000001,324.26030650000007,325.35764200000006,,,,,325.35782560000007,325.37322370000004,325.57311300000003,325.5569461,324.26030650000007,,,,,,,,0,0,1.0939388000000463,None,,,,,,,,833,23,M,R,2026-02-25_11h04.48.208,VisualSearch_2526_3,,2025.2.4,2026-02-25 11h04.48.746413 +0100,
tilted.xlsx,The target is tilted.,117,11,3,1,0,0,0,0,0,0,0,0,0,0,0,0,1,1,1,117,space,8.25181079999993,None,1,0,0.7144116000000622,None,space,8.927012300000001,None,0,1,1,0,,,,,1,3,11,7,325.57311300000003,,,,,,,,,,,,,,,,,,,,,325.55753030000005,325.57311300000003,326.05671070000005,326.0615057,326.0774163,326.8071047000001,,,,,326.80727820000004,326.8227393000001,327.02290260000007,327.00688090000006,326.0774163,,,,,,,,1,0,0.7144116000000622,None,,,,,,,,833,23,M,R,2026-02-25_11h04.48.208,VisualSearch_2526_3,,2025.2.4,2026-02-25 11h04.48.746413 +0100,
tilted.xlsx,The target is tilted.,117,12,4,1,1,1,1,1,1,1,1,1,1,1,1,1,0,11,12,117,space,8.25181079999993,None,1,1,0.9339247999999998,None,space,8.927012300000001,None,0,1,1,0,,,,,1,4,12,0,327.02290260000007,,,,,,,,,,,,,,,,,,,,,327.0077312000001,327.02290260000007,327.5068173000001,327.5119291000001,327.5289831,328.4734473000001,,,,,328.4736183,328.48929,328.68950370000005,328.67295420000005,327.5289831,,,,,,,,1,1,0.9339247999999998,None,,,,,,,,833,23,M,R,2026-02-25_11h04.48.208,VisualSearch_2526_3,,2025.2.4,2026-02-25 11h04.48.746413 +0100,
tilted.xlsx,The target is tilted.,117,13,5,1,1,1,1,1,1,1,1,1,0,0,0,0,0,7,8,117,space,8.25181079999993,None,0,0,2.039729599999987,None,space,8.927012300000001,None,0,1,1,0,,,,,1,5,13,1,328.68950370000005,,,,,,,,,,,,,,,,,,,,,328.6736641,328.68950370000005,329.17303960000004,329.1775682,329.1931549000001,331.2399975000001,,,,,331.240173,331.2554610000001,331.4555484,331.43938650000007,329.1931549000001,,,,,,,,0,0,2.039729599999987,None,,,,,,,,833,23,M,R,2026-02-25_11h04.48.208,VisualSearch_2526_3,,2025.2.4,2026-02-25 11h04.48.746413 +0100,
tilted.xlsx,The target is tilted.,117,14,6,1,1,0,0,0,0,0,0,0,0,0,0,0,0,0,1,117,space,8.25181079999993,None,0,0,0.6777911000000358,None,space,8.927012300000001,None,0,1,1,0,,,,,1,6,14,3,331.4555484,,,,,,,,,,,,,,,,,,,,,331.4401084,331.4555484,331.9397249,331.9446137,331.96172220000005,332.6564556000001,,,,,332.6566311,332.6720656,332.87217310000005,332.8558891,331.96172220000005,,,,,,,,0,0,0.6777911000000358,None,,,,,,,,833,23,M,R,2026-02-25_11h04.48.208,VisualSearch_2526_3,,2025.2.4,2026-02-25 11h04.48.746413 +0100,
tilted.xlsx,The target is tilted.,117,15,7,1,0,1,1,1,1,1,1,1,0,0,0,0,1,7,8,117,space,8.25181079999993,None,1,0,1.3753388000000086,None,space,8.927012300000001,None,0,1,1,0,,,,,1,7,15,5,332.87217310000005,,,,,,,,,,,,,,,,,,,,,332.8566635000001,332.87217310000005,333.35589630000004,333.36039000000005,333.377298,334.7552264000001,,,,,334.7553212,334.7711683,334.97175430000004,334.9555408,333.377298,,,,,,,,1,0,1.3753388000000086,None,,,,,,,,833,23,M,R,2026-02-25_11h04.48.208,VisualSearch_2526_3,,2025.2.4,2026-02-25 11h04.48.746413 +0100,
tilted.xlsx,The target is tilted.,117,16,0,2,0,1,1,1,0,0,0,0,0,0,0,0,1,3,4,117,space,8.25181079999993,None,1,0,0.95465379999996,None,space,8.927012300000001,None,0,1,1,0,,,,,2,0,16,6,334.97175430000004,,,,,,,,,,,,,,,,,,,,,334.9563102000001,334.97175430000004,335.4554277000001,335.45996660000003,335.4760833,336.4396954,,,,,336.4398570000001,336.45426470000007,336.65477180000005,336.63864290000004,335.4760833,,,,,,,,1,0,0.95465379999996,None,,,,,,,,833,23,M,R,2026-02-25_11h04.48.208,VisualSearch_2526_3,,2025.2.4,2026-02-25 11h04.48.746413 +0100,
tilted.xlsx,The target is tilted.,117,17,1,2,1,0,0,0,0,0,0,0,0,0,0,0,0,0,1,117,space,8.25181079999993,None,0,0,0.7299872999999479,None,space,8.927012300000001,None,0,1,1,0,,,,,2,1,17,3,336.65477180000005,,,,,,,,,,,,,,,,,,,,,336.63944960000003,336.65477180000005,337.1385659,337.1431021000001,337.1589524000001,337.90543420000006,,,,,337.905609,337.9211315,338.1211913000001,338.10484600000007,337.1589524000001,,,,,,,,0,0,0.7299872999999479,None,,,,,,,,833,23,M,R,2026-02-25_11h04.48.208,VisualSearch_2526_3,,2025.2.4,2026-02-25 11h04.48.746413 +0100,
tilted.xlsx,The target is tilted.,117,18,2,2,0,1,1,1,1,1,1,1,1,1,1,1,1,11,12,117,space,8.25181079999993,None,1,0,1.0488106000000244,None,space,8.927012300000001,None,0,1,1,0,,,,,2,2,18,4,338.1211913000001,,,,,,,,,,,,,,,,,,,,,338.10543640000003,338.1211913000001,338.60465780000004,338.60944000000006,338.6270203,339.6882092000001,,,,,339.6883613,339.7038268,339.90413420000004,339.8881752000001,338.6270203,,,,,,,,1,0,1.0488106000000244,None,,,,,,,,833,23,M,R,2026-02-25_11h04.48.208,VisualSearch_2526_3,,2025.2.4,2026-02-25 11h04.48.746413 +0100,
tilted.xlsx,The target is tilted.,117,19,3,2,0,0,0,0,0,0,0,0,0,0,0,0,1,1,1,117,space,8.25181079999993,None,1,0,0.6317516999999953,None,space,8.927012300000001,None,0,1,1,0,,,,,2,3,19,7,339.90413420000004,,,,,,,,,,,,,,,,,,,,,339.88891380000007,339.90413420000004,340.38810450000005,340.39278790000003,340.4094957000001,341.05509100000006,,,,,341.05528690000006,341.0707758000001,341.27072740000006,341.2545378000001,340.4094957000001,,,,,,,,1,0,0.6317516999999953,None,,,,,,,,833,23,M,R,2026-02-25_11h04.48.208,VisualSearch_2526_3,,2025.2.4,2026-02-25 11h04.48.746413 +0100,
tilted.xlsx,The target is tilted.,117,20,4,2,0,1,1,1,1,1,1,1,0,0,0,0,1,7,8,117,space,8.25181079999993,None,1,0,1.1261081000000104,None,space,8.927012300000001,None,0,1,1,0,,,,,2,4,20,5,341.27072740000006,,,,,,,,,,,,,,,,,,,,,341.2553101000001,341.27072740000006,341.7546214,341.7599765,341.77535450000005,342.9047869000001,,,,,342.9049618,342.9204192000001,343.1203488,343.1041705,341.77535450000005,,,,,,,,1,0,1.1261081000000104,None,,,,,,,,833,23,M,R,2026-02-25_11h04.48.208,VisualSearch_2526_3,,2025.2.4,2026-02-25 11h04.48.746413 +0100,
tilted.xlsx,The target is tilted.,117,21,5,2,1,1,1,1,0,0,0,0,0,0,0,0,0,3,4,117,space,8.25181079999993,None,0,0,1.0461792999999489,None,space,8.927012300000001,None,0,1,1,0,,,,,2,5,21,2,343.1203488,,,,,,,,,,,,,,,,,,,,,343.1049075000001,343.1203488,343.6038449,343.6083456,343.62543300000004,344.68762620000007,,,,,344.68779340000003,344.7034032,344.9033279,344.8873138,343.62543300000004,,,,,,,,0,0,1.0461792999999489,None,,,,,,,,833,23,M,R,2026-02-25_11h04.48.208,VisualSearch_2526_3,,2025.2.4,2026-02-25 11h04.48.746413 +0100,
tilted.xlsx,The target is tilted.,117,22,6,2,1,1,1,1,1,1,1,1,0,0,0,0,0,7,8,117,space,8.25181079999993,None,1,1,0.9896206999999322,None,space,8.927012300000001,None,0,1,1,0,,,,,2,6,22,1,344.9033279,,,,,,,,,,,,,,,,,,,,,344.8881233000001,344.9033279,345.38731010000004,345.3924478,345.408814,346.4039233000001,,,,,346.4040973,346.41974660000005,346.61983570000007,346.6032755,345.408814,,,,,,,,1,1,0.9896206999999322,None,,,,,,,,833,23,M,R,2026-02-25_11h04.48.208,VisualSearch_2526_3,,2025.2.4,2026-02-25 11h04.48.746413 +0100,
tilted.xlsx,The target is tilted.,117,23,7,2,1,1,1,1,1,1,1,1,1,1,1,1,0,11,12,117,space,8.25181079999993,None,1,1,1.012785000000008,None,space,8.927012300000001,None,0,1,1,0,,,,,2,7,23,0,346.61983570000007,,,,,,,,,,,,,,,,,,,,,346.6040242,346.61983570000007,347.10372530000006,347.10896560000003,347.12528740000005,348.15352700000005,,,,,348.15370640000003,348.1694714,348.3695195,348.35323830000004,347.12528740000005,,,,,,,,1,1,1.012785000000008,None,,,,,,,,833,23,M,R,2026-02-25_11h04.48.208,VisualSearch_2526_3,,2025.2.4,2026-02-25 11h04.48.746413 +0100,
tilted.xlsx,The target is tilted.,117,24,0,3,1,0,0,0,0,0,0,0,0,0,0,0,0,0,1,117,space,8.25181079999993,None,0,0,0.5453850999999759,None,space,8.927012300000001,None,0,1,1,0,,,,,3,0,24,3,348.3695195,,,,,,,,,,,,,,,,,,,,,348.35398110000006,348.3695195,348.85293450000006,348.8574589,348.87383450000004,349.42056460000003,,,,,349.4207738,349.4358725000001,349.6359156000001,349.6195318,348.87383450000004,,,,,,,,0,0,0.5453850999999759,None,,,,,,,,833,23,M,R,2026-02-25_11h04.48.208,VisualSearch_2526_3,,2025.2.4,2026-02-25 11h04.48.746413 +0100,
tilted.xlsx,The target is tilted.,117,25,1,3,0,1,1,1,1,1,1,1,0,0,0,0,1,7,8,117,space,8.25181079999993,None,1,0,2.355504099999962,None,space,8.927012300000001,None,0,1,1,0,,,,,3,1,25,5,349.6359156000001,,,,,,,,,,,,,,,,,,,,,349.62025300000005,349.6359156000001,350.1192890000001,350.1229637,350.13527780000004,352.5036854,,,,,352.50386290000006,352.5184203,352.7187745,352.70267060000003,350.13527780000004,,,,,,,,1,0,2.355504099999962,None,,,,,,,,833,23,M,R,2026-02-25_11h04.48.208,VisualSearch_2526_3,,2025.2.4,2026-02-25 11h04.48.746413 +0100,
tilted.xlsx,The target is tilted.,117,26,2,3,1,1,1,1,1,1,1,1,0,0,0,0,0,7,8,117,space,8.25181079999993,None,1,1,2.8227277999999387,None,space,8.927012300000001,None,0,1,1,0,,,,,3,2,26,1,352.7187745,,,,,,,,,,,,,,,,,,,,,352.7033874,352.7187745,353.2025393,353.20708890000003,353.22262910000006,356.05225900000005,,,,,356.0524419000001,356.0675414,356.26819120000005,356.25198120000005,353.22262910000006,,,,,,,,1,1,2.8227277999999387,None,,,,,,,,833,23,M,R,2026-02-25_11h04.48.208,VisualSearch_2526_3,,2025.2.4,2026-02-25 11h04.48.746413 +0100,
tilted.xlsx,The target is tilted.,117,27,3,3,0,0,0,0,0,0,0,0,0,0,0,0,1,1,1,117,space,8.25181079999993,None,1,0,0.9834553999999116,None,space,8.927012300000001,None,0,1,1,0,,,,,3,3,27,7,356.26819120000005,,,,,,,,,,,,,,,,,,,,,356.25272730000006,356.26819120000005,356.7520906,356.75641940000014,356.7723499000001,357.76852400000007,,,,,357.7686863000001,357.78437759999997,357.9845554000001,357.9684545,356.7723499000001,,,,,,,,1,0,0.9834553999999116,None,,,,,,,,833,23,M,R,2026-02-25_11h04.48.208,VisualSearch_2526_3,,2025.2.4,2026-02-25 11h04.48.746413 +0100,
tilted.xlsx,The target is tilted.,117,28,4,3,1,1,1,1,1,1,1,1,1,1,1,1,0,11,12,117,space,8.25181079999993,None,0,0,6.7993245000000115,None,space,8.927012300000001,None,0,1,1,0,,,,,3,4,28,0,357.9845554000001,,,,,,,,,,,,,,,,,,,,,357.96924579999995,357.9845554000001,358.4684182000001,358.473035,358.4906558,365.3006342000001,,,,,365.3012281000001,365.31619290000003,365.51668900000004,365.50059809999993,358.4906558,,,,,,,,0,0,6.7993245000000115,None,,,,,,,,833,23,M,R,2026-02-25_11h04.48.208,VisualSearch_2526_3,,2025.2.4,2026-02-25 11h04.48.746413 +0100,
tilted.xlsx,The target is tilted.,117,29,5,3,0,1,1,1,1,1,1,1,1,1,1,1,1,11,12,117,space,8.25181079999993,None,1,0,3.5453485999998975,None,space,8.927012300000001,None,0,1,1,0,,,,,3,5,29,4,365.51668900000004,,,,,,,,,,,,,,,,,,,,,365.50132340000005,365.51668900000004,366.0002677,366.0048703,366.0216488000001,369.5833536,,,,,369.58359300000006,369.5988414000001,369.79925230000003,369.78271440000003,366.0216488000001,,,,,,,,1,0,3.5453485999998975,None,,,,,,,,833,23,M,R,2026-02-25_11h04.48.208,VisualSearch_2526_3,,2025.2.4,2026-02-25 11h04.48.746413 +0100,
tilted.xlsx,The target is tilted.,117,30,6,3,1,1,1,1,0,0,0,0,0,0,0,0,0,3,4,117,space,8.25181079999993,None,0,0,0.8655480999998417,None,space,8.927012300000001,None,0,1,1,0,,,,,3,6,30,2,369.79925230000003,,,,,,,,,,,,,,,,,,,,,369.78338669999994,369.79925230000003,370.28235599999994,370.28447230000006,370.2987034,371.1665663000001,,,,,371.1667497000001,371.1819968,371.38184249999995,371.36559839999995,370.2987034,,,,,,,,0,0,0.8655480999998417,None,,,,,,,,833,23,M,R,2026-02-25_11h04.48.208,VisualSearch_2526_3,,2025.2.4,2026-02-25 11h04.48.746413 +0100,
tilted.xlsx,The target is tilted.,117,31,7,3,0,1,1,1,0,0,0,0,0,0,0,0,1,3,4,117,space,8.25181079999993,None,1,0,1.1317034999999578,None,space,8.927012300000001,None,0,1,1,0,,,,,3,7,31,6,371.38184249999995,,,,,,,,,,,,,,,,,,,,,371.366137,371.38184249999995,371.86615860000006,371.8707071000001,371.8815191000001,373.01600200000007,,,,,373.0161789000001,373.03157179999994,373.2319087999999,373.2158922000001,371.8815191000001,,,,,,,,1,0,1.1317034999999578,None,,,,,,,,833,23,M,R,2026-02-25_11h04.48.208,VisualSearch_2526_3,,2025.2.4,2026-02-25 11h04.48.746413 +0100,
tilted.xlsx,The target is tilted.,117,32,0,4,1,1,1,1,1,1,1,1,0,0,0,0,0,7,8,117,space,8.25181079999993,None,0,0,2.965410099999872,None,space,8.927012300000001,None,0,1,1,0,,,,,4,0,32,1,373.2319087999999,,,,,,,,,,,,,,,,,,,,,373.2166168000001,373.2319087999999,373.71544169999993,373.71988740000006,373.73185850000004,376.69911060000004,,,,,376.6992894,376.71464590000005,376.9145022,376.89841820000015,373.73185850000004,,,,,,,,0,0,2.965410099999872,None,,,,,,,,833,23,M,R,2026-02-25_11h04.48.208,VisualSearch_2526_3,,2025.2.4,2026-02-25 11h04.48.746413 +0100,
tilted.xlsx,The target is tilted.,117,33,1,4,0,1,1,1,0,0,0,0,0,0,0,0,1,3,4,117,space,8.25181079999993,None,0,1,2.057224500000075,None,space,8.927012300000001,None,0,1,1,0,,,,,4,1,33,6,376.9145022,,,,,,,,,,,,,,,,,,,,,376.8991311,376.9145022,377.39833709999994,377.40233179999996,377.4176047000001,379.4816723000001,,,,,379.48186770000007,379.49709729999995,379.69720359999997,379.68117570000004,377.4176047000001,,,,,,,,0,1,2.057224500000075,None,,,,,,,,833,23,M,R,2026-02-25_11h04.48.208,VisualSearch_2526_3,,2025.2.4,2026-02-25 11h04.48.746413 +0100,
tilted.xlsx,The target is tilted.,117,34,2,4,1,0,0,0,0,0,0,0,0,0,0,0,0,0,1,117,space,8.25181079999993,None,0,0,0.6402463000001717,None,space,8.927012300000001,None,0,1,1,0,,,,,4,2,34,3,379.69720359999997,,,,,,,,,,,,,,,,,,,,,379.68193900000006,379.69720359999997,380.18153010000015,380.1860134000001,380.20264480000014,380.84837459999994,,,,,380.8485501,380.8636541999999,381.0640258000001,381.0479014,380.20264480000014,,,,,,,,0,0,0.6402463000001717,None,,,,,,,,833,23,M,R,2026-02-25_11h04.48.208,VisualSearch_2526_3,,2025.2.4,2026-02-25 11h04.48.746413 +0100,
tilted.xlsx,The target is tilted.,117,35,3,4,0,0,0,0,0,0,0,0,0,0,0,0,1,1,1,117,space,8.25181079999993,None,0,1,0.789287399999921,None,space,8.927012300000001,None,0,1,1,0,,,,,4,3,35,7,381.0640258000001,,,,,,,,,,,,,,,,,,,,,381.04872309999996,381.0640258000001,381.5480520000001,381.55339819999995,381.56984690000013,382.36471559999995,,,,,382.36490270000013,382.38039070000013,382.58051360000013,382.56426050000005,381.56984690000013,,,,,,,,0,1,0.789287399999921,None,,,,,,,,833,23,M,R,2026-02-25_11h04.48.208,VisualSearch_2526_3,,2025.2.4,2026-02-25 11h04.48.746413 +0100,
tilted.xlsx,The target is tilted.,117,36,4,4,1,1,1,1,0,0,0,0,0,0,0,0,0,3,4,117,space,8.25181079999993,None,0,0,1.5150006000001213,None,space,8.927012300000001,None,0,1,1,0,,,,,4,4,36,2,382.58051360000013,,,,,,,,,,,,,,,,,,,,,382.56502190000015,382.58051360000013,383.0643771,383.0695746000001,383.08536589999994,384.6145842000001,,,,,384.614783,384.6300443,384.82991820000007,384.8138143000001,383.08536589999994,,,,,,,,0,0,1.5150006000001213,None,,,,,,,,833,23,M,R,2026-02-25_11h04.48.208,VisualSearch_2526_3,,2025.2.4,2026-02-25 11h04.48.746413 +0100,
tilted.xlsx,The target is tilted.,117,37,5,4,1,1,1,1,1,1,1,1,1,1,1,1,0,11,12,117,space,8.25181079999993,None,1,1,5.3495580000001155,None,space,8.927012300000001,None,0,1,1,0,,,,,4,5,37,0,384.82991820000007,,,,,,,,,,,,,,,,,,,,,384.8145389000001,384.82991820000007,385.3137581000001,385.3182766,385.3340849000001,390.6967300000001,,,,,390.69690549999996,390.71211089999997,390.9120186,390.8958983,385.3340849000001,,,,,,,,1,1,5.3495580000001155,None,,,,,,,,833,23,M,R,2026-02-25_11h04.48.208,VisualSearch_2526_3,,2025.2.4,2026-02-25 11h04.48.746413 +0100,
tilted.xlsx,The target is tilted.,117,38,6,4,0,1,1,1,1,1,1,1,1,1,1,1,1,11,12,117,space,8.25181079999993,None,1,0,2.5385493000001134,None,space,8.927012300000001,None,0,1,1,0,,,,,4,6,38,4,390.9120186,,,,,,,,,,,,,,,,,,,,,390.8966829000001,390.9120186,391.3961958,391.40073170000005,391.41745289999994,393.96335320000003,,,,,393.96352920000004,393.97813510000015,394.1780437,394.16192049999995,391.41745289999994,,,,,,,,1,0,2.5385493000001134,None,,,,,,,,833,23,M,R,2026-02-25_11h04.48.208,VisualSearch_2526_3,,2025.2.4,2026-02-25 11h04.48.746413 +0100,
