file_name,block_instructions,target_example,thisN,thisTrialN,thisRepN,target_presence,opacity_1,opacity_2,opacity_3,opacity_4,opacity_5,opacity_6,opacity_7,opacity_8,opacity_9,opacity_10,opacity_11,opacity_12,n_distract,n_items,target_ori,key_resp_4.keys,key_resp_4.rt,key_resp_4.duration,key_resp.keys,key_resp.corr,key_resp.rt,key_resp.duration,key_resp_5.keys,key_resp_5.rt,key_resp_5.duration,blocks.thisRepN,blocks.thisTrialN,blocks.thisN,blocks.thisIndex,practice_trials.thisRepN,practice_trials.thisTrialN,practice_trials.thisN,practice_trials.thisIndex,trials.thisRepN,trials.thisTrialN,trials.thisN,trials.thisIndex,thisRow.t,notes,Welcome.started,WelcomeText.started,key_resp_2.started,Welcome.stopped,key_resp_2.keys,key_resp_2.rt,key_resp_2.duration,InformedConsent.started,text_4.started,InformedConsent.stopped,key_resp_6.keys,key_resp_6.rt,key_resp_6.duration,key_resp_4.started,example_target.started,text_3.started,blocks.key_resp_4.keys,blocks.key_resp_4.rt,blocks.key_resp_4.duration,FixCross.started,fixCross.started,FixCross.stopped,Stimulus.started,key_resp.started,Stimulus.stopped,practice_trials.key_resp.keys,practice_trials.key_resp.corr,practice_trials.key_resp.rt,practice_trials.key_resp.duration,BlankScreen.started,text.started,text.stopped,BlankScreen.stopped,fixCross.stopped,ExperimentStart.started,text_2.started,key_resp_5.started,ExperimentStart.stopped,blocks.key_resp_5.keys,blocks.key_resp_5.rt,blocks.key_resp_5.duration,trials.key_resp.keys,trials.key_resp.corr,trials.key_resp.rt,trials.key_resp.duration,Thanks.started,ThankYou.started,key_resp_3.started,Thanks.stopped,key_resp_3.keys,key_resp_3.rt,key_resp_3.duration,participant,leeftijd,gender,links/rechtshandig,date,expName,expVersion,psychopyVersion,expStart,
,,,,,,,,,,,,,,,,,,,,,,,,,,,,,,,,,,,,,,,,,,,,,,0.030858600000101433,0.06025339999996504,0.06025339999996504,28.61719519999997,space,28.537219800000003,None,,,,,,,,,,,,,,,,,,,,,,,,,,,,,,,,,,,,,,,,,,,,,,834,18,M,R,2026-02-25_11h16.12.023,VisualSearch_2526_3,,2025.2.4,2026-02-25 11h16.12.264047 +0100,
,,,,,,,,,,,,,,,,,,,,,,,,,,,,,,,,,,,,,,,,,,,,,,,,,,,,,28.61728089999997,28.62390490000007,35.3571766,y,6.725404000000026,None,,,,,,,,,,,,,,,,,,,,,,,,,,,,,,,,,,,,,,,,834,18,M,R,2026-02-25_11h16.12.023,VisualSearch_2526_3,,2025.2.4,2026-02-25 11h16.12.264047 +0100,
tilted.xlsx,The target is tilted.,117,0,0,0,0,1,1,1,0,0,0,0,0,0,0,0,1,3,4,117,space,5.777824600000031,None,0,1,0.9389493999999559,None,,,,0,0,0,0,0,0,0,6,,,,,41.22033230000011,,,,,,,,,,,,,,,35.400458800000024,35.400458800000024,35.400458800000024,space,5.777824600000031,None,41.21488539999996,41.22033230000011,41.70499229999996,41.70987790000004,41.72680500000001,42.67208249999999,0,1,0.9389493999999559,None,42.672273299999915,42.687620400000014,42.88798459999998,42.87183490000007,,,,,,,,,,,,,,,,,,,,834,18,M,R,2026-02-25_11h16.12.023,VisualSearch_2526_3,,2025.2.4,2026-02-25 11h16.12.264047 +0100,
tilted.xlsx,The target is tilted.,117,1,1,0,0,1,1,1,1,1,1,1,0,0,0,0,1,7,8,117,space,5.777824600000031,None,0,1,1.4555854000000181,None,,,,0,0,0,0,0,1,1,5,,,,,42.88798459999998,,,,,,,,,,,,,,,,,,,,,42.87248139999997,42.88798459999998,43.37192049999999,43.377266499999905,43.3946383,44.85520029999998,0,1,1.4555854000000181,None,44.85537260000001,44.870815799999946,45.07029229999989,45.05413599999997,43.3946383,,,,,,,,,,,,,,,,,,,834,18,M,R,2026-02-25_11h16.12.023,VisualSearch_2526_3,,2025.2.4,2026-02-25 11h16.12.264047 +0100,
tilted.xlsx,The target is tilted.,117,2,2,0,1,1,1,1,1,1,1,1,1,1,1,1,0,11,12,117,space,5.777824600000031,None,1,1,3.094072800000049,None,,,,0,0,0,0,0,2,2,0,,,,,45.07029229999989,,,,,,,,,,,,,,,,,,,,,45.05470700000001,45.07029229999989,45.554243399999905,45.55846120000001,45.57395530000008,48.67133029999991,1,1,3.094072800000049,None,48.67149880000011,48.68640030000006,48.88695759999996,48.870782599999984,45.57395530000008,,,,,,,,,,,,,,,,,,,834,18,M,R,2026-02-25_11h16.12.023,VisualSearch_2526_3,,2025.2.4,2026-02-25 11h16.12.264047 +0100,
tilted.xlsx,The target is tilted.,117,3,3,0,1,0,0,0,0,0,0,0,0,0,0,0,0,0,1,117,space,5.777824600000031,None,1,1,0.5845859999999448,None,,,,0,0,0,0,0,3,3,3,,,,,48.88695759999996,,,,,,,,,,,,,,,,,,,,,48.8713972999999,48.88695759999996,49.37051479999991,49.37464750000004,49.389097600000014,49.987025299999914,1,1,0.5845859999999448,None,49.98716659999991,50.0027278,50.203204299999925,50.18711609999991,49.389097600000014,,,,,,,,,,,,,,,,,,,834,18,M,R,2026-02-25_11h16.12.023,VisualSearch_2526_3,,2025.2.4,2026-02-25 11h16.12.264047 +0100,
tilted.xlsx,The target is tilted.,117,4,4,0,0,0,0,0,0,0,0,0,0,0,0,0,1,1,1,117,space,5.777824600000031,None,0,1,0.5911509999998543,None,,,,0,0,0,0,0,4,4,7,,,,,50.203204299999925,,,,,,,,,,,,,,,,,,,,,50.18770859999995,50.203204299999925,50.68717330000004,50.69179089999989,50.70743489999995,51.303970100000015,0,1,0.5911509999998543,None,51.304137800000035,51.31928549999998,51.51974500000006,51.50347949999991,50.70743489999995,,,,,,,,,,,,,,,,,,,834,18,M,R,2026-02-25_11h16.12.023,VisualSearch_2526_3,,2025.2.4,2026-02-25 11h16.12.264047 +0100,
tilted.xlsx,The target is tilted.,117,5,5,0,0,1,1,1,1,1,1,1,1,1,1,1,1,11,12,117,space,5.777824600000031,None,0,1,3.2769078999999692,None,,,,0,0,0,0,0,5,5,4,,,,,51.51974500000006,,,,,,,,,,,,,,,,,,,,,51.504032499999994,51.51974500000006,52.00337669999999,52.00838980000003,52.02551059999996,55.31873560000008,0,1,3.2769078999999692,None,55.318804,55.33540689999995,,55.51928900000007,52.02551059999996,,,,,,,,,,,,,,,,,,,834,18,M,R,2026-02-25_11h16.12.023,VisualSearch_2526_3,,2025.2.4,2026-02-25 11h16.12.264047 +0100,
tilted.xlsx,The target is tilted.,117,6,6,0,1,1,1,1,0,0,0,0,0,0,0,0,0,3,4,117,space,5.777824600000031,None,1,1,0.8759247000000414,None,,,,0,0,0,0,0,6,6,2,,,,,55.53564559999995,,,,,,,,,,,,,,,,,,,,,55.519964200000004,55.53564559999995,56.01941089999991,56.02419450000002,56.04043849999994,56.91883009999992,1,1,0.8759247000000414,None,56.918908899999906,56.93473889999996,,57.119102999999996,,,,,,,,,,,,,,,,,,,,834,18,M,R,2026-02-25_11h16.12.023,VisualSearch_2526_3,,2025.2.4,2026-02-25 11h16.12.264047 +0100,
tilted.xlsx,The target is tilted.,117,7,7,0,1,1,1,1,1,1,1,1,0,0,0,0,0,7,8,117,space,5.777824600000031,None,1,1,0.7890399000000343,None,,,,0,0,0,0,0,7,7,1,,,,,57.135561999999936,,,,,,,,,,,,,,,,,,,,,57.1198131000001,57.135561999999936,57.619045599999936,57.62433689999989,57.64248500000008,58.43615980000004,1,1,0.7890399000000343,None,58.43635040000004,58.45157539999991,58.65167930000007,58.63506460000008,,,,,,,,,,,,,,,,,,,,834,18,M,R,2026-02-25_11h16.12.023,VisualSearch_2526_3,,2025.2.4,2026-02-25 11h16.12.264047 +0100,
tilted.xlsx,The target is tilted.,117,0,0,0,1,1,1,1,1,1,1,1,0,0,0,0,0,7,8,117,space,5.777824600000031,None,1,1,0.8767047999999704,None,space,2.5491389000001163,None,0,0,0,0,,,,,0,0,0,1,61.223506900000075,,,,,,,,,,,,,,,,,,,,,61.219945800000005,61.223506900000075,61.71874309999998,61.72416309999994,61.734589400000004,62.61936749999995,,,,,62.619593500000065,62.63415409999993,62.834402100000034,62.81862359999991,,58.641104799999994,58.65167930000007,58.65167930000007,61.20277650000003,space,2.5491389000001163,None,1,1,0.8767047999999704,None,,,,,,,,834,18,M,R,2026-02-25_11h16.12.023,VisualSearch_2526_3,,2025.2.4,2026-02-25 11h16.12.264047 +0100,
tilted.xlsx,The target is tilted.,117,1,1,0,1,0,0,0,0,0,0,0,0,0,0,0,0,0,1,117,space,5.777824600000031,None,1,1,0.5144496999998864,None,space,2.5491389000001163,None,0,0,0,0,,,,,0,1,1,3,62.834402100000034,,,,,,,,,,,,,,,,,,,,,62.81947020000007,62.834402100000034,63.318572399999994,63.32388059999994,63.34009130000004,63.86834309999995,,,,,63.868542299999945,63.88384150000002,64.08399880000002,64.06785940000009,63.34009130000004,,,,,,,,1,1,0.5144496999998864,None,,,,,,,,834,18,M,R,2026-02-25_11h16.12.023,VisualSearch_2526_3,,2025.2.4,2026-02-25 11h16.12.264047 +0100,
tilted.xlsx,The target is tilted.,117,2,2,0,0,1,1,1,1,1,1,1,0,0,0,0,1,7,8,117,space,5.777824600000031,None,1,0,1.8184959999998682,None,space,2.5491389000001163,None,0,0,0,0,,,,,0,2,2,5,64.08399880000002,,,,,,,,,,,,,,,,,,,,,64.06859020000002,64.08399880000002,64.56819799999994,64.57355800000005,64.59142730000008,66.41805679999993,,,,,66.41823520000003,66.43344969999998,66.63380170000005,66.61779780000006,64.59142730000008,,,,,,,,1,0,1.8184959999998682,None,,,,,,,,834,18,M,R,2026-02-25_11h16.12.023,VisualSearch_2526_3,,2025.2.4,2026-02-25 11h16.12.264047 +0100,
tilted.xlsx,The target is tilted.,117,3,3,0,1,1,1,1,0,0,0,0,0,0,0,0,0,3,4,117,space,5.777824600000031,None,1,1,0.885128399999985,None,space,2.5491389000001163,None,0,0,0,0,,,,,0,3,3,2,66.63380170000005,,,,,,,,,,,,,,,,,,,,,66.61855500000001,66.63380170000005,67.1170591,67.11876540000003,67.13367910000011,68.0344536,,,,,68.03465430000006,68.04985889999989,68.25041499999998,68.2343186999999,67.13367910000011,,,,,,,,1,1,0.885128399999985,None,,,,,,,,834,18,M,R,2026-02-25_11h16.12.023,VisualSearch_2526_3,,2025.2.4,2026-02-25 11h16.12.264047 +0100,
tilted.xlsx,The target is tilted.,117,4,4,0,1,1,1,1,1,1,1,1,1,1,1,1,0,11,12,117,space,5.777824600000031,None,1,1,1.208008399999926,None,space,2.5491389000001163,None,0,0,0,0,,,,,0,4,4,0,68.25041499999998,,,,,,,,,,,,,,,,,,,,,68.23506029999999,68.25041499999998,68.73441019999996,68.73994169999992,68.75649780000003,69.96788500000002,,,,,69.96809770000004,69.9828480000001,70.18337369999995,70.16722449999997,68.75649780000003,,,,,,,,1,1,1.208008399999926,None,,,,,,,,834,18,M,R,2026-02-25_11h16.12.023,VisualSearch_2526_3,,2025.2.4,2026-02-25 11h16.12.264047 +0100,
tilted.xlsx,The target is tilted.,117,5,5,0,0,1,1,1,0,0,0,0,0,0,0,0,1,3,4,117,space,5.777824600000031,None,0,1,0.9694234000000961,None,space,2.5491389000001163,None,0,0,0,0,,,,,0,5,5,6,70.18337369999995,,,,,,,,,,,,,,,,,,,,,70.1679959999999,70.18337369999995,70.66717300000005,70.67183470000009,70.68903109999997,71.66721269999994,,,,,71.66741279999997,71.6826716999999,71.88276399999995,71.86683930000004,70.68903109999997,,,,,,,,0,1,0.9694234000000961,None,,,,,,,,834,18,M,R,2026-02-25_11h16.12.023,VisualSearch_2526_3,,2025.2.4,2026-02-25 11h16.12.264047 +0100,
tilted.xlsx,The target is tilted.,117,6,6,0,0,0,0,0,0,0,0,0,0,0,0,0,1,1,1,117,space,5.777824600000031,None,0,1,0.7730142000000342,None,space,2.5491389000001163,None,0,0,0,0,,,,,0,6,6,7,71.88276399999995,,,,,,,,,,,,,,,,,,,,,71.8675995000001,71.88276399999995,72.36684289999994,72.37161179999998,72.38749140000004,73.16738669999995,,,,,73.1675831,73.18228320000003,73.38245129999996,73.36628420000011,72.38749140000004,,,,,,,,0,1,0.7730142000000342,None,,,,,,,,834,18,M,R,2026-02-25_11h16.12.023,VisualSearch_2526_3,,2025.2.4,2026-02-25 11h16.12.264047 +0100,
tilted.xlsx,The target is tilted.,117,7,7,0,0,1,1,1,1,1,1,1,1,1,1,1,1,11,12,117,space,5.777824600000031,None,0,1,3.661348400000179,None,space,2.5491389000001163,None,0,0,0,0,,,,,0,7,7,4,73.38245129999996,,,,,,,,,,,,,,,,,,,,,73.36698019999994,73.38245129999996,73.86625939999999,73.87132410000004,73.8878466000001,77.56579450000004,,,,,77.56595940000011,77.5815164999999,77.78172730000006,77.76555480000002,73.8878466000001,,,,,,,,0,1,3.661348400000179,None,,,,,,,,834,18,M,R,2026-02-25_11h16.12.023,VisualSearch_2526_3,,2025.2.4,2026-02-25 11h16.12.264047 +0100,
tilted.xlsx,The target is tilted.,117,8,0,1,1,1,1,1,1,1,1,1,0,0,0,0,0,7,8,117,space,5.777824600000031,None,1,1,1.255440500000077,None,space,2.5491389000001163,None,0,0,0,0,,,,,1,0,8,1,77.78172730000006,,,,,,,,,,,,,,,,,,,,,77.76624250000009,77.78172730000006,78.26552740000011,78.35537999999997,78.36538670000004,79.63263350000011,,,,,79.63279970000008,79.64780199999996,79.84835859999998,79.83238879999999,78.36538670000004,,,,,,,,1,1,1.255440500000077,None,,,,,,,,834,18,M,R,2026-02-25_11h16.12.023,VisualSearch_2526_3,,2025.2.4,2026-02-25 11h16.12.264047 +0100,
tilted.xlsx,The target is tilted.,117,9,1,1,0,0,0,0,0,0,0,0,0,0,0,0,1,1,1,117,space,5.777824600000031,None,0,1,0.5797385999999278,None,space,2.5491389000001163,None,0,0,0,0,,,,,1,1,9,7,79.84835859999998,,,,,,,,,,,,,,,,,,,,,79.83310129999995,79.84835859999998,80.33223679999992,80.336861,80.35395859999994,80.94868659999997,,,,,80.9488702000001,80.9642765000001,81.16481399999998,81.14870429999996,80.35395859999994,,,,,,,,0,1,0.5797385999999278,None,,,,,,,,834,18,M,R,2026-02-25_11h16.12.023,VisualSearch_2526_3,,2025.2.4,2026-02-25 11h16.12.264047 +0100,
tilted.xlsx,The target is tilted.,117,10,2,1,1,0,0,0,0,0,0,0,0,0,0,0,0,0,1,117,space,5.777824600000031,None,1,1,0.6752113000000008,None,space,2.5491389000001163,None,0,0,0,0,,,,,1,2,10,3,81.16481399999998,,,,,,,,,,,,,,,,,,,,,81.1494474000001,81.16481399999998,81.64875649999999,81.65340779999997,81.67140169999993,82.34919009999999,,,,,82.3493883000001,82.36412769999993,82.5644726999999,82.54859110000007,81.67140169999993,,,,,,,,1,1,0.6752113000000008,None,,,,,,,,834,18,M,R,2026-02-25_11h16.12.023,VisualSearch_2526_3,,2025.2.4,2026-02-25 11h16.12.264047 +0100,
tilted.xlsx,The target is tilted.,117,11,3,1,0,1,1,1,1,1,1,1,1,1,1,1,1,11,12,117,space,5.777824600000031,None,0,1,3.076686099999961,None,space,2.5491389000001163,None,0,0,0,0,,,,,1,3,11,4,82.5644726999999,,,,,,,,,,,,,,,,,,,,,82.54930439999998,82.5644726999999,83.04854819999991,83.05359399999998,83.06424070000003,86.14835319999997,,,,,86.14853470000003,86.16347649999989,86.36382819999994,86.3478035999999,83.06424070000003,,,,,,,,0,1,3.076686099999961,None,,,,,,,,834,18,M,R,2026-02-25_11h16.12.023,VisualSearch_2526_3,,2025.2.4,2026-02-25 11h16.12.264047 +0100,
tilted.xlsx,The target is tilted.,117,12,4,1,1,1,1,1,0,0,0,0,0,0,0,0,0,3,4,117,space,5.777824600000031,None,1,1,0.9504445000000032,None,space,2.5491389000001163,None,0,0,0,0,,,,,1,4,12,2,86.36382819999994,,,,,,,,,,,,,,,,,,,,,86.34855880000009,86.36382819999994,86.84776729999999,86.8524394000001,86.86815509999997,87.83079829999997,,,,,87.83097859999998,87.8464904,88.04709189999994,88.03101040000001,86.86815509999997,,,,,,,,1,1,0.9504445000000032,None,,,,,,,,834,18,M,R,2026-02-25_11h16.12.023,VisualSearch_2526_3,,2025.2.4,2026-02-25 11h16.12.264047 +0100,
tilted.xlsx,The target is tilted.,117,13,5,1,0,1,1,1,0,0,0,0,0,0,0,0,1,3,4,117,space,5.777824600000031,None,0,1,0.9347798999999668,None,space,2.5491389000001163,None,0,0,0,0,,,,,1,5,13,6,88.04709189999994,,,,,,,,,,,,,,,,,,,,,88.03172539999991,88.04709189999994,88.53098679999994,88.53578379999999,88.54818470000009,89.49726809999993,,,,,89.49746219999997,89.5128893000001,89.71352989999991,89.69728060000011,88.54818470000009,,,,,,,,0,1,0.9347798999999668,None,,,,,,,,834,18,M,R,2026-02-25_11h16.12.023,VisualSearch_2526_3,,2025.2.4,2026-02-25 11h16.12.264047 +0100,
tilted.xlsx,The target is tilted.,117,14,6,1,1,1,1,1,1,1,1,1,1,1,1,1,0,11,12,117,space,5.777824600000031,None,1,1,1.4757558999999674,None,space,2.5491389000001163,None,0,0,0,0,,,,,1,6,14,0,89.71352989999991,,,,,,,,,,,,,,,,,,,,,89.69803060000004,89.71352989999991,90.19720729999995,90.2025493000001,90.21849380000003,91.69678709999994,,,,,91.69686380000007,91.71227640000006,91.9131726999999,91.89693069999998,90.21849380000003,,,,,,,,1,1,1.4757558999999674,None,,,,,,,,834,18,M,R,2026-02-25_11h16.12.023,VisualSearch_2526_3,,2025.2.4,2026-02-25 11h16.12.264047 +0100,
tilted.xlsx,The target is tilted.,117,15,7,1,0,1,1,1,1,1,1,1,0,0,0,0,1,7,8,117,space,5.777824600000031,None,0,1,1.2764961999998832,None,space,2.5491389000001163,None,0,0,0,0,,,,,1,7,15,5,91.9131726999999,,,,,,,,,,,,,,,,,,,,,91.89769159999992,91.9131726999999,92.39701450000007,92.4022508999999,92.41709330000003,93.6969947,,,,,93.69719069999996,93.7122546999999,93.91269289999991,93.89641920000008,92.41709330000003,,,,,,,,0,1,1.2764961999998832,None,,,,,,,,834,18,M,R,2026-02-25_11h16.12.023,VisualSearch_2526_3,,2025.2.4,2026-02-25 11h16.12.264047 +0100,
tilted.xlsx,The target is tilted.,117,16,0,2,0,1,1,1,0,0,0,0,0,0,0,0,1,3,4,117,space,5.777824600000031,None,0,1,0.8591114000000744,None,space,2.5491389000001163,None,0,0,0,0,,,,,2,0,16,6,93.91269289999991,,,,,,,,,,,,,,,,,,,,,93.8971434,93.91269289999991,94.39649860000009,94.4013579,94.41961700000002,95.28000169999996,,,,,95.28016240000011,95.29526529999998,95.495815,95.4796695,94.41961700000002,,,,,,,,0,1,0.8591114000000744,None,,,,,,,,834,18,M,R,2026-02-25_11h16.12.023,VisualSearch_2526_3,,2025.2.4,2026-02-25 11h16.12.264047 +0100,
tilted.xlsx,The target is tilted.,117,17,1,2,1,1,1,1,1,1,1,1,1,1,1,1,0,11,12,117,space,5.777824600000031,None,1,1,1.3916122000000541,None,space,2.5491389000001163,None,0,0,0,0,,,,,2,1,17,0,95.495815,,,,,,,,,,,,,,,,,,,,,95.48042650000002,95.495815,95.9795888000001,95.98443330000009,96.00294480000002,97.3958725,,,,,97.39599229999999,97.41160530000002,97.61222410000005,97.59591169999999,96.00294480000002,,,,,,,,1,1,1.3916122000000541,None,,,,,,,,834,18,M,R,2026-02-25_11h16.12.023,VisualSearch_2526_3,,2025.2.4,2026-02-25 11h16.12.264047 +0100,
tilted.xlsx,The target is tilted.,117,18,2,2,0,1,1,1,1,1,1,1,1,1,1,1,1,11,12,117,space,5.777824600000031,None,0,1,1.7384883999998237,None,space,2.5491389000001163,None,0,0,0,0,,,,,2,2,18,4,97.61222410000005,,,,,,,,,,,,,,,,,,,,,97.59666229999993,97.61222410000005,98.09584659999996,98.10067009999989,98.11850359999994,99.86232429999995,,,,,99.86245239999994,99.87784480000005,100.0779986,100.06231759999991,98.11850359999994,,,,,,,,0,1,1.7384883999998237,None,,,,,,,,834,18,M,R,2026-02-25_11h16.12.023,VisualSearch_2526_3,,2025.2.4,2026-02-25 11h16.12.264047 +0100,
tilted.xlsx,The target is tilted.,117,19,3,2,0,1,1,1,1,1,1,1,0,0,0,0,1,7,8,117,space,5.777824600000031,None,0,1,1.461014299999988,None,space,2.5491389000001163,None,0,0,0,0,,,,,2,3,19,5,100.0779986,,,,,,,,,,,,,,,,,,,,,100.06304939999995,100.0779986,100.56243829999994,100.56787660000009,100.58325100000002,102.04560110000011,,,,,102.0457993,102.06084740000006,102.26142589999995,102.24506539999993,100.58325100000002,,,,,,,,0,1,1.461014299999988,None,,,,,,,,834,18,M,R,2026-02-25_11h16.12.023,VisualSearch_2526_3,,2025.2.4,2026-02-25 11h16.12.264047 +0100,
tilted.xlsx,The target is tilted.,117,20,4,2,1,0,0,0,0,0,0,0,0,0,0,0,0,0,1,117,space,5.777824600000031,None,1,1,0.9604629999998906,None,space,2.5491389000001163,None,0,0,0,0,,,,,2,4,20,3,102.26142589999995,,,,,,,,,,,,,,,,,,,,,102.24578479999991,102.26142589999995,102.74527429999989,102.75060759999997,102.7667633000001,103.72860379999997,,,,,103.72880280000004,103.74390339999991,103.94405159999997,103.92830419999996,102.7667633000001,,,,,,,,1,1,0.9604629999998906,None,,,,,,,,834,18,M,R,2026-02-25_11h16.12.023,VisualSearch_2526_3,,2025.2.4,2026-02-25 11h16.12.264047 +0100,
tilted.xlsx,The target is tilted.,117,21,5,2,0,0,0,0,0,0,0,0,0,0,0,0,1,1,1,117,space,5.777824600000031,None,0,1,0.5144288999999844,None,space,2.5491389000001163,None,0,0,0,0,,,,,2,5,21,7,103.94405159999997,,,,,,,,,,,,,,,,,,,,,103.92908190000003,103.94405159999997,104.42834590000007,104.43358420000004,104.45176609999999,104.97802780000006,,,,,104.97822919999999,104.99363859999994,105.19377650000001,105.17742750000002,104.45176609999999,,,,,,,,0,1,0.5144288999999844,None,,,,,,,,834,18,M,R,2026-02-25_11h16.12.023,VisualSearch_2526_3,,2025.2.4,2026-02-25 11h16.12.264047 +0100,
tilted.xlsx,The target is tilted.,117,22,6,2,1,1,1,1,0,0,0,0,0,0,0,0,0,3,4,117,space,5.777824600000031,None,1,1,0.986759500000062,None,space,2.5491389000001163,None,0,0,0,0,,,,,2,6,22,2,105.19377650000001,,,,,,,,,,,,,,,,,,,,,105.17801499999996,105.19377650000001,105.67749509999999,105.6819981000001,105.69654340000011,106.6942011000001,,,,,106.69428349999998,106.70978450000007,106.91047849999995,106.8943099999999,105.69654340000011,,,,,,,,1,1,0.986759500000062,None,,,,,,,,834,18,M,R,2026-02-25_11h16.12.023,VisualSearch_2526_3,,2025.2.4,2026-02-25 11h16.12.264047 +0100,
tilted.xlsx,The target is tilted.,117,23,7,2,1,1,1,1,1,1,1,1,0,0,0,0,0,7,8,117,space,5.777824600000031,None,1,1,1.1294984000001023,None,space,2.5491389000001163,None,0,0,0,0,,,,,2,7,23,1,106.91047849999995,,,,,,,,,,,,,,,,,,,,,106.8950256999999,106.91047849999995,107.394002,107.39868410000008,107.41661520000002,108.56062980000002,,,,,108.56079369999998,108.57628580000005,108.7769636999999,108.76095609999993,107.41661520000002,,,,,,,,1,1,1.1294984000001023,None,,,,,,,,834,18,M,R,2026-02-25_11h16.12.023,VisualSearch_2526_3,,2025.2.4,2026-02-25 11h16.12.264047 +0100,
tilted.xlsx,The target is tilted.,117,24,0,3,0,0,0,0,0,0,0,0,0,0,0,0,1,1,1,117,space,5.777824600000031,None,0,1,0.5572120999997878,None,space,2.5491389000001163,None,0,0,0,0,,,,,3,0,24,7,108.7769636999999,,,,,,,,,,,,,,,,,,,,,108.76170320000006,108.7769636999999,109.2608272,109.26546269999994,109.28209289999995,109.84412100000009,,,,,109.84432169999991,109.85956149999993,110.06001769999989,110.04346839999994,109.28209289999995,,,,,,,,0,1,0.5572120999997878,None,,,,,,,,834,18,M,R,2026-02-25_11h16.12.023,VisualSearch_2526_3,,2025.2.4,2026-02-25 11h16.12.264047 +0100,
tilted.xlsx,The target is tilted.,117,25,1,3,1,1,1,1,0,0,0,0,0,0,0,0,0,3,4,117,space,5.777824600000031,None,1,1,0.9602724000001217,None,space,2.5491389000001163,None,0,0,0,0,,,,,3,1,25,2,110.06001769999989,,,,,,,,,,,,,,,,,,,,,110.04415160000008,110.06001769999989,110.54401320000011,110.5492733000001,110.5658800000001,111.52753069999994,,,,,111.52772299999992,111.54262689999996,111.74319190000006,111.72679459999995,110.5658800000001,,,,,,,,1,1,0.9602724000001217,None,,,,,,,,834,18,M,R,2026-02-25_11h16.12.023,VisualSearch_2526_3,,2025.2.4,2026-02-25 11h16.12.264047 +0100,
tilted.xlsx,The target is tilted.,117,26,2,3,1,1,1,1,1,1,1,1,1,1,1,1,0,11,12,117,space,5.777824600000031,None,1,1,2.2965024000000085,None,space,2.5491389000001163,None,0,0,0,0,,,,,3,2,26,0,111.74319190000006,,,,,,,,,,,,,,,,,,,,,111.72754959999997,111.74319190000006,112.2263723000001,112.23073449999993,112.2488484999999,114.55962380000005,,,,,114.5597866999999,114.57527430000005,114.77594369999997,114.75978439999994,112.2488484999999,,,,,,,,1,1,2.2965024000000085,None,,,,,,,,834,18,M,R,2026-02-25_11h16.12.023,VisualSearch_2526_3,,2025.2.4,2026-02-25 11h16.12.264047 +0100,
tilted.xlsx,The target is tilted.,117,27,3,3,0,1,1,1,0,0,0,0,0,0,0,0,1,3,4,117,space,5.777824600000031,None,0,1,1.030878699999903,None,space,2.5491389000001163,None,0,0,0,0,,,,,3,3,27,6,114.77594369999997,,,,,,,,,,,,,,,,,,,,,114.76060260000008,114.77594369999997,115.25879880000002,115.2606988,115.27504470000008,116.30939699999999,,,,,116.30954330000009,116.32505300000003,116.52532150000002,116.5095487000001,115.27504470000008,,,,,,,,0,1,1.030878699999903,None,,,,,,,,834,18,M,R,2026-02-25_11h16.12.023,VisualSearch_2526_3,,2025.2.4,2026-02-25 11h16.12.264047 +0100,
tilted.xlsx,The target is tilted.,117,28,4,3,1,0,0,0,0,0,0,0,0,0,0,0,0,0,1,117,space,5.777824600000031,None,1,1,0.5262019000001601,None,space,2.5491389000001163,None,0,0,0,0,,,,,3,4,28,3,116.52532150000002,,,,,,,,,,,,,,,,,,,,,116.51026159999992,116.52532150000002,117.009098,117.01384789999997,117.03134890000001,117.5597424,,,,,117.55991799999993,117.57491110000001,117.77531950000002,117.75932089999992,117.03134890000001,,,,,,,,1,1,0.5262019000001601,None,,,,,,,,834,18,M,R,2026-02-25_11h16.12.023,VisualSearch_2526_3,,2025.2.4,2026-02-25 11h16.12.264047 +0100,
tilted.xlsx,The target is tilted.,117,29,5,3,1,1,1,1,1,1,1,1,0,0,0,0,0,7,8,117,space,5.777824600000031,None,1,1,0.8156460000000152,None,space,2.5491389000001163,None,0,0,0,0,,,,,3,5,29,1,117.77531950000002,,,,,,,,,,,,,,,,,,,,,117.76010059999999,117.77531950000002,118.2591351000001,118.26339609999991,118.27980969999999,119.1089207,,,,,119.10911800000008,119.12460370000008,119.32471179999993,119.3086267000001,118.27980969999999,,,,,,,,1,1,0.8156460000000152,None,,,,,,,,834,18,M,R,2026-02-25_11h16.12.023,VisualSearch_2526_3,,2025.2.4,2026-02-25 11h16.12.264047 +0100,
tilted.xlsx,The target is tilted.,117,30,6,3,0,1,1,1,1,1,1,1,0,0,0,0,1,7,8,117,space,5.777824600000031,None,0,1,2.8833764000000883,None,space,2.5491389000001163,None,0,0,0,0,,,,,3,6,30,5,119.32471179999993,,,,,,,,,,,,,,,,,,,,,119.30943720000005,119.32471179999993,119.80913890000011,119.81455699999992,119.83299710000006,122.7254210000001,,,,,122.72559649999994,122.74061890000007,122.94107830000007,122.9247613,119.83299710000006,,,,,,,,0,1,2.8833764000000883,None,,,,,,,,834,18,M,R,2026-02-25_11h16.12.023,VisualSearch_2526_3,,2025.2.4,2026-02-25 11h16.12.264047 +0100,
tilted.xlsx,The target is tilted.,117,31,7,3,0,1,1,1,1,1,1,1,1,1,1,1,1,11,12,117,space,5.777824600000031,None,0,1,3.4631632000000536,None,space,2.5491389000001163,None,0,0,0,0,,,,,3,7,31,4,122.94107830000007,,,,,,,,,,,,,,,,,,,,,122.92550989999995,122.94107830000007,123.42470299999991,123.42941870000004,123.44510809999997,126.92432639999993,,,,,126.92450899999994,126.94002550000005,127.14062639999997,127.12419619999991,123.44510809999997,,,,,,,,0,1,3.4631632000000536,None,,,,,,,,834,18,M,R,2026-02-25_11h16.12.023,VisualSearch_2526_3,,2025.2.4,2026-02-25 11h16.12.264047 +0100,
tilted.xlsx,The target is tilted.,117,32,0,4,0,1,1,1,1,1,1,1,1,1,1,1,1,11,12,117,space,5.777824600000031,None,0,1,2.979243100000076,None,space,2.5491389000001163,None,0,0,0,0,,,,,4,0,32,4,127.14062639999997,,,,,,,,,,,,,,,,,,,,,127.12491079999995,127.14062639999997,127.62424099999998,127.6284682999999,127.64474210000003,130.64009770000007,,,,,130.6402467999999,130.6559225000001,130.8565688000001,130.8399457999999,127.64474210000003,,,,,,,,0,1,2.979243100000076,None,,,,,,,,834,18,M,R,2026-02-25_11h16.12.023,VisualSearch_2526_3,,2025.2.4,2026-02-25 11h16.12.264047 +0100,
tilted.xlsx,The target is tilted.,117,33,1,4,0,1,1,1,0,0,0,0,0,0,0,0,1,3,4,117,space,5.777824600000031,None,0,1,1.2769788999999037,None,space,2.5491389000001163,None,0,0,0,0,,,,,4,1,33,6,130.8565688000001,,,,,,,,,,,,,,,,,,,,,130.8405914,130.8565688000001,131.3403879,131.3450155999999,131.3618160000001,132.6406320000001,,,,,132.64081499999998,132.65568540000004,132.85626580000007,132.84015210000007,131.3618160000001,,,,,,,,0,1,1.2769788999999037,None,,,,,,,,834,18,M,R,2026-02-25_11h16.12.023,VisualSearch_2526_3,,2025.2.4,2026-02-25 11h16.12.264047 +0100,
tilted.xlsx,The target is tilted.,117,34,2,4,0,1,1,1,1,1,1,1,0,0,0,0,1,7,8,117,space,5.777824600000031,None,0,1,1.8258908000000247,None,space,2.5491389000001163,None,0,0,0,0,,,,,4,2,34,5,132.85626580000007,,,,,,,,,,,,,,,,,,,,,132.84086279999997,132.85626580000007,133.3401755,133.34538629999997,133.3617910999999,135.19004270000005,,,,,135.1902212,135.20530540000004,135.40572109999994,135.38978550000002,133.3617910999999,,,,,,,,0,1,1.8258908000000247,None,,,,,,,,834,18,M,R,2026-02-25_11h16.12.023,VisualSearch_2526_3,,2025.2.4,2026-02-25 11h16.12.264047 +0100,
tilted.xlsx,The target is tilted.,117,35,3,4,1,1,1,1,1,1,1,1,0,0,0,0,0,7,8,117,space,5.777824600000031,None,1,1,2.437444300000152,None,space,2.5491389000001163,None,0,0,0,0,,,,,4,3,35,1,135.40572109999994,,,,,,,,,,,,,,,,,,,,,135.3905170999999,135.40572109999994,135.88964310000006,135.89426649999996,135.91191959999992,138.35594689999994,,,,,138.35606770000004,138.37135280000007,138.57194099999992,138.55562299999997,135.91191959999992,,,,,,,,1,1,2.437444300000152,None,,,,,,,,834,18,M,R,2026-02-25_11h16.12.023,VisualSearch_2526_3,,2025.2.4,2026-02-25 11h16.12.264047 +0100,
tilted.xlsx,The target is tilted.,117,36,4,4,1,1,1,1,0,0,0,0,0,0,0,0,0,3,4,117,space,5.777824600000031,None,1,1,0.6829089000000295,None,space,2.5491389000001163,None,0,0,0,0,,,,,4,4,36,2,138.57194099999992,,,,,,,,,,,,,,,,,,,,,138.55629019999992,138.57194099999992,139.0556951000001,139.060561,139.07821050000007,139.7728032,,,,,139.7729965000001,139.7878487999999,139.98828129999993,139.97165330000007,139.07821050000007,,,,,,,,1,1,0.6829089000000295,None,,,,,,,,834,18,M,R,2026-02-25_11h16.12.023,VisualSearch_2526_3,,2025.2.4,2026-02-25 11h16.12.264047 +0100,
tilted.xlsx,The target is tilted.,117,37,5,4,1,0,0,0,0,0,0,0,0,0,0,0,0,0,1,117,space,5.777824600000031,None,1,1,0.532791399999951,None,space,2.5491389000001163,None,0,0,0,0,,,,,4,5,37,3,139.98828129999993,,,,,,,,,,,,,,,,,,,,,139.97229979999997,139.98828129999993,140.47225030000004,140.4769005999999,140.49396219999994,141.03894719999994,,,,,141.03922549999993,141.0545193999999,141.25477780000006,141.23876410000003,140.49396219999994,,,,,,,,1,1,0.532791399999951,None,,,,,,,,834,18,M,R,2026-02-25_11h16.12.023,VisualSearch_2526_3,,2025.2.4,2026-02-25 11h16.12.264047 +0100,
tilted.xlsx,The target is tilted.,117,38,6,4,1,1,1,1,1,1,1,1,1,1,1,1,0,11,12,117,space,5.777824600000031,None,1,1,1.1402275999998892,None,space,2.5491389000001163,None,0,0,0,0,,,,,4,6,38,0,141.25477780000006,,,,,,,,,,,,,,,,,,,,,141.2394804999999,141.25477780000006,141.73840670000004,141.7433727,141.75879220000002,142.90552200000002,,,,,142.90569989999995,142.92068360000007,143.12127650000002,143.10464120000006,141.75879220000002,,,,,,,,1,1,1.1402275999998892,None,,,,,,,,834,18,M,R,2026-02-25_11h16.12.023,VisualSearch_2526_3,,2025.2.4,2026-02-25 11h16.12.264047 +0100,
tilted.xlsx,The target is tilted.,117,39,7,4,0,0,0,0,0,0,0,0,0,0,0,0,1,1,1,117,space,5.777824600000031,None,0,1,0.6512109999998756,None,space,2.5491389000001163,None,0,0,0,0,,,,,4,7,39,7,143.12127650000002,,,,,,,,,,,,,,,,,,,,,143.10534000000007,143.12127650000002,143.60477689999993,143.6100386999999,143.62542170000006,144.28902530000005,,,,,144.2892721999999,144.303905,144.5039415000001,144.48820350000005,143.62542170000006,,,,,,,,0,1,0.6512109999998756,None,,,,,,,,834,18,M,R,2026-02-25_11h16.12.023,VisualSearch_2526_3,,2025.2.4,2026-02-25 11h16.12.264047 +0100,
tilted.xlsx,The target is tilted.,117,40,0,5,1,0,0,0,0,0,0,0,0,0,0,0,0,0,1,117,space,5.777824600000031,None,1,1,0.5389595000001464,None,space,2.5491389000001163,None,0,0,0,0,,,,,5,0,40,3,144.5039415000001,,,,,,,,,,,,,,,,,,,,,144.48891849999995,144.5039415000001,144.9880753,144.99269359999994,145.00369180000007,145.55478689999995,,,,,145.5549971999999,145.57023800000002,145.7703507000001,145.75425339999993,145.00369180000007,,,,,,,,1,1,0.5389595000001464,None,,,,,,,,834,18,M,R,2026-02-25_11h16.12.023,VisualSearch_2526_3,,2025.2.4,2026-02-25 11h16.12.264047 +0100,
tilted.xlsx,The target is tilted.,117,41,1,5,1,1,1,1,0,0,0,0,0,0,0,0,0,3,4,117,space,5.777824600000031,None,1,1,0.634858099999974,None,space,2.5491389000001163,None,0,0,0,0,,,,,5,1,41,2,145.7703507000001,,,,,,,,,,,,,,,,,,,,,145.75499960000002,145.7703507000001,146.25436130000003,146.25904420000006,146.27373540000008,146.92099460000009,,,,,146.9211924000001,146.93662399999994,147.1368766999999,147.1206443000001,146.27373540000008,,,,,,,,1,1,0.634858099999974,None,,,,,,,,834,18,M,R,2026-02-25_11h16.12.023,VisualSearch_2526_3,,2025.2.4,2026-02-25 11h16.12.264047 +0100,
tilted.xlsx,The target is tilted.,117,42,2,5,0,0,0,0,0,0,0,0,0,0,0,0,1,1,1,117,space,5.777824600000031,None,0,1,0.519546999999875,None,space,2.5491389000001163,None,0,0,0,0,,,,,5,2,42,7,147.1368766999999,,,,,,,,,,,,,,,,,,,,,147.12131849999992,147.1368766999999,147.6207852,147.62623609999991,147.6419085,148.1712849999999,,,,,148.17148840000004,148.18658529999993,148.38664569999992,148.37076219999994,147.6419085,,,,,,,,0,1,0.519546999999875,None,,,,,,,,834,18,M,R,2026-02-25_11h16.12.023,VisualSearch_2526_3,,2025.2.4,2026-02-25 11h16.12.264047 +0100,
tilted.xlsx,The target is tilted.,117,43,3,5,0,1,1,1,1,1,1,1,1,1,1,1,1,11,12,117,space,5.777824600000031,None,0,1,3.353789000000006,None,space,2.5491389000001163,None,0,0,0,0,,,,,5,3,43,4,148.38664569999992,,,,,,,,,,,,,,,,,,,,,148.37150799999995,148.38664569999992,148.8706356,148.87528629999997,148.89232590000006,152.2537895999999,,,,,152.25395630000003,152.26906570000006,152.46961310000006,152.45340299999998,148.89232590000006,,,,,,,,0,1,3.353789000000006,None,,,,,,,,834,18,M,R,2026-02-25_11h16.12.023,VisualSearch_2526_3,,2025.2.4,2026-02-25 11h16.12.264047 +0100,
tilted.xlsx,The target is tilted.,117,44,4,5,0,1,1,1,1,1,1,1,0,0,0,0,1,7,8,117,space,5.777824600000031,None,0,1,2.415391399999862,None,space,2.5491389000001163,None,0,0,0,0,,,,,5,4,44,5,152.46961310000006,,,,,,,,,,,,,,,,,,,,,152.45407490000002,152.46961310000006,152.95342499999992,152.95800869999994,152.9745147000001,155.4034491,,,,,155.4036283999999,155.41849320000006,155.61915139999996,155.6029524999999,152.9745147000001,,,,,,,,0,1,2.415391399999862,None,,,,,,,,834,18,M,R,2026-02-25_11h16.12.023,VisualSearch_2526_3,,2025.2.4,2026-02-25 11h16.12.264047 +0100,
tilted.xlsx,The target is tilted.,117,45,5,5,1,1,1,1,1,1,1,1,1,1,1,1,0,11,12,117,space,5.777824600000031,None,1,1,1.5000133999999434,None,space,2.5491389000001163,None,0,0,0,0,,,,,5,5,45,0,155.61915139999996,,,,,,,,,,,,,,,,,,,,,155.60371510000004,155.61915139999996,156.10277059999999,156.1074638,156.12285730000008,157.63568379999992,,,,,157.6358365000001,157.6514032,157.8518383999999,157.83534839999993,156.12285730000008,,,,,,,,1,1,1.5000133999999434,None,,,,,,,,834,18,M,R,2026-02-25_11h16.12.023,VisualSearch_2526_3,,2025.2.4,2026-02-25 11h16.12.264047 +0100,
tilted.xlsx,The target is tilted.,117,46,6,5,0,1,1,1,0,0,0,0,0,0,0,0,1,3,4,117,space,5.777824600000031,None,0,1,1.0407456999998885,None,space,2.5491389000001163,None,0,0,0,0,,,,,5,6,46,6,157.8518383999999,,,,,,,,,,,,,,,,,,,,,157.8357971999999,157.8518383999999,158.3357985,158.3404375,158.35579710000002,159.40265950000003,,,,,159.4028366,159.41789089999997,159.6183372999999,159.60239449999995,158.35579710000002,,,,,,,,0,1,1.0407456999998885,None,,,,,,,,834,18,M,R,2026-02-25_11h16.12.023,VisualSearch_2526_3,,2025.2.4,2026-02-25 11h16.12.264047 +0100,
tilted.xlsx,The target is tilted.,117,47,7,5,1,1,1,1,1,1,1,1,0,0,0,0,0,7,8,117,space,5.777824600000031,None,1,1,1.3824635999999373,None,space,2.5491389000001163,None,0,0,0,0,,,,,5,7,47,1,159.6183372999999,,,,,,,,,,,,,,,,,,,,,159.6031336000001,159.6183372999999,160.1024806999999,160.10748059999992,160.1244360999999,161.518914,,,,,161.51904319999994,161.5342095000001,161.73459359999993,161.7185128000001,160.1244360999999,,,,,,,,1,1,1.3824635999999373,None,,,,,,,,834,18,M,R,2026-02-25_11h16.12.023,VisualSearch_2526_3,,2025.2.4,2026-02-25 11h16.12.264047 +0100,
tilted.xlsx,The target is tilted.,117,48,0,6,0,1,1,1,1,1,1,1,0,0,0,0,1,7,8,117,space,5.777824600000031,None,0,1,1.992216800000051,None,space,2.5491389000001163,None,0,0,0,0,,,,,6,0,48,5,161.73459359999993,,,,,,,,,,,,,,,,,,,,,161.7192473,161.73459359999993,162.2185560999999,162.2231956999999,162.23821070000008,164.23453870000003,,,,,164.2346113000001,164.25014299999998,164.45097280000005,164.43446160000008,162.23821070000008,,,,,,,,0,1,1.992216800000051,None,,,,,,,,834,18,M,R,2026-02-25_11h16.12.023,VisualSearch_2526_3,,2025.2.4,2026-02-25 11h16.12.264047 +0100,
tilted.xlsx,The target is tilted.,117,49,1,6,1,1,1,1,1,1,1,1,0,0,0,0,0,7,8,117,space,5.777824600000031,None,0,0,1.3862411999998585,None,space,2.5491389000001163,None,0,0,0,0,,,,,6,1,49,1,164.45097280000005,,,,,,,,,,,,,,,,,,,,,164.4352119,164.45097280000005,164.93456220000007,164.93975219999993,164.95619680000004,166.35160990000008,,,,,166.3517862000001,166.3668027000001,166.56727750000005,166.5511735,164.95619680000004,,,,,,,,0,0,1.3862411999998585,None,,,,,,,,834,18,M,R,2026-02-25_11h16.12.023,VisualSearch_2526_3,,2025.2.4,2026-02-25 11h16.12.264047 +0100,
tilted.xlsx,The target is tilted.,117,50,2,6,0,1,1,1,0,0,0,0,0,0,0,0,1,3,4,117,space,5.777824600000031,None,0,1,1.314710899999909,None,space,2.5491389000001163,None,0,0,0,0,,,,,6,2,50,6,166.56727750000005,,,,,,,,,,,,,,,,,,,,,166.55189059999998,166.56727750000005,167.05104299999994,167.05567930000007,167.07002839999996,168.39997100000005,,,,,168.40008510000007,168.41685359999997,,168.60059589999992,167.07002839999996,,,,,,,,0,1,1.314710899999909,None,,,,,,,,834,18,M,R,2026-02-25_11h16.12.023,VisualSearch_2526_3,,2025.2.4,2026-02-25 11h16.12.264047 +0100,
tilted.xlsx,The target is tilted.,117,51,3,6,1,1,1,1,0,0,0,0,0,0,0,0,0,3,4,117,space,5.777824600000031,None,1,1,0.7882469999999557,None,space,2.5491389000001163,None,0,0,0,0,,,,,6,3,51,2,168.6169571999999,,,,,,,,,,,,,,,,,,,,,168.60135300000002,168.6169571999999,169.10031860000004,169.1049399000001,169.1222987000001,169.91776759999993,,,,,169.91796240000008,169.93298750000008,170.13338440000007,170.11719369999992,,,,,,,,,1,1,0.7882469999999557,None,,,,,,,,834,18,M,R,2026-02-25_11h16.12.023,VisualSearch_2526_3,,2025.2.4,2026-02-25 11h16.12.264047 +0100,
tilted.xlsx,The target is tilted.,117,52,4,6,1,1,1,1,1,1,1,1,1,1,1,1,0,11,12,117,space,5.777824600000031,None,1,1,2.15584130000002,None,space,2.5491389000001163,None,0,0,0,0,,,,,6,4,52,0,170.13338440000007,,,,,,,,,,,,,,,,,,,,,170.11795419999999,170.13338440000007,170.61714239999992,170.6219466,170.64010570000005,172.8000649999999,,,,,172.80026369999996,172.81561469999997,173.01621309999996,173.0001041999999,170.64010570000005,,,,,,,,1,1,2.15584130000002,None,,,,,,,,834,18,M,R,2026-02-25_11h16.12.023,VisualSearch_2526_3,,2025.2.4,2026-02-25 11h16.12.264047 +0100,
tilted.xlsx,The target is tilted.,117,53,5,6,1,0,0,0,0,0,0,0,0,0,0,0,0,0,1,117,space,5.777824600000031,None,1,1,0.5793803999999909,None,space,2.5491389000001163,None,0,0,0,0,,,,,6,5,53,3,173.01621309999996,,,,,,,,,,,,,,,,,,,,,173.00083180000001,173.01621309999996,173.50001070000008,173.50468419999993,173.52082010000004,174.11639130000003,,,,,174.1165501999999,174.13204689999998,174.3322482000001,174.3161540000001,173.52082010000004,,,,,,,,1,1,0.5793803999999909,None,,,,,,,,834,18,M,R,2026-02-25_11h16.12.023,VisualSearch_2526_3,,2025.2.4,2026-02-25 11h16.12.264047 +0100,
tilted.xlsx,The target is tilted.,117,54,6,6,0,0,0,0,0,0,0,0,0,0,0,0,1,1,1,117,space,5.777824600000031,None,0,1,0.569347099999959,None,space,2.5491389000001163,None,0,0,0,0,,,,,6,6,54,7,174.3322482000001,,,,,,,,,,,,,,,,,,,,,174.31683550000002,174.3322482000001,174.8164087,174.82126119999998,174.83846560000006,175.41680859999997,,,,,175.41697380000005,175.4318714000001,175.6325377999999,175.61626580000006,174.83846560000006,,,,,,,,0,1,0.569347099999959,None,,,,,,,,834,18,M,R,2026-02-25_11h16.12.023,VisualSearch_2526_3,,2025.2.4,2026-02-25 11h16.12.264047 +0100,
tilted.xlsx,The target is tilted.,117,55,7,6,0,1,1,1,1,1,1,1,1,1,1,1,1,11,12,117,space,5.777824600000031,None,0,1,2.4652876999998625,None,space,2.5491389000001163,None,0,0,0,0,,,,,6,7,55,4,175.6325377999999,,,,,,,,,,,,,,,,,,,,,175.6170314000001,175.6325377999999,176.1161428999999,176.1207882000001,176.13703080000005,178.61565640000003,,,,,178.6158324999999,178.63127129999998,178.83190979999995,178.8155953999999,176.13703080000005,,,,,,,,0,1,2.4652876999998625,None,,,,,,,,834,18,M,R,2026-02-25_11h16.12.023,VisualSearch_2526_3,,2025.2.4,2026-02-25 11h16.12.264047 +0100,
tilted.xlsx,The target is tilted.,117,56,0,7,1,1,1,1,1,1,1,1,1,1,1,1,0,11,12,117,space,5.777824600000031,None,1,1,1.5706572999999935,None,space,2.5491389000001163,None,0,0,0,0,,,,,7,0,56,0,178.83190979999995,,,,,,,,,,,,,,,,,,,,,178.81625789999998,178.83190979999995,179.31537819999994,179.32007079999994,179.33565249999992,180.91518960000008,,,,,180.91527829999995,180.93072329999995,181.13159569999993,181.11528410000005,179.33565249999992,,,,,,,,1,1,1.5706572999999935,None,,,,,,,,834,18,M,R,2026-02-25_11h16.12.023,VisualSearch_2526_3,,2025.2.4,2026-02-25 11h16.12.264047 +0100,
tilted.xlsx,The target is tilted.,117,57,1,7,1,1,1,1,1,1,1,1,0,0,0,0,0,7,8,117,space,5.777824600000031,None,1,1,2.82668220000005,None,space,2.5491389000001163,None,0,0,0,0,,,,,7,1,57,1,181.13159569999993,,,,,,,,,,,,,,,,,,,,,181.11602199999993,181.13159569999993,181.61522459999992,181.61997730000007,181.6359915999999,184.4649319,,,,,184.46511669999995,184.48036819999993,184.68043680000005,184.66447700000003,181.6359915999999,,,,,,,,1,1,2.82668220000005,None,,,,,,,,834,18,M,R,2026-02-25_11h16.12.023,VisualSearch_2526_3,,2025.2.4,2026-02-25 11h16.12.264047 +0100,
tilted.xlsx,The target is tilted.,117,58,2,7,0,1,1,1,0,0,0,0,0,0,0,0,1,3,4,117,space,5.777824600000031,None,0,1,0.7967260999998871,None,space,2.5491389000001163,None,0,0,0,0,,,,,7,2,58,6,184.68043680000005,,,,,,,,,,,,,,,,,,,,,184.66522480000003,184.68043680000005,185.1643544000001,185.16919929999995,185.1864905,185.9976669,,,,,185.9978317,186.01333120000004,186.2137396999999,186.19773220000002,185.1864905,,,,,,,,0,1,0.7967260999998871,None,,,,,,,,834,18,M,R,2026-02-25_11h16.12.023,VisualSearch_2526_3,,2025.2.4,2026-02-25 11h16.12.264047 +0100,
tilted.xlsx,The target is tilted.,117,59,3,7,1,0,0,0,0,0,0,0,0,0,0,0,0,0,1,117,space,5.777824600000031,None,1,1,0.6583090000001448,None,space,2.5491389000001163,None,0,0,0,0,,,,,7,3,59,3,186.2137396999999,,,,,,,,,,,,,,,,,,,,,186.19846660000007,186.2137396999999,186.6974740999999,186.70293629999992,186.71972690000007,187.38096500000006,,,,,187.38107779999996,187.3963801,187.59710100000007,187.58100519999994,186.71972690000007,,,,,,,,1,1,0.6583090000001448,None,,,,,,,,834,18,M,R,2026-02-25_11h16.12.023,VisualSearch_2526_3,,2025.2.4,2026-02-25 11h16.12.264047 +0100,
tilted.xlsx,The target is tilted.,117,60,4,7,0,1,1,1,1,1,1,1,0,0,0,0,1,7,8,117,space,5.777824600000031,None,0,1,1.7138081000000511,None,space,2.5491389000001163,None,0,0,0,0,,,,,7,4,60,5,187.59710100000007,,,,,,,,,,,,,,,,,,,,,187.58170859999996,187.59710100000007,188.08041049999997,188.08503470000005,188.10043769999993,189.83041260000005,,,,,189.8305772000001,189.84605439999996,190.04663329999994,190.03044449999993,188.10043769999993,,,,,,,,0,1,1.7138081000000511,None,,,,,,,,834,18,M,R,2026-02-25_11h16.12.023,VisualSearch_2526_3,,2025.2.4,2026-02-25 11h16.12.264047 +0100,
tilted.xlsx,The target is tilted.,117,61,5,7,1,1,1,1,0,0,0,0,0,0,0,0,0,3,4,117,space,5.777824600000031,None,1,1,0.6536387000001014,None,space,2.5491389000001163,None,0,0,0,0,,,,,7,5,61,2,190.04663329999994,,,,,,,,,,,,,,,,,,,,,190.03124279999997,190.04663329999994,190.53072169999996,190.53563409999992,190.55299880000007,191.2142025999999,,,,,191.2143974999999,191.2293666999999,191.42985679999992,191.4138008,190.55299880000007,,,,,,,,1,1,0.6536387000001014,None,,,,,,,,834,18,M,R,2026-02-25_11h16.12.023,VisualSearch_2526_3,,2025.2.4,2026-02-25 11h16.12.264047 +0100,
tilted.xlsx,The target is tilted.,117,62,6,7,0,1,1,1,1,1,1,1,1,1,1,1,1,11,12,117,space,5.777824600000031,None,0,1,2.4697889000001396,None,space,2.5491389000001163,None,0,0,0,0,,,,,7,6,62,4,191.42985679999992,,,,,,,,,,,,,,,,,,,,,191.41451189999998,191.42985679999992,191.9136797000001,191.91828220000002,191.93528620000006,194.4135900000001,,,,,194.41377179999995,194.4287214000001,194.6291472999999,194.61303859999998,191.93528620000006,,,,,,,,0,1,2.4697889000001396,None,,,,,,,,834,18,M,R,2026-02-25_11h16.12.023,VisualSearch_2526_3,,2025.2.4,2026-02-25 11h16.12.264047 +0100,
tilted.xlsx,The target is tilted.,117,63,7,7,0,0,0,0,0,0,0,0,0,0,0,0,1,1,1,117,space,5.777824600000031,None,1,0,0.6516636999999719,None,space,2.5491389000001163,None,0,0,0,0,,,,,7,7,63,7,194.6291472999999,,,,,,,,,,,,,,,,,,,,,194.61370869999996,194.6291472999999,195.11297579999996,195.1164252000001,195.12858039999992,195.79602999999997,,,,,195.7961918000001,195.8117165000001,196.0124504999999,195.9961848999999,195.12858039999992,,,,,,,,1,0,0.6516636999999719,None,,,,,,,,834,18,M,R,2026-02-25_11h16.12.023,VisualSearch_2526_3,,2025.2.4,2026-02-25 11h16.12.264047 +0100,
tilted.xlsx,The target is tilted.,117,64,0,8,1,1,1,1,1,1,1,1,1,1,1,1,0,11,12,117,space,5.777824600000031,None,1,1,1.8420284999999694,None,space,2.5491389000001163,None,0,0,0,0,,,,,8,0,64,0,196.0124504999999,,,,,,,,,,,,,,,,,,,,,195.99695629999997,196.0124504999999,196.4958431,196.50054750000004,196.51686539999992,198.36225459999991,,,,,198.36239339999997,198.3782023000001,198.57862279999995,198.56249780000007,196.51686539999992,,,,,,,,1,1,1.8420284999999694,None,,,,,,,,834,18,M,R,2026-02-25_11h16.12.023,VisualSearch_2526_3,,2025.2.4,2026-02-25 11h16.12.264047 +0100,
tilted.xlsx,The target is tilted.,117,65,1,8,1,1,1,1,0,0,0,0,0,0,0,0,0,3,4,117,space,5.777824600000031,None,1,1,0.8589359999998578,None,space,2.5491389000001163,None,0,0,0,0,,,,,8,1,65,2,198.57862279999995,,,,,,,,,,,,,,,,,,,,,198.56322550000004,198.57862279999995,199.06247480000002,199.067139,199.0836721999999,199.94573910000008,,,,,199.94592280000006,199.9612689999999,200.16176399999995,200.14541609999992,199.0836721999999,,,,,,,,1,1,0.8589359999998578,None,,,,,,,,834,18,M,R,2026-02-25_11h16.12.023,VisualSearch_2526_3,,2025.2.4,2026-02-25 11h16.12.264047 +0100,
tilted.xlsx,The target is tilted.,117,66,2,8,1,1,1,1,1,1,1,1,0,0,0,0,0,7,8,117,space,5.777824600000031,None,1,1,1.0936789000002136,None,space,2.5491389000001163,None,0,0,0,0,,,,,8,2,66,1,200.16176399999995,,,,,,,,,,,,,,,,,,,,,200.1461627000001,200.16176399999995,200.64536339999995,200.6501788999999,200.66671939999992,201.7624197,,,,,201.76259950000008,201.77749700000004,201.9780783000001,201.96192079999992,200.66671939999992,,,,,,,,1,1,1.0936789000002136,None,,,,,,,,834,18,M,R,2026-02-25_11h16.12.023,VisualSearch_2526_3,,2025.2.4,2026-02-25 11h16.12.264047 +0100,
tilted.xlsx,The target is tilted.,117,67,3,8,0,1,1,1,1,1,1,1,1,1,1,1,1,11,12,117,space,5.777824600000031,None,0,1,3.0590071999999964,None,space,2.5491389000001163,None,0,0,0,0,,,,,8,3,67,4,201.9780783000001,,,,,,,,,,,,,,,,,,,,,201.9626424999999,201.9780783000001,202.46191640000006,202.46654489999992,202.47785139999996,205.54426560000002,,,,,205.5444070000001,205.5600710000001,205.76067620000003,205.7442198000001,202.47785139999996,,,,,,,,0,1,3.0590071999999964,None,,,,,,,,834,18,M,R,2026-02-25_11h16.12.023,VisualSearch_2526_3,,2025.2.4,2026-02-25 11h16.12.264047 +0100,
tilted.xlsx,The target is tilted.,117,68,4,8,1,0,0,0,0,0,0,0,0,0,0,0,0,0,1,117,space,5.777824600000031,None,1,1,0.7153318999999101,None,space,2.5491389000001163,None,0,0,0,0,,,,,8,4,68,3,205.76067620000003,,,,,,,,,,,,,,,,,,,,,205.7449557,205.76067620000003,206.24436390000005,206.24895220000008,206.26477180000006,206.9935375,,,,,206.99366469999995,207.0102563999999,207.21012229999997,207.1939213999999,206.26477180000006,,,,,,,,1,1,0.7153318999999101,None,,,,,,,,834,18,M,R,2026-02-25_11h16.12.023,VisualSearch_2526_3,,2025.2.4,2026-02-25 11h16.12.264047 +0100,
tilted.xlsx,The target is tilted.,117,69,5,8,0,1,1,1,0,0,0,0,0,0,0,0,1,3,4,117,space,5.777824600000031,None,0,1,0.9920826000000034,None,space,2.5491389000001163,None,0,0,0,0,,,,,8,5,69,6,207.21012229999997,,,,,,,,,,,,,,,,,,,,,207.19460800000002,207.21012229999997,207.69382760000008,207.69932100000005,207.71580259999996,208.71116600000005,,,,,208.71134570000004,208.72634360000006,208.9268959000001,208.9105993999999,207.71580259999996,,,,,,,,0,1,0.9920826000000034,None,,,,,,,,834,18,M,R,2026-02-25_11h16.12.023,VisualSearch_2526_3,,2025.2.4,2026-02-25 11h16.12.264047 +0100,
tilted.xlsx,The target is tilted.,117,70,6,8,0,0,0,0,0,0,0,0,0,0,0,0,1,1,1,117,space,5.777824600000031,None,0,1,0.9695758999998816,None,space,2.5491389000001163,None,0,0,0,0,,,,,8,6,70,7,208.9268959000001,,,,,,,,,,,,,,,,,,,,,208.91132420000008,208.9268959000001,209.4104132,209.41504770000006,209.4299512,210.4109939,,,,,210.41117239999994,210.42619349999995,210.62662739999996,210.61049419999995,209.4299512,,,,,,,,0,1,0.9695758999998816,None,,,,,,,,834,18,M,R,2026-02-25_11h16.12.023,VisualSearch_2526_3,,2025.2.4,2026-02-25 11h16.12.264047 +0100,
tilted.xlsx,The target is tilted.,117,71,7,8,0,1,1,1,1,1,1,1,0,0,0,0,1,7,8,117,space,5.777824600000031,None,0,1,2.4574938999999176,None,space,2.5491389000001163,None,0,0,0,0,,,,,8,7,71,5,210.62662739999996,,,,,,,,,,,,,,,,,,,,,210.6112052000001,210.62662739999996,211.1104287999999,211.11509249999995,211.13282980000008,213.59361710000007,,,,,213.59386659999996,213.60889739999993,213.80939469999998,213.7931994999999,211.13282980000008,,,,,,,,0,1,2.4574938999999176,None,,,,,,,,834,18,M,R,2026-02-25_11h16.12.023,VisualSearch_2526_3,,2025.2.4,2026-02-25 11h16.12.264047 +0100,
tilted.xlsx,The target is tilted.,117,72,0,9,0,1,1,1,0,0,0,0,0,0,0,0,1,3,4,117,space,5.777824600000031,None,0,1,1.2016071999998985,None,space,2.5491389000001163,None,0,0,0,0,,,,,9,0,72,6,213.80939469999998,,,,,,,,,,,,,,,,,,,,,213.79389680000008,213.80939469999998,214.2931946000001,214.29755139999997,214.3140421999999,215.52675,,,,,215.5269234,215.54187030000003,215.7424813,215.7260799999999,214.3140421999999,,,,,,,,0,1,1.2016071999998985,None,,,,,,,,834,18,M,R,2026-02-25_11h16.12.023,VisualSearch_2526_3,,2025.2.4,2026-02-25 11h16.12.264047 +0100,
tilted.xlsx,The target is tilted.,117,73,1,9,1,1,1,1,0,0,0,0,0,0,0,0,0,3,4,117,space,5.777824600000031,None,0,0,1.3697253999998793,None,space,2.5491389000001163,None,0,0,0,0,,,,,9,1,73,2,215.7424813,,,,,,,,,,,,,,,,,,,,,215.7267526999999,215.7424813,216.22610080000004,216.23065780000002,216.24724489999994,217.62619560000007,,,,,217.6263543,217.6414443000001,217.84190510000008,217.82542940000008,216.24724489999994,,,,,,,,0,0,1.3697253999998793,None,,,,,,,,834,18,M,R,2026-02-25_11h16.12.023,VisualSearch_2526_3,,2025.2.4,2026-02-25 11h16.12.264047 +0100,
tilted.xlsx,The target is tilted.,117,74,2,9,1,0,0,0,0,0,0,0,0,0,0,0,0,0,1,117,space,5.777824600000031,None,1,1,0.6345522999999957,None,space,2.5491389000001163,None,0,0,0,0,,,,,9,2,74,3,217.84190510000008,,,,,,,,,,,,,,,,,,,,,217.82574369999998,217.84190510000008,218.32573860000002,218.3304161000001,218.3464689,218.99287679999998,,,,,218.9930488,219.00800230000004,219.20847219999996,219.19186489999993,218.3464689,,,,,,,,1,1,0.6345522999999957,None,,,,,,,,834,18,M,R,2026-02-25_11h16.12.023,VisualSearch_2526_3,,2025.2.4,2026-02-25 11h16.12.264047 +0100,
tilted.xlsx,The target is tilted.,117,75,3,9,0,1,1,1,1,1,1,1,1,1,1,1,1,11,12,117,space,5.777824600000031,None,0,1,3.5330286000000797,None,space,2.5491389000001163,None,0,0,0,0,,,,,9,3,75,4,219.20847219999996,,,,,,,,,,,,,,,,,,,,,219.1925526,219.20847219999996,219.6922222999999,219.69748720000007,219.71334819999993,223.25787609999998,,,,,223.25797749999992,223.2738108000001,223.47381829999995,223.4574325000001,219.71334819999993,,,,,,,,0,1,3.5330286000000797,None,,,,,,,,834,18,M,R,2026-02-25_11h16.12.023,VisualSearch_2526_3,,2025.2.4,2026-02-25 11h16.12.264047 +0100,
tilted.xlsx,The target is tilted.,117,76,4,9,1,1,1,1,1,1,1,1,1,1,1,1,0,11,12,117,space,5.777824600000031,None,0,0,1.9193837000000258,None,space,2.5491389000001163,None,0,0,0,0,,,,,9,4,76,0,223.47381829999995,,,,,,,,,,,,,,,,,,,,,223.4578004,223.47381829999995,223.95719080000003,223.9594978,223.9735851999999,225.9072235000001,,,,,225.90732120000007,225.9233274999999,226.12333869999998,226.10691629999997,223.9735851999999,,,,,,,,0,0,1.9193837000000258,None,,,,,,,,834,18,M,R,2026-02-25_11h16.12.023,VisualSearch_2526_3,,2025.2.4,2026-02-25 11h16.12.264047 +0100,
tilted.xlsx,The target is tilted.,117,77,5,9,0,1,1,1,1,1,1,1,0,0,0,0,1,7,8,117,space,5.777824600000031,None,0,1,2.280086099999835,None,space,2.5491389000001163,None,0,0,0,0,,,,,9,5,77,5,226.12333869999998,,,,,,,,,,,,,,,,,,,,,226.1073053,226.12333869999998,226.60694710000007,226.60906980000004,226.6231961000001,228.90677819999996,,,,,228.9068754,228.9229117,229.12301290000005,229.10674410000001,226.6231961000001,,,,,,,,0,1,2.280086099999835,None,,,,,,,,834,18,M,R,2026-02-25_11h16.12.023,VisualSearch_2526_3,,2025.2.4,2026-02-25 11h16.12.264047 +0100,
tilted.xlsx,The target is tilted.,117,78,6,9,1,1,1,1,1,1,1,1,0,0,0,0,0,7,8,117,space,5.777824600000031,None,1,1,1.7801988999999594,None,space,2.5491389000001163,None,0,0,0,0,,,,,9,6,78,1,229.12301290000005,,,,,,,,,,,,,,,,,,,,,229.1073876999999,229.12301290000005,229.60618019999993,229.60761079999997,229.62269680000009,231.4064346,,,,,231.4065270000001,231.4224107,231.62244710000004,231.6058983999999,229.62269680000009,,,,,,,,1,1,1.7801988999999594,None,,,,,,,,834,18,M,R,2026-02-25_11h16.12.023,VisualSearch_2526_3,,2025.2.4,2026-02-25 11h16.12.264047 +0100,
tilted.xlsx,The target is tilted.,117,79,7,9,0,0,0,0,0,0,0,0,0,0,0,0,1,1,1,117,space,5.777824600000031,None,0,1,0.5784982000000127,None,space,2.5491389000001163,None,0,0,0,0,,,,,9,7,79,7,231.62244710000004,,,,,,,,,,,,,,,,,,,,,231.60628369999995,231.62244710000004,232.1059090000001,232.1080687000001,232.1224069,232.70604630000003,,,,,232.7061415999999,232.72224729999994,232.92223349999995,232.90580950000003,232.1224069,,,,,,,,0,1,0.5784982000000127,None,,,,,,,,834,18,M,R,2026-02-25_11h16.12.023,VisualSearch_2526_3,,2025.2.4,2026-02-25 11h16.12.264047 +0100,
tilted.xlsx,The target is tilted.,117,80,0,10,0,1,1,1,1,1,1,1,1,1,1,1,1,11,12,117,space,5.777824600000031,None,1,0,5.944173700000192,None,space,2.5491389000001163,None,0,0,0,0,,,,,10,0,80,4,232.92223349999995,,,,,,,,,,,,,,,,,,,,,232.90620880000006,232.92223349999995,233.40576450000003,233.4079415000001,233.42206499999998,239.3730900999999,,,,,239.37332229999993,239.38802579999992,239.5884807,239.5721820000001,233.42206499999998,,,,,,,,1,0,5.944173700000192,None,,,,,,,,834,18,M,R,2026-02-25_11h16.12.023,VisualSearch_2526_3,,2025.2.4,2026-02-25 11h16.12.264047 +0100,
tilted.xlsx,The target is tilted.,117,81,1,10,0,1,1,1,1,1,1,1,0,0,0,0,1,7,8,117,space,5.777824600000031,None,0,1,2.619169900000088,None,space,2.5491389000001163,None,0,0,0,0,,,,,10,1,81,5,239.5884807,,,,,,,,,,,,,,,,,,,,,239.57293129999994,239.5884807,240.0717228000001,240.0763804999999,240.09272190000002,242.72189520000006,,,,,242.7220787000001,242.73730479999995,242.93781680000006,242.9217005999999,240.09272190000002,,,,,,,,0,1,2.619169900000088,None,,,,,,,,834,18,M,R,2026-02-25_11h16.12.023,VisualSearch_2526_3,,2025.2.4,2026-02-25 11h16.12.264047 +0100,
tilted.xlsx,The target is tilted.,117,82,2,10,1,1,1,1,0,0,0,0,0,0,0,0,0,3,4,117,space,5.777824600000031,None,1,1,1.7000083000000359,None,space,2.5491389000001163,None,0,0,0,0,,,,,10,2,82,2,242.93781680000006,,,,,,,,,,,,,,,,,,,,,242.92245159999993,242.93781680000006,243.42180570000005,243.42646889999992,243.44207770000003,245.1544997000001,,,,,245.15465960000006,245.1701653,245.37040419999994,245.35446090000005,243.44207770000003,,,,,,,,1,1,1.7000083000000359,None,,,,,,,,834,18,M,R,2026-02-25_11h16.12.023,VisualSearch_2526_3,,2025.2.4,2026-02-25 11h16.12.264047 +0100,
tilted.xlsx,The target is tilted.,117,83,3,10,1,0,0,0,0,0,0,0,0,0,0,0,0,0,1,117,space,5.777824600000031,None,1,1,2.95746999999983,None,space,2.5491389000001163,None,0,0,0,0,,,,,10,3,83,3,245.37040419999994,,,,,,,,,,,,,,,,,,,,,245.35520870000005,245.37040419999994,245.85443499999997,245.8591907,245.87558820000004,248.83756979999998,,,,,248.8377473999999,248.8535617,249.05345020000004,249.0370246,245.87558820000004,,,,,,,,1,1,2.95746999999983,None,,,,,,,,834,18,M,R,2026-02-25_11h16.12.023,VisualSearch_2526_3,,2025.2.4,2026-02-25 11h16.12.264047 +0100,
tilted.xlsx,The target is tilted.,117,84,4,10,0,0,0,0,0,0,0,0,0,0,0,0,1,1,1,117,space,5.777824600000031,None,0,1,0.5824434999999539,None,space,2.5491389000001163,None,0,0,0,0,,,,,10,4,84,7,249.05345020000004,,,,,,,,,,,,,,,,,,,,,249.0377762999999,249.05345020000004,249.5372827000001,249.5418565,249.55649719999997,250.1541155,,,,,250.15427580000005,250.16995079999992,250.36969339999996,250.35338479999996,249.55649719999997,,,,,,,,0,1,0.5824434999999539,None,,,,,,,,834,18,M,R,2026-02-25_11h16.12.023,VisualSearch_2526_3,,2025.2.4,2026-02-25 11h16.12.264047 +0100,
tilted.xlsx,The target is tilted.,117,85,5,10,1,1,1,1,1,1,1,1,1,1,1,1,0,11,12,117,space,5.777824600000031,None,1,1,1.0945366000000831,None,space,2.5491389000001163,None,0,0,0,0,,,,,10,5,85,0,250.36969339999996,,,,,,,,,,,,,,,,,,,,,250.35405360000004,250.36969339999996,250.8533422999999,250.85786710000002,250.86982310000008,251.9705907,,,,,251.9707638,251.9862352,252.18618719999995,252.16958410000007,250.86982310000008,,,,,,,,1,1,1.0945366000000831,None,,,,,,,,834,18,M,R,2026-02-25_11h16.12.023,VisualSearch_2526_3,,2025.2.4,2026-02-25 11h16.12.264047 +0100,
tilted.xlsx,The target is tilted.,117,86,6,10,1,1,1,1,1,1,1,1,0,0,0,0,0,7,8,117,space,5.777824600000031,None,1,1,1.0542473000000427,None,space,2.5491389000001163,None,0,0,0,0,,,,,10,6,86,1,252.18618719999995,,,,,,,,,,,,,,,,,,,,,252.17017099999998,252.18618719999995,252.6702021000001,252.67474689999995,252.69152069999996,253.75386389999994,,,,,253.75405849999993,253.76944219999996,253.9694474999999,253.9532607000001,252.69152069999996,,,,,,,,1,1,1.0542473000000427,None,,,,,,,,834,18,M,R,2026-02-25_11h16.12.023,VisualSearch_2526_3,,2025.2.4,2026-02-25 11h16.12.264047 +0100,
tilted.xlsx,The target is tilted.,117,87,7,10,0,1,1,1,0,0,0,0,0,0,0,0,1,3,4,117,space,5.777824600000031,None,0,1,0.8598551999998563,None,space,2.5491389000001163,None,0,0,0,0,,,,,10,7,87,6,253.9694474999999,,,,,,,,,,,,,,,,,,,,,253.9539655000001,253.9694474999999,254.4532961,254.45785350000006,254.46908929999995,255.3366696999999,,,,,255.3368293000001,255.35232300000007,255.55257460000007,255.53625620000003,254.46908929999995,,,,,,,,0,1,0.8598551999998563,None,,,,,,,,834,18,M,R,2026-02-25_11h16.12.023,VisualSearch_2526_3,,2025.2.4,2026-02-25 11h16.12.264047 +0100,
tilted.xlsx,The target is tilted.,117,88,0,11,0,1,1,1,1,1,1,1,1,1,1,1,1,11,12,117,space,5.777824600000031,None,0,1,3.7951172000000497,None,space,2.5491389000001163,None,0,0,0,0,,,,,11,0,88,4,255.55257460000007,,,,,,,,,,,,,,,,,,,,,255.53702320000002,255.55257460000007,256.0357858,256.03829930000006,256.0521761,259.85262869999997,,,,,259.85280149999994,259.86831000000006,260.0684142,260.05221830000005,256.0521761,,,,,,,,0,1,3.7951172000000497,None,,,,,,,,834,18,M,R,2026-02-25_11h16.12.023,VisualSearch_2526_3,,2025.2.4,2026-02-25 11h16.12.264047 +0100,
tilted.xlsx,The target is tilted.,117,89,1,11,0,0,0,0,0,0,0,0,0,0,0,0,1,1,1,117,space,5.777824600000031,None,0,1,0.5162508000000798,None,space,2.5491389000001163,None,0,0,0,0,,,,,11,1,89,7,260.0684142,,,,,,,,,,,,,,,,,,,,,260.0529518000001,260.0684142,260.5520589,260.55646079999997,260.5723511000001,261.10100839999996,,,,,261.1010635,261.11749800000007,261.3174526,261.3010681999999,260.5723511000001,,,,,,,,0,1,0.5162508000000798,None,,,,,,,,834,18,M,R,2026-02-25_11h16.12.023,VisualSearch_2526_3,,2025.2.4,2026-02-25 11h16.12.264047 +0100,
tilted.xlsx,The target is tilted.,117,90,2,11,0,1,1,1,1,1,1,1,0,0,0,0,1,7,8,117,space,5.777824600000031,None,0,1,3.19650549999983,None,space,2.5491389000001163,None,0,0,0,0,,,,,11,2,90,5,261.3174526,,,,,,,,,,,,,,,,,,,,,261.3014512,261.3174526,261.8015759,261.80626860000007,261.8231788999999,265.03470289999996,,,,,265.034897,265.05071610000005,265.25088789999995,265.23435270000004,,,,,,,,,0,1,3.19650549999983,None,,,,,,,,834,18,M,R,2026-02-25_11h16.12.023,VisualSearch_2526_3,,2025.2.4,2026-02-25 11h16.12.264047 +0100,
tilted.xlsx,The target is tilted.,117,91,3,11,1,1,1,1,0,0,0,0,0,0,0,0,0,3,4,117,space,5.777824600000031,None,1,1,0.7996998999999505,None,space,2.5491389000001163,None,0,0,0,0,,,,,11,3,91,2,265.25088789999995,,,,,,,,,,,,,,,,,,,,,265.23509149999995,265.25088789999995,265.73421759999997,265.7387773999999,265.7538644000001,266.5682611,,,,,266.5684563,266.58388919999993,266.78379259999997,266.76762039999994,265.7538644000001,,,,,,,,1,1,0.7996998999999505,None,,,,,,,,834,18,M,R,2026-02-25_11h16.12.023,VisualSearch_2526_3,,2025.2.4,2026-02-25 11h16.12.264047 +0100,
tilted.xlsx,The target is tilted.,117,92,4,11,1,0,0,0,0,0,0,0,0,0,0,0,0,0,1,117,space,5.777824600000031,None,1,1,1.4951639999999315,None,space,2.5491389000001163,None,0,0,0,0,,,,,11,4,92,3,266.78379259999997,,,,,,,,,,,,,,,,,,,,,266.76834740000004,266.78379259999997,267.2676765000001,267.27217369999994,267.28802670000005,268.7844768,,,,,268.7846615000001,268.8001437999999,269.00018709999995,268.9839631,267.28802670000005,,,,,,,,1,1,1.4951639999999315,None,,,,,,,,834,18,M,R,2026-02-25_11h16.12.023,VisualSearch_2526_3,,2025.2.4,2026-02-25 11h16.12.264047 +0100,
tilted.xlsx,The target is tilted.,117,93,5,11,0,1,1,1,0,0,0,0,0,0,0,0,1,3,4,117,space,5.777824600000031,None,0,1,1.0454213999998956,None,space,2.5491389000001163,None,0,0,0,0,,,,,11,5,93,6,269.00018709999995,,,,,,,,,,,,,,,,,,,,,268.98474050000004,269.00018709999995,269.48366699999997,269.4880522000001,269.503238,270.55073289999996,,,,,270.5508913000001,270.5665033,270.7664380000001,270.75037180000004,269.503238,,,,,,,,0,1,1.0454213999998956,None,,,,,,,,834,18,M,R,2026-02-25_11h16.12.023,VisualSearch_2526_3,,2025.2.4,2026-02-25 11h16.12.264047 +0100,
tilted.xlsx,The target is tilted.,117,94,6,11,1,1,1,1,1,1,1,1,0,0,0,0,0,7,8,117,space,5.777824600000031,None,1,1,2.8116601999997783,None,space,2.5491389000001163,None,0,0,0,0,,,,,11,6,94,1,270.7664380000001,,,,,,,,,,,,,,,,,,,,,270.7510517999999,270.7664380000001,271.25035909999997,271.25487810000004,271.2717771,274.10031860000004,,,,,274.10050849999993,274.11591079999994,274.31593109999994,274.29983719999996,271.2717771,,,,,,,,1,1,2.8116601999997783,None,,,,,,,,834,18,M,R,2026-02-25_11h16.12.023,VisualSearch_2526_3,,2025.2.4,2026-02-25 11h16.12.264047 +0100,
tilted.xlsx,The target is tilted.,117,95,7,11,1,1,1,1,1,1,1,1,1,1,1,1,0,11,12,117,space,5.777824600000031,None,1,1,0.9173121000001174,None,space,2.5491389000001163,None,0,0,0,0,,,,,11,7,95,0,274.31593109999994,,,,,,,,,,,,,,,,,,,,,274.3006230000001,274.31593109999994,274.7993687999999,274.8039381000001,274.8209793000001,275.7500874,,,,,275.7502611,275.76562050000007,275.9653048,275.9493754,274.8209793000001,,,,,,,,1,1,0.9173121000001174,None,,,,,,,,834,18,M,R,2026-02-25_11h16.12.023,VisualSearch_2526_3,,2025.2.4,2026-02-25 11h16.12.264047 +0100,
tilted.xlsx,The target is tilted.,117,96,0,12,1,1,1,1,0,0,0,0,0,0,0,0,0,3,4,117,space,5.777824600000031,None,1,1,1.2203225999999177,None,space,2.5491389000001163,None,0,0,0,0,,,,,12,0,96,2,275.9653048,,,,,,,,,,,,,,,,,,,,,275.9501372,275.9653048,276.4491505000001,276.4538537000001,276.4701293999999,277.699738,,,,,277.6999129000001,277.7152736999999,277.9153169000001,277.89939490000006,276.4701293999999,,,,,,,,1,1,1.2203225999999177,None,,,,,,,,834,18,M,R,2026-02-25_11h16.12.023,VisualSearch_2526_3,,2025.2.4,2026-02-25 11h16.12.264047 +0100,
tilted.xlsx,The target is tilted.,117,97,1,12,1,0,0,0,0,0,0,0,0,0,0,0,0,0,1,117,space,5.777824600000031,None,1,1,0.8636180000000877,None,space,2.5491389000001163,None,0,0,0,0,,,,,12,1,97,3,277.9153169000001,,,,,,,,,,,,,,,,,,,,,277.90014429999997,277.9153169000001,278.39917689999993,278.40370370000005,278.42061620000004,279.29964930000006,,,,,279.29985510000006,279.31510060000005,279.5151169999999,279.4992262999999,278.42061620000004,,,,,,,,1,1,0.8636180000000877,None,,,,,,,,834,18,M,R,2026-02-25_11h16.12.023,VisualSearch_2526_3,,2025.2.4,2026-02-25 11h16.12.264047 +0100,
tilted.xlsx,The target is tilted.,117,98,2,12,0,0,0,0,0,0,0,0,0,0,0,0,1,1,1,117,space,5.777824600000031,None,0,1,0.73551980000002,None,space,2.5491389000001163,None,0,0,0,0,,,,,12,2,98,7,279.5151169999999,,,,,,,,,,,,,,,,,,,,,279.50006469999994,279.5151169999999,279.9988945,280.0040871000001,280.01906400000007,280.7659774000001,,,,,280.76617110000007,280.7815378,280.9815776999999,280.96523090000005,280.01906400000007,,,,,,,,0,1,0.73551980000002,None,,,,,,,,834,18,M,R,2026-02-25_11h16.12.023,VisualSearch_2526_3,,2025.2.4,2026-02-25 11h16.12.264047 +0100,
tilted.xlsx,The target is tilted.,117,99,3,12,0,1,1,1,1,1,1,1,0,0,0,0,1,7,8,117,space,5.777824600000031,None,0,1,1.787277099999983,None,space,2.5491389000001163,None,0,0,0,0,,,,,12,3,99,5,280.9815776999999,,,,,,,,,,,,,,,,,,,,,280.9659504000001,280.9815776999999,281.4650962999999,281.46978880000006,281.48620729999993,283.2821398000001,,,,,283.2823126999999,283.297675,283.49770319999993,283.4812694,281.48620729999993,,,,,,,,0,1,1.787277099999983,None,,,,,,,,834,18,M,R,2026-02-25_11h16.12.023,VisualSearch_2526_3,,2025.2.4,2026-02-25 11h16.12.264047 +0100,
tilted.xlsx,The target is tilted.,117,100,4,12,0,1,1,1,1,1,1,1,1,1,1,1,1,11,12,117,space,5.777824600000031,None,0,1,2.9565217000001667,None,space,2.5491389000001163,None,0,0,0,0,,,,,12,4,100,4,283.49770319999993,,,,,,,,,,,,,,,,,,,,,283.4820367,283.49770319999993,283.98162909999996,283.98633330000007,284.0031659000001,286.96453410000004,,,,,286.9646986,286.9803830999999,287.1804724000001,287.1641895,284.0031659000001,,,,,,,,0,1,2.9565217000001667,None,,,,,,,,834,18,M,R,2026-02-25_11h16.12.023,VisualSearch_2526_3,,2025.2.4,2026-02-25 11h16.12.264047 +0100,
tilted.xlsx,The target is tilted.,117,101,5,12,1,1,1,1,1,1,1,1,1,1,1,1,0,11,12,117,space,5.777824600000031,None,1,1,1.8968482000000222,None,space,2.5491389000001163,None,0,0,0,0,,,,,12,5,101,0,287.1804724000001,,,,,,,,,,,,,,,,,,,,,287.1648820999999,287.1804724000001,287.66434649999997,287.6690157999999,287.68581059999997,289.5974595,,,,,289.59764870000004,289.6129605000001,289.8132998000001,289.79721270000005,287.68581059999997,,,,,,,,1,1,1.8968482000000222,None,,,,,,,,834,18,M,R,2026-02-25_11h16.12.023,VisualSearch_2526_3,,2025.2.4,2026-02-25 11h16.12.264047 +0100,
tilted.xlsx,The target is tilted.,117,102,6,12,1,1,1,1,1,1,1,1,0,0,0,0,0,7,8,117,space,5.777824600000031,None,0,0,2.4926338999998734,None,space,2.5491389000001163,None,0,0,0,0,,,,,12,6,102,1,289.8132998000001,,,,,,,,,,,,,,,,,,,,,289.7979911,289.8132998000001,290.29708800000003,290.3016253999999,290.3172347,292.8131358999999,,,,,292.81325730000003,292.82941660000006,293.0294701,293.0133969000001,290.3172347,,,,,,,,0,0,2.4926338999998734,None,,,,,,,,834,18,M,R,2026-02-25_11h16.12.023,VisualSearch_2526_3,,2025.2.4,2026-02-25 11h16.12.264047 +0100,
tilted.xlsx,The target is tilted.,117,103,7,12,0,1,1,1,0,0,0,0,0,0,0,0,1,3,4,117,space,5.777824600000031,None,0,1,0.9805702999999539,None,space,2.5491389000001163,None,0,0,0,0,,,,,12,7,103,6,293.0294701,,,,,,,,,,,,,,,,,,,,,293.0141085,293.0294701,293.5132470000001,293.51740730000006,293.532817,294.5298256000001,,,,,294.5300453,294.5453831,294.7458612999999,294.7298676999999,293.532817,,,,,,,,0,1,0.9805702999999539,None,,,,,,,,834,18,M,R,2026-02-25_11h16.12.023,VisualSearch_2526_3,,2025.2.4,2026-02-25 11h16.12.264047 +0100,
tilted.xlsx,The target is tilted.,117,104,0,13,0,0,0,0,0,0,0,0,0,0,0,0,1,1,1,117,space,5.777824600000031,None,0,1,0.5356799999999566,None,space,2.5491389000001163,None,0,0,0,0,,,,,13,0,104,7,294.7458612999999,,,,,,,,,,,,,,,,,,,,,294.7305778,294.7458612999999,295.22969579999994,295.23425169999996,295.25110670000004,295.79668089999996,,,,,295.7968545000001,295.81232679999994,296.0123665000001,295.9961596999999,295.25110670000004,,,,,,,,0,1,0.5356799999999566,None,,,,,,,,834,18,M,R,2026-02-25_11h16.12.023,VisualSearch_2526_3,,2025.2.4,2026-02-25 11h16.12.264047 +0100,
tilted.xlsx,The target is tilted.,117,105,1,13,0,1,1,1,1,1,1,1,0,0,0,0,1,7,8,117,space,5.777824600000031,None,0,1,2.330962399999862,None,space,2.5491389000001163,None,0,0,0,0,,,,,13,1,105,5,296.0123665000001,,,,,,,,,,,,,,,,,,,,,295.9969243999999,296.0123665000001,296.49626149999995,296.50135580000006,296.5188688999999,298.8628449,,,,,298.8630184000001,298.8784108,299.07827580000003,299.06237469999996,296.5188688999999,,,,,,,,0,1,2.330962399999862,None,,,,,,,,834,18,M,R,2026-02-25_11h16.12.023,VisualSearch_2526_3,,2025.2.4,2026-02-25 11h16.12.264047 +0100,
tilted.xlsx,The target is tilted.,117,106,2,13,1,1,1,1,0,0,0,0,0,0,0,0,0,3,4,117,space,5.777824600000031,None,1,1,0.8132739000000129,None,space,2.5491389000001163,None,0,0,0,0,,,,,13,2,106,2,299.07827580000003,,,,,,,,,,,,,,,,,,,,,299.06303479999997,299.07827580000003,299.56234470000004,299.56683010000006,299.5825219999999,300.4124082999999,,,,,300.41257840000003,300.42817420000006,300.6281781,300.6115216999999,299.5825219999999,,,,,,,,1,1,0.8132739000000129,None,,,,,,,,834,18,M,R,2026-02-25_11h16.12.023,VisualSearch_2526_3,,2025.2.4,2026-02-25 11h16.12.264047 +0100,
tilted.xlsx,The target is tilted.,117,107,3,13,1,1,1,1,1,1,1,1,0,0,0,0,0,7,8,117,space,5.777824600000031,None,1,1,1.2793026999997892,None,space,2.5491389000001163,None,0,0,0,0,,,,,13,3,107,1,300.6281781,,,,,,,,,,,,,,,,,,,,,300.6121065,300.6281781,301.1121780000001,301.11678359999996,301.13466700000004,302.4285142000001,,,,,302.4286425,302.44457650000004,302.64453359999993,302.6284748999999,301.13466700000004,,,,,,,,1,1,1.2793026999997892,None,,,,,,,,834,18,M,R,2026-02-25_11h16.12.023,VisualSearch_2526_3,,2025.2.4,2026-02-25 11h16.12.264047 +0100,
tilted.xlsx,The target is tilted.,117,108,4,13,1,1,1,1,1,1,1,1,1,1,1,1,0,11,12,117,space,5.777824600000031,None,0,0,2.653692200000023,None,space,2.5491389000001163,None,0,0,0,0,,,,,13,4,108,0,302.64453359999993,,,,,,,,,,,,,,,,,,,,,302.62920269999995,302.64453359999993,303.1279517999999,303.1331789000001,303.14770279999993,305.8116465999999,,,,,305.81182119999994,305.8272420999999,306.0272514999999,306.0112875,303.14770279999993,,,,,,,,0,0,2.653692200000023,None,,,,,,,,834,18,M,R,2026-02-25_11h16.12.023,VisualSearch_2526_3,,2025.2.4,2026-02-25 11h16.12.264047 +0100,
tilted.xlsx,The target is tilted.,117,109,5,13,0,1,1,1,0,0,0,0,0,0,0,0,1,3,4,117,space,5.777824600000031,None,0,1,0.8104014000000461,None,space,2.5491389000001163,None,0,0,0,0,,,,,13,5,109,6,306.0272514999999,,,,,,,,,,,,,,,,,,,,,306.0119999000001,306.0272514999999,306.51102979999996,306.5150882999999,306.5309161,307.3445669,,,,,307.3447269999999,307.36030830000004,307.5604757000001,307.5441903000001,306.5309161,,,,,,,,0,1,0.8104014000000461,None,,,,,,,,834,18,M,R,2026-02-25_11h16.12.023,VisualSearch_2526_3,,2025.2.4,2026-02-25 11h16.12.264047 +0100,
tilted.xlsx,The target is tilted.,117,110,6,13,0,1,1,1,1,1,1,1,1,1,1,1,1,11,12,117,space,5.777824600000031,None,1,0,2.45543809999981,None,space,2.5491389000001163,None,0,0,0,0,,,,,13,6,110,4,307.5604757000001,,,,,,,,,,,,,,,,,,,,,307.54480149999995,307.5604757000001,308.0438598999999,308.0485470000001,308.06484509999996,310.5275577,,,,,310.527734,310.5432481,310.7432951999999,310.7270547999999,308.06484509999996,,,,,,,,1,0,2.45543809999981,None,,,,,,,,834,18,M,R,2026-02-25_11h16.12.023,VisualSearch_2526_3,,2025.2.4,2026-02-25 11h16.12.264047 +0100,
tilted.xlsx,The target is tilted.,117,111,7,13,1,0,0,0,0,0,0,0,0,0,0,0,0,0,1,117,space,5.777824600000031,None,1,1,0.6892464999998538,None,space,2.5491389000001163,None,0,0,0,0,,,,,13,7,111,3,310.7432951999999,,,,,,,,,,,,,,,,,,,,,310.7278211,310.7432951999999,311.2268684999999,311.2315318000001,311.24720279999997,311.9441753000001,,,,,311.9443696000001,311.95973359999994,312.15971220000006,312.14354460000004,311.24720279999997,,,,,,,,1,1,0.6892464999998538,None,,,,,,,,834,18,M,R,2026-02-25_11h16.12.023,VisualSearch_2526_3,,2025.2.4,2026-02-25 11h16.12.264047 +0100,
tilted.xlsx,The target is tilted.,117,112,0,14,1,1,1,1,0,0,0,0,0,0,0,0,0,3,4,117,space,5.777824600000031,None,0,0,0.906412600000067,None,space,2.5491389000001163,None,0,0,0,0,,,,,14,0,112,2,312.15971220000006,,,,,,,,,,,,,,,,,,,,,312.1442578000001,312.15971220000006,312.6430349,312.64731989999996,312.6626306999999,313.5771672000001,,,,,313.577362,313.5927033999999,313.7928588,313.77653050000004,312.6626306999999,,,,,,,,0,0,0.906412600000067,None,,,,,,,,834,18,M,R,2026-02-25_11h16.12.023,VisualSearch_2526_3,,2025.2.4,2026-02-25 11h16.12.264047 +0100,
tilted.xlsx,The target is tilted.,117,113,1,14,1,0,0,0,0,0,0,0,0,0,0,0,0,0,1,117,space,5.777824600000031,None,1,1,0.4943401000000449,None,space,2.5491389000001163,None,0,0,0,0,,,,,14,1,113,3,313.7928588,,,,,,,,,,,,,,,,,,,,,313.77728819999993,313.7928588,314.2762049999999,314.28073659999995,314.29686190000007,314.7932676999999,,,,,314.7934276000001,314.8091021,315.00918580000007,314.99322499999994,314.29686190000007,,,,,,,,1,1,0.4943401000000449,None,,,,,,,,834,18,M,R,2026-02-25_11h16.12.023,VisualSearch_2526_3,,2025.2.4,2026-02-25 11h16.12.264047 +0100,
tilted.xlsx,The target is tilted.,117,114,2,14,0,1,1,1,1,1,1,1,1,1,1,1,1,11,12,117,space,5.777824600000031,None,0,1,2.227852799999937,None,space,2.5491389000001163,None,0,0,0,0,,,,,14,2,114,4,315.00918580000007,,,,,,,,,,,,,,,,,,,,,314.99398969999993,315.00918580000007,315.4932203000001,315.49848599999996,315.51495709999995,317.7592572000001,,,,,317.7594145999999,317.7752518,317.9752725999999,317.9592175,315.51495709999995,,,,,,,,0,1,2.227852799999937,None,,,,,,,,834,18,M,R,2026-02-25_11h16.12.023,VisualSearch_2526_3,,2025.2.4,2026-02-25 11h16.12.264047 +0100,
tilted.xlsx,The target is tilted.,117,115,3,14,0,0,0,0,0,0,0,0,0,0,0,0,1,1,1,117,space,5.777824600000031,None,0,1,0.5961618000001181,None,space,2.5491389000001163,None,0,0,0,0,,,,,14,3,115,7,317.9752725999999,,,,,,,,,,,,,,,,,,,,,317.9599281999999,317.9752725999999,318.4591478,318.4637367,318.48020240000005,319.0928105999999,,,,,319.09298349999995,319.1083661,319.30848360000005,319.29239559999996,318.48020240000005,,,,,,,,0,1,0.5961618000001181,None,,,,,,,,834,18,M,R,2026-02-25_11h16.12.023,VisualSearch_2526_3,,2025.2.4,2026-02-25 11h16.12.264047 +0100,
tilted.xlsx,The target is tilted.,117,116,4,14,1,1,1,1,1,1,1,1,0,0,0,0,0,7,8,117,space,5.777824600000031,None,0,0,1.5898403999999573,None,space,2.5491389000001163,None,0,0,0,0,,,,,14,4,116,1,319.30848360000005,,,,,,,,,,,,,,,,,,,,,319.29310570000007,319.30848360000005,319.79191220000007,319.7967805999999,319.8121089000001,321.40875989999995,,,,,321.40892959999996,321.4243878,321.6246100000001,321.6085214,319.8121089000001,,,,,,,,0,0,1.5898403999999573,None,,,,,,,,834,18,M,R,2026-02-25_11h16.12.023,VisualSearch_2526_3,,2025.2.4,2026-02-25 11h16.12.264047 +0100,
tilted.xlsx,The target is tilted.,117,117,5,14,1,1,1,1,1,1,1,1,1,1,1,1,0,11,12,117,space,5.777824600000031,None,0,0,2.779322500000035,None,space,2.5491389000001163,None,0,0,0,0,,,,,14,5,117,0,321.6246100000001,,,,,,,,,,,,,,,,,,,,,321.60935429999995,321.6246100000001,322.1084871999999,322.1133165000001,322.1320648000001,324.9244672,,,,,324.92459499999995,324.94082789999993,325.1404738000001,325.1243503999999,322.1320648000001,,,,,,,,0,0,2.779322500000035,None,,,,,,,,834,18,M,R,2026-02-25_11h16.12.023,VisualSearch_2526_3,,2025.2.4,2026-02-25 11h16.12.264047 +0100,
tilted.xlsx,The target is tilted.,117,118,6,14,0,1,1,1,0,0,0,0,0,0,0,0,1,3,4,117,space,5.777824600000031,None,0,1,1.1613749999999072,None,space,2.5491389000001163,None,0,0,0,0,,,,,14,6,118,6,325.1404738000001,,,,,,,,,,,,,,,,,,,,,325.12510339999994,325.1404738000001,325.6243052,325.6287984999999,325.64530850000006,326.8076791000001,,,,,326.80783900000006,326.8235059000001,327.0237618000001,327.0074846,325.64530850000006,,,,,,,,0,1,1.1613749999999072,None,,,,,,,,834,18,M,R,2026-02-25_11h16.12.023,VisualSearch_2526_3,,2025.2.4,2026-02-25 11h16.12.264047 +0100,
tilted.xlsx,The target is tilted.,117,119,7,14,0,1,1,1,1,1,1,1,0,0,0,0,1,7,8,117,space,5.777824600000031,None,0,1,1.5305711999999403,None,space,2.5491389000001163,None,0,0,0,0,,,,,14,7,119,5,327.0237618000001,,,,,,,,,,,,,,,,,,,,,327.00821470000005,327.0237618000001,327.5080149999999,327.5129830000001,327.5279935000001,329.07463860000007,,,,,329.0748332999999,329.09005849999994,329.30465589999994,329.27394830000003,327.5279935000001,,,,,,,,0,1,1.5305711999999403,None,,,,,,,,834,18,M,R,2026-02-25_11h16.12.023,VisualSearch_2526_3,,2025.2.4,2026-02-25 11h16.12.264047 +0100,
tilted.xlsx,The target is tilted.,117,0,0,0,,,,,,,,,,,,,,,,,space,5.777824600000031,None,,,,,space,2.5491389000001163,None,0,0,0,0,,,,,,,,,,,,,,,,,,,,,,,,,,,,,,,,,,,,,,,,,,,,,,,,,,,,,,,,,,,,,,,834,18,M,R,2026-02-25_11h16.12.023,VisualSearch_2526_3,,2025.2.4,2026-02-25 11h16.12.264047 +0100,
vertical.xlsx,The target is tilted.,135,0,0,0,1,1,1,1,1,1,1,1,1,1,1,1,0,11,12,135,space,3.214770400000134,None,1,1,1.0760326000001896,None,,,,0,1,1,1,0,0,0,0,,,,,332.5503841,,,,,,,,,,,,,,,329.30465589999994,329.30465589999994,329.30465589999994,space,3.214770400000134,None,332.54631100000006,332.5503841,333.0396424999999,333.0439246000001,333.0596757999999,334.1397741999999,1,1,1.0760326000001896,None,334.1399692,334.1558083,334.35598490000007,334.3398565,,,,,,,,,,,,,,,,,,,,834,18,M,R,2026-02-25_11h16.12.023,VisualSearch_2526_3,,2025.2.4,2026-02-25 11h16.12.264047 +0100,
vertical.xlsx,The target is tilted.,135,1,1,0,0,1,1,1,0,0,0,0,0,0,0,0,1,3,4,135,space,3.214770400000134,None,0,1,0.72852069999999,None,,,,0,1,1,1,0,1,1,6,,,,,334.35598490000007,,,,,,,,,,,,,,,,,,,,,334.34053689999996,334.35598490000007,334.8397918999999,334.8445325,334.8611667,335.60662780000007,0,1,0.72852069999999,None,335.60679600000003,335.6222780999999,335.82226790000004,335.80584109999995,334.8611667,,,,,,,,,,,,,,,,,,,834,18,M,R,2026-02-25_11h16.12.023,VisualSearch_2526_3,,2025.2.4,2026-02-25 11h16.12.264047 +0100,
vertical.xlsx,The target is tilted.,135,2,2,0,0,1,1,1,1,1,1,1,1,1,1,1,1,11,12,135,space,3.214770400000134,None,0,1,1.3492506000000049,None,,,,0,1,1,1,0,2,2,4,,,,,335.82226790000004,,,,,,,,,,,,,,,,,,,,,335.8065237999999,335.82226790000004,336.3060372,336.3112791000001,336.3269415,337.6896664000001,0,1,1.3492506000000049,None,337.68984320000004,337.70500730000003,337.90525230000003,337.8892945,336.3269415,,,,,,,,,,,,,,,,,,,834,18,M,R,2026-02-25_11h16.12.023,VisualSearch_2526_3,,2025.2.4,2026-02-25 11h16.12.264047 +0100,
vertical.xlsx,The target is tilted.,135,3,3,0,0,1,1,1,1,1,1,1,0,0,0,0,1,7,8,135,space,3.214770400000134,None,0,1,1.0945047000000159,None,,,,0,1,1,1,0,3,3,5,,,,,337.90525230000003,,,,,,,,,,,,,,,,,,,,,337.889948,337.90525230000003,338.38911989999997,338.3936756999999,338.4096737,339.50600540000005,0,1,1.0945047000000159,None,339.50617450000004,339.5217032999999,339.72181380000006,339.7054891,338.4096737,,,,,,,,,,,,,,,,,,,834,18,M,R,2026-02-25_11h16.12.023,VisualSearch_2526_3,,2025.2.4,2026-02-25 11h16.12.264047 +0100,
vertical.xlsx,The target is tilted.,135,4,4,0,1,1,1,1,0,0,0,0,0,0,0,0,0,3,4,135,space,3.214770400000134,None,1,1,0.5721137000000454,None,,,,0,1,1,1,0,4,4,2,,,,,339.72181380000006,,,,,,,,,,,,,,,,,,,,,339.70617990000005,339.72181380000006,340.2055044000001,340.2100809000001,340.2265540000001,340.8057265,1,1,0.5721137000000454,None,340.8058943000001,340.8215163,341.0210546999999,341.0048514,340.2265540000001,,,,,,,,,,,,,,,,,,,834,18,M,R,2026-02-25_11h16.12.023,VisualSearch_2526_3,,2025.2.4,2026-02-25 11h16.12.264047 +0100,
vertical.xlsx,The target is tilted.,135,5,5,0,1,0,0,0,0,0,0,0,0,0,0,0,0,0,1,135,space,3.214770400000134,None,1,1,0.4921128000000863,None,,,,0,1,1,1,0,5,5,3,,,,,341.0210546999999,,,,,,,,,,,,,,,,,,,,,341.00546510000004,341.0210546999999,341.50523709999993,341.5105621,341.5270301999999,342.0226447,1,1,0.4921128000000863,None,342.0228595000001,342.0377401999999,342.23798009999996,342.2214309000001,341.5270301999999,,,,,,,,,,,,,,,,,,,834,18,M,R,2026-02-25_11h16.12.023,VisualSearch_2526_3,,2025.2.4,2026-02-25 11h16.12.264047 +0100,
vertical.xlsx,The target is tilted.,135,6,6,0,0,0,0,0,0,0,0,0,0,0,0,0,1,1,1,135,space,3.214770400000134,None,1,0,0.4773665999998684,None,,,,0,1,1,1,0,6,6,7,,,,,342.23798009999996,,,,,,,,,,,,,,,,,,,,,342.222119,342.23798009999996,342.7217637000001,342.72626059999993,342.7429947999999,343.2222240000001,1,0,0.4773665999998684,None,343.2224079,343.2375611,343.4378391,343.4218645000001,342.7429947999999,,,,,,,,,,,,,,,,,,,834,18,M,R,2026-02-25_11h16.12.023,VisualSearch_2526_3,,2025.2.4,2026-02-25 11h16.12.264047 +0100,
vertical.xlsx,The target is tilted.,135,7,7,0,1,1,1,1,1,1,1,1,0,0,0,0,0,7,8,135,space,3.214770400000134,None,1,1,0.476714500000071,None,,,,0,1,1,1,0,7,7,1,,,,,343.4378391,,,,,,,,,,,,,,,,,,,,,343.4226111999999,343.4378391,343.92172129999994,343.92701379999994,343.94407849999993,344.4220227999999,1,1,0.476714500000071,None,344.4222069,344.43759120000004,344.6376365000001,344.6215351999999,343.94407849999993,,,,,,,,,,,,,,,,,,,834,18,M,R,2026-02-25_11h16.12.023,VisualSearch_2526_3,,2025.2.4,2026-02-25 11h16.12.264047 +0100,
vertical.xlsx,The target is tilted.,135,0,0,0,0,1,1,1,0,0,0,0,0,0,0,0,1,3,4,135,space,3.214770400000134,None,0,1,0.7098989999999503,None,space,1.1188933000000816,None,0,1,1,1,,,,,0,0,0,6,345.8056815,,,,,,,,,,,,,,,,,,,,,345.8013759999999,345.8056815,346.28765769999995,346.2928956999999,346.3101543,347.0214991,,,,,347.0217093000001,347.03678719999994,347.23722580000003,347.22120259999997,,344.62853859999996,344.6376365000001,344.6376365000001,345.77189410000005,space,1.1188933000000816,None,0,1,0.7098989999999503,None,,,,,,,,834,18,M,R,2026-02-25_11h16.12.023,VisualSearch_2526_3,,2025.2.4,2026-02-25 11h16.12.264047 +0100,
vertical.xlsx,The target is tilted.,135,1,1,0,0,0,0,0,0,0,0,0,0,0,0,0,1,1,1,135,space,3.214770400000134,None,0,1,0.7014110999998593,None,space,1.1188933000000816,None,0,1,1,1,,,,,0,1,1,7,347.23722580000003,,,,,,,,,,,,,,,,,,,,,347.2219914,347.23722580000003,347.72091939999996,347.72540989999993,347.74321570000006,348.45454270000005,,,,,348.4547193000001,348.46988409999994,348.67033390000006,348.6540938999999,347.74321570000006,,,,,,,,0,1,0.7014110999998593,None,,,,,,,,834,18,M,R,2026-02-25_11h16.12.023,VisualSearch_2526_3,,2025.2.4,2026-02-25 11h16.12.264047 +0100,
vertical.xlsx,The target is tilted.,135,2,2,0,1,1,1,1,1,1,1,1,0,0,0,0,0,7,8,135,space,3.214770400000134,None,1,1,1.2465844000000743,None,space,1.1188933000000816,None,0,1,1,1,,,,,0,2,2,1,348.67033390000006,,,,,,,,,,,,,,,,,,,,,348.6548044000001,348.67033390000006,349.1536347000001,349.1582682999999,349.1745079,350.4375447,,,,,350.43771949999996,350.4531296,350.6533514,350.63697890000003,349.1745079,,,,,,,,1,1,1.2465844000000743,None,,,,,,,,834,18,M,R,2026-02-25_11h16.12.023,VisualSearch_2526_3,,2025.2.4,2026-02-25 11h16.12.264047 +0100,
vertical.xlsx,The target is tilted.,135,3,3,0,1,1,1,1,0,0,0,0,0,0,0,0,0,3,4,135,space,3.214770400000134,None,1,1,0.4565635999999813,None,space,1.1188933000000816,None,0,1,1,1,,,,,0,3,3,2,350.6533514,,,,,,,,,,,,,,,,,,,,,350.6377018999999,350.6533514,351.13692790000005,351.1415879000001,351.1573659999999,351.6207382,,,,,351.6209317,351.6363220999999,351.83634830000005,351.8202452999999,351.1573659999999,,,,,,,,1,1,0.4565635999999813,None,,,,,,,,834,18,M,R,2026-02-25_11h16.12.023,VisualSearch_2526_3,,2025.2.4,2026-02-25 11h16.12.264047 +0100,
vertical.xlsx,The target is tilted.,135,4,4,0,0,1,1,1,1,1,1,1,1,1,1,1,1,11,12,135,space,3.214770400000134,None,0,1,1.011028099999976,None,space,1.1188933000000816,None,0,1,1,1,,,,,0,4,4,4,351.83634830000005,,,,,,,,,,,,,,,,,,,,,351.8210254999999,351.83634830000005,352.320279,352.32529909999994,352.34271650000005,353.3704309,,,,,353.37061100000005,353.38559080000005,353.5856988999999,353.5698692000001,352.34271650000005,,,,,,,,0,1,1.011028099999976,None,,,,,,,,834,18,M,R,2026-02-25_11h16.12.023,VisualSearch_2526_3,,2025.2.4,2026-02-25 11h16.12.264047 +0100,
vertical.xlsx,The target is tilted.,135,5,5,0,1,1,1,1,1,1,1,1,1,1,1,1,0,11,12,135,space,3.214770400000134,None,0,0,0.9012797000000319,None,space,1.1188933000000816,None,0,1,1,1,,,,,0,5,5,0,353.5856988999999,,,,,,,,,,,,,,,,,,,,,353.57064289999994,353.5856988999999,354.06978950000007,354.0744489000001,354.0893701,355.0033535,,,,,355.00351539999997,355.0190516,355.2188767,355.20282900000007,354.0893701,,,,,,,,0,0,0.9012797000000319,None,,,,,,,,834,18,M,R,2026-02-25_11h16.12.023,VisualSearch_2526_3,,2025.2.4,2026-02-25 11h16.12.264047 +0100,
vertical.xlsx,The target is tilted.,135,6,6,0,1,0,0,0,0,0,0,0,0,0,0,0,0,0,1,135,space,3.214770400000134,None,1,1,0.46923519999995733,None,space,1.1188933000000816,None,0,1,1,1,,,,,0,6,6,3,355.2188767,,,,,,,,,,,,,,,,,,,,,355.20355040000004,355.2188767,355.7029267999999,355.7074929999999,355.7233120000001,356.20316090000006,,,,,356.2033214999999,356.2188111999999,356.41887969999993,356.40236430000004,355.7233120000001,,,,,,,,1,1,0.46923519999995733,None,,,,,,,,834,18,M,R,2026-02-25_11h16.12.023,VisualSearch_2526_3,,2025.2.4,2026-02-25 11h16.12.264047 +0100,
vertical.xlsx,The target is tilted.,135,7,7,0,0,1,1,1,1,1,1,1,0,0,0,0,1,7,8,135,space,3.214770400000134,None,0,1,0.9561592000000019,None,space,1.1188933000000816,None,0,1,1,1,,,,,0,7,7,5,356.41887969999993,,,,,,,,,,,,,,,,,,,,,356.40304489999994,356.41887969999993,356.90256810000005,356.9066318,356.9218911999999,357.88615619999996,,,,,357.8863343999999,357.90166320000003,358.10206259999995,358.0856346999999,356.9218911999999,,,,,,,,0,1,0.9561592000000019,None,,,,,,,,834,18,M,R,2026-02-25_11h16.12.023,VisualSearch_2526_3,,2025.2.4,2026-02-25 11h16.12.264047 +0100,
vertical.xlsx,The target is tilted.,135,8,0,1,0,1,1,1,0,0,0,0,0,0,0,0,1,3,4,135,space,3.214770400000134,None,0,1,0.6251586000000771,None,space,1.1188933000000816,None,0,1,1,1,,,,,1,0,8,6,358.10206259999995,,,,,,,,,,,,,,,,,,,,,358.08639560000006,358.10206259999995,358.58539199999996,358.5900732,358.6056598,359.2349557,,,,,359.23502869999993,359.2516773,,359.4352805000001,358.6056598,,,,,,,,0,1,0.6251586000000771,None,,,,,,,,834,18,M,R,2026-02-25_11h16.12.023,VisualSearch_2526_3,,2025.2.4,2026-02-25 11h16.12.264047 +0100,
vertical.xlsx,The target is tilted.,135,9,1,1,1,1,1,1,1,1,1,1,0,0,0,0,0,7,8,135,space,3.214770400000134,None,1,1,0.925845900000013,None,space,1.1188933000000816,None,0,1,1,1,,,,,1,1,9,1,359.45182980000004,,,,,,,,,,,,,,,,,,,,,359.4360509999999,359.45182980000004,359.9351872,359.9400286,359.95236750000004,360.8858097,,,,,360.88601500000004,360.9013497000001,361.1016480999999,361.08531719999996,,,,,,,,,1,1,0.925845900000013,None,,,,,,,,834,18,M,R,2026-02-25_11h16.12.023,VisualSearch_2526_3,,2025.2.4,2026-02-25 11h16.12.264047 +0100,
vertical.xlsx,The target is tilted.,135,10,2,1,0,1,1,1,1,1,1,1,0,0,0,0,1,7,8,135,space,3.214770400000134,None,0,1,1.18171540000003,None,space,1.1188933000000816,None,0,1,1,1,,,,,1,2,10,5,361.1016480999999,,,,,,,,,,,,,,,,,,,,,361.08615729999997,361.1016480999999,361.5852301,361.5902785999999,361.6064174999999,362.80233150000004,,,,,362.80252470000005,362.8174882999999,363.01782879999996,363.0016868,361.6064174999999,,,,,,,,0,1,1.18171540000003,None,,,,,,,,834,18,M,R,2026-02-25_11h16.12.023,VisualSearch_2526_3,,2025.2.4,2026-02-25 11h16.12.264047 +0100,
vertical.xlsx,The target is tilted.,135,11,3,1,1,1,1,1,1,1,1,1,1,1,1,1,0,11,12,135,space,3.214770400000134,None,1,1,0.8790205999998761,None,space,1.1188933000000816,None,0,1,1,1,,,,,1,3,11,0,363.01782879999996,,,,,,,,,,,,,,,,,,,,,363.0024132000001,363.01782879999996,363.5017302000001,363.5065033000001,363.5175313,364.4020215999999,,,,,364.40221240000005,364.4174602999999,364.6176507,364.60148129999993,363.5175313,,,,,,,,1,1,0.8790205999998761,None,,,,,,,,834,18,M,R,2026-02-25_11h16.12.023,VisualSearch_2526_3,,2025.2.4,2026-02-25 11h16.12.264047 +0100,
vertical.xlsx,The target is tilted.,135,12,4,1,0,0,0,0,0,0,0,0,0,0,0,0,1,1,1,135,space,3.214770400000134,None,0,1,0.6696713000001182,None,space,1.1188933000000816,None,0,1,1,1,,,,,1,4,12,7,364.6176507,,,,,,,,,,,,,,,,,,,,,364.6022049999999,364.6176507,365.10095750000005,365.1050699,365.12103720000005,365.8016310999999,,,,,365.80180270000005,365.81738500000006,366.0172967000001,366.0011042000001,365.12103720000005,,,,,,,,0,1,0.6696713000001182,None,,,,,,,,834,18,M,R,2026-02-25_11h16.12.023,VisualSearch_2526_3,,2025.2.4,2026-02-25 11h16.12.264047 +0100,
vertical.xlsx,The target is tilted.,135,13,5,1,1,1,1,1,0,0,0,0,0,0,0,0,0,3,4,135,space,3.214770400000134,None,1,1,0.7081731999999192,None,space,1.1188933000000816,None,0,1,1,1,,,,,1,5,13,2,366.0172967000001,,,,,,,,,,,,,,,,,,,,,366.0018411000001,366.0172967000001,366.50105370000006,366.5055973000001,366.52246549999995,367.23444670000003,,,,,367.23462440000003,367.2500273999999,367.45047780000004,367.43436930000007,366.52246549999995,,,,,,,,1,1,0.7081731999999192,None,,,,,,,,834,18,M,R,2026-02-25_11h16.12.023,VisualSearch_2526_3,,2025.2.4,2026-02-25 11h16.12.264047 +0100,
vertical.xlsx,The target is tilted.,135,14,6,1,0,1,1,1,1,1,1,1,1,1,1,1,1,11,12,135,space,3.214770400000134,None,0,1,1.3803620000001047,None,space,1.1188933000000816,None,0,1,1,1,,,,,1,6,14,4,367.45047780000004,,,,,,,,,,,,,,,,,,,,,367.4350743,367.45047780000004,367.93426,367.93919260000007,367.9568015,369.3508417999999,,,,,369.3509994000001,369.3663853999999,369.5663445,369.5504962,367.9568015,,,,,,,,0,1,1.3803620000001047,None,,,,,,,,834,18,M,R,2026-02-25_11h16.12.023,VisualSearch_2526_3,,2025.2.4,2026-02-25 11h16.12.264047 +0100,
vertical.xlsx,The target is tilted.,135,15,7,1,1,0,0,0,0,0,0,0,0,0,0,0,0,0,1,135,space,3.214770400000134,None,1,1,0.4986146999999619,None,space,1.1188933000000816,None,0,1,1,1,,,,,1,7,15,3,369.5663445,,,,,,,,,,,,,,,,,,,,,369.5512461999999,369.5663445,370.05014400000005,370.0546965000001,370.07128809999995,370.5843904000001,,,,,370.58458339999993,370.5999446000001,370.7997720999999,370.7837480999999,370.07128809999995,,,,,,,,1,1,0.4986146999999619,None,,,,,,,,834,18,M,R,2026-02-25_11h16.12.023,VisualSearch_2526_3,,2025.2.4,2026-02-25 11h16.12.264047 +0100,
vertical.xlsx,The target is tilted.,135,16,0,2,0,1,1,1,0,0,0,0,0,0,0,0,1,3,4,135,space,3.214770400000134,None,0,1,0.7933585999999195,None,space,1.1188933000000816,None,0,1,1,1,,,,,2,0,16,6,370.7997720999999,,,,,,,,,,,,,,,,,,,,,370.7844811,370.7997720999999,371.28366460000007,371.28825660000007,371.3042154,372.1007262999999,,,,,372.1009002999999,372.11589819999995,372.316229,372.30012110000007,371.3042154,,,,,,,,0,1,0.7933585999999195,None,,,,,,,,834,18,M,R,2026-02-25_11h16.12.023,VisualSearch_2526_3,,2025.2.4,2026-02-25 11h16.12.264047 +0100,
vertical.xlsx,The target is tilted.,135,17,1,2,0,0,0,0,0,0,0,0,0,0,0,0,1,1,1,135,space,3.214770400000134,None,0,1,0.49944510000000264,None,space,1.1188933000000816,None,0,1,1,1,,,,,2,1,17,7,372.316229,,,,,,,,,,,,,,,,,,,,,372.3008680999999,372.316229,372.7995455,372.8035992,372.8197199000001,373.33327959999997,,,,,373.33345959999997,373.3494687,373.54902330000004,373.5334296000001,372.8197199000001,,,,,,,,0,1,0.49944510000000264,None,,,,,,,,834,18,M,R,2026-02-25_11h16.12.023,VisualSearch_2526_3,,2025.2.4,2026-02-25 11h16.12.264047 +0100,
vertical.xlsx,The target is tilted.,135,18,2,2,1,0,0,0,0,0,0,0,0,0,0,0,0,0,1,135,space,3.214770400000134,None,1,1,0.5334854000000178,None,space,1.1188933000000816,None,0,1,1,1,,,,,2,2,18,3,373.54902330000004,,,,,,,,,,,,,,,,,,,,,373.53489250000007,373.54902330000004,374.03350249999994,374.04074990000004,374.0486545000001,374.5836712,,,,,374.5838670999999,374.598874,374.7993265,374.7832366,374.0486545000001,,,,,,,,1,1,0.5334854000000178,None,,,,,,,,834,18,M,R,2026-02-25_11h16.12.023,VisualSearch_2526_3,,2025.2.4,2026-02-25 11h16.12.264047 +0100,
vertical.xlsx,The target is tilted.,135,19,3,2,1,1,1,1,1,1,1,1,0,0,0,0,0,7,8,135,space,3.214770400000134,None,1,1,0.9298696999999265,None,space,1.1188933000000816,None,0,1,1,1,,,,,2,3,19,1,374.7993265,,,,,,,,,,,,,,,,,,,,,374.7840633999999,374.7993265,375.2831363,375.2884260000001,375.3048845999999,376.2500172,,,,,376.2502102000001,376.2654668,376.4652450000001,376.44948569999997,375.3048845999999,,,,,,,,1,1,0.9298696999999265,None,,,,,,,,834,18,M,R,2026-02-25_11h16.12.023,VisualSearch_2526_3,,2025.2.4,2026-02-25 11h16.12.264047 +0100,
vertical.xlsx,The target is tilted.,135,20,4,2,1,1,1,1,0,0,0,0,0,0,0,0,0,3,4,135,space,3.214770400000134,None,1,1,0.45300159999987955,None,space,1.1188933000000816,None,0,1,1,1,,,,,2,4,20,2,376.4652450000001,,,,,,,,,,,,,,,,,,,,,376.45020999999997,376.4652450000001,376.9494159000001,376.95404899999994,376.97157229999993,377.4332056999999,,,,,377.4334005999999,377.4483579,377.64869539999995,377.63208970000005,376.97157229999993,,,,,,,,1,1,0.45300159999987955,None,,,,,,,,834,18,M,R,2026-02-25_11h16.12.023,VisualSearch_2526_3,,2025.2.4,2026-02-25 11h16.12.264047 +0100,
vertical.xlsx,The target is tilted.,135,21,5,2,0,1,1,1,1,1,1,1,1,1,1,1,1,11,12,135,space,3.214770400000134,None,0,1,1.2389785000000302,None,space,1.1188933000000816,None,0,1,1,1,,,,,2,5,21,4,377.64869539999995,,,,,,,,,,,,,,,,,,,,,377.6327406999999,377.64869539999995,378.1321685999999,378.13681270000006,378.1555885,379.3995801000001,,,,,379.3997721999999,379.4149852999999,379.6150978999999,379.5991663,378.1555885,,,,,,,,0,1,1.2389785000000302,None,,,,,,,,834,18,M,R,2026-02-25_11h16.12.023,VisualSearch_2526_3,,2025.2.4,2026-02-25 11h16.12.264047 +0100,
vertical.xlsx,The target is tilted.,135,22,6,2,0,1,1,1,1,1,1,1,0,0,0,0,1,7,8,135,space,3.214770400000134,None,0,1,1.180224699999826,None,space,1.1188933000000816,None,0,1,1,1,,,,,2,6,22,5,379.6150978999999,,,,,,,,,,,,,,,,,,,,,379.60009949999994,379.6150978999999,380.09856880000007,380.1039114,380.12124500000004,381.3155996999999,,,,,381.3156695,381.33108960000004,381.5311136,381.5149409999999,380.12124500000004,,,,,,,,0,1,1.180224699999826,None,,,,,,,,834,18,M,R,2026-02-25_11h16.12.023,VisualSearch_2526_3,,2025.2.4,2026-02-25 11h16.12.264047 +0100,
vertical.xlsx,The target is tilted.,135,23,7,2,1,1,1,1,1,1,1,1,1,1,1,1,0,11,12,135,space,3.214770400000134,None,1,1,0.9040216999999302,None,space,1.1188933000000816,None,0,1,1,1,,,,,2,7,23,0,381.5311136,,,,,,,,,,,,,,,,,,,,,381.51569059999997,381.5311136,382.0148220000001,382.0197175999999,382.03827249999995,382.9489261000001,,,,,382.94913369999995,382.9641372000001,383.1641221,383.1482979,382.03827249999995,,,,,,,,1,1,0.9040216999999302,None,,,,,,,,834,18,M,R,2026-02-25_11h16.12.023,VisualSearch_2526_3,,2025.2.4,2026-02-25 11h16.12.264047 +0100,
vertical.xlsx,The target is tilted.,135,24,0,3,0,0,0,0,0,0,0,0,0,0,0,0,1,1,1,135,space,3.214770400000134,None,0,1,0.5304817999999614,None,space,1.1188933000000816,None,0,1,1,1,,,,,3,0,24,7,383.1641221,,,,,,,,,,,,,,,,,,,,,383.1490679000001,383.1641221,383.6478546000001,383.65285330000006,383.6693081000001,384.2149918,,,,,384.21518289999995,384.2305550000001,384.4310094,384.4145558,383.6693081000001,,,,,,,,0,1,0.5304817999999614,None,,,,,,,,834,18,M,R,2026-02-25_11h16.12.023,VisualSearch_2526_3,,2025.2.4,2026-02-25 11h16.12.264047 +0100,
vertical.xlsx,The target is tilted.,135,25,1,3,1,1,1,1,1,1,1,1,1,1,1,1,0,11,12,135,space,3.214770400000134,None,1,1,0.7553219999999783,None,space,1.1188933000000816,None,0,1,1,1,,,,,3,1,25,0,384.4310094,,,,,,,,,,,,,,,,,,,,,384.41540839999993,384.4310094,384.91453120000006,384.91985550000004,384.93747699999994,385.6983318,,,,,385.69852519999995,385.713655,385.9135876,385.89744010000004,384.93747699999994,,,,,,,,1,1,0.7553219999999783,None,,,,,,,,834,18,M,R,2026-02-25_11h16.12.023,VisualSearch_2526_3,,2025.2.4,2026-02-25 11h16.12.264047 +0100,
vertical.xlsx,The target is tilted.,135,26,2,3,1,1,1,1,0,0,0,0,0,0,0,0,0,3,4,135,space,3.214770400000134,None,1,1,0.49552879999987454,None,space,1.1188933000000816,None,0,1,1,1,,,,,3,2,26,2,385.9135876,,,,,,,,,,,,,,,,,,,,,385.8981196,385.9135876,386.39753070000006,386.4023566999999,386.4188741999999,386.93159360000004,,,,,386.93179050000003,386.9467675000001,387.1470637,387.1308466999999,386.4188741999999,,,,,,,,1,1,0.49552879999987454,None,,,,,,,,834,18,M,R,2026-02-25_11h16.12.023,VisualSearch_2526_3,,2025.2.4,2026-02-25 11h16.12.264047 +0100,
vertical.xlsx,The target is tilted.,135,27,3,3,1,1,1,1,1,1,1,1,0,0,0,0,0,7,8,135,space,3.214770400000134,None,1,1,0.6141347999998743,None,space,1.1188933000000816,None,0,1,1,1,,,,,3,3,27,1,387.1470637,,,,,,,,,,,,,,,,,,,,,387.1315698000001,387.1470637,387.6311519000001,387.6361572999999,387.6534180000001,388.2812371,,,,,388.28142980000007,388.2967610999999,388.4969390000001,388.4808123,387.6534180000001,,,,,,,,1,1,0.6141347999998743,None,,,,,,,,834,18,M,R,2026-02-25_11h16.12.023,VisualSearch_2526_3,,2025.2.4,2026-02-25 11h16.12.264047 +0100,
vertical.xlsx,The target is tilted.,135,28,4,3,0,1,1,1,1,1,1,1,1,1,1,1,1,11,12,135,space,3.214770400000134,None,0,1,1.192451400000209,None,space,1.1188933000000816,None,0,1,1,1,,,,,3,4,28,4,388.4969390000001,,,,,,,,,,,,,,,,,,,,,388.48152189999996,388.4969390000001,388.98075900000003,388.9853015000001,389.0036353999999,390.1975417000001,,,,,390.1977199999999,390.2132145999999,390.412918,390.396786,389.0036353999999,,,,,,,,0,1,1.192451400000209,None,,,,,,,,834,18,M,R,2026-02-25_11h16.12.023,VisualSearch_2526_3,,2025.2.4,2026-02-25 11h16.12.264047 +0100,
vertical.xlsx,The target is tilted.,135,29,5,3,0,1,1,1,0,0,0,0,0,0,0,0,1,3,4,135,space,3.214770400000134,None,0,1,0.6226819000000887,None,space,1.1188933000000816,None,0,1,1,1,,,,,3,5,29,6,390.412918,,,,,,,,,,,,,,,,,,,,,390.3975204000001,390.412918,390.8967201999999,390.90136140000004,390.9179615999999,391.5473459,,,,,391.54752170000006,391.5629338000001,391.7630853999999,391.74684849999994,390.9179615999999,,,,,,,,0,1,0.6226819000000887,None,,,,,,,,834,18,M,R,2026-02-25_11h16.12.023,VisualSearch_2526_3,,2025.2.4,2026-02-25 11h16.12.264047 +0100,
vertical.xlsx,The target is tilted.,135,30,6,3,0,1,1,1,1,1,1,1,0,0,0,0,1,7,8,135,space,3.214770400000134,None,0,1,0.9535541000000194,None,space,1.1188933000000816,None,0,1,1,1,,,,,3,6,30,5,391.7630853999999,,,,,,,,,,,,,,,,,,,,,391.7476004,391.7630853999999,392.24678259999996,392.2514225,392.26893599999994,393.2301408000001,,,,,393.2303356,393.2461066000001,393.44594499999994,393.4300782,392.26893599999994,,,,,,,,0,1,0.9535541000000194,None,,,,,,,,834,18,M,R,2026-02-25_11h16.12.023,VisualSearch_2526_3,,2025.2.4,2026-02-25 11h16.12.264047 +0100,
vertical.xlsx,The target is tilted.,135,31,7,3,1,0,0,0,0,0,0,0,0,0,0,0,0,0,1,135,space,3.214770400000134,None,1,1,0.5652204000000438,None,space,1.1188933000000816,None,0,1,1,1,,,,,3,7,31,3,393.44594499999994,,,,,,,,,,,,,,,,,,,,,393.43090269999993,393.44594499999994,393.9301032999999,393.9351601999999,393.9502434000001,394.53034879999996,,,,,394.53055130000007,394.54552409999997,394.7458609,394.72973709999997,393.9502434000001,,,,,,,,1,1,0.5652204000000438,None,,,,,,,,834,18,M,R,2026-02-25_11h16.12.023,VisualSearch_2526_3,,2025.2.4,2026-02-25 11h16.12.264047 +0100,
vertical.xlsx,The target is tilted.,135,32,0,4,1,0,0,0,0,0,0,0,0,0,0,0,0,0,1,135,space,3.214770400000134,None,1,1,0.43358499999999367,None,space,1.1188933000000816,None,0,1,1,1,,,,,4,0,32,3,394.7458609,,,,,,,,,,,,,,,,,,,,,394.73044600000003,394.7458609,395.2296180999999,395.2343065,395.25049409999997,395.696784,,,,,395.6969772,395.71208550000006,395.9125171999999,395.8961356,395.25049409999997,,,,,,,,1,1,0.43358499999999367,None,,,,,,,,834,18,M,R,2026-02-25_11h16.12.023,VisualSearch_2526_3,,2025.2.4,2026-02-25 11h16.12.264047 +0100,
vertical.xlsx,The target is tilted.,135,33,1,4,1,1,1,1,1,1,1,1,0,0,0,0,0,7,8,135,space,3.214770400000134,None,1,1,0.5062162000001535,None,space,1.1188933000000816,None,0,1,1,1,,,,,4,1,33,1,395.9125171999999,,,,,,,,,,,,,,,,,,,,,395.89698369999996,395.9125171999999,396.39606679999997,396.4019432,396.4201765,396.9297604000001,,,,,396.9299579000001,396.9453977999999,397.14548179999997,397.1294969999999,396.4201765,,,,,,,,1,1,0.5062162000001535,None,,,,,,,,834,18,M,R,2026-02-25_11h16.12.023,VisualSearch_2526_3,,2025.2.4,2026-02-25 11h16.12.264047 +0100,
vertical.xlsx,The target is tilted.,135,34,2,4,0,1,1,1,0,0,0,0,0,0,0,0,1,3,4,135,space,3.214770400000134,None,0,1,0.8734383000000889,None,space,1.1188933000000816,None,0,1,1,1,,,,,4,2,34,6,397.14548179999997,,,,,,,,,,,,,,,,,,,,,397.1303230000001,397.14548179999997,397.62934930000006,397.63459940000007,397.6517566,398.5294225,,,,,398.5296166999999,398.5451094,398.7452304000001,398.7289740000001,397.6517566,,,,,,,,0,1,0.8734383000000889,None,,,,,,,,834,18,M,R,2026-02-25_11h16.12.023,VisualSearch_2526_3,,2025.2.4,2026-02-25 11h16.12.264047 +0100,
vertical.xlsx,The target is tilted.,135,35,3,4,0,0,0,0,0,0,0,0,0,0,0,0,1,1,1,135,space,3.214770400000134,None,0,1,0.45120780000002014,None,space,1.1188933000000816,None,0,1,1,1,,,,,4,3,35,7,398.7452304000001,,,,,,,,,,,,,,,,,,,,,398.72982679999996,398.7452304000001,399.2291103,399.2342837000001,399.2508779,399.71262049999996,,,,,399.71327930000007,399.72812799999997,399.92833599999994,399.9121874,399.2508779,,,,,,,,0,1,0.45120780000002014,None,,,,,,,,834,18,M,R,2026-02-25_11h16.12.023,VisualSearch_2526_3,,2025.2.4,2026-02-25 11h16.12.264047 +0100,
vertical.xlsx,The target is tilted.,135,36,4,4,0,1,1,1,1,1,1,1,1,1,1,1,1,11,12,135,space,3.214770400000134,None,0,1,1.596461300000101,None,space,1.1188933000000816,None,0,1,1,1,,,,,4,4,36,4,399.92833599999994,,,,,,,,,,,,,,,,,,,,,399.91298729999994,399.92833599999994,400.41166539999995,400.41633709999996,400.4323234000001,402.0450186999999,,,,,402.0451014,402.06103770000004,402.26109870000005,402.24501110000006,400.4323234000001,,,,,,,,0,1,1.596461300000101,None,,,,,,,,834,18,M,R,2026-02-25_11h16.12.023,VisualSearch_2526_3,,2025.2.4,2026-02-25 11h16.12.264047 +0100,
