file_name,block_instructions,target_example,thisN,thisTrialN,thisRepN,target_presence,opacity_1,opacity_2,opacity_3,opacity_4,opacity_5,opacity_6,opacity_7,opacity_8,opacity_9,opacity_10,opacity_11,opacity_12,n_distract,n_items,target_ori,key_resp_4.keys,key_resp_4.rt,key_resp_4.duration,key_resp.keys,key_resp.corr,key_resp.rt,key_resp.duration,key_resp_5.keys,key_resp_5.rt,key_resp_5.duration,blocks.thisRepN,blocks.thisTrialN,blocks.thisN,blocks.thisIndex,practice_trials.thisRepN,practice_trials.thisTrialN,practice_trials.thisN,practice_trials.thisIndex,trials.thisRepN,trials.thisTrialN,trials.thisN,trials.thisIndex,thisRow.t,notes,Welcome.started,WelcomeText.started,key_resp_2.started,Welcome.stopped,key_resp_2.keys,key_resp_2.rt,key_resp_2.duration,InformedConsent.started,text_4.started,InformedConsent.stopped,key_resp_6.keys,key_resp_6.rt,key_resp_6.duration,key_resp_4.started,example_target.started,text_3.started,blocks.key_resp_4.keys,blocks.key_resp_4.rt,blocks.key_resp_4.duration,FixCross.started,fixCross.started,FixCross.stopped,Stimulus.started,key_resp.started,Stimulus.stopped,practice_trials.key_resp.keys,practice_trials.key_resp.corr,practice_trials.key_resp.rt,practice_trials.key_resp.duration,BlankScreen.started,text.started,text.stopped,BlankScreen.stopped,fixCross.stopped,ExperimentStart.started,text_2.started,key_resp_5.started,ExperimentStart.stopped,blocks.key_resp_5.keys,blocks.key_resp_5.rt,blocks.key_resp_5.duration,trials.key_resp.keys,trials.key_resp.corr,trials.key_resp.rt,trials.key_resp.duration,Thanks.started,ThankYou.started,key_resp_3.started,Thanks.stopped,key_resp_3.keys,key_resp_3.rt,key_resp_3.duration,participant,leeftijd,gender,links/rechtshandig,date,expName,expVersion,psychopyVersion,expStart,
,,,,,,,,,,,,,,,,,,,,,,,,,,,,,,,,,,,,,,,,,,,,,,0.02434769999990749,0.05377459999999701,0.05377459999999701,23.85092880000002,space,23.772714499999893,None,,,,,,,,,,,,,,,,,,,,,,,,,,,,,,,,,,,,,,,,,,,,,,835,22,V,R,2026-02-25_11h28.11.682,VisualSearch_2526_3,,2025.2.4,2026-02-25 11h28.11.910115 +0100,
,,,,,,,,,,,,,,,,,,,,,,,,,,,,,,,,,,,,,,,,,,,,,,,,,,,,,23.85102229999984,23.858101599999827,27.702825500000017,y,3.8489746000000196,None,,,,,,,,,,,,,,,,,,,,,,,,,,,,,,,,,,,,,,,,835,22,V,R,2026-02-25_11h28.11.682,VisualSearch_2526_3,,2025.2.4,2026-02-25 11h28.11.910115 +0100,
vertical.xlsx,The target is tilted.,135,0,0,0,1,1,1,1,1,1,1,1,1,1,1,1,0,11,12,135,space,5.334627499999897,None,0,0,0.8875981999999567,None,,,,0,0,0,1,0,0,0,0,,,,,33.1042610999998,,,,,,,,,,,,,,,27.745500699999866,27.745500699999866,27.745500699999866,space,5.334627499999897,None,33.09952780000003,33.1042610999998,33.60046659999989,33.6059766999997,33.623892899999646,34.51777029999994,0,0,0.8875981999999567,None,34.51796179999974,34.53324909999992,34.73334859999977,34.71730119999984,,,,,,,,,,,,,,,,,,,,835,22,V,R,2026-02-25_11h28.11.682,VisualSearch_2526_3,,2025.2.4,2026-02-25 11h28.11.910115 +0100,
vertical.xlsx,The target is tilted.,135,1,1,0,0,1,1,1,1,1,1,1,0,0,0,0,1,7,8,135,space,5.334627499999897,None,0,1,1.054490800000167,None,,,,0,0,0,1,0,1,1,5,,,,,34.73334859999977,,,,,,,,,,,,,,,,,,,,,34.718079699999635,34.73334859999977,35.21701209999992,35.22247379999999,35.2401547999998,36.30073549999997,0,1,1.054490800000167,None,36.300923899999816,36.31587199999967,36.515936699999656,36.500005399999736,35.2401547999998,,,,,,,,,,,,,,,,,,,835,22,V,R,2026-02-25_11h28.11.682,VisualSearch_2526_3,,2025.2.4,2026-02-25 11h28.11.910115 +0100,
vertical.xlsx,The target is tilted.,135,2,2,0,1,1,1,1,0,0,0,0,0,0,0,0,0,3,4,135,space,5.334627499999897,None,0,0,0.5338899999997011,None,,,,0,0,0,1,0,2,2,2,,,,,36.515936699999656,,,,,,,,,,,,,,,,,,,,,36.500674799999615,36.515936699999656,37.00015789999998,37.00480159999961,37.021537499999795,37.567296499999884,0,0,0.5338899999997011,None,37.56743899999992,37.58224229999996,37.78242309999996,37.76687099999981,37.021537499999795,,,,,,,,,,,,,,,,,,,835,22,V,R,2026-02-25_11h28.11.682,VisualSearch_2526_3,,2025.2.4,2026-02-25 11h28.11.910115 +0100,
vertical.xlsx,The target is tilted.,135,3,3,0,1,1,1,1,1,1,1,1,0,0,0,0,0,7,8,135,space,5.334627499999897,None,1,1,0.9468385999998645,None,,,,0,0,0,1,0,3,3,1,,,,,37.78242309999996,,,,,,,,,,,,,,,,,,,,,37.76756939999996,37.78242309999996,38.26678619999984,38.272082599999976,38.289370099999815,39.24968499999977,1,1,0.9468385999998645,None,39.2498714999997,39.265164299999924,39.465846000000056,39.44984449999993,38.289370099999815,,,,,,,,,,,,,,,,,,,835,22,V,R,2026-02-25_11h28.11.682,VisualSearch_2526_3,,2025.2.4,2026-02-25 11h28.11.910115 +0100,
vertical.xlsx,The target is tilted.,135,4,4,0,1,0,0,0,0,0,0,0,0,0,0,0,0,0,1,135,space,5.334627499999897,None,1,1,0.44729340000003504,None,,,,0,0,0,1,0,4,4,3,,,,,39.465846000000056,,,,,,,,,,,,,,,,,,,,,39.45054719999962,39.465846000000056,39.94931049999968,39.954159699999764,39.97130079999988,40.43289619999996,1,1,0.44729340000003504,None,40.43308839999963,40.44849279999971,40.649006799999825,40.63266799999974,39.97130079999988,,,,,,,,,,,,,,,,,,,835,22,V,R,2026-02-25_11h28.11.682,VisualSearch_2526_3,,2025.2.4,2026-02-25 11h28.11.910115 +0100,
vertical.xlsx,The target is tilted.,135,5,5,0,0,1,1,1,1,1,1,1,1,1,1,1,1,11,12,135,space,5.334627499999897,None,0,1,1.5600607000001219,None,,,,0,0,0,1,0,5,5,4,,,,,40.649006799999825,,,,,,,,,,,,,,,,,,,,,40.633341299999756,40.649006799999825,41.13268429999971,41.138004999999794,41.15525039999966,42.716350299999704,0,1,1.5600607000001219,None,42.71652489999997,42.73140220000005,42.93151880000005,42.91568329999973,41.15525039999966,,,,,,,,,,,,,,,,,,,835,22,V,R,2026-02-25_11h28.11.682,VisualSearch_2526_3,,2025.2.4,2026-02-25 11h28.11.910115 +0100,
vertical.xlsx,The target is tilted.,135,6,6,0,0,0,0,0,0,0,0,0,0,0,0,0,1,1,1,135,space,5.334627499999897,None,0,1,0.5172736999998051,None,,,,0,0,0,1,0,6,6,7,,,,,42.93151880000005,,,,,,,,,,,,,,,,,,,,,42.9163924999998,42.93151880000005,43.41575990000001,43.42044999999962,43.43863969999984,43.966195199999675,0,1,0.5172736999998051,None,43.966384299999845,43.98123039999973,44.181329000000005,44.16526049999993,43.43863969999984,,,,,,,,,,,,,,,,,,,835,22,V,R,2026-02-25_11h28.11.682,VisualSearch_2526_3,,2025.2.4,2026-02-25 11h28.11.910115 +0100,
vertical.xlsx,The target is tilted.,135,7,7,0,0,1,1,1,0,0,0,0,0,0,0,0,1,3,4,135,space,5.334627499999897,None,0,1,0.8980038999998214,None,,,,0,0,0,1,0,7,7,6,,,,,44.181329000000005,,,,,,,,,,,,,,,,,,,,,44.16595909999978,44.181329000000005,44.665697499999624,44.6706664999997,44.68103489999976,45.58248159999994,0,1,0.8980038999998214,None,45.58266959999992,45.597630899999785,45.79775149999978,45.781613899999684,44.68103489999976,,,,,,,,,,,,,,,,,,,835,22,V,R,2026-02-25_11h28.11.682,VisualSearch_2526_3,,2025.2.4,2026-02-25 11h28.11.910115 +0100,
vertical.xlsx,The target is tilted.,135,0,0,0,0,1,1,1,1,1,1,1,0,0,0,0,1,7,8,135,space,5.334627499999897,None,0,1,0.8708382999998321,None,space,2.5520046000001457,None,0,0,0,1,,,,,0,0,0,5,48.40067009999984,,,,,,,,,,,,,,,,,,,,,48.39683749999995,48.40067009999984,48.8810125,48.88698669999985,48.90274529999988,49.781271099999685,,,,,49.78142449999996,49.79685139999992,49.99741919999997,49.981146999999964,,45.78892649999989,45.79775149999978,45.79775149999978,48.364902999999686,space,2.5520046000001457,None,0,1,0.8708382999998321,None,,,,,,,,835,22,V,R,2026-02-25_11h28.11.682,VisualSearch_2526_3,,2025.2.4,2026-02-25 11h28.11.910115 +0100,
vertical.xlsx,The target is tilted.,135,1,1,0,1,1,1,1,1,1,1,1,0,0,0,0,0,7,8,135,space,5.334627499999897,None,1,1,1.0647506000000249,None,space,2.5520046000001457,None,0,0,0,1,,,,,0,1,1,1,49.99741919999997,,,,,,,,,,,,,,,,,,,,,49.981910699999844,49.99741919999997,50.48114409999971,50.486615699999675,50.50337249999984,51.58085749999964,,,,,51.58105369999976,51.59645879999971,51.79704589999983,51.78085439999995,50.50337249999984,,,,,,,,1,1,1.0647506000000249,None,,,,,,,,835,22,V,R,2026-02-25_11h28.11.682,VisualSearch_2526_3,,2025.2.4,2026-02-25 11h28.11.910115 +0100,
vertical.xlsx,The target is tilted.,135,2,2,0,1,1,1,1,1,1,1,1,1,1,1,1,0,11,12,135,space,5.334627499999897,None,1,1,1.4178669000002628,None,space,2.5520046000001457,None,0,0,0,1,,,,,0,2,2,0,51.79704589999983,,,,,,,,,,,,,,,,,,,,,51.781626499999675,51.79704589999983,52.281006199999865,52.28645319999987,52.303872299999966,53.731138499999815,,,,,53.73131729999977,53.746199799999886,53.9467711999996,53.930665899999894,52.303872299999966,,,,,,,,1,1,1.4178669000002628,None,,,,,,,,835,22,V,R,2026-02-25_11h28.11.682,VisualSearch_2526_3,,2025.2.4,2026-02-25 11h28.11.910115 +0100,
vertical.xlsx,The target is tilted.,135,3,3,0,0,1,1,1,0,0,0,0,0,0,0,0,1,3,4,135,space,5.334627499999897,None,0,1,0.6432462000002488,None,space,2.5520046000001457,None,0,0,0,1,,,,,0,3,3,6,53.9467711999996,,,,,,,,,,,,,,,,,,,,,53.9314003999998,53.9467711999996,54.43056909999996,54.43533669999988,54.45028119999961,55.09722369999963,,,,,55.0974056,55.1127905999997,55.31315759999961,55.29695240000001,54.45028119999961,,,,,,,,0,1,0.6432462000002488,None,,,,,,,,835,22,V,R,2026-02-25_11h28.11.682,VisualSearch_2526_3,,2025.2.4,2026-02-25 11h28.11.910115 +0100,
vertical.xlsx,The target is tilted.,135,4,4,0,0,1,1,1,1,1,1,1,1,1,1,1,1,11,12,135,space,5.334627499999897,None,0,1,1.1405085999999756,None,space,2.5520046000001457,None,0,0,0,1,,,,,0,4,4,4,55.31315759999961,,,,,,,,,,,,,,,,,,,,,55.29768719999993,55.31315759999961,55.796799400000054,55.80159119999962,55.81293609999966,56.96398429999999,,,,,56.964185299999826,56.97900230000005,57.17955869999969,57.163184699999874,55.81293609999966,,,,,,,,0,1,1.1405085999999756,None,,,,,,,,835,22,V,R,2026-02-25_11h28.11.682,VisualSearch_2526_3,,2025.2.4,2026-02-25 11h28.11.910115 +0100,
vertical.xlsx,The target is tilted.,135,5,5,0,0,0,0,0,0,0,0,0,0,0,0,0,1,1,1,135,space,5.334627499999897,None,0,1,0.4246926999999232,None,space,2.5520046000001457,None,0,0,0,1,,,,,0,5,5,7,57.17955869999969,,,,,,,,,,,,,,,,,,,,,57.1638439999997,57.17955869999969,57.66321449999987,57.66797019999967,57.684870000000046,58.11334549999992,,,,,58.11352459999989,58.12878349999983,58.32932039999969,58.31304939999973,57.684870000000046,,,,,,,,0,1,0.4246926999999232,None,,,,,,,,835,22,V,R,2026-02-25_11h28.11.682,VisualSearch_2526_3,,2025.2.4,2026-02-25 11h28.11.910115 +0100,
vertical.xlsx,The target is tilted.,135,6,6,0,1,0,0,0,0,0,0,0,0,0,0,0,0,0,1,135,space,5.334627499999897,None,1,1,0.48718289999987974,None,space,2.5520046000001457,None,0,0,0,1,,,,,0,6,6,3,58.32932039999969,,,,,,,,,,,,,,,,,,,,,58.31379549999974,58.32932039999969,58.812963800000034,58.81765019999966,58.836105999999745,59.33027719999973,,,,,59.33047549999992,59.3452714,59.54539079999995,59.5294372999997,58.836105999999745,,,,,,,,1,1,0.48718289999987974,None,,,,,,,,835,22,V,R,2026-02-25_11h28.11.682,VisualSearch_2526_3,,2025.2.4,2026-02-25 11h28.11.910115 +0100,
vertical.xlsx,The target is tilted.,135,7,7,0,1,1,1,1,0,0,0,0,0,0,0,0,0,3,4,135,space,5.334627499999897,None,1,1,0.6760145000002922,None,space,2.5520046000001457,None,0,0,0,1,,,,,0,7,7,2,59.54539079999995,,,,,,,,,,,,,,,,,,,,,59.53004769999961,59.54539079999995,60.02930659999993,60.03399939999963,60.045015899999726,60.73011419999966,,,,,60.73035159999972,60.74502709999979,60.94536599999992,60.92921099999967,60.045015899999726,,,,,,,,1,1,0.6760145000002922,None,,,,,,,,835,22,V,R,2026-02-25_11h28.11.682,VisualSearch_2526_3,,2025.2.4,2026-02-25 11h28.11.910115 +0100,
vertical.xlsx,The target is tilted.,135,8,0,1,1,1,1,1,0,0,0,0,0,0,0,0,0,3,4,135,space,5.334627499999897,None,1,1,0.5364069000002019,None,space,2.5520046000001457,None,0,0,0,1,,,,,1,0,8,2,60.94536599999992,,,,,,,,,,,,,,,,,,,,,60.92994339999996,60.94536599999992,61.42960389999962,61.43506769999976,61.45250689999966,61.99635169999965,,,,,61.99653339999986,62.01132749999988,62.211759899999834,62.19564649999984,61.45250689999966,,,,,,,,1,1,0.5364069000002019,None,,,,,,,,835,22,V,R,2026-02-25_11h28.11.682,VisualSearch_2526_3,,2025.2.4,2026-02-25 11h28.11.910115 +0100,
vertical.xlsx,The target is tilted.,135,9,1,1,0,1,1,1,1,1,1,1,1,1,1,1,1,11,12,135,space,5.334627499999897,None,0,1,1.7552378000000317,None,space,2.5520046000001457,None,0,0,0,1,,,,,1,1,9,4,62.211759899999834,,,,,,,,,,,,,,,,,,,,,62.19640429999981,62.211759899999834,62.69596129999991,62.70151119999991,62.71698900000001,64.47847950000005,,,,,64.4785837999998,64.49415869999984,64.6949510999998,64.67883579999989,62.71698900000001,,,,,,,,0,1,1.7552378000000317,None,,,,,,,,835,22,V,R,2026-02-25_11h28.11.682,VisualSearch_2526_3,,2025.2.4,2026-02-25 11h28.11.910115 +0100,
vertical.xlsx,The target is tilted.,135,10,2,1,1,0,0,0,0,0,0,0,0,0,0,0,0,0,1,135,space,5.334627499999897,None,1,1,0.5257609999998749,None,space,2.5520046000001457,None,0,0,0,1,,,,,1,2,10,3,64.6949510999998,,,,,,,,,,,,,,,,,,,,,64.67955209999991,64.6949510999998,65.17885320000005,65.18408509999972,65.20206289999987,65.72919559999991,,,,,65.72940999999992,65.74419929999976,65.94469869999966,65.92802759999995,65.20206289999987,,,,,,,,1,1,0.5257609999998749,None,,,,,,,,835,22,V,R,2026-02-25_11h28.11.682,VisualSearch_2526_3,,2025.2.4,2026-02-25 11h28.11.910115 +0100,
vertical.xlsx,The target is tilted.,135,11,3,1,1,1,1,1,1,1,1,1,0,0,0,0,0,7,8,135,space,5.334627499999897,None,1,1,0.6933273000004192,None,space,2.5520046000001457,None,0,0,0,1,,,,,1,3,11,1,65.94469869999966,,,,,,,,,,,,,,,,,,,,,65.92870839999978,65.94469869999966,66.42874009999969,66.43403129999979,66.45131489999994,67.16121290000001,,,,,67.16133619999982,67.17710679999982,67.37786689999984,67.36164389999976,66.45131489999994,,,,,,,,1,1,0.6933273000004192,None,,,,,,,,835,22,V,R,2026-02-25_11h28.11.682,VisualSearch_2526_3,,2025.2.4,2026-02-25 11h28.11.910115 +0100,
vertical.xlsx,The target is tilted.,135,12,4,1,0,0,0,0,0,0,0,0,0,0,0,0,1,1,1,135,space,5.334627499999897,None,0,1,0.47067329999981666,None,space,2.5520046000001457,None,0,0,0,1,,,,,1,4,12,7,67.37786689999984,,,,,,,,,,,,,,,,,,,,,67.36240090000001,67.37786689999984,67.86140369999976,67.86652179999965,67.88316339999983,68.36212099999966,,,,,68.36231950000001,68.37711349999972,68.57755029999998,68.56130529999973,67.88316339999983,,,,,,,,0,1,0.47067329999981666,None,,,,,,,,835,22,V,R,2026-02-25_11h28.11.682,VisualSearch_2526_3,,2025.2.4,2026-02-25 11h28.11.910115 +0100,
vertical.xlsx,The target is tilted.,135,13,5,1,0,1,1,1,0,0,0,0,0,0,0,0,1,3,4,135,space,5.334627499999897,None,0,1,0.6374477000003935,None,space,2.5520046000001457,None,0,0,0,1,,,,,1,5,13,6,68.57755029999998,,,,,,,,,,,,,,,,,,,,,68.56203489999962,68.57755029999998,69.06152179999981,69.0664084,69.07745709999972,69.72774369999979,,,,,69.72791039999993,69.74336549999998,69.94384760000003,69.92772519999971,69.07745709999972,,,,,,,,0,1,0.6374477000003935,None,,,,,,,,835,22,V,R,2026-02-25_11h28.11.682,VisualSearch_2526_3,,2025.2.4,2026-02-25 11h28.11.910115 +0100,
vertical.xlsx,The target is tilted.,135,14,6,1,0,1,1,1,1,1,1,1,0,0,0,0,1,7,8,135,space,5.334627499999897,None,0,1,0.9211851000000024,None,space,2.5520046000001457,None,0,0,0,1,,,,,1,6,14,5,69.94384760000003,,,,,,,,,,,,,,,,,,,,,69.9284318,69.94384760000003,70.42765699999973,70.43303219999962,70.44328309999992,71.3774172999997,,,,,71.37758229999963,71.39312849999988,71.59371389999978,71.57748379999975,70.44328309999992,,,,,,,,0,1,0.9211851000000024,None,,,,,,,,835,22,V,R,2026-02-25_11h28.11.682,VisualSearch_2526_3,,2025.2.4,2026-02-25 11h28.11.910115 +0100,
vertical.xlsx,The target is tilted.,135,15,7,1,1,1,1,1,1,1,1,1,1,1,1,1,0,11,12,135,space,5.334627499999897,None,1,1,0.7708628000000317,None,space,2.5520046000001457,None,0,0,0,1,,,,,1,7,15,0,71.59371389999978,,,,,,,,,,,,,,,,,,,,,71.5782079999999,71.59371389999978,72.07711449999988,72.08152810000001,72.09781499999963,72.87804770000002,,,,,72.87824509999973,72.89299389999996,73.09345559999974,73.0775034999997,72.09781499999963,,,,,,,,1,1,0.7708628000000317,None,,,,,,,,835,22,V,R,2026-02-25_11h28.11.682,VisualSearch_2526_3,,2025.2.4,2026-02-25 11h28.11.910115 +0100,
vertical.xlsx,The target is tilted.,135,16,0,2,1,1,1,1,1,1,1,1,0,0,0,0,0,7,8,135,space,5.334627499999897,None,0,0,1.0480416999998852,None,space,2.5520046000001457,None,0,0,0,1,,,,,2,0,16,1,73.09345559999974,,,,,,,,,,,,,,,,,,,,,73.07828149999978,73.09345559999974,73.57739879999963,73.58204479999995,73.59338539999999,74.64442569999983,,,,,74.6446262999998,74.6593757999999,74.85977299999968,74.84316969999963,73.59338539999999,,,,,,,,0,0,1.0480416999998852,None,,,,,,,,835,22,V,R,2026-02-25_11h28.11.682,VisualSearch_2526_3,,2025.2.4,2026-02-25 11h28.11.910115 +0100,
vertical.xlsx,The target is tilted.,135,17,1,2,1,1,1,1,0,0,0,0,0,0,0,0,0,3,4,135,space,5.334627499999897,None,1,1,0.632576599999993,None,space,2.5520046000001457,None,0,0,0,1,,,,,2,1,17,2,74.85977299999968,,,,,,,,,,,,,,,,,,,,,74.84362429999965,74.85977299999968,75.34379339999987,75.34896939999999,75.36529759999985,76.05162259999997,,,,,76.05172809999976,76.05470549999973,76.25973309999972,76.24341419999973,75.36529759999985,,,,,,,,1,1,0.632576599999993,None,,,,,,,,835,22,V,R,2026-02-25_11h28.11.682,VisualSearch_2526_3,,2025.2.4,2026-02-25 11h28.11.910115 +0100,
vertical.xlsx,The target is tilted.,135,18,2,2,0,1,1,1,1,1,1,1,1,1,1,1,1,11,12,135,space,5.334627499999897,None,0,1,1.4424794999999904,None,space,2.5520046000001457,None,0,0,0,1,,,,,2,2,18,4,76.25973309999972,,,,,,,,,,,,,,,,,,,,,76.24414999999999,76.25973309999972,76.74353089999977,76.74877349999997,76.76614359999985,78.21036289999984,,,,,78.2105474,78.22537369999964,78.42597889999979,78.40973970000005,76.76614359999985,,,,,,,,0,1,1.4424794999999904,None,,,,,,,,835,22,V,R,2026-02-25_11h28.11.682,VisualSearch_2526_3,,2025.2.4,2026-02-25 11h28.11.910115 +0100,
vertical.xlsx,The target is tilted.,135,19,3,2,1,1,1,1,1,1,1,1,1,1,1,1,0,11,12,135,space,5.334627499999897,None,1,1,1.5262195000000247,None,space,2.5520046000001457,None,0,0,0,1,,,,,2,3,19,0,78.42597889999979,,,,,,,,,,,,,,,,,,,,,78.41049769999972,78.42597889999979,78.91000519999989,78.91521650000004,78.93230929999982,80.46008959999972,,,,,80.46027499999991,80.47502259999965,80.67567509999981,80.6593869999997,78.93230929999982,,,,,,,,1,1,1.5262195000000247,None,,,,,,,,835,22,V,R,2026-02-25_11h28.11.682,VisualSearch_2526_3,,2025.2.4,2026-02-25 11h28.11.910115 +0100,
vertical.xlsx,The target is tilted.,135,20,4,2,0,0,0,0,0,0,0,0,0,0,0,0,1,1,1,135,space,5.334627499999897,None,0,1,0.6627959000002193,None,space,2.5520046000001457,None,0,0,0,1,,,,,2,4,20,7,80.67567509999981,,,,,,,,,,,,,,,,,,,,,80.66015440000001,80.67567509999981,81.15913819999969,81.16403760000003,81.18142929999976,81.85940170000003,,,,,81.85958140000002,81.87484849999964,82.07530699999961,82.05906229999982,81.18142929999976,,,,,,,,0,1,0.6627959000002193,None,,,,,,,,835,22,V,R,2026-02-25_11h28.11.682,VisualSearch_2526_3,,2025.2.4,2026-02-25 11h28.11.910115 +0100,
vertical.xlsx,The target is tilted.,135,21,5,2,0,1,1,1,0,0,0,0,0,0,0,0,1,3,4,135,space,5.334627499999897,None,0,1,0.8613651000000573,None,space,2.5520046000001457,None,0,0,0,1,,,,,2,5,21,6,82.07530699999961,,,,,,,,,,,,,,,,,,,,,82.05980439999985,82.07530699999961,82.55823469999996,82.56130039999971,82.57464489999984,83.4424512999999,,,,,83.44264949999979,83.45793119999962,83.65840359999993,83.64192269999967,82.57464489999984,,,,,,,,0,1,0.8613651000000573,None,,,,,,,,835,22,V,R,2026-02-25_11h28.11.682,VisualSearch_2526_3,,2025.2.4,2026-02-25 11h28.11.910115 +0100,
vertical.xlsx,The target is tilted.,135,22,6,2,0,1,1,1,1,1,1,1,0,0,0,0,1,7,8,135,space,5.334627499999897,None,0,1,1.1117330000001857,None,space,2.5520046000001457,None,0,0,0,1,,,,,2,6,22,5,83.65840359999993,,,,,,,,,,,,,,,,,,,,,83.6429092999997,83.65840359999993,84.14131859999998,84.14404829999967,84.15762479999967,85.27533619999986,,,,,85.27554829999963,85.29089309999972,85.49132199999985,85.47526930000004,84.15762479999967,,,,,,,,0,1,1.1117330000001857,None,,,,,,,,835,22,V,R,2026-02-25_11h28.11.682,VisualSearch_2526_3,,2025.2.4,2026-02-25 11h28.11.910115 +0100,
vertical.xlsx,The target is tilted.,135,23,7,2,1,0,0,0,0,0,0,0,0,0,0,0,0,0,1,135,space,5.334627499999897,None,1,1,0.46020290000024033,None,space,2.5520046000001457,None,0,0,0,1,,,,,2,7,23,3,85.49132199999985,,,,,,,,,,,,,,,,,,,,,85.47603549999985,85.49132199999985,85.97516329999962,85.9800679,85.99510809999992,86.45856869999989,,,,,86.45873449999999,86.47398799999974,86.67459949999966,86.6584783999997,85.99510809999992,,,,,,,,1,1,0.46020290000024033,None,,,,,,,,835,22,V,R,2026-02-25_11h28.11.682,VisualSearch_2526_3,,2025.2.4,2026-02-25 11h28.11.910115 +0100,
vertical.xlsx,The target is tilted.,135,24,0,3,0,1,1,1,0,0,0,0,0,0,0,0,1,3,4,135,space,5.334627499999897,None,0,1,0.6574327999996967,None,space,2.5520046000001457,None,0,0,0,1,,,,,3,0,24,6,86.67459949999966,,,,,,,,,,,,,,,,,,,,,86.65919499999973,86.67459949999966,87.1584401,87.16310499999963,87.17900340000006,87.84164809999993,,,,,87.8418302,87.85723619999999,88.05735419999974,88.04172249999965,87.17900340000006,,,,,,,,0,1,0.6574327999996967,None,,,,,,,,835,22,V,R,2026-02-25_11h28.11.682,VisualSearch_2526_3,,2025.2.4,2026-02-25 11h28.11.910115 +0100,
vertical.xlsx,The target is tilted.,135,25,1,3,1,1,1,1,1,1,1,1,0,0,0,0,0,7,8,135,space,5.334627499999897,None,1,1,0.7624102999998286,None,space,2.5520046000001457,None,0,0,0,1,,,,,3,1,25,1,88.05735419999974,,,,,,,,,,,,,,,,,,,,,88.04247829999986,88.05735419999974,88.5417453,88.5469576999999,88.56357630000002,89.34125409999979,,,,,89.34145179999996,89.35686179999993,89.55716859999984,89.5409926999996,88.56357630000002,,,,,,,,1,1,0.7624102999998286,None,,,,,,,,835,22,V,R,2026-02-25_11h28.11.682,VisualSearch_2526_3,,2025.2.4,2026-02-25 11h28.11.910115 +0100,
vertical.xlsx,The target is tilted.,135,26,2,3,1,1,1,1,0,0,0,0,0,0,0,0,0,3,4,135,space,5.334627499999897,None,1,1,0.5038965000003373,None,space,2.5520046000001457,None,0,0,0,1,,,,,3,2,26,2,89.55716859999984,,,,,,,,,,,,,,,,,,,,,89.54175399999986,89.55716859999984,90.04096209999989,90.04587189999984,90.06281379999973,90.57487159999982,,,,,90.57508159999998,90.59037979999994,90.79062509999994,90.77433419999988,90.06281379999973,,,,,,,,1,1,0.5038965000003373,None,,,,,,,,835,22,V,R,2026-02-25_11h28.11.682,VisualSearch_2526_3,,2025.2.4,2026-02-25 11h28.11.910115 +0100,
vertical.xlsx,The target is tilted.,135,27,3,3,1,1,1,1,1,1,1,1,1,1,1,1,0,11,12,135,space,5.334627499999897,None,1,1,0.738466199999948,None,space,2.5520046000001457,None,0,0,0,1,,,,,3,3,27,0,90.79062509999994,,,,,,,,,,,,,,,,,,,,,90.77510279999979,90.79062509999994,91.27433639999981,91.27908690000004,91.2949953999996,92.04151769999999,,,,,92.04171459999998,92.0564774999998,92.25664259999985,92.24039670000002,91.2949953999996,,,,,,,,1,1,0.738466199999948,None,,,,,,,,835,22,V,R,2026-02-25_11h28.11.682,VisualSearch_2526_3,,2025.2.4,2026-02-25 11h28.11.910115 +0100,
vertical.xlsx,The target is tilted.,135,28,4,3,0,0,0,0,0,0,0,0,0,0,0,0,1,1,1,135,space,5.334627499999897,None,0,1,0.472892100000081,None,space,2.5520046000001457,None,0,0,0,1,,,,,3,4,28,7,92.25664259999985,,,,,,,,,,,,,,,,,,,,,92.24108299999989,92.25664259999985,92.74106869999969,92.74594989999969,92.7565182999997,93.24125179999965,,,,,93.24144479999995,93.25622359999988,93.45685460000004,93.44074009999986,92.7565182999997,,,,,,,,0,1,0.472892100000081,None,,,,,,,,835,22,V,R,2026-02-25_11h28.11.682,VisualSearch_2526_3,,2025.2.4,2026-02-25 11h28.11.910115 +0100,
vertical.xlsx,The target is tilted.,135,29,5,3,1,0,0,0,0,0,0,0,0,0,0,0,0,0,1,135,space,5.334627499999897,None,1,1,0.5289447000000109,None,space,2.5520046000001457,None,0,0,0,1,,,,,3,5,29,3,93.45685460000004,,,,,,,,,,,,,,,,,,,,,93.44149249999964,93.45685460000004,93.94043519999968,93.94512669999995,93.96217099999967,94.50676149999981,,,,,94.50690289999966,94.52260959999967,94.72324469999967,94.70706799999971,93.96217099999967,,,,,,,,1,1,0.5289447000000109,None,,,,,,,,835,22,V,R,2026-02-25_11h28.11.682,VisualSearch_2526_3,,2025.2.4,2026-02-25 11h28.11.910115 +0100,
vertical.xlsx,The target is tilted.,135,30,6,3,0,1,1,1,1,1,1,1,0,0,0,0,1,7,8,135,space,5.334627499999897,None,0,1,1.297065499999917,None,space,2.5520046000001457,None,0,0,0,1,,,,,3,6,30,5,94.72324469999967,,,,,,,,,,,,,,,,,,,,,94.70791239999971,94.72324469999967,95.20710139999983,95.21220809999977,95.22743489999993,96.54001249999965,,,,,96.54020979999996,96.55563549999988,96.75618639999993,96.74004500000001,95.22743489999993,,,,,,,,0,1,1.297065499999917,None,,,,,,,,835,22,V,R,2026-02-25_11h28.11.682,VisualSearch_2526_3,,2025.2.4,2026-02-25 11h28.11.910115 +0100,
vertical.xlsx,The target is tilted.,135,31,7,3,0,1,1,1,1,1,1,1,1,1,1,1,1,11,12,135,space,5.334627499999897,None,0,1,0.7421641999999338,None,space,2.5520046000001457,None,0,0,0,1,,,,,3,7,31,4,96.75618639999993,,,,,,,,,,,,,,,,,,,,,96.74080049999975,96.75618639999993,97.24010669999961,97.24474239999972,97.26145069999984,98.00704899999982,,,,,98.00725560000001,98.02215019999994,98.22223880000001,98.20623769999975,97.26145069999984,,,,,,,,0,1,0.7421641999999338,None,,,,,,,,835,22,V,R,2026-02-25_11h28.11.682,VisualSearch_2526_3,,2025.2.4,2026-02-25 11h28.11.910115 +0100,
vertical.xlsx,The target is tilted.,135,32,0,4,0,1,1,1,1,1,1,1,1,1,1,1,1,11,12,135,space,5.334627499999897,None,0,1,1.4964669999999387,None,space,2.5520046000001457,None,0,0,0,1,,,,,4,0,32,4,98.22223880000001,,,,,,,,,,,,,,,,,,,,,98.20700709999983,98.22223880000001,98.70631800000001,98.71108569999978,98.72818409999991,100.2393204,,,,,100.23948549999977,100.25497039999982,100.45522759999994,100.43906419999985,98.72818409999991,,,,,,,,0,1,1.4964669999999387,None,,,,,,,,835,22,V,R,2026-02-25_11h28.11.682,VisualSearch_2526_3,,2025.2.4,2026-02-25 11h28.11.910115 +0100,
vertical.xlsx,The target is tilted.,135,33,1,4,0,1,1,1,0,0,0,0,0,0,0,0,1,3,4,135,space,5.334627499999897,None,0,1,0.736830700000155,None,space,2.5520046000001457,None,0,0,0,1,,,,,4,1,33,6,100.45522759999994,,,,,,,,,,,,,,,,,,,,,100.43975379999983,100.45522759999994,100.93900499999972,100.94393169999967,100.9614945999997,101.7062775999998,,,,,101.70645399999967,101.72154079999973,101.92190230000006,101.90582099999983,100.9614945999997,,,,,,,,0,1,0.736830700000155,None,,,,,,,,835,22,V,R,2026-02-25_11h28.11.682,VisualSearch_2526_3,,2025.2.4,2026-02-25 11h28.11.910115 +0100,
vertical.xlsx,The target is tilted.,135,34,2,4,1,0,0,0,0,0,0,0,0,0,0,0,0,0,1,135,space,5.334627499999897,None,1,1,0.44752150000022084,None,space,2.5520046000001457,None,0,0,0,1,,,,,4,2,34,3,101.92190230000006,,,,,,,,,,,,,,,,,,,,,101.90657220000003,101.92190230000006,102.40563299999985,102.41098769999962,102.42787939999971,102.88946199999964,,,,,102.88964529999976,102.90460480000002,103.10479999999961,103.08917059999976,102.42787939999971,,,,,,,,1,1,0.44752150000022084,None,,,,,,,,835,22,V,R,2026-02-25_11h28.11.682,VisualSearch_2526_3,,2025.2.4,2026-02-25 11h28.11.910115 +0100,
vertical.xlsx,The target is tilted.,135,35,3,4,1,1,1,1,0,0,0,0,0,0,0,0,0,3,4,135,space,5.334627499999897,None,1,1,0.6676115999998729,None,space,2.5520046000001457,None,0,0,0,1,,,,,4,3,35,2,103.10479999999961,,,,,,,,,,,,,,,,,,,,,103.08994699999994,103.10479999999961,103.58906699999989,103.59425089999968,103.60469379999995,104.28886789999979,,,,,104.28905089999989,104.30443419999983,104.50511879999976,104.4889946999997,103.60469379999995,,,,,,,,1,1,0.6676115999998729,None,,,,,,,,835,22,V,R,2026-02-25_11h28.11.682,VisualSearch_2526_3,,2025.2.4,2026-02-25 11h28.11.910115 +0100,
vertical.xlsx,The target is tilted.,135,36,4,4,0,1,1,1,1,1,1,1,0,0,0,0,1,7,8,135,space,5.334627499999897,None,0,1,1.2643827000001693,None,space,2.5520046000001457,None,0,0,0,1,,,,,4,4,36,5,104.50511879999976,,,,,,,,,,,,,,,,,,,,,104.48981969999977,104.50511879999976,104.9888676999999,104.99416049999991,105.01189299999987,106.28862449999997,,,,,106.28880979999985,106.30409139999983,106.50466379999989,106.48840169999994,105.01189299999987,,,,,,,,0,1,1.2643827000001693,None,,,,,,,,835,22,V,R,2026-02-25_11h28.11.682,VisualSearch_2526_3,,2025.2.4,2026-02-25 11h28.11.910115 +0100,
vertical.xlsx,The target is tilted.,135,37,5,4,1,1,1,1,1,1,1,1,0,0,0,0,0,7,8,135,space,5.334627499999897,None,1,1,0.7914301999999225,None,space,2.5520046000001457,None,0,0,0,1,,,,,4,5,37,1,106.50466379999989,,,,,,,,,,,,,,,,,,,,,106.48911819999967,106.50466379999989,106.98817169999984,106.99193229999992,107.00695859999996,107.80539499999986,,,,,107.8055747999997,107.8204796,108.02093530000002,108.00449349999963,107.00695859999996,,,,,,,,1,1,0.7914301999999225,None,,,,,,,,835,22,V,R,2026-02-25_11h28.11.682,VisualSearch_2526_3,,2025.2.4,2026-02-25 11h28.11.910115 +0100,
vertical.xlsx,The target is tilted.,135,38,6,4,1,1,1,1,1,1,1,1,1,1,1,1,0,11,12,135,space,5.334627499999897,None,1,1,0.9808646999999837,None,space,2.5520046000001457,None,0,0,0,1,,,,,4,6,38,0,108.02093530000002,,,,,,,,,,,,,,,,,,,,,108.00522920000003,108.02093530000002,108.50476609999987,108.50948040000003,108.5261814999999,109.52125389999992,,,,,109.52147990000003,109.53682189999972,109.73669410000002,109.7203013999997,108.5261814999999,,,,,,,,1,1,0.9808646999999837,None,,,,,,,,835,22,V,R,2026-02-25_11h28.11.682,VisualSearch_2526_3,,2025.2.4,2026-02-25 11h28.11.910115 +0100,
vertical.xlsx,The target is tilted.,135,39,7,4,0,0,0,0,0,0,0,0,0,0,0,0,1,1,1,135,space,5.334627499999897,None,0,1,0.4854702000002362,None,space,2.5520046000001457,None,0,0,0,1,,,,,4,7,39,7,109.73669410000002,,,,,,,,,,,,,,,,,,,,,109.72079140000005,109.73669410000002,110.22083339999972,110.22572330000003,110.23717689999967,110.73735369999986,,,,,110.73749589999989,110.75359029999981,,110.9376801999997,110.23717689999967,,,,,,,,0,1,0.4854702000002362,None,,,,,,,,835,22,V,R,2026-02-25_11h28.11.682,VisualSearch_2526_3,,2025.2.4,2026-02-25 11h28.11.910115 +0100,
vertical.xlsx,The target is tilted.,135,40,0,5,0,1,1,1,1,1,1,1,1,1,1,1,1,11,12,135,space,5.334627499999897,None,0,1,1.2335011000000122,None,space,2.5520046000001457,None,0,0,0,1,,,,,5,0,40,4,110.95394719999967,,,,,,,,,,,,,,,,,,,,,110.93867739999996,110.95394719999967,111.43746459999966,111.4426341999997,111.46029989999988,112.70473599999968,,,,,112.70494149999968,112.71967679999989,112.92022829999996,112.90403419999984,111.46029989999988,,,,,,,,0,1,1.2335011000000122,None,,,,,,,,835,22,V,R,2026-02-25_11h28.11.682,VisualSearch_2526_3,,2025.2.4,2026-02-25 11h28.11.910115 +0100,
vertical.xlsx,The target is tilted.,135,41,1,5,1,1,1,1,0,0,0,0,0,0,0,0,0,3,4,135,space,5.334627499999897,None,1,1,0.6358377999999902,None,space,2.5520046000001457,None,0,0,0,1,,,,,5,1,41,2,112.92022829999996,,,,,,,,,,,,,,,,,,,,,112.90481409999984,112.92022829999996,113.40410329999986,113.40939409999964,113.4283247999997,114.07074719999991,,,,,114.07095589999972,114.08627260000003,114.28666359999988,114.27063769999995,113.4283247999997,,,,,,,,1,1,0.6358377999999902,None,,,,,,,,835,22,V,R,2026-02-25_11h28.11.682,VisualSearch_2526_3,,2025.2.4,2026-02-25 11h28.11.910115 +0100,
vertical.xlsx,The target is tilted.,135,42,2,5,0,1,1,1,1,1,1,1,0,0,0,0,1,7,8,135,space,5.334627499999897,None,0,1,1.054455699999835,None,space,2.5520046000001457,None,0,0,0,1,,,,,5,2,42,5,114.28666359999988,,,,,,,,,,,,,,,,,,,,,114.27141429999983,114.28666359999988,114.77070719999983,114.77607309999985,114.79275949999965,115.8526523999999,,,,,115.85276720000002,115.86887819999993,116.06929769999988,116.05278989999988,114.79275949999965,,,,,,,,0,1,1.054455699999835,None,,,,,,,,835,22,V,R,2026-02-25_11h28.11.682,VisualSearch_2526_3,,2025.2.4,2026-02-25 11h28.11.910115 +0100,
vertical.xlsx,The target is tilted.,135,43,3,5,1,0,0,0,0,0,0,0,0,0,0,0,0,0,1,135,space,5.334627499999897,None,1,1,0.4671841000003951,None,space,2.5520046000001457,None,0,0,0,1,,,,,5,3,43,3,116.06929769999988,,,,,,,,,,,,,,,,,,,,,116.0534475999998,116.06929769999988,116.5531461999999,116.55848669999978,116.57432559999961,117.05330890000005,,,,,117.05351099999962,117.06882649999989,117.26955319999979,117.25321669999994,,,,,,,,,1,1,0.4671841000003951,None,,,,,,,,835,22,V,R,2026-02-25_11h28.11.682,VisualSearch_2526_3,,2025.2.4,2026-02-25 11h28.11.910115 +0100,
vertical.xlsx,The target is tilted.,135,44,4,5,1,1,1,1,1,1,1,1,0,0,0,0,0,7,8,135,space,5.334627499999897,None,1,1,0.6754640999997719,None,space,2.5520046000001457,None,0,0,0,1,,,,,5,4,44,1,117.26955319999979,,,,,,,,,,,,,,,,,,,,,117.25397559999965,117.26955319999979,117.75341279999975,117.75877879999962,117.7764075,118.45290909999994,,,,,118.45300759999964,118.46843689999969,118.66888109999991,118.65314599999965,117.7764075,,,,,,,,1,1,0.6754640999997719,None,,,,,,,,835,22,V,R,2026-02-25_11h28.11.682,VisualSearch_2526_3,,2025.2.4,2026-02-25 11h28.11.910115 +0100,
vertical.xlsx,The target is tilted.,135,45,5,5,0,1,1,1,0,0,0,0,0,0,0,0,1,3,4,135,space,5.334627499999897,None,0,1,0.8561005999999907,None,space,2.5520046000001457,None,0,0,0,1,,,,,5,5,45,6,118.66888109999991,,,,,,,,,,,,,,,,,,,,,118.6539773999998,118.66888109999991,119.15290379999988,119.1576799999998,119.17398719999983,120.03685189999987,,,,,120.03705459999992,120.0519390999998,120.25223039999992,120.23631290000003,119.17398719999983,,,,,,,,0,1,0.8561005999999907,None,,,,,,,,835,22,V,R,2026-02-25_11h28.11.682,VisualSearch_2526_3,,2025.2.4,2026-02-25 11h28.11.910115 +0100,
vertical.xlsx,The target is tilted.,135,46,6,5,0,0,0,0,0,0,0,0,0,0,0,0,1,1,1,135,space,5.334627499999897,None,0,1,0.6417783000001691,None,space,2.5520046000001457,None,0,0,0,1,,,,,5,6,46,7,120.25223039999992,,,,,,,,,,,,,,,,,,,,,120.23721780000005,120.25223039999992,120.73631119999982,120.7416516999997,120.76002029999972,121.40308839999989,,,,,121.40331530000003,121.41824039999983,121.61885110000003,121.60253669999975,120.76002029999972,,,,,,,,0,1,0.6417783000001691,None,,,,,,,,835,22,V,R,2026-02-25_11h28.11.682,VisualSearch_2526_3,,2025.2.4,2026-02-25 11h28.11.910115 +0100,
vertical.xlsx,The target is tilted.,135,47,7,5,1,1,1,1,1,1,1,1,1,1,1,1,0,11,12,135,space,5.334627499999897,None,1,1,1.3476756000000023,None,space,2.5520046000001457,None,0,0,0,1,,,,,5,7,47,0,121.61885110000003,,,,,,,,,,,,,,,,,,,,,121.60329209999963,121.61885110000003,122.10219370000004,122.1068467,122.12274219999972,123.48551429999998,,,,,123.48571349999975,123.50115539999979,123.70136400000001,123.68555879999985,122.12274219999972,,,,,,,,1,1,1.3476756000000023,None,,,,,,,,835,22,V,R,2026-02-25_11h28.11.682,VisualSearch_2526_3,,2025.2.4,2026-02-25 11h28.11.910115 +0100,
vertical.xlsx,The target is tilted.,135,48,0,6,1,1,1,1,1,1,1,1,1,1,1,1,0,11,12,135,space,5.334627499999897,None,1,1,0.5808606000000509,None,space,2.5520046000001457,None,0,0,0,1,,,,,6,0,48,0,123.70136400000001,,,,,,,,,,,,,,,,,,,,,123.68630719999965,123.70136400000001,124.18529699999999,124.18973629999982,124.20121949999975,124.78546759999972,,,,,124.78564669999969,124.80102099999976,125.00089059999982,124.98491869999998,124.20121949999975,,,,,,,,1,1,0.5808606000000509,None,,,,,,,,835,22,V,R,2026-02-25_11h28.11.682,VisualSearch_2526_3,,2025.2.4,2026-02-25 11h28.11.910115 +0100,
vertical.xlsx,The target is tilted.,135,49,1,6,0,1,1,1,1,1,1,1,1,1,1,1,1,11,12,135,space,5.334627499999897,None,0,1,0.935627199999999,None,space,2.5520046000001457,None,0,0,0,1,,,,,6,1,49,4,125.00089059999982,,,,,,,,,,,,,,,,,,,,,124.98561339999969,125.00089059999982,125.48540149999963,125.4901946,125.5069395999999,126.45228180000004,,,,,126.45246359999965,126.46735039999976,126.66747619999978,126.65124799999967,125.5069395999999,,,,,,,,0,1,0.935627199999999,None,,,,,,,,835,22,V,R,2026-02-25_11h28.11.682,VisualSearch_2526_3,,2025.2.4,2026-02-25 11h28.11.910115 +0100,
vertical.xlsx,The target is tilted.,135,50,2,6,0,1,1,1,1,1,1,1,0,0,0,0,1,7,8,135,space,5.334627499999897,None,0,1,1.1559532000001127,None,space,2.5520046000001457,None,0,0,0,1,,,,,6,2,50,5,126.66747619999978,,,,,,,,,,,,,,,,,,,,,126.65185069999961,126.66747619999978,127.1516615999999,127.15658629999962,127.17400789999965,128.3351462999999,,,,,128.33532749999995,128.35040409999965,128.55082319999974,128.53464639999993,127.17400789999965,,,,,,,,0,1,1.1559532000001127,None,,,,,,,,835,22,V,R,2026-02-25_11h28.11.682,VisualSearch_2526_3,,2025.2.4,2026-02-25 11h28.11.910115 +0100,
vertical.xlsx,The target is tilted.,135,51,3,6,0,0,0,0,0,0,0,0,0,0,0,0,1,1,1,135,space,5.334627499999897,None,0,1,0.4352116999998543,None,space,2.5520046000001457,None,0,0,0,1,,,,,6,3,51,7,128.55082319999974,,,,,,,,,,,,,,,,,,,,,128.53536829999985,128.55082319999974,129.03473799999983,129.03932919999988,129.05701869999984,129.50173819999964,,,,,129.50194049999982,129.5169037999999,129.71743100000003,129.70131049999964,129.05701869999984,,,,,,,,0,1,0.4352116999998543,None,,,,,,,,835,22,V,R,2026-02-25_11h28.11.682,VisualSearch_2526_3,,2025.2.4,2026-02-25 11h28.11.910115 +0100,
vertical.xlsx,The target is tilted.,135,52,4,6,1,1,1,1,0,0,0,0,0,0,0,0,0,3,4,135,space,5.334627499999897,None,1,1,0.6794104000000516,None,space,2.5520046000001457,None,0,0,0,1,,,,,6,4,52,2,129.71743100000003,,,,,,,,,,,,,,,,,,,,,129.7020454999997,129.71743100000003,130.2013391999999,130.2060647999997,130.22156319999976,130.91691999999966,,,,,130.91701190000003,130.93365969999968,,131.1173546,130.22156319999976,,,,,,,,1,1,0.6794104000000516,None,,,,,,,,835,22,V,R,2026-02-25_11h28.11.682,VisualSearch_2526_3,,2025.2.4,2026-02-25 11h28.11.910115 +0100,
vertical.xlsx,The target is tilted.,135,53,5,6,0,1,1,1,0,0,0,0,0,0,0,0,1,3,4,135,space,5.334627499999897,None,0,1,0.7358942999999272,None,space,2.5520046000001457,None,0,0,0,1,,,,,6,5,53,6,131.1338499999997,,,,,,,,,,,,,,,,,,,,,131.11813279999978,131.1338499999997,131.6174044999998,131.62215239999978,131.63852459999998,132.38461619999998,,,,,132.3848183,132.39972109999962,132.59986419999996,132.58398249999982,,,,,,,,,0,1,0.7358942999999272,None,,,,,,,,835,22,V,R,2026-02-25_11h28.11.682,VisualSearch_2526_3,,2025.2.4,2026-02-25 11h28.11.910115 +0100,
vertical.xlsx,The target is tilted.,135,54,6,6,1,1,1,1,1,1,1,1,0,0,0,0,0,7,8,135,space,5.334627499999897,None,1,1,1.0145174999997835,None,space,2.5520046000001457,None,0,0,0,1,,,,,6,6,54,1,132.59986419999996,,,,,,,,,,,,,,,,,,,,,132.58475719999979,132.59986419999996,133.08369479999965,133.0884062,133.1045597999996,134.1336766999998,,,,,134.13376599999992,134.14924799999972,134.3498615999997,134.33323529999961,133.1045597999996,,,,,,,,1,1,1.0145174999997835,None,,,,,,,,835,22,V,R,2026-02-25_11h28.11.682,VisualSearch_2526_3,,2025.2.4,2026-02-25 11h28.11.910115 +0100,
vertical.xlsx,The target is tilted.,135,55,7,6,1,0,0,0,0,0,0,0,0,0,0,0,0,0,1,135,space,5.334627499999897,None,0,0,0.4085211999999956,None,space,2.5520046000001457,None,0,0,0,1,,,,,6,7,55,3,134.3498615999997,,,,,,,,,,,,,,,,,,,,,134.33372869999994,134.3498615999997,134.83323239999982,134.83741559999999,134.85329969999975,135.26751669999976,,,,,135.26769769999964,135.28258129999995,135.4830133999999,135.46705539999994,134.85329969999975,,,,,,,,0,0,0.4085211999999956,None,,,,,,,,835,22,V,R,2026-02-25_11h28.11.682,VisualSearch_2526_3,,2025.2.4,2026-02-25 11h28.11.910115 +0100,
vertical.xlsx,The target is tilted.,135,56,0,7,0,0,0,0,0,0,0,0,0,0,0,0,1,1,1,135,space,5.334627499999897,None,0,1,0.6107461000001422,None,space,2.5520046000001457,None,0,0,0,1,,,,,7,0,56,7,135.4830133999999,,,,,,,,,,,,,,,,,,,,,135.46777999999995,135.4830133999999,135.9669270999998,135.97153059999982,135.98928559999968,136.61602559999983,,,,,136.61612960000002,136.63223249999965,,136.81654119999985,135.98928559999968,,,,,,,,0,1,0.6107461000001422,None,,,,,,,,835,22,V,R,2026-02-25_11h28.11.682,VisualSearch_2526_3,,2025.2.4,2026-02-25 11h28.11.910115 +0100,
vertical.xlsx,The target is tilted.,135,57,1,7,0,1,1,1,1,1,1,1,1,1,1,1,1,11,12,135,space,5.334627499999897,None,0,1,1.3420568999999887,None,space,2.5520046000001457,None,0,0,0,1,,,,,7,1,57,4,136.83285720000003,,,,,,,,,,,,,,,,,,,,,136.81731569999965,136.83285720000003,137.31627709999975,137.32112129999996,137.33937799999967,138.68321819999983,,,,,138.68340119999993,138.6986294999997,138.89915470000005,138.8828768999997,,,,,,,,,0,1,1.3420568999999887,None,,,,,,,,835,22,V,R,2026-02-25_11h28.11.682,VisualSearch_2526_3,,2025.2.4,2026-02-25 11h28.11.910115 +0100,
vertical.xlsx,The target is tilted.,135,58,2,7,1,1,1,1,1,1,1,1,0,0,0,0,0,7,8,135,space,5.334627499999897,None,1,1,1.089152500000182,None,space,2.5520046000001457,None,0,0,0,1,,,,,7,2,58,1,138.89915470000005,,,,,,,,,,,,,,,,,,,,,138.88363979999986,138.89915470000005,139.3828871999999,139.38774809999995,139.40431309999985,140.4990644999998,,,,,140.4991875999999,140.51499999999987,140.7154458,140.69935009999972,139.40431309999985,,,,,,,,1,1,1.089152500000182,None,,,,,,,,835,22,V,R,2026-02-25_11h28.11.682,VisualSearch_2526_3,,2025.2.4,2026-02-25 11h28.11.910115 +0100,
vertical.xlsx,The target is tilted.,135,59,3,7,1,1,1,1,1,1,1,1,1,1,1,1,0,11,12,135,space,5.334627499999897,None,1,1,1.185875600000145,None,space,2.5520046000001457,None,0,0,0,1,,,,,7,3,59,0,140.7154458,,,,,,,,,,,,,,,,,,,,,140.70009200000004,140.7154458,141.19933159999982,141.20409199999995,141.22072449999996,142.41632749999962,,,,,142.41650660000005,142.43133929999976,142.6315669999999,142.61579529999972,141.22072449999996,,,,,,,,1,1,1.185875600000145,None,,,,,,,,835,22,V,R,2026-02-25_11h28.11.682,VisualSearch_2526_3,,2025.2.4,2026-02-25 11h28.11.910115 +0100,
vertical.xlsx,The target is tilted.,135,60,4,7,1,0,0,0,0,0,0,0,0,0,0,0,0,0,1,135,space,5.334627499999897,None,1,1,0.5317526999997426,None,space,2.5520046000001457,None,0,0,0,1,,,,,7,4,60,3,142.6315669999999,,,,,,,,,,,,,,,,,,,,,142.61650979999968,142.6315669999999,143.1156251999996,143.12016419999964,143.1347440999998,143.6821885999998,,,,,143.68237569999974,143.69767920000004,143.89803110000003,143.8817257999999,143.1347440999998,,,,,,,,1,1,0.5317526999997426,None,,,,,,,,835,22,V,R,2026-02-25_11h28.11.682,VisualSearch_2526_3,,2025.2.4,2026-02-25 11h28.11.910115 +0100,
vertical.xlsx,The target is tilted.,135,61,5,7,0,1,1,1,1,1,1,1,0,0,0,0,1,7,8,135,space,5.334627499999897,None,0,1,1.0651348000001235,None,space,2.5520046000001457,None,0,0,0,1,,,,,7,5,61,5,143.89803110000003,,,,,,,,,,,,,,,,,,,,,143.88236949999964,143.89803110000003,144.38178229999994,144.3864598,144.40207389999978,145.48173069999984,,,,,145.48189269999966,145.49749959999963,145.6980970999998,145.68181409999988,144.40207389999978,,,,,,,,0,1,1.0651348000001235,None,,,,,,,,835,22,V,R,2026-02-25_11h28.11.682,VisualSearch_2526_3,,2025.2.4,2026-02-25 11h28.11.910115 +0100,
vertical.xlsx,The target is tilted.,135,62,6,7,1,1,1,1,0,0,0,0,0,0,0,0,0,3,4,135,space,5.334627499999897,None,1,1,0.6639713999998094,None,space,2.5520046000001457,None,0,0,0,1,,,,,7,6,62,2,145.6980970999998,,,,,,,,,,,,,,,,,,,,,145.68254849999994,145.6980970999998,146.1818518,146.18646229999968,146.20290119999981,146.88179609999997,,,,,146.88189339999963,146.89714289999984,147.09790539999995,147.08177979999982,146.20290119999981,,,,,,,,1,1,0.6639713999998094,None,,,,,,,,835,22,V,R,2026-02-25_11h28.11.682,VisualSearch_2526_3,,2025.2.4,2026-02-25 11h28.11.910115 +0100,
vertical.xlsx,The target is tilted.,135,63,7,7,0,1,1,1,0,0,0,0,0,0,0,0,1,3,4,135,space,5.334627499999897,None,0,1,0.6771213000001808,None,space,2.5520046000001457,None,0,0,0,1,,,,,7,7,63,6,147.09790539999995,,,,,,,,,,,,,,,,,,,,,147.0825405999999,147.09790539999995,147.58117939999966,147.5858820999997,147.60179040000003,148.28229379999993,,,,,148.28295869999965,148.29703649999965,148.49735009999995,148.4812297999997,147.60179040000003,,,,,,,,0,1,0.6771213000001808,None,,,,,,,,835,22,V,R,2026-02-25_11h28.11.682,VisualSearch_2526_3,,2025.2.4,2026-02-25 11h28.11.910115 +0100,
vertical.xlsx,The target is tilted.,135,64,0,8,0,1,1,1,1,1,1,1,0,0,0,0,1,7,8,135,space,5.334627499999897,None,0,1,1.22194780000018,None,space,2.5520046000001457,None,0,0,0,1,,,,,8,0,64,5,148.49735009999995,,,,,,,,,,,,,,,,,,,,,148.48197349999964,148.49735009999995,148.98155929999984,148.9868988999997,149.0021815,150.23162669999965,,,,,150.2318264999999,150.24677659999998,150.44721919999984,150.43105309999964,149.0021815,,,,,,,,0,1,1.22194780000018,None,,,,,,,,835,22,V,R,2026-02-25_11h28.11.682,VisualSearch_2526_3,,2025.2.4,2026-02-25 11h28.11.910115 +0100,
vertical.xlsx,The target is tilted.,135,65,1,8,1,1,1,1,0,0,0,0,0,0,0,0,0,3,4,135,space,5.334627499999897,None,1,1,0.6671297000002596,None,space,2.5520046000001457,None,0,0,0,1,,,,,8,1,65,2,150.44721919999984,,,,,,,,,,,,,,,,,,,,,150.43180359999997,150.44721919999984,150.93110959999967,150.9356743999997,150.9503308999997,151.63056199999983,,,,,151.63071199999968,151.64635309999994,151.8469215,151.83051449999994,150.9503308999997,,,,,,,,1,1,0.6671297000002596,None,,,,,,,,835,22,V,R,2026-02-25_11h28.11.682,VisualSearch_2526_3,,2025.2.4,2026-02-25 11h28.11.910115 +0100,
vertical.xlsx,The target is tilted.,135,66,2,8,0,1,1,1,0,0,0,0,0,0,0,0,1,3,4,135,space,5.334627499999897,None,0,1,0.6287362000002759,None,space,2.5520046000001457,None,0,0,0,1,,,,,8,2,66,6,151.8469215,,,,,,,,,,,,,,,,,,,,,151.8311891999997,151.8469215,152.33056719999968,152.33369839999978,152.34673459999976,152.98103519999995,,,,,152.98121289999972,152.99627369999962,153.1968525999996,153.18066369999997,152.34673459999976,,,,,,,,0,1,0.6287362000002759,None,,,,,,,,835,22,V,R,2026-02-25_11h28.11.682,VisualSearch_2526_3,,2025.2.4,2026-02-25 11h28.11.910115 +0100,
vertical.xlsx,The target is tilted.,135,67,3,8,1,1,1,1,1,1,1,1,1,1,1,1,0,11,12,135,space,5.334627499999897,None,1,1,0.8833733999999822,None,space,2.5520046000001457,None,0,0,0,1,,,,,8,3,67,0,153.1968525999996,,,,,,,,,,,,,,,,,,,,,153.1814061,153.1968525999996,153.68062439999994,153.6852242,153.70200029999978,154.59749609999972,,,,,154.5976572999998,154.61262559999977,154.8132043999999,154.79718400000002,153.70200029999978,,,,,,,,1,1,0.8833733999999822,None,,,,,,,,835,22,V,R,2026-02-25_11h28.11.682,VisualSearch_2526_3,,2025.2.4,2026-02-25 11h28.11.910115 +0100,
vertical.xlsx,The target is tilted.,135,68,4,8,0,1,1,1,1,1,1,1,1,1,1,1,1,11,12,135,space,5.334627499999897,None,0,1,1.475380899999891,None,space,2.5520046000001457,None,0,0,0,1,,,,,8,4,68,4,154.8132043999999,,,,,,,,,,,,,,,,,,,,,154.7979008999996,154.8132043999999,155.29699219999975,155.3016459999999,155.31301289999965,156.79715629999964,,,,,156.79733709999982,156.8122939,157.01273270000002,156.99672639999972,155.31301289999965,,,,,,,,0,1,1.475380899999891,None,,,,,,,,835,22,V,R,2026-02-25_11h28.11.682,VisualSearch_2526_3,,2025.2.4,2026-02-25 11h28.11.910115 +0100,
vertical.xlsx,The target is tilted.,135,69,5,8,1,0,0,0,0,0,0,0,0,0,0,0,0,0,1,135,space,5.334627499999897,None,1,1,0.4486446999999316,None,space,2.5520046000001457,None,0,0,0,1,,,,,8,5,69,3,157.01273270000002,,,,,,,,,,,,,,,,,,,,,156.9974517999999,157.01273270000002,157.4967815,157.50144679999994,157.51854430000003,157.98043469999993,,,,,157.9811633999998,157.99547659999962,158.19597529999965,158.17991819999997,157.51854430000003,,,,,,,,1,1,0.4486446999999316,None,,,,,,,,835,22,V,R,2026-02-25_11h28.11.682,VisualSearch_2526_3,,2025.2.4,2026-02-25 11h28.11.910115 +0100,
vertical.xlsx,The target is tilted.,135,70,6,8,0,0,0,0,0,0,0,0,0,0,0,0,1,1,1,135,space,5.334627499999897,None,0,1,0.59972259999995,None,space,2.5520046000001457,None,0,0,0,1,,,,,8,6,70,7,158.19597529999965,,,,,,,,,,,,,,,,,,,,,158.1806274999999,158.19597529999965,158.68000970000003,158.68535919999977,158.7022333,159.31291029999966,,,,,159.3131042,159.32858709999982,159.5291454999997,159.51280640000004,158.7022333,,,,,,,,0,1,0.59972259999995,None,,,,,,,,835,22,V,R,2026-02-25_11h28.11.682,VisualSearch_2526_3,,2025.2.4,2026-02-25 11h28.11.910115 +0100,
vertical.xlsx,The target is tilted.,135,71,7,8,1,1,1,1,1,1,1,1,0,0,0,0,0,7,8,135,space,5.334627499999897,None,1,1,0.6828677999997126,None,space,2.5520046000001457,None,0,0,0,1,,,,,8,7,71,1,159.5291454999997,,,,,,,,,,,,,,,,,,,,,159.51353029999973,159.5291454999997,160.01250489999984,160.01719490000005,160.0336671,160.72934009999972,,,,,160.72953229999985,160.74493940000002,160.9455257999998,160.92940980000003,160.0336671,,,,,,,,1,1,0.6828677999997126,None,,,,,,,,835,22,V,R,2026-02-25_11h28.11.682,VisualSearch_2526_3,,2025.2.4,2026-02-25 11h28.11.910115 +0100,
vertical.xlsx,The target is tilted.,135,72,0,9,0,1,1,1,1,1,1,1,0,0,0,0,1,7,8,135,space,5.334627499999897,None,0,1,1.0446569999999156,None,space,2.5520046000001457,None,0,0,0,1,,,,,9,0,72,5,160.9455257999998,,,,,,,,,,,,,,,,,,,,,160.93013509999992,160.9455257999998,161.42961449999984,161.43492639999977,161.45248839999977,162.51231229999985,,,,,162.51252209999984,162.52801469999986,162.72813989999986,162.7119158999999,161.45248839999977,,,,,,,,0,1,1.0446569999999156,None,,,,,,,,835,22,V,R,2026-02-25_11h28.11.682,VisualSearch_2526_3,,2025.2.4,2026-02-25 11h28.11.910115 +0100,
vertical.xlsx,The target is tilted.,135,73,1,9,0,1,1,1,0,0,0,0,0,0,0,0,1,3,4,135,space,5.334627499999897,None,0,1,0.621261499999946,None,space,2.5520046000001457,None,0,0,0,1,,,,,9,1,73,6,162.72813989999986,,,,,,,,,,,,,,,,,,,,,162.71233259999963,162.72813989999986,163.2121699999998,163.21710369999983,163.23456510000005,163.86251129999982,,,,,163.86271039999974,163.87775680000004,164.07837519999975,164.06208389999983,163.23456510000005,,,,,,,,0,1,0.621261499999946,None,,,,,,,,835,22,V,R,2026-02-25_11h28.11.682,VisualSearch_2526_3,,2025.2.4,2026-02-25 11h28.11.910115 +0100,
vertical.xlsx,The target is tilted.,135,74,2,9,1,1,1,1,1,1,1,1,1,1,1,1,0,11,12,135,space,5.334627499999897,None,1,1,0.5554127000000335,None,space,2.5520046000001457,None,0,0,0,1,,,,,9,2,74,0,164.07837519999975,,,,,,,,,,,,,,,,,,,,,164.06281959999978,164.07837519999975,164.56187869999985,164.5669195999999,164.5856829999998,165.14513199999965,,,,,165.14526939999996,165.1609123999997,165.36136880000004,165.3452481999998,164.5856829999998,,,,,,,,1,1,0.5554127000000335,None,,,,,,,,835,22,V,R,2026-02-25_11h28.11.682,VisualSearch_2526_3,,2025.2.4,2026-02-25 11h28.11.910115 +0100,
vertical.xlsx,The target is tilted.,135,75,3,9,1,1,1,1,1,1,1,1,0,0,0,0,0,7,8,135,space,5.334627499999897,None,1,1,1.4206942000000709,None,space,2.5520046000001457,None,0,0,0,1,,,,,9,3,75,1,165.36136880000004,,,,,,,,,,,,,,,,,,,,,165.34599839999964,165.36136880000004,165.84547509999993,165.8507752999999,165.86630739999964,167.29559759999984,,,,,167.29579079999985,167.31058689999963,167.51098000000002,167.49474029999965,165.86630739999964,,,,,,,,1,1,1.4206942000000709,None,,,,,,,,835,22,V,R,2026-02-25_11h28.11.682,VisualSearch_2526_3,,2025.2.4,2026-02-25 11h28.11.910115 +0100,
vertical.xlsx,The target is tilted.,135,76,4,9,0,0,0,0,0,0,0,0,0,0,0,0,1,1,1,135,space,5.334627499999897,None,0,1,0.4842185000002246,None,space,2.5520046000001457,None,0,0,0,1,,,,,9,4,76,7,167.51098000000002,,,,,,,,,,,,,,,,,,,,,167.4954914,167.51098000000002,167.99435799999992,167.9989633,168.01542229999995,168.5121750999997,,,,,168.51239369999985,168.5270375,168.72746869999992,168.7108857999997,168.01542229999995,,,,,,,,0,1,0.4842185000002246,None,,,,,,,,835,22,V,R,2026-02-25_11h28.11.682,VisualSearch_2526_3,,2025.2.4,2026-02-25 11h28.11.910115 +0100,
vertical.xlsx,The target is tilted.,135,77,5,9,0,1,1,1,1,1,1,1,1,1,1,1,1,11,12,135,space,5.334627499999897,None,0,1,1.4186244000002262,None,space,2.5520046000001457,None,0,0,0,1,,,,,9,5,77,4,168.72746869999992,,,,,,,,,,,,,,,,,,,,,168.71150569999963,168.72746869999992,169.21156939999992,169.21619680000003,169.22683789999974,170.66087789999983,,,,,170.66103969999995,170.67654399999992,170.87675179999997,170.8606193999999,169.22683789999974,,,,,,,,0,1,1.4186244000002262,None,,,,,,,,835,22,V,R,2026-02-25_11h28.11.682,VisualSearch_2526_3,,2025.2.4,2026-02-25 11h28.11.910115 +0100,
vertical.xlsx,The target is tilted.,135,78,6,9,1,1,1,1,0,0,0,0,0,0,0,0,0,3,4,135,space,5.334627499999897,None,1,1,0.7474782999997842,None,space,2.5520046000001457,None,0,0,0,1,,,,,9,6,78,2,170.87675179999997,,,,,,,,,,,,,,,,,,,,,170.86131239999986,170.87675179999997,171.36103119999962,171.3658376999997,171.3823871999998,172.14395879999984,,,,,172.14411849999988,172.15961769999967,172.36034229999996,172.3440988999996,171.3823871999998,,,,,,,,1,1,0.7474782999997842,None,,,,,,,,835,22,V,R,2026-02-25_11h28.11.682,VisualSearch_2526_3,,2025.2.4,2026-02-25 11h28.11.910115 +0100,
vertical.xlsx,The target is tilted.,135,79,7,9,1,0,0,0,0,0,0,0,0,0,0,0,0,0,1,135,space,5.334627499999897,None,1,1,0.46788229999992836,None,space,2.5520046000001457,None,0,0,0,1,,,,,9,7,79,3,172.36034229999996,,,,,,,,,,,,,,,,,,,,,172.3448470999997,172.36034229999996,172.84398059999967,172.8485544,172.86444679999977,173.3442941999997,,,,,173.34445509999978,173.35954730000003,173.56017629999997,173.54388930000005,172.86444679999977,,,,,,,,1,1,0.46788229999992836,None,,,,,,,,835,22,V,R,2026-02-25_11h28.11.682,VisualSearch_2526_3,,2025.2.4,2026-02-25 11h28.11.910115 +0100,
vertical.xlsx,The target is tilted.,135,80,0,10,1,1,1,1,1,1,1,1,1,1,1,1,0,11,12,135,space,5.334627499999897,None,1,1,0.748762600000191,None,space,2.5520046000001457,None,0,0,0,1,,,,,10,0,80,0,173.56017629999997,,,,,,,,,,,,,,,,,,,,,173.54465589999973,173.56017629999997,174.0438191999997,174.04843009999968,174.06402260000004,174.8268224999997,,,,,174.82698549999986,174.8425404999998,175.04306039999983,175.02703569999994,174.06402260000004,,,,,,,,1,1,0.748762600000191,None,,,,,,,,835,22,V,R,2026-02-25_11h28.11.682,VisualSearch_2526_3,,2025.2.4,2026-02-25 11h28.11.910115 +0100,
vertical.xlsx,The target is tilted.,135,81,1,10,1,1,1,1,1,1,1,1,0,0,0,0,0,7,8,135,space,5.334627499999897,None,1,1,0.6808921000001646,None,space,2.5520046000001457,None,0,0,0,1,,,,,10,1,81,1,175.04306039999983,,,,,,,,,,,,,,,,,,,,,175.02776519999998,175.04306039999983,175.52712129999964,175.53229969999984,175.54697769999984,176.24334629999976,,,,,176.24352069999986,176.25896160000002,176.45963359999996,176.4433343999999,175.54697769999984,,,,,,,,1,1,0.6808921000001646,None,,,,,,,,835,22,V,R,2026-02-25_11h28.11.682,VisualSearch_2526_3,,2025.2.4,2026-02-25 11h28.11.910115 +0100,
vertical.xlsx,The target is tilted.,135,82,2,10,0,1,1,1,1,1,1,1,1,1,1,1,1,11,12,135,space,5.334627499999897,None,0,1,1.1365947999997843,None,space,2.5520046000001457,None,0,0,0,1,,,,,10,2,82,4,176.45963359999996,,,,,,,,,,,,,,,,,,,,,176.44409189999988,176.45963359999996,176.9430927999997,176.9477683,176.96567789999972,178.11035989999982,,,,,178.1105564999998,178.12543719999985,178.32594949999975,178.3096843999997,176.96567789999972,,,,,,,,0,1,1.1365947999997843,None,,,,,,,,835,22,V,R,2026-02-25_11h28.11.682,VisualSearch_2526_3,,2025.2.4,2026-02-25 11h28.11.910115 +0100,
vertical.xlsx,The target is tilted.,135,83,3,10,1,0,0,0,0,0,0,0,0,0,0,0,0,0,1,135,space,5.334627499999897,None,1,1,0.6007690000001276,None,space,2.5520046000001457,None,0,0,0,1,,,,,10,3,83,3,178.32594949999975,,,,,,,,,,,,,,,,,,,,,178.31042579999985,178.32594949999975,178.80973659999972,178.81431840000005,178.8299138999996,179.44277239999974,,,,,179.4428628999999,179.45827280000003,179.65907990000005,179.64271680000002,178.8299138999996,,,,,,,,1,1,0.6007690000001276,None,,,,,,,,835,22,V,R,2026-02-25_11h28.11.682,VisualSearch_2526_3,,2025.2.4,2026-02-25 11h28.11.910115 +0100,
vertical.xlsx,The target is tilted.,135,84,4,10,0,0,0,0,0,0,0,0,0,0,0,0,1,1,1,135,space,5.334627499999897,None,0,1,0.5971427000004041,None,space,2.5520046000001457,None,0,0,0,1,,,,,10,4,84,7,179.65907990000005,,,,,,,,,,,,,,,,,,,,,179.6433847999997,179.65907990000005,180.1424823999996,180.14536259999977,180.1584684999998,180.75948169999992,,,,,180.7596577999998,180.77545069999996,180.97551529999964,180.95942999999988,180.1584684999998,,,,,,,,0,1,0.5971427000004041,None,,,,,,,,835,22,V,R,2026-02-25_11h28.11.682,VisualSearch_2526_3,,2025.2.4,2026-02-25 11h28.11.910115 +0100,
vertical.xlsx,The target is tilted.,135,85,5,10,0,1,1,1,1,1,1,1,0,0,0,0,1,7,8,135,space,5.334627499999897,None,0,1,0.8991667000000234,None,space,2.5520046000001457,None,0,0,0,1,,,,,10,5,85,5,180.97551529999964,,,,,,,,,,,,,,,,,,,,,180.9601588999999,180.97551529999964,181.4584215,181.4608106999999,181.47488559999965,182.3758957,,,,,182.37607339999977,182.39149599999973,182.5915055999999,182.57578719999992,181.47488559999965,,,,,,,,0,1,0.8991667000000234,None,,,,,,,,835,22,V,R,2026-02-25_11h28.11.682,VisualSearch_2526_3,,2025.2.4,2026-02-25 11h28.11.910115 +0100,
vertical.xlsx,The target is tilted.,135,86,6,10,1,1,1,1,0,0,0,0,0,0,0,0,0,3,4,135,space,5.334627499999897,None,0,0,0.538641799999823,None,space,2.5520046000001457,None,0,0,0,1,,,,,10,6,86,2,182.5915055999999,,,,,,,,,,,,,,,,,,,,,182.57650299999978,182.5915055999999,183.07560379999995,183.0802660999998,183.09571770000002,183.6423937999998,,,,,183.64255460000004,183.6582758999998,183.8578137999998,183.8411240999999,183.09571770000002,,,,,,,,0,0,0.538641799999823,None,,,,,,,,835,22,V,R,2026-02-25_11h28.11.682,VisualSearch_2526_3,,2025.2.4,2026-02-25 11h28.11.910115 +0100,
vertical.xlsx,The target is tilted.,135,87,7,10,0,1,1,1,0,0,0,0,0,0,0,0,1,3,4,135,space,5.334627499999897,None,0,1,0.5808208000003106,None,space,2.5520046000001457,None,0,0,0,1,,,,,10,7,87,6,183.8578137999998,,,,,,,,,,,,,,,,,,,,,183.84135979999974,183.8578137999998,184.34172059999992,184.34580949999963,184.36236549999967,184.9593630999998,,,,,184.9595849999996,184.97470219999968,185.1748104999997,185.15872390000004,184.36236549999967,,,,,,,,0,1,0.5808208000003106,None,,,,,,,,835,22,V,R,2026-02-25_11h28.11.682,VisualSearch_2526_3,,2025.2.4,2026-02-25 11h28.11.910115 +0100,
vertical.xlsx,The target is tilted.,135,88,0,11,0,1,1,1,1,1,1,1,0,0,0,0,1,7,8,135,space,5.334627499999897,None,0,1,0.874891800000114,None,space,2.5520046000001457,None,0,0,0,1,,,,,11,0,88,5,185.1748104999997,,,,,,,,,,,,,,,,,,,,,185.1594388999997,185.1748104999997,185.6583545999997,185.66201359999968,185.6748447,186.5588042999998,,,,,186.55896589999975,186.5746350999998,186.7745015999999,186.7584741999999,185.6748447,,,,,,,,0,1,0.874891800000114,None,,,,,,,,835,22,V,R,2026-02-25_11h28.11.682,VisualSearch_2526_3,,2025.2.4,2026-02-25 11h28.11.910115 +0100,
vertical.xlsx,The target is tilted.,135,89,1,11,1,1,1,1,1,1,1,1,0,0,0,0,0,7,8,135,space,5.334627499999897,None,1,1,1.2500448999999207,None,space,2.5520046000001457,None,0,0,0,1,,,,,11,1,89,1,186.7745015999999,,,,,,,,,,,,,,,,,,,,,186.75919429999976,186.7745015999999,187.25779169999987,187.26147709999987,187.27630359999966,188.54068229999984,,,,,188.54077370000005,188.55679689999988,188.7567641999999,188.74049979999972,187.27630359999966,,,,,,,,1,1,1.2500448999999207,None,,,,,,,,835,22,V,R,2026-02-25_11h28.11.682,VisualSearch_2526_3,,2025.2.4,2026-02-25 11h28.11.910115 +0100,
vertical.xlsx,The target is tilted.,135,90,2,11,0,0,0,0,0,0,0,0,0,0,0,0,1,1,1,135,space,5.334627499999897,None,0,1,0.4764071999998123,None,space,2.5520046000001457,None,0,0,0,1,,,,,11,2,90,7,188.7567641999999,,,,,,,,,,,,,,,,,,,,,188.74077539999962,188.7567641999999,189.24109109999972,189.24563679999983,189.26352159999988,189.74168869999994,,,,,189.7418647999998,189.75701230000004,189.9569873999999,189.94089799999983,,,,,,,,,0,1,0.4764071999998123,None,,,,,,,,835,22,V,R,2026-02-25_11h28.11.682,VisualSearch_2526_3,,2025.2.4,2026-02-25 11h28.11.910115 +0100,
vertical.xlsx,The target is tilted.,135,91,3,11,1,1,1,1,1,1,1,1,1,1,1,1,0,11,12,135,space,5.334627499999897,None,0,0,1.2079858000001877,None,space,2.5520046000001457,None,0,0,0,1,,,,,11,3,91,0,189.9569873999999,,,,,,,,,,,,,,,,,,,,,189.94167249999964,189.9569873999999,190.44060929999978,190.44517069999984,190.46106999999984,191.67438979999997,,,,,191.6745692999998,191.6903385999999,191.89045029999988,191.8741882999998,190.46106999999984,,,,,,,,0,0,1.2079858000001877,None,,,,,,,,835,22,V,R,2026-02-25_11h28.11.682,VisualSearch_2526_3,,2025.2.4,2026-02-25 11h28.11.910115 +0100,
vertical.xlsx,The target is tilted.,135,92,4,11,0,1,1,1,1,1,1,1,1,1,1,1,1,11,12,135,space,5.334627499999897,None,0,1,1.1734467000001132,None,space,2.5520046000001457,None,0,0,0,1,,,,,11,4,92,4,191.89045029999988,,,,,,,,,,,,,,,,,,,,,191.8749373999999,191.89045029999988,192.37434339999982,192.37927790000003,192.39492729999984,193.57429049999973,,,,,193.57450059999974,193.59001399999988,193.7895894999997,193.77341129999968,192.39492729999984,,,,,,,,0,1,1.1734467000001132,None,,,,,,,,835,22,V,R,2026-02-25_11h28.11.682,VisualSearch_2526_3,,2025.2.4,2026-02-25 11h28.11.910115 +0100,
vertical.xlsx,The target is tilted.,135,93,5,11,1,0,0,0,0,0,0,0,0,0,0,0,0,0,1,135,space,5.334627499999897,None,1,1,0.6317064999998365,None,space,2.5520046000001457,None,0,0,0,1,,,,,11,5,93,3,193.7895894999997,,,,,,,,,,,,,,,,,,,,,193.7740776999999,193.7895894999997,194.2734378,194.27806889999965,194.29467959999965,194.94079899999997,,,,,194.94096199999967,194.9563906999997,195.15644239999983,195.14040499999965,194.29467959999965,,,,,,,,1,1,0.6317064999998365,None,,,,,,,,835,22,V,R,2026-02-25_11h28.11.682,VisualSearch_2526_3,,2025.2.4,2026-02-25 11h28.11.910115 +0100,
vertical.xlsx,The target is tilted.,135,94,6,11,1,1,1,1,0,0,0,0,0,0,0,0,0,3,4,135,space,5.334627499999897,None,1,1,0.6919330999999147,None,space,2.5520046000001457,None,0,0,0,1,,,,,11,6,94,2,195.15644239999983,,,,,,,,,,,,,,,,,,,,,195.14117119999992,195.15644239999983,195.64026849999982,195.64477139999963,195.66170680000005,196.35710119999976,,,,,196.3572981999996,196.37291800000003,196.57280519999995,196.55633259999968,195.66170680000005,,,,,,,,1,1,0.6919330999999147,None,,,,,,,,835,22,V,R,2026-02-25_11h28.11.682,VisualSearch_2526_3,,2025.2.4,2026-02-25 11h28.11.910115 +0100,
vertical.xlsx,The target is tilted.,135,95,7,11,0,1,1,1,0,0,0,0,0,0,0,0,1,3,4,135,space,5.334627499999897,None,0,1,0.6622105000001284,None,space,2.5520046000001457,None,0,0,0,1,,,,,11,7,95,6,196.57280519999995,,,,,,,,,,,,,,,,,,,,,196.55716029999985,196.57280519999995,197.05647559999989,197.06063300000005,197.07340769999973,197.74014039999975,,,,,197.74030240000002,197.7559799999999,197.95603779999965,197.93977069999983,197.07340769999973,,,,,,,,0,1,0.6622105000001284,None,,,,,,,,835,22,V,R,2026-02-25_11h28.11.682,VisualSearch_2526_3,,2025.2.4,2026-02-25 11h28.11.910115 +0100,
vertical.xlsx,The target is tilted.,135,96,0,12,0,1,1,1,1,1,1,1,0,0,0,0,1,7,8,135,space,5.334627499999897,None,0,1,2.1573536000000786,None,space,2.5520046000001457,None,0,0,0,1,,,,,12,0,96,5,197.95603779999965,,,,,,,,,,,,,,,,,,,,,197.94051820000004,197.95603779999965,198.44005560000005,198.44514729999992,198.46162189999995,200.6228804999996,,,,,200.62305639999977,200.63871549999976,200.83889809999982,200.82252279999966,198.46162189999995,,,,,,,,0,1,2.1573536000000786,None,,,,,,,,835,22,V,R,2026-02-25_11h28.11.682,VisualSearch_2526_3,,2025.2.4,2026-02-25 11h28.11.910115 +0100,
vertical.xlsx,The target is tilted.,135,97,1,12,0,1,1,1,1,1,1,1,1,1,1,1,1,11,12,135,space,5.334627499999897,None,0,1,0.9378744999999071,None,space,2.5520046000001457,None,0,0,0,1,,,,,12,1,97,4,200.83889809999982,,,,,,,,,,,,,,,,,,,,,200.82326160000002,200.83889809999982,201.32243299999982,201.32711429999972,201.34383149999985,202.28952879999997,,,,,202.2896942999996,202.30515079999986,202.50479989999985,202.48856439999963,201.34383149999985,,,,,,,,0,1,0.9378744999999071,None,,,,,,,,835,22,V,R,2026-02-25_11h28.11.682,VisualSearch_2526_3,,2025.2.4,2026-02-25 11h28.11.910115 +0100,
vertical.xlsx,The target is tilted.,135,98,2,12,0,0,0,0,0,0,0,0,0,0,0,0,1,1,1,135,space,5.334627499999897,None,0,1,0.4602654000000257,None,space,2.5520046000001457,None,0,0,0,1,,,,,12,2,98,7,202.50479989999985,,,,,,,,,,,,,,,,,,,,,202.48920729999963,202.50479989999985,202.98898680000002,202.99358779999966,203.01036539999996,203.4724616999997,,,,,203.47265939999988,203.48827329999995,203.6884786999999,203.6718707,203.01036539999996,,,,,,,,0,1,0.4602654000000257,None,,,,,,,,835,22,V,R,2026-02-25_11h28.11.682,VisualSearch_2526_3,,2025.2.4,2026-02-25 11h28.11.910115 +0100,
vertical.xlsx,The target is tilted.,135,99,3,12,1,0,0,0,0,0,0,0,0,0,0,0,0,0,1,135,space,5.334627499999897,None,1,1,0.6684421999998449,None,space,2.5520046000001457,None,0,0,0,1,,,,,12,3,99,3,203.6884786999999,,,,,,,,,,,,,,,,,,,,,203.67263299999968,203.6884786999999,204.1717982,204.17635689999997,204.19326509999973,204.87249810000003,,,,,204.87269829999968,204.88778969999976,205.08819319999975,205.07183349999968,204.19326509999973,,,,,,,,1,1,0.6684421999998449,None,,,,,,,,835,22,V,R,2026-02-25_11h28.11.682,VisualSearch_2526_3,,2025.2.4,2026-02-25 11h28.11.910115 +0100,
vertical.xlsx,The target is tilted.,135,100,4,12,1,1,1,1,0,0,0,0,0,0,0,0,0,3,4,135,space,5.334627499999897,None,1,1,1.0388841999997567,None,space,2.5520046000001457,None,0,0,0,1,,,,,12,4,100,2,205.08819319999975,,,,,,,,,,,,,,,,,,,,,205.07259459999977,205.08819319999975,205.5717851999998,205.57643029999963,205.59580199999982,206.63849869999967,,,,,206.6386749999997,206.65449369999988,206.8541911999996,206.83840899999996,205.59580199999982,,,,,,,,1,1,1.0388841999997567,None,,,,,,,,835,22,V,R,2026-02-25_11h28.11.682,VisualSearch_2526_3,,2025.2.4,2026-02-25 11h28.11.910115 +0100,
vertical.xlsx,The target is tilted.,135,101,5,12,1,1,1,1,1,1,1,1,1,1,1,1,0,11,12,135,space,5.334627499999897,None,1,1,0.9809514000003219,None,space,2.5520046000001457,None,0,0,0,1,,,,,12,5,101,0,206.8541911999996,,,,,,,,,,,,,,,,,,,,,206.8391171999997,206.8541911999996,207.33832799999982,207.34284679999973,207.35983609999994,208.3549410999999,,,,,208.35509090000005,208.37088059999996,208.57062909999968,208.55436239999972,207.35983609999994,,,,,,,,1,1,0.9809514000003219,None,,,,,,,,835,22,V,R,2026-02-25_11h28.11.682,VisualSearch_2526_3,,2025.2.4,2026-02-25 11h28.11.910115 +0100,
vertical.xlsx,The target is tilted.,135,102,6,12,0,1,1,1,0,0,0,0,0,0,0,0,1,3,4,135,space,5.334627499999897,None,0,1,0.6098455999999715,None,space,2.5520046000001457,None,0,0,0,1,,,,,12,6,102,6,208.57062909999968,,,,,,,,,,,,,,,,,,,,,208.5550444999999,208.57062909999968,209.05419809999967,209.05899839999984,209.0745764999997,209.6880256999998,,,,,209.6882029999997,209.70391679999966,209.9040055999999,209.8879463999997,209.0745764999997,,,,,,,,0,1,0.6098455999999715,None,,,,,,,,835,22,V,R,2026-02-25_11h28.11.682,VisualSearch_2526_3,,2025.2.4,2026-02-25 11h28.11.910115 +0100,
vertical.xlsx,The target is tilted.,135,103,7,12,1,1,1,1,1,1,1,1,0,0,0,0,0,7,8,135,space,5.334627499999897,None,1,1,0.5646833000000697,None,space,2.5520046000001457,None,0,0,0,1,,,,,12,7,103,1,209.9040055999999,,,,,,,,,,,,,,,,,,,,,209.88866439999993,209.9040055999999,210.38787049999974,210.39248729999963,210.4097858,210.9881892999997,,,,,210.98836759999995,211.0037868999998,211.2037851,211.18737059999967,210.4097858,,,,,,,,1,1,0.5646833000000697,None,,,,,,,,835,22,V,R,2026-02-25_11h28.11.682,VisualSearch_2526_3,,2025.2.4,2026-02-25 11h28.11.910115 +0100,
vertical.xlsx,The target is tilted.,135,104,0,13,0,0,0,0,0,0,0,0,0,0,0,0,1,1,1,135,space,5.334627499999897,None,0,1,0.5398822000001928,None,space,2.5520046000001457,None,0,0,0,1,,,,,13,0,104,7,211.2037851,,,,,,,,,,,,,,,,,,,,,211.1881017999999,211.2037851,211.68784499999992,211.69298849999996,211.70987269999978,212.25471639999978,,,,,212.2549122999999,212.27012530000002,212.4703072999996,212.45408599999973,211.70987269999978,,,,,,,,0,1,0.5398822000001928,None,,,,,,,,835,22,V,R,2026-02-25_11h28.11.682,VisualSearch_2526_3,,2025.2.4,2026-02-25 11h28.11.910115 +0100,
vertical.xlsx,The target is tilted.,135,105,1,13,1,0,0,0,0,0,0,0,0,0,0,0,0,0,1,135,space,5.334627499999897,None,1,1,0.4512813000001188,None,space,2.5520046000001457,None,0,0,0,1,,,,,13,1,105,3,212.4703072999996,,,,,,,,,,,,,,,,,,,,,212.45486119999987,212.4703072999996,212.9537105999998,212.95707889999994,212.97137069999962,213.43770189999987,,,,,213.43791569999985,213.45302159999983,213.65312300000005,213.6374168999996,212.97137069999962,,,,,,,,1,1,0.4512813000001188,None,,,,,,,,835,22,V,R,2026-02-25_11h28.11.682,VisualSearch_2526_3,,2025.2.4,2026-02-25 11h28.11.910115 +0100,
vertical.xlsx,The target is tilted.,135,106,2,13,0,1,1,1,0,0,0,0,0,0,0,0,1,3,4,135,space,5.334627499999897,None,0,1,0.6277583000000959,None,space,2.5520046000001457,None,0,0,0,1,,,,,13,2,106,6,213.65312300000005,,,,,,,,,,,,,,,,,,,,,213.63825729999962,213.65312300000005,214.1374010999998,214.1421995999999,214.1615013999999,214.80400499999996,,,,,214.80420149999964,214.81977549999965,215.01946499999985,215.00350660000004,214.1615013999999,,,,,,,,0,1,0.6277583000000959,None,,,,,,,,835,22,V,R,2026-02-25_11h28.11.682,VisualSearch_2526_3,,2025.2.4,2026-02-25 11h28.11.910115 +0100,
vertical.xlsx,The target is tilted.,135,107,3,13,0,1,1,1,1,1,1,1,0,0,0,0,1,7,8,135,space,5.334627499999897,None,0,1,1.2728735000000597,None,space,2.5520046000001457,None,0,0,0,1,,,,,13,3,107,5,215.01946499999985,,,,,,,,,,,,,,,,,,,,,215.00425369999994,215.01946499999985,215.50371629999972,215.50896579999971,215.52511959999993,216.80387119999978,,,,,216.8040514999998,216.81914419999976,217.01957270000003,217.00324909999972,215.52511959999993,,,,,,,,0,1,1.2728735000000597,None,,,,,,,,835,22,V,R,2026-02-25_11h28.11.682,VisualSearch_2526_3,,2025.2.4,2026-02-25 11h28.11.910115 +0100,
vertical.xlsx,The target is tilted.,135,108,4,13,0,1,1,1,1,1,1,1,1,1,1,1,1,11,12,135,space,5.334627499999897,None,0,1,1.8784394999997858,None,space,2.5520046000001457,None,0,0,0,1,,,,,13,4,108,4,217.01957270000003,,,,,,,,,,,,,,,,,,,,,217.0039856999997,217.01957270000003,217.50317529999984,217.50795879999987,217.52478919999976,219.41892859999962,,,,,219.4190306999999,219.43552279999994,,219.619326,217.52478919999976,,,,,,,,0,1,1.8784394999997858,None,,,,,,,,835,22,V,R,2026-02-25_11h28.11.682,VisualSearch_2526_3,,2025.2.4,2026-02-25 11h28.11.910115 +0100,
vertical.xlsx,The target is tilted.,135,109,5,13,1,1,1,1,0,0,0,0,0,0,0,0,0,3,4,135,space,5.334627499999897,None,1,1,0.5139941000002182,None,space,2.5520046000001457,None,0,0,0,1,,,,,13,5,109,2,219.6355979,,,,,,,,,,,,,,,,,,,,,219.6200902999999,219.6355979,220.11929489999966,220.12395369999967,220.14154329999974,220.670032,,,,,220.67023019999988,220.68548569999984,220.88554899999963,220.86946179999995,,,,,,,,,1,1,0.5139941000002182,None,,,,,,,,835,22,V,R,2026-02-25_11h28.11.682,VisualSearch_2526_3,,2025.2.4,2026-02-25 11h28.11.910115 +0100,
vertical.xlsx,The target is tilted.,135,110,6,13,1,1,1,1,1,1,1,1,0,0,0,0,0,7,8,135,space,5.334627499999897,None,1,1,0.6461903999997958,None,space,2.5520046000001457,None,0,0,0,1,,,,,13,6,110,1,220.88554899999963,,,,,,,,,,,,,,,,,,,,,220.87017909999986,220.88554899999963,221.36927769999966,221.37380249999978,221.3902195999999,222.0531277,,,,,222.0533261999999,222.06859929999973,222.26869399999987,222.25213329999997,221.3902195999999,,,,,,,,1,1,0.6461903999997958,None,,,,,,,,835,22,V,R,2026-02-25_11h28.11.682,VisualSearch_2526_3,,2025.2.4,2026-02-25 11h28.11.910115 +0100,
vertical.xlsx,The target is tilted.,135,111,7,13,1,1,1,1,1,1,1,1,1,1,1,1,0,11,12,135,space,5.334627499999897,None,0,0,1.7389102000001913,None,space,2.5520046000001457,None,0,0,0,1,,,,,13,7,111,0,222.26869399999987,,,,,,,,,,,,,,,,,,,,,222.25288189999992,222.26869399999987,222.7520666999999,222.75675139999976,222.7712564999997,224.51921779999975,,,,,224.51939259999972,224.5349041999998,224.73490969999966,224.71880949999968,222.7712564999997,,,,,,,,0,0,1.7389102000001913,None,,,,,,,,835,22,V,R,2026-02-25_11h28.11.682,VisualSearch_2526_3,,2025.2.4,2026-02-25 11h28.11.910115 +0100,
vertical.xlsx,The target is tilted.,135,112,0,14,0,0,0,0,0,0,0,0,0,0,0,0,1,1,1,135,space,5.334627499999897,None,0,1,0.664321100000052,None,space,2.5520046000001457,None,0,0,0,1,,,,,14,0,112,7,224.73490969999966,,,,,,,,,,,,,,,,,,,,,224.71952369999963,224.73490969999966,225.21828159999995,225.22284249999984,225.23469989999967,225.90237639999987,,,,,225.90256399999998,225.91789960000006,226.11785169999985,226.1013198999999,225.23469989999967,,,,,,,,0,1,0.664321100000052,None,,,,,,,,835,22,V,R,2026-02-25_11h28.11.682,VisualSearch_2526_3,,2025.2.4,2026-02-25 11h28.11.910115 +0100,
vertical.xlsx,The target is tilted.,135,113,1,14,0,1,1,1,1,1,1,1,1,1,1,1,1,11,12,135,space,5.334627499999897,None,0,1,0.8812483000001521,None,space,2.5520046000001457,None,0,0,0,1,,,,,14,1,113,4,226.11785169999985,,,,,,,,,,,,,,,,,,,,,226.10206979999975,226.11785169999985,226.60191619999978,226.60646159999988,226.6234854999998,227.51893299999983,,,,,227.51916579999988,227.53425879999986,227.73434610000004,227.71826039999996,226.6234854999998,,,,,,,,0,1,0.8812483000001521,None,,,,,,,,835,22,V,R,2026-02-25_11h28.11.682,VisualSearch_2526_3,,2025.2.4,2026-02-25 11h28.11.910115 +0100,
vertical.xlsx,The target is tilted.,135,114,2,14,1,0,0,0,0,0,0,0,0,0,0,0,0,0,1,135,space,5.334627499999897,None,1,1,0.6014875999999276,None,space,2.5520046000001457,None,0,0,0,1,,,,,14,2,114,3,227.73434610000004,,,,,,,,,,,,,,,,,,,,,227.718973,227.73434610000004,228.21767490000002,228.22223629999962,228.2402735999999,228.85201229999984,,,,,228.85221589999992,228.8674603999998,229.0675395999997,229.05152299999963,228.2402735999999,,,,,,,,1,1,0.6014875999999276,None,,,,,,,,835,22,V,R,2026-02-25_11h28.11.682,VisualSearch_2526_3,,2025.2.4,2026-02-25 11h28.11.910115 +0100,
vertical.xlsx,The target is tilted.,135,115,3,14,0,1,1,1,0,0,0,0,0,0,0,0,1,3,4,135,space,5.334627499999897,None,0,1,0.5824186999998346,None,space,2.5520046000001457,None,0,0,0,1,,,,,14,3,115,6,229.0675395999997,,,,,,,,,,,,,,,,,,,,,229.05226760000005,229.0675395999997,229.5514435,229.5565916999999,229.57303589999992,230.1684353999999,,,,,230.16864639999994,230.18387359999997,230.3834594,230.3673592,229.57303589999992,,,,,,,,0,1,0.5824186999998346,None,,,,,,,,835,22,V,R,2026-02-25_11h28.11.682,VisualSearch_2526_3,,2025.2.4,2026-02-25 11h28.11.910115 +0100,
vertical.xlsx,The target is tilted.,135,116,4,14,1,1,1,1,1,1,1,1,0,0,0,0,0,7,8,135,space,5.334627499999897,None,1,1,0.562050100000306,None,space,2.5520046000001457,None,0,0,0,1,,,,,14,4,116,1,230.3834594,,,,,,,,,,,,,,,,,,,,,230.36796379999987,230.3834594,230.86739679999982,230.87245289999964,230.8892547999999,231.46746099999973,,,,,231.4675688999996,231.48357850000002,231.6837372,231.66751969999996,230.8892547999999,,,,,,,,1,1,0.562050100000306,None,,,,,,,,835,22,V,R,2026-02-25_11h28.11.682,VisualSearch_2526_3,,2025.2.4,2026-02-25 11h28.11.910115 +0100,
vertical.xlsx,The target is tilted.,135,117,5,14,0,1,1,1,1,1,1,1,0,0,0,0,1,7,8,135,space,5.334627499999897,None,0,1,1.0650104999999712,None,space,2.5520046000001457,None,0,0,0,1,,,,,14,5,117,5,231.6837372,,,,,,,,,,,,,,,,,,,,,231.66828589999977,231.6837372,232.1677565,232.17298089999986,232.18834930000003,233.26798770000005,,,,,233.26820989999987,233.28340230000003,233.4834108,233.46730279999974,232.18834930000003,,,,,,,,0,1,1.0650104999999712,None,,,,,,,,835,22,V,R,2026-02-25_11h28.11.682,VisualSearch_2526_3,,2025.2.4,2026-02-25 11h28.11.910115 +0100,
vertical.xlsx,The target is tilted.,135,118,6,14,1,1,1,1,0,0,0,0,0,0,0,0,0,3,4,135,space,5.334627499999897,None,1,1,0.5920280999998795,None,space,2.5520046000001457,None,0,0,0,1,,,,,14,6,118,2,233.4834108,,,,,,,,,,,,,,,,,,,,,233.46804089999978,233.4834108,233.96692589999975,233.97175799999968,233.98507629999995,234.5843651,,,,,234.58456019999994,234.5999686,234.7998961999997,234.78360649999968,233.98507629999995,,,,,,,,1,1,0.5920280999998795,None,,,,,,,,835,22,V,R,2026-02-25_11h28.11.682,VisualSearch_2526_3,,2025.2.4,2026-02-25 11h28.11.910115 +0100,
vertical.xlsx,The target is tilted.,135,119,7,14,1,1,1,1,1,1,1,1,1,1,1,1,0,11,12,135,space,5.334627499999897,None,1,1,1.2109825000002274,None,space,2.5520046000001457,None,0,0,0,1,,,,,14,7,119,0,234.7998961999997,,,,,,,,,,,,,,,,,,,,,234.7843469999998,234.7998961999997,235.2834552999998,235.28764379999984,235.30429979999963,236.51732919999995,,,,,236.51751029999969,236.5326482999999,236.74702409999963,236.71666509999977,235.30429979999963,,,,,,,,1,1,1.2109825000002274,None,,,,,,,,835,22,V,R,2026-02-25_11h28.11.682,VisualSearch_2526_3,,2025.2.4,2026-02-25 11h28.11.910115 +0100,
vertical.xlsx,The target is tilted.,135,0,0,0,,,,,,,,,,,,,,,,,space,5.334627499999897,None,,,,,space,2.5520046000001457,None,0,0,0,1,,,,,,,,,,,,,,,,,,,,,,,,,,,,,,,,,,,,,,,,,,,,,,,,,,,,,,,,,,,,,,,835,22,V,R,2026-02-25_11h28.11.682,VisualSearch_2526_3,,2025.2.4,2026-02-25 11h28.11.910115 +0100,
tilted.xlsx,The target is tilted.,117,0,0,0,1,1,1,1,0,0,0,0,0,0,0,0,0,3,4,117,space,6.431253600000218,None,1,1,0.7971775999999409,None,,,,0,1,1,0,0,0,0,2,,,,,243.21314559999973,,,,,,,,,,,,,,,236.74702409999963,236.74702409999963,236.74702409999963,space,6.431253600000218,None,243.20893369999976,243.21314559999973,243.69888219999984,243.70400870000003,243.72144369999978,244.5324246,1,1,0.7971775999999409,None,244.53262089999998,244.54826449999973,244.74825469999996,244.7318339999997,,,,,,,,,,,,,,,,,,,,835,22,V,R,2026-02-25_11h28.11.682,VisualSearch_2526_3,,2025.2.4,2026-02-25 11h28.11.910115 +0100,
tilted.xlsx,The target is tilted.,117,1,1,0,1,0,0,0,0,0,0,0,0,0,0,0,0,0,1,117,space,6.431253600000218,None,1,1,0.4919073999999455,None,,,,0,1,1,0,0,1,1,3,,,,,244.74825469999996,,,,,,,,,,,,,,,,,,,,,244.73250949999965,244.74825469999996,245.23163429999977,245.2362651999997,245.25289099999964,245.74861789999977,1,1,0.4919073999999455,None,245.74878949999993,245.76460329999964,245.96465609999996,245.94871289999992,245.25289099999964,,,,,,,,,,,,,,,,,,,835,22,V,R,2026-02-25_11h28.11.682,VisualSearch_2526_3,,2025.2.4,2026-02-25 11h28.11.910115 +0100,
tilted.xlsx,The target is tilted.,117,2,2,0,1,1,1,1,1,1,1,1,1,1,1,1,0,11,12,117,space,6.431253600000218,None,1,1,2.0410593000001427,None,,,,0,1,1,0,0,2,2,0,,,,,245.96465609999996,,,,,,,,,,,,,,,,,,,,,245.9493924999997,245.96465609999996,246.44853160000002,246.4530193999999,246.47005839999974,248.5148466999999,1,1,2.0410593000001427,None,248.51502189999974,248.53076439999995,248.73094509999964,248.7142715,246.47005839999974,,,,,,,,,,,,,,,,,,,835,22,V,R,2026-02-25_11h28.11.682,VisualSearch_2526_3,,2025.2.4,2026-02-25 11h28.11.910115 +0100,
tilted.xlsx,The target is tilted.,117,3,3,0,0,0,0,0,0,0,0,0,0,0,0,0,1,1,1,117,space,6.431253600000218,None,0,1,0.5045838999999432,None,,,,0,1,1,0,0,3,3,7,,,,,248.73094509999964,,,,,,,,,,,,,,,,,,,,,248.71488569999974,248.73094509999964,249.2147818999997,249.2197801999996,249.23780289999968,249.74829279999994,0,1,0.5045838999999432,None,249.74846409999964,249.76398040000004,249.96390780000002,249.94789569999966,249.23780289999968,,,,,,,,,,,,,,,,,,,835,22,V,R,2026-02-25_11h28.11.682,VisualSearch_2526_3,,2025.2.4,2026-02-25 11h28.11.910115 +0100,
tilted.xlsx,The target is tilted.,117,4,4,0,0,1,1,1,1,1,1,1,0,0,0,0,1,7,8,117,space,6.431253600000218,None,1,0,1.0587158000003,None,,,,0,1,1,0,0,4,4,5,,,,,249.96390780000002,,,,,,,,,,,,,,,,,,,,,249.94855729999972,249.96390780000002,250.44779359999984,250.45227989999967,250.46936340000002,251.5314126999997,1,0,1.0587158000003,None,251.53158499999972,251.5469810999998,251.7466075999996,251.73038389999965,250.46936340000002,,,,,,,,,,,,,,,,,,,835,22,V,R,2026-02-25_11h28.11.682,VisualSearch_2526_3,,2025.2.4,2026-02-25 11h28.11.910115 +0100,
tilted.xlsx,The target is tilted.,117,5,5,0,0,1,1,1,0,0,0,0,0,0,0,0,1,3,4,117,space,6.431253600000218,None,0,1,1.5780847999999423,None,,,,0,1,1,0,0,5,5,6,,,,,251.7466075999996,,,,,,,,,,,,,,,,,,,,,251.73070979999966,251.7466075999996,252.23048159999962,252.23537159999978,252.2519930999997,253.84669570000005,0,1,1.5780847999999423,None,253.84677929999998,253.86276859999998,254.062946,254.04696419999982,252.2519930999997,,,,,,,,,,,,,,,,,,,835,22,V,R,2026-02-25_11h28.11.682,VisualSearch_2526_3,,2025.2.4,2026-02-25 11h28.11.910115 +0100,
tilted.xlsx,The target is tilted.,117,6,6,0,0,1,1,1,1,1,1,1,1,1,1,1,1,11,12,117,space,6.431253600000218,None,1,0,2.8676549000001614,None,,,,0,1,1,0,0,6,6,4,,,,,254.062946,,,,,,,,,,,,,,,,,,,,,254.04765139999972,254.062946,254.54689740000003,254.55174869999973,254.56931659999964,257.44687399999975,1,0,2.8676549000001614,None,257.4470401999997,257.46225890000005,257.662683,257.6466145999998,,,,,,,,,,,,,,,,,,,,835,22,V,R,2026-02-25_11h28.11.682,VisualSearch_2526_3,,2025.2.4,2026-02-25 11h28.11.910115 +0100,
tilted.xlsx,The target is tilted.,117,7,7,0,1,1,1,1,1,1,1,1,0,0,0,0,0,7,8,117,space,6.431253600000218,None,1,1,1.9912143000001379,None,,,,0,1,1,0,0,7,7,1,,,,,257.662683,,,,,,,,,,,,,,,,,,,,,257.6472948999999,257.662683,258.1466661999998,258.1516499999998,258.1695715999999,260.16293289999976,1,1,1.9912143000001379,None,260.16310410000006,260.1788454999996,260.37895649999973,260.36275579999983,258.1695715999999,,,,,,,,,,,,,,,,,,,835,22,V,R,2026-02-25_11h28.11.682,VisualSearch_2526_3,,2025.2.4,2026-02-25 11h28.11.910115 +0100,
tilted.xlsx,The target is tilted.,117,0,0,0,0,1,1,1,1,1,1,1,0,0,0,0,1,7,8,117,space,6.431253600000218,None,1,0,2.221320300000116,None,space,4.013387699999839,None,0,1,1,0,,,,,0,0,0,5,264.42394179999974,,,,,,,,,,,,,,,,,,,,,264.4193848,264.42394179999974,264.91140559999985,264.91624699999966,264.93324489999986,267.1619252999999,,,,,267.16208849999975,267.17766189999975,267.37777119999964,267.36169549999977,,260.3696166999998,260.37895649999973,260.37895649999973,264.39514819999977,space,4.013387699999839,None,1,0,2.221320300000116,None,,,,,,,,835,22,V,R,2026-02-25_11h28.11.682,VisualSearch_2526_3,,2025.2.4,2026-02-25 11h28.11.910115 +0100,
tilted.xlsx,The target is tilted.,117,1,1,0,0,1,1,1,1,1,1,1,1,1,1,1,1,11,12,117,space,6.431253600000218,None,1,0,3.1636601000000155,None,space,4.013387699999839,None,0,1,1,0,,,,,0,1,1,4,267.37777119999964,,,,,,,,,,,,,,,,,,,,,267.3624195999996,267.37777119999964,267.8616973999997,267.8674597999998,267.88363839999965,271.0612722999999,,,,,271.0614452,271.0769885999998,271.27715569999964,271.26112269999976,267.88363839999965,,,,,,,,1,0,3.1636601000000155,None,,,,,,,,835,22,V,R,2026-02-25_11h28.11.682,VisualSearch_2526_3,,2025.2.4,2026-02-25 11h28.11.910115 +0100,
tilted.xlsx,The target is tilted.,117,2,2,0,1,1,1,1,0,0,0,0,0,0,0,0,0,3,4,117,space,6.431253600000218,None,1,1,1.523086400000011,None,space,4.013387699999839,None,0,1,1,0,,,,,0,2,2,2,271.27715569999964,,,,,,,,,,,,,,,,,,,,,271.2618693999998,271.27715569999964,271.7606853999996,271.76528819999976,271.7817172,273.3109783,,,,,273.31115469999986,273.32667509999965,273.52677479999966,273.51060469999993,271.7817172,,,,,,,,1,1,1.523086400000011,None,,,,,,,,835,22,V,R,2026-02-25_11h28.11.682,VisualSearch_2526_3,,2025.2.4,2026-02-25 11h28.11.910115 +0100,
tilted.xlsx,The target is tilted.,117,3,3,0,1,1,1,1,1,1,1,1,0,0,0,0,0,7,8,117,space,6.431253600000218,None,0,0,4.711433599999964,None,space,4.013387699999839,None,0,1,1,0,,,,,0,3,3,1,273.52677479999966,,,,,,,,,,,,,,,,,,,,,273.51133839999966,273.52677479999966,274.01058109999985,274.0155324999996,274.03167029999986,278.7602202999997,,,,,278.7603992999998,278.7758309999999,278.97587429999976,278.9597074999997,274.03167029999986,,,,,,,,0,0,4.711433599999964,None,,,,,,,,835,22,V,R,2026-02-25_11h28.11.682,VisualSearch_2526_3,,2025.2.4,2026-02-25 11h28.11.910115 +0100,
tilted.xlsx,The target is tilted.,117,4,4,0,1,1,1,1,1,1,1,1,1,1,1,1,0,11,12,117,space,6.431253600000218,None,1,1,2.584715200000119,None,space,4.013387699999839,None,0,1,1,0,,,,,0,4,4,0,278.97587429999976,,,,,,,,,,,,,,,,,,,,,278.9604277999997,278.97587429999976,279.4597349999999,279.46465339999986,279.4815884999998,282.0762273999999,,,,,282.07638929999985,282.0917685999998,282.2915528999997,282.2757865999997,279.4815884999998,,,,,,,,1,1,2.584715200000119,None,,,,,,,,835,22,V,R,2026-02-25_11h28.11.682,VisualSearch_2526_3,,2025.2.4,2026-02-25 11h28.11.910115 +0100,
tilted.xlsx,The target is tilted.,117,5,5,0,0,0,0,0,0,0,0,0,0,0,0,0,1,1,1,117,space,6.431253600000218,None,0,1,0.7100306000002092,None,space,4.013387699999839,None,0,1,1,0,,,,,0,5,5,7,282.2915528999997,,,,,,,,,,,,,,,,,,,,,282.27651719999994,282.2915528999997,282.7753567999998,282.7801030999999,282.7912229999997,283.50954779999984,,,,,283.5097447999997,283.5249673999997,283.72502910000003,283.7088822999999,282.7912229999997,,,,,,,,0,1,0.7100306000002092,None,,,,,,,,835,22,V,R,2026-02-25_11h28.11.682,VisualSearch_2526_3,,2025.2.4,2026-02-25 11h28.11.910115 +0100,
tilted.xlsx,The target is tilted.,117,6,6,0,0,1,1,1,0,0,0,0,0,0,0,0,1,3,4,117,space,6.431253600000218,None,0,1,1.4012292000002162,None,space,4.013387699999839,None,0,1,1,0,,,,,0,6,6,6,283.72502910000003,,,,,,,,,,,,,,,,,,,,,283.7096972999998,283.72502910000003,284.20784379999986,284.2090543999998,284.22470889999977,285.6420441,,,,,285.6422241,285.6579961999996,285.8580714999998,285.8419712,284.22470889999977,,,,,,,,0,1,1.4012292000002162,None,,,,,,,,835,22,V,R,2026-02-25_11h28.11.682,VisualSearch_2526_3,,2025.2.4,2026-02-25 11h28.11.910115 +0100,
tilted.xlsx,The target is tilted.,117,7,7,0,1,0,0,0,0,0,0,0,0,0,0,0,0,0,1,117,space,6.431253600000218,None,1,1,0.6782756999996309,None,space,4.013387699999839,None,0,1,1,0,,,,,0,7,7,3,285.8580714999998,,,,,,,,,,,,,,,,,,,,,285.8426872,285.8580714999998,286.3420022,286.34733519999963,286.36378909999985,287.0587413999997,,,,,287.05893590000005,287.0744087999997,287.2740319999998,287.2584195999998,286.36378909999985,,,,,,,,1,1,0.6782756999996309,None,,,,,,,,835,22,V,R,2026-02-25_11h28.11.682,VisualSearch_2526_3,,2025.2.4,2026-02-25 11h28.11.910115 +0100,
tilted.xlsx,The target is tilted.,117,8,0,1,0,1,1,1,0,0,0,0,0,0,0,0,1,3,4,117,space,6.431253600000218,None,0,1,1.2767613000000892,None,space,4.013387699999839,None,0,1,1,0,,,,,1,0,8,6,287.2740319999998,,,,,,,,,,,,,,,,,,,,,287.25922549999996,287.2740319999998,287.7585732999996,287.763876,287.7804699999997,289.0583284999998,,,,,289.05852449999975,289.0740529999998,289.27412989999993,289.25821210000004,287.7804699999997,,,,,,,,0,1,1.2767613000000892,None,,,,,,,,835,22,V,R,2026-02-25_11h28.11.682,VisualSearch_2526_3,,2025.2.4,2026-02-25 11h28.11.910115 +0100,
tilted.xlsx,The target is tilted.,117,9,1,1,0,1,1,1,1,1,1,1,0,0,0,0,1,7,8,117,space,6.431253600000218,None,1,0,1.684243400000014,None,space,4.013387699999839,None,0,1,1,0,,,,,1,1,9,5,289.27412989999993,,,,,,,,,,,,,,,,,,,,,289.25911959999985,289.27412989999993,289.7577102,289.7628271999997,289.78062269999964,291.47458449999976,,,,,291.4747454999997,291.4902648999996,291.68991229999983,291.6735556999997,289.78062269999964,,,,,,,,1,0,1.684243400000014,None,,,,,,,,835,22,V,R,2026-02-25_11h28.11.682,VisualSearch_2526_3,,2025.2.4,2026-02-25 11h28.11.910115 +0100,
tilted.xlsx,The target is tilted.,117,10,2,1,1,0,0,0,0,0,0,0,0,0,0,0,0,0,1,117,space,6.431253600000218,None,1,1,0.7078722000001108,None,space,4.013387699999839,None,0,1,1,0,,,,,1,2,10,3,291.68991229999983,,,,,,,,,,,,,,,,,,,,,291.67415570000003,291.68991229999983,292.1740196999999,292.17854609999995,292.19486229999984,292.90775099999973,,,,,292.90796,292.9233519999998,293.12344319999966,293.10737359999985,292.19486229999984,,,,,,,,1,1,0.7078722000001108,None,,,,,,,,835,22,V,R,2026-02-25_11h28.11.682,VisualSearch_2526_3,,2025.2.4,2026-02-25 11h28.11.910115 +0100,
tilted.xlsx,The target is tilted.,117,11,3,1,1,1,1,1,1,1,1,1,1,1,1,1,0,11,12,117,space,6.431253600000218,None,1,1,2.669519499999751,None,space,4.013387699999839,None,0,1,1,0,,,,,1,3,11,0,293.12344319999966,,,,,,,,,,,,,,,,,,,,,293.1081242,293.12344319999966,293.60690699999986,293.61151489999975,293.6275258999999,296.3072992999996,,,,,296.30747870000005,296.32281349999994,296.5228310999996,296.5065184,293.6275258999999,,,,,,,,1,1,2.669519499999751,None,,,,,,,,835,22,V,R,2026-02-25_11h28.11.682,VisualSearch_2526_3,,2025.2.4,2026-02-25 11h28.11.910115 +0100,
tilted.xlsx,The target is tilted.,117,12,4,1,1,1,1,1,0,0,0,0,0,0,0,0,0,3,4,117,space,6.431253600000218,None,1,1,1.050725600000078,None,space,4.013387699999839,None,0,1,1,0,,,,,1,4,12,2,296.5228310999996,,,,,,,,,,,,,,,,,,,,,296.5072533999996,296.5228310999996,297.0067417999999,297.0113968999999,297.02805869999975,298.0910796999997,,,,,298.0912707999996,298.1058346,298.3058337999996,298.28980109999975,297.02805869999975,,,,,,,,1,1,1.050725600000078,None,,,,,,,,835,22,V,R,2026-02-25_11h28.11.682,VisualSearch_2526_3,,2025.2.4,2026-02-25 11h28.11.910115 +0100,
tilted.xlsx,The target is tilted.,117,13,5,1,0,1,1,1,1,1,1,1,1,1,1,1,1,11,12,117,space,6.431253600000218,None,0,1,3.3728934999999183,None,space,4.013387699999839,None,0,1,1,0,,,,,1,5,13,4,298.3058337999996,,,,,,,,,,,,,,,,,,,,,298.29051419999996,298.3058337999996,298.7893813999999,298.7940276999998,298.8101566,302.18992609999987,,,,,302.1901432999998,302.2048421999998,302.40528059999997,302.38911899999994,298.8101566,,,,,,,,0,1,3.3728934999999183,None,,,,,,,,835,22,V,R,2026-02-25_11h28.11.682,VisualSearch_2526_3,,2025.2.4,2026-02-25 11h28.11.910115 +0100,
tilted.xlsx,The target is tilted.,117,14,6,1,0,0,0,0,0,0,0,0,0,0,0,0,1,1,1,117,space,6.431253600000218,None,0,1,0.8918386999998802,None,space,4.013387699999839,None,0,1,1,0,,,,,1,6,14,7,302.40528059999997,,,,,,,,,,,,,,,,,,,,,302.38989219999985,302.40528059999997,302.88907629999994,302.8936604999999,302.9050251999997,303.8064202999999,,,,,303.80659259999993,303.8212917999999,304.02147079999986,304.0055407,302.9050251999997,,,,,,,,0,1,0.8918386999998802,None,,,,,,,,835,22,V,R,2026-02-25_11h28.11.682,VisualSearch_2526_3,,2025.2.4,2026-02-25 11h28.11.910115 +0100,
tilted.xlsx,The target is tilted.,117,15,7,1,1,1,1,1,1,1,1,1,0,0,0,0,0,7,8,117,space,6.431253600000218,None,1,1,2.1071570999997675,None,space,4.013387699999839,None,0,1,1,0,,,,,1,7,15,1,304.02147079999986,,,,,,,,,,,,,,,,,,,,,304.00626799999964,304.02147079999986,304.5055493,304.5104919999999,304.5287008999999,306.63880500000005,,,,,306.6389777999998,306.6541069,306.8543821999997,306.83763999999974,304.5287008999999,,,,,,,,1,1,2.1071570999997675,None,,,,,,,,835,22,V,R,2026-02-25_11h28.11.682,VisualSearch_2526_3,,2025.2.4,2026-02-25 11h28.11.910115 +0100,
tilted.xlsx,The target is tilted.,117,16,0,2,0,1,1,1,1,1,1,1,1,1,1,1,1,11,12,117,space,6.431253600000218,None,0,1,4.69688750000023,None,space,4.013387699999839,None,0,1,1,0,,,,,2,0,16,4,306.8543821999997,,,,,,,,,,,,,,,,,,,,,306.8382233999996,306.8543821999997,307.33832189999976,307.34283549999964,307.36017159999983,312.0711532999999,,,,,312.07131230000005,312.0868231999998,312.2869192999997,312.2708518999998,307.36017159999983,,,,,,,,0,1,4.69688750000023,None,,,,,,,,835,22,V,R,2026-02-25_11h28.11.682,VisualSearch_2526_3,,2025.2.4,2026-02-25 11h28.11.910115 +0100,
tilted.xlsx,The target is tilted.,117,17,1,2,1,0,0,0,0,0,0,0,0,0,0,0,0,0,1,117,space,6.431253600000218,None,1,1,0.7755383999997321,None,space,4.013387699999839,None,0,1,1,0,,,,,2,1,17,3,312.2869192999997,,,,,,,,,,,,,,,,,,,,,312.2715796999996,312.2869192999997,312.77067020000004,312.77533700000004,312.7915688999997,313.57012339999983,,,,,313.5702140999997,313.5862651999996,313.78655039999967,313.77035909999995,312.7915688999997,,,,,,,,1,1,0.7755383999997321,None,,,,,,,,835,22,V,R,2026-02-25_11h28.11.682,VisualSearch_2526_3,,2025.2.4,2026-02-25 11h28.11.910115 +0100,
tilted.xlsx,The target is tilted.,117,18,2,2,0,1,1,1,1,1,1,1,0,0,0,0,1,7,8,117,space,6.431253600000218,None,0,1,2.266999499999656,None,space,4.013387699999839,None,0,1,1,0,,,,,2,2,18,5,313.78655039999967,,,,,,,,,,,,,,,,,,,,,313.77121149999994,313.78655039999967,314.2705338999999,314.27508499999976,314.29187679999995,316.5705588999999,,,,,316.57073409999975,316.58607759999995,316.78579809999974,316.77009359999965,314.29187679999995,,,,,,,,0,1,2.266999499999656,None,,,,,,,,835,22,V,R,2026-02-25_11h28.11.682,VisualSearch_2526_3,,2025.2.4,2026-02-25 11h28.11.910115 +0100,
tilted.xlsx,The target is tilted.,117,19,3,2,0,0,0,0,0,0,0,0,0,0,0,0,1,1,1,117,space,6.431253600000218,None,0,1,0.8142195999998876,None,space,4.013387699999839,None,0,1,1,0,,,,,2,3,19,7,316.78579809999974,,,,,,,,,,,,,,,,,,,,,316.7708146,316.78579809999974,317.2699149,317.2745697999999,317.2913660999998,318.119682,,,,,318.1197591,318.13558509999984,318.3359409999998,318.3196872999997,317.2913660999998,,,,,,,,0,1,0.8142195999998876,None,,,,,,,,835,22,V,R,2026-02-25_11h28.11.682,VisualSearch_2526_3,,2025.2.4,2026-02-25 11h28.11.910115 +0100,
tilted.xlsx,The target is tilted.,117,20,4,2,1,1,1,1,1,1,1,1,1,1,1,1,0,11,12,117,space,6.431253600000218,None,0,0,3.439507699999922,None,space,4.013387699999839,None,0,1,1,0,,,,,2,4,20,0,318.3359409999998,,,,,,,,,,,,,,,,,,,,,318.32047369999964,318.3359409999998,318.8200975999998,318.82504279999966,318.84256119999964,322.28581749999967,,,,,322.2859847999998,322.3013541,322.5015277999996,322.4856956999997,318.84256119999964,,,,,,,,0,0,3.439507699999922,None,,,,,,,,835,22,V,R,2026-02-25_11h28.11.682,VisualSearch_2526_3,,2025.2.4,2026-02-25 11h28.11.910115 +0100,
tilted.xlsx,The target is tilted.,117,21,5,2,0,1,1,1,0,0,0,0,0,0,0,0,1,3,4,117,space,6.431253600000218,None,0,1,1.15500800000018,None,space,4.013387699999839,None,0,1,1,0,,,,,2,5,21,6,322.5015277999996,,,,,,,,,,,,,,,,,,,,,322.4864536,322.5015277999996,322.98569799999996,322.9902041,323.00566469999967,324.16928229999985,,,,,324.16945929999974,324.1847945999998,324.3849226999996,324.3688503999997,323.00566469999967,,,,,,,,0,1,1.15500800000018,None,,,,,,,,835,22,V,R,2026-02-25_11h28.11.682,VisualSearch_2526_3,,2025.2.4,2026-02-25 11h28.11.910115 +0100,
tilted.xlsx,The target is tilted.,117,22,6,2,1,1,1,1,1,1,1,1,0,0,0,0,0,7,8,117,space,6.431253600000218,None,1,1,1.297494800000095,None,space,4.013387699999839,None,0,1,1,0,,,,,2,6,22,1,324.3849226999996,,,,,,,,,,,,,,,,,,,,,324.3696216999997,324.3849226999996,324.8684086999997,324.87318159999995,324.89007360000005,326.2023651999998,,,,,326.2025421999997,326.2178236,326.4179715,326.4018186999997,324.89007360000005,,,,,,,,1,1,1.297494800000095,None,,,,,,,,835,22,V,R,2026-02-25_11h28.11.682,VisualSearch_2526_3,,2025.2.4,2026-02-25 11h28.11.910115 +0100,
tilted.xlsx,The target is tilted.,117,23,7,2,1,1,1,1,0,0,0,0,0,0,0,0,0,3,4,117,space,6.431253600000218,None,1,1,0.852671200000259,None,space,4.013387699999839,None,0,1,1,0,,,,,2,7,23,2,326.4179715,,,,,,,,,,,,,,,,,,,,,326.4025380999997,326.4179715,326.90173989999994,326.90636730000006,326.92436329999964,327.7851648999999,,,,,327.7853703999999,327.8009643999999,328.00097529999994,327.9847473,326.92436329999964,,,,,,,,1,1,0.852671200000259,None,,,,,,,,835,22,V,R,2026-02-25_11h28.11.682,VisualSearch_2526_3,,2025.2.4,2026-02-25 11h28.11.910115 +0100,
tilted.xlsx,The target is tilted.,117,24,0,3,0,1,1,1,1,1,1,1,0,0,0,0,1,7,8,117,space,6.431253600000218,None,0,1,1.9184570000002168,None,space,4.013387699999839,None,0,1,1,0,,,,,3,0,24,5,328.00097529999994,,,,,,,,,,,,,,,,,,,,,327.98553479999964,328.00097529999994,328.4847357999997,328.4892781999997,328.50848159999987,330.43465209999977,,,,,330.4348299999997,330.4501212,330.65040599999975,330.6342765999998,328.50848159999987,,,,,,,,0,1,1.9184570000002168,None,,,,,,,,835,22,V,R,2026-02-25_11h28.11.682,VisualSearch_2526_3,,2025.2.4,2026-02-25 11h28.11.910115 +0100,
tilted.xlsx,The target is tilted.,117,25,1,3,1,0,0,0,0,0,0,0,0,0,0,0,0,0,1,117,space,6.431253600000218,None,1,1,0.6392038999997567,None,space,4.013387699999839,None,0,1,1,0,,,,,3,1,25,3,330.65040599999975,,,,,,,,,,,,,,,,,,,,,330.63504999999986,330.65040599999975,331.13426660000005,331.1390299999998,331.1503828,331.80145219999986,,,,,331.80164669999976,331.8169229,332.01662499999975,332.00129739999966,331.1503828,,,,,,,,1,1,0.6392038999997567,None,,,,,,,,835,22,V,R,2026-02-25_11h28.11.682,VisualSearch_2526_3,,2025.2.4,2026-02-25 11h28.11.910115 +0100,
tilted.xlsx,The target is tilted.,117,26,2,3,0,1,1,1,0,0,0,0,0,0,0,0,1,3,4,117,space,6.431253600000218,None,0,1,1.02193699999998,None,space,4.013387699999839,None,0,1,1,0,,,,,3,2,26,6,332.01662499999975,,,,,,,,,,,,,,,,,,,,,332.0021042999997,332.01662499999975,332.5008751999999,332.5061658999998,332.5230327999998,333.5510756999997,,,,,333.5512709999998,333.56662830000005,333.76620249999996,333.7502677999996,332.5230327999998,,,,,,,,0,1,1.02193699999998,None,,,,,,,,835,22,V,R,2026-02-25_11h28.11.682,VisualSearch_2526_3,,2025.2.4,2026-02-25 11h28.11.910115 +0100,
tilted.xlsx,The target is tilted.,117,27,3,3,0,1,1,1,1,1,1,1,1,1,1,1,1,11,12,117,space,6.431253600000218,None,0,1,2.386168699999871,None,space,4.013387699999839,None,0,1,1,0,,,,,3,3,27,4,333.76620249999996,,,,,,,,,,,,,,,,,,,,,333.7515773,333.76620249999996,334.25038659999973,334.2556639999998,334.2725522999999,336.6671842999999,,,,,336.66736079999964,336.68271649999997,336.88275559999965,336.8666453999999,334.2725522999999,,,,,,,,0,1,2.386168699999871,None,,,,,,,,835,22,V,R,2026-02-25_11h28.11.682,VisualSearch_2526_3,,2025.2.4,2026-02-25 11h28.11.910115 +0100,
tilted.xlsx,The target is tilted.,117,28,4,3,0,0,0,0,0,0,0,0,0,0,0,0,1,1,1,117,space,6.431253600000218,None,0,1,0.6402994999998555,None,space,4.013387699999839,None,0,1,1,0,,,,,3,4,28,7,336.88275559999965,,,,,,,,,,,,,,,,,,,,,336.8674764999996,336.88275559999965,337.36668740000005,337.3718979,337.3870960999998,338.0336677,,,,,338.03386439999986,338.0491855,338.2494078,338.2329913999997,337.3870960999998,,,,,,,,0,1,0.6402994999998555,None,,,,,,,,835,22,V,R,2026-02-25_11h28.11.682,VisualSearch_2526_3,,2025.2.4,2026-02-25 11h28.11.910115 +0100,
tilted.xlsx,The target is tilted.,117,29,5,3,1,1,1,1,1,1,1,1,1,1,1,1,0,11,12,117,space,6.431253600000218,None,1,1,0.6937355999998545,None,space,4.013387699999839,None,0,1,1,0,,,,,3,5,29,0,338.2494078,,,,,,,,,,,,,,,,,,,,,338.2337424999996,338.2494078,338.7329370999996,338.7374953999997,338.7532385999998,339.4502424999996,,,,,339.45045709999977,339.4657312999998,339.66567989999976,339.64941769999996,338.7532385999998,,,,,,,,1,1,0.6937355999998545,None,,,,,,,,835,22,V,R,2026-02-25_11h28.11.682,VisualSearch_2526_3,,2025.2.4,2026-02-25 11h28.11.910115 +0100,
tilted.xlsx,The target is tilted.,117,30,6,3,1,1,1,1,1,1,1,1,0,0,0,0,0,7,8,117,space,6.431253600000218,None,0,0,1.6508708000001207,None,space,4.013387699999839,None,0,1,1,0,,,,,3,6,30,1,339.66567989999976,,,,,,,,,,,,,,,,,,,,,339.650161,339.66567989999976,340.1492739999999,340.15383539999993,340.1712751,341.8328296999998,,,,,341.8330151,341.84854670000004,342.04868069999975,342.03214309999976,340.1712751,,,,,,,,0,0,1.6508708000001207,None,,,,,,,,835,22,V,R,2026-02-25_11h28.11.682,VisualSearch_2526_3,,2025.2.4,2026-02-25 11h28.11.910115 +0100,
tilted.xlsx,The target is tilted.,117,31,7,3,1,1,1,1,0,0,0,0,0,0,0,0,0,3,4,117,space,6.431253600000218,None,1,1,1.1697179999996479,None,space,4.013387699999839,None,0,1,1,0,,,,,3,7,31,2,342.04868069999975,,,,,,,,,,,,,,,,,,,,,342.0329007999999,342.04868069999975,342.5320643,342.53679109999985,342.55282099999977,343.73252939999975,,,,,343.7327197999998,343.7479380999998,343.9483482999999,343.9317613999997,342.55282099999977,,,,,,,,1,1,1.1697179999996479,None,,,,,,,,835,22,V,R,2026-02-25_11h28.11.682,VisualSearch_2526_3,,2025.2.4,2026-02-25 11h28.11.910115 +0100,
tilted.xlsx,The target is tilted.,117,32,0,4,1,1,1,1,1,1,1,1,0,0,0,0,0,7,8,117,space,6.431253600000218,None,0,0,2.9565684999997757,None,space,4.013387699999839,None,0,1,1,0,,,,,4,0,32,1,343.9483482999999,,,,,,,,,,,,,,,,,,,,,343.93250439999974,343.9483482999999,344.43200709999974,344.4369416999998,344.4554060999999,347.41487879999977,,,,,347.41508129999966,347.43054429999984,347.6311645999999,347.6148184999997,344.4554060999999,,,,,,,,0,0,2.9565684999997757,None,,,,,,,,835,22,V,R,2026-02-25_11h28.11.682,VisualSearch_2526_3,,2025.2.4,2026-02-25 11h28.11.910115 +0100,
tilted.xlsx,The target is tilted.,117,33,1,4,0,0,0,0,0,0,0,0,0,0,0,0,1,1,1,117,space,6.431253600000218,None,0,1,0.6476513999996314,None,space,4.013387699999839,None,0,1,1,0,,,,,4,1,33,7,347.6311645999999,,,,,,,,,,,,,,,,,,,,,347.61557429999993,347.6311645999999,348.1147063999997,348.11946739999985,348.1390032999998,348.7984953,,,,,348.7986714999997,348.81397319999996,349.0141813,348.99818000000005,348.1390032999998,,,,,,,,0,1,0.6476513999996314,None,,,,,,,,835,22,V,R,2026-02-25_11h28.11.682,VisualSearch_2526_3,,2025.2.4,2026-02-25 11h28.11.910115 +0100,
tilted.xlsx,The target is tilted.,117,34,2,4,0,1,1,1,0,0,0,0,0,0,0,0,1,3,4,117,space,6.431253600000218,None,0,1,1.3182701000000634,None,space,4.013387699999839,None,0,1,1,0,,,,,4,2,34,6,349.0141813,,,,,,,,,,,,,,,,,,,,,348.99899159999995,349.0141813,349.4982058999999,349.5030334999997,349.51382429999967,350.84821599999987,,,,,350.8483928999999,350.8637848999997,351.0637693999997,351.0477278999997,349.51382429999967,,,,,,,,0,1,1.3182701000000634,None,,,,,,,,835,22,V,R,2026-02-25_11h28.11.682,VisualSearch_2526_3,,2025.2.4,2026-02-25 11h28.11.910115 +0100,
