file_name,block_instructions,target_example,thisN,thisTrialN,thisRepN,target_presence,opacity_1,opacity_2,opacity_3,opacity_4,opacity_5,opacity_6,opacity_7,opacity_8,opacity_9,opacity_10,opacity_11,opacity_12,n_distract,n_items,target_ori,key_resp_4.keys,key_resp_4.rt,key_resp_4.duration,key_resp.keys,key_resp.corr,key_resp.rt,key_resp.duration,key_resp_5.keys,key_resp_5.rt,key_resp_5.duration,blocks.thisRepN,blocks.thisTrialN,blocks.thisN,blocks.thisIndex,practice_trials.thisRepN,practice_trials.thisTrialN,practice_trials.thisN,practice_trials.thisIndex,trials.thisRepN,trials.thisTrialN,trials.thisN,trials.thisIndex,thisRow.t,notes,Welcome.started,WelcomeText.started,key_resp_2.started,Welcome.stopped,key_resp_2.keys,key_resp_2.rt,key_resp_2.duration,InformedConsent.started,text_4.started,InformedConsent.stopped,key_resp_6.keys,key_resp_6.rt,key_resp_6.duration,key_resp_4.started,example_target.started,text_3.started,blocks.key_resp_4.keys,blocks.key_resp_4.rt,blocks.key_resp_4.duration,FixCross.started,fixCross.started,FixCross.stopped,Stimulus.started,key_resp.started,Stimulus.stopped,practice_trials.key_resp.keys,practice_trials.key_resp.corr,practice_trials.key_resp.rt,practice_trials.key_resp.duration,BlankScreen.started,text.started,text.stopped,BlankScreen.stopped,fixCross.stopped,ExperimentStart.started,text_2.started,key_resp_5.started,ExperimentStart.stopped,blocks.key_resp_5.keys,blocks.key_resp_5.rt,blocks.key_resp_5.duration,trials.key_resp.keys,trials.key_resp.corr,trials.key_resp.rt,trials.key_resp.duration,Thanks.started,ThankYou.started,key_resp_3.started,Thanks.stopped,key_resp_3.keys,key_resp_3.rt,key_resp_3.duration,participant,leeftijd,gender,links/rechtshandig,date,expName,expVersion,psychopyVersion,expStart,
,,,,,,,,,,,,,,,,,,,,,,,,,,,,,,,,,,,,,,,,,,,,,,0.025708099999974365,0.055312899999989895,0.055312899999989895,22.149108200000228,space,22.080815299999813,None,,,,,,,,,,,,,,,,,,,,,,,,,,,,,,,,,,,,,,,,,,,,,,836,21,V,R,2026-02-25_11h39.57.914,VisualSearch_2526_3,,2025.2.4,2026-02-25 11h39.58.142564 +0100,
,,,,,,,,,,,,,,,,,,,,,,,,,,,,,,,,,,,,,,,,,,,,,,,,,,,,,22.14923080000017,22.157045100000232,25.82053739999992,y,3.6675664999997935,None,,,,,,,,,,,,,,,,,,,,,,,,,,,,,,,,,,,,,,,,836,21,V,R,2026-02-25_11h39.57.914,VisualSearch_2526_3,,2025.2.4,2026-02-25 11h39.58.142564 +0100,
tilted.xlsx,The target is tilted.,117,0,0,0,0,1,1,1,1,1,1,1,1,1,1,1,1,11,12,117,space,6.798610899999858,None,1,0,2.303219700000227,None,,,,0,0,0,0,0,0,0,4,,,,,32.69647179999993,,,,,,,,,,,,,,,25.86256000000003,25.86256000000003,25.86256000000003,space,6.798610899999858,None,32.691169600000194,32.69647179999993,33.184149700000034,33.18717289999995,33.20081250000021,35.51828479999995,1,0,2.303219700000227,None,35.51844250000022,35.53391640000018,35.734023100000286,35.717763600000126,,,,,,,,,,,,,,,,,,,,836,21,V,R,2026-02-25_11h39.57.914,VisualSearch_2526_3,,2025.2.4,2026-02-25 11h39.58.142564 +0100,
tilted.xlsx,The target is tilted.,117,1,1,0,1,1,1,1,1,1,1,1,0,0,0,0,0,7,8,117,space,6.798610899999858,None,1,1,3.0087862000000314,None,,,,0,0,0,0,0,1,1,1,,,,,35.734023100000286,,,,,,,,,,,,,,,,,,,,,35.71839390000014,35.734023100000286,36.21765210000012,36.22246360000008,36.238961400000335,39.25106670000014,1,1,3.0087862000000314,None,39.25122080000028,39.26680299999998,39.46671289999995,39.45007450000003,36.238961400000335,,,,,,,,,,,,,,,,,,,836,21,V,R,2026-02-25_11h39.57.914,VisualSearch_2526_3,,2025.2.4,2026-02-25 11h39.58.142564 +0100,
tilted.xlsx,The target is tilted.,117,2,2,0,1,1,1,1,0,0,0,0,0,0,0,0,0,3,4,117,space,6.798610899999858,None,1,1,1.313854800000172,None,,,,0,0,0,0,0,2,2,2,,,,,39.46671289999995,,,,,,,,,,,,,,,,,,,,,39.450720900000306,39.46671289999995,39.95022340000014,39.954926200000045,39.9719041000003,41.300092100000256,1,1,1.313854800000172,None,41.300245299999915,41.31570430000011,41.51634540000032,41.49981210000033,39.9719041000003,,,,,,,,,,,,,,,,,,,836,21,V,R,2026-02-25_11h39.57.914,VisualSearch_2526_3,,2025.2.4,2026-02-25 11h39.58.142564 +0100,
tilted.xlsx,The target is tilted.,117,3,3,0,0,0,0,0,0,0,0,0,0,0,0,0,1,1,1,117,space,6.798610899999858,None,0,1,0.9850901999998314,None,,,,0,0,0,0,0,3,3,7,,,,,41.51634540000032,,,,,,,,,,,,,,,,,,,,,41.500488900000164,41.51634540000032,42.000083599999925,42.0047626999999,42.02112320000015,43.016907100000026,0,1,0.9850901999998314,None,43.017061900000044,43.03217919999997,43.23273050000034,43.21643660000018,42.02112320000015,,,,,,,,,,,,,,,,,,,836,21,V,R,2026-02-25_11h39.57.914,VisualSearch_2526_3,,2025.2.4,2026-02-25 11h39.58.142564 +0100,
tilted.xlsx,The target is tilted.,117,4,4,0,1,1,1,1,1,1,1,1,1,1,1,1,0,11,12,117,space,6.798610899999858,None,1,1,2.7079367999999704,None,,,,0,0,0,0,0,4,4,0,,,,,43.23273050000034,,,,,,,,,,,,,,,,,,,,,43.21711860000005,43.23273050000034,43.71658310000021,43.721310899999935,43.738519700000325,46.449772100000246,1,1,2.7079367999999704,None,46.44995760000029,46.46490530000028,46.665464000000156,46.649270100000194,43.738519700000325,,,,,,,,,,,,,,,,,,,836,21,V,R,2026-02-25_11h39.57.914,VisualSearch_2526_3,,2025.2.4,2026-02-25 11h39.58.142564 +0100,
tilted.xlsx,The target is tilted.,117,5,5,0,0,1,1,1,0,0,0,0,0,0,0,0,1,3,4,117,space,6.798610899999858,None,0,1,1.0421833999998853,None,,,,0,0,0,0,0,5,5,6,,,,,46.665464000000156,,,,,,,,,,,,,,,,,,,,,46.64987969999993,46.665464000000156,47.14924109999993,47.153934299999946,47.16980960000001,48.21583559999999,0,1,1.0421833999998853,None,48.21600360000002,48.231303200000184,48.43167949999997,48.41511880000007,47.16980960000001,,,,,,,,,,,,,,,,,,,836,21,V,R,2026-02-25_11h39.57.914,VisualSearch_2526_3,,2025.2.4,2026-02-25 11h39.58.142564 +0100,
tilted.xlsx,The target is tilted.,117,6,6,0,1,0,0,0,0,0,0,0,0,0,0,0,0,0,1,117,space,6.798610899999858,None,1,1,0.8202642000001106,None,,,,0,0,0,0,0,6,6,3,,,,,48.43167949999997,,,,,,,,,,,,,,,,,,,,,48.415648800000326,48.43167949999997,48.91564590000007,48.92028170000003,48.93750339999997,49.76593890000004,1,1,0.8202642000001106,None,49.766109700000015,49.78107309999996,49.98149420000027,49.964843499999915,48.93750339999997,,,,,,,,,,,,,,,,,,,836,21,V,R,2026-02-25_11h39.57.914,VisualSearch_2526_3,,2025.2.4,2026-02-25 11h39.58.142564 +0100,
tilted.xlsx,The target is tilted.,117,7,7,0,0,1,1,1,1,1,1,1,0,0,0,0,1,7,8,117,space,6.798610899999858,None,0,1,2.1800568000003295,None,,,,0,0,0,0,0,7,7,5,,,,,49.98149420000027,,,,,,,,,,,,,,,,,,,,,49.9654330000003,49.98149420000027,50.46546000000035,50.47014029999991,50.48682340000005,52.68165309999995,0,1,2.1800568000003295,None,52.681848700000046,52.6970123000001,52.897801900000104,52.88149290000001,50.48682340000005,,,,,,,,,,,,,,,,,,,836,21,V,R,2026-02-25_11h39.57.914,VisualSearch_2526_3,,2025.2.4,2026-02-25 11h39.58.142564 +0100,
tilted.xlsx,The target is tilted.,117,0,0,0,1,1,1,1,1,1,1,1,1,1,1,1,0,11,12,117,space,6.798610899999858,None,0,0,3.253537099999903,None,space,3.2129707999997663,None,0,0,0,0,,,,,0,0,0,0,56.14798310000015,,,,,,,,,,,,,,,,,,,,,56.14375240000027,56.14798310000015,56.630533300000025,56.63601010000002,56.65375919999997,59.914170600000034,,,,,59.914354300000014,59.929371000000174,60.12980520000019,60.11339590000034,,52.88859750000029,52.897801900000104,52.897801900000104,56.114684600000146,space,3.2129707999997663,None,0,0,3.253537099999903,None,,,,,,,,836,21,V,R,2026-02-25_11h39.57.914,VisualSearch_2526_3,,2025.2.4,2026-02-25 11h39.58.142564 +0100,
tilted.xlsx,The target is tilted.,117,1,1,0,0,1,1,1,1,1,1,1,0,0,0,0,1,7,8,117,space,6.798610899999858,None,0,1,2.2484795999998823,None,space,3.2129707999997663,None,0,0,0,0,,,,,0,1,1,5,60.12980520000019,,,,,,,,,,,,,,,,,,,,,60.11410730000034,60.12980520000019,60.61364410000033,60.618421800000306,60.63431040000023,62.896307400000296,,,,,62.89646369999991,62.91208790000019,63.112387500000295,63.09614210000018,60.63431040000023,,,,,,,,0,1,2.2484795999998823,None,,,,,,,,836,21,V,R,2026-02-25_11h39.57.914,VisualSearch_2526_3,,2025.2.4,2026-02-25 11h39.58.142564 +0100,
tilted.xlsx,The target is tilted.,117,2,2,0,0,1,1,1,0,0,0,0,0,0,0,0,1,3,4,117,space,6.798610899999858,None,0,1,1.0469441999998708,None,space,3.2129707999997663,None,0,0,0,0,,,,,0,2,2,6,63.112387500000295,,,,,,,,,,,,,,,,,,,,,63.0968327999999,63.112387500000295,63.596480500000325,63.60116210000024,63.61839790000022,64.6794516,,,,,64.67961490000016,64.69511560000001,64.89562660000001,64.87967819999994,63.61839790000022,,,,,,,,0,1,1.0469441999998708,None,,,,,,,,836,21,V,R,2026-02-25_11h39.57.914,VisualSearch_2526_3,,2025.2.4,2026-02-25 11h39.58.142564 +0100,
tilted.xlsx,The target is tilted.,117,3,3,0,1,1,1,1,1,1,1,1,0,0,0,0,0,7,8,117,space,6.798610899999858,None,1,1,1.5956964999995762,None,space,3.2129707999997663,None,0,0,0,0,,,,,0,3,3,1,64.89562660000001,,,,,,,,,,,,,,,,,,,,,64.88040210000008,64.89562660000001,65.37881480000033,65.38242200000013,65.39487640000016,66.9962602999999,,,,,66.99645610000016,67.0114480000002,67.2119705,67.19582270000001,65.39487640000016,,,,,,,,1,1,1.5956964999995762,None,,,,,,,,836,21,V,R,2026-02-25_11h39.57.914,VisualSearch_2526_3,,2025.2.4,2026-02-25 11h39.58.142564 +0100,
tilted.xlsx,The target is tilted.,117,4,4,0,1,1,1,1,0,0,0,0,0,0,0,0,0,3,4,117,space,6.798610899999858,None,1,1,0.8956285999997817,None,space,3.2129707999997663,None,0,0,0,0,,,,,0,4,4,2,67.2119705,,,,,,,,,,,,,,,,,,,,,67.19667370000025,67.2119705,67.69581040000003,67.70065969999996,67.71185540000033,68.61223270000028,,,,,68.61236460000009,68.62785340000028,68.82840720000013,68.81221950000008,67.71185540000033,,,,,,,,1,1,0.8956285999997817,None,,,,,,,,836,21,V,R,2026-02-25_11h39.57.914,VisualSearch_2526_3,,2025.2.4,2026-02-25 11h39.58.142564 +0100,
tilted.xlsx,The target is tilted.,117,5,5,0,0,1,1,1,1,1,1,1,1,1,1,1,1,11,12,117,space,6.798610899999858,None,0,1,2.9601886999998896,None,space,3.2129707999997663,None,0,0,0,0,,,,,0,5,5,4,68.82840720000013,,,,,,,,,,,,,,,,,,,,,68.81296550000025,68.82840720000013,69.31209290000015,69.31681200000003,69.32824729999993,72.29551750000019,,,,,72.29570820000026,72.31060479999996,72.5109493,72.49483980000014,69.32824729999993,,,,,,,,0,1,2.9601886999998896,None,,,,,,,,836,21,V,R,2026-02-25_11h39.57.914,VisualSearch_2526_3,,2025.2.4,2026-02-25 11h39.58.142564 +0100,
tilted.xlsx,The target is tilted.,117,6,6,0,1,0,0,0,0,0,0,0,0,0,0,0,0,0,1,117,space,6.798610899999858,None,1,1,0.6094900000002781,None,space,3.2129707999997663,None,0,0,0,0,,,,,0,6,6,3,72.5109493,,,,,,,,,,,,,,,,,,,,,72.49549610000031,72.5109493,72.99494690000029,72.99960680000004,73.01448860000028,73.62832100000014,,,,,73.62849860000006,73.6437175000001,73.84426070000018,73.82819199999994,73.01448860000028,,,,,,,,1,1,0.6094900000002781,None,,,,,,,,836,21,V,R,2026-02-25_11h39.57.914,VisualSearch_2526_3,,2025.2.4,2026-02-25 11h39.58.142564 +0100,
tilted.xlsx,The target is tilted.,117,7,7,0,0,0,0,0,0,0,0,0,0,0,0,0,1,1,1,117,space,6.798610899999858,None,0,1,0.6502811999998812,None,space,3.2129707999997663,None,0,0,0,0,,,,,0,7,7,7,73.84426070000018,,,,,,,,,,,,,,,,,,,,,73.82892530000026,73.84426070000018,74.32808710000018,74.33273320000035,74.34993310000027,75.01158119999991,,,,,75.01177860000007,75.0268831000003,75.22743080000009,75.2108776,74.34993310000027,,,,,,,,0,1,0.6502811999998812,None,,,,,,,,836,21,V,R,2026-02-25_11h39.57.914,VisualSearch_2526_3,,2025.2.4,2026-02-25 11h39.58.142564 +0100,
tilted.xlsx,The target is tilted.,117,8,0,1,1,0,0,0,0,0,0,0,0,0,0,0,0,0,1,117,space,6.798610899999858,None,1,1,0.6859667999997328,None,space,3.2129707999997663,None,0,0,0,0,,,,,1,0,8,3,75.22743080000009,,,,,,,,,,,,,,,,,,,,,75.21163950000027,75.22743080000009,75.71082120000028,75.71551810000028,75.73224600000003,76.42833430000019,,,,,76.42853229999992,76.44327250000015,76.64384700000028,76.62767630000008,75.73224600000003,,,,,,,,1,1,0.6859667999997328,None,,,,,,,,836,21,V,R,2026-02-25_11h39.57.914,VisualSearch_2526_3,,2025.2.4,2026-02-25 11h39.58.142564 +0100,
tilted.xlsx,The target is tilted.,117,9,1,1,1,1,1,1,1,1,1,1,1,1,1,1,0,11,12,117,space,6.798610899999858,None,1,1,1.0805543000001308,None,space,3.2129707999997663,None,0,0,0,0,,,,,1,1,9,0,76.64384700000028,,,,,,,,,,,,,,,,,,,,,76.62840020000021,76.64384700000028,77.1278325000003,77.13307729999997,77.15033399999993,78.24399410000024,,,,,78.24420069999996,78.25950310000007,78.46008810000012,78.4438739000002,77.15033399999993,,,,,,,,1,1,1.0805543000001308,None,,,,,,,,836,21,V,R,2026-02-25_11h39.57.914,VisualSearch_2526_3,,2025.2.4,2026-02-25 11h39.58.142564 +0100,
tilted.xlsx,The target is tilted.,117,10,2,1,0,1,1,1,1,1,1,1,0,0,0,0,1,7,8,117,space,6.798610899999858,None,0,1,1.9308352000002742,None,space,3.2129707999997663,None,0,0,0,0,,,,,1,2,10,5,78.46008810000012,,,,,,,,,,,,,,,,,,,,,78.44454170000017,78.46008810000012,78.94344610000007,78.9473581000002,78.96308829999998,80.91006440000001,,,,,80.91021820000014,80.92591290000018,81.12597730000016,81.11011830000007,78.96308829999998,,,,,,,,0,1,1.9308352000002742,None,,,,,,,,836,21,V,R,2026-02-25_11h39.57.914,VisualSearch_2526_3,,2025.2.4,2026-02-25 11h39.58.142564 +0100,
tilted.xlsx,The target is tilted.,117,11,3,1,0,1,1,1,0,0,0,0,0,0,0,0,1,3,4,117,space,6.798610899999858,None,0,1,0.807663600000069,None,space,3.2129707999997663,None,0,0,0,0,,,,,1,3,11,6,81.12597730000016,,,,,,,,,,,,,,,,,,,,,81.11081060000015,81.12597730000016,81.61010100000021,81.61487830000033,81.63124629999993,82.44368280000026,,,,,82.44385910000028,82.45896280000034,82.65954899999997,82.64328620000015,81.63124629999993,,,,,,,,0,1,0.807663600000069,None,,,,,,,,836,21,V,R,2026-02-25_11h39.57.914,VisualSearch_2526_3,,2025.2.4,2026-02-25 11h39.58.142564 +0100,
tilted.xlsx,The target is tilted.,117,12,4,1,1,1,1,1,0,0,0,0,0,0,0,0,0,3,4,117,space,6.798610899999858,None,1,1,1.0972695000000385,None,space,3.2129707999997663,None,0,0,0,0,,,,,1,4,12,2,82.65954899999997,,,,,,,,,,,,,,,,,,,,,82.64403260000017,82.65954899999997,83.14327189999995,83.1479162999999,83.16608730000007,84.27621690000024,,,,,84.2763789999999,84.29183590000002,84.49243999999999,84.47626790000004,83.16608730000007,,,,,,,,1,1,1.0972695000000385,None,,,,,,,,836,21,V,R,2026-02-25_11h39.57.914,VisualSearch_2526_3,,2025.2.4,2026-02-25 11h39.58.142564 +0100,
tilted.xlsx,The target is tilted.,117,13,5,1,0,0,0,0,0,0,0,0,0,0,0,0,1,1,1,117,space,6.798610899999858,None,0,1,0.7205761000000166,None,space,3.2129707999997663,None,0,0,0,0,,,,,1,5,13,7,84.49243999999999,,,,,,,,,,,,,,,,,,,,,84.4769894000001,84.49243999999999,84.9757966000002,84.9800282000001,84.99641580000025,85.72658750000028,,,,,85.72676210000009,85.74186349999991,85.94176620000007,85.92546059999995,84.99641580000025,,,,,,,,0,1,0.7205761000000166,None,,,,,,,,836,21,V,R,2026-02-25_11h39.57.914,VisualSearch_2526_3,,2025.2.4,2026-02-25 11h39.58.142564 +0100,
tilted.xlsx,The target is tilted.,117,14,6,1,1,1,1,1,1,1,1,1,0,0,0,0,0,7,8,117,space,6.798610899999858,None,1,1,1.7998187999996844,None,space,3.2129707999997663,None,0,0,0,0,,,,,1,6,14,1,85.94176620000007,,,,,,,,,,,,,,,,,,,,,85.92588509999996,85.94176620000007,86.42616990000033,86.43084940000017,86.44864970000026,88.25899920000029,,,,,88.25919680000015,88.27459320000025,88.47470539999995,88.45895090000022,86.44864970000026,,,,,,,,1,1,1.7998187999996844,None,,,,,,,,836,21,V,R,2026-02-25_11h39.57.914,VisualSearch_2526_3,,2025.2.4,2026-02-25 11h39.58.142564 +0100,
tilted.xlsx,The target is tilted.,117,15,7,1,0,1,1,1,1,1,1,1,1,1,1,1,1,11,12,117,space,6.798610899999858,None,0,1,2.047088799999983,None,space,3.2129707999997663,None,0,0,0,0,,,,,1,7,15,4,88.47470539999995,,,,,,,,,,,,,,,,,,,,,88.45971039999995,88.47470539999995,88.95903679999992,88.96375250000028,88.98083870000028,91.04170590000012,,,,,91.0418752999999,91.0573317000003,91.25810730000012,91.2415433000001,88.98083870000028,,,,,,,,0,1,2.047088799999983,None,,,,,,,,836,21,V,R,2026-02-25_11h39.57.914,VisualSearch_2526_3,,2025.2.4,2026-02-25 11h39.58.142564 +0100,
tilted.xlsx,The target is tilted.,117,16,0,2,1,0,0,0,0,0,0,0,0,0,0,0,0,0,1,117,space,6.798610899999858,None,1,1,0.6742650999999569,None,space,3.2129707999997663,None,0,0,0,0,,,,,2,0,16,3,91.25810730000012,,,,,,,,,,,,,,,,,,,,,91.24230350000016,91.25810730000012,91.7419589000001,91.7469572,91.76316590000033,92.44178770000008,,,,,92.44196190000002,92.45731879999994,92.6575299000001,92.64122290000023,91.76316590000033,,,,,,,,1,1,0.6742650999999569,None,,,,,,,,836,21,V,R,2026-02-25_11h39.57.914,VisualSearch_2526_3,,2025.2.4,2026-02-25 11h39.58.142564 +0100,
tilted.xlsx,The target is tilted.,117,17,1,2,0,1,1,1,0,0,0,0,0,0,0,0,1,3,4,117,space,6.798610899999858,None,0,1,0.7737682000001769,None,space,3.2129707999997663,None,0,0,0,0,,,,,2,1,17,6,92.6575299000001,,,,,,,,,,,,,,,,,,,,,92.64182470000014,92.6575299000001,93.14121430000023,93.14625380000007,93.16324080000004,93.9419184000003,,,,,93.9420927000001,93.95706150000024,94.1575972999999,94.14129320000029,93.16324080000004,,,,,,,,0,1,0.7737682000001769,None,,,,,,,,836,21,V,R,2026-02-25_11h39.57.914,VisualSearch_2526_3,,2025.2.4,2026-02-25 11h39.58.142564 +0100,
tilted.xlsx,The target is tilted.,117,18,2,2,0,1,1,1,1,1,1,1,1,1,1,1,1,11,12,117,space,6.798610899999858,None,1,0,2.2030353000000105,None,space,3.2129707999997663,None,0,0,0,0,,,,,2,2,18,4,94.1575972999999,,,,,,,,,,,,,,,,,,,,,94.14203110000017,94.1575972999999,94.64097270000002,94.64576460000035,94.66121460000022,96.87425920000032,,,,,96.87439750000021,96.88967320000029,97.09003759999996,97.0738137000003,94.66121460000022,,,,,,,,1,0,2.2030353000000105,None,,,,,,,,836,21,V,R,2026-02-25_11h39.57.914,VisualSearch_2526_3,,2025.2.4,2026-02-25 11h39.58.142564 +0100,
tilted.xlsx,The target is tilted.,117,19,3,2,0,1,1,1,1,1,1,1,0,0,0,0,1,7,8,117,space,6.798610899999858,None,0,1,3.2076004999998986,None,space,3.2129707999997663,None,0,0,0,0,,,,,2,3,19,5,97.09003759999996,,,,,,,,,,,,,,,,,,,,,97.07448780000004,97.09003759999996,97.57403350000004,97.57824600000004,97.59008700000004,100.80754419999994,,,,,100.80770960000018,100.82264250000026,101.02302610000015,101.00662580000017,97.59008700000004,,,,,,,,0,1,3.2076004999998986,None,,,,,,,,836,21,V,R,2026-02-25_11h39.57.914,VisualSearch_2526_3,,2025.2.4,2026-02-25 11h39.58.142564 +0100,
tilted.xlsx,The target is tilted.,117,20,4,2,1,1,1,1,0,0,0,0,0,0,0,0,0,3,4,117,space,6.798610899999858,None,1,1,0.8323270999999295,None,space,3.2129707999997663,None,0,0,0,0,,,,,2,4,20,2,101.02302610000015,,,,,,,,,,,,,,,,,,,,,101.00742889999992,101.02302610000015,101.50695709999991,101.5116210000001,101.52938610000001,102.37383890000001,,,,,102.37401339999997,102.38898800000015,102.58954530000028,102.5732809000001,101.52938610000001,,,,,,,,1,1,0.8323270999999295,None,,,,,,,,836,21,V,R,2026-02-25_11h39.57.914,VisualSearch_2526_3,,2025.2.4,2026-02-25 11h39.58.142564 +0100,
tilted.xlsx,The target is tilted.,117,21,5,2,1,1,1,1,1,1,1,1,0,0,0,0,0,7,8,117,space,6.798610899999858,None,1,1,1.227125899999919,None,space,3.2129707999997663,None,0,0,0,0,,,,,2,5,21,1,102.58954530000028,,,,,,,,,,,,,,,,,,,,,102.57403270000032,102.58954530000028,103.0729351,103.07780880000018,103.09599630000002,104.33954500000027,,,,,104.33970850000014,104.35532400000011,104.55564279999999,104.53976340000008,103.09599630000002,,,,,,,,1,1,1.227125899999919,None,,,,,,,,836,21,V,R,2026-02-25_11h39.57.914,VisualSearch_2526_3,,2025.2.4,2026-02-25 11h39.58.142564 +0100,
tilted.xlsx,The target is tilted.,117,22,6,2,1,1,1,1,1,1,1,1,1,1,1,1,0,11,12,117,space,6.798610899999858,None,1,1,2.336722099999861,None,space,3.2129707999997663,None,0,0,0,0,,,,,2,6,22,0,104.55564279999999,,,,,,,,,,,,,,,,,,,,,104.54048740000007,104.55564279999999,105.03979329999993,105.04510770000024,105.06442749999997,107.40574719999995,,,,,107.4059371000003,107.42144039999994,107.62194739999995,107.60574630000019,105.06442749999997,,,,,,,,1,1,2.336722099999861,None,,,,,,,,836,21,V,R,2026-02-25_11h39.57.914,VisualSearch_2526_3,,2025.2.4,2026-02-25 11h39.58.142564 +0100,
tilted.xlsx,The target is tilted.,117,23,7,2,0,0,0,0,0,0,0,0,0,0,0,0,1,1,1,117,space,6.798610899999858,None,0,1,0.8069802999998501,None,space,3.2129707999997663,None,0,0,0,0,,,,,2,7,23,7,107.62194739999995,,,,,,,,,,,,,,,,,,,,,107.60648730000003,107.62194739999995,108.10563400000001,108.11039410000012,108.12921039999992,108.9395913000003,,,,,108.93977220000033,108.95453889999999,109.15505110000004,109.13876630000004,108.12921039999992,,,,,,,,0,1,0.8069802999998501,None,,,,,,,,836,21,V,R,2026-02-25_11h39.57.914,VisualSearch_2526_3,,2025.2.4,2026-02-25 11h39.58.142564 +0100,
tilted.xlsx,The target is tilted.,117,24,0,3,0,1,1,1,1,1,1,1,0,0,0,0,1,7,8,117,space,6.798610899999858,None,0,1,2.1591507999996793,None,space,3.2129707999997663,None,0,0,0,0,,,,,3,0,24,5,109.15505110000004,,,,,,,,,,,,,,,,,,,,,109.13950760000034,109.15505110000004,109.63850520000005,109.64329020000014,109.657557,111.82204490000004,,,,,111.82220880000023,111.83729710000034,112.03781430000026,112.02155420000008,109.657557,,,,,,,,0,1,2.1591507999996793,None,,,,,,,,836,21,V,R,2026-02-25_11h39.57.914,VisualSearch_2526_3,,2025.2.4,2026-02-25 11h39.58.142564 +0100,
tilted.xlsx,The target is tilted.,117,25,1,3,0,1,1,1,1,1,1,1,1,1,1,1,1,11,12,117,space,6.798610899999858,None,0,1,1.9029903000000559,None,space,3.2129707999997663,None,0,0,0,0,,,,,3,1,25,4,112.03781430000026,,,,,,,,,,,,,,,,,,,,,112.02221200000031,112.03781430000026,112.52154780000001,112.52639130000034,112.54337880000003,114.45536690000017,,,,,114.45557589999999,114.47028180000007,114.67045499999995,114.65464810000003,112.54337880000003,,,,,,,,0,1,1.9029903000000559,None,,,,,,,,836,21,V,R,2026-02-25_11h39.57.914,VisualSearch_2526_3,,2025.2.4,2026-02-25 11h39.58.142564 +0100,
tilted.xlsx,The target is tilted.,117,26,2,3,0,0,0,0,0,0,0,0,0,0,0,0,1,1,1,117,space,6.798610899999858,None,0,1,0.5295990999998139,None,space,3.2129707999997663,None,0,0,0,0,,,,,3,2,26,7,114.67045499999995,,,,,,,,,,,,,,,,,,,,,114.65540200000032,114.67045499999995,115.15452099999993,115.1591940000003,115.17611440000019,115.7209428000001,,,,,115.72110370000019,115.73659980000002,115.9373071,115.92074110000021,115.17611440000019,,,,,,,,0,1,0.5295990999998139,None,,,,,,,,836,21,V,R,2026-02-25_11h39.57.914,VisualSearch_2526_3,,2025.2.4,2026-02-25 11h39.58.142564 +0100,
tilted.xlsx,The target is tilted.,117,27,3,3,1,0,0,0,0,0,0,0,0,0,0,0,0,0,1,117,space,6.798610899999858,None,1,1,0.7033470999999736,None,space,3.2129707999997663,None,0,0,0,0,,,,,3,3,27,3,115.9373071,,,,,,,,,,,,,,,,,,,,,115.92145710000023,115.9373071,116.42048350000005,116.42503810000017,116.44308420000016,117.15464360000033,,,,,117.15481829999999,117.16979710000032,117.37006100000008,117.35421510000015,116.44308420000016,,,,,,,,1,1,0.7033470999999736,None,,,,,,,,836,21,V,R,2026-02-25_11h39.57.914,VisualSearch_2526_3,,2025.2.4,2026-02-25 11h39.58.142564 +0100,
tilted.xlsx,The target is tilted.,117,28,4,3,0,1,1,1,0,0,0,0,0,0,0,0,1,3,4,117,space,6.798610899999858,None,0,1,0.9255842000002303,None,space,3.2129707999997663,None,0,0,0,0,,,,,3,4,28,6,117.37006100000008,,,,,,,,,,,,,,,,,,,,,117.35492969999996,117.37006100000008,117.85396910000009,117.85875590000023,117.87541409999994,118.80431640000006,,,,,118.8045062000001,118.81951170000002,119.01994659999991,119.00389510000014,117.87541409999994,,,,,,,,0,1,0.9255842000002303,None,,,,,,,,836,21,V,R,2026-02-25_11h39.57.914,VisualSearch_2526_3,,2025.2.4,2026-02-25 11h39.58.142564 +0100,
tilted.xlsx,The target is tilted.,117,29,5,3,1,1,1,1,0,0,0,0,0,0,0,0,0,3,4,117,space,6.798610899999858,None,1,1,1.117087900000115,None,space,3.2129707999997663,None,0,0,0,0,,,,,3,5,29,2,119.01994659999991,,,,,,,,,,,,,,,,,,,,,119.00467879999997,119.01994659999991,119.50371760000007,119.50856650000014,119.52532999999994,120.65346450000015,,,,,120.65352510000002,120.66896829999996,120.86979400000018,120.85365690000026,119.52532999999994,,,,,,,,1,1,1.117087900000115,None,,,,,,,,836,21,V,R,2026-02-25_11h39.57.914,VisualSearch_2526_3,,2025.2.4,2026-02-25 11h39.58.142564 +0100,
tilted.xlsx,The target is tilted.,117,30,6,3,1,1,1,1,1,1,1,1,1,1,1,1,0,11,12,117,space,6.798610899999858,None,1,1,1.6261945999999625,None,space,3.2129707999997663,None,0,0,0,0,,,,,3,6,30,0,120.86979400000018,,,,,,,,,,,,,,,,,,,,,120.854378,120.86979400000018,121.35351919999994,121.3581979999999,121.37595450000026,123.00376189999997,,,,,123.0039440999999,123.01883300000009,123.21887700000025,123.20312630000035,121.37595450000026,,,,,,,,1,1,1.6261945999999625,None,,,,,,,,836,21,V,R,2026-02-25_11h39.57.914,VisualSearch_2526_3,,2025.2.4,2026-02-25 11h39.58.142564 +0100,
tilted.xlsx,The target is tilted.,117,31,7,3,1,1,1,1,1,1,1,1,0,0,0,0,0,7,8,117,space,6.798610899999858,None,1,1,1.2482986999998502,None,space,3.2129707999997663,None,0,0,0,0,,,,,3,7,31,1,123.21887700000025,,,,,,,,,,,,,,,,,,,,,123.20387400000027,123.21887700000025,123.70312950000016,123.70778509999991,123.72572440000022,124.98671130000002,,,,,124.98689330000025,125.00180649999993,125.20238010000003,125.18626790000008,123.72572440000022,,,,,,,,1,1,1.2482986999998502,None,,,,,,,,836,21,V,R,2026-02-25_11h39.57.914,VisualSearch_2526_3,,2025.2.4,2026-02-25 11h39.58.142564 +0100,
tilted.xlsx,The target is tilted.,117,32,0,4,1,1,1,1,1,1,1,1,1,1,1,1,0,11,12,117,space,6.798610899999858,None,0,0,2.732191099999909,None,space,3.2129707999997663,None,0,0,0,0,,,,,4,0,32,0,125.20238010000003,,,,,,,,,,,,,,,,,,,,,125.1869872000002,125.20238010000003,125.68621350000012,125.69098490000033,125.70216860000028,128.43611520000013,,,,,128.43629510000028,128.45124430000033,128.65177459999995,128.63529760000029,125.70216860000028,,,,,,,,0,0,2.732191099999909,None,,,,,,,,836,21,V,R,2026-02-25_11h39.57.914,VisualSearch_2526_3,,2025.2.4,2026-02-25 11h39.58.142564 +0100,
tilted.xlsx,The target is tilted.,117,33,1,4,1,1,1,1,0,0,0,0,0,0,0,0,0,3,4,117,space,6.798610899999858,None,1,1,1.014218400000118,None,space,3.2129707999997663,None,0,0,0,0,,,,,4,1,33,2,128.65177459999995,,,,,,,,,,,,,,,,,,,,,128.6361297000003,128.65177459999995,129.1351327000002,129.13832170000023,129.15184420000014,130.16951160000008,,,,,130.16975390000016,130.18435780000027,130.38477570000032,130.36821099999997,129.15184420000014,,,,,,,,1,1,1.014218400000118,None,,,,,,,,836,21,V,R,2026-02-25_11h39.57.914,VisualSearch_2526_3,,2025.2.4,2026-02-25 11h39.58.142564 +0100,
tilted.xlsx,The target is tilted.,117,34,2,4,0,0,0,0,0,0,0,0,0,0,0,0,1,1,1,117,space,6.798610899999858,None,0,1,0.6188718999997036,None,space,3.2129707999997663,None,0,0,0,0,,,,,4,2,34,7,130.38477570000032,,,,,,,,,,,,,,,,,,,,,130.36882520000017,130.38477570000032,130.8687603000003,130.87370869999995,130.8840866999999,131.51802960000032,,,,,131.51815840000017,131.53403200000002,,131.71829079999998,130.8840866999999,,,,,,,,0,1,0.6188718999997036,None,,,,,,,,836,21,V,R,2026-02-25_11h39.57.914,VisualSearch_2526_3,,2025.2.4,2026-02-25 11h39.58.142564 +0100,
tilted.xlsx,The target is tilted.,117,35,3,4,0,1,1,1,1,1,1,1,1,1,1,1,1,11,12,117,space,6.798610899999858,None,0,1,3.9484473000002254,None,space,3.2129707999997663,None,0,0,0,0,,,,,4,3,35,4,131.73468040000034,,,,,,,,,,,,,,,,,,,,,131.7190556999999,131.73468040000034,132.21835099999998,132.22309070000028,132.2416902,136.20106750000014,,,,,136.20124020000003,136.21657540000024,136.41674520000015,136.40077229999997,132.2416902,,,,,,,,0,1,3.9484473000002254,None,,,,,,,,836,21,V,R,2026-02-25_11h39.57.914,VisualSearch_2526_3,,2025.2.4,2026-02-25 11h39.58.142564 +0100,
tilted.xlsx,The target is tilted.,117,36,4,4,1,0,0,0,0,0,0,0,0,0,0,0,0,0,1,117,space,6.798610899999858,None,1,1,1.2261253000001489,None,space,3.2129707999997663,None,0,0,0,0,,,,,4,4,36,3,136.41674520000015,,,,,,,,,,,,,,,,,,,,,136.4014419,136.41674520000015,136.90062579999994,136.9049089,136.92152690000012,138.1508818000002,,,,,138.15106120000019,138.16628690000016,138.36679820000018,138.35067630000003,136.92152690000012,,,,,,,,1,1,1.2261253000001489,None,,,,,,,,836,21,V,R,2026-02-25_11h39.57.914,VisualSearch_2526_3,,2025.2.4,2026-02-25 11h39.58.142564 +0100,
tilted.xlsx,The target is tilted.,117,37,5,4,0,1,1,1,1,1,1,1,0,0,0,0,1,7,8,117,space,6.798610899999858,None,1,0,1.3913277000001472,None,space,3.2129707999997663,None,0,0,0,0,,,,,4,5,37,5,138.36679820000018,,,,,,,,,,,,,,,,,,,,,138.35142440000027,138.36679820000018,138.8508022000001,138.85612990000027,138.87333810000018,140.26754310000024,,,,,140.26775080000016,140.28266380000014,140.4831064,140.4669028000003,138.87333810000018,,,,,,,,1,0,1.3913277000001472,None,,,,,,,,836,21,V,R,2026-02-25_11h39.57.914,VisualSearch_2526_3,,2025.2.4,2026-02-25 11h39.58.142564 +0100,
tilted.xlsx,The target is tilted.,117,38,6,4,1,1,1,1,1,1,1,1,0,0,0,0,0,7,8,117,space,6.798610899999858,None,1,1,1.098645999999917,None,space,3.2129707999997663,None,0,0,0,0,,,,,4,6,38,1,140.4831064,,,,,,,,,,,,,,,,,,,,,140.46763099999998,140.4831064,140.96710269999994,140.97231220000003,140.98989310000024,142.10068600000022,,,,,142.10088650000034,142.11570550000033,142.3161699000002,142.29960040000014,140.98989310000024,,,,,,,,1,1,1.098645999999917,None,,,,,,,,836,21,V,R,2026-02-25_11h39.57.914,VisualSearch_2526_3,,2025.2.4,2026-02-25 11h39.58.142564 +0100,
tilted.xlsx,The target is tilted.,117,39,7,4,0,1,1,1,0,0,0,0,0,0,0,0,1,3,4,117,space,6.798610899999858,None,0,1,1.8301632000002428,None,space,3.2129707999997663,None,0,0,0,0,,,,,4,7,39,6,142.3161699000002,,,,,,,,,,,,,,,,,,,,,142.30029360000026,142.3161699000002,142.80021970000007,142.80548970000018,142.82226070000024,144.66612090000035,,,,,144.66630299999997,144.68180550000034,144.88241020000032,144.86628560000008,142.82226070000024,,,,,,,,0,1,1.8301632000002428,None,,,,,,,,836,21,V,R,2026-02-25_11h39.57.914,VisualSearch_2526_3,,2025.2.4,2026-02-25 11h39.58.142564 +0100,
tilted.xlsx,The target is tilted.,117,40,0,5,0,1,1,1,1,1,1,1,0,0,0,0,1,7,8,117,space,6.798610899999858,None,0,1,2.4649885999997423,None,space,3.2129707999997663,None,0,0,0,0,,,,,5,0,40,5,144.88241020000032,,,,,,,,,,,,,,,,,,,,,144.86709120000023,144.88241020000032,145.36628550000023,145.3712003999999,145.3869625000002,147.86560880000025,,,,,147.86577190000025,147.8812326000002,148.08184740000024,148.06570749999992,145.3869625000002,,,,,,,,0,1,2.4649885999997423,None,,,,,,,,836,21,V,R,2026-02-25_11h39.57.914,VisualSearch_2526_3,,2025.2.4,2026-02-25 11h39.58.142564 +0100,
tilted.xlsx,The target is tilted.,117,41,1,5,1,1,1,1,0,0,0,0,0,0,0,0,0,3,4,117,space,6.798610899999858,None,1,1,0.7945894999998018,None,space,3.2129707999997663,None,0,0,0,0,,,,,5,1,41,2,148.08184740000024,,,,,,,,,,,,,,,,,,,,,148.06646020000017,148.08184740000024,148.56574170000022,148.5704885,148.58628679999993,149.38233089999994,,,,,149.3825181000002,149.39784400000008,149.59827210000003,149.58206670000027,148.58628679999993,,,,,,,,1,1,0.7945894999998018,None,,,,,,,,836,21,V,R,2026-02-25_11h39.57.914,VisualSearch_2526_3,,2025.2.4,2026-02-25 11h39.58.142564 +0100,
tilted.xlsx,The target is tilted.,117,42,2,5,0,1,1,1,1,1,1,1,1,1,1,1,1,11,12,117,space,6.798610899999858,None,0,1,3.1848402000000533,None,space,3.2129707999997663,None,0,0,0,0,,,,,5,2,42,4,149.59827210000003,,,,,,,,,,,,,,,,,,,,,149.5828320999999,149.59827210000003,150.08185790000016,150.08640490000016,150.1017985000003,153.29849460000014,,,,,153.29866690000017,153.3137098000002,153.51389460000019,153.49798980000014,150.1017985000003,,,,,,,,0,1,3.1848402000000533,None,,,,,,,,836,21,V,R,2026-02-25_11h39.57.914,VisualSearch_2526_3,,2025.2.4,2026-02-25 11h39.58.142564 +0100,
tilted.xlsx,The target is tilted.,117,43,3,5,0,1,1,1,0,0,0,0,0,0,0,0,1,3,4,117,space,6.798610899999858,None,0,1,1.063591500000257,None,space,3.2129707999997663,None,0,0,0,0,,,,,5,3,43,6,153.51389460000019,,,,,,,,,,,,,,,,,,,,,153.49866580000025,153.51389460000019,153.9981416999999,154.00286460000007,154.01928350000026,155.09761350000008,,,,,155.09776469999997,155.11343830000033,155.31411800000024,155.2978949000003,154.01928350000026,,,,,,,,0,1,1.063591500000257,None,,,,,,,,836,21,V,R,2026-02-25_11h39.57.914,VisualSearch_2526_3,,2025.2.4,2026-02-25 11h39.58.142564 +0100,
tilted.xlsx,The target is tilted.,117,44,4,5,1,0,0,0,0,0,0,0,0,0,0,0,0,0,1,117,space,6.798610899999858,None,1,1,0.6861876000002667,None,space,3.2129707999997663,None,0,0,0,0,,,,,5,4,44,3,155.31411800000024,,,,,,,,,,,,,,,,,,,,,155.29861970000002,155.31411800000024,155.7980077000002,155.802866,155.81385150000006,156.51429580000013,,,,,156.51450950000026,156.52997760000017,156.7299708999999,156.71427790000007,155.81385150000006,,,,,,,,1,1,0.6861876000002667,None,,,,,,,,836,21,V,R,2026-02-25_11h39.57.914,VisualSearch_2526_3,,2025.2.4,2026-02-25 11h39.58.142564 +0100,
tilted.xlsx,The target is tilted.,117,45,5,5,0,0,0,0,0,0,0,0,0,0,0,0,1,1,1,117,space,6.798610899999858,None,0,1,0.6674425000001065,None,space,3.2129707999997663,None,0,0,0,0,,,,,5,5,45,7,156.7299708999999,,,,,,,,,,,,,,,,,,,,,156.71498310000015,156.7299708999999,157.21413440000015,157.21883079999998,157.23444719999998,157.9145136000002,,,,,157.91470759999993,157.92968560000008,158.13016970000035,158.11404579999999,157.23444719999998,,,,,,,,0,1,0.6674425000001065,None,,,,,,,,836,21,V,R,2026-02-25_11h39.57.914,VisualSearch_2526_3,,2025.2.4,2026-02-25 11h39.58.142564 +0100,
tilted.xlsx,The target is tilted.,117,46,6,5,1,1,1,1,1,1,1,1,0,0,0,0,0,7,8,117,space,6.798610899999858,None,1,1,1.264379899999767,None,space,3.2129707999997663,None,0,0,0,0,,,,,5,6,46,1,158.13016970000035,,,,,,,,,,,,,,,,,,,,,158.11479260000033,158.13016970000035,158.61417810000012,158.61948040000016,158.63671090000025,159.91357800000014,,,,,159.9137608000001,159.92928560000018,160.13003000000026,160.11371240000017,158.63671090000025,,,,,,,,1,1,1.264379899999767,None,,,,,,,,836,21,V,R,2026-02-25_11h39.57.914,VisualSearch_2526_3,,2025.2.4,2026-02-25 11h39.58.142564 +0100,
tilted.xlsx,The target is tilted.,117,47,7,5,1,1,1,1,1,1,1,1,1,1,1,1,0,11,12,117,space,6.798610899999858,None,1,1,1.945908000000145,None,space,3.2129707999997663,None,0,0,0,0,,,,,5,7,47,0,160.13003000000026,,,,,,,,,,,,,,,,,,,,,160.11446720000004,160.13003000000026,160.61364300000014,160.61834820000013,160.63566519999995,162.5961500000003,,,,,162.59627249999994,162.61212049999995,162.81277500000033,162.79650850000007,160.63566519999995,,,,,,,,1,1,1.945908000000145,None,,,,,,,,836,21,V,R,2026-02-25_11h39.57.914,VisualSearch_2526_3,,2025.2.4,2026-02-25 11h39.58.142564 +0100,
tilted.xlsx,The target is tilted.,117,48,0,6,0,1,1,1,1,1,1,1,0,0,0,0,1,7,8,117,space,6.798610899999858,None,0,1,1.9298171999998885,None,space,3.2129707999997663,None,0,0,0,0,,,,,6,0,48,5,162.81277500000033,,,,,,,,,,,,,,,,,,,,,162.79724260000012,162.81277500000033,163.29655850000017,163.30115260000002,163.3186399000001,165.2629296,,,,,165.2630921,165.2785385000002,165.47901470000033,165.46274300000005,163.3186399000001,,,,,,,,0,1,1.9298171999998885,None,,,,,,,,836,21,V,R,2026-02-25_11h39.57.914,VisualSearch_2526_3,,2025.2.4,2026-02-25 11h39.58.142564 +0100,
tilted.xlsx,The target is tilted.,117,49,1,6,1,1,1,1,1,1,1,1,0,0,0,0,0,7,8,117,space,6.798610899999858,None,1,1,1.5194452999999157,None,space,3.2129707999997663,None,0,0,0,0,,,,,6,1,49,1,165.47901470000033,,,,,,,,,,,,,,,,,,,,,165.4634927000002,165.47901470000033,165.96271530000013,165.96738830000004,165.98330830000032,167.51275560000022,,,,,167.51291549999996,167.52805790000002,167.72866569999996,167.7123385,165.98330830000032,,,,,,,,1,1,1.5194452999999157,None,,,,,,,,836,21,V,R,2026-02-25_11h39.57.914,VisualSearch_2526_3,,2025.2.4,2026-02-25 11h39.58.142564 +0100,
tilted.xlsx,The target is tilted.,117,50,2,6,0,1,1,1,1,1,1,1,1,1,1,1,1,11,12,117,space,6.798610899999858,None,0,1,2.688719199999923,None,space,3.2129707999997663,None,0,0,0,0,,,,,6,2,50,4,167.72866569999996,,,,,,,,,,,,,,,,,,,,,167.71307800000022,167.72866569999996,168.2122918,168.21692770000027,168.2332067000002,170.92882970000028,,,,,170.92898970000033,170.94413810000015,171.14470960000017,171.12854700000025,168.2332067000002,,,,,,,,0,1,2.688719199999923,None,,,,,,,,836,21,V,R,2026-02-25_11h39.57.914,VisualSearch_2526_3,,2025.2.4,2026-02-25 11h39.58.142564 +0100,
tilted.xlsx,The target is tilted.,117,51,3,6,0,1,1,1,0,0,0,0,0,0,0,0,1,3,4,117,space,6.798610899999858,None,0,1,0.7887551999997413,None,space,3.2129707999997663,None,0,0,0,0,,,,,6,3,51,6,171.14470960000017,,,,,,,,,,,,,,,,,,,,,171.12922720000006,171.14470960000017,171.62854370000014,171.63314900000023,171.64869210000006,172.44555609999998,,,,,172.44574730000022,172.46060320000015,172.66105480000033,172.64509399999997,171.64869210000006,,,,,,,,0,1,0.7887551999997413,None,,,,,,,,836,21,V,R,2026-02-25_11h39.57.914,VisualSearch_2526_3,,2025.2.4,2026-02-25 11h39.58.142564 +0100,
tilted.xlsx,The target is tilted.,117,52,4,6,1,0,0,0,0,0,0,0,0,0,0,0,0,0,1,117,space,6.798610899999858,None,1,1,0.867702300000019,None,space,3.2129707999997663,None,0,0,0,0,,,,,6,4,52,3,172.66105480000033,,,,,,,,,,,,,,,,,,,,,172.64588950000007,172.66105480000033,173.1450345000003,173.15034270000024,173.16683550000016,174.04504510000015,,,,,174.04524089999995,174.06045799999993,174.26070389999995,174.2440673000001,173.16683550000016,,,,,,,,1,1,0.867702300000019,None,,,,,,,,836,21,V,R,2026-02-25_11h39.57.914,VisualSearch_2526_3,,2025.2.4,2026-02-25 11h39.58.142564 +0100,
tilted.xlsx,The target is tilted.,117,53,5,6,1,1,1,1,0,0,0,0,0,0,0,0,0,3,4,117,space,6.798610899999858,None,0,0,0.9976012000001901,None,space,3.2129707999997663,None,0,0,0,0,,,,,6,5,53,2,174.26070389999995,,,,,,,,,,,,,,,,,,,,,174.24453429999994,174.26070389999995,174.74474940000027,174.7498899000002,174.7683065000001,175.77825550000034,,,,,175.77843100000018,175.7934077,175.9938873000001,175.9776609999999,174.7683065000001,,,,,,,,0,0,0.9976012000001901,None,,,,,,,,836,21,V,R,2026-02-25_11h39.57.914,VisualSearch_2526_3,,2025.2.4,2026-02-25 11h39.58.142564 +0100,
tilted.xlsx,The target is tilted.,117,54,6,6,1,1,1,1,1,1,1,1,1,1,1,1,0,11,12,117,space,6.798610899999858,None,0,0,3.080581799999891,None,space,3.2129707999997663,None,0,0,0,0,,,,,6,6,54,0,175.9938873000001,,,,,,,,,,,,,,,,,,,,,175.97842320000018,175.9938873000001,176.47762310000007,176.48245730000008,176.49376960000018,179.57765800000016,,,,,179.57782290000023,179.5927015000002,179.79320850000022,179.77705229999992,176.49376960000018,,,,,,,,0,0,3.080581799999891,None,,,,,,,,836,21,V,R,2026-02-25_11h39.57.914,VisualSearch_2526_3,,2025.2.4,2026-02-25 11h39.58.142564 +0100,
tilted.xlsx,The target is tilted.,117,55,7,6,0,0,0,0,0,0,0,0,0,0,0,0,1,1,1,117,space,6.798610899999858,None,0,1,0.6117429999999331,None,space,3.2129707999997663,None,0,0,0,0,,,,,6,7,55,7,179.79320850000022,,,,,,,,,,,,,,,,,,,,,179.77779550000014,179.79320850000022,180.2771660000003,180.28176520000034,180.29992829999992,180.9267374000001,,,,,180.92690059999995,180.94239160000006,181.1430180000002,181.12684850000005,180.29992829999992,,,,,,,,0,1,0.6117429999999331,None,,,,,,,,836,21,V,R,2026-02-25_11h39.57.914,VisualSearch_2526_3,,2025.2.4,2026-02-25 11h39.58.142564 +0100,
tilted.xlsx,The target is tilted.,117,56,0,7,1,1,1,1,1,1,1,1,0,0,0,0,0,7,8,117,space,6.798610899999858,None,1,1,2.382265400000051,None,space,3.2129707999997663,None,0,0,0,0,,,,,7,0,56,1,181.1430180000002,,,,,,,,,,,,,,,,,,,,,181.12760130000015,181.1430180000002,181.62672169999996,181.63197260000015,181.64745369999991,184.0428436000002,,,,,184.04300580000017,184.0585414000002,184.25925510000025,184.24299680000013,181.64745369999991,,,,,,,,1,1,2.382265400000051,None,,,,,,,,836,21,V,R,2026-02-25_11h39.57.914,VisualSearch_2526_3,,2025.2.4,2026-02-25 11h39.58.142564 +0100,
tilted.xlsx,The target is tilted.,117,57,1,7,1,1,1,1,0,0,0,0,0,0,0,0,0,3,4,117,space,6.798610899999858,None,0,0,1.1120789000001423,None,space,3.2129707999997663,None,0,0,0,0,,,,,7,1,57,2,184.25925510000025,,,,,,,,,,,,,,,,,,,,,184.24375080000027,184.25925510000025,184.7430959000003,184.7483086000002,184.76421150000033,185.89185690000022,,,,,185.89196970000012,185.908723,,186.09207490000017,184.76421150000033,,,,,,,,0,0,1.1120789000001423,None,,,,,,,,836,21,V,R,2026-02-25_11h39.57.914,VisualSearch_2526_3,,2025.2.4,2026-02-25 11h39.58.142564 +0100,
tilted.xlsx,The target is tilted.,117,58,2,7,0,0,0,0,0,0,0,0,0,0,0,0,1,1,1,117,space,6.798610899999858,None,0,1,0.6073324999997567,None,space,3.2129707999997663,None,0,0,0,0,,,,,7,2,58,7,186.10844889999998,,,,,,,,,,,,,,,,,,,,,186.0928411,186.10844889999998,186.59207790000028,186.59421310000016,186.6085677000001,187.22532790000014,,,,,187.22540389999995,187.24115800000027,,187.42566990000023,186.6085677000001,,,,,,,,0,1,0.6073324999997567,None,,,,,,,,836,21,V,R,2026-02-25_11h39.57.914,VisualSearch_2526_3,,2025.2.4,2026-02-25 11h39.58.142564 +0100,
tilted.xlsx,The target is tilted.,117,59,3,7,1,1,1,1,1,1,1,1,1,1,1,1,0,11,12,117,space,6.798610899999858,None,1,1,1.5693780999999944,None,space,3.2129707999997663,None,0,0,0,0,,,,,7,3,59,0,187.4418869000001,,,,,,,,,,,,,,,,,,,,,187.42655420000028,187.4418869000001,187.92562369999996,187.93088239999997,187.94894750000003,189.52536510000027,,,,,189.52555669999992,189.5411107,189.7415793,189.7254055000003,,,,,,,,,1,1,1.5693780999999944,None,,,,,,,,836,21,V,R,2026-02-25_11h39.57.914,VisualSearch_2526_3,,2025.2.4,2026-02-25 11h39.58.142564 +0100,
tilted.xlsx,The target is tilted.,117,60,4,7,0,1,1,1,1,1,1,1,1,1,1,1,1,11,12,117,space,6.798610899999858,None,0,1,2.4880777000003036,None,space,3.2129707999997663,None,0,0,0,0,,,,,7,4,60,4,189.7415793,,,,,,,,,,,,,,,,,,,,,189.72615640000004,189.7415793,190.22545949999994,190.23006850000002,190.24539780000032,192.7416816,,,,,192.74187260000008,192.75713970000015,192.95756630000005,192.94139790000008,190.24539780000032,,,,,,,,0,1,2.4880777000003036,None,,,,,,,,836,21,V,R,2026-02-25_11h39.57.914,VisualSearch_2526_3,,2025.2.4,2026-02-25 11h39.58.142564 +0100,
tilted.xlsx,The target is tilted.,117,61,5,7,0,1,1,1,1,1,1,1,0,0,0,0,1,7,8,117,space,6.798610899999858,None,0,1,2.709534299999632,None,space,3.2129707999997663,None,0,0,0,0,,,,,7,5,61,5,192.95756630000005,,,,,,,,,,,,,,,,,,,,,192.9421526000001,192.95756630000005,193.4411637000003,193.4458142000003,193.46203259999993,196.1749001000003,,,,,196.17508399999997,196.18992789999993,196.39008110000032,196.37407980000035,193.46203259999993,,,,,,,,0,1,2.709534299999632,None,,,,,,,,836,21,V,R,2026-02-25_11h39.57.914,VisualSearch_2526_3,,2025.2.4,2026-02-25 11h39.58.142564 +0100,
tilted.xlsx,The target is tilted.,117,62,6,7,0,1,1,1,0,0,0,0,0,0,0,0,1,3,4,117,space,6.798610899999858,None,0,1,1.1687744000000748,None,space,3.2129707999997663,None,0,0,0,0,,,,,7,6,62,6,196.39008110000032,,,,,,,,,,,,,,,,,,,,,196.37479140000005,196.39008110000032,196.87440180000021,196.87941930000034,196.8957676,198.07413429999997,,,,,198.07430760000034,198.08968700000014,198.29010870000002,198.2740001000002,196.8957676,,,,,,,,0,1,1.1687744000000748,None,,,,,,,,836,21,V,R,2026-02-25_11h39.57.914,VisualSearch_2526_3,,2025.2.4,2026-02-25 11h39.58.142564 +0100,
tilted.xlsx,The target is tilted.,117,63,7,7,1,0,0,0,0,0,0,0,0,0,0,0,0,0,1,117,space,6.798610899999858,None,1,1,0.6851563000000169,None,space,3.2129707999997663,None,0,0,0,0,,,,,7,7,63,3,198.29010870000002,,,,,,,,,,,,,,,,,,,,,198.27476419999994,198.29010870000002,198.77390860000014,198.77866500000027,198.79586000000018,199.49102700000003,,,,,199.4912214000001,199.50610670000015,199.70631970000022,199.6905208000003,198.79586000000018,,,,,,,,1,1,0.6851563000000169,None,,,,,,,,836,21,V,R,2026-02-25_11h39.57.914,VisualSearch_2526_3,,2025.2.4,2026-02-25 11h39.58.142564 +0100,
tilted.xlsx,The target is tilted.,117,64,0,8,1,1,1,1,0,0,0,0,0,0,0,0,0,3,4,117,space,6.798610899999858,None,1,1,0.8034846000000471,None,space,3.2129707999997663,None,0,0,0,0,,,,,8,0,64,2,199.70631970000022,,,,,,,,,,,,,,,,,,,,,199.69124910000028,199.70631970000022,200.19003370000019,200.19477780000034,200.2101643000001,201.02335089999997,,,,,201.02343680000013,201.0388840999999,201.23985200000016,201.2237166,200.2101643000001,,,,,,,,1,1,0.8034846000000471,None,,,,,,,,836,21,V,R,2026-02-25_11h39.57.914,VisualSearch_2526_3,,2025.2.4,2026-02-25 11h39.58.142564 +0100,
tilted.xlsx,The target is tilted.,117,65,1,8,0,1,1,1,0,0,0,0,0,0,0,0,1,3,4,117,space,6.798610899999858,None,0,1,0.8753088000003117,None,space,3.2129707999997663,None,0,0,0,0,,,,,8,1,65,6,201.23985200000016,,,,,,,,,,,,,,,,,,,,,201.22444170000017,201.23985200000016,201.7235713,201.72879349999994,201.74382640000022,202.6235145999999,,,,,202.6237073000002,202.63889050000034,202.83945330000006,202.82324850000032,201.74382640000022,,,,,,,,0,1,0.8753088000003117,None,,,,,,,,836,21,V,R,2026-02-25_11h39.57.914,VisualSearch_2526_3,,2025.2.4,2026-02-25 11h39.58.142564 +0100,
tilted.xlsx,The target is tilted.,117,66,2,8,0,0,0,0,0,0,0,0,0,0,0,0,1,1,1,117,space,6.798610899999858,None,0,1,0.6446945000002415,None,space,3.2129707999997663,None,0,0,0,0,,,,,8,2,66,7,202.83945330000006,,,,,,,,,,,,,,,,,,,,,202.82401010000012,202.83945330000006,203.32328619999998,203.32859260000032,203.34553559999995,204.00633500000004,,,,,204.00653190000003,204.02191650000032,204.2225171,204.20645700000023,203.34553559999995,,,,,,,,0,1,0.6446945000002415,None,,,,,,,,836,21,V,R,2026-02-25_11h39.57.914,VisualSearch_2526_3,,2025.2.4,2026-02-25 11h39.58.142564 +0100,
tilted.xlsx,The target is tilted.,117,67,3,8,0,1,1,1,1,1,1,1,1,1,1,1,1,11,12,117,space,6.798610899999858,None,0,1,1.8981284000001324,None,space,3.2129707999997663,None,0,0,0,0,,,,,8,3,67,4,204.2225171,,,,,,,,,,,,,,,,,,,,,204.2072794999999,204.2225171,204.70612130000018,204.71078840000018,204.72774530000015,206.63912560000017,,,,,206.63929030000008,206.6547387999999,206.85537870000007,206.8388046,204.72774530000015,,,,,,,,0,1,1.8981284000001324,None,,,,,,,,836,21,V,R,2026-02-25_11h39.57.914,VisualSearch_2526_3,,2025.2.4,2026-02-25 11h39.58.142564 +0100,
tilted.xlsx,The target is tilted.,117,68,4,8,1,1,1,1,1,1,1,1,0,0,0,0,0,7,8,117,space,6.798610899999858,None,0,0,1.4759037999997418,None,space,3.2129707999997663,None,0,0,0,0,,,,,8,4,68,1,206.85537870000007,,,,,,,,,,,,,,,,,,,,,206.83948710000004,206.85537870000007,207.33870890000026,207.3430126000003,207.3600452999999,208.83939980000014,,,,,208.8395800000003,208.85449500000004,209.0546549999999,209.03848199999993,207.3600452999999,,,,,,,,0,0,1.4759037999997418,None,,,,,,,,836,21,V,R,2026-02-25_11h39.57.914,VisualSearch_2526_3,,2025.2.4,2026-02-25 11h39.58.142564 +0100,
tilted.xlsx,The target is tilted.,117,69,5,8,1,1,1,1,1,1,1,1,1,1,1,1,0,11,12,117,space,6.798610899999858,None,1,1,2.209109100000205,None,space,3.2129707999997663,None,0,0,0,0,,,,,8,5,69,0,209.0546549999999,,,,,,,,,,,,,,,,,,,,,209.03917249999995,209.0546549999999,209.53831310000032,209.54222879999998,209.55794349999996,211.77206270000033,,,,,211.77222250000023,211.78723059999993,211.98776140000018,211.97160460000032,209.55794349999996,,,,,,,,1,1,2.209109100000205,None,,,,,,,,836,21,V,R,2026-02-25_11h39.57.914,VisualSearch_2526_3,,2025.2.4,2026-02-25 11h39.58.142564 +0100,
tilted.xlsx,The target is tilted.,117,70,6,8,0,1,1,1,1,1,1,1,0,0,0,0,1,7,8,117,space,6.798610899999858,None,0,1,1.9516875999997865,None,space,3.2129707999997663,None,0,0,0,0,,,,,8,6,70,5,211.98776140000018,,,,,,,,,,,,,,,,,,,,,211.97236330000032,211.98776140000018,212.47153400000025,212.47616349999998,212.49245689999998,214.4550830000003,,,,,214.45525150000003,214.47013910000032,214.6703950000001,214.65465820000009,212.49245689999998,,,,,,,,0,1,1.9516875999997865,None,,,,,,,,836,21,V,R,2026-02-25_11h39.57.914,VisualSearch_2526_3,,2025.2.4,2026-02-25 11h39.58.142564 +0100,
tilted.xlsx,The target is tilted.,117,71,7,8,1,0,0,0,0,0,0,0,0,0,0,0,0,0,1,117,space,6.798610899999858,None,1,1,0.7408990000003541,None,space,3.2129707999997663,None,0,0,0,0,,,,,8,7,71,3,214.6703950000001,,,,,,,,,,,,,,,,,,,,,214.6553911000001,214.6703950000001,215.1545242000002,215.15926940000008,215.17596279999998,215.92132300000003,,,,,215.92151590000003,215.93664450000006,216.13670189999993,216.12098640000022,215.17596279999998,,,,,,,,1,1,0.7408990000003541,None,,,,,,,,836,21,V,R,2026-02-25_11h39.57.914,VisualSearch_2526_3,,2025.2.4,2026-02-25 11h39.58.142564 +0100,
tilted.xlsx,The target is tilted.,117,72,0,9,1,1,1,1,1,1,1,1,0,0,0,0,0,7,8,117,space,6.798610899999858,None,1,1,2.155681299999742,None,space,3.2129707999997663,None,0,0,0,0,,,,,9,0,72,1,216.13670189999993,,,,,,,,,,,,,,,,,,,,,216.12172490000012,216.13670189999993,216.62052070000027,216.62464799999998,216.6405834000002,218.80375140000024,,,,,218.80382390000022,218.81922470000018,219.02011459999994,219.003913,216.6405834000002,,,,,,,,1,1,2.155681299999742,None,,,,,,,,836,21,V,R,2026-02-25_11h39.57.914,VisualSearch_2526_3,,2025.2.4,2026-02-25 11h39.58.142564 +0100,
tilted.xlsx,The target is tilted.,117,73,1,9,0,0,0,0,0,0,0,0,0,0,0,0,1,1,1,117,space,6.798610899999858,None,0,1,0.6286448999999266,None,space,3.2129707999997663,None,0,0,0,0,,,,,9,1,73,7,219.02011459999994,,,,,,,,,,,,,,,,,,,,,219.00462560000005,219.02011459999994,219.50396309999996,219.50909330000013,219.5245258,220.15427490000002,,,,,220.15446870000005,220.16929530000016,220.36979670000028,220.35357430000022,219.5245258,,,,,,,,0,1,0.6286448999999266,None,,,,,,,,836,21,V,R,2026-02-25_11h39.57.914,VisualSearch_2526_3,,2025.2.4,2026-02-25 11h39.58.142564 +0100,
tilted.xlsx,The target is tilted.,117,74,2,9,1,0,0,0,0,0,0,0,0,0,0,0,0,0,1,117,space,6.798610899999858,None,0,0,0.4091951999998855,None,space,3.2129707999997663,None,0,0,0,0,,,,,9,2,74,3,220.36979670000028,,,,,,,,,,,,,,,,,,,,,220.35431300000027,220.36979670000028,220.85369260000016,220.85834810000006,220.8749531000003,221.28758340000013,,,,,221.28778650000004,221.30248710000023,221.50258030000032,221.48676980000027,220.8749531000003,,,,,,,,0,0,0.4091951999998855,None,,,,,,,,836,21,V,R,2026-02-25_11h39.57.914,VisualSearch_2526_3,,2025.2.4,2026-02-25 11h39.58.142564 +0100,
tilted.xlsx,The target is tilted.,117,75,3,9,0,1,1,1,0,0,0,0,0,0,0,0,1,3,4,117,space,6.798610899999858,None,0,1,1.4526722999999038,None,space,3.2129707999997663,None,0,0,0,0,,,,,9,3,75,6,221.50258030000032,,,,,,,,,,,,,,,,,,,,,221.48758390000012,221.50258030000032,221.9870122000002,221.9921999000003,222.0112325,223.47023020000006,,,,,223.47041230000013,223.48537190000025,223.68599100000029,223.66995029999998,222.0112325,,,,,,,,0,1,1.4526722999999038,None,,,,,,,,836,21,V,R,2026-02-25_11h39.57.914,VisualSearch_2526_3,,2025.2.4,2026-02-25 11h39.58.142564 +0100,
tilted.xlsx,The target is tilted.,117,76,4,9,1,1,1,1,1,1,1,1,1,1,1,1,0,11,12,117,space,6.798610899999858,None,0,0,2.4577573000001394,None,space,3.2129707999997663,None,0,0,0,0,,,,,9,4,76,0,223.68599100000029,,,,,,,,,,,,,,,,,,,,,223.6706893999999,223.68599100000029,224.16978030000018,224.17440430000033,224.19136509999998,226.65262550000034,,,,,226.6527983000001,226.66811959999995,226.86874620000026,226.85244719999992,224.19136509999998,,,,,,,,0,0,2.4577573000001394,None,,,,,,,,836,21,V,R,2026-02-25_11h39.57.914,VisualSearch_2526_3,,2025.2.4,2026-02-25 11h39.58.142564 +0100,
tilted.xlsx,The target is tilted.,117,77,5,9,0,1,1,1,1,1,1,1,0,0,0,0,1,7,8,117,space,6.798610899999858,None,0,1,2.767666299999746,None,space,3.2129707999997663,None,0,0,0,0,,,,,9,5,77,5,226.86874620000026,,,,,,,,,,,,,,,,,,,,,226.85320300000012,226.86874620000026,227.3520437000002,227.35661729999993,227.37420210000028,230.15229810000028,,,,,230.1524647000001,230.16753890000018,230.36779019999994,230.35155220000024,227.37420210000028,,,,,,,,0,1,2.767666299999746,None,,,,,,,,836,21,V,R,2026-02-25_11h39.57.914,VisualSearch_2526_3,,2025.2.4,2026-02-25 11h39.58.142564 +0100,
tilted.xlsx,The target is tilted.,117,78,6,9,0,1,1,1,1,1,1,1,1,1,1,1,1,11,12,117,space,6.798610899999858,None,0,1,2.3976490000000013,None,space,3.2129707999997663,None,0,0,0,0,,,,,9,6,78,4,230.36779019999994,,,,,,,,,,,,,,,,,,,,,230.35223200000019,230.36779019999994,230.85170210000024,230.85580019999998,230.8706628,233.28460610000002,,,,,233.2847557,233.30028459999994,233.50075900000002,233.48433710000018,230.8706628,,,,,,,,0,1,2.3976490000000013,None,,,,,,,,836,21,V,R,2026-02-25_11h39.57.914,VisualSearch_2526_3,,2025.2.4,2026-02-25 11h39.58.142564 +0100,
tilted.xlsx,The target is tilted.,117,79,7,9,1,1,1,1,0,0,0,0,0,0,0,0,0,3,4,117,space,6.798610899999858,None,0,0,1.031240599999819,None,space,3.2129707999997663,None,0,0,0,0,,,,,9,7,79,2,233.50075900000002,,,,,,,,,,,,,,,,,,,,,233.4849806000002,233.50075900000002,233.98476770000025,233.98933690000013,234.00067609999996,235.0350444999999,,,,,235.03520470000012,235.05013210000016,235.25030540000034,235.23409250000032,234.00067609999996,,,,,,,,0,0,1.031240599999819,None,,,,,,,,836,21,V,R,2026-02-25_11h39.57.914,VisualSearch_2526_3,,2025.2.4,2026-02-25 11h39.58.142564 +0100,
tilted.xlsx,The target is tilted.,117,80,0,10,1,1,1,1,1,1,1,1,1,1,1,1,0,11,12,117,space,6.798610899999858,None,0,0,4.3170218000000204,None,space,3.2129707999997663,None,0,0,0,0,,,,,10,0,80,0,235.25030540000034,,,,,,,,,,,,,,,,,,,,,235.23467849999997,235.25030540000034,235.73417370000016,235.73923120000018,235.74991550000004,240.0829294,,,,,240.08299110000007,240.09889090000024,240.29933560000018,240.28312540000024,235.74991550000004,,,,,,,,0,0,4.3170218000000204,None,,,,,,,,836,21,V,R,2026-02-25_11h39.57.914,VisualSearch_2526_3,,2025.2.4,2026-02-25 11h39.58.142564 +0100,
tilted.xlsx,The target is tilted.,117,81,1,10,0,0,0,0,0,0,0,0,0,0,0,0,1,1,1,117,space,6.798610899999858,None,0,1,0.835219799999777,None,space,3.2129707999997663,None,0,0,0,0,,,,,10,1,81,7,240.29933560000018,,,,,,,,,,,,,,,,,,,,,240.28378620000012,240.29933560000018,240.78298919999997,240.78640650000034,240.80105159999994,241.6499404000001,,,,,241.65010010000015,241.66558000000032,241.8662650000001,241.8501013,240.80105159999994,,,,,,,,0,1,0.835219799999777,None,,,,,,,,836,21,V,R,2026-02-25_11h39.57.914,VisualSearch_2526_3,,2025.2.4,2026-02-25 11h39.58.142564 +0100,
tilted.xlsx,The target is tilted.,117,82,2,10,1,1,1,1,0,0,0,0,0,0,0,0,0,3,4,117,space,6.798610899999858,None,0,0,1.8801714999999604,None,space,3.2129707999997663,None,0,0,0,0,,,,,10,2,82,2,241.8662650000001,,,,,,,,,,,,,,,,,,,,,241.85082020000027,241.8662650000001,242.34999040000002,242.35456449999992,242.3705103000002,244.26614010000003,,,,,244.266298,244.28182990000005,244.48239330000024,244.4661590999999,242.3705103000002,,,,,,,,0,0,1.8801714999999604,None,,,,,,,,836,21,V,R,2026-02-25_11h39.57.914,VisualSearch_2526_3,,2025.2.4,2026-02-25 11h39.58.142564 +0100,
tilted.xlsx,The target is tilted.,117,83,3,10,1,1,1,1,1,1,1,1,0,0,0,0,0,7,8,117,space,6.798610899999858,None,1,1,2.058947200000148,None,space,3.2129707999997663,None,0,0,0,0,,,,,10,3,83,1,244.48239330000024,,,,,,,,,,,,,,,,,,,,,244.4668532999999,244.48239330000024,244.96645919999992,244.9720030000003,244.9895077000001,247.04968159999999,,,,,247.04984240000022,247.06528040000012,247.26530249999996,247.24881559999994,244.9895077000001,,,,,,,,1,1,2.058947200000148,None,,,,,,,,836,21,V,R,2026-02-25_11h39.57.914,VisualSearch_2526_3,,2025.2.4,2026-02-25 11h39.58.142564 +0100,
tilted.xlsx,The target is tilted.,117,84,4,10,0,1,1,1,1,1,1,1,0,0,0,0,1,7,8,117,space,6.798610899999858,None,0,1,1.6215409000001273,None,space,3.2129707999997663,None,0,0,0,0,,,,,10,4,84,5,247.26530249999996,,,,,,,,,,,,,,,,,,,,,247.2495856999999,247.26530249999996,247.74866250000014,247.75281369999993,247.7691064999999,249.39813540000023,,,,,249.3982117999999,249.41414200000008,249.61416540000027,249.597667,247.7691064999999,,,,,,,,0,1,1.6215409000001273,None,,,,,,,,836,21,V,R,2026-02-25_11h39.57.914,VisualSearch_2526_3,,2025.2.4,2026-02-25 11h39.58.142564 +0100,
tilted.xlsx,The target is tilted.,117,85,5,10,0,1,1,1,0,0,0,0,0,0,0,0,1,3,4,117,space,6.798610899999858,None,0,1,1.0076152999999977,None,space,3.2129707999997663,None,0,0,0,0,,,,,10,5,85,6,249.61416540000027,,,,,,,,,,,,,,,,,,,,,249.59789230000024,249.61416540000027,250.0980497999999,250.10118600000033,250.11444100000017,251.13232440000002,,,,,251.13251620000028,251.1478849,251.34738180000022,251.33148070000016,250.11444100000017,,,,,,,,0,1,1.0076152999999977,None,,,,,,,,836,21,V,R,2026-02-25_11h39.57.914,VisualSearch_2526_3,,2025.2.4,2026-02-25 11h39.58.142564 +0100,
tilted.xlsx,The target is tilted.,117,86,6,10,0,1,1,1,1,1,1,1,1,1,1,1,1,11,12,117,space,6.798610899999858,None,0,1,2.715711399999691,None,space,3.2129707999997663,None,0,0,0,0,,,,,10,6,86,4,251.34738180000022,,,,,,,,,,,,,,,,,,,,,251.33224820000032,251.34738180000022,251.83127150000018,251.83595229999992,251.85166299999992,254.58140249999997,,,,,254.5815818000001,254.59739100000024,254.79745030000004,254.78119930000003,251.85166299999992,,,,,,,,0,1,2.715711399999691,None,,,,,,,,836,21,V,R,2026-02-25_11h39.57.914,VisualSearch_2526_3,,2025.2.4,2026-02-25 11h39.58.142564 +0100,
tilted.xlsx,The target is tilted.,117,87,7,10,1,0,0,0,0,0,0,0,0,0,0,0,0,0,1,117,space,6.798610899999858,None,1,1,0.7454844999997476,None,space,3.2129707999997663,None,0,0,0,0,,,,,10,7,87,3,254.79745030000004,,,,,,,,,,,,,,,,,,,,,254.78196720000005,254.79745030000004,255.28084830000034,255.28555910000023,255.30140610000035,256.0483011000001,,,,,256.04847340000015,256.06371880000006,256.26386870000033,256.2475835,255.30140610000035,,,,,,,,1,1,0.7454844999997476,None,,,,,,,,836,21,V,R,2026-02-25_11h39.57.914,VisualSearch_2526_3,,2025.2.4,2026-02-25 11h39.58.142564 +0100,
tilted.xlsx,The target is tilted.,117,88,0,11,1,0,0,0,0,0,0,0,0,0,0,0,0,0,1,117,space,6.798610899999858,None,1,1,0.7161532000000079,None,space,3.2129707999997663,None,0,0,0,0,,,,,11,0,88,3,256.26386870000033,,,,,,,,,,,,,,,,,,,,,256.2483259999999,256.26386870000033,256.7476031000001,256.75217610000027,256.7689865000002,257.49806020000005,,,,,257.49823270000024,257.5135307999999,257.71362130000034,257.6975196000003,256.7689865000002,,,,,,,,1,1,0.7161532000000079,None,,,,,,,,836,21,V,R,2026-02-25_11h39.57.914,VisualSearch_2526_3,,2025.2.4,2026-02-25 11h39.58.142564 +0100,
tilted.xlsx,The target is tilted.,117,89,1,11,0,1,1,1,0,0,0,0,0,0,0,0,1,3,4,117,space,6.798610899999858,None,0,1,0.9411245000001145,None,space,3.2129707999997663,None,0,0,0,0,,,,,11,1,89,6,257.71362130000034,,,,,,,,,,,,,,,,,,,,,257.6982474000001,257.71362130000034,258.1973445000003,258.20182980000027,258.2180022000002,259.1646971,,,,,259.1648803000003,259.1797633000001,259.38003590000017,259.36380610000015,258.2180022000002,,,,,,,,0,1,0.9411245000001145,None,,,,,,,,836,21,V,R,2026-02-25_11h39.57.914,VisualSearch_2526_3,,2025.2.4,2026-02-25 11h39.58.142564 +0100,
tilted.xlsx,The target is tilted.,117,90,2,11,0,1,1,1,1,1,1,1,1,1,1,1,1,11,12,117,space,6.798610899999858,None,0,1,2.4514217000000826,None,space,3.2129707999997663,None,0,0,0,0,,,,,11,2,90,4,259.38003590000017,,,,,,,,,,,,,,,,,,,,,259.36454440000034,259.38003590000017,259.8637461000003,259.86836540000013,259.8859757,262.34709360000033,,,,,262.3472506000003,262.3626698000003,262.5627684000001,262.5465250000002,259.8859757,,,,,,,,0,1,2.4514217000000826,None,,,,,,,,836,21,V,R,2026-02-25_11h39.57.914,VisualSearch_2526_3,,2025.2.4,2026-02-25 11h39.58.142564 +0100,
tilted.xlsx,The target is tilted.,117,91,3,11,1,1,1,1,0,0,0,0,0,0,0,0,0,3,4,117,space,6.798610899999858,None,1,1,1.4772473999996691,None,space,3.2129707999997663,None,0,0,0,0,,,,,11,3,91,2,262.5627684000001,,,,,,,,,,,,,,,,,,,,,262.54714360000025,262.5627684000001,263.0452887000001,263.0464543000003,263.06181100000003,264.54692509999995,,,,,264.5471170999999,264.5623922,264.7624060000003,264.7463348000001,263.06181100000003,,,,,,,,1,1,1.4772473999996691,None,,,,,,,,836,21,V,R,2026-02-25_11h39.57.914,VisualSearch_2526_3,,2025.2.4,2026-02-25 11h39.58.142564 +0100,
tilted.xlsx,The target is tilted.,117,92,4,11,1,1,1,1,1,1,1,1,1,1,1,1,0,11,12,117,space,6.798610899999858,None,0,0,2.350704499999665,None,space,3.2129707999997663,None,0,0,0,0,,,,,11,4,92,0,264.7624060000003,,,,,,,,,,,,,,,,,,,,,264.7471031,264.7624060000003,265.2458676000001,265.2504712,265.26589790000025,267.6296477000001,,,,,267.6298247,267.64514869999994,267.8452661000001,267.8291465000002,265.26589790000025,,,,,,,,0,0,2.350704499999665,None,,,,,,,,836,21,V,R,2026-02-25_11h39.57.914,VisualSearch_2526_3,,2025.2.4,2026-02-25 11h39.58.142564 +0100,
tilted.xlsx,The target is tilted.,117,93,5,11,0,1,1,1,1,1,1,1,0,0,0,0,1,7,8,117,space,6.798610899999858,None,0,1,1.1862283999998908,None,space,3.2129707999997663,None,0,0,0,0,,,,,11,5,93,5,267.8452661000001,,,,,,,,,,,,,,,,,,,,,267.8298926000002,267.8452661000001,268.32901440000023,268.33353460000035,268.3495587000002,269.54562840000017,,,,,269.54580320000014,269.56148520000033,269.7615814999999,269.7454882000002,268.3495587000002,,,,,,,,0,1,1.1862283999998908,None,,,,,,,,836,21,V,R,2026-02-25_11h39.57.914,VisualSearch_2526_3,,2025.2.4,2026-02-25 11h39.58.142564 +0100,
tilted.xlsx,The target is tilted.,117,94,6,11,0,0,0,0,0,0,0,0,0,0,0,0,1,1,1,117,space,6.798610899999858,None,0,1,0.9197754000001623,None,space,3.2129707999997663,None,0,0,0,0,,,,,11,6,94,7,269.7615814999999,,,,,,,,,,,,,,,,,,,,,269.7461948,269.7615814999999,270.2453722,270.24991020000016,270.26696730000003,271.1954619000003,,,,,271.1956213000003,271.21121740000035,271.4105746,271.3942486000001,270.26696730000003,,,,,,,,0,1,0.9197754000001623,None,,,,,,,,836,21,V,R,2026-02-25_11h39.57.914,VisualSearch_2526_3,,2025.2.4,2026-02-25 11h39.58.142564 +0100,
tilted.xlsx,The target is tilted.,117,95,7,11,1,1,1,1,1,1,1,1,0,0,0,0,0,7,8,117,space,6.798610899999858,None,1,1,1.7137683000000834,None,space,3.2129707999997663,None,0,0,0,0,,,,,11,7,95,1,271.4105746,,,,,,,,,,,,,,,,,,,,,271.39476730000024,271.4105746,271.8950408999999,271.9004281000002,271.91672689999996,273.64519340000015,,,,,273.6453704999999,273.66072170000007,273.8605365000003,273.8447913,271.91672689999996,,,,,,,,1,1,1.7137683000000834,None,,,,,,,,836,21,V,R,2026-02-25_11h39.57.914,VisualSearch_2526_3,,2025.2.4,2026-02-25 11h39.58.142564 +0100,
tilted.xlsx,The target is tilted.,117,96,0,12,0,1,1,1,1,1,1,1,1,1,1,1,1,11,12,117,space,6.798610899999858,None,0,1,2.4512055999998665,None,space,3.2129707999997663,None,0,0,0,0,,,,,12,0,96,4,273.8605365000003,,,,,,,,,,,,,,,,,,,,,273.8455124000002,273.8605365000003,274.3442964999999,274.34886890000007,274.3607299,276.8281986000002,,,,,276.8283808000001,276.84362850000025,277.04374050000024,277.0275700000002,274.3607299,,,,,,,,0,1,2.4512055999998665,None,,,,,,,,836,21,V,R,2026-02-25_11h39.57.914,VisualSearch_2526_3,,2025.2.4,2026-02-25 11h39.58.142564 +0100,
tilted.xlsx,The target is tilted.,117,97,1,12,1,0,0,0,0,0,0,0,0,0,0,0,0,0,1,117,space,6.798610899999858,None,1,1,0.8201184999998077,None,space,3.2129707999997663,None,0,0,0,0,,,,,12,1,97,3,277.04374050000024,,,,,,,,,,,,,,,,,,,,,277.0282750000001,277.04374050000024,277.5273182000001,277.53199240000004,277.54910800000016,278.3777027000001,,,,,278.3778757,278.39334080000026,278.5935202999999,278.5775268000002,277.54910800000016,,,,,,,,1,1,0.8201184999998077,None,,,,,,,,836,21,V,R,2026-02-25_11h39.57.914,VisualSearch_2526_3,,2025.2.4,2026-02-25 11h39.58.142564 +0100,
tilted.xlsx,The target is tilted.,117,98,2,12,1,1,1,1,1,1,1,1,1,1,1,1,0,11,12,117,space,6.798610899999858,None,0,0,3.070515400000204,None,space,3.2129707999997663,None,0,0,0,0,,,,,12,2,98,0,278.5935202999999,,,,,,,,,,,,,,,,,,,,,278.578266,278.5935202999999,279.0774624999999,279.08281669999997,279.09951260000025,282.1768498000001,,,,,282.17697510000016,282.19263,282.39273060000005,282.3764725000001,279.09951260000025,,,,,,,,0,0,3.070515400000204,None,,,,,,,,836,21,V,R,2026-02-25_11h39.57.914,VisualSearch_2526_3,,2025.2.4,2026-02-25 11h39.58.142564 +0100,
tilted.xlsx,The target is tilted.,117,99,3,12,0,1,1,1,1,1,1,1,0,0,0,0,1,7,8,117,space,6.798610899999858,None,0,1,2.7281346999998277,None,space,3.2129707999997663,None,0,0,0,0,,,,,12,3,99,5,282.39273060000005,,,,,,,,,,,,,,,,,,,,,282.3772022000003,282.39273060000005,282.87652849999995,282.88113980000026,282.8958877,285.62659220000023,,,,,285.62676809999994,285.64210159999993,285.84178820000034,285.82579380000016,282.8958877,,,,,,,,0,1,2.7281346999998277,None,,,,,,,,836,21,V,R,2026-02-25_11h39.57.914,VisualSearch_2526_3,,2025.2.4,2026-02-25 11h39.58.142564 +0100,
tilted.xlsx,The target is tilted.,117,100,4,12,0,0,0,0,0,0,0,0,0,0,0,0,1,1,1,117,space,6.798610899999858,None,0,1,0.8702097999998841,None,space,3.2129707999997663,None,0,0,0,0,,,,,12,4,100,7,285.84178820000034,,,,,,,,,,,,,,,,,,,,,285.82656739999993,285.84178820000034,286.3260780999999,286.3307047000003,286.34199190000027,287.22646220000024,,,,,287.2266563000003,287.2415970000002,287.4415981000002,287.42583600000034,286.34199190000027,,,,,,,,0,1,0.8702097999998841,None,,,,,,,,836,21,V,R,2026-02-25_11h39.57.914,VisualSearch_2526_3,,2025.2.4,2026-02-25 11h39.58.142564 +0100,
tilted.xlsx,The target is tilted.,117,101,5,12,1,1,1,1,0,0,0,0,0,0,0,0,0,3,4,117,space,6.798610899999858,None,1,1,0.8471878999998808,None,space,3.2129707999997663,None,0,0,0,0,,,,,12,5,101,2,287.4415981000002,,,,,,,,,,,,,,,,,,,,,287.42663029999994,287.4415981000002,287.92546059999995,287.9301896000002,287.9471689000002,288.80907350000007,,,,,288.8092329000001,288.8249713,289.02519359999997,289.00901780000004,287.9471689000002,,,,,,,,1,1,0.8471878999998808,None,,,,,,,,836,21,V,R,2026-02-25_11h39.57.914,VisualSearch_2526_3,,2025.2.4,2026-02-25 11h39.58.142564 +0100,
tilted.xlsx,The target is tilted.,117,102,6,12,0,1,1,1,0,0,0,0,0,0,0,0,1,3,4,117,space,6.798610899999858,None,0,1,1.2212390999998206,None,space,3.2129707999997663,None,0,0,0,0,,,,,12,6,102,6,289.02519359999997,,,,,,,,,,,,,,,,,,,,,289.0098161000001,289.02519359999997,289.5090398000002,289.51431219999995,289.53140329999997,290.7589656,,,,,290.75914090000015,290.7745322999999,290.97472700000026,290.9585839000001,289.53140329999997,,,,,,,,0,1,1.2212390999998206,None,,,,,,,,836,21,V,R,2026-02-25_11h39.57.914,VisualSearch_2526_3,,2025.2.4,2026-02-25 11h39.58.142564 +0100,
tilted.xlsx,The target is tilted.,117,103,7,12,1,1,1,1,1,1,1,1,0,0,0,0,0,7,8,117,space,6.798610899999858,None,1,1,1.3911020999998982,None,space,3.2129707999997663,None,0,0,0,0,,,,,12,7,103,1,290.97472700000026,,,,,,,,,,,,,,,,,,,,,290.9593055,290.97472700000026,291.45856870000034,291.4633395000001,291.4801652000001,292.8751234000001,,,,,292.8753058000002,292.89057649999995,293.0908913000003,293.0748526000002,291.4801652000001,,,,,,,,1,1,1.3911020999998982,None,,,,,,,,836,21,V,R,2026-02-25_11h39.57.914,VisualSearch_2526_3,,2025.2.4,2026-02-25 11h39.58.142564 +0100,
tilted.xlsx,The target is tilted.,117,104,0,13,0,1,1,1,0,0,0,0,0,0,0,0,1,3,4,117,space,6.798610899999858,None,0,1,1.0076735999996345,None,space,3.2129707999997663,None,0,0,0,0,,,,,13,0,104,6,293.0908913000003,,,,,,,,,,,,,,,,,,,,,293.07559690000016,293.0908913000003,293.5747627999999,293.5794194,293.5958310000001,294.60807250000016,,,,,294.60824520000006,294.6240492000002,294.8240135000001,294.8077787000002,293.5958310000001,,,,,,,,0,1,1.0076735999996345,None,,,,,,,,836,21,V,R,2026-02-25_11h39.57.914,VisualSearch_2526_3,,2025.2.4,2026-02-25 11h39.58.142564 +0100,
tilted.xlsx,The target is tilted.,117,105,1,13,1,1,1,1,1,1,1,1,0,0,0,0,0,7,8,117,space,6.798610899999858,None,1,1,1.5921349000000191,None,space,3.2129707999997663,None,0,0,0,0,,,,,13,1,105,1,294.8240135000001,,,,,,,,,,,,,,,,,,,,,294.80853920000027,294.8240135000001,295.3078338,295.3123386000002,295.32951690000027,296.92479679999997,,,,,296.92496789999996,296.94001750000007,297.14015240000026,297.12413540000034,295.32951690000027,,,,,,,,1,1,1.5921349000000191,None,,,,,,,,836,21,V,R,2026-02-25_11h39.57.914,VisualSearch_2526_3,,2025.2.4,2026-02-25 11h39.58.142564 +0100,
tilted.xlsx,The target is tilted.,117,106,2,13,1,0,0,0,0,0,0,0,0,0,0,0,0,0,1,117,space,6.798610899999858,None,1,1,0.6457015999999385,None,space,3.2129707999997663,None,0,0,0,0,,,,,13,2,106,3,297.14015240000026,,,,,,,,,,,,,,,,,,,,,297.12489830000004,297.14015240000026,297.6241904000003,297.6289531000002,297.6445211,298.29114500000014,,,,,298.2913332000003,298.30661210000017,298.50682000000006,298.49064560000033,297.6445211,,,,,,,,1,1,0.6457015999999385,None,,,,,,,,836,21,V,R,2026-02-25_11h39.57.914,VisualSearch_2526_3,,2025.2.4,2026-02-25 11h39.58.142564 +0100,
tilted.xlsx,The target is tilted.,117,107,3,13,1,1,1,1,0,0,0,0,0,0,0,0,0,3,4,117,space,6.798610899999858,None,1,1,0.5900620000002164,None,space,3.2129707999997663,None,0,0,0,0,,,,,13,3,107,2,298.50682000000006,,,,,,,,,,,,,,,,,,,,,298.49137420000034,298.50682000000006,298.9904776000003,298.99485760000016,299.00659940000014,299.6077838000001,,,,,299.60801130000027,299.623149,299.823171,299.8069462000003,299.00659940000014,,,,,,,,1,1,0.5900620000002164,None,,,,,,,,836,21,V,R,2026-02-25_11h39.57.914,VisualSearch_2526_3,,2025.2.4,2026-02-25 11h39.58.142564 +0100,
tilted.xlsx,The target is tilted.,117,108,4,13,0,1,1,1,1,1,1,1,1,1,1,1,1,11,12,117,space,6.798610899999858,None,0,1,2.6897954000000937,None,space,3.2129707999997663,None,0,0,0,0,,,,,13,4,108,4,299.823171,,,,,,,,,,,,,,,,,,,,,299.8076881000002,299.823171,300.3071777,300.31235229999993,300.3300806000002,303.0232844000002,,,,,303.0234594000003,303.0392052000002,303.23889580000014,303.2231552000003,300.3300806000002,,,,,,,,0,1,2.6897954000000937,None,,,,,,,,836,21,V,R,2026-02-25_11h39.57.914,VisualSearch_2526_3,,2025.2.4,2026-02-25 11h39.58.142564 +0100,
tilted.xlsx,The target is tilted.,117,109,5,13,0,1,1,1,1,1,1,1,0,0,0,0,1,7,8,117,space,6.798610899999858,None,0,1,1.8952469000000747,None,space,3.2129707999997663,None,0,0,0,0,,,,,13,5,109,5,303.23889580000014,,,,,,,,,,,,,,,,,,,,,303.2239069000002,303.23889580000014,303.7230536000002,303.7278885999999,303.7456695000001,305.65659240000014,,,,,305.65678160000016,305.6719539999999,305.8721966000003,305.85607230000005,303.7456695000001,,,,,,,,0,1,1.8952469000000747,None,,,,,,,,836,21,V,R,2026-02-25_11h39.57.914,VisualSearch_2526_3,,2025.2.4,2026-02-25 11h39.58.142564 +0100,
tilted.xlsx,The target is tilted.,117,110,6,13,1,1,1,1,1,1,1,1,1,1,1,1,0,11,12,117,space,6.798610899999858,None,0,0,1.9653017000000546,None,space,3.2129707999997663,None,0,0,0,0,,,,,13,6,110,0,305.8721966000003,,,,,,,,,,,,,,,,,,,,,305.85680120000006,305.8721966000003,306.35596680000026,306.3608757000002,306.37732540000025,308.3560701000001,,,,,308.3562479000002,308.3716612000003,308.5717066000002,308.55558800000017,306.37732540000025,,,,,,,,0,0,1.9653017000000546,None,,,,,,,,836,21,V,R,2026-02-25_11h39.57.914,VisualSearch_2526_3,,2025.2.4,2026-02-25 11h39.58.142564 +0100,
tilted.xlsx,The target is tilted.,117,111,7,13,0,0,0,0,0,0,0,0,0,0,0,0,1,1,1,117,space,6.798610899999858,None,0,1,0.8051766000003227,None,space,3.2129707999997663,None,0,0,0,0,,,,,13,7,111,7,308.5717066000002,,,,,,,,,,,,,,,,,,,,,308.55634370000007,308.5717066000002,309.0553279999999,309.0601474,309.0771586000001,309.8888465,,,,,309.8890172000001,309.90448330000027,310.1048743000001,310.08883920000017,309.0771586000001,,,,,,,,0,1,0.8051766000003227,None,,,,,,,,836,21,V,R,2026-02-25_11h39.57.914,VisualSearch_2526_3,,2025.2.4,2026-02-25 11h39.58.142564 +0100,
tilted.xlsx,The target is tilted.,117,112,0,14,1,1,1,1,0,0,0,0,0,0,0,0,0,3,4,117,space,6.798610899999858,None,1,1,1.116398599999684,None,space,3.2129707999997663,None,0,0,0,0,,,,,14,0,112,2,310.1048743000001,,,,,,,,,,,,,,,,,,,,,310.0895845,310.1048743000001,310.58887010000035,310.5938223000003,310.6104389000002,311.73872600000004,,,,,311.73890340000025,311.7545473,,311.9393229000002,310.6104389000002,,,,,,,,1,1,1.116398599999684,None,,,,,,,,836,21,V,R,2026-02-25_11h39.57.914,VisualSearch_2526_3,,2025.2.4,2026-02-25 11h39.58.142564 +0100,
tilted.xlsx,The target is tilted.,117,113,1,14,1,0,0,0,0,0,0,0,0,0,0,0,0,0,1,117,space,6.798610899999858,None,1,1,0.6328859000000193,None,space,3.2129707999997663,None,0,0,0,0,,,,,14,1,113,3,311.9544642000001,,,,,,,,,,,,,,,,,,,,,311.9401178000003,311.9544642000001,312.438443,312.44345120000025,312.4605724000003,313.10550319999993,,,,,313.1056937000003,313.1209223999999,313.32092009999997,313.3048345000002,312.4605724000003,,,,,,,,1,1,0.6328859000000193,None,,,,,,,,836,21,V,R,2026-02-25_11h39.57.914,VisualSearch_2526_3,,2025.2.4,2026-02-25 11h39.58.142564 +0100,
tilted.xlsx,The target is tilted.,117,114,2,14,1,1,1,1,1,1,1,1,1,1,1,1,0,11,12,117,space,6.798610899999858,None,1,1,0.7548512999997001,None,space,3.2129707999997663,None,0,0,0,0,,,,,14,2,114,0,313.32092009999997,,,,,,,,,,,,,,,,,,,,,313.3055463999999,313.32092009999997,313.8047279000002,313.8093014000001,313.8245673000001,314.58692800000017,,,,,314.5869875000003,314.6033107000003,,314.7872459,313.8245673000001,,,,,,,,1,1,0.7548512999997001,None,,,,,,,,836,21,V,R,2026-02-25_11h39.57.914,VisualSearch_2526_3,,2025.2.4,2026-02-25 11h39.58.142564 +0100,
tilted.xlsx,The target is tilted.,117,115,3,14,0,1,1,1,0,0,0,0,0,0,0,0,1,3,4,117,space,6.798610899999858,None,0,1,1.1745561000002454,None,space,3.2129707999997663,None,0,0,0,0,,,,,14,3,115,6,314.80386339999995,,,,,,,,,,,,,,,,,,,,,314.7876586000002,314.80386339999995,315.2868076,315.2880490000002,315.30320170000005,316.48819649999996,,,,,316.48838810000007,316.50368500000013,316.70387100000016,316.68766099999993,315.30320170000005,,,,,,,,0,1,1.1745561000002454,None,,,,,,,,836,21,V,R,2026-02-25_11h39.57.914,VisualSearch_2526_3,,2025.2.4,2026-02-25 11h39.58.142564 +0100,
tilted.xlsx,The target is tilted.,117,116,4,14,0,1,1,1,1,1,1,1,1,1,1,1,1,11,12,117,space,6.798610899999858,None,0,1,2.747165000000223,None,space,3.2129707999997663,None,0,0,0,0,,,,,14,4,116,4,316.70387100000016,,,,,,,,,,,,,,,,,,,,,316.6884887000001,316.70387100000016,317.1872905,317.1919560000001,317.20350750000034,319.9537639,,,,,319.9539073000001,319.96967220000033,320.1697187,320.15354560000014,317.20350750000034,,,,,,,,0,1,2.747165000000223,None,,,,,,,,836,21,V,R,2026-02-25_11h39.57.914,VisualSearch_2526_3,,2025.2.4,2026-02-25 11h39.58.142564 +0100,
tilted.xlsx,The target is tilted.,117,117,5,14,0,1,1,1,1,1,1,1,0,0,0,0,1,7,8,117,space,6.798610899999858,None,0,1,2.10104629999978,None,space,3.2129707999997663,None,0,0,0,0,,,,,14,5,117,5,320.1697187,,,,,,,,,,,,,,,,,,,,,320.1542641000001,320.1697187,320.65373530000033,320.6593863000003,320.67499540000017,322.7870759000002,,,,,322.78725269999995,322.80257630000006,323.0025628000003,322.98637210000015,320.67499540000017,,,,,,,,0,1,2.10104629999978,None,,,,,,,,836,21,V,R,2026-02-25_11h39.57.914,VisualSearch_2526_3,,2025.2.4,2026-02-25 11h39.58.142564 +0100,
tilted.xlsx,The target is tilted.,117,118,6,14,1,1,1,1,1,1,1,1,0,0,0,0,0,7,8,117,space,6.798610899999858,None,1,1,1.0128872000000229,None,space,3.2129707999997663,None,0,0,0,0,,,,,14,6,118,1,323.0025628000003,,,,,,,,,,,,,,,,,,,,,322.98701040000014,323.0025628000003,323.486183,323.4914149000001,323.50597050000033,324.52004890000035,,,,,324.5202205999999,324.5355647000001,324.73560050000015,324.71966939999993,323.50597050000033,,,,,,,,1,1,1.0128872000000229,None,,,,,,,,836,21,V,R,2026-02-25_11h39.57.914,VisualSearch_2526_3,,2025.2.4,2026-02-25 11h39.58.142564 +0100,
tilted.xlsx,The target is tilted.,117,119,7,14,0,0,0,0,0,0,0,0,0,0,0,0,1,1,1,117,space,6.798610899999858,None,0,1,0.6730115000000296,None,space,3.2129707999997663,None,0,0,0,0,,,,,14,7,119,7,324.73560050000015,,,,,,,,,,,,,,,,,,,,,324.7204101000002,324.73560050000015,325.21962269999995,325.22417910000013,325.2421021,325.91940380000005,,,,,325.9195772000003,325.9355046999999,326.1511204000003,326.11950270000034,325.2421021,,,,,,,,0,1,0.6730115000000296,None,,,,,,,,836,21,V,R,2026-02-25_11h39.57.914,VisualSearch_2526_3,,2025.2.4,2026-02-25 11h39.58.142564 +0100,
tilted.xlsx,The target is tilted.,117,0,0,0,,,,,,,,,,,,,,,,,space,6.798610899999858,None,,,,,space,3.2129707999997663,None,0,0,0,0,,,,,,,,,,,,,,,,,,,,,,,,,,,,,,,,,,,,,,,,,,,,,,,,,,,,,,,,,,,,,,,836,21,V,R,2026-02-25_11h39.57.914,VisualSearch_2526_3,,2025.2.4,2026-02-25 11h39.58.142564 +0100,
vertical.xlsx,The target is tilted.,135,0,0,0,0,0,0,0,0,0,0,0,0,0,0,0,1,1,1,135,space,3.8345408000000134,None,0,1,0.6094640999999683,None,,,,0,1,1,1,0,0,0,7,,,,,330.0294626,,,,,,,,,,,,,,,326.1511204000003,326.1511204000003,326.1511204000003,space,3.8345408000000134,None,330.0257815,330.0294626,330.5184541000003,330.5231715,330.53797220000024,331.1515228000003,0,1,0.6094640999999683,None,331.151621,331.16777470000034,331.36788079999997,331.3516903,,,,,,,,,,,,,,,,,,,,836,21,V,R,2026-02-25_11h39.57.914,VisualSearch_2526_3,,2025.2.4,2026-02-25 11h39.58.142564 +0100,
vertical.xlsx,The target is tilted.,135,1,1,0,0,1,1,1,0,0,0,0,0,0,0,0,1,3,4,135,space,3.8345408000000134,None,0,1,0.7195818000000145,None,,,,0,1,1,1,0,1,1,6,,,,,331.36788079999997,,,,,,,,,,,,,,,,,,,,,331.35239230000025,331.36788079999997,331.851596,331.8562667000001,331.87363030000006,332.6020459000001,0,1,0.7195818000000145,None,332.6022281999999,332.61738540000033,332.8175148,332.80128860000013,331.87363030000006,,,,,,,,,,,,,,,,,,,836,21,V,R,2026-02-25_11h39.57.914,VisualSearch_2526_3,,2025.2.4,2026-02-25 11h39.58.142564 +0100,
vertical.xlsx,The target is tilted.,135,2,2,0,1,0,0,0,0,0,0,0,0,0,0,0,0,0,1,135,space,3.8345408000000134,None,1,1,0.6246399000001475,None,,,,0,1,1,1,0,2,2,3,,,,,332.8175148,,,,,,,,,,,,,,,,,,,,,332.80192320000015,332.8175148,333.3016193000003,333.30675840000004,333.3169471000001,333.9518223,1,1,0.6246399000001475,None,333.9520037000002,333.96729159999995,334.16752829999996,334.15109710000024,333.3169471000001,,,,,,,,,,,,,,,,,,,836,21,V,R,2026-02-25_11h39.57.914,VisualSearch_2526_3,,2025.2.4,2026-02-25 11h39.58.142564 +0100,
vertical.xlsx,The target is tilted.,135,3,3,0,1,1,1,1,1,1,1,1,0,0,0,0,0,7,8,135,space,3.8345408000000134,None,1,1,0.6499222000002192,None,,,,0,1,1,1,0,3,3,1,,,,,334.16752829999996,,,,,,,,,,,,,,,,,,,,,334.1517646000002,334.16752829999996,334.6510164000001,334.6556092000001,334.6720266000002,335.3352213000003,1,1,0.6499222000002192,None,335.3354241000002,335.3504406000002,335.5499711000002,335.53402730000016,334.6720266000002,,,,,,,,,,,,,,,,,,,836,21,V,R,2026-02-25_11h39.57.914,VisualSearch_2526_3,,2025.2.4,2026-02-25 11h39.58.142564 +0100,
vertical.xlsx,The target is tilted.,135,4,4,0,1,1,1,1,1,1,1,1,1,1,1,1,0,11,12,135,space,3.8345408000000134,None,1,1,0.5815889000000425,None,,,,0,1,1,1,0,4,4,0,,,,,335.5499711000002,,,,,,,,,,,,,,,,,,,,,335.5344058999999,335.5499711000002,336.0337303000001,336.03582810000034,336.04977510000026,336.6345255000001,1,1,0.5815889000000425,None,336.63467500000024,336.64998890000015,336.85011280000026,336.83423859999994,336.04977510000026,,,,,,,,,,,,,,,,,,,836,21,V,R,2026-02-25_11h39.57.914,VisualSearch_2526_3,,2025.2.4,2026-02-25 11h39.58.142564 +0100,
vertical.xlsx,The target is tilted.,135,5,5,0,0,1,1,1,1,1,1,1,1,1,1,1,1,11,12,135,space,3.8345408000000134,None,0,1,1.6319493000000875,None,,,,0,1,1,1,0,5,5,4,,,,,336.85011280000026,,,,,,,,,,,,,,,,,,,,,336.8349210000001,336.85011280000026,337.3342114000002,337.33874400000013,337.3547043000003,339.00103020000006,0,1,1.6319493000000875,None,339.00118310000016,339.0165396000002,339.21658130000014,339.20037460000003,337.3547043000003,,,,,,,,,,,,,,,,,,,836,21,V,R,2026-02-25_11h39.57.914,VisualSearch_2526_3,,2025.2.4,2026-02-25 11h39.58.142564 +0100,
vertical.xlsx,The target is tilted.,135,6,6,0,1,1,1,1,0,0,0,0,0,0,0,0,0,3,4,135,space,3.8345408000000134,None,1,1,0.6176086000000396,None,,,,0,1,1,1,0,6,6,2,,,,,339.21658130000014,,,,,,,,,,,,,,,,,,,,,339.20106350000015,339.21658130000014,339.7005799000003,339.70518010000023,339.718695,340.3502176000002,1,1,0.6176086000000396,None,340.35034700000006,340.3662453000002,340.56648380000024,340.5502308,339.718695,,,,,,,,,,,,,,,,,,,836,21,V,R,2026-02-25_11h39.57.914,VisualSearch_2526_3,,2025.2.4,2026-02-25 11h39.58.142564 +0100,
vertical.xlsx,The target is tilted.,135,7,7,0,0,1,1,1,1,1,1,1,0,0,0,0,1,7,8,135,space,3.8345408000000134,None,0,1,0.980833199999779,None,,,,0,1,1,1,0,7,7,5,,,,,340.56648380000024,,,,,,,,,,,,,,,,,,,,,340.55093350000016,340.56648380000024,341.0501269000001,341.05477340000016,341.07124840000006,342.0666553000001,0,1,0.980833199999779,None,342.0668074,342.0823679,342.2828598000001,342.26661749999994,341.07124840000006,,,,,,,,,,,,,,,,,,,836,21,V,R,2026-02-25_11h39.57.914,VisualSearch_2526_3,,2025.2.4,2026-02-25 11h39.58.142564 +0100,
vertical.xlsx,The target is tilted.,135,0,0,0,1,1,1,1,0,0,0,0,0,0,0,0,0,3,4,135,space,3.8345408000000134,None,1,1,0.7294938000000002,None,space,4.25318709999965,None,0,1,1,1,,,,,0,0,0,2,346.58302470000035,,,,,,,,,,,,,,,,,,,,,346.5786898000001,346.58302470000035,347.0656033,347.0704128000002,347.0873829000002,347.83294950000027,,,,,347.83314500000006,347.8480856000001,348.04866949999996,348.03225010000006,,342.27342450000015,342.2828598000001,342.2828598000001,346.5499311000003,space,4.25318709999965,None,1,1,0.7294938000000002,None,,,,,,,,836,21,V,R,2026-02-25_11h39.57.914,VisualSearch_2526_3,,2025.2.4,2026-02-25 11h39.58.142564 +0100,
vertical.xlsx,The target is tilted.,135,1,1,0,1,1,1,1,1,1,1,1,1,1,1,1,0,11,12,135,space,3.8345408000000134,None,1,1,0.5855596000001242,None,space,4.25318709999965,None,0,1,1,1,,,,,0,1,1,0,348.04866949999996,,,,,,,,,,,,,,,,,,,,,348.03307330000007,348.04866949999996,348.5324043999999,348.5377109000001,348.55469070000026,349.1488790000003,,,,,349.14895560000014,349.16473910000013,349.36510130000033,349.3488861000001,348.55469070000026,,,,,,,,1,1,0.5855596000001242,None,,,,,,,,836,21,V,R,2026-02-25_11h39.57.914,VisualSearch_2526_3,,2025.2.4,2026-02-25 11h39.58.142564 +0100,
vertical.xlsx,The target is tilted.,135,2,2,0,0,1,1,1,0,0,0,0,0,0,0,0,1,3,4,135,space,3.8345408000000134,None,0,1,0.6574958999999581,None,space,4.25318709999965,None,0,1,1,1,,,,,0,2,2,6,349.36510130000033,,,,,,,,,,,,,,,,,,,,,349.34959930000014,349.36510130000033,349.8483994000003,349.8529526000002,349.8680274000003,350.53231410000035,,,,,350.5324879,350.5479845,350.74804040000026,350.7318325000001,349.8680274000003,,,,,,,,0,1,0.6574958999999581,None,,,,,,,,836,21,V,R,2026-02-25_11h39.57.914,VisualSearch_2526_3,,2025.2.4,2026-02-25 11h39.58.142564 +0100,
vertical.xlsx,The target is tilted.,135,3,3,0,1,0,0,0,0,0,0,0,0,0,0,0,0,0,1,135,space,3.8345408000000134,None,1,1,0.7888102000001709,None,space,4.25318709999965,None,0,1,1,1,,,,,0,3,3,3,350.74804040000026,,,,,,,,,,,,,,,,,,,,,350.7325912000001,350.74804040000026,351.23194600000033,351.23683070000016,351.24775279999994,352.0488041000003,,,,,352.0489778000001,352.0643789999999,352.26460610000004,352.2484821000003,351.24775279999994,,,,,,,,1,1,0.7888102000001709,None,,,,,,,,836,21,V,R,2026-02-25_11h39.57.914,VisualSearch_2526_3,,2025.2.4,2026-02-25 11h39.58.142564 +0100,
vertical.xlsx,The target is tilted.,135,4,4,0,1,1,1,1,1,1,1,1,0,0,0,0,0,7,8,135,space,3.8345408000000134,None,0,0,2.1408023999997567,None,space,4.25318709999965,None,0,1,1,1,,,,,0,4,4,1,352.26460610000004,,,,,,,,,,,,,,,,,,,,,352.2492794,352.26460610000004,352.7483729999999,352.75351249999994,352.77198350000026,354.91450620000023,,,,,354.91466720000017,354.9303238000002,355.13028729999996,355.11452009999994,352.77198350000026,,,,,,,,0,0,2.1408023999997567,None,,,,,,,,836,21,V,R,2026-02-25_11h39.57.914,VisualSearch_2526_3,,2025.2.4,2026-02-25 11h39.58.142564 +0100,
vertical.xlsx,The target is tilted.,135,5,5,0,0,0,0,0,0,0,0,0,0,0,0,0,1,1,1,135,space,3.8345408000000134,None,0,1,1.1682018999999855,None,space,4.25318709999965,None,0,1,1,1,,,,,0,5,5,7,355.13028729999996,,,,,,,,,,,,,,,,,,,,,355.1152320000001,355.13028729999996,355.61454790000016,355.6197907999999,355.6364269999999,356.81486250000034,,,,,356.8150625000003,356.83000919999995,357.0299433,357.01419490000035,355.6364269999999,,,,,,,,0,1,1.1682018999999855,None,,,,,,,,836,21,V,R,2026-02-25_11h39.57.914,VisualSearch_2526_3,,2025.2.4,2026-02-25 11h39.58.142564 +0100,
vertical.xlsx,The target is tilted.,135,6,6,0,0,1,1,1,1,1,1,1,0,0,0,0,1,7,8,135,space,3.8345408000000134,None,0,1,1.2875679000003402,None,space,4.25318709999965,None,0,1,1,1,,,,,0,6,6,5,357.0299433,,,,,,,,,,,,,,,,,,,,,357.0149163000001,357.0299433,357.51408470000024,357.5186639000003,357.5342934,358.83117300000004,,,,,358.83136360000026,358.84663309999996,359.0462861000001,359.03029160000006,357.5342934,,,,,,,,0,1,1.2875679000003402,None,,,,,,,,836,21,V,R,2026-02-25_11h39.57.914,VisualSearch_2526_3,,2025.2.4,2026-02-25 11h39.58.142564 +0100,
vertical.xlsx,The target is tilted.,135,7,7,0,0,1,1,1,1,1,1,1,1,1,1,1,1,11,12,135,space,3.8345408000000134,None,0,1,0.8967599000002338,None,space,4.25318709999965,None,0,1,1,1,,,,,0,7,7,4,359.0462861000001,,,,,,,,,,,,,,,,,,,,,359.0311429000003,359.0462861000001,359.5306496000003,359.5354731000002,359.5465144,360.4471188000002,,,,,360.4472995000001,360.4629771,360.6623622000002,360.64655280000034,359.5465144,,,,,,,,0,1,0.8967599000002338,None,,,,,,,,836,21,V,R,2026-02-25_11h39.57.914,VisualSearch_2526_3,,2025.2.4,2026-02-25 11h39.58.142564 +0100,
vertical.xlsx,The target is tilted.,135,8,0,1,0,1,1,1,1,1,1,1,0,0,0,0,1,7,8,135,space,3.8345408000000134,None,0,1,0.9211528000000726,None,space,4.25318709999965,None,0,1,1,1,,,,,1,0,8,5,360.6623622000002,,,,,,,,,,,,,,,,,,,,,360.6473344000001,360.6623622000002,361.1468041000003,361.1513236999999,361.1676851000002,362.09719220000034,,,,,362.0973719000003,362.1127305,362.3123918000001,362.2960783000003,361.1676851000002,,,,,,,,0,1,0.9211528000000726,None,,,,,,,,836,21,V,R,2026-02-25_11h39.57.914,VisualSearch_2526_3,,2025.2.4,2026-02-25 11h39.58.142564 +0100,
vertical.xlsx,The target is tilted.,135,9,1,1,0,1,1,1,1,1,1,1,1,1,1,1,1,11,12,135,space,3.8345408000000134,None,0,1,1.0131415999999263,None,space,4.25318709999965,None,0,1,1,1,,,,,1,1,9,4,362.3123918000001,,,,,,,,,,,,,,,,,,,,,362.2967040000003,362.3123918000001,362.79637920000005,362.80138780000016,362.8120374,363.8298355000002,,,,,363.83000630000015,363.8457647,364.0458681,364.02974710000035,362.8120374,,,,,,,,0,1,1.0131415999999263,None,,,,,,,,836,21,V,R,2026-02-25_11h39.57.914,VisualSearch_2526_3,,2025.2.4,2026-02-25 11h39.58.142564 +0100,
vertical.xlsx,The target is tilted.,135,10,2,1,1,1,1,1,1,1,1,1,1,1,1,1,0,11,12,135,space,3.8345408000000134,None,1,1,0.9692300000001524,None,space,4.25318709999965,None,0,1,1,1,,,,,1,2,10,0,364.0458681,,,,,,,,,,,,,,,,,,,,,364.03047130000004,364.0458681,364.52890780000007,364.5314424000003,364.5452372,365.5296865,,,,,365.52989530000013,365.5451548000001,365.74560169999995,365.7293767000001,364.5452372,,,,,,,,1,1,0.9692300000001524,None,,,,,,,,836,21,V,R,2026-02-25_11h39.57.914,VisualSearch_2526_3,,2025.2.4,2026-02-25 11h39.58.142564 +0100,
vertical.xlsx,The target is tilted.,135,11,3,1,0,1,1,1,0,0,0,0,0,0,0,0,1,3,4,135,space,3.8345408000000134,None,0,1,0.7395520000000033,None,space,4.25318709999965,None,0,1,1,1,,,,,1,3,11,6,365.74560169999995,,,,,,,,,,,,,,,,,,,,,365.73011220000035,365.74560169999995,366.22935989999996,366.2340368,366.2519024000003,366.9964368000001,,,,,366.9966657,367.01164500000004,367.2115678,367.1954734000001,366.2519024000003,,,,,,,,0,1,0.7395520000000033,None,,,,,,,,836,21,V,R,2026-02-25_11h39.57.914,VisualSearch_2526_3,,2025.2.4,2026-02-25 11h39.58.142564 +0100,
vertical.xlsx,The target is tilted.,135,12,4,1,1,1,1,1,0,0,0,0,0,0,0,0,0,3,4,135,space,3.8345408000000134,None,1,1,0.614644099999623,None,space,4.25318709999965,None,0,1,1,1,,,,,1,4,12,2,367.2115678,,,,,,,,,,,,,,,,,,,,,367.1961862000003,367.2115678,367.69592650000004,367.7012199999999,367.71890570000005,368.3460645,,,,,368.3462552000001,368.3617283000003,368.5616463000001,368.5456279,367.71890570000005,,,,,,,,1,1,0.614644099999623,None,,,,,,,,836,21,V,R,2026-02-25_11h39.57.914,VisualSearch_2526_3,,2025.2.4,2026-02-25 11h39.58.142564 +0100,
vertical.xlsx,The target is tilted.,135,13,5,1,1,1,1,1,1,1,1,1,0,0,0,0,0,7,8,135,space,3.8345408000000134,None,1,1,1.0654136000002836,None,space,4.25318709999965,None,0,1,1,1,,,,,1,5,13,1,368.5616463000001,,,,,,,,,,,,,,,,,,,,,368.5464394999999,368.5616463000001,369.04558210000005,369.0501027,369.06558440000026,370.14570440000034,,,,,370.1458723999999,370.1614109000002,370.36138500000015,370.34534280000025,369.06558440000026,,,,,,,,1,1,1.0654136000002836,None,,,,,,,,836,21,V,R,2026-02-25_11h39.57.914,VisualSearch_2526_3,,2025.2.4,2026-02-25 11h39.58.142564 +0100,
vertical.xlsx,The target is tilted.,135,14,6,1,1,0,0,0,0,0,0,0,0,0,0,0,0,0,1,135,space,3.8345408000000134,None,1,1,0.6472734999997556,None,space,4.25318709999965,None,0,1,1,1,,,,,1,6,14,3,370.36138500000015,,,,,,,,,,,,,,,,,,,,,370.3461268000001,370.36138500000015,370.8453509000001,370.85054370000034,370.86653320000005,371.5287555,,,,,371.5289528000003,371.5441076000002,371.74464420000004,371.72864419999996,370.86653320000005,,,,,,,,1,1,0.6472734999997556,None,,,,,,,,836,21,V,R,2026-02-25_11h39.57.914,VisualSearch_2526_3,,2025.2.4,2026-02-25 11h39.58.142564 +0100,
vertical.xlsx,The target is tilted.,135,15,7,1,0,0,0,0,0,0,0,0,0,0,0,0,1,1,1,135,space,3.8345408000000134,None,0,1,0.538589900000261,None,space,4.25318709999965,None,0,1,1,1,,,,,1,7,15,7,371.74464420000004,,,,,,,,,,,,,,,,,,,,,371.7295045999999,371.74464420000004,372.228572,372.2336319000001,372.25057560000005,372.79518270000017,,,,,372.7953566000001,372.81090429999995,373.0106318000003,372.99449440000035,372.25057560000005,,,,,,,,0,1,0.538589900000261,None,,,,,,,,836,21,V,R,2026-02-25_11h39.57.914,VisualSearch_2526_3,,2025.2.4,2026-02-25 11h39.58.142564 +0100,
vertical.xlsx,The target is tilted.,135,16,0,2,0,1,1,1,1,1,1,1,1,1,1,1,1,11,12,135,space,3.8345408000000134,None,0,1,1.0216199999999844,None,space,4.25318709999965,None,0,1,1,1,,,,,2,0,16,4,373.0106318000003,,,,,,,,,,,,,,,,,,,,,372.9952681,373.0106318000003,373.49469880000015,373.49941230000013,373.51679490000015,374.5449762000003,,,,,374.5451482000003,374.56051240000033,374.7603337999999,374.7445697000003,373.51679490000015,,,,,,,,0,1,1.0216199999999844,None,,,,,,,,836,21,V,R,2026-02-25_11h39.57.914,VisualSearch_2526_3,,2025.2.4,2026-02-25 11h39.58.142564 +0100,
vertical.xlsx,The target is tilted.,135,17,1,2,0,1,1,1,0,0,0,0,0,0,0,0,1,3,4,135,space,3.8345408000000134,None,0,1,0.6297919000003276,None,space,4.25318709999965,None,0,1,1,1,,,,,2,1,17,6,374.7603337999999,,,,,,,,,,,,,,,,,,,,,374.7452790000002,374.7603337999999,375.2446195000002,375.2493945000001,375.26492529999996,375.9112227999999,,,,,375.91141370000014,375.9266917,376.1271041,376.1107879000001,375.26492529999996,,,,,,,,0,1,0.6297919000003276,None,,,,,,,,836,21,V,R,2026-02-25_11h39.57.914,VisualSearch_2526_3,,2025.2.4,2026-02-25 11h39.58.142564 +0100,
vertical.xlsx,The target is tilted.,135,18,2,2,1,1,1,1,1,1,1,1,0,0,0,0,0,7,8,135,space,3.8345408000000134,None,0,0,0.8754940999997416,None,space,4.25318709999965,None,0,1,1,1,,,,,2,2,18,1,376.1271041,,,,,,,,,,,,,,,,,,,,,376.1116055000002,376.1271041,376.6107036000003,376.61530859999993,376.63240640000004,377.5112724999999,,,,,377.5114633000003,377.52676569999994,377.7269246000001,377.71063170000025,376.63240640000004,,,,,,,,0,0,0.8754940999997416,None,,,,,,,,836,21,V,R,2026-02-25_11h39.57.914,VisualSearch_2526_3,,2025.2.4,2026-02-25 11h39.58.142564 +0100,
vertical.xlsx,The target is tilted.,135,19,3,2,0,0,0,0,0,0,0,0,0,0,0,0,1,1,1,135,space,3.8345408000000134,None,0,1,0.6658551000000443,None,space,4.25318709999965,None,0,1,1,1,,,,,2,3,19,7,377.7269246000001,,,,,,,,,,,,,,,,,,,,,377.7113830000003,377.7269246000001,378.21029510000017,378.2148671,378.23185490000014,378.91104540000015,,,,,378.9112207000003,378.9265948000002,379.12681310000016,379.1107643,378.23185490000014,,,,,,,,0,1,0.6658551000000443,None,,,,,,,,836,21,V,R,2026-02-25_11h39.57.914,VisualSearch_2526_3,,2025.2.4,2026-02-25 11h39.58.142564 +0100,
vertical.xlsx,The target is tilted.,135,20,4,2,1,1,1,1,0,0,0,0,0,0,0,0,0,3,4,135,space,3.8345408000000134,None,1,1,0.6918900999999096,None,space,4.25318709999965,None,0,1,1,1,,,,,2,4,20,2,379.12681310000016,,,,,,,,,,,,,,,,,,,,,379.1116121,379.12681310000016,379.6105751,379.6151939000001,379.63168510000014,380.32663470000034,,,,,380.32675210000025,380.34262020000006,380.54305680000016,380.5268967000002,379.63168510000014,,,,,,,,1,1,0.6918900999999096,None,,,,,,,,836,21,V,R,2026-02-25_11h39.57.914,VisualSearch_2526_3,,2025.2.4,2026-02-25 11h39.58.142564 +0100,
vertical.xlsx,The target is tilted.,135,21,5,2,1,0,0,0,0,0,0,0,0,0,0,0,0,0,1,135,space,3.8345408000000134,None,1,1,0.5431539999999586,None,space,4.25318709999965,None,0,1,1,1,,,,,2,5,21,3,380.54305680000016,,,,,,,,,,,,,,,,,,,,,380.5276521999999,380.54305680000016,381.02671409999994,381.0313292000001,381.0470891,381.5935657,,,,,381.59374000000025,381.60942490000025,381.8096430999999,381.79321210000035,381.0470891,,,,,,,,1,1,0.5431539999999586,None,,,,,,,,836,21,V,R,2026-02-25_11h39.57.914,VisualSearch_2526_3,,2025.2.4,2026-02-25 11h39.58.142564 +0100,
vertical.xlsx,The target is tilted.,135,22,6,2,0,1,1,1,1,1,1,1,0,0,0,0,1,7,8,135,space,3.8345408000000134,None,0,1,1.414462000000185,None,space,4.25318709999965,None,0,1,1,1,,,,,2,6,22,5,381.8096430999999,,,,,,,,,,,,,,,,,,,,,381.7939517,381.8096430999999,382.29323090000025,382.29855810000026,382.31422599999996,383.743336,,,,,383.74351190000016,383.75905620000003,383.95921850000013,383.94296780000013,382.31422599999996,,,,,,,,0,1,1.414462000000185,None,,,,,,,,836,21,V,R,2026-02-25_11h39.57.914,VisualSearch_2526_3,,2025.2.4,2026-02-25 11h39.58.142564 +0100,
vertical.xlsx,The target is tilted.,135,23,7,2,1,1,1,1,1,1,1,1,1,1,1,1,0,11,12,135,space,3.8345408000000134,None,1,1,0.7815716000000066,None,space,4.25318709999965,None,0,1,1,1,,,,,2,7,23,0,383.95921850000013,,,,,,,,,,,,,,,,,,,,,383.9437372000002,383.95921850000013,384.44291969999995,384.4476582000002,384.4628246000002,385.25931360000004,,,,,385.2593885000001,385.27541420000034,385.47550980000005,385.4593685,384.4628246000002,,,,,,,,1,1,0.7815716000000066,None,,,,,,,,836,21,V,R,2026-02-25_11h39.57.914,VisualSearch_2526_3,,2025.2.4,2026-02-25 11h39.58.142564 +0100,
vertical.xlsx,The target is tilted.,135,24,0,3,0,1,1,1,0,0,0,0,0,0,0,0,1,3,4,135,space,3.8345408000000134,None,0,1,0.9049267999998847,None,space,4.25318709999965,None,0,1,1,1,,,,,3,0,24,6,385.47550980000005,,,,,,,,,,,,,,,,,,,,,385.46014760000025,385.47550980000005,385.9595167000002,385.9641180000003,385.9804263000001,386.89234609999994,,,,,386.8924886,386.90856699999995,387.10869630000025,387.0923634999999,385.9804263000001,,,,,,,,0,1,0.9049267999998847,None,,,,,,,,836,21,V,R,2026-02-25_11h39.57.914,VisualSearch_2526_3,,2025.2.4,2026-02-25 11h39.58.142564 +0100,
vertical.xlsx,The target is tilted.,135,25,1,3,1,1,1,1,0,0,0,0,0,0,0,0,0,3,4,135,space,3.8345408000000134,None,1,1,0.5955750000002809,None,space,4.25318709999965,None,0,1,1,1,,,,,3,1,25,2,387.10869630000025,,,,,,,,,,,,,,,,,,,,,387.09311100000014,387.10869630000025,387.59195,387.59530440000026,387.60924980000027,388.2092018000003,,,,,388.20939240000007,388.2250720000002,388.4247027000001,388.4086578000001,387.60924980000027,,,,,,,,1,1,0.5955750000002809,None,,,,,,,,836,21,V,R,2026-02-25_11h39.57.914,VisualSearch_2526_3,,2025.2.4,2026-02-25 11h39.58.142564 +0100,
vertical.xlsx,The target is tilted.,135,26,2,3,0,1,1,1,1,1,1,1,1,1,1,1,1,11,12,135,space,3.8345408000000134,None,0,1,1.887296299999889,None,space,4.25318709999965,None,0,1,1,1,,,,,3,2,26,4,388.4247027000001,,,,,,,,,,,,,,,,,,,,,388.4094018999999,388.4247027000001,388.90898990000005,388.91418520000025,388.92967580000004,390.8255929000002,,,,,390.8257679000003,390.8412102000002,391.0412454000002,391.02518039999995,388.92967580000004,,,,,,,,0,1,1.887296299999889,None,,,,,,,,836,21,V,R,2026-02-25_11h39.57.914,VisualSearch_2526_3,,2025.2.4,2026-02-25 11h39.58.142564 +0100,
vertical.xlsx,The target is tilted.,135,27,3,3,0,0,0,0,0,0,0,0,0,0,0,0,1,1,1,135,space,3.8345408000000134,None,0,1,0.5462300999997751,None,space,4.25318709999965,None,0,1,1,1,,,,,3,3,27,7,391.0412454000002,,,,,,,,,,,,,,,,,,,,,391.02590480000026,391.0412454000002,391.5251181000003,391.5298065000002,391.54589490000035,392.10820950000016,,,,,392.10828089999995,392.12426540000024,392.32449410000027,392.30824010000015,391.54589490000035,,,,,,,,0,1,0.5462300999997751,None,,,,,,,,836,21,V,R,2026-02-25_11h39.57.914,VisualSearch_2526_3,,2025.2.4,2026-02-25 11h39.58.142564 +0100,
vertical.xlsx,The target is tilted.,135,28,4,3,1,0,0,0,0,0,0,0,0,0,0,0,0,0,1,135,space,3.8345408000000134,None,1,1,0.6481647000000521,None,space,4.25318709999965,None,0,1,1,1,,,,,3,4,28,3,392.32449410000027,,,,,,,,,,,,,,,,,,,,,392.3089181,392.32449410000027,392.80788759999996,392.8135620000003,392.8312355000003,393.49174300000004,,,,,393.4919168000001,393.5075092000002,393.7075313,393.6911623000001,392.8312355000003,,,,,,,,1,1,0.6481647000000521,None,,,,,,,,836,21,V,R,2026-02-25_11h39.57.914,VisualSearch_2526_3,,2025.2.4,2026-02-25 11h39.58.142564 +0100,
vertical.xlsx,The target is tilted.,135,29,5,3,0,1,1,1,1,1,1,1,0,0,0,0,1,7,8,135,space,3.8345408000000134,None,0,1,1.098887999999988,None,space,4.25318709999965,None,0,1,1,1,,,,,3,5,29,5,393.7075313,,,,,,,,,,,,,,,,,,,,,393.6919055000003,393.7075313,394.1911371000001,394.1965402000001,394.2129723000003,395.3246309000001,,,,,395.32469760000004,395.34022490000007,395.5399546000003,395.52407500000027,394.2129723000003,,,,,,,,0,1,1.098887999999988,None,,,,,,,,836,21,V,R,2026-02-25_11h39.57.914,VisualSearch_2526_3,,2025.2.4,2026-02-25 11h39.58.142564 +0100,
vertical.xlsx,The target is tilted.,135,30,6,3,1,1,1,1,1,1,1,1,0,0,0,0,0,7,8,135,space,3.8345408000000134,None,1,1,0.7641240000002654,None,space,4.25318709999965,None,0,1,1,1,,,,,3,6,30,1,395.5399546000003,,,,,,,,,,,,,,,,,,,,,395.5248418000001,395.5399546000003,396.0243021000001,396.02903590000005,396.0457120000001,396.82361200000014,,,,,396.8236870999999,396.8396680000001,,397.0239515000003,396.0457120000001,,,,,,,,1,1,0.7641240000002654,None,,,,,,,,836,21,V,R,2026-02-25_11h39.57.914,VisualSearch_2526_3,,2025.2.4,2026-02-25 11h39.58.142564 +0100,
vertical.xlsx,The target is tilted.,135,31,7,3,1,1,1,1,1,1,1,1,1,1,1,1,0,11,12,135,space,3.8345408000000134,None,1,1,1.0921674999999595,None,space,4.25318709999965,None,0,1,1,1,,,,,3,7,31,0,397.04017790000034,,,,,,,,,,,,,,,,,,,,,397.02470930000027,397.04017790000034,397.5238743,397.5292399,397.54002470000023,398.64069530000006,,,,,398.64088059999995,398.6565803000003,398.8563253000002,398.8401374,,,,,,,,,1,1,1.0921674999999595,None,,,,,,,,836,21,V,R,2026-02-25_11h39.57.914,VisualSearch_2526_3,,2025.2.4,2026-02-25 11h39.58.142564 +0100,
vertical.xlsx,The target is tilted.,135,32,0,4,0,0,0,0,0,0,0,0,0,0,0,0,1,1,1,135,space,3.8345408000000134,None,0,1,0.5985639999998966,None,space,4.25318709999965,None,0,1,1,1,,,,,4,0,32,7,398.8563253000002,,,,,,,,,,,,,,,,,,,,,398.8408752,398.8563253000002,399.3399865000001,399.34428800000023,399.35941440000033,399.97422510000024,,,,,399.9744270000001,399.98975450000034,400.1898351,400.17362900000035,399.35941440000033,,,,,,,,0,1,0.5985639999998966,None,,,,,,,,836,21,V,R,2026-02-25_11h39.57.914,VisualSearch_2526_3,,2025.2.4,2026-02-25 11h39.58.142564 +0100,
vertical.xlsx,The target is tilted.,135,33,1,4,0,1,1,1,0,0,0,0,0,0,0,0,1,3,4,135,space,3.8345408000000134,None,0,1,0.7173014999998486,None,space,4.25318709999965,None,0,1,1,1,,,,,4,1,33,6,400.1898351,,,,,,,,,,,,,,,,,,,,,400.1743577000002,400.1898351,400.6735675,400.67822650000016,400.6939347000002,401.4240528,,,,,401.42424389999996,401.4391969000003,401.6396042000001,401.62338850000015,400.6939347000002,,,,,,,,0,1,0.7173014999998486,None,,,,,,,,836,21,V,R,2026-02-25_11h39.57.914,VisualSearch_2526_3,,2025.2.4,2026-02-25 11h39.58.142564 +0100,
vertical.xlsx,The target is tilted.,135,34,2,4,1,1,1,1,1,1,1,1,0,0,0,0,0,7,8,135,space,3.8345408000000134,None,1,1,0.6959403999999267,None,space,4.25318709999965,None,0,1,1,1,,,,,4,2,34,1,401.6396042000001,,,,,,,,,,,,,,,,,,,,,401.6241385000003,401.6396042000001,402.12331810000023,402.12781859999996,402.13942160000033,402.84016629999996,,,,,402.8403363000002,402.85592620000034,403.0560435000002,403.0401506000003,402.13942160000033,,,,,,,,1,1,0.6959403999999267,None,,,,,,,,836,21,V,R,2026-02-25_11h39.57.914,VisualSearch_2526_3,,2025.2.4,2026-02-25 11h39.58.142564 +0100,
