file_name,block_instructions,target_example,thisN,thisTrialN,thisRepN,target_presence,opacity_1,opacity_2,opacity_3,opacity_4,opacity_5,opacity_6,opacity_7,opacity_8,opacity_9,opacity_10,opacity_11,opacity_12,n_distract,n_items,target_ori,key_resp_4.keys,key_resp_4.rt,key_resp_4.duration,key_resp.keys,key_resp.corr,key_resp.rt,key_resp.duration,key_resp_5.keys,key_resp_5.rt,key_resp_5.duration,blocks.thisRepN,blocks.thisTrialN,blocks.thisN,blocks.thisIndex,practice_trials.thisRepN,practice_trials.thisTrialN,practice_trials.thisN,practice_trials.thisIndex,trials.thisRepN,trials.thisTrialN,trials.thisN,trials.thisIndex,thisRow.t,notes,Welcome.started,WelcomeText.started,key_resp_2.started,Welcome.stopped,key_resp_2.keys,key_resp_2.rt,key_resp_2.duration,InformedConsent.started,text_4.started,InformedConsent.stopped,key_resp_6.keys,key_resp_6.rt,key_resp_6.duration,key_resp_4.started,example_target.started,text_3.started,blocks.key_resp_4.keys,blocks.key_resp_4.rt,blocks.key_resp_4.duration,FixCross.started,fixCross.started,FixCross.stopped,Stimulus.started,key_resp.started,Stimulus.stopped,practice_trials.key_resp.keys,practice_trials.key_resp.corr,practice_trials.key_resp.rt,practice_trials.key_resp.duration,BlankScreen.started,text.started,text.stopped,BlankScreen.stopped,fixCross.stopped,ExperimentStart.started,text_2.started,key_resp_5.started,ExperimentStart.stopped,blocks.key_resp_5.keys,blocks.key_resp_5.rt,blocks.key_resp_5.duration,trials.key_resp.keys,trials.key_resp.corr,trials.key_resp.rt,trials.key_resp.duration,Thanks.started,ThankYou.started,key_resp_3.started,Thanks.stopped,key_resp_3.keys,key_resp_3.rt,key_resp_3.duration,participant,leeftijd,gender,links/rechtshandig,date,expName,expVersion,psychopyVersion,expStart,
,,,,,,,,,,,,,,,,,,,,,,,,,,,,,,,,,,,,,,,,,,,,,,0.01871880000044257,0.048237300000437244,0.048237300000437244,44.11804260000008,space,44.061316499999975,None,,,,,,,,,,,,,,,,,,,,,,,,,,,,,,,,,,,,,,,,,,,,,,837,21,V,R,2026-02-25_11h51.07.583,VisualSearch_2526_3,,2025.2.4,2026-02-25 11h51.07.812650 +0100,
,,,,,,,,,,,,,,,,,,,,,,,,,,,,,,,,,,,,,,,,,,,,,,,,,,,,,44.11812900000041,44.126064900000074,60.40786150000031,y,16.274842100000114,None,,,,,,,,,,,,,,,,,,,,,,,,,,,,,,,,,,,,,,,,837,21,V,R,2026-02-25_11h51.07.583,VisualSearch_2526_3,,2025.2.4,2026-02-25 11h51.07.812650 +0100,
vertical.xlsx,The target is tilted.,135,0,0,0,0,1,1,1,1,1,1,1,1,1,1,1,1,11,12,135,space,18.2478215000001,None,0,1,2.327810899999804,None,,,,0,0,0,1,0,0,0,4,,,,,78.73554950000016,,,,,,,,,,,,,,,60.449566100000084,60.449566100000084,60.449566100000084,space,18.2478215000001,None,78.73009300000012,78.73554950000016,79.22029490000023,79.22501920000013,79.24239070000021,81.58728250000013,0,1,2.327810899999804,None,81.58745500000032,81.60281480000003,81.8028018,81.78675940000039,,,,,,,,,,,,,,,,,,,,837,21,V,R,2026-02-25_11h51.07.583,VisualSearch_2526_3,,2025.2.4,2026-02-25 11h51.07.812650 +0100,
vertical.xlsx,The target is tilted.,135,1,1,0,1,1,1,1,1,1,1,1,1,1,1,1,0,11,12,135,space,18.2478215000001,None,0,0,1.280811900000117,None,,,,0,0,0,1,0,1,1,0,,,,,81.8028018,,,,,,,,,,,,,,,,,,,,,81.78752420000001,81.8028018,82.28651910000008,82.29079090000005,82.30607320000036,83.6022809000001,0,0,1.280811900000117,None,83.60239840000031,83.61907680000013,,83.80251530000032,82.30607320000036,,,,,,,,,,,,,,,,,,,837,21,V,R,2026-02-25_11h51.07.583,VisualSearch_2526_3,,2025.2.4,2026-02-25 11h51.07.812650 +0100,
vertical.xlsx,The target is tilted.,135,2,2,0,0,1,1,1,1,1,1,1,0,0,0,0,1,7,8,135,space,18.2478215000001,None,0,1,0.9036897000000863,None,,,,0,0,0,1,0,2,2,5,,,,,83.8189381000002,,,,,,,,,,,,,,,,,,,,,83.80345710000029,83.8189381000002,84.30270430000019,84.30748700000004,84.3190923000002,85.23609850000003,0,1,0.9036897000000863,None,85.23626800000011,85.25176610000017,85.45195230000036,85.43615180000006,84.3190923000002,,,,,,,,,,,,,,,,,,,837,21,V,R,2026-02-25_11h51.07.583,VisualSearch_2526_3,,2025.2.4,2026-02-25 11h51.07.812650 +0100,
vertical.xlsx,The target is tilted.,135,3,3,0,0,1,1,1,0,0,0,0,0,0,0,0,1,3,4,135,space,18.2478215000001,None,0,1,0.4905721000000085,None,,,,0,0,0,1,0,3,3,6,,,,,85.45195230000036,,,,,,,,,,,,,,,,,,,,,85.43684060000032,85.45195230000036,85.93589090000023,85.94095360000028,85.95896310000035,86.4528677000003,0,1,0.4905721000000085,None,86.45303320000039,86.46825340000032,86.66863790000025,86.6526060000001,85.95896310000035,,,,,,,,,,,,,,,,,,,837,21,V,R,2026-02-25_11h51.07.583,VisualSearch_2526_3,,2025.2.4,2026-02-25 11h51.07.812650 +0100,
vertical.xlsx,The target is tilted.,135,4,4,0,1,0,0,0,0,0,0,0,0,0,0,0,0,0,1,135,space,18.2478215000001,None,1,1,0.7581780000000435,None,,,,0,0,0,1,0,4,4,3,,,,,86.66863790000025,,,,,,,,,,,,,,,,,,,,,86.65318130000014,86.66863790000025,87.15212090000023,87.15512660000013,87.16812850000042,87.93704990000015,1,1,0.7581780000000435,None,87.93728810000039,87.95136910000019,88.1517517000002,88.13553280000042,87.16812850000042,,,,,,,,,,,,,,,,,,,837,21,V,R,2026-02-25_11h51.07.583,VisualSearch_2526_3,,2025.2.4,2026-02-25 11h51.07.812650 +0100,
vertical.xlsx,The target is tilted.,135,5,5,0,0,0,0,0,0,0,0,0,0,0,0,0,1,1,1,135,space,18.2478215000001,None,0,1,0.5530549999998584,None,,,,0,0,0,1,0,5,5,7,,,,,88.1517517000002,,,,,,,,,,,,,,,,,,,,,88.13622120000036,88.1517517000002,88.63577940000005,88.64103530000011,88.65800000000036,89.21858770000017,0,1,0.5530549999998584,None,89.21866620000037,89.23418950000041,89.43498700000009,89.41882280000027,88.65800000000036,,,,,,,,,,,,,,,,,,,837,21,V,R,2026-02-25_11h51.07.583,VisualSearch_2526_3,,2025.2.4,2026-02-25 11h51.07.812650 +0100,
vertical.xlsx,The target is tilted.,135,6,6,0,1,1,1,1,1,1,1,1,0,0,0,0,0,7,8,135,space,18.2478215000001,None,0,0,0.8127162000000681,None,,,,0,0,0,1,0,6,6,1,,,,,89.43498700000009,,,,,,,,,,,,,,,,,,,,,89.41949530000011,89.43498700000009,89.91843670000026,89.9231691,89.93949350000003,90.76838540000017,0,0,0.8127162000000681,None,90.76854570000023,90.78411450000021,90.98434390000011,90.96808110000029,89.93949350000003,,,,,,,,,,,,,,,,,,,837,21,V,R,2026-02-25_11h51.07.583,VisualSearch_2526_3,,2025.2.4,2026-02-25 11h51.07.812650 +0100,
vertical.xlsx,The target is tilted.,135,7,7,0,1,1,1,1,0,0,0,0,0,0,0,0,0,3,4,135,space,18.2478215000001,None,1,1,0.5152699999998731,None,,,,0,0,0,1,0,7,7,2,,,,,90.98434390000011,,,,,,,,,,,,,,,,,,,,,90.96869730000026,90.98434390000011,91.46799040000042,91.47149630000013,91.48428690000037,92.00241760000017,1,1,0.5152699999998731,None,92.00263770000038,92.0174978,92.21749520000003,92.20165990000032,91.48428690000037,,,,,,,,,,,,,,,,,,,837,21,V,R,2026-02-25_11h51.07.583,VisualSearch_2526_3,,2025.2.4,2026-02-25 11h51.07.812650 +0100,
vertical.xlsx,The target is tilted.,135,0,0,0,0,1,1,1,0,0,0,0,0,0,0,0,1,3,4,135,space,18.2478215000001,None,0,1,2.528079700000035,None,space,2.0177718999998433,None,0,0,0,1,,,,,0,0,0,6,94.2699233000003,,,,,,,,,,,,,,,,,,,,,94.26677430000018,94.2699233000003,94.76784310000039,94.77335510000012,94.79184480000004,97.33394660000022,,,,,97.33411830000023,97.34963800000014,97.54988110000022,97.53353380000044,,92.20862550000038,92.21749520000003,92.21749520000003,94.25125620000017,space,2.0177718999998433,None,0,1,2.528079700000035,None,,,,,,,,837,21,V,R,2026-02-25_11h51.07.583,VisualSearch_2526_3,,2025.2.4,2026-02-25 11h51.07.812650 +0100,
vertical.xlsx,The target is tilted.,135,1,1,0,0,1,1,1,1,1,1,1,1,1,1,1,1,11,12,135,space,18.2478215000001,None,0,1,0.7590781000003517,None,space,2.0177718999998433,None,0,0,0,1,,,,,0,1,1,4,97.54988110000022,,,,,,,,,,,,,,,,,,,,,97.53412380000009,97.54988110000022,98.03400640000018,98.03874990000031,98.05744070000037,98.83316990000003,,,,,98.83326240000042,98.84985020000022,,99.03345020000006,98.05744070000037,,,,,,,,0,1,0.7590781000003517,None,,,,,,,,837,21,V,R,2026-02-25_11h51.07.583,VisualSearch_2526_3,,2025.2.4,2026-02-25 11h51.07.812650 +0100,
vertical.xlsx,The target is tilted.,135,2,2,0,0,1,1,1,1,1,1,1,0,0,0,0,1,7,8,135,space,18.2478215000001,None,0,1,0.5706583000001046,None,space,2.0177718999998433,None,0,0,0,1,,,,,0,2,2,5,99.05006550000007,,,,,,,,,,,,,,,,,,,,,99.0342225000004,99.05006550000007,99.53345190000027,99.53812740000012,99.5545605000002,100.13431530000025,,,,,100.13451430000032,100.14929970000003,100.34981500000004,100.3334675000001,,,,,,,,,0,1,0.5706583000001046,None,,,,,,,,837,21,V,R,2026-02-25_11h51.07.583,VisualSearch_2526_3,,2025.2.4,2026-02-25 11h51.07.812650 +0100,
vertical.xlsx,The target is tilted.,135,3,3,0,1,1,1,1,0,0,0,0,0,0,0,0,0,3,4,135,space,18.2478215000001,None,1,1,0.5777926000000662,None,space,2.0177718999998433,None,0,0,0,1,,,,,0,3,3,2,100.34981500000004,,,,,,,,,,,,,,,,,,,,,100.33412480000015,100.34981500000004,100.83324430000039,100.83796870000015,100.8542080000002,101.43382020000035,,,,,101.43402840000044,101.44917690000011,101.64952350000021,101.633374,100.8542080000002,,,,,,,,1,1,0.5777926000000662,None,,,,,,,,837,21,V,R,2026-02-25_11h51.07.583,VisualSearch_2526_3,,2025.2.4,2026-02-25 11h51.07.812650 +0100,
vertical.xlsx,The target is tilted.,135,4,4,0,1,0,0,0,0,0,0,0,0,0,0,0,0,0,1,135,space,18.2478215000001,None,1,1,0.5108422999996947,None,space,2.0177718999998433,None,0,0,0,1,,,,,0,4,4,3,101.64952350000021,,,,,,,,,,,,,,,,,,,,,101.63414780000039,101.64952350000021,102.13336150000032,102.13873920000015,102.15783450000026,102.68330470000001,,,,,102.6835000000001,102.69884210000009,102.89942250000013,102.88287780000019,102.15783450000026,,,,,,,,1,1,0.5108422999996947,None,,,,,,,,837,21,V,R,2026-02-25_11h51.07.583,VisualSearch_2526_3,,2025.2.4,2026-02-25 11h51.07.812650 +0100,
vertical.xlsx,The target is tilted.,135,5,5,0,0,0,0,0,0,0,0,0,0,0,0,0,1,1,1,135,space,18.2478215000001,None,0,1,0.7263204000000769,None,space,2.0177718999998433,None,0,0,0,1,,,,,0,5,5,7,102.89942250000013,,,,,,,,,,,,,,,,,,,,,102.8836011000003,102.89942250000013,103.38272070000039,103.3874224000001,103.4037416000001,104.1331897,,,,,104.13331840000001,104.14845490000016,104.34919960000025,104.33267850000038,103.4037416000001,,,,,,,,0,1,0.7263204000000769,None,,,,,,,,837,21,V,R,2026-02-25_11h51.07.583,VisualSearch_2526_3,,2025.2.4,2026-02-25 11h51.07.812650 +0100,
vertical.xlsx,The target is tilted.,135,6,6,0,1,1,1,1,1,1,1,1,0,0,0,0,0,7,8,135,space,18.2478215000001,None,0,0,0.8534733000001324,None,space,2.0177718999998433,None,0,0,0,1,,,,,0,6,6,1,104.34919960000025,,,,,,,,,,,,,,,,,,,,,104.33343060000016,104.34919960000025,104.8326161,104.8372443000003,104.85358760000008,105.71629710000025,,,,,105.71647970000004,105.73170620000019,105.93229360000032,105.91605710000022,104.85358760000008,,,,,,,,0,0,0.8534733000001324,None,,,,,,,,837,21,V,R,2026-02-25_11h51.07.583,VisualSearch_2526_3,,2025.2.4,2026-02-25 11h51.07.812650 +0100,
vertical.xlsx,The target is tilted.,135,7,7,0,1,1,1,1,1,1,1,1,1,1,1,1,0,11,12,135,space,18.2478215000001,None,0,0,0.8262837000002037,None,space,2.0177718999998433,None,0,0,0,1,,,,,0,7,7,0,105.93229360000032,,,,,,,,,,,,,,,,,,,,,105.9168939000001,105.93229360000032,106.41617810000025,106.4215922000003,106.43873180000037,107.26641570000038,,,,,107.26660880000009,107.2815144000001,107.4815666000004,107.46580220000033,106.43873180000037,,,,,,,,0,0,0.8262837000002037,None,,,,,,,,837,21,V,R,2026-02-25_11h51.07.583,VisualSearch_2526_3,,2025.2.4,2026-02-25 11h51.07.812650 +0100,
vertical.xlsx,The target is tilted.,135,8,0,1,0,1,1,1,0,0,0,0,0,0,0,0,1,3,4,135,space,18.2478215000001,None,0,1,0.4901445999998941,None,space,2.0177718999998433,None,0,0,0,1,,,,,1,0,8,6,107.4815666000004,,,,,,,,,,,,,,,,,,,,,107.4665444000002,107.4815666000004,107.9657559000002,107.97047240000029,107.98742440000024,108.48242030000029,,,,,108.48259980000012,108.49777090000043,108.69842070000004,108.68230070000027,107.98742440000024,,,,,,,,0,1,0.4901445999998941,None,,,,,,,,837,21,V,R,2026-02-25_11h51.07.583,VisualSearch_2526_3,,2025.2.4,2026-02-25 11h51.07.812650 +0100,
vertical.xlsx,The target is tilted.,135,9,1,1,0,0,0,0,0,0,0,0,0,0,0,0,1,1,1,135,space,18.2478215000001,None,0,1,0.5971924999998919,None,space,2.0177718999998433,None,0,0,0,1,,,,,1,1,9,7,108.69842070000004,,,,,,,,,,,,,,,,,,,,,108.68301840000004,108.69842070000004,109.18246980000004,109.18781590000026,109.20472020000034,109.81607090000034,,,,,109.81626480000023,109.83108530000027,110.03125190000037,110.01569080000036,109.20472020000034,,,,,,,,0,1,0.5971924999998919,None,,,,,,,,837,21,V,R,2026-02-25_11h51.07.583,VisualSearch_2526_3,,2025.2.4,2026-02-25 11h51.07.812650 +0100,
vertical.xlsx,The target is tilted.,135,10,2,1,0,1,1,1,1,1,1,1,1,1,1,1,1,11,12,135,space,18.2478215000001,None,0,1,1.087622300000021,None,space,2.0177718999998433,None,0,0,0,1,,,,,1,2,10,4,110.03125190000037,,,,,,,,,,,,,,,,,,,,,110.01640030000044,110.03125190000037,110.5154690000004,110.52084850000028,110.53762200000028,111.63235410000016,,,,,111.63252600000033,111.64741270000013,111.8479271000001,111.83178520000001,110.53762200000028,,,,,,,,0,1,1.087622300000021,None,,,,,,,,837,21,V,R,2026-02-25_11h51.07.583,VisualSearch_2526_3,,2025.2.4,2026-02-25 11h51.07.812650 +0100,
vertical.xlsx,The target is tilted.,135,11,3,1,1,0,0,0,0,0,0,0,0,0,0,0,0,0,1,135,space,18.2478215000001,None,0,0,0.43596549999983836,None,space,2.0177718999998433,None,0,0,0,1,,,,,1,3,11,3,111.8479271000001,,,,,,,,,,,,,,,,,,,,,111.83250370000042,111.8479271000001,112.33157300000039,112.33621810000022,112.35358750000023,112.79736840000032,,,,,112.79746140000043,112.81363580000016,,112.99807120000014,112.35358750000023,,,,,,,,0,0,0.43596549999983836,None,,,,,,,,837,21,V,R,2026-02-25_11h51.07.583,VisualSearch_2526_3,,2025.2.4,2026-02-25 11h51.07.812650 +0100,
vertical.xlsx,The target is tilted.,135,12,4,1,0,1,1,1,1,1,1,1,0,0,0,0,1,7,8,135,space,18.2478215000001,None,0,1,1.0810756000000765,None,space,2.0177718999998433,None,0,0,0,1,,,,,1,4,12,5,113.01438110000026,,,,,,,,,,,,,,,,,,,,,112.99898530000019,113.01438110000026,113.49808930000017,113.50351890000002,113.52059500000041,114.6146517000002,,,,,114.61482980000028,114.62991900000043,114.83056600000009,114.8140943000003,,,,,,,,,0,1,1.0810756000000765,None,,,,,,,,837,21,V,R,2026-02-25_11h51.07.583,VisualSearch_2526_3,,2025.2.4,2026-02-25 11h51.07.812650 +0100,
vertical.xlsx,The target is tilted.,135,13,5,1,1,1,1,1,0,0,0,0,0,0,0,0,0,3,4,135,space,18.2478215000001,None,1,1,0.5817576999997982,None,space,2.0177718999998433,None,0,0,0,1,,,,,1,5,13,2,114.83056600000009,,,,,,,,,,,,,,,,,,,,,114.81485820000034,114.83056600000009,115.31449910000038,115.31913210000039,115.3351434000001,115.9309218000003,,,,,115.9310803000003,115.94650340000044,116.14711080000006,116.13089800000034,115.3351434000001,,,,,,,,1,1,0.5817576999997982,None,,,,,,,,837,21,V,R,2026-02-25_11h51.07.583,VisualSearch_2526_3,,2025.2.4,2026-02-25 11h51.07.812650 +0100,
vertical.xlsx,The target is tilted.,135,14,6,1,1,1,1,1,1,1,1,1,1,1,1,1,0,11,12,135,space,18.2478215000001,None,1,1,0.535675000000083,None,space,2.0177718999998433,None,0,0,0,1,,,,,1,6,14,0,116.14711080000006,,,,,,,,,,,,,,,,,,,,,116.13155630000028,116.14711080000006,116.6306910000003,116.63553760000013,116.65320540000039,117.19780560000027,,,,,117.19796770000039,117.21307320000005,117.41356200000018,117.39745440000024,116.65320540000039,,,,,,,,1,1,0.535675000000083,None,,,,,,,,837,21,V,R,2026-02-25_11h51.07.583,VisualSearch_2526_3,,2025.2.4,2026-02-25 11h51.07.812650 +0100,
vertical.xlsx,The target is tilted.,135,15,7,1,1,1,1,1,1,1,1,1,0,0,0,0,0,7,8,135,space,18.2478215000001,None,1,1,0.804983799999718,None,space,2.0177718999998433,None,0,0,0,1,,,,,1,7,15,1,117.41356200000018,,,,,,,,,,,,,,,,,,,,,117.39827890000015,117.41356200000018,117.89708550000023,117.9018256000004,117.9191308000004,118.73069470000019,,,,,118.73085460000038,118.7461671000001,118.94677630000024,118.93046370000002,117.9191308000004,,,,,,,,1,1,0.804983799999718,None,,,,,,,,837,21,V,R,2026-02-25_11h51.07.583,VisualSearch_2526_3,,2025.2.4,2026-02-25 11h51.07.812650 +0100,
vertical.xlsx,The target is tilted.,135,16,0,2,0,1,1,1,0,0,0,0,0,0,0,0,1,3,4,135,space,18.2478215000001,None,0,1,0.6975117000001774,None,space,2.0177718999998433,None,0,0,0,1,,,,,2,0,16,6,118.94677630000024,,,,,,,,,,,,,,,,,,,,,118.93124710000029,118.94677630000024,119.4302318,119.43403050000006,119.44954820000021,120.16354900000033,,,,,120.16373680000015,120.17924430000039,120.37902070000018,120.36260990000028,119.44954820000021,,,,,,,,0,1,0.6975117000001774,None,,,,,,,,837,21,V,R,2026-02-25_11h51.07.583,VisualSearch_2526_3,,2025.2.4,2026-02-25 11h51.07.812650 +0100,
vertical.xlsx,The target is tilted.,135,17,1,2,1,1,1,1,1,1,1,1,0,0,0,0,0,7,8,135,space,18.2478215000001,None,1,1,0.5279775999997582,None,space,2.0177718999998433,None,0,0,0,1,,,,,2,1,17,1,120.37902070000018,,,,,,,,,,,,,,,,,,,,,120.36288800000011,120.37902070000018,120.86351250000007,120.8682617000004,120.88583150000022,121.43027130000019,,,,,121.43046950000007,121.44568000000027,121.64589390000037,121.62976130000015,120.88583150000022,,,,,,,,1,1,0.5279775999997582,None,,,,,,,,837,21,V,R,2026-02-25_11h51.07.583,VisualSearch_2526_3,,2025.2.4,2026-02-25 11h51.07.812650 +0100,
vertical.xlsx,The target is tilted.,135,18,2,2,1,0,0,0,0,0,0,0,0,0,0,0,0,0,1,135,space,18.2478215000001,None,1,1,0.511402800000269,None,space,2.0177718999998433,None,0,0,0,1,,,,,2,2,18,3,121.64589390000037,,,,,,,,,,,,,,,,,,,,,121.63054250000005,121.64589390000037,122.12970570000016,122.13549820000026,122.15108330000021,122.66378490000034,,,,,122.66398360000039,122.67894830000023,122.87900040000022,122.86318820000042,122.15108330000021,,,,,,,,1,1,0.511402800000269,None,,,,,,,,837,21,V,R,2026-02-25_11h51.07.583,VisualSearch_2526_3,,2025.2.4,2026-02-25 11h51.07.812650 +0100,
vertical.xlsx,The target is tilted.,135,19,3,2,0,1,1,1,1,1,1,1,1,1,1,1,1,11,12,135,space,18.2478215000001,None,0,1,1.5107427999996617,None,space,2.0177718999998433,None,0,0,0,1,,,,,2,3,19,4,122.87900040000022,,,,,,,,,,,,,,,,,,,,,122.86396020000029,122.87900040000022,123.36296870000024,123.36844520000022,123.38433510000004,124.89649610000015,,,,,124.89667790000021,124.91179310000007,125.11206470000025,125.0961797,123.38433510000004,,,,,,,,0,1,1.5107427999996617,None,,,,,,,,837,21,V,R,2026-02-25_11h51.07.583,VisualSearch_2526_3,,2025.2.4,2026-02-25 11h51.07.812650 +0100,
vertical.xlsx,The target is tilted.,135,20,4,2,1,1,1,1,1,1,1,1,1,1,1,1,0,11,12,135,space,18.2478215000001,None,0,0,0.9825905000002422,None,space,2.0177718999998433,None,0,0,0,1,,,,,2,4,20,0,125.11206470000025,,,,,,,,,,,,,,,,,,,,,125.09694900000022,125.11206470000025,125.59626290000006,125.60138220000044,125.61650360000021,126.61237670000037,,,,,126.6125363000001,126.62804940000024,126.82878500000015,126.81245020000006,125.61650360000021,,,,,,,,0,0,0.9825905000002422,None,,,,,,,,837,21,V,R,2026-02-25_11h51.07.583,VisualSearch_2526_3,,2025.2.4,2026-02-25 11h51.07.812650 +0100,
vertical.xlsx,The target is tilted.,135,21,5,2,1,1,1,1,0,0,0,0,0,0,0,0,0,3,4,135,space,18.2478215000001,None,0,0,0.5055385999999089,None,space,2.0177718999998433,None,0,0,0,1,,,,,2,5,21,2,126.82878500000015,,,,,,,,,,,,,,,,,,,,,126.81319590000021,126.82878500000015,127.31265030000031,127.31761420000021,127.33442290000039,127.84615750000012,,,,,127.84633580000036,127.86130460000004,128.06173780000017,128.0455952000002,127.33442290000039,,,,,,,,0,0,0.5055385999999089,None,,,,,,,,837,21,V,R,2026-02-25_11h51.07.583,VisualSearch_2526_3,,2025.2.4,2026-02-25 11h51.07.812650 +0100,
vertical.xlsx,The target is tilted.,135,22,6,2,0,1,1,1,1,1,1,1,0,0,0,0,1,7,8,135,space,18.2478215000001,None,0,1,0.5451812000001155,None,space,2.0177718999998433,None,0,0,0,1,,,,,2,6,22,5,128.06173780000017,,,,,,,,,,,,,,,,,,,,,128.0463560000003,128.06173780000017,128.54581700000017,128.55107180000005,128.5676593000003,129.12864370000034,,,,,129.12882990000026,129.14432980000038,129.34500620000017,129.32880360000036,128.5676593000003,,,,,,,,0,1,0.5451812000001155,None,,,,,,,,837,21,V,R,2026-02-25_11h51.07.583,VisualSearch_2526_3,,2025.2.4,2026-02-25 11h51.07.812650 +0100,
vertical.xlsx,The target is tilted.,135,23,7,2,0,0,0,0,0,0,0,0,0,0,0,0,1,1,1,135,space,18.2478215000001,None,0,1,0.5242246000002524,None,space,2.0177718999998433,None,0,0,0,1,,,,,2,7,23,7,129.34500620000017,,,,,,,,,,,,,,,,,,,,,129.32955580000043,129.34500620000017,129.8288395000004,129.83343190000005,129.84999160000007,130.37893380000014,,,,,130.37909600000012,130.39417040000035,130.59479680000004,130.5786038000001,129.84999160000007,,,,,,,,0,1,0.5242246000002524,None,,,,,,,,837,21,V,R,2026-02-25_11h51.07.583,VisualSearch_2526_3,,2025.2.4,2026-02-25 11h51.07.812650 +0100,
vertical.xlsx,The target is tilted.,135,24,0,3,0,1,1,1,1,1,1,1,0,0,0,0,1,7,8,135,space,18.2478215000001,None,0,1,0.45183589999987817,None,space,2.0177718999998433,None,0,0,0,1,,,,,3,0,24,5,130.59479680000004,,,,,,,,,,,,,,,,,,,,,130.57941290000008,130.59479680000004,131.07852850000017,131.08329830000002,131.09961440000006,131.56243190000032,,,,,131.56262630000037,131.57736830000022,131.77804790000027,131.76173210000024,131.09961440000006,,,,,,,,0,1,0.45183589999987817,None,,,,,,,,837,21,V,R,2026-02-25_11h51.07.583,VisualSearch_2526_3,,2025.2.4,2026-02-25 11h51.07.812650 +0100,
vertical.xlsx,The target is tilted.,135,25,1,3,0,1,1,1,1,1,1,1,1,1,1,1,1,11,12,135,space,18.2478215000001,None,0,1,0.48193550000041796,None,space,2.0177718999998433,None,0,0,0,1,,,,,3,1,25,4,131.77804790000027,,,,,,,,,,,,,,,,,,,,,131.76249580000012,131.77804790000027,132.2619722000004,132.2668761,132.27755460000026,132.7622593000001,,,,,132.76248840000017,132.7771319000003,132.97738880000043,132.96121830000038,132.27755460000026,,,,,,,,0,1,0.48193550000041796,None,,,,,,,,837,21,V,R,2026-02-25_11h51.07.583,VisualSearch_2526_3,,2025.2.4,2026-02-25 11h51.07.812650 +0100,
vertical.xlsx,The target is tilted.,135,26,2,3,1,0,0,0,0,0,0,0,0,0,0,0,0,0,1,135,space,18.2478215000001,None,1,1,0.5616288999999597,None,space,2.0177718999998433,None,0,0,0,1,,,,,3,2,26,3,132.97738880000043,,,,,,,,,,,,,,,,,,,,,132.96198710000044,132.97738880000043,133.46163140000044,133.46678500000007,133.4833910000002,134.06127660000038,,,,,134.06149680000044,134.0770650000004,134.27755760000036,134.26143290000027,133.4833910000002,,,,,,,,1,1,0.5616288999999597,None,,,,,,,,837,21,V,R,2026-02-25_11h51.07.583,VisualSearch_2526_3,,2025.2.4,2026-02-25 11h51.07.812650 +0100,
vertical.xlsx,The target is tilted.,135,27,3,3,0,0,0,0,0,0,0,0,0,0,0,0,1,1,1,135,space,18.2478215000001,None,0,1,0.4057444000000032,None,space,2.0177718999998433,None,0,0,0,1,,,,,3,3,27,7,134.27755760000036,,,,,,,,,,,,,,,,,,,,,134.26216680000016,134.27755760000036,134.76113430000032,134.76588290000018,134.78507770000033,135.1946856000004,,,,,135.19488330000013,135.2101303000004,135.41029320000007,135.39450810000017,134.78507770000033,,,,,,,,0,1,0.4057444000000032,None,,,,,,,,837,21,V,R,2026-02-25_11h51.07.583,VisualSearch_2526_3,,2025.2.4,2026-02-25 11h51.07.812650 +0100,
vertical.xlsx,The target is tilted.,135,28,4,3,1,1,1,1,1,1,1,1,1,1,1,1,0,11,12,135,space,18.2478215000001,None,0,0,0.12890349999997852,None,space,2.0177718999998433,None,0,0,0,1,,,,,3,4,28,0,135.41029320000007,,,,,,,,,,,,,,,,,,,,,135.39522690000013,135.41029320000007,135.89439200000015,135.89907950000043,135.91476280000006,136.0447234000003,,,,,136.04489730000023,136.05994770000007,136.2605706000004,136.2442519000001,135.91476280000006,,,,,,,,0,0,0.12890349999997852,None,,,,,,,,837,21,V,R,2026-02-25_11h51.07.583,VisualSearch_2526_3,,2025.2.4,2026-02-25 11h51.07.812650 +0100,
vertical.xlsx,The target is tilted.,135,29,5,3,1,1,1,1,1,1,1,1,0,0,0,0,0,7,8,135,space,18.2478215000001,None,1,1,0.7697755999997753,None,space,2.0177718999998433,None,0,0,0,1,,,,,3,5,29,1,136.2605706000004,,,,,,,,,,,,,,,,,,,,,136.24502110000003,136.2605706000004,136.7442533000003,136.74895600000036,136.7603054000001,137.54391280000027,,,,,137.54407410000022,137.55961300000035,137.7602909000002,137.74402180000016,136.7603054000001,,,,,,,,1,1,0.7697755999997753,None,,,,,,,,837,21,V,R,2026-02-25_11h51.07.583,VisualSearch_2526_3,,2025.2.4,2026-02-25 11h51.07.812650 +0100,
vertical.xlsx,The target is tilted.,135,30,6,3,1,1,1,1,0,0,0,0,0,0,0,0,0,3,4,135,space,18.2478215000001,None,0,0,0.4363859999998567,None,space,2.0177718999998433,None,0,0,0,1,,,,,3,6,30,2,137.7602909000002,,,,,,,,,,,,,,,,,,,,,137.74479650000012,137.7602909000002,138.2441557000002,138.24939350000022,138.26757000000043,138.71124110000028,,,,,138.71143830000028,138.72622320000028,138.92644870000004,138.9105442,138.26757000000043,,,,,,,,0,0,0.4363859999998567,None,,,,,,,,837,21,V,R,2026-02-25_11h51.07.583,VisualSearch_2526_3,,2025.2.4,2026-02-25 11h51.07.812650 +0100,
vertical.xlsx,The target is tilted.,135,31,7,3,0,1,1,1,0,0,0,0,0,0,0,0,1,3,4,135,space,18.2478215000001,None,0,1,0.7651318000002902,None,space,2.0177718999998433,None,0,0,0,1,,,,,3,7,31,6,138.92644870000004,,,,,,,,,,,,,,,,,,,,,138.91132480000033,138.92644870000004,139.4105744000003,139.41524300000037,139.43179290000035,140.21028820000038,,,,,140.21049900000025,140.22584610000013,140.42628360000026,140.4102481,139.43179290000035,,,,,,,,0,1,0.7651318000002902,None,,,,,,,,837,21,V,R,2026-02-25_11h51.07.583,VisualSearch_2526_3,,2025.2.4,2026-02-25 11h51.07.812650 +0100,
vertical.xlsx,The target is tilted.,135,32,0,4,1,1,1,1,1,1,1,1,0,0,0,0,0,7,8,135,space,18.2478215000001,None,1,1,0.7520371000000523,None,space,2.0177718999998433,None,0,0,0,1,,,,,4,0,32,1,140.42628360000026,,,,,,,,,,,,,,,,,,,,,140.41100060000008,140.42628360000026,140.91037740000002,140.91566860000012,140.93258940000032,141.69368060000033,,,,,141.6938715000001,141.70916280000029,141.90960680000035,141.8937130000004,140.93258940000032,,,,,,,,1,1,0.7520371000000523,None,,,,,,,,837,21,V,R,2026-02-25_11h51.07.583,VisualSearch_2526_3,,2025.2.4,2026-02-25 11h51.07.812650 +0100,
vertical.xlsx,The target is tilted.,135,33,1,4,0,1,1,1,0,0,0,0,0,0,0,0,1,3,4,135,space,18.2478215000001,None,0,1,0.6402777999996943,None,space,2.0177718999998433,None,0,0,0,1,,,,,4,1,33,6,141.90960680000035,,,,,,,,,,,,,,,,,,,,,141.89450400000032,141.90960680000035,142.39318130000038,142.39794130000018,142.4143866000004,143.06046510000033,,,,,143.06065950000038,143.07554430000027,143.27569550000044,143.25972730000012,142.4143866000004,,,,,,,,0,1,0.6402777999996943,None,,,,,,,,837,21,V,R,2026-02-25_11h51.07.583,VisualSearch_2526_3,,2025.2.4,2026-02-25 11h51.07.812650 +0100,
vertical.xlsx,The target is tilted.,135,34,2,4,0,0,0,0,0,0,0,0,0,0,0,0,1,1,1,135,space,18.2478215000001,None,0,1,0.599095799999759,None,space,2.0177718999998433,None,0,0,0,1,,,,,4,2,34,7,143.27569550000044,,,,,,,,,,,,,,,,,,,,,143.26046590000033,143.27569550000044,143.75927860000002,143.76148650000005,143.77516270000024,144.37688300000036,,,,,144.37707660000024,144.3919361000003,144.5919888000003,144.57558860000017,143.77516270000024,,,,,,,,0,1,0.599095799999759,None,,,,,,,,837,21,V,R,2026-02-25_11h51.07.583,VisualSearch_2526_3,,2025.2.4,2026-02-25 11h51.07.812650 +0100,
vertical.xlsx,The target is tilted.,135,35,3,4,1,1,1,1,1,1,1,1,1,1,1,1,0,11,12,135,space,18.2478215000001,None,1,1,0.8305943000000298,None,space,2.0177718999998433,None,0,0,0,1,,,,,4,3,35,0,144.5919888000003,,,,,,,,,,,,,,,,,,,,,144.57617740000023,144.5919888000003,145.07623490000014,145.08084590000044,145.09764630000018,145.94267310000032,,,,,145.94288310000002,145.95826960000022,146.1586602000002,146.14207440000018,145.09764630000018,,,,,,,,1,1,0.8305943000000298,None,,,,,,,,837,21,V,R,2026-02-25_11h51.07.583,VisualSearch_2526_3,,2025.2.4,2026-02-25 11h51.07.812650 +0100,
vertical.xlsx,The target is tilted.,135,36,4,4,0,1,1,1,1,1,1,1,1,1,1,1,1,11,12,135,space,18.2478215000001,None,0,1,1.1257045000002108,None,space,2.0177718999998433,None,0,0,0,1,,,,,4,4,36,4,146.1586602000002,,,,,,,,,,,,,,,,,,,,,146.14268250000032,146.1586602000002,146.64259960000027,146.64744280000014,146.65810890000012,147.79289210000024,,,,,147.79306880000013,147.8079705,148.0082494000003,147.99223610000035,146.65810890000012,,,,,,,,0,1,1.1257045000002108,None,,,,,,,,837,21,V,R,2026-02-25_11h51.07.583,VisualSearch_2526_3,,2025.2.4,2026-02-25 11h51.07.812650 +0100,
vertical.xlsx,The target is tilted.,135,37,5,4,0,1,1,1,1,1,1,1,0,0,0,0,1,7,8,135,space,18.2478215000001,None,0,1,1.0586005000000114,None,space,2.0177718999998433,None,0,0,0,1,,,,,4,5,37,5,148.0082494000003,,,,,,,,,,,,,,,,,,,,,147.9929656000004,148.0082494000003,148.49238810000043,148.49708090000013,148.5138965000001,149.5759594000001,,,,,149.57615830000032,149.59107300000005,149.7911720000002,149.77533270000004,148.5138965000001,,,,,,,,0,1,1.0586005000000114,None,,,,,,,,837,21,V,R,2026-02-25_11h51.07.583,VisualSearch_2526_3,,2025.2.4,2026-02-25 11h51.07.812650 +0100,
vertical.xlsx,The target is tilted.,135,38,6,4,1,0,0,0,0,0,0,0,0,0,0,0,0,0,1,135,space,18.2478215000001,None,1,1,0.6015714999998636,None,space,2.0177718999998433,None,0,0,0,1,,,,,4,6,38,3,149.7911720000002,,,,,,,,,,,,,,,,,,,,,149.7760870000002,149.7911720000002,150.27530670000033,150.2801314000003,150.29792580000003,150.90903460000027,,,,,150.90921060000028,150.9242046000004,151.12461310000026,151.10831720000033,150.29792580000003,,,,,,,,1,1,0.6015714999998636,None,,,,,,,,837,21,V,R,2026-02-25_11h51.07.583,VisualSearch_2526_3,,2025.2.4,2026-02-25 11h51.07.812650 +0100,
vertical.xlsx,The target is tilted.,135,39,7,4,1,1,1,1,0,0,0,0,0,0,0,0,0,3,4,135,space,18.2478215000001,None,0,0,0.6007692000002862,None,space,2.0177718999998433,None,0,0,0,1,,,,,4,7,39,2,151.12461310000026,,,,,,,,,,,,,,,,,,,,,151.10896990000037,151.12461310000026,151.60844850000012,151.6130648000003,151.62686080000003,152.2415361000003,,,,,152.24172860000044,152.25725310000007,152.4578464000001,152.44173750000027,151.62686080000003,,,,,,,,0,0,0.6007692000002862,None,,,,,,,,837,21,V,R,2026-02-25_11h51.07.583,VisualSearch_2526_3,,2025.2.4,2026-02-25 11h51.07.812650 +0100,
vertical.xlsx,The target is tilted.,135,40,0,5,1,1,1,1,1,1,1,1,0,0,0,0,0,7,8,135,space,18.2478215000001,None,1,1,0.8236814000001687,None,space,2.0177718999998433,None,0,0,0,1,,,,,5,0,40,1,152.4578464000001,,,,,,,,,,,,,,,,,,,,,152.4425016,152.4578464000001,152.94164790000013,152.94623010000032,152.96382550000044,153.79089750000003,,,,,153.7910009000002,153.80681760000016,154.0074313,153.9912789,152.96382550000044,,,,,,,,1,1,0.8236814000001687,None,,,,,,,,837,21,V,R,2026-02-25_11h51.07.583,VisualSearch_2526_3,,2025.2.4,2026-02-25 11h51.07.812650 +0100,
vertical.xlsx,The target is tilted.,135,41,1,5,0,1,1,1,1,1,1,1,0,0,0,0,1,7,8,135,space,18.2478215000001,None,0,1,0.7347672999999304,None,space,2.0177718999998433,None,0,0,0,1,,,,,5,1,41,5,154.0074313,,,,,,,,,,,,,,,,,,,,,153.99201470000025,154.0074313,154.49126390000038,154.4965927000003,154.5143737000003,155.25856600000043,,,,,155.25877960000025,155.27349410000033,155.47388980000005,155.45759840000028,,,,,,,,,0,1,0.7347672999999304,None,,,,,,,,837,21,V,R,2026-02-25_11h51.07.583,VisualSearch_2526_3,,2025.2.4,2026-02-25 11h51.07.812650 +0100,
vertical.xlsx,The target is tilted.,135,42,2,5,1,1,1,1,0,0,0,0,0,0,0,0,0,3,4,135,space,18.2478215000001,None,1,1,0.4931984999998349,None,space,2.0177718999998433,None,0,0,0,1,,,,,5,2,42,2,155.47388980000005,,,,,,,,,,,,,,,,,,,,,155.45827310000004,155.47388980000005,155.9573964000001,155.9624047000002,155.97832310000013,156.47503110000025,,,,,156.47524780000003,156.49013250000007,156.69035280000026,156.67419840000002,155.97832310000013,,,,,,,,1,1,0.4931984999998349,None,,,,,,,,837,21,V,R,2026-02-25_11h51.07.583,VisualSearch_2526_3,,2025.2.4,2026-02-25 11h51.07.812650 +0100,
vertical.xlsx,The target is tilted.,135,43,3,5,0,1,1,1,0,0,0,0,0,0,0,0,1,3,4,135,space,18.2478215000001,None,0,1,0.7727739000001748,None,space,2.0177718999998433,None,0,0,0,1,,,,,5,3,43,6,156.69035280000026,,,,,,,,,,,,,,,,,,,,,156.67497400000002,156.69035280000026,157.17433390000042,157.17978110000013,157.1956427,157.97450230000004,,,,,157.97466620000023,157.9896530000001,158.19006100000024,158.17341000000033,157.1956427,,,,,,,,0,1,0.7727739000001748,None,,,,,,,,837,21,V,R,2026-02-25_11h51.07.583,VisualSearch_2526_3,,2025.2.4,2026-02-25 11h51.07.812650 +0100,
vertical.xlsx,The target is tilted.,135,44,4,5,0,0,0,0,0,0,0,0,0,0,0,0,1,1,1,135,space,18.2478215000001,None,0,1,0.6080481000003601,None,space,2.0177718999998433,None,0,0,0,1,,,,,5,4,44,7,158.19006100000024,,,,,,,,,,,,,,,,,,,,,158.17400420000013,158.19006100000024,158.6739988000004,158.67871940000032,158.69472160000032,159.30749090000018,,,,,159.3076876,159.3227635000003,159.52321140000004,159.5067326000003,158.69472160000032,,,,,,,,0,1,0.6080481000003601,None,,,,,,,,837,21,V,R,2026-02-25_11h51.07.583,VisualSearch_2526_3,,2025.2.4,2026-02-25 11h51.07.812650 +0100,
vertical.xlsx,The target is tilted.,135,45,5,5,1,1,1,1,1,1,1,1,1,1,1,1,0,11,12,135,space,18.2478215000001,None,1,1,0.9248016999999891,None,space,2.0177718999998433,None,0,0,0,1,,,,,5,5,45,0,159.52321140000004,,,,,,,,,,,,,,,,,,,,,159.50747480000018,159.52321140000004,160.0072215,160.0124890000002,160.0294027,160.95758950000027,,,,,160.95780030000014,160.97248370000034,161.17287350000015,161.1570885000001,160.0294027,,,,,,,,1,1,0.9248016999999891,None,,,,,,,,837,21,V,R,2026-02-25_11h51.07.583,VisualSearch_2526_3,,2025.2.4,2026-02-25 11h51.07.812650 +0100,
vertical.xlsx,The target is tilted.,135,46,6,5,1,0,0,0,0,0,0,0,0,0,0,0,0,0,1,135,space,18.2478215000001,None,1,1,0.5265177000001131,None,space,2.0177718999998433,None,0,0,0,1,,,,,5,6,46,3,161.17287350000015,,,,,,,,,,,,,,,,,,,,,161.15779050000037,161.17287350000015,161.65643720000025,161.6610743000001,161.67944860000034,162.2082762,,,,,162.20851300000004,162.2223653000001,162.42269250000027,162.4067130000003,161.67944860000034,,,,,,,,1,1,0.5265177000001131,None,,,,,,,,837,21,V,R,2026-02-25_11h51.07.583,VisualSearch_2526_3,,2025.2.4,2026-02-25 11h51.07.812650 +0100,
vertical.xlsx,The target is tilted.,135,47,7,5,0,1,1,1,1,1,1,1,1,1,1,1,1,11,12,135,space,18.2478215000001,None,0,1,1.477299299999686,None,space,2.0177718999998433,None,0,0,0,1,,,,,5,7,47,4,162.42269250000027,,,,,,,,,,,,,,,,,,,,,162.40743050000037,162.42269250000027,162.90684090000013,162.91240780000044,162.92803790000016,164.4068344000002,,,,,164.4070115000004,164.4218820000001,164.6219917000003,164.60659330000044,162.92803790000016,,,,,,,,0,1,1.477299299999686,None,,,,,,,,837,21,V,R,2026-02-25_11h51.07.583,VisualSearch_2526_3,,2025.2.4,2026-02-25 11h51.07.812650 +0100,
vertical.xlsx,The target is tilted.,135,48,0,6,1,1,1,1,0,0,0,0,0,0,0,0,0,3,4,135,space,18.2478215000001,None,1,1,0.5372846000000209,None,space,2.0177718999998433,None,0,0,0,1,,,,,6,0,48,2,164.6219917000003,,,,,,,,,,,,,,,,,,,,,164.60728480000034,164.6219917000003,165.10633130000042,165.11145300000044,165.1218388000002,165.67258470000024,,,,,165.67274700000007,165.68825610000022,165.8885908000002,165.87262680000003,165.1218388000002,,,,,,,,1,1,0.5372846000000209,None,,,,,,,,837,21,V,R,2026-02-25_11h51.07.583,VisualSearch_2526_3,,2025.2.4,2026-02-25 11h51.07.812650 +0100,
vertical.xlsx,The target is tilted.,135,49,1,6,0,0,0,0,0,0,0,0,0,0,0,0,1,1,1,135,space,18.2478215000001,None,0,1,0.5876051999998708,None,space,2.0177718999998433,None,0,0,0,1,,,,,6,1,49,7,165.8885908000002,,,,,,,,,,,,,,,,,,,,,165.87334020000026,165.8885908000002,166.37223940000013,166.37644130000035,166.39200450000044,166.98960020000004,,,,,166.98981070000036,167.00482090000014,167.2054234000002,167.18942180000022,166.39200450000044,,,,,,,,0,1,0.5876051999998708,None,,,,,,,,837,21,V,R,2026-02-25_11h51.07.583,VisualSearch_2526_3,,2025.2.4,2026-02-25 11h51.07.812650 +0100,
vertical.xlsx,The target is tilted.,135,50,2,6,1,0,0,0,0,0,0,0,0,0,0,0,0,0,1,135,space,18.2478215000001,None,1,1,0.6305121999998846,None,space,2.0177718999998433,None,0,0,0,1,,,,,6,2,50,3,167.2054234000002,,,,,,,,,,,,,,,,,,,,,167.19027320000032,167.2054234000002,167.68888960000004,167.6936013000004,167.7051349000003,168.3393414000002,,,,,168.33954080000012,168.35463640000035,168.55465330000015,168.5389236000001,167.7051349000003,,,,,,,,1,1,0.6305121999998846,None,,,,,,,,837,21,V,R,2026-02-25_11h51.07.583,VisualSearch_2526_3,,2025.2.4,2026-02-25 11h51.07.812650 +0100,
vertical.xlsx,The target is tilted.,135,51,3,6,1,1,1,1,1,1,1,1,0,0,0,0,0,7,8,135,space,18.2478215000001,None,0,0,1.601935499999854,None,space,2.0177718999998433,None,0,0,0,1,,,,,6,3,51,1,168.55465330000015,,,,,,,,,,,,,,,,,,,,,168.53967160000002,168.55465330000015,169.03904300000022,169.0443610000002,169.06094210000037,170.67233050000004,,,,,170.6724935000002,170.68755710000005,170.88808990000007,170.87198670000043,169.06094210000037,,,,,,,,0,0,1.601935499999854,None,,,,,,,,837,21,V,R,2026-02-25_11h51.07.583,VisualSearch_2526_3,,2025.2.4,2026-02-25 11h51.07.812650 +0100,
vertical.xlsx,The target is tilted.,135,52,4,6,0,1,1,1,1,1,1,1,1,1,1,1,1,11,12,135,space,18.2478215000001,None,0,1,0.8856396000001041,None,space,2.0177718999998433,None,0,0,0,1,,,,,6,4,52,4,170.88808990000007,,,,,,,,,,,,,,,,,,,,,170.87271450000026,170.88808990000007,171.3718785000001,171.37653950000004,171.39359810000042,172.2885035000004,,,,,172.28868280000006,172.30388010000024,172.50445660000014,172.48832500000026,171.39359810000042,,,,,,,,0,1,0.8856396000001041,None,,,,,,,,837,21,V,R,2026-02-25_11h51.07.583,VisualSearch_2526_3,,2025.2.4,2026-02-25 11h51.07.812650 +0100,
vertical.xlsx,The target is tilted.,135,53,5,6,1,1,1,1,1,1,1,1,1,1,1,1,0,11,12,135,space,18.2478215000001,None,0,0,0.8966138000000683,None,space,2.0177718999998433,None,0,0,0,1,,,,,6,5,53,0,172.50445660000014,,,,,,,,,,,,,,,,,,,,,172.48904970000012,172.50445660000014,172.9877233000002,172.99186540000028,173.00657470000033,173.90502630000037,,,,,173.90523380000013,173.92034110000031,174.12045670000043,174.10456220000015,173.00657470000033,,,,,,,,0,0,0.8966138000000683,None,,,,,,,,837,21,V,R,2026-02-25_11h51.07.583,VisualSearch_2526_3,,2025.2.4,2026-02-25 11h51.07.812650 +0100,
vertical.xlsx,The target is tilted.,135,54,6,6,0,1,1,1,1,1,1,1,0,0,0,0,1,7,8,135,space,18.2478215000001,None,0,1,1.0733474000003298,None,space,2.0177718999998433,None,0,0,0,1,,,,,6,6,54,5,174.12045670000043,,,,,,,,,,,,,,,,,,,,,174.1053211000003,174.12045670000043,174.6045935000002,174.6093079000002,174.62499670000034,175.70493140000008,,,,,175.70510570000033,175.71973240000034,175.92033200000014,175.90467230000013,174.62499670000034,,,,,,,,0,1,1.0733474000003298,None,,,,,,,,837,21,V,R,2026-02-25_11h51.07.583,VisualSearch_2526_3,,2025.2.4,2026-02-25 11h51.07.812650 +0100,
vertical.xlsx,The target is tilted.,135,55,7,6,0,1,1,1,0,0,0,0,0,0,0,0,1,3,4,135,space,18.2478215000001,None,0,1,0.44354489999977886,None,space,2.0177718999998433,None,0,0,0,1,,,,,6,7,55,6,175.92033200000014,,,,,,,,,,,,,,,,,,,,,175.90537240000003,175.92033200000014,176.40416140000025,176.40895130000035,176.4241218000002,176.87101250000023,,,,,176.8711989000003,176.88645860000042,177.0869262000001,177.07042460000002,176.4241218000002,,,,,,,,0,1,0.44354489999977886,None,,,,,,,,837,21,V,R,2026-02-25_11h51.07.583,VisualSearch_2526_3,,2025.2.4,2026-02-25 11h51.07.812650 +0100,
vertical.xlsx,The target is tilted.,135,56,0,7,1,1,1,1,0,0,0,0,0,0,0,0,0,3,4,135,space,18.2478215000001,None,1,1,0.5078977000002851,None,space,2.0177718999998433,None,0,0,0,1,,,,,7,0,56,2,177.0869262000001,,,,,,,,,,,,,,,,,,,,,177.07117600000038,177.0869262000001,177.57065950000015,177.57535990000042,177.59187060000022,178.10433900000044,,,,,178.10453640000014,178.1196769000003,178.31971680000015,178.30374340000026,177.59187060000022,,,,,,,,1,1,0.5078977000002851,None,,,,,,,,837,21,V,R,2026-02-25_11h51.07.583,VisualSearch_2526_3,,2025.2.4,2026-02-25 11h51.07.812650 +0100,
vertical.xlsx,The target is tilted.,135,57,1,7,1,1,1,1,1,1,1,1,1,1,1,1,0,11,12,135,space,18.2478215000001,None,0,0,0.9165885000002163,None,space,2.0177718999998433,None,0,0,0,1,,,,,7,1,57,0,178.31971680000015,,,,,,,,,,,,,,,,,,,,,178.3044914000002,178.31971680000015,178.80399950000037,178.80934630000002,178.82648610000024,179.75298520000024,,,,,179.75307770000018,179.7691890000001,179.96900010000036,179.95259270000042,178.82648610000024,,,,,,,,0,0,0.9165885000002163,None,,,,,,,,837,21,V,R,2026-02-25_11h51.07.583,VisualSearch_2526_3,,2025.2.4,2026-02-25 11h51.07.812650 +0100,
vertical.xlsx,The target is tilted.,135,58,2,7,0,0,0,0,0,0,0,0,0,0,0,0,1,1,1,135,space,18.2478215000001,None,0,1,0.6018225000002531,None,space,2.0177718999998433,None,0,0,0,1,,,,,7,2,58,7,179.96900010000036,,,,,,,,,,,,,,,,,,,,,179.95283420000032,179.96900010000036,180.4534249000003,180.45860970000012,180.47306020000042,181.08684900000026,,,,,181.0870490000002,181.1023699000002,181.30278090000002,181.28666250000015,180.47306020000042,,,,,,,,0,1,0.6018225000002531,None,,,,,,,,837,21,V,R,2026-02-25_11h51.07.583,VisualSearch_2526_3,,2025.2.4,2026-02-25 11h51.07.812650 +0100,
vertical.xlsx,The target is tilted.,135,59,3,7,0,1,1,1,1,1,1,1,1,1,1,1,1,11,12,135,space,18.2478215000001,None,0,1,0.9945625000000291,None,space,2.0177718999998433,None,0,0,0,1,,,,,7,3,59,4,181.30278090000002,,,,,,,,,,,,,,,,,,,,,181.28733360000024,181.30278090000002,181.78693320000002,181.79225430000042,181.81026060000022,182.8199565,,,,,182.82015390000015,182.83549200000016,183.03560100000004,183.01991970000017,181.81026060000022,,,,,,,,0,1,0.9945625000000291,None,,,,,,,,837,21,V,R,2026-02-25_11h51.07.583,VisualSearch_2526_3,,2025.2.4,2026-02-25 11h51.07.812650 +0100,
vertical.xlsx,The target is tilted.,135,60,4,7,0,1,1,1,0,0,0,0,0,0,0,0,1,3,4,135,space,18.2478215000001,None,0,1,0.6355045000000246,None,space,2.0177718999998433,None,0,0,0,1,,,,,7,4,60,6,183.03560100000004,,,,,,,,,,,,,,,,,,,,,183.02074960000027,183.03560100000004,183.51963690000002,183.524316,183.54147900000044,184.18693310000026,,,,,184.18712750000032,184.20197510000025,184.40208680000023,184.38627940000015,183.54147900000044,,,,,,,,0,1,0.6355045000000246,None,,,,,,,,837,21,V,R,2026-02-25_11h51.07.583,VisualSearch_2526_3,,2025.2.4,2026-02-25 11h51.07.812650 +0100,
vertical.xlsx,The target is tilted.,135,61,5,7,1,0,0,0,0,0,0,0,0,0,0,0,0,0,1,135,space,18.2478215000001,None,1,1,0.49186839999993026,None,space,2.0177718999998433,None,0,0,0,1,,,,,7,5,61,3,184.40208680000023,,,,,,,,,,,,,,,,,,,,,184.3870453000004,184.40208680000023,184.88591860000042,184.89063950000036,184.9074574000001,185.40314220000027,,,,,185.4038787000004,185.41836490000014,185.61857370000007,185.60266530000035,184.9074574000001,,,,,,,,1,1,0.49186839999993026,None,,,,,,,,837,21,V,R,2026-02-25_11h51.07.583,VisualSearch_2526_3,,2025.2.4,2026-02-25 11h51.07.812650 +0100,
vertical.xlsx,The target is tilted.,135,62,6,7,1,1,1,1,1,1,1,1,0,0,0,0,0,7,8,135,space,18.2478215000001,None,0,0,0.7581683000003068,None,space,2.0177718999998433,None,0,0,0,1,,,,,7,6,62,1,185.61857370000007,,,,,,,,,,,,,,,,,,,,,185.60338850000016,185.61857370000007,186.10217470000043,186.10691830000042,186.12335800000028,186.8862862000001,,,,,186.88642270000037,186.9012477000001,187.10184620000018,187.08542620000026,186.12335800000028,,,,,,,,0,0,0.7581683000003068,None,,,,,,,,837,21,V,R,2026-02-25_11h51.07.583,VisualSearch_2526_3,,2025.2.4,2026-02-25 11h51.07.812650 +0100,
vertical.xlsx,The target is tilted.,135,63,7,7,0,1,1,1,1,1,1,1,0,0,0,0,1,7,8,135,space,18.2478215000001,None,0,1,0.9326206000000639,None,space,2.0177718999998433,None,0,0,0,1,,,,,7,7,63,5,187.10184620000018,,,,,,,,,,,,,,,,,,,,,187.0861178,187.10184620000018,187.58546410000008,187.5900131000003,187.6056284000001,188.55219780000016,,,,,188.5523919000002,188.56782600000042,188.76801850000038,188.7521380000003,187.6056284000001,,,,,,,,0,1,0.9326206000000639,None,,,,,,,,837,21,V,R,2026-02-25_11h51.07.583,VisualSearch_2526_3,,2025.2.4,2026-02-25 11h51.07.812650 +0100,
vertical.xlsx,The target is tilted.,135,64,0,8,1,1,1,1,1,1,1,1,1,1,1,1,0,11,12,135,space,18.2478215000001,None,1,1,0.9345915999997487,None,space,2.0177718999998433,None,0,0,0,1,,,,,8,0,64,0,188.76801850000038,,,,,,,,,,,,,,,,,,,,,188.75288790000013,188.76801850000038,189.2521380000003,189.25625640000044,189.27240220000022,190.21914460000016,,,,,190.21931950000044,190.23424790000036,190.4346088000002,190.4185177000004,189.27240220000022,,,,,,,,1,1,0.9345915999997487,None,,,,,,,,837,21,V,R,2026-02-25_11h51.07.583,VisualSearch_2526_3,,2025.2.4,2026-02-25 11h51.07.812650 +0100,
vertical.xlsx,The target is tilted.,135,65,1,8,0,1,1,1,1,1,1,1,1,1,1,1,1,11,12,135,space,18.2478215000001,None,0,1,1.1525907999998708,None,space,2.0177718999998433,None,0,0,0,1,,,,,8,1,65,4,190.4346088000002,,,,,,,,,,,,,,,,,,,,,190.41929630000004,190.4346088000002,190.9186338000004,190.92317700000012,190.93887810000024,192.1015612000001,,,,,192.1016880000002,192.11720430000014,192.3174299000002,192.30173520000017,190.93887810000024,,,,,,,,0,1,1.1525907999998708,None,,,,,,,,837,21,V,R,2026-02-25_11h51.07.583,VisualSearch_2526_3,,2025.2.4,2026-02-25 11h51.07.812650 +0100,
vertical.xlsx,The target is tilted.,135,66,2,8,1,1,1,1,0,0,0,0,0,0,0,0,0,3,4,135,space,18.2478215000001,None,1,1,0.5488454999999703,None,space,2.0177718999998433,None,0,0,0,1,,,,,8,2,66,2,192.3174299000002,,,,,,,,,,,,,,,,,,,,,192.3024658000004,192.3174299000002,192.80176500000016,192.80709890000026,192.82431810000026,193.38515720000032,,,,,193.38533190000044,193.40046380000013,193.6009095000004,193.58475550000003,192.82431810000026,,,,,,,,1,1,0.5488454999999703,None,,,,,,,,837,21,V,R,2026-02-25_11h51.07.583,VisualSearch_2526_3,,2025.2.4,2026-02-25 11h51.07.812650 +0100,
vertical.xlsx,The target is tilted.,135,67,3,8,1,0,0,0,0,0,0,0,0,0,0,0,0,0,1,135,space,18.2478215000001,None,1,1,0.7513988000000609,None,space,2.0177718999998433,None,0,0,0,1,,,,,8,3,67,3,193.6009095000004,,,,,,,,,,,,,,,,,,,,,193.58547550000003,193.6009095000004,194.08448520000002,194.08937220000007,194.1068792000001,194.8669688,,,,,194.86702410000044,194.88325780000014,,195.067681,194.1068792000001,,,,,,,,1,1,0.7513988000000609,None,,,,,,,,837,21,V,R,2026-02-25_11h51.07.583,VisualSearch_2526_3,,2025.2.4,2026-02-25 11h51.07.812650 +0100,
vertical.xlsx,The target is tilted.,135,68,4,8,0,0,0,0,0,0,0,0,0,0,0,0,1,1,1,135,space,18.2478215000001,None,0,1,0.7765021000000161,None,space,2.0177718999998433,None,0,0,0,1,,,,,8,4,68,7,195.0840721000004,,,,,,,,,,,,,,,,,,,,,195.0686409,195.0840721000004,195.5676284000001,195.5729911000003,195.59185430000025,196.3858882000004,,,,,196.38607300000012,196.3997387000004,196.60018860000037,196.58362230000012,,,,,,,,,0,1,0.7765021000000161,None,,,,,,,,837,21,V,R,2026-02-25_11h51.07.583,VisualSearch_2526_3,,2025.2.4,2026-02-25 11h51.07.812650 +0100,
vertical.xlsx,The target is tilted.,135,69,5,8,0,1,1,1,1,1,1,1,0,0,0,0,1,7,8,135,space,18.2478215000001,None,0,1,0.8313178000003063,None,space,2.0177718999998433,None,0,0,0,1,,,,,8,5,69,5,196.60018860000037,,,,,,,,,,,,,,,,,,,,,196.5839916,196.60018860000037,197.08410120000008,197.08876420000024,197.10724580000033,197.9508837000003,,,,,197.9510736000002,197.96632500000032,198.16643630000044,198.15083920000006,197.10724580000033,,,,,,,,0,1,0.8313178000003063,None,,,,,,,,837,21,V,R,2026-02-25_11h51.07.583,VisualSearch_2526_3,,2025.2.4,2026-02-25 11h51.07.812650 +0100,
vertical.xlsx,The target is tilted.,135,70,6,8,0,1,1,1,0,0,0,0,0,0,0,0,1,3,4,135,space,18.2478215000001,None,0,1,0.7170781999998326,None,space,2.0177718999998433,None,0,0,0,1,,,,,8,6,70,6,198.16643630000044,,,,,,,,,,,,,,,,,,,,,198.15159110000013,198.16643630000044,198.65038370000002,198.654497,198.67065890000003,199.40042240000002,,,,,199.4006277000003,199.4161234000003,199.61647900000025,199.6003799,198.67065890000003,,,,,,,,0,1,0.7170781999998326,None,,,,,,,,837,21,V,R,2026-02-25_11h51.07.583,VisualSearch_2526_3,,2025.2.4,2026-02-25 11h51.07.812650 +0100,
vertical.xlsx,The target is tilted.,135,71,7,8,1,1,1,1,1,1,1,1,0,0,0,0,0,7,8,135,space,18.2478215000001,None,1,1,0.887994599999729,None,space,2.0177718999998433,None,0,0,0,1,,,,,8,7,71,1,199.61647900000025,,,,,,,,,,,,,,,,,,,,,199.6011472,199.61647900000025,200.09974550000015,200.10318410000036,200.11607760000015,201.01677480000035,,,,,201.01695580000023,201.03235610000002,201.2328292000002,201.2164547000002,200.11607760000015,,,,,,,,1,1,0.887994599999729,None,,,,,,,,837,21,V,R,2026-02-25_11h51.07.583,VisualSearch_2526_3,,2025.2.4,2026-02-25 11h51.07.812650 +0100,
vertical.xlsx,The target is tilted.,135,72,0,9,1,1,1,1,0,0,0,0,0,0,0,0,0,3,4,135,space,18.2478215000001,None,1,1,0.6821826999998848,None,space,2.0177718999998433,None,0,0,0,1,,,,,9,0,72,2,201.2328292000002,,,,,,,,,,,,,,,,,,,,,201.21690480000007,201.2328292000002,201.71689650000008,201.72228740000037,201.73932690000038,202.43357760000026,,,,,202.43376770000032,202.44896140000037,202.64867630000026,202.6328566000002,201.73932690000038,,,,,,,,1,1,0.6821826999998848,None,,,,,,,,837,21,V,R,2026-02-25_11h51.07.583,VisualSearch_2526_3,,2025.2.4,2026-02-25 11h51.07.812650 +0100,
vertical.xlsx,The target is tilted.,135,73,1,9,0,1,1,1,1,1,1,1,0,0,0,0,1,7,8,135,space,18.2478215000001,None,0,1,1.318413199999668,None,space,2.0177718999998433,None,0,0,0,1,,,,,9,1,73,5,202.64867630000026,,,,,,,,,,,,,,,,,,,,,202.63365170000043,202.64867630000026,203.13302150000027,203.13837620000004,203.15509380000003,204.4833133000002,,,,,204.483514,204.49854500000038,204.69909700000017,204.68256840000004,203.15509380000003,,,,,,,,0,1,1.318413199999668,None,,,,,,,,837,21,V,R,2026-02-25_11h51.07.583,VisualSearch_2526_3,,2025.2.4,2026-02-25 11h51.07.812650 +0100,
vertical.xlsx,The target is tilted.,135,74,2,9,0,1,1,1,1,1,1,1,1,1,1,1,1,11,12,135,space,18.2478215000001,None,0,1,1.289127500000177,None,space,2.0177718999998433,None,0,0,0,1,,,,,9,2,74,4,204.69909700000017,,,,,,,,,,,,,,,,,,,,,204.68332420000024,204.69909700000017,205.1826946000001,205.1873281000003,205.20354010000028,206.4996382000004,,,,,206.4998353000001,206.5149265,206.71503650000022,206.6990119000002,205.20354010000028,,,,,,,,0,1,1.289127500000177,None,,,,,,,,837,21,V,R,2026-02-25_11h51.07.583,VisualSearch_2526_3,,2025.2.4,2026-02-25 11h51.07.812650 +0100,
vertical.xlsx,The target is tilted.,135,75,3,9,1,0,0,0,0,0,0,0,0,0,0,0,0,0,1,135,space,18.2478215000001,None,1,1,0.644430000000284,None,space,2.0177718999998433,None,0,0,0,1,,,,,9,3,75,3,206.71503650000022,,,,,,,,,,,,,,,,,,,,,206.69959970000036,206.71503650000022,207.19918370000005,207.20450010000013,207.2229311000001,207.88229290000027,,,,,207.8825264000002,207.8978916000001,208.0984837000001,208.0822774000003,207.2229311000001,,,,,,,,1,1,0.644430000000284,None,,,,,,,,837,21,V,R,2026-02-25_11h51.07.583,VisualSearch_2526_3,,2025.2.4,2026-02-25 11h51.07.812650 +0100,
vertical.xlsx,The target is tilted.,135,76,4,9,0,1,1,1,0,0,0,0,0,0,0,0,1,3,4,135,space,18.2478215000001,None,0,1,0.691292599999997,None,space,2.0177718999998433,None,0,0,0,1,,,,,9,4,76,6,208.0984837000001,,,,,,,,,,,,,,,,,,,,,208.08299820000002,208.0984837000001,208.58243820000007,208.58700210000006,208.60273190000044,209.2994034000003,,,,,209.2995950000004,209.31446460000006,209.5149422000004,209.4986801,208.60273190000044,,,,,,,,0,1,0.691292599999997,None,,,,,,,,837,21,V,R,2026-02-25_11h51.07.583,VisualSearch_2526_3,,2025.2.4,2026-02-25 11h51.07.812650 +0100,
vertical.xlsx,The target is tilted.,135,77,5,9,1,1,1,1,1,1,1,1,0,0,0,0,0,7,8,135,space,18.2478215000001,None,0,0,0.7502328999999008,None,space,2.0177718999998433,None,0,0,0,1,,,,,9,5,77,1,209.5149422000004,,,,,,,,,,,,,,,,,,,,,209.49944750000031,209.5149422000004,209.99814650000008,210.00188360000038,210.01748100000032,210.7816939000004,,,,,210.78184940000028,210.7973433000002,210.99727140000005,210.98118290000002,210.01748100000032,,,,,,,,0,0,0.7502328999999008,None,,,,,,,,837,21,V,R,2026-02-25_11h51.07.583,VisualSearch_2526_3,,2025.2.4,2026-02-25 11h51.07.812650 +0100,
vertical.xlsx,The target is tilted.,135,78,6,9,1,1,1,1,1,1,1,1,1,1,1,1,0,11,12,135,space,18.2478215000001,None,0,0,1.1896522999995796,None,space,2.0177718999998433,None,0,0,0,1,,,,,9,6,78,0,210.99727140000005,,,,,,,,,,,,,,,,,,,,,210.9817865,210.99727140000005,211.48176460000013,211.48589110000012,211.50101660000018,212.69871900000044,,,,,212.69889450000028,212.71388270000034,212.9143578000003,212.89812080000002,211.50101660000018,,,,,,,,0,0,1.1896522999995796,None,,,,,,,,837,21,V,R,2026-02-25_11h51.07.583,VisualSearch_2526_3,,2025.2.4,2026-02-25 11h51.07.812650 +0100,
vertical.xlsx,The target is tilted.,135,79,7,9,0,0,0,0,0,0,0,0,0,0,0,0,1,1,1,135,space,18.2478215000001,None,0,1,0.6821718000001056,None,space,2.0177718999998433,None,0,0,0,1,,,,,9,7,79,7,212.9143578000003,,,,,,,,,,,,,,,,,,,,,212.89886380000007,212.9143578000003,213.39802510000027,213.40209060000007,213.4170193,214.1144537,,,,,214.11460800000032,214.13012260000005,214.3308401000004,214.3146281000004,213.4170193,,,,,,,,0,1,0.6821718000001056,None,,,,,,,,837,21,V,R,2026-02-25_11h51.07.583,VisualSearch_2526_3,,2025.2.4,2026-02-25 11h51.07.812650 +0100,
vertical.xlsx,The target is tilted.,135,80,0,10,0,1,1,1,0,0,0,0,0,0,0,0,1,3,4,135,space,18.2478215000001,None,0,1,0.5843839999997726,None,space,2.0177718999998433,None,0,0,0,1,,,,,10,0,80,6,214.3308401000004,,,,,,,,,,,,,,,,,,,,,214.3153658000001,214.3308401000004,214.81452560000025,214.81909890000043,214.83508580000034,215.43164460000025,,,,,215.4318134,215.44665080000004,215.64728860000014,215.63111200000003,214.83508580000034,,,,,,,,0,1,0.5843839999997726,None,,,,,,,,837,21,V,R,2026-02-25_11h51.07.583,VisualSearch_2526_3,,2025.2.4,2026-02-25 11h51.07.812650 +0100,
vertical.xlsx,The target is tilted.,135,81,1,10,1,1,1,1,0,0,0,0,0,0,0,0,0,3,4,135,space,18.2478215000001,None,1,1,0.7493403999997099,None,space,2.0177718999998433,None,0,0,0,1,,,,,10,1,81,2,215.64728860000014,,,,,,,,,,,,,,,,,,,,,215.6318207000004,215.64728860000014,216.13091540000005,216.1353841,216.15156780000007,216.91455880000012,,,,,216.91473330000008,216.93029650000017,217.13026330000002,217.11396530000002,216.15156780000007,,,,,,,,1,1,0.7493403999997099,None,,,,,,,,837,21,V,R,2026-02-25_11h51.07.583,VisualSearch_2526_3,,2025.2.4,2026-02-25 11h51.07.812650 +0100,
vertical.xlsx,The target is tilted.,135,82,2,10,0,1,1,1,1,1,1,1,1,1,1,1,1,11,12,135,space,18.2478215000001,None,0,1,0.7627997000004143,None,space,2.0177718999998433,None,0,0,0,1,,,,,10,2,82,4,217.13026330000002,,,,,,,,,,,,,,,,,,,,,217.11455920000026,217.13026330000002,217.61404400000038,217.61855960000003,217.6348227000003,218.41435040000033,,,,,218.41452290000007,218.43004050000036,218.6299912000004,218.6138990000004,217.6348227000003,,,,,,,,0,1,0.7627997000004143,None,,,,,,,,837,21,V,R,2026-02-25_11h51.07.583,VisualSearch_2526_3,,2025.2.4,2026-02-25 11h51.07.812650 +0100,
vertical.xlsx,The target is tilted.,135,83,3,10,1,1,1,1,1,1,1,1,0,0,0,0,0,7,8,135,space,18.2478215000001,None,0,0,0.6241454999999405,None,space,2.0177718999998433,None,0,0,0,1,,,,,10,3,83,1,218.6299912000004,,,,,,,,,,,,,,,,,,,,,218.61464460000025,218.6299912000004,219.11376260000043,219.11829990000024,219.1344766000002,219.76390310000033,,,,,219.76407670000026,219.7797486000004,219.9795425000002,219.96359470000016,219.1344766000002,,,,,,,,0,0,0.6241454999999405,None,,,,,,,,837,21,V,R,2026-02-25_11h51.07.583,VisualSearch_2526_3,,2025.2.4,2026-02-25 11h51.07.812650 +0100,
vertical.xlsx,The target is tilted.,135,84,4,10,1,1,1,1,1,1,1,1,1,1,1,1,0,11,12,135,space,18.2478215000001,None,1,1,1.1042324000000008,None,space,2.0177718999998433,None,0,0,0,1,,,,,10,4,84,0,219.9795425000002,,,,,,,,,,,,,,,,,,,,,219.96432600000026,219.9795425000002,220.46336830000018,220.46792940000023,220.4841852000004,221.5969965000004,,,,,221.59715370000004,221.6125417000003,221.81274250000024,221.796699,220.4841852000004,,,,,,,,1,1,1.1042324000000008,None,,,,,,,,837,21,V,R,2026-02-25_11h51.07.583,VisualSearch_2526_3,,2025.2.4,2026-02-25 11h51.07.812650 +0100,
vertical.xlsx,The target is tilted.,135,85,5,10,1,0,0,0,0,0,0,0,0,0,0,0,0,0,1,135,space,18.2478215000001,None,1,1,0.575979499999903,None,space,2.0177718999998433,None,0,0,0,1,,,,,10,5,85,3,221.81274250000024,,,,,,,,,,,,,,,,,,,,,221.79754330000014,221.81274250000024,222.29677420000007,222.30187560000013,222.31721800000014,222.89674370000012,,,,,222.89694810000037,222.91264530000035,223.1123348000001,223.09641230000034,222.31721800000014,,,,,,,,1,1,0.575979499999903,None,,,,,,,,837,21,V,R,2026-02-25_11h51.07.583,VisualSearch_2526_3,,2025.2.4,2026-02-25 11h51.07.812650 +0100,
vertical.xlsx,The target is tilted.,135,86,6,10,0,1,1,1,1,1,1,1,0,0,0,0,1,7,8,135,space,18.2478215000001,None,0,1,0.7811571000002004,None,space,2.0177718999998433,None,0,0,0,1,,,,,10,6,86,5,223.1123348000001,,,,,,,,,,,,,,,,,,,,,223.09717340000043,223.1123348000001,223.59654910000017,223.6017769,223.62000320000016,224.41325340000003,,,,,224.41344460000028,224.42904420000013,224.62883310000007,224.61285750000025,223.62000320000016,,,,,,,,0,1,0.7811571000002004,None,,,,,,,,837,21,V,R,2026-02-25_11h51.07.583,VisualSearch_2526_3,,2025.2.4,2026-02-25 11h51.07.812650 +0100,
vertical.xlsx,The target is tilted.,135,87,7,10,0,0,0,0,0,0,0,0,0,0,0,0,1,1,1,135,space,18.2478215000001,None,0,1,0.46631870000010167,None,space,2.0177718999998433,None,0,0,0,1,,,,,10,7,87,7,224.62883310000007,,,,,,,,,,,,,,,,,,,,,224.61371590000044,224.62883310000007,225.11253000000033,225.1171486000003,225.13591850000012,225.61317750000035,,,,,225.61336670000037,225.62895940000044,225.82891250000011,225.8124345000001,225.13591850000012,,,,,,,,0,1,0.46631870000010167,None,,,,,,,,837,21,V,R,2026-02-25_11h51.07.583,VisualSearch_2526_3,,2025.2.4,2026-02-25 11h51.07.812650 +0100,
vertical.xlsx,The target is tilted.,135,88,0,11,1,1,1,1,0,0,0,0,0,0,0,0,0,3,4,135,space,18.2478215000001,None,1,1,0.5698083000002043,None,space,2.0177718999998433,None,0,0,0,1,,,,,11,0,88,2,225.82891250000011,,,,,,,,,,,,,,,,,,,,,225.81318190000002,225.82891250000011,226.31262500000003,226.3175768000001,226.32856410000022,226.91273960000035,,,,,226.91292050000038,226.9284643000001,227.12795700000015,227.11154690000012,226.32856410000022,,,,,,,,1,1,0.5698083000002043,None,,,,,,,,837,21,V,R,2026-02-25_11h51.07.583,VisualSearch_2526_3,,2025.2.4,2026-02-25 11h51.07.812650 +0100,
vertical.xlsx,The target is tilted.,135,89,1,11,1,1,1,1,1,1,1,1,0,0,0,0,0,7,8,135,space,18.2478215000001,None,1,1,0.547871700000087,None,space,2.0177718999998433,None,0,0,0,1,,,,,11,1,89,1,227.12795700000015,,,,,,,,,,,,,,,,,,,,,227.11181700000043,227.12795700000015,227.61164830000007,227.61452250000002,227.62786670000014,228.1794590000004,,,,,228.17967080000017,228.19515480000018,228.39520250000032,228.37909430000036,227.62786670000014,,,,,,,,1,1,0.547871700000087,None,,,,,,,,837,21,V,R,2026-02-25_11h51.07.583,VisualSearch_2526_3,,2025.2.4,2026-02-25 11h51.07.812650 +0100,
vertical.xlsx,The target is tilted.,135,90,2,11,0,1,1,1,1,1,1,1,1,1,1,1,1,11,12,135,space,18.2478215000001,None,0,1,1.648941299999933,None,space,2.0177718999998433,None,0,0,0,1,,,,,11,2,90,4,228.39520250000032,,,,,,,,,,,,,,,,,,,,,228.37991580000016,228.39520250000032,228.87907340000038,228.88415580000037,228.90125510000007,230.56229440000016,,,,,230.56245200000012,230.57801300000028,230.77768490000017,230.76224310000043,228.90125510000007,,,,,,,,0,1,1.648941299999933,None,,,,,,,,837,21,V,R,2026-02-25_11h51.07.583,VisualSearch_2526_3,,2025.2.4,2026-02-25 11h51.07.812650 +0100,
vertical.xlsx,The target is tilted.,135,91,3,11,0,1,1,1,1,1,1,1,0,0,0,0,1,7,8,135,space,18.2478215000001,None,0,1,0.9397807999998804,None,space,2.0177718999998433,None,0,0,0,1,,,,,11,3,91,5,230.77768490000017,,,,,,,,,,,,,,,,,,,,,230.76293430000032,230.77768490000017,231.26191240000026,231.2670337000004,231.28331610000032,232.22898870000017,,,,,232.22921570000017,232.24358230000007,232.44384070000024,232.4272344000001,231.28331610000032,,,,,,,,0,1,0.9397807999998804,None,,,,,,,,837,21,V,R,2026-02-25_11h51.07.583,VisualSearch_2526_3,,2025.2.4,2026-02-25 11h51.07.812650 +0100,
vertical.xlsx,The target is tilted.,135,92,4,11,0,1,1,1,0,0,0,0,0,0,0,0,1,3,4,135,space,18.2478215000001,None,0,1,0.6485659999998461,None,space,2.0177718999998433,None,0,0,0,1,,,,,11,4,92,6,232.44384070000024,,,,,,,,,,,,,,,,,,,,,232.4276206000004,232.44384070000024,232.92724950000002,232.92879200000016,232.9439367,233.5951895000003,,,,,233.59536070000013,233.61076500000036,233.81104040000037,233.7948024000002,232.9439367,,,,,,,,0,1,0.6485659999998461,None,,,,,,,,837,21,V,R,2026-02-25_11h51.07.583,VisualSearch_2526_3,,2025.2.4,2026-02-25 11h51.07.812650 +0100,
vertical.xlsx,The target is tilted.,135,93,5,11,1,1,1,1,1,1,1,1,1,1,1,1,0,11,12,135,space,18.2478215000001,None,1,1,0.6544408999998268,None,space,2.0177718999998433,None,0,0,0,1,,,,,11,5,93,0,233.81104040000037,,,,,,,,,,,,,,,,,,,,,233.79564740000023,233.81104040000037,234.2947452000003,234.29984130000003,234.31514210000023,234.97850590000007,,,,,234.97869460000038,234.9937114000004,235.1936979000002,235.1773717000001,234.31514210000023,,,,,,,,1,1,0.6544408999998268,None,,,,,,,,837,21,V,R,2026-02-25_11h51.07.583,VisualSearch_2526_3,,2025.2.4,2026-02-25 11h51.07.812650 +0100,
vertical.xlsx,The target is tilted.,135,94,6,11,1,0,0,0,0,0,0,0,0,0,0,0,0,0,1,135,space,18.2478215000001,None,1,1,0.7797229000002517,None,space,2.0177718999998433,None,0,0,0,1,,,,,11,6,94,3,235.1936979000002,,,,,,,,,,,,,,,,,,,,,235.17801580000014,235.1936979000002,235.67742880000014,235.68219930000032,235.6991008,236.49484710000024,,,,,236.49503700000014,236.5102598000003,236.71045860000004,236.6943424000001,235.6991008,,,,,,,,1,1,0.7797229000002517,None,,,,,,,,837,21,V,R,2026-02-25_11h51.07.583,VisualSearch_2526_3,,2025.2.4,2026-02-25 11h51.07.812650 +0100,
vertical.xlsx,The target is tilted.,135,95,7,11,0,0,0,0,0,0,0,0,0,0,0,0,1,1,1,135,space,18.2478215000001,None,0,1,1.1815150000002177,None,space,2.0177718999998433,None,0,0,0,1,,,,,11,7,95,7,236.71045860000004,,,,,,,,,,,,,,,,,,,,,236.6951670000003,236.71045860000004,237.19378210000013,237.19836050000004,237.21584760000042,238.4104272000004,,,,,238.41056780000008,238.4265749000001,238.6263670000003,238.61086460000024,237.21584760000042,,,,,,,,0,1,1.1815150000002177,None,,,,,,,,837,21,V,R,2026-02-25_11h51.07.583,VisualSearch_2526_3,,2025.2.4,2026-02-25 11h51.07.812650 +0100,
vertical.xlsx,The target is tilted.,135,96,0,12,0,0,0,0,0,0,0,0,0,0,0,0,1,1,1,135,space,18.2478215000001,None,0,1,0.5761059000001296,None,space,2.0177718999998433,None,0,0,0,1,,,,,12,0,96,7,238.6263670000003,,,,,,,,,,,,,,,,,,,,,238.61160970000037,238.6263670000003,239.11030420000043,239.11493830000018,239.13149490000023,239.71052370000007,,,,,239.71065080000017,239.7259600000002,239.92648310000004,239.91065060000028,239.13149490000023,,,,,,,,0,1,0.5761059000001296,None,,,,,,,,837,21,V,R,2026-02-25_11h51.07.583,VisualSearch_2526_3,,2025.2.4,2026-02-25 11h51.07.812650 +0100,
vertical.xlsx,The target is tilted.,135,97,1,12,0,1,1,1,1,1,1,1,1,1,1,1,1,11,12,135,space,18.2478215000001,None,0,1,0.9315523000000212,None,space,2.0177718999998433,None,0,0,0,1,,,,,12,1,97,4,239.92648310000004,,,,,,,,,,,,,,,,,,,,,239.91134200000033,239.92648310000004,240.41007030000037,240.4147822,240.42579790000036,241.3609845000001,,,,,241.36117120000017,241.3762197000001,241.57613630000014,241.55982770000037,240.42579790000036,,,,,,,,0,1,0.9315523000000212,None,,,,,,,,837,21,V,R,2026-02-25_11h51.07.583,VisualSearch_2526_3,,2025.2.4,2026-02-25 11h51.07.812650 +0100,
vertical.xlsx,The target is tilted.,135,98,2,12,1,1,1,1,1,1,1,1,1,1,1,1,0,11,12,135,space,18.2478215000001,None,1,1,0.5650614999999561,None,space,2.0177718999998433,None,0,0,0,1,,,,,12,2,98,0,241.57613630000014,,,,,,,,,,,,,,,,,,,,,241.56029930000022,241.57613630000014,242.05999910000037,242.06448790000013,242.08112290000008,242.6598024,,,,,242.65988610000022,242.67580650000036,242.8757453000003,242.86024940000016,242.08112290000008,,,,,,,,1,1,0.5650614999999561,None,,,,,,,,837,21,V,R,2026-02-25_11h51.07.583,VisualSearch_2526_3,,2025.2.4,2026-02-25 11h51.07.812650 +0100,
vertical.xlsx,The target is tilted.,135,99,3,12,0,1,1,1,0,0,0,0,0,0,0,0,1,3,4,135,space,18.2478215000001,None,0,1,0.5930014000000483,None,space,2.0177718999998433,None,0,0,0,1,,,,,12,3,99,6,242.8757453000003,,,,,,,,,,,,,,,,,,,,,242.8609551000004,242.8757453000003,243.35933420000038,243.36374030000025,243.38043490000018,243.9764970000001,,,,,243.9766682000004,243.99240650000002,244.19209390000015,244.1762507000003,243.38043490000018,,,,,,,,0,1,0.5930014000000483,None,,,,,,,,837,21,V,R,2026-02-25_11h51.07.583,VisualSearch_2526_3,,2025.2.4,2026-02-25 11h51.07.812650 +0100,
vertical.xlsx,The target is tilted.,135,100,4,12,0,1,1,1,1,1,1,1,0,0,0,0,1,7,8,135,space,18.2478215000001,None,0,1,0.8500887999998668,None,space,2.0177718999998433,None,0,0,0,1,,,,,12,4,100,5,244.19209390000015,,,,,,,,,,,,,,,,,,,,,244.17701830000033,244.19209390000015,244.67596440000034,244.68060860000014,244.69721530000015,245.55929190000006,,,,,245.55937540000014,245.5753592000001,245.77514610000026,245.7593353000002,244.69721530000015,,,,,,,,0,1,0.8500887999998668,None,,,,,,,,837,21,V,R,2026-02-25_11h51.07.583,VisualSearch_2526_3,,2025.2.4,2026-02-25 11h51.07.812650 +0100,
vertical.xlsx,The target is tilted.,135,101,5,12,1,1,1,1,1,1,1,1,0,0,0,0,0,7,8,135,space,18.2478215000001,None,1,1,1.1686435000001438,None,space,2.0177718999998433,None,0,0,0,1,,,,,12,5,101,1,245.77514610000026,,,,,,,,,,,,,,,,,,,,,245.7600891000002,245.77514610000026,246.2595182,246.2646722000004,246.28166470000042,247.45961220000027,,,,,247.4597834000001,247.47511030000032,247.67494080000006,247.6592029000003,246.28166470000042,,,,,,,,1,1,1.1686435000001438,None,,,,,,,,837,21,V,R,2026-02-25_11h51.07.583,VisualSearch_2526_3,,2025.2.4,2026-02-25 11h51.07.812650 +0100,
vertical.xlsx,The target is tilted.,135,102,6,12,1,0,0,0,0,0,0,0,0,0,0,0,0,0,1,135,space,18.2478215000001,None,1,1,0.8236820000001899,None,space,2.0177718999998433,None,0,0,0,1,,,,,12,6,102,3,247.67494080000006,,,,,,,,,,,,,,,,,,,,,247.65993960000014,247.67494080000006,248.1589170000002,248.16340830000036,248.18167340000036,249.00882850000016,,,,,249.00902870000027,249.02494250000018,249.2245154000002,249.20827100000042,248.18167340000036,,,,,,,,1,1,0.8236820000001899,None,,,,,,,,837,21,V,R,2026-02-25_11h51.07.583,VisualSearch_2526_3,,2025.2.4,2026-02-25 11h51.07.812650 +0100,
vertical.xlsx,The target is tilted.,135,103,7,12,1,1,1,1,0,0,0,0,0,0,0,0,0,3,4,135,space,18.2478215000001,None,1,1,0.6123124999999163,None,space,2.0177718999998433,None,0,0,0,1,,,,,12,7,103,2,249.2245154000002,,,,,,,,,,,,,,,,,,,,,249.2085221000002,249.2245154000002,249.70834830000013,249.7108814000003,249.72464440000022,250.3425030000003,,,,,250.34269480000012,250.35783730000003,250.5580756000004,250.54177100000015,249.72464440000022,,,,,,,,1,1,0.6123124999999163,None,,,,,,,,837,21,V,R,2026-02-25_11h51.07.583,VisualSearch_2526_3,,2025.2.4,2026-02-25 11h51.07.812650 +0100,
vertical.xlsx,The target is tilted.,135,104,0,13,0,0,0,0,0,0,0,0,0,0,0,0,1,1,1,135,space,18.2478215000001,None,0,1,0.5153034999998454,None,space,2.0177718999998433,None,0,0,0,1,,,,,13,0,104,7,250.5580756000004,,,,,,,,,,,,,,,,,,,,,250.5425124000003,250.5580756000004,251.04169450000018,251.0462961000003,251.0627757000002,251.59240830000044,,,,,251.59258020000016,251.60775570000033,251.8078870000004,251.7921056,251.0627757000002,,,,,,,,0,1,0.5153034999998454,None,,,,,,,,837,21,V,R,2026-02-25_11h51.07.583,VisualSearch_2526_3,,2025.2.4,2026-02-25 11h51.07.812650 +0100,
vertical.xlsx,The target is tilted.,135,105,1,13,0,1,1,1,1,1,1,1,1,1,1,1,1,11,12,135,space,18.2478215000001,None,0,1,0.9694562999998197,None,space,2.0177718999998433,None,0,0,0,1,,,,,13,1,105,4,251.8078870000004,,,,,,,,,,,,,,,,,,,,,251.7928278000004,251.8078870000004,252.29159010000012,252.2961962000004,252.3118254000001,253.29178790000014,,,,,253.29195600000003,253.30757250000033,253.50719780000009,253.49140590000025,252.3118254000001,,,,,,,,0,1,0.9694562999998197,None,,,,,,,,837,21,V,R,2026-02-25_11h51.07.583,VisualSearch_2526_3,,2025.2.4,2026-02-25 11h51.07.812650 +0100,
vertical.xlsx,The target is tilted.,135,106,2,13,1,1,1,1,0,0,0,0,0,0,0,0,0,3,4,135,space,18.2478215000001,None,1,1,0.4758471999998619,None,space,2.0177718999998433,None,0,0,0,1,,,,,13,2,106,2,253.50719780000009,,,,,,,,,,,,,,,,,,,,,253.49217260000023,253.50719780000009,253.9912674000002,253.99589480000031,254.01220900000044,254.49139400000013,,,,,254.49156530000027,254.50732010000002,254.70695460000024,254.6913109000002,254.01220900000044,,,,,,,,1,1,0.4758471999998619,None,,,,,,,,837,21,V,R,2026-02-25_11h51.07.583,VisualSearch_2526_3,,2025.2.4,2026-02-25 11h51.07.812650 +0100,
vertical.xlsx,The target is tilted.,135,107,3,13,0,1,1,1,1,1,1,1,0,0,0,0,1,7,8,135,space,18.2478215000001,None,0,1,0.6153518000000986,None,space,2.0177718999998433,None,0,0,0,1,,,,,13,3,107,5,254.70695460000024,,,,,,,,,,,,,,,,,,,,,254.6920301,254.70695460000024,255.1912454000003,255.19580670000005,255.21265340000036,255.84103520000008,,,,,255.84120550000034,255.85665550000022,256.05678320000015,256.0401417000003,255.21265340000036,,,,,,,,0,1,0.6153518000000986,None,,,,,,,,837,21,V,R,2026-02-25_11h51.07.583,VisualSearch_2526_3,,2025.2.4,2026-02-25 11h51.07.812650 +0100,
vertical.xlsx,The target is tilted.,135,108,4,13,1,0,0,0,0,0,0,0,0,0,0,0,0,0,1,135,space,18.2478215000001,None,1,1,0.6129105999998501,None,space,2.0177718999998433,None,0,0,0,1,,,,,13,4,108,3,256.05678320000015,,,,,,,,,,,,,,,,,,,,,256.040438,256.05678320000015,256.54109050000034,256.5456581000003,256.56153340000037,257.1914243000001,,,,,257.1916162000002,257.20683710000003,257.4068317000001,257.39074800000026,256.56153340000037,,,,,,,,1,1,0.6129105999998501,None,,,,,,,,837,21,V,R,2026-02-25_11h51.07.583,VisualSearch_2526_3,,2025.2.4,2026-02-25 11h51.07.812650 +0100,
vertical.xlsx,The target is tilted.,135,109,5,13,1,1,1,1,1,1,1,1,1,1,1,1,0,11,12,135,space,18.2478215000001,None,1,1,0.5835907000000589,None,space,2.0177718999998433,None,0,0,0,1,,,,,13,5,109,0,257.4068317000001,,,,,,,,,,,,,,,,,,,,,257.3914741000003,257.4068317000001,257.89093690000027,257.8960443000001,257.9134573000001,258.5078980000003,,,,,258.5080853000004,258.5230697000002,258.72338260000015,258.7077640000002,257.9134573000001,,,,,,,,1,1,0.5835907000000589,None,,,,,,,,837,21,V,R,2026-02-25_11h51.07.583,VisualSearch_2526_3,,2025.2.4,2026-02-25 11h51.07.812650 +0100,
vertical.xlsx,The target is tilted.,135,110,6,13,1,1,1,1,1,1,1,1,0,0,0,0,0,7,8,135,space,18.2478215000001,None,0,0,0.6363145000000259,None,space,2.0177718999998433,None,0,0,0,1,,,,,13,6,110,1,258.72338260000015,,,,,,,,,,,,,,,,,,,,,258.7085655000001,258.72338260000015,259.2072159000004,259.2118496000003,259.2294974000001,259.8737999,,,,,259.87397150000015,259.8897207,260.0899593000004,260.0737836000003,259.2294974000001,,,,,,,,0,0,0.6363145000000259,None,,,,,,,,837,21,V,R,2026-02-25_11h51.07.583,VisualSearch_2526_3,,2025.2.4,2026-02-25 11h51.07.812650 +0100,
vertical.xlsx,The target is tilted.,135,111,7,13,0,1,1,1,0,0,0,0,0,0,0,0,1,3,4,135,space,18.2478215000001,None,0,1,0.6644959000000199,None,space,2.0177718999998433,None,0,0,0,1,,,,,13,7,111,6,260.0899593000004,,,,,,,,,,,,,,,,,,,,,260.0746288,260.0899593000004,260.57362230000035,260.5787038000003,260.59558330000027,261.2735101000003,,,,,261.2736689000003,261.2894268,261.48959330000025,261.4732852000002,260.59558330000027,,,,,,,,0,1,0.6644959000000199,None,,,,,,,,837,21,V,R,2026-02-25_11h51.07.583,VisualSearch_2526_3,,2025.2.4,2026-02-25 11h51.07.812650 +0100,
vertical.xlsx,The target is tilted.,135,112,0,14,0,0,0,0,0,0,0,0,0,0,0,0,1,1,1,135,space,18.2478215000001,None,0,1,0.46039569999993546,None,space,2.0177718999998433,None,0,0,0,1,,,,,14,0,112,7,261.48959330000025,,,,,,,,,,,,,,,,,,,,,261.4740079000003,261.48959330000025,261.9733032000004,261.97844490000034,261.99458330000016,262.4569508000004,,,,,262.4571427000001,262.4725982,262.67242720000013,262.6567793000004,261.99458330000016,,,,,,,,0,1,0.46039569999993546,None,,,,,,,,837,21,V,R,2026-02-25_11h51.07.583,VisualSearch_2526_3,,2025.2.4,2026-02-25 11h51.07.812650 +0100,
vertical.xlsx,The target is tilted.,135,113,1,14,1,1,1,1,0,0,0,0,0,0,0,0,0,3,4,135,space,18.2478215000001,None,1,1,0.4338190999997096,None,space,2.0177718999998433,None,0,0,0,1,,,,,14,1,113,2,262.67242720000013,,,,,,,,,,,,,,,,,,,,,262.6576954000002,262.67242720000013,263.1567301,263.1618804000004,263.1779838000002,263.62319190000017,,,,,263.6233795000003,263.63879190000034,263.83889150000005,263.8226673000004,263.1779838000002,,,,,,,,1,1,0.4338190999997096,None,,,,,,,,837,21,V,R,2026-02-25_11h51.07.583,VisualSearch_2526_3,,2025.2.4,2026-02-25 11h51.07.812650 +0100,
vertical.xlsx,The target is tilted.,135,114,2,14,0,1,1,1,1,1,1,1,0,0,0,0,1,7,8,135,space,18.2478215000001,None,0,1,0.5740227999999661,None,space,2.0177718999998433,None,0,0,0,1,,,,,14,2,114,5,263.83889150000005,,,,,,,,,,,,,,,,,,,,,263.8235241000002,263.83889150000005,264.3227498000001,264.3278793000004,264.3455307000004,264.9231371000001,,,,,264.92332780000015,264.9391746000001,265.1386371000003,265.12286900000026,264.3455307000004,,,,,,,,0,1,0.5740227999999661,None,,,,,,,,837,21,V,R,2026-02-25_11h51.07.583,VisualSearch_2526_3,,2025.2.4,2026-02-25 11h51.07.812650 +0100,
vertical.xlsx,The target is tilted.,135,115,3,14,0,1,1,1,0,0,0,0,0,0,0,0,1,3,4,135,space,18.2478215000001,None,0,1,0.6257918000001155,None,space,2.0177718999998433,None,0,0,0,1,,,,,14,3,115,6,265.1386371000003,,,,,,,,,,,,,,,,,,,,,265.12358950000043,265.1386371000003,265.6223520000003,265.62779100000034,265.64226670000016,266.27296220000017,,,,,266.27315180000005,266.2887713,266.4886603,266.4723888000003,265.64226670000016,,,,,,,,0,1,0.6257918000001155,None,,,,,,,,837,21,V,R,2026-02-25_11h51.07.583,VisualSearch_2526_3,,2025.2.4,2026-02-25 11h51.07.812650 +0100,
vertical.xlsx,The target is tilted.,135,116,4,14,1,1,1,1,1,1,1,1,1,1,1,1,0,11,12,135,space,18.2478215000001,None,1,1,0.714125999999851,None,space,2.0177718999998433,None,0,0,0,1,,,,,14,4,116,0,266.4886603,,,,,,,,,,,,,,,,,,,,,266.4731192000004,266.4886603,266.97247160000006,266.9777312000001,266.9945200000002,267.7229588,,,,,267.72316020000017,267.7384751000004,267.93854650000003,267.9223235000004,266.9945200000002,,,,,,,,1,1,0.714125999999851,None,,,,,,,,837,21,V,R,2026-02-25_11h51.07.583,VisualSearch_2526_3,,2025.2.4,2026-02-25 11h51.07.812650 +0100,
vertical.xlsx,The target is tilted.,135,117,5,14,1,0,0,0,0,0,0,0,0,0,0,0,0,0,1,135,space,18.2478215000001,None,1,1,0.6113078000003043,None,space,2.0177718999998433,None,0,0,0,1,,,,,14,5,117,3,267.93854650000003,,,,,,,,,,,,,,,,,,,,,267.92307230000006,267.93854650000003,268.42247050000014,268.4269677000002,268.44430760000023,269.07207940000035,,,,,269.0721547000003,269.0881102000003,269.2879068000002,269.2720339000002,268.44430760000023,,,,,,,,1,1,0.6113078000003043,None,,,,,,,,837,21,V,R,2026-02-25_11h51.07.583,VisualSearch_2526_3,,2025.2.4,2026-02-25 11h51.07.812650 +0100,
vertical.xlsx,The target is tilted.,135,118,6,14,0,1,1,1,1,1,1,1,1,1,1,1,1,11,12,135,space,18.2478215000001,None,0,1,1.212894100000085,None,space,2.0177718999998433,None,0,0,0,1,,,,,14,6,118,4,269.2879068000002,,,,,,,,,,,,,,,,,,,,,269.27278090000027,269.2879068000002,269.77233970000043,269.7772823,269.79395030000023,271.0227890000001,,,,,271.02296030000025,271.03788510000004,271.2377599000001,271.22175940000034,269.79395030000023,,,,,,,,0,1,1.212894100000085,None,,,,,,,,837,21,V,R,2026-02-25_11h51.07.583,VisualSearch_2526_3,,2025.2.4,2026-02-25 11h51.07.812650 +0100,
vertical.xlsx,The target is tilted.,135,119,7,14,1,1,1,1,1,1,1,1,0,0,0,0,0,7,8,135,space,18.2478215000001,None,1,1,0.8056341999999859,None,space,2.0177718999998433,None,0,0,0,1,,,,,14,7,119,1,271.2377599000001,,,,,,,,,,,,,,,,,,,,,271.22248690000015,271.2377599000001,271.72139110000035,271.7259755,271.7425626000004,272.5555236,,,,,272.5557133000002,272.57092760000023,272.7860968,272.75482260000035,271.7425626000004,,,,,,,,1,1,0.8056341999999859,None,,,,,,,,837,21,V,R,2026-02-25_11h51.07.583,VisualSearch_2526_3,,2025.2.4,2026-02-25 11h51.07.812650 +0100,
vertical.xlsx,The target is tilted.,135,0,0,0,,,,,,,,,,,,,,,,,space,18.2478215000001,None,,,,,space,2.0177718999998433,None,0,0,0,1,,,,,,,,,,,,,,,,,,,,,,,,,,,,,,,,,,,,,,,,,,,,,,,,,,,,,,,,,,,,,,,837,21,V,R,2026-02-25_11h51.07.583,VisualSearch_2526_3,,2025.2.4,2026-02-25 11h51.07.812650 +0100,
tilted.xlsx,The target is tilted.,117,0,0,0,0,1,1,1,1,1,1,1,0,0,0,0,1,7,8,117,space,4.626321299999745,None,1,0,1.6194926000002852,None,,,,0,1,1,0,0,0,0,5,,,,,277.4496558000001,,,,,,,,,,,,,,,272.7860968,272.7860968,272.7860968,space,4.626321299999745,None,277.4456731,277.4496558000001,277.93691400000034,277.9415826000004,277.9592776000004,279.58756120000044,1,0,1.6194926000002852,None,279.5877323000004,279.6030817000001,279.8028424000004,279.7871044000003,,,,,,,,,,,,,,,,,,,,837,21,V,R,2026-02-25_11h51.07.583,VisualSearch_2526_3,,2025.2.4,2026-02-25 11h51.07.812650 +0100,
tilted.xlsx,The target is tilted.,117,1,1,0,0,1,1,1,1,1,1,1,1,1,1,1,1,11,12,117,space,4.626321299999745,None,1,0,1.6197967999996763,None,,,,0,1,1,0,0,1,1,4,,,,,279.8028424000004,,,,,,,,,,,,,,,,,,,,,279.78778470000043,279.8028424000004,280.2869867000004,280.29261750000023,280.31007150000005,281.9371226000003,1,0,1.6197967999996763,None,281.9372857000003,281.95269110000027,282.1526563000002,282.1365228000004,280.31007150000005,,,,,,,,,,,,,,,,,,,837,21,V,R,2026-02-25_11h51.07.583,VisualSearch_2526_3,,2025.2.4,2026-02-25 11h51.07.812650 +0100,
tilted.xlsx,The target is tilted.,117,2,2,0,1,1,1,1,0,0,0,0,0,0,0,0,0,3,4,117,space,4.626321299999745,None,1,1,1.3237950000002456,None,,,,0,1,1,0,0,2,2,2,,,,,282.1526563000002,,,,,,,,,,,,,,,,,,,,,282.13714450000043,282.1526563000002,282.6363330000004,282.6411807000004,282.6549206000004,283.9863833000004,1,1,1.3237950000002456,None,283.9865337000001,284.0020059000003,284.20205060000035,284.1861740000004,282.6549206000004,,,,,,,,,,,,,,,,,,,837,21,V,R,2026-02-25_11h51.07.583,VisualSearch_2526_3,,2025.2.4,2026-02-25 11h51.07.812650 +0100,
tilted.xlsx,The target is tilted.,117,3,3,0,0,0,0,0,0,0,0,0,0,0,0,0,1,1,1,117,space,4.626321299999745,None,0,1,1.3200247999998282,None,,,,0,1,1,0,0,3,3,7,,,,,284.20205060000035,,,,,,,,,,,,,,,,,,,,,284.1867774000002,284.20205060000035,284.6862305000004,284.6917314000002,284.706674,286.0366320000003,0,1,1.3200247999998282,None,286.0368190000004,286.0519647000001,286.2520208000001,286.23591450000004,284.706674,,,,,,,,,,,,,,,,,,,837,21,V,R,2026-02-25_11h51.07.583,VisualSearch_2526_3,,2025.2.4,2026-02-25 11h51.07.812650 +0100,
tilted.xlsx,The target is tilted.,117,4,4,0,1,1,1,1,1,1,1,1,0,0,0,0,0,7,8,117,space,4.626321299999745,None,0,0,0.16946640000014668,None,,,,0,1,1,0,0,4,4,1,,,,,286.2520208000001,,,,,,,,,,,,,,,,,,,,,286.2366121,286.2520208000001,286.73590140000033,286.7414052000004,286.7569725000003,286.9359693000001,0,0,0.16946640000014668,None,286.93610560000025,286.95176960000026,287.1518391000004,287.1357114000002,286.7569725000003,,,,,,,,,,,,,,,,,,,837,21,V,R,2026-02-25_11h51.07.583,VisualSearch_2526_3,,2025.2.4,2026-02-25 11h51.07.812650 +0100,
tilted.xlsx,The target is tilted.,117,5,5,0,1,1,1,1,1,1,1,1,1,1,1,1,0,11,12,117,space,4.626321299999745,None,1,1,2.8809274999998706,None,,,,0,1,1,0,0,5,5,0,,,,,287.1518391000004,,,,,,,,,,,,,,,,,,,,,287.1364222000002,287.1518391000004,287.6354209000001,287.64109340000005,287.65648420000025,290.5522188,1,1,2.8809274999998706,None,290.55238990000043,290.5679189000002,290.7677455000003,290.7522481000001,287.65648420000025,,,,,,,,,,,,,,,,,,,837,21,V,R,2026-02-25_11h51.07.583,VisualSearch_2526_3,,2025.2.4,2026-02-25 11h51.07.812650 +0100,
tilted.xlsx,The target is tilted.,117,6,6,0,0,1,1,1,0,0,0,0,0,0,0,0,1,3,4,117,space,4.626321299999745,None,0,1,1.7901073999996697,None,,,,0,1,1,0,0,6,6,6,,,,,290.7677455000003,,,,,,,,,,,,,,,,,,,,,290.7529069000002,290.7677455000003,291.25196810000034,291.2574681000001,291.2741208000002,293.06827220000014,0,1,1.7901073999996697,None,293.0684411000002,293.0841714000003,293.28426750000017,293.26815910000005,291.2741208000002,,,,,,,,,,,,,,,,,,,837,21,V,R,2026-02-25_11h51.07.583,VisualSearch_2526_3,,2025.2.4,2026-02-25 11h51.07.812650 +0100,
tilted.xlsx,The target is tilted.,117,7,7,0,1,0,0,0,0,0,0,0,0,0,0,0,0,0,1,117,space,4.626321299999745,None,1,1,0.7756626000000324,None,,,,0,1,1,0,0,7,7,3,,,,,293.28426750000017,,,,,,,,,,,,,,,,,,,,,293.2688231000002,293.28426750000017,293.7680541000004,293.77373650000027,293.78946240000005,294.56849250000005,1,1,0.7756626000000324,None,294.5686622000003,294.5840005,294.78403730000036,294.76815160000024,293.78946240000005,,,,,,,,,,,,,,,,,,,837,21,V,R,2026-02-25_11h51.07.583,VisualSearch_2526_3,,2025.2.4,2026-02-25 11h51.07.812650 +0100,
tilted.xlsx,The target is tilted.,117,0,0,0,0,1,1,1,0,0,0,0,0,0,0,0,1,3,4,117,space,4.626321299999745,None,0,1,0.9200048999996397,None,space,2.434048900000107,None,0,1,1,0,,,,,0,0,0,6,297.2720736000001,,,,,,,,,,,,,,,,,,,,,297.26821770000015,297.2720736000001,297.7502294000001,297.7567863000004,297.7730246000001,298.7009527,,,,,298.7011308000001,298.71660020000036,298.9166769000003,298.9004387,,294.7749539000001,294.78403730000036,294.78403730000036,297.23436230000016,space,2.434048900000107,None,0,1,0.9200048999996397,None,,,,,,,,837,21,V,R,2026-02-25_11h51.07.583,VisualSearch_2526_3,,2025.2.4,2026-02-25 11h51.07.812650 +0100,
tilted.xlsx,The target is tilted.,117,1,1,0,1,1,1,1,1,1,1,1,0,0,0,0,0,7,8,117,space,4.626321299999745,None,1,1,0.6635307000001376,None,space,2.434048900000107,None,0,1,1,0,,,,,0,1,1,1,298.9166769000003,,,,,,,,,,,,,,,,,,,,,298.9011837000003,298.9166769000003,299.4007045000003,299.40718800000013,299.4241100000004,300.10054000000036,,,,,300.1007558000001,300.1160691,300.3164571000002,300.30021270000043,299.4241100000004,,,,,,,,1,1,0.6635307000001376,None,,,,,,,,837,21,V,R,2026-02-25_11h51.07.583,VisualSearch_2526_3,,2025.2.4,2026-02-25 11h51.07.812650 +0100,
tilted.xlsx,The target is tilted.,117,2,2,0,1,0,0,0,0,0,0,0,0,0,0,0,0,0,1,117,space,4.626321299999745,None,1,1,0.6332633000001806,None,space,2.434048900000107,None,0,1,1,0,,,,,0,2,2,3,300.3164571000002,,,,,,,,,,,,,,,,,,,,,300.30098380000027,300.3164571000002,300.8001814000004,300.8057195000001,300.82107060000044,301.467353,,,,,301.4675414000003,301.4827639,301.6827411000004,301.6668595000001,300.82107060000044,,,,,,,,1,1,0.6332633000001806,None,,,,,,,,837,21,V,R,2026-02-25_11h51.07.583,VisualSearch_2526_3,,2025.2.4,2026-02-25 11h51.07.812650 +0100,
tilted.xlsx,The target is tilted.,117,3,3,0,0,0,0,0,0,0,0,0,0,0,0,0,1,1,1,117,space,4.626321299999745,None,0,1,0.5808547999999973,None,space,2.434048900000107,None,0,1,1,0,,,,,0,3,3,7,301.6827411000004,,,,,,,,,,,,,,,,,,,,,301.6676811000002,301.6827411000004,302.16594980000036,302.1684233000001,302.18198390000043,302.7669122000002,,,,,302.7671276000001,302.78233960000034,302.98225490000004,302.9667851000004,302.18198390000043,,,,,,,,0,1,0.5808547999999973,None,,,,,,,,837,21,V,R,2026-02-25_11h51.07.583,VisualSearch_2526_3,,2025.2.4,2026-02-25 11h51.07.812650 +0100,
tilted.xlsx,The target is tilted.,117,4,4,0,0,1,1,1,1,1,1,1,1,1,1,1,1,11,12,117,space,4.626321299999745,None,1,0,4.030479799999739,None,space,2.434048900000107,None,0,1,1,0,,,,,0,4,4,4,302.98225490000004,,,,,,,,,,,,,,,,,,,,,302.9674922000004,302.98225490000004,303.4666722000002,303.47308360000034,303.49045890000025,307.5327881000003,,,,,307.5329588000004,307.54842320000034,307.7479946000003,307.73185730000023,303.49045890000025,,,,,,,,1,0,4.030479799999739,None,,,,,,,,837,21,V,R,2026-02-25_11h51.07.583,VisualSearch_2526_3,,2025.2.4,2026-02-25 11h51.07.812650 +0100,
tilted.xlsx,The target is tilted.,117,5,5,0,0,1,1,1,1,1,1,1,0,0,0,0,1,7,8,117,space,4.626321299999745,None,0,1,2.5410735999998906,None,space,2.434048900000107,None,0,1,1,0,,,,,0,5,5,5,307.7479946000003,,,,,,,,,,,,,,,,,,,,,307.73248190000004,307.7479946000003,308.2324553000003,308.23803050000015,308.2533956000002,310.7985176000002,,,,,310.7986992000001,310.81421590000036,311.0145400000001,310.9982653000002,308.2533956000002,,,,,,,,0,1,2.5410735999998906,None,,,,,,,,837,21,V,R,2026-02-25_11h51.07.583,VisualSearch_2526_3,,2025.2.4,2026-02-25 11h51.07.812650 +0100,
tilted.xlsx,The target is tilted.,117,6,6,0,1,1,1,1,0,0,0,0,0,0,0,0,0,3,4,117,space,4.626321299999745,None,1,1,0.9260810000000674,None,space,2.434048900000107,None,0,1,1,0,,,,,0,6,6,2,311.0145400000001,,,,,,,,,,,,,,,,,,,,,310.9987994000003,311.0145400000001,311.4982154000004,311.50119740000036,311.51386200000024,312.4487094000001,,,,,312.44888180000044,312.4643474000004,312.66415670000015,312.6477431000003,311.51386200000024,,,,,,,,1,1,0.9260810000000674,None,,,,,,,,837,21,V,R,2026-02-25_11h51.07.583,VisualSearch_2526_3,,2025.2.4,2026-02-25 11h51.07.812650 +0100,
tilted.xlsx,The target is tilted.,117,7,7,0,1,1,1,1,1,1,1,1,1,1,1,1,0,11,12,117,space,4.626321299999745,None,0,0,2.8144775000000664,None,space,2.434048900000107,None,0,1,1,0,,,,,0,7,7,0,312.66415670000015,,,,,,,,,,,,,,,,,,,,,312.64845190000005,312.66415670000015,313.1478897000002,313.1525421000001,313.1660880000004,315.9979951,,,,,315.99815560000025,316.0136754,316.21340580000015,316.1975904000001,313.1660880000004,,,,,,,,0,0,2.8144775000000664,None,,,,,,,,837,21,V,R,2026-02-25_11h51.07.583,VisualSearch_2526_3,,2025.2.4,2026-02-25 11h51.07.812650 +0100,
tilted.xlsx,The target is tilted.,117,8,0,1,0,1,1,1,0,0,0,0,0,0,0,0,1,3,4,117,space,4.626321299999745,None,0,1,0.7672311999999692,None,space,2.434048900000107,None,0,1,1,0,,,,,1,0,8,6,316.21340580000015,,,,,,,,,,,,,,,,,,,,,316.1983402000001,316.21340580000015,316.69759620000013,316.7031742000004,316.7202978,317.4975340000001,,,,,317.4976512000003,317.5132687,317.7135027000004,317.69734930000004,316.7202978,,,,,,,,0,1,0.7672311999999692,None,,,,,,,,837,21,V,R,2026-02-25_11h51.07.583,VisualSearch_2526_3,,2025.2.4,2026-02-25 11h51.07.812650 +0100,
tilted.xlsx,The target is tilted.,117,9,1,1,1,1,1,1,1,1,1,1,1,1,1,1,0,11,12,117,space,4.626321299999745,None,1,1,2.8082501000003504,None,space,2.434048900000107,None,0,1,1,0,,,,,1,1,9,0,317.7135027000004,,,,,,,,,,,,,,,,,,,,,317.6981330000003,317.7135027000004,318.19657970000026,318.19846370000005,318.2132136,321.0306536000003,,,,,321.0308277000004,321.0462684000004,321.2459495000003,321.23041030000013,318.2132136,,,,,,,,1,1,2.8082501000003504,None,,,,,,,,837,21,V,R,2026-02-25_11h51.07.583,VisualSearch_2526_3,,2025.2.4,2026-02-25 11h51.07.812650 +0100,
tilted.xlsx,The target is tilted.,117,10,2,1,0,1,1,1,1,1,1,1,1,1,1,1,1,11,12,117,space,4.626321299999745,None,0,1,3.6429691000003004,None,space,2.434048900000107,None,0,1,1,0,,,,,1,2,10,4,321.2459495000003,,,,,,,,,,,,,,,,,,,,,321.2311248000001,321.2459495000003,321.7300782000002,321.73550590000013,321.75076100000024,325.3964692000004,,,,,325.3966241000003,325.41186960000005,325.6117118000002,325.5959191000002,321.75076100000024,,,,,,,,0,1,3.6429691000003004,None,,,,,,,,837,21,V,R,2026-02-25_11h51.07.583,VisualSearch_2526_3,,2025.2.4,2026-02-25 11h51.07.812650 +0100,
tilted.xlsx,The target is tilted.,117,11,3,1,0,0,0,0,0,0,0,0,0,0,0,0,1,1,1,117,space,4.626321299999745,None,0,1,0.725389599999744,None,space,2.434048900000107,None,0,1,1,0,,,,,1,3,11,7,325.6117118000002,,,,,,,,,,,,,,,,,,,,,325.5966918000004,325.6117118000002,326.0958152000003,326.1019473000001,326.1185779000002,326.84641690000035,,,,,326.8466021000004,326.86173210000015,327.06157900000017,327.04574730000013,326.1185779000002,,,,,,,,0,1,0.725389599999744,None,,,,,,,,837,21,V,R,2026-02-25_11h51.07.583,VisualSearch_2526_3,,2025.2.4,2026-02-25 11h51.07.812650 +0100,
tilted.xlsx,The target is tilted.,117,12,4,1,0,1,1,1,1,1,1,1,0,0,0,0,1,7,8,117,space,4.626321299999745,None,0,1,3.922738699999627,None,space,2.434048900000107,None,0,1,1,0,,,,,1,4,12,5,327.06157900000017,,,,,,,,,,,,,,,,,,,,,327.0465279,327.06157900000017,327.5459313000001,327.5521944000002,327.5682737000002,331.4951434000004,,,,,331.4953029000003,331.5110958,331.71074590000035,331.69516710000016,327.5682737000002,,,,,,,,0,1,3.922738699999627,None,,,,,,,,837,21,V,R,2026-02-25_11h51.07.583,VisualSearch_2526_3,,2025.2.4,2026-02-25 11h51.07.812650 +0100,
tilted.xlsx,The target is tilted.,117,13,5,1,1,1,1,1,1,1,1,1,0,0,0,0,0,7,8,117,space,4.626321299999745,None,0,0,1.818185099999937,None,space,2.434048900000107,None,0,1,1,0,,,,,1,5,13,1,331.71074590000035,,,,,,,,,,,,,,,,,,,,,331.69582830000036,331.71074590000035,332.1947064000001,332.1994829,332.2143836,334.0450022,,,,,334.04517780000015,334.06066710000005,334.2605851000003,334.2447524000004,332.2143836,,,,,,,,0,0,1.818185099999937,None,,,,,,,,837,21,V,R,2026-02-25_11h51.07.583,VisualSearch_2526_3,,2025.2.4,2026-02-25 11h51.07.812650 +0100,
tilted.xlsx,The target is tilted.,117,14,6,1,1,0,0,0,0,0,0,0,0,0,0,0,0,0,1,117,space,4.626321299999745,None,1,1,0.7640633999999409,None,space,2.434048900000107,None,0,1,1,0,,,,,1,6,14,3,334.2605851000003,,,,,,,,,,,,,,,,,,,,,334.2453869000001,334.2605851000003,334.7444400000004,334.7500079000001,334.7651286,335.5447664000003,,,,,335.5449394000002,335.56041140000025,335.76053790000014,335.7440110000002,334.7651286,,,,,,,,1,1,0.7640633999999409,None,,,,,,,,837,21,V,R,2026-02-25_11h51.07.583,VisualSearch_2526_3,,2025.2.4,2026-02-25 11h51.07.812650 +0100,
tilted.xlsx,The target is tilted.,117,15,7,1,1,1,1,1,0,0,0,0,0,0,0,0,0,3,4,117,space,4.626321299999745,None,1,1,0.820231899999726,None,space,2.434048900000107,None,0,1,1,0,,,,,1,7,15,2,335.76053790000014,,,,,,,,,,,,,,,,,,,,,335.74478850000014,335.76053790000014,336.24427400000013,336.2499656,336.26527950000036,337.0944042000001,,,,,337.09456230000023,337.1101659000001,337.3102672,337.2938955000004,336.26527950000036,,,,,,,,1,1,0.820231899999726,None,,,,,,,,837,21,V,R,2026-02-25_11h51.07.583,VisualSearch_2526_3,,2025.2.4,2026-02-25 11h51.07.812650 +0100,
tilted.xlsx,The target is tilted.,117,16,0,2,0,1,1,1,1,1,1,1,1,1,1,1,1,11,12,117,space,4.626321299999745,None,0,1,1.7610673000003771,None,space,2.434048900000107,None,0,1,1,0,,,,,2,0,16,4,337.3102672,,,,,,,,,,,,,,,,,,,,,337.2945768000004,337.3102672,337.7928793000001,337.79462200000034,337.8100832,339.5775064000004,,,,,339.57768350000015,339.5929678000002,339.7926672000003,339.7765015,337.8100832,,,,,,,,0,1,1.7610673000003771,None,,,,,,,,837,21,V,R,2026-02-25_11h51.07.583,VisualSearch_2526_3,,2025.2.4,2026-02-25 11h51.07.812650 +0100,
tilted.xlsx,The target is tilted.,117,17,1,2,1,1,1,1,0,0,0,0,0,0,0,0,0,3,4,117,space,4.626321299999745,None,0,0,0.8155894000001354,None,space,2.434048900000107,None,0,1,1,0,,,,,2,1,17,2,339.7926672000003,,,,,,,,,,,,,,,,,,,,,339.7771826000003,339.7926672000003,340.2769685000003,340.28247390000024,340.2968458,341.1273747,,,,,341.1275654000001,341.1428860000001,341.3427437,341.32671180000034,340.2968458,,,,,,,,0,0,0.8155894000001354,None,,,,,,,,837,21,V,R,2026-02-25_11h51.07.583,VisualSearch_2526_3,,2025.2.4,2026-02-25 11h51.07.812650 +0100,
tilted.xlsx,The target is tilted.,117,18,2,2,1,1,1,1,1,1,1,1,0,0,0,0,0,7,8,117,space,4.626321299999745,None,1,1,0.8724911999997857,None,space,2.434048900000107,None,0,1,1,0,,,,,2,2,18,1,341.3427437,,,,,,,,,,,,,,,,,,,,,341.3275020000001,341.3427437,341.8266606000002,341.8322819,341.84976050000023,342.7266916000003,,,,,342.72686580000027,342.74252540000043,342.9424304000004,342.926594,341.84976050000023,,,,,,,,1,1,0.8724911999997857,None,,,,,,,,837,21,V,R,2026-02-25_11h51.07.583,VisualSearch_2526_3,,2025.2.4,2026-02-25 11h51.07.812650 +0100,
tilted.xlsx,The target is tilted.,117,19,3,2,0,0,0,0,0,0,0,0,0,0,0,0,1,1,1,117,space,4.626321299999745,None,0,1,0.615066900000329,None,space,2.434048900000107,None,0,1,1,0,,,,,2,3,19,7,342.9424304000004,,,,,,,,,,,,,,,,,,,,,342.9273440000002,342.9424304000004,343.4264462000001,343.4319568000001,343.4469105000003,344.07582440000033,,,,,344.0759145000002,344.09179770000037,,344.27641140000014,343.4469105000003,,,,,,,,0,1,0.615066900000329,None,,,,,,,,837,21,V,R,2026-02-25_11h51.07.583,VisualSearch_2526_3,,2025.2.4,2026-02-25 11h51.07.812650 +0100,
tilted.xlsx,The target is tilted.,117,20,4,2,0,1,1,1,1,1,1,1,0,0,0,0,1,7,8,117,space,4.626321299999745,None,0,1,1.4356563000001188,None,space,2.434048900000107,None,0,1,1,0,,,,,2,4,20,5,344.29206010000007,,,,,,,,,,,,,,,,,,,,,344.27720450000015,344.29206010000007,344.77627570000004,344.7819098,344.7963026000002,346.24304840000013,,,,,346.24324970000043,346.2586643000004,346.4587975000004,346.4423942000003,344.7963026000002,,,,,,,,0,1,1.4356563000001188,None,,,,,,,,837,21,V,R,2026-02-25_11h51.07.583,VisualSearch_2526_3,,2025.2.4,2026-02-25 11h51.07.812650 +0100,
tilted.xlsx,The target is tilted.,117,21,5,2,1,1,1,1,1,1,1,1,1,1,1,1,0,11,12,117,space,4.626321299999745,None,1,1,0.8923623000000589,None,space,2.434048900000107,None,0,1,1,0,,,,,2,5,21,0,346.4587975000004,,,,,,,,,,,,,,,,,,,,,346.4431588000002,346.4587975000004,346.94236180000007,346.9478756000003,346.96373010000025,347.8593301000001,,,,,347.8594998000003,347.87505710000005,348.0750817000003,348.05932410000014,346.96373010000025,,,,,,,,1,1,0.8923623000000589,None,,,,,,,,837,21,V,R,2026-02-25_11h51.07.583,VisualSearch_2526_3,,2025.2.4,2026-02-25 11h51.07.812650 +0100,
tilted.xlsx,The target is tilted.,117,22,6,2,1,0,0,0,0,0,0,0,0,0,0,0,0,0,1,117,space,4.626321299999745,None,1,1,0.6651255000001584,None,space,2.434048900000107,None,0,1,1,0,,,,,2,6,22,3,348.0750817000003,,,,,,,,,,,,,,,,,,,,,348.0600327000002,348.0750817000003,348.55855850000034,348.56402990000015,348.5786168000004,349.25942540000005,,,,,349.25961810000035,349.27485560000014,349.47489710000036,349.4585936000003,348.5786168000004,,,,,,,,1,1,0.6651255000001584,None,,,,,,,,837,21,V,R,2026-02-25_11h51.07.583,VisualSearch_2526_3,,2025.2.4,2026-02-25 11h51.07.812650 +0100,
tilted.xlsx,The target is tilted.,117,23,7,2,0,1,1,1,0,0,0,0,0,0,0,0,1,3,4,117,space,4.626321299999745,None,0,1,0.6708873000002313,None,space,2.434048900000107,None,0,1,1,0,,,,,2,7,23,6,349.47489710000036,,,,,,,,,,,,,,,,,,,,,349.4593331000001,349.47489710000036,349.9589066000003,349.96501890000036,349.98201770000014,350.6589995000004,,,,,350.6591923000001,350.6743325000002,350.8745606000002,350.85882830000037,349.98201770000014,,,,,,,,0,1,0.6708873000002313,None,,,,,,,,837,21,V,R,2026-02-25_11h51.07.583,VisualSearch_2526_3,,2025.2.4,2026-02-25 11h51.07.812650 +0100,
tilted.xlsx,The target is tilted.,117,24,0,3,1,1,1,1,1,1,1,1,0,0,0,0,0,7,8,117,space,4.626321299999745,None,1,1,0.9279394999998658,None,space,2.434048900000107,None,0,1,1,0,,,,,3,0,24,1,350.8745606000002,,,,,,,,,,,,,,,,,,,,,350.8595240000004,350.8745606000002,351.3584821000004,351.3639782,351.38032420000036,352.3247120000001,,,,,352.3248424000003,352.3406984000003,352.5410426000003,352.52488760000006,351.38032420000036,,,,,,,,1,1,0.9279394999998658,None,,,,,,,,837,21,V,R,2026-02-25_11h51.07.583,VisualSearch_2526_3,,2025.2.4,2026-02-25 11h51.07.812650 +0100,
tilted.xlsx,The target is tilted.,117,25,1,3,0,1,1,1,1,1,1,1,1,1,1,1,1,11,12,117,space,4.626321299999745,None,0,1,2.3928067000001647,None,space,2.434048900000107,None,0,1,1,0,,,,,3,1,25,4,352.5410426000003,,,,,,,,,,,,,,,,,,,,,352.5256324000002,352.5410426000003,353.0245927000001,353.0312637000002,353.04533420000007,355.4403862000004,,,,,355.4404582000002,355.4570888000003,,355.64051640000025,353.04533420000007,,,,,,,,0,1,2.3928067000001647,None,,,,,,,,837,21,V,R,2026-02-25_11h51.07.583,VisualSearch_2526_3,,2025.2.4,2026-02-25 11h51.07.812650 +0100,
tilted.xlsx,The target is tilted.,117,26,2,3,0,0,0,0,0,0,0,0,0,0,0,0,1,1,1,117,space,4.626321299999745,None,0,1,0.5563796999999795,None,space,2.434048900000107,None,0,1,1,0,,,,,3,2,26,7,355.6565222000004,,,,,,,,,,,,,,,,,,,,,355.6409281000001,355.6565222000004,356.1403467,356.1426356000002,356.1568962000001,356.72426060000043,,,,,356.72443390000035,356.7403102000003,356.9402666000001,356.92407310000044,356.1568962000001,,,,,,,,0,1,0.5563796999999795,None,,,,,,,,837,21,V,R,2026-02-25_11h51.07.583,VisualSearch_2526_3,,2025.2.4,2026-02-25 11h51.07.812650 +0100,
tilted.xlsx,The target is tilted.,117,27,3,3,1,1,1,1,1,1,1,1,1,1,1,1,0,11,12,117,space,4.626321299999745,None,1,1,1.524328400000286,None,space,2.434048900000107,None,0,1,1,0,,,,,3,3,27,0,356.9402666000001,,,,,,,,,,,,,,,,,,,,,356.9248498000002,356.9402666000001,357.42418160000034,357.4303930000001,357.4468372000001,358.97417940000014,,,,,358.9743475,358.98999010000034,359.18954280000025,359.17390730000034,357.4468372000001,,,,,,,,1,1,1.524328400000286,None,,,,,,,,837,21,V,R,2026-02-25_11h51.07.583,VisualSearch_2526_3,,2025.2.4,2026-02-25 11h51.07.812650 +0100,
tilted.xlsx,The target is tilted.,117,28,4,3,1,0,0,0,0,0,0,0,0,0,0,0,0,0,1,117,space,4.626321299999745,None,1,1,1.1967837000001964,None,space,2.434048900000107,None,0,1,1,0,,,,,3,4,28,3,359.18954280000025,,,,,,,,,,,,,,,,,,,,,359.1746127000001,359.18954280000025,359.6738029000003,359.67986690000043,359.6949165000001,360.90713440000036,,,,,360.9073632000004,360.9228373000001,361.1227793000003,361.10709380000026,359.6949165000001,,,,,,,,1,1,1.1967837000001964,None,,,,,,,,837,21,V,R,2026-02-25_11h51.07.583,VisualSearch_2526_3,,2025.2.4,2026-02-25 11h51.07.812650 +0100,
tilted.xlsx,The target is tilted.,117,29,5,3,0,1,1,1,1,1,1,1,0,0,0,0,1,7,8,117,space,4.626321299999745,None,1,0,2.3638144999999895,None,space,2.434048900000107,None,0,1,1,0,,,,,3,5,29,5,361.1227793000003,,,,,,,,,,,,,,,,,,,,,361.10779530000036,361.1227793000003,361.60615590000043,361.6096768000002,361.62231520000023,363.98968920000016,,,,,363.98986130000003,364.00575400000025,364.20579190000035,364.1895142000003,361.62231520000023,,,,,,,,1,0,2.3638144999999895,None,,,,,,,,837,21,V,R,2026-02-25_11h51.07.583,VisualSearch_2526_3,,2025.2.4,2026-02-25 11h51.07.812650 +0100,
tilted.xlsx,The target is tilted.,117,30,6,3,1,1,1,1,0,0,0,0,0,0,0,0,0,3,4,117,space,4.626321299999745,None,1,1,1.421661800000038,None,space,2.434048900000107,None,0,1,1,0,,,,,3,6,30,2,364.20579190000035,,,,,,,,,,,,,,,,,,,,,364.19028100000014,364.20579190000035,364.6895961,364.69518530000005,364.71122360000027,366.1394653000002,,,,,366.1396213000003,366.1553055000004,366.355325,366.33926740000015,364.71122360000027,,,,,,,,1,1,1.421661800000038,None,,,,,,,,837,21,V,R,2026-02-25_11h51.07.583,VisualSearch_2526_3,,2025.2.4,2026-02-25 11h51.07.812650 +0100,
tilted.xlsx,The target is tilted.,117,31,7,3,0,1,1,1,0,0,0,0,0,0,0,0,1,3,4,117,space,4.626321299999745,None,0,1,0.7936217000001307,None,space,2.434048900000107,None,0,1,1,0,,,,,3,7,31,6,366.355325,,,,,,,,,,,,,,,,,,,,,366.3399773000001,366.355325,366.8390690000001,366.84401190000017,366.8592050000002,367.65609740000036,,,,,367.65625610000006,367.6716984000004,367.87179460000016,367.8554946000004,366.8592050000002,,,,,,,,0,1,0.7936217000001307,None,,,,,,,,837,21,V,R,2026-02-25_11h51.07.583,VisualSearch_2526_3,,2025.2.4,2026-02-25 11h51.07.812650 +0100,
tilted.xlsx,The target is tilted.,117,32,0,4,0,1,1,1,1,1,1,1,0,0,0,0,1,7,8,117,space,4.626321299999745,None,0,1,1.434139999999843,None,space,2.434048900000107,None,0,1,1,0,,,,,4,0,32,5,367.87179460000016,,,,,,,,,,,,,,,,,,,,,367.8561818000003,367.87179460000016,368.35556610000003,368.3610401000001,368.375309,369.82242380000025,,,,,369.8225844000003,369.8380311000001,370.0381120000002,370.02205330000015,368.375309,,,,,,,,0,1,1.434139999999843,None,,,,,,,,837,21,V,R,2026-02-25_11h51.07.583,VisualSearch_2526_3,,2025.2.4,2026-02-25 11h51.07.812650 +0100,
tilted.xlsx,The target is tilted.,117,33,1,4,0,1,1,1,1,1,1,1,1,1,1,1,1,11,12,117,space,4.626321299999745,None,0,1,2.2111391999997068,None,space,2.434048900000107,None,0,1,1,0,,,,,4,1,33,4,370.0381120000002,,,,,,,,,,,,,,,,,,,,,370.0227966000002,370.0381120000002,370.5218960000002,370.5274208000001,370.54317930000025,372.7551988,,,,,372.75535770000033,372.7709007000003,372.97100130000035,372.9549423000003,370.54317930000025,,,,,,,,0,1,2.2111391999997068,None,,,,,,,,837,21,V,R,2026-02-25_11h51.07.583,VisualSearch_2526_3,,2025.2.4,2026-02-25 11h51.07.812650 +0100,
tilted.xlsx,The target is tilted.,117,34,2,4,1,1,1,1,0,0,0,0,0,0,0,0,0,3,4,117,space,4.626321299999745,None,0,0,0.8184443000000101,None,space,2.434048900000107,None,0,1,1,0,,,,,4,2,34,2,372.97100130000035,,,,,,,,,,,,,,,,,,,,,372.9561633000003,372.97100130000035,373.4547579,373.4602495000004,373.47598100000005,374.3048444000001,,,,,374.3050079000004,374.3206160000004,374.5207468000003,374.50451740000017,373.47598100000005,,,,,,,,0,0,0.8184443000000101,None,,,,,,,,837,21,V,R,2026-02-25_11h51.07.583,VisualSearch_2526_3,,2025.2.4,2026-02-25 11h51.07.812650 +0100,
