file_name,block_instructions,target_example,thisN,thisTrialN,thisRepN,target_presence,opacity_1,opacity_2,opacity_3,opacity_4,opacity_5,opacity_6,opacity_7,opacity_8,opacity_9,opacity_10,opacity_11,opacity_12,n_distract,n_items,target_ori,key_resp_4.keys,key_resp_4.rt,key_resp_4.duration,key_resp.keys,key_resp.corr,key_resp.rt,key_resp.duration,key_resp_5.keys,key_resp_5.rt,key_resp_5.duration,blocks.thisRepN,blocks.thisTrialN,blocks.thisN,blocks.thisIndex,practice_trials.thisRepN,practice_trials.thisTrialN,practice_trials.thisN,practice_trials.thisIndex,trials.thisRepN,trials.thisTrialN,trials.thisN,trials.thisIndex,thisRow.t,notes,Welcome.started,WelcomeText.started,key_resp_2.started,Welcome.stopped,key_resp_2.keys,key_resp_2.rt,key_resp_2.duration,InformedConsent.started,text_4.started,InformedConsent.stopped,key_resp_6.keys,key_resp_6.rt,key_resp_6.duration,key_resp_4.started,example_target.started,text_3.started,blocks.key_resp_4.keys,blocks.key_resp_4.rt,blocks.key_resp_4.duration,FixCross.started,fixCross.started,FixCross.stopped,Stimulus.started,key_resp.started,Stimulus.stopped,practice_trials.key_resp.keys,practice_trials.key_resp.corr,practice_trials.key_resp.rt,practice_trials.key_resp.duration,BlankScreen.started,text.started,text.stopped,BlankScreen.stopped,fixCross.stopped,ExperimentStart.started,text_2.started,key_resp_5.started,ExperimentStart.stopped,blocks.key_resp_5.keys,blocks.key_resp_5.rt,blocks.key_resp_5.duration,trials.key_resp.keys,trials.key_resp.corr,trials.key_resp.rt,trials.key_resp.duration,Thanks.started,ThankYou.started,key_resp_3.started,Thanks.stopped,key_resp_3.keys,key_resp_3.rt,key_resp_3.duration,participant,leeftijd,gender,links/rechtshandig,date,expName,expVersion,psychopyVersion,expStart,
,,,,,,,,,,,,,,,,,,,,,,,,,,,,,,,,,,,,,,,,,,,,,,0.024485299999469134,0.053797199999280565,0.053797199999280565,25.61347079999996,space,25.537423199999466,None,,,,,,,,,,,,,,,,,,,,,,,,,,,,,,,,,,,,,,,,,,,,,,839,25,M,R,2026-02-25_12h16.59.573,VisualSearch_2526_3,,2025.2.4,2026-02-25 12h16.59.804802 +0100,
,,,,,,,,,,,,,,,,,,,,,,,,,,,,,,,,,,,,,,,,,,,,,,,,,,,,,25.613527799999247,25.61895789999926,44.799177099999724,y,19.175832099999752,None,,,,,,,,,,,,,,,,,,,,,,,,,,,,,,,,,,,,,,,,839,25,M,R,2026-02-25_12h16.59.573,VisualSearch_2526_3,,2025.2.4,2026-02-25 12h16.59.804802 +0100,
tilted.xlsx,The target is tilted.,117,0,0,0,1,1,1,1,1,1,1,1,0,0,0,0,0,7,8,117,space,21.234808399999565,None,1,1,1.3797649999996793,None,,,,0,0,0,0,0,0,0,1,,,,,66.1100779999997,,,,,,,,,,,,,,,44.840334299999995,44.840334299999995,44.840334299999995,space,21.234808399999565,None,66.10428709999996,66.1100779999997,66.59463739999956,66.6001467999995,66.61742519999916,68.01178679999975,1,1,1.3797649999996793,None,68.01198939999995,68.0271574999997,68.22700109999914,68.21109579999938,,,,,,,,,,,,,,,,,,,,839,25,M,R,2026-02-25_12h16.59.573,VisualSearch_2526_3,,2025.2.4,2026-02-25 12h16.59.804802 +0100,
tilted.xlsx,The target is tilted.,117,1,1,0,0,1,1,1,1,1,1,1,0,0,0,0,1,7,8,117,space,21.234808399999565,None,0,1,1.7628134999995382,None,,,,0,0,0,0,0,1,1,5,,,,,68.22700109999914,,,,,,,,,,,,,,,,,,,,,68.21178449999934,68.22700109999914,68.71111829999973,68.71603069999946,68.73128899999938,70.51125749999937,0,1,1.7628134999995382,None,70.51143319999937,70.52677889999995,70.72644799999944,70.7102548999992,68.73128899999938,,,,,,,,,,,,,,,,,,,839,25,M,R,2026-02-25_12h16.59.573,VisualSearch_2526_3,,2025.2.4,2026-02-25 12h16.59.804802 +0100,
tilted.xlsx,The target is tilted.,117,2,2,0,1,0,0,0,0,0,0,0,0,0,0,0,0,0,1,117,space,21.234808399999565,None,1,1,0.6241006000000198,None,,,,0,0,0,0,0,2,2,3,,,,,70.72644799999944,,,,,,,,,,,,,,,,,,,,,70.71085289999974,70.72644799999944,71.21023549999973,71.21513699999923,71.23238330000004,71.86062319999928,1,1,0.6241006000000198,None,71.86079569999947,71.87608189999992,72.07630989999961,72.06042209999941,71.23238330000004,,,,,,,,,,,,,,,,,,,839,25,M,R,2026-02-25_12h16.59.573,VisualSearch_2526_3,,2025.2.4,2026-02-25 12h16.59.804802 +0100,
tilted.xlsx,The target is tilted.,117,3,3,0,0,1,1,1,1,1,1,1,1,1,1,1,1,11,12,117,space,21.234808399999565,None,0,1,1.5767322000001514,None,,,,0,0,0,0,0,3,3,4,,,,,72.07630989999961,,,,,,,,,,,,,,,,,,,,,72.06114679999973,72.07630989999961,72.56043379999937,72.56507889999921,72.58080919999975,74.16057049999927,0,1,1.5767322000001514,None,74.16074379999918,74.17569699999967,74.37639549999949,74.36013079999975,72.58080919999975,,,,,,,,,,,,,,,,,,,839,25,M,R,2026-02-25_12h16.59.573,VisualSearch_2526_3,,2025.2.4,2026-02-25 12h16.59.804802 +0100,
tilted.xlsx,The target is tilted.,117,4,4,0,0,0,0,0,0,0,0,0,0,0,0,0,1,1,1,117,space,21.234808399999565,None,0,1,0.7321609000000535,None,,,,0,0,0,0,0,4,4,7,,,,,74.37639549999949,,,,,,,,,,,,,,,,,,,,,74.3607807999997,74.37639549999949,74.86016219999965,74.86519649999991,74.88378929999999,75.62627989999964,0,1,0.7321609000000535,None,75.62636959999963,75.64187729999958,75.84271399999943,75.82661389999976,74.88378929999999,,,,,,,,,,,,,,,,,,,839,25,M,R,2026-02-25_12h16.59.573,VisualSearch_2526_3,,2025.2.4,2026-02-25 12h16.59.804802 +0100,
tilted.xlsx,The target is tilted.,117,5,5,0,1,1,1,1,1,1,1,1,1,1,1,1,0,11,12,117,space,21.234808399999565,None,0,0,1.5481167999996615,None,,,,0,0,0,0,0,5,5,0,,,,,75.84271399999943,,,,,,,,,,,,,,,,,,,,,75.82726349999939,75.84271399999943,76.3263852,76.33102859999963,76.34764929999983,77.90937649999978,0,0,1.5481167999996615,None,77.90956919999917,77.9250134999993,78.12551619999977,78.10937309999917,76.34764929999983,,,,,,,,,,,,,,,,,,,839,25,M,R,2026-02-25_12h16.59.573,VisualSearch_2526_3,,2025.2.4,2026-02-25 12h16.59.804802 +0100,
tilted.xlsx,The target is tilted.,117,6,6,0,0,1,1,1,0,0,0,0,0,0,0,0,1,3,4,117,space,21.234808399999565,None,0,1,0.8592736000000514,None,,,,0,0,0,0,0,6,6,6,,,,,78.12551619999977,,,,,,,,,,,,,,,,,,,,,78.11005099999966,78.12551619999977,78.60940609999943,78.61418739999954,78.63193769999998,79.49306569999953,0,1,0.8592736000000514,None,79.49323469999945,79.50812879999921,79.70856789999925,79.69258049999917,78.63193769999998,,,,,,,,,,,,,,,,,,,839,25,M,R,2026-02-25_12h16.59.573,VisualSearch_2526_3,,2025.2.4,2026-02-25 12h16.59.804802 +0100,
tilted.xlsx,The target is tilted.,117,7,7,0,1,1,1,1,0,0,0,0,0,0,0,0,0,3,4,117,space,21.234808399999565,None,1,1,0.8161274000003687,None,,,,0,0,0,0,0,7,7,2,,,,,79.70856789999925,,,,,,,,,,,,,,,,,,,,,79.69334219999928,79.70856789999925,80.19241059999968,80.19716369999969,80.21485719999964,81.04252499999984,1,1,0.8161274000003687,None,81.04269769999974,81.05795319999925,81.25849219999964,81.2423132999993,80.21485719999964,,,,,,,,,,,,,,,,,,,839,25,M,R,2026-02-25_12h16.59.573,VisualSearch_2526_3,,2025.2.4,2026-02-25 12h16.59.804802 +0100,
tilted.xlsx,The target is tilted.,117,0,0,0,0,1,1,1,1,1,1,1,1,1,1,1,1,11,12,117,space,21.234808399999565,None,0,1,3.6140121999997064,None,space,2.156667500000367,None,0,0,0,0,,,,,0,0,0,4,83.4594860999996,,,,,,,,,,,,,,,,,,,,,83.45528279999962,83.4594860999996,83.94164029999956,83.94708329999958,83.96638379999968,87.59156669999993,,,,,87.59173559999999,87.60689079999975,87.80712309999944,87.79081809999934,,81.24913529999958,81.25849219999964,81.25849219999964,83.42586109999957,space,2.156667500000367,None,0,1,3.6140121999997064,None,,,,,,,,839,25,M,R,2026-02-25_12h16.59.573,VisualSearch_2526_3,,2025.2.4,2026-02-25 12h16.59.804802 +0100,
tilted.xlsx,The target is tilted.,117,1,1,0,0,1,1,1,0,0,0,0,0,0,0,0,1,3,4,117,space,21.234808399999565,None,0,1,0.7296716999999262,None,space,2.156667500000367,None,0,0,0,0,,,,,0,1,1,6,87.80712309999944,,,,,,,,,,,,,,,,,,,,,87.79131019999932,87.80712309999944,88.29117589999987,88.2958179999996,88.3136730999995,89.05744289999984,,,,,89.05761129999973,89.07311579999987,89.27333579999959,89.25738699999965,88.3136730999995,,,,,,,,0,1,0.7296716999999262,None,,,,,,,,839,25,M,R,2026-02-25_12h16.59.573,VisualSearch_2526_3,,2025.2.4,2026-02-25 12h16.59.804802 +0100,
tilted.xlsx,The target is tilted.,117,2,2,0,1,0,0,0,0,0,0,0,0,0,0,0,0,0,1,117,space,21.234808399999565,None,1,1,0.5909803000004104,None,space,2.156667500000367,None,0,0,0,0,,,,,0,2,2,3,89.27333579999959,,,,,,,,,,,,,,,,,,,,,89.2581639,89.27333579999959,89.75719639999988,89.76187649999974,89.77851999999984,90.37354999999934,,,,,90.3736259999996,90.3893823999997,,90.57389109999986,89.77851999999984,,,,,,,,1,1,0.5909803000004104,None,,,,,,,,839,25,M,R,2026-02-25_12h16.59.573,VisualSearch_2526_3,,2025.2.4,2026-02-25 12h16.59.804802 +0100,
tilted.xlsx,The target is tilted.,117,3,3,0,0,0,0,0,0,0,0,0,0,0,0,0,1,1,1,117,space,21.234808399999565,None,0,1,0.6556236999995235,None,space,2.156667500000367,None,0,0,0,0,,,,,0,3,3,7,90.59023279999928,,,,,,,,,,,,,,,,,,,,,90.57468379999955,90.59023279999928,91.07395459999952,91.07866259999992,91.09529679999923,91.7575457999992,,,,,91.75775049999993,91.77281210000001,91.97334449999926,91.95691869999973,91.09529679999923,,,,,,,,0,1,0.6556236999995235,None,,,,,,,,839,25,M,R,2026-02-25_12h16.59.573,VisualSearch_2526_3,,2025.2.4,2026-02-25 12h16.59.804802 +0100,
tilted.xlsx,The target is tilted.,117,4,4,0,1,1,1,1,1,1,1,1,0,0,0,0,0,7,8,117,space,21.234808399999565,None,0,0,1.502487800000381,None,space,2.156667500000367,None,0,0,0,0,,,,,0,4,4,1,91.97334449999926,,,,,,,,,,,,,,,,,,,,,91.9576406999995,91.97334449999926,92.45722159999968,92.46249049999915,92.48116169999957,93.99073759999919,,,,,93.9909377999993,94.00572289999945,94.20578149999983,94.18961659999968,92.48116169999957,,,,,,,,0,0,1.502487800000381,None,,,,,,,,839,25,M,R,2026-02-25_12h16.59.573,VisualSearch_2526_3,,2025.2.4,2026-02-25 12h16.59.804802 +0100,
tilted.xlsx,The target is tilted.,117,5,5,0,1,1,1,1,1,1,1,1,1,1,1,1,0,11,12,117,space,21.234808399999565,None,0,0,2.4613847999999052,None,space,2.156667500000367,None,0,0,0,0,,,,,0,5,5,0,94.20578149999983,,,,,,,,,,,,,,,,,,,,,94.19027749999987,94.20578149999983,94.69007199999942,94.69488659999934,94.71216389999972,97.18937229999938,,,,,97.18952799999988,97.20503059999919,97.4058032999992,97.38939819999996,94.71216389999972,,,,,,,,0,0,2.4613847999999052,None,,,,,,,,839,25,M,R,2026-02-25_12h16.59.573,VisualSearch_2526_3,,2025.2.4,2026-02-25 12h16.59.804802 +0100,
tilted.xlsx,The target is tilted.,117,6,6,0,1,1,1,1,0,0,0,0,0,0,0,0,0,3,4,117,space,21.234808399999565,None,1,1,0.763594699999885,None,space,2.156667500000367,None,0,0,0,0,,,,,0,6,6,2,97.4058032999992,,,,,,,,,,,,,,,,,,,,,97.3900679999997,97.4058032999992,97.88941459999933,97.89404939999986,97.91261649999979,98.68914469999982,,,,,98.68932249999943,98.7048135999994,98.90513159999955,98.88936379999996,97.91261649999979,,,,,,,,1,1,0.763594699999885,None,,,,,,,,839,25,M,R,2026-02-25_12h16.59.573,VisualSearch_2526_3,,2025.2.4,2026-02-25 12h16.59.804802 +0100,
tilted.xlsx,The target is tilted.,117,7,7,0,0,1,1,1,1,1,1,1,0,0,0,0,1,7,8,117,space,21.234808399999565,None,0,1,1.237827400000242,None,space,2.156667500000367,None,0,0,0,0,,,,,0,7,7,5,98.90513159999955,,,,,,,,,,,,,,,,,,,,,98.89009039999928,98.90513159999955,99.38919189999979,99.39378859999943,99.41170019999936,100.6557501999996,,,,,100.65591640000002,100.67134339999939,100.87178839999979,100.85562739999932,99.41170019999936,,,,,,,,0,1,1.237827400000242,None,,,,,,,,839,25,M,R,2026-02-25_12h16.59.573,VisualSearch_2526_3,,2025.2.4,2026-02-25 12h16.59.804802 +0100,
tilted.xlsx,The target is tilted.,117,8,0,1,1,1,1,1,1,1,1,1,0,0,0,0,0,7,8,117,space,21.234808399999565,None,0,0,1.203517799999645,None,space,2.156667500000367,None,0,0,0,0,,,,,1,0,8,1,100.87178839999979,,,,,,,,,,,,,,,,,,,,,100.85632749999968,100.87178839999979,101.35517619999973,101.35935339999924,101.3724803999994,102.58892619999915,,,,,102.58909210000002,102.60421659999975,102.80489419999958,102.78860789999999,101.3724803999994,,,,,,,,0,0,1.203517799999645,None,,,,,,,,839,25,M,R,2026-02-25_12h16.59.573,VisualSearch_2526_3,,2025.2.4,2026-02-25 12h16.59.804802 +0100,
tilted.xlsx,The target is tilted.,117,9,1,1,0,1,1,1,0,0,0,0,0,0,0,0,1,3,4,117,space,21.234808399999565,None,0,1,0.9552172000003338,None,space,2.156667500000367,None,0,0,0,0,,,,,1,1,9,6,102.80489419999958,,,,,,,,,,,,,,,,,,,,,102.78936429999976,102.80489419999958,103.28854319999937,103.29316289999952,103.30978419999974,104.27222319999964,,,,,104.27240469999924,104.28734229999918,104.48782909999954,104.47167959999933,103.30978419999974,,,,,,,,0,1,0.9552172000003338,None,,,,,,,,839,25,M,R,2026-02-25_12h16.59.573,VisualSearch_2526_3,,2025.2.4,2026-02-25 12h16.59.804802 +0100,
tilted.xlsx,The target is tilted.,117,10,2,1,1,1,1,1,1,1,1,1,1,1,1,1,0,11,12,117,space,21.234808399999565,None,1,1,0.9988682000002882,None,space,2.156667500000367,None,0,0,0,0,,,,,1,2,10,0,104.48782909999954,,,,,,,,,,,,,,,,,,,,,104.4724486999994,104.48782909999954,104.97168019999935,104.97627209999973,104.9928633999998,106.00460549999934,,,,,106.00478289999955,106.02034229999936,106.22010709999995,106.20413680000001,104.9928633999998,,,,,,,,1,1,0.9988682000002882,None,,,,,,,,839,25,M,R,2026-02-25_12h16.59.573,VisualSearch_2526_3,,2025.2.4,2026-02-25 12h16.59.804802 +0100,
tilted.xlsx,The target is tilted.,117,11,3,1,1,0,0,0,0,0,0,0,0,0,0,0,0,0,1,117,space,21.234808399999565,None,1,1,0.6138257000002341,None,space,2.156667500000367,None,0,0,0,0,,,,,1,3,11,3,106.22010709999995,,,,,,,,,,,,,,,,,,,,,106.20438729999933,106.22010709999995,106.70437709999987,106.70778209999935,106.72125399999913,107.33768249999957,,,,,107.33781299999919,107.35347749999983,107.5540607999992,107.53773509999974,106.72125399999913,,,,,,,,1,1,0.6138257000002341,None,,,,,,,,839,25,M,R,2026-02-25_12h16.59.573,VisualSearch_2526_3,,2025.2.4,2026-02-25 12h16.59.804802 +0100,
tilted.xlsx,The target is tilted.,117,12,4,1,0,1,1,1,1,1,1,1,1,1,1,1,1,11,12,117,space,21.234808399999565,None,0,1,1.3923742999995739,None,space,2.156667500000367,None,0,0,0,0,,,,,1,4,12,4,107.5540607999992,,,,,,,,,,,,,,,,,,,,,107.5384752,107.5540607999992,108.0379567,108.04326469999978,108.05982329999915,109.45481799999925,,,,,109.45501559999957,109.46983359999922,109.67038559999946,109.65406259999963,108.05982329999915,,,,,,,,0,1,1.3923742999995739,None,,,,,,,,839,25,M,R,2026-02-25_12h16.59.573,VisualSearch_2526_3,,2025.2.4,2026-02-25 12h16.59.804802 +0100,
tilted.xlsx,The target is tilted.,117,13,5,1,1,1,1,1,0,0,0,0,0,0,0,0,0,3,4,117,space,21.234808399999565,None,1,1,0.6796622000001662,None,space,2.156667500000367,None,0,0,0,0,,,,,1,5,13,2,109.67038559999946,,,,,,,,,,,,,,,,,,,,,109.65478179999991,109.67038559999946,110.1538286999994,110.15867239999989,110.1763519999995,110.87058979999983,,,,,110.87078669999937,110.88619539999945,111.0863903999998,111.07048119999945,110.1763519999995,,,,,,,,1,1,0.6796622000001662,None,,,,,,,,839,25,M,R,2026-02-25_12h16.59.573,VisualSearch_2526_3,,2025.2.4,2026-02-25 12h16.59.804802 +0100,
tilted.xlsx,The target is tilted.,117,14,6,1,0,1,1,1,1,1,1,1,0,0,0,0,1,7,8,117,space,21.234808399999565,None,0,1,1.5596350999994684,None,space,2.156667500000367,None,0,0,0,0,,,,,1,6,14,5,111.0863903999998,,,,,,,,,,,,,,,,,,,,,111.07120399999985,111.0863903999998,111.57051189999947,111.57511799999975,111.59253589999935,113.1541729999999,,,,,113.1543845999995,113.1692024999993,113.36969449999924,113.35332289999951,111.59253589999935,,,,,,,,0,1,1.5596350999994684,None,,,,,,,,839,25,M,R,2026-02-25_12h16.59.573,VisualSearch_2526_3,,2025.2.4,2026-02-25 12h16.59.804802 +0100,
tilted.xlsx,The target is tilted.,117,15,7,1,0,0,0,0,0,0,0,0,0,0,0,0,1,1,1,117,space,21.234808399999565,None,0,1,0.683276400000068,None,space,2.156667500000367,None,0,0,0,0,,,,,1,7,15,7,113.36969449999924,,,,,,,,,,,,,,,,,,,,,113.35393589999967,113.36969449999924,113.85368159999962,113.85847409999951,113.87723209999967,114.5706812999997,,,,,114.5708799999993,114.58580099999926,114.78596409999955,114.76916999999958,113.87723209999967,,,,,,,,0,1,0.683276400000068,None,,,,,,,,839,25,M,R,2026-02-25_12h16.59.573,VisualSearch_2526_3,,2025.2.4,2026-02-25 12h16.59.804802 +0100,
tilted.xlsx,The target is tilted.,117,16,0,2,1,1,1,1,1,1,1,1,1,1,1,1,0,11,12,117,space,21.234808399999565,None,0,0,1.6790358999996897,None,space,2.156667500000367,None,0,0,0,0,,,,,2,0,16,0,114.78596409999955,,,,,,,,,,,,,,,,,,,,,114.76957109999967,114.78596409999955,115.27008359999945,115.27543649999916,115.29196819999925,116.98610289999942,,,,,116.98626799999965,117.0017012999997,117.20234719999917,117.1860214999997,115.29196819999925,,,,,,,,0,0,1.6790358999996897,None,,,,,,,,839,25,M,R,2026-02-25_12h16.59.573,VisualSearch_2526_3,,2025.2.4,2026-02-25 12h16.59.804802 +0100,
tilted.xlsx,The target is tilted.,117,17,1,2,1,1,1,1,1,1,1,1,0,0,0,0,0,7,8,117,space,21.234808399999565,None,1,1,0.6969150000004447,None,space,2.156667500000367,None,0,0,0,0,,,,,2,1,17,1,117.20234719999917,,,,,,,,,,,,,,,,,,,,,117.18664099999933,117.20234719999917,117.68570980000004,117.68997279999985,117.70241189999979,118.40221369999927,,,,,118.40229499999987,118.41803589999927,,118.60251399999925,117.70241189999979,,,,,,,,1,1,0.6969150000004447,None,,,,,,,,839,25,M,R,2026-02-25_12h16.59.573,VisualSearch_2526_3,,2025.2.4,2026-02-25 12h16.59.804802 +0100,
tilted.xlsx,The target is tilted.,117,18,2,2,1,0,0,0,0,0,0,0,0,0,0,0,0,0,1,117,space,21.234808399999565,None,1,1,0.5497006000005058,None,space,2.156667500000367,None,0,0,0,0,,,,,2,2,18,3,118.6188145999995,,,,,,,,,,,,,,,,,,,,,118.60329329999968,118.6188145999995,119.1025424999998,119.10781299999962,119.12438109999948,119.68648459999986,,,,,119.68763079999917,119.70146569999997,119.90184879999924,119.88564039999983,,,,,,,,,1,1,0.5497006000005058,None,,,,,,,,839,25,M,R,2026-02-25_12h16.59.573,VisualSearch_2526_3,,2025.2.4,2026-02-25 12h16.59.804802 +0100,
tilted.xlsx,The target is tilted.,117,19,3,2,0,1,1,1,1,1,1,1,0,0,0,0,1,7,8,117,space,21.234808399999565,None,0,1,1.0835606000000553,None,space,2.156667500000367,None,0,0,0,0,,,,,2,3,19,5,119.90184879999924,,,,,,,,,,,,,,,,,,,,,119.88629689999925,119.90184879999924,120.38596509999934,120.39160589999938,120.41132599999946,121.50242739999976,,,,,121.50264419999985,121.51785249999921,121.71822909999992,121.70217589999993,120.41132599999946,,,,,,,,0,1,1.0835606000000553,None,,,,,,,,839,25,M,R,2026-02-25_12h16.59.573,VisualSearch_2526_3,,2025.2.4,2026-02-25 12h16.59.804802 +0100,
tilted.xlsx,The target is tilted.,117,20,4,2,0,1,1,1,1,1,1,1,1,1,1,1,1,11,12,117,space,21.234808399999565,None,0,1,1.7829913000005035,None,space,2.156667500000367,None,0,0,0,0,,,,,2,4,20,4,121.71822909999992,,,,,,,,,,,,,,,,,,,,,121.7029451999997,121.71822909999992,122.20208279999952,122.20692439999948,122.22358399999939,124.01891029999933,,,,,124.01909459999933,124.03400679999959,124.23462399999971,124.2183372999998,122.22358399999939,,,,,,,,0,1,1.7829913000005035,None,,,,,,,,839,25,M,R,2026-02-25_12h16.59.573,VisualSearch_2526_3,,2025.2.4,2026-02-25 12h16.59.804802 +0100,
tilted.xlsx,The target is tilted.,117,21,5,2,1,1,1,1,0,0,0,0,0,0,0,0,0,3,4,117,space,21.234808399999565,None,1,1,0.717012899999645,None,space,2.156667500000367,None,0,0,0,0,,,,,2,5,21,2,124.23462399999971,,,,,,,,,,,,,,,,,,,,,124.21907649999957,124.23462399999971,124.71828649999952,124.72299139999996,124.73911979999957,125.46864519999963,,,,,125.46882769999957,125.48378389999925,125.68439469999976,125.66810259999966,124.73911979999957,,,,,,,,1,1,0.717012899999645,None,,,,,,,,839,25,M,R,2026-02-25_12h16.59.573,VisualSearch_2526_3,,2025.2.4,2026-02-25 12h16.59.804802 +0100,
tilted.xlsx,The target is tilted.,117,22,6,2,0,0,0,0,0,0,0,0,0,0,0,0,1,1,1,117,space,21.234808399999565,None,0,1,0.5409412999997585,None,space,2.156667500000367,None,0,0,0,0,,,,,2,6,22,7,125.68439469999976,,,,,,,,,,,,,,,,,,,,,125.66885579999962,125.68439469999976,126.16797199999928,126.1725923999993,126.18415599999935,126.73520829999961,,,,,126.73539009999968,126.75034889999915,126.9504606999999,126.9346900999999,126.18415599999935,,,,,,,,0,1,0.5409412999997585,None,,,,,,,,839,25,M,R,2026-02-25_12h16.59.573,VisualSearch_2526_3,,2025.2.4,2026-02-25 12h16.59.804802 +0100,
tilted.xlsx,The target is tilted.,117,23,7,2,0,1,1,1,0,0,0,0,0,0,0,0,1,3,4,117,space,21.234808399999565,None,0,1,0.7131443999996918,None,space,2.156667500000367,None,0,0,0,0,,,,,2,7,23,6,126.9504606999999,,,,,,,,,,,,,,,,,,,,,126.93540819999998,126.9504606999999,127.4346700999995,127.43959089999953,127.45678439999938,128.18422479999936,,,,,128.18440389999978,128.19989729999998,128.4005970999997,128.3840537999995,127.45678439999938,,,,,,,,0,1,0.7131443999996918,None,,,,,,,,839,25,M,R,2026-02-25_12h16.59.573,VisualSearch_2526_3,,2025.2.4,2026-02-25 12h16.59.804802 +0100,
tilted.xlsx,The target is tilted.,117,24,0,3,1,0,0,0,0,0,0,0,0,0,0,0,0,0,1,117,space,21.234808399999565,None,1,1,0.5856072999995376,None,space,2.156667500000367,None,0,0,0,0,,,,,3,0,24,3,128.4005970999997,,,,,,,,,,,,,,,,,,,,,128.3848442999997,128.4005970999997,128.88411339999948,128.88789499999984,128.90345660000003,129.50132309999935,,,,,129.50150339999982,129.5164734,129.71629669999948,129.70059839999976,128.90345660000003,,,,,,,,1,1,0.5856072999995376,None,,,,,,,,839,25,M,R,2026-02-25_12h16.59.573,VisualSearch_2526_3,,2025.2.4,2026-02-25 12h16.59.804802 +0100,
tilted.xlsx,The target is tilted.,117,25,1,3,0,1,1,1,1,1,1,1,0,0,0,0,1,7,8,117,space,21.234808399999565,None,0,1,0.9696384999997463,None,space,2.156667500000367,None,0,0,0,0,,,,,3,1,25,5,129.71629669999948,,,,,,,,,,,,,,,,,,,,,129.70179909999933,129.71629669999948,130.2005368,130.20569569999952,130.22199639999963,131.20103559999916,,,,,131.20121619999918,131.21619959999953,131.4165325999993,131.4003129999992,130.22199639999963,,,,,,,,0,1,0.9696384999997463,None,,,,,,,,839,25,M,R,2026-02-25_12h16.59.573,VisualSearch_2526_3,,2025.2.4,2026-02-25 12h16.59.804802 +0100,
tilted.xlsx,The target is tilted.,117,26,2,3,0,1,1,1,1,1,1,1,1,1,1,1,1,11,12,117,space,21.234808399999565,None,0,1,2.1507228000000396,None,space,2.156667500000367,None,0,0,0,0,,,,,3,2,26,4,131.4165325999993,,,,,,,,,,,,,,,,,,,,,131.4009888999999,131.4165325999993,131.90012429999933,131.90476390000003,131.91644359999918,134.08310009999968,,,,,134.08316449999984,134.09874069999933,134.29958139999962,134.28348409999944,131.91644359999918,,,,,,,,0,1,2.1507228000000396,None,,,,,,,,839,25,M,R,2026-02-25_12h16.59.573,VisualSearch_2526_3,,2025.2.4,2026-02-25 12h16.59.804802 +0100,
tilted.xlsx,The target is tilted.,117,27,3,3,1,1,1,1,1,1,1,1,1,1,1,1,0,11,12,117,space,21.234808399999565,None,1,1,1.8562733999997363,None,space,2.156667500000367,None,0,0,0,0,,,,,3,3,27,0,134.29958139999962,,,,,,,,,,,,,,,,,,,,,134.28419679999934,134.29958139999962,134.78336299999955,134.7879458999996,134.80430259999957,136.66634389999945,,,,,136.6665112999999,136.68193539999993,136.8821941999995,136.86623969999982,134.80430259999957,,,,,,,,1,1,1.8562733999997363,None,,,,,,,,839,25,M,R,2026-02-25_12h16.59.573,VisualSearch_2526_3,,2025.2.4,2026-02-25 12h16.59.804802 +0100,
tilted.xlsx,The target is tilted.,117,28,4,3,1,1,1,1,0,0,0,0,0,0,0,0,0,3,4,117,space,21.234808399999565,None,1,1,0.7909613000001627,None,space,2.156667500000367,None,0,0,0,0,,,,,3,4,28,2,136.8821941999995,,,,,,,,,,,,,,,,,,,,,136.86700669999937,136.8821941999995,137.36633249999977,137.3711048999994,137.38689259999956,138.1831530999998,,,,,138.18333359999997,138.19837239999924,138.39851120000003,138.38271949999944,137.38689259999956,,,,,,,,1,1,0.7909613000001627,None,,,,,,,,839,25,M,R,2026-02-25_12h16.59.573,VisualSearch_2526_3,,2025.2.4,2026-02-25 12h16.59.804802 +0100,
tilted.xlsx,The target is tilted.,117,29,5,3,1,1,1,1,1,1,1,1,0,0,0,0,0,7,8,117,space,21.234808399999565,None,1,1,1.2710679999991044,None,space,2.156667500000367,None,0,0,0,0,,,,,3,5,29,1,138.39851120000003,,,,,,,,,,,,,,,,,,,,,138.38347219999923,138.39851120000003,138.88290179999967,138.88820629999918,138.90572909999992,140.1829656,,,,,140.1831646999999,140.19800619999933,140.39853459999995,140.38245819999975,138.90572909999992,,,,,,,,1,1,1.2710679999991044,None,,,,,,,,839,25,M,R,2026-02-25_12h16.59.573,VisualSearch_2526_3,,2025.2.4,2026-02-25 12h16.59.804802 +0100,
tilted.xlsx,The target is tilted.,117,30,6,3,0,1,1,1,0,0,0,0,0,0,0,0,1,3,4,117,space,21.234808399999565,None,0,1,0.8544529000000693,None,space,2.156667500000367,None,0,0,0,0,,,,,3,6,30,6,140.39853459999995,,,,,,,,,,,,,,,,,,,,,140.38323539999965,140.39853459999995,140.88258599999972,140.8880240999997,140.90453759999946,141.76597159999983,,,,,141.76615129999936,141.78079289999914,141.98165339999923,141.96545849999984,140.90453759999946,,,,,,,,0,1,0.8544529000000693,None,,,,,,,,839,25,M,R,2026-02-25_12h16.59.573,VisualSearch_2526_3,,2025.2.4,2026-02-25 12h16.59.804802 +0100,
tilted.xlsx,The target is tilted.,117,31,7,3,0,0,0,0,0,0,0,0,0,0,0,0,1,1,1,117,space,21.234808399999565,None,0,1,0.5515155000002778,None,space,2.156667500000367,None,0,0,0,0,,,,,3,7,31,7,141.98165339999923,,,,,,,,,,,,,,,,,,,,,141.96621679999953,141.98165339999923,142.46567259999938,142.47090219999973,142.48738699999922,143.0488974,,,,,143.04906179999944,143.06416399999944,143.26488229999995,143.24843249999958,142.48738699999922,,,,,,,,0,1,0.5515155000002778,None,,,,,,,,839,25,M,R,2026-02-25_12h16.59.573,VisualSearch_2526_3,,2025.2.4,2026-02-25 12h16.59.804802 +0100,
tilted.xlsx,The target is tilted.,117,32,0,4,0,0,0,0,0,0,0,0,0,0,0,0,1,1,1,117,space,21.234808399999565,None,0,1,0.4596897000001263,None,space,2.156667500000367,None,0,0,0,0,,,,,4,0,32,7,143.26488229999995,,,,,,,,,,,,,,,,,,,,,143.24918249999973,143.26488229999995,143.7484661999997,143.75319599999966,143.76875409999957,144.23198839999986,,,,,144.2321904999999,144.24735939999937,144.44783019999977,144.4312971999998,143.76875409999957,,,,,,,,0,1,0.4596897000001263,None,,,,,,,,839,25,M,R,2026-02-25_12h16.59.573,VisualSearch_2526_3,,2025.2.4,2026-02-25 12h16.59.804802 +0100,
tilted.xlsx,The target is tilted.,117,33,1,4,0,1,1,1,1,1,1,1,0,0,0,0,1,7,8,117,space,21.234808399999565,None,0,1,1.4826111999991554,None,space,2.156667500000367,None,0,0,0,0,,,,,4,1,33,5,144.44783019999977,,,,,,,,,,,,,,,,,,,,,144.43203829999948,144.44783019999977,144.93150219999916,144.9361374,144.9517634999993,146.4477623999992,,,,,146.44791599999917,146.4634959999994,146.66412459999992,146.64769759999945,144.9517634999993,,,,,,,,0,1,1.4826111999991554,None,,,,,,,,839,25,M,R,2026-02-25_12h16.59.573,VisualSearch_2526_3,,2025.2.4,2026-02-25 12h16.59.804802 +0100,
tilted.xlsx,The target is tilted.,117,34,2,4,1,1,1,1,1,1,1,1,1,1,1,1,0,11,12,117,space,21.234808399999565,None,0,0,1.5353510999993887,None,space,2.156667500000367,None,0,0,0,0,,,,,4,2,34,0,146.66412459999992,,,,,,,,,,,,,,,,,,,,,146.64832269999988,146.66412459999992,147.14750269999968,147.1517877999995,147.16403609999998,148.7141714999998,,,,,148.71434079999926,148.72980759999973,148.93035939999936,148.91389049999998,147.16403609999998,,,,,,,,0,0,1.5353510999993887,None,,,,,,,,839,25,M,R,2026-02-25_12h16.59.573,VisualSearch_2526_3,,2025.2.4,2026-02-25 12h16.59.804802 +0100,
tilted.xlsx,The target is tilted.,117,35,3,4,0,1,1,1,0,0,0,0,0,0,0,0,1,3,4,117,space,21.234808399999565,None,0,1,1.1288535999992746,None,space,2.156667500000367,None,0,0,0,0,,,,,4,3,35,6,148.93035939999936,,,,,,,,,,,,,,,,,,,,,148.91457319999972,148.93035939999936,149.41390539999975,149.41865199999938,149.43381429999954,150.56446979999964,,,,,150.56465169999956,150.57963349999955,150.7800983999996,150.76396679999925,149.43381429999954,,,,,,,,0,1,1.1288535999992746,None,,,,,,,,839,25,M,R,2026-02-25_12h16.59.573,VisualSearch_2526_3,,2025.2.4,2026-02-25 12h16.59.804802 +0100,
tilted.xlsx,The target is tilted.,117,36,4,4,1,0,0,0,0,0,0,0,0,0,0,0,0,0,1,117,space,21.234808399999565,None,1,1,0.5362479999994321,None,space,2.156667500000367,None,0,0,0,0,,,,,4,4,36,3,150.7800983999996,,,,,,,,,,,,,,,,,,,,,150.76471309999943,150.7800983999996,151.26357729999927,151.26818209999965,151.28568539999924,151.8308846,,,,,151.83106439999938,151.84609379999984,152.04633789999934,152.02981369999998,151.28568539999924,,,,,,,,1,1,0.5362479999994321,None,,,,,,,,839,25,M,R,2026-02-25_12h16.59.573,VisualSearch_2526_3,,2025.2.4,2026-02-25 12h16.59.804802 +0100,
tilted.xlsx,The target is tilted.,117,37,5,4,1,1,1,1,0,0,0,0,0,0,0,0,0,3,4,117,space,21.234808399999565,None,1,1,0.9020656000002418,None,space,2.156667500000367,None,0,0,0,0,,,,,4,5,37,2,152.04633789999934,,,,,,,,,,,,,,,,,,,,,152.03042559999994,152.04633789999934,152.53054729999985,152.5358723999998,152.55118979999952,153.46431909999956,,,,,153.4645541,153.47914909999963,153.67930539999998,153.6636714999995,152.55118979999952,,,,,,,,1,1,0.9020656000002418,None,,,,,,,,839,25,M,R,2026-02-25_12h16.59.573,VisualSearch_2526_3,,2025.2.4,2026-02-25 12h16.59.804802 +0100,
tilted.xlsx,The target is tilted.,117,38,6,4,0,1,1,1,1,1,1,1,1,1,1,1,1,11,12,117,space,21.234808399999565,None,0,1,1.6073897000005672,None,space,2.156667500000367,None,0,0,0,0,,,,,4,6,38,4,153.67930539999998,,,,,,,,,,,,,,,,,,,,,153.66442779999943,153.67930539999998,154.1632927999999,154.16792109999915,154.18451809999988,155.79680669999925,,,,,155.79698569999982,155.81206249999923,156.01216549999936,155.99643689999994,154.18451809999988,,,,,,,,0,1,1.6073897000005672,None,,,,,,,,839,25,M,R,2026-02-25_12h16.59.573,VisualSearch_2526_3,,2025.2.4,2026-02-25 12h16.59.804802 +0100,
tilted.xlsx,The target is tilted.,117,39,7,4,1,1,1,1,1,1,1,1,0,0,0,0,0,7,8,117,space,21.234808399999565,None,0,0,1.606542100000297,None,space,2.156667500000367,None,0,0,0,0,,,,,4,7,39,1,156.01216549999936,,,,,,,,,,,,,,,,,,,,,155.9972074999996,156.01216549999936,156.49606069999936,156.50068529999953,156.51260439999987,158.12996349999958,,,,,158.1301642999997,158.14503029999923,158.34546479999972,158.3292668999993,156.51260439999987,,,,,,,,0,0,1.606542100000297,None,,,,,,,,839,25,M,R,2026-02-25_12h16.59.573,VisualSearch_2526_3,,2025.2.4,2026-02-25 12h16.59.804802 +0100,
tilted.xlsx,The target is tilted.,117,40,0,5,1,1,1,1,1,1,1,1,0,0,0,0,0,7,8,117,space,21.234808399999565,None,1,1,1.4796339000004082,None,space,2.156667500000367,None,0,0,0,0,,,,,5,0,40,1,158.34546479999972,,,,,,,,,,,,,,,,,,,,,158.33000919999995,158.34546479999972,158.82943309999973,158.83453089999966,158.8525307,160.34596989999955,,,,,160.3461069999994,160.36123379999935,160.56191059999946,160.54567209999914,158.8525307,,,,,,,,1,1,1.4796339000004082,None,,,,,,,,839,25,M,R,2026-02-25_12h16.59.573,VisualSearch_2526_3,,2025.2.4,2026-02-25 12h16.59.804802 +0100,
tilted.xlsx,The target is tilted.,117,41,1,5,1,1,1,1,0,0,0,0,0,0,0,0,0,3,4,117,space,21.234808399999565,None,1,1,0.5952067999996871,None,space,2.156667500000367,None,0,0,0,0,,,,,5,1,41,2,160.56191059999946,,,,,,,,,,,,,,,,,,,,,160.54642569999942,160.56191059999946,161.04567469999984,161.0502424999995,161.06836769999973,161.67788719999953,,,,,161.67794439999943,161.69482489999973,,161.87836639999932,161.06836769999973,,,,,,,,1,1,0.5952067999996871,None,,,,,,,,839,25,M,R,2026-02-25_12h16.59.573,VisualSearch_2526_3,,2025.2.4,2026-02-25 12h16.59.804802 +0100,
tilted.xlsx,The target is tilted.,117,42,2,5,0,1,1,1,1,1,1,1,1,1,1,1,1,11,12,117,space,21.234808399999565,None,0,1,1.3296497999999701,None,space,2.156667500000367,None,0,0,0,0,,,,,5,2,42,4,161.8949563999995,,,,,,,,,,,,,,,,,,,,,161.87897669999984,161.8949563999995,162.37815969999974,162.38300489999983,162.3945303999999,163.7286409999997,,,,,163.7288251,163.74406069999986,163.94470619999993,163.92836819999957,,,,,,,,,0,1,1.3296497999999701,None,,,,,,,,839,25,M,R,2026-02-25_12h16.59.573,VisualSearch_2526_3,,2025.2.4,2026-02-25 12h16.59.804802 +0100,
tilted.xlsx,The target is tilted.,117,43,3,5,1,0,0,0,0,0,0,0,0,0,0,0,0,0,1,117,space,21.234808399999565,None,1,1,0.6375306999998429,None,space,2.156667500000367,None,0,0,0,0,,,,,5,3,43,3,163.94470619999993,,,,,,,,,,,,,,,,,,,,,163.92911689999983,163.94470619999993,164.42842539999947,164.43364099999962,164.44969089999995,165.09526659999938,,,,,165.09542799999963,165.11049229999935,165.31111349999992,165.29499589999978,164.44969089999995,,,,,,,,1,1,0.6375306999998429,None,,,,,,,,839,25,M,R,2026-02-25_12h16.59.573,VisualSearch_2526_3,,2025.2.4,2026-02-25 12h16.59.804802 +0100,
tilted.xlsx,The target is tilted.,117,44,4,5,0,0,0,0,0,0,0,0,0,0,0,0,1,1,1,117,space,21.234808399999565,None,0,1,0.7812758000000031,None,space,2.156667500000367,None,0,0,0,0,,,,,5,4,44,7,165.31111349999992,,,,,,,,,,,,,,,,,,,,,165.29572689999986,165.31111349999992,165.79488799999945,165.79955869999958,165.8162085999993,166.61120570000003,,,,,166.61142409999957,166.62688799999978,166.82741739999983,166.81097169999975,165.8162085999993,,,,,,,,0,1,0.7812758000000031,None,,,,,,,,839,25,M,R,2026-02-25_12h16.59.573,VisualSearch_2526_3,,2025.2.4,2026-02-25 12h16.59.804802 +0100,
tilted.xlsx,The target is tilted.,117,45,5,5,1,1,1,1,1,1,1,1,1,1,1,1,0,11,12,117,space,21.234808399999565,None,1,1,1.3914453999996113,None,space,2.156667500000367,None,0,0,0,0,,,,,5,5,45,0,166.82741739999983,,,,,,,,,,,,,,,,,,,,,166.81180739999945,166.82741739999983,167.31134209999982,167.31595039999956,167.33396689999972,168.7277314999992,,,,,168.72791419999976,168.74323289999938,168.94371709999996,168.92747639999925,167.33396689999972,,,,,,,,1,1,1.3914453999996113,None,,,,,,,,839,25,M,R,2026-02-25_12h16.59.573,VisualSearch_2526_3,,2025.2.4,2026-02-25 12h16.59.804802 +0100,
tilted.xlsx,The target is tilted.,117,46,6,5,0,1,1,1,0,0,0,0,0,0,0,0,1,3,4,117,space,21.234808399999565,None,0,1,0.764854899999591,None,space,2.156667500000367,None,0,0,0,0,,,,,5,6,46,6,168.94371709999996,,,,,,,,,,,,,,,,,,,,,168.9281463999996,168.94371709999996,169.42735439999979,169.43142499999976,169.44395709999935,170.21122519999972,,,,,170.21141259999968,170.22634500000004,170.42644029999974,170.41055189999952,169.44395709999935,,,,,,,,0,1,0.764854899999591,None,,,,,,,,839,25,M,R,2026-02-25_12h16.59.573,VisualSearch_2526_3,,2025.2.4,2026-02-25 12h16.59.804802 +0100,
tilted.xlsx,The target is tilted.,117,47,7,5,0,1,1,1,1,1,1,1,0,0,0,0,1,7,8,117,space,21.234808399999565,None,0,1,1.389367200000379,None,space,2.156667500000367,None,0,0,0,0,,,,,5,7,47,5,170.42644029999974,,,,,,,,,,,,,,,,,,,,,170.4112430999994,170.42644029999974,170.91058089999933,170.91530919999968,170.93088759999955,172.32743570000002,,,,,172.32761799999935,172.34260299999914,172.54325999999946,172.52689809999993,170.93088759999955,,,,,,,,0,1,1.389367200000379,None,,,,,,,,839,25,M,R,2026-02-25_12h16.59.573,VisualSearch_2526_3,,2025.2.4,2026-02-25 12h16.59.804802 +0100,
tilted.xlsx,The target is tilted.,117,48,0,6,1,1,1,1,0,0,0,0,0,0,0,0,0,3,4,117,space,21.234808399999565,None,1,1,0.6679157999997187,None,space,2.156667500000367,None,0,0,0,0,,,,,6,0,48,2,172.54325999999946,,,,,,,,,,,,,,,,,,,,,172.52765159999944,172.54325999999946,173.02660469999955,173.0312701999992,173.04768459999923,173.72747399999935,,,,,173.72767979999935,173.74250369999936,173.94294119999995,173.92679150000004,173.04768459999923,,,,,,,,1,1,0.6679157999997187,None,,,,,,,,839,25,M,R,2026-02-25_12h16.59.573,VisualSearch_2526_3,,2025.2.4,2026-02-25 12h16.59.804802 +0100,
tilted.xlsx,The target is tilted.,117,49,1,6,1,0,0,0,0,0,0,0,0,0,0,0,0,0,1,117,space,21.234808399999565,None,1,1,0.5751962999993339,None,space,2.156667500000367,None,0,0,0,0,,,,,6,1,49,3,173.94294119999995,,,,,,,,,,,,,,,,,,,,,173.9275549999993,173.94294119999995,174.42691339999965,174.43157639999936,174.4482756999996,175.0268946999995,,,,,175.02709529999993,175.04222429999936,175.24278149999918,175.22665269999925,174.4482756999996,,,,,,,,1,1,0.5751962999993339,None,,,,,,,,839,25,M,R,2026-02-25_12h16.59.573,VisualSearch_2526_3,,2025.2.4,2026-02-25 12h16.59.804802 +0100,
tilted.xlsx,The target is tilted.,117,50,2,6,0,1,1,1,1,1,1,1,0,0,0,0,1,7,8,117,space,21.234808399999565,None,0,1,1.2697064000003593,None,space,2.156667500000367,None,0,0,0,0,,,,,6,2,50,5,175.24278149999918,,,,,,,,,,,,,,,,,,,,,175.22737009999946,175.24278149999918,175.72653079999964,175.73128719999931,175.74906609999925,177.0263075999992,,,,,177.02650839999933,177.0418278999996,177.2423743999998,177.22642149999956,175.74906609999925,,,,,,,,0,1,1.2697064000003593,None,,,,,,,,839,25,M,R,2026-02-25_12h16.59.573,VisualSearch_2526_3,,2025.2.4,2026-02-25 12h16.59.804802 +0100,
tilted.xlsx,The target is tilted.,117,51,3,6,0,0,0,0,0,0,0,0,0,0,0,0,1,1,1,117,space,21.234808399999565,None,0,1,0.48563389999981155,None,space,2.156667500000367,None,0,0,0,0,,,,,6,3,51,7,177.2423743999998,,,,,,,,,,,,,,,,,,,,,177.22716299999956,177.2423743999998,177.72625639999933,177.73083749999932,177.74878479999916,178.24331619999975,,,,,178.24349379999967,178.2583356999994,178.4588561999999,178.4427883999997,177.74878479999916,,,,,,,,0,1,0.48563389999981155,None,,,,,,,,839,25,M,R,2026-02-25_12h16.59.573,VisualSearch_2526_3,,2025.2.4,2026-02-25 12h16.59.804802 +0100,
tilted.xlsx,The target is tilted.,117,52,4,6,1,1,1,1,1,1,1,1,0,0,0,0,0,7,8,117,space,21.234808399999565,None,1,1,1.057335499999681,None,space,2.156667500000367,None,0,0,0,0,,,,,6,4,52,1,178.4588561999999,,,,,,,,,,,,,,,,,,,,,178.44350779999968,178.4588561999999,178.94265579999956,178.94723029999932,178.96410689999993,180.0262229,,,,,180.02640389999942,180.04128839999976,180.2413987,180.2258654999996,178.96410689999993,,,,,,,,1,1,1.057335499999681,None,,,,,,,,839,25,M,R,2026-02-25_12h16.59.573,VisualSearch_2526_3,,2025.2.4,2026-02-25 12h16.59.804802 +0100,
tilted.xlsx,The target is tilted.,117,53,5,6,1,1,1,1,1,1,1,1,1,1,1,1,0,11,12,117,space,21.234808399999565,None,1,1,1.4933744999998453,None,space,2.156667500000367,None,0,0,0,0,,,,,6,5,53,0,180.2413987,,,,,,,,,,,,,,,,,,,,,180.22705659999974,180.2413987,180.72558609999942,180.73013509999964,180.74612839999918,182.24258959999952,,,,,182.24277079999956,182.2576855999996,182.45779419999963,182.44170549999944,180.74612839999918,,,,,,,,1,1,1.4933744999998453,None,,,,,,,,839,25,M,R,2026-02-25_12h16.59.573,VisualSearch_2526_3,,2025.2.4,2026-02-25 12h16.59.804802 +0100,
tilted.xlsx,The target is tilted.,117,54,6,6,0,1,1,1,1,1,1,1,1,1,1,1,1,11,12,117,space,21.234808399999565,None,0,1,1.40249810000023,None,space,2.156667500000367,None,0,0,0,0,,,,,6,6,54,4,182.45779419999963,,,,,,,,,,,,,,,,,,,,,182.4424483999992,182.45779419999963,182.94194309999966,182.9466597999999,182.9645413999997,184.3755326999999,,,,,184.3757117999994,184.39059299999917,184.59122089999983,184.57509629999913,182.9645413999997,,,,,,,,0,1,1.40249810000023,None,,,,,,,,839,25,M,R,2026-02-25_12h16.59.573,VisualSearch_2526_3,,2025.2.4,2026-02-25 12h16.59.804802 +0100,
tilted.xlsx,The target is tilted.,117,55,7,6,0,1,1,1,0,0,0,0,0,0,0,0,1,3,4,117,space,21.234808399999565,None,0,1,0.6111033999995925,None,space,2.156667500000367,None,0,0,0,0,,,,,6,7,55,6,184.59122089999983,,,,,,,,,,,,,,,,,,,,,184.57581109999956,184.59122089999983,185.07500039999923,185.07962489999954,185.0959340999998,185.70846579999943,,,,,185.7086645999998,185.72375589999956,185.9243704999999,185.90794019999976,185.0959340999998,,,,,,,,0,1,0.6111033999995925,None,,,,,,,,839,25,M,R,2026-02-25_12h16.59.573,VisualSearch_2526_3,,2025.2.4,2026-02-25 12h16.59.804802 +0100,
tilted.xlsx,The target is tilted.,117,56,0,7,0,1,1,1,1,1,1,1,0,0,0,0,1,7,8,117,space,21.234808399999565,None,0,1,1.260636599999998,None,space,2.156667500000367,None,0,0,0,0,,,,,7,0,56,5,185.9243704999999,,,,,,,,,,,,,,,,,,,,,185.90868030000001,185.9243704999999,186.40787659999933,186.41255759999967,186.42834669999957,187.69128619999992,,,,,187.69146179999916,187.70672169999943,187.90685849999954,187.89114139999947,186.42834669999957,,,,,,,,0,1,1.260636599999998,None,,,,,,,,839,25,M,R,2026-02-25_12h16.59.573,VisualSearch_2526_3,,2025.2.4,2026-02-25 12h16.59.804802 +0100,
tilted.xlsx,The target is tilted.,117,57,1,7,1,1,1,1,0,0,0,0,0,0,0,0,0,3,4,117,space,21.234808399999565,None,1,1,0.5735039000001052,None,space,2.156667500000367,None,0,0,0,0,,,,,7,1,57,2,187.90685849999954,,,,,,,,,,,,,,,,,,,,,187.89187979999951,187.90685849999954,188.3912023999992,188.39660319999984,188.41195369999969,188.99104349999925,,,,,188.99121999999988,189.00659579999956,189.20668709999973,189.19094309999946,188.41195369999969,,,,,,,,1,1,0.5735039000001052,None,,,,,,,,839,25,M,R,2026-02-25_12h16.59.573,VisualSearch_2526_3,,2025.2.4,2026-02-25 12h16.59.804802 +0100,
tilted.xlsx,The target is tilted.,117,58,2,7,1,1,1,1,1,1,1,1,1,1,1,1,0,11,12,117,space,21.234808399999565,None,1,1,1.5642502000000604,None,space,2.156667500000367,None,0,0,0,0,,,,,7,2,58,0,189.20668709999973,,,,,,,,,,,,,,,,,,,,,189.19166139999925,189.20668709999973,189.69090529999994,189.69562399999995,189.7108804999998,191.2902451,,,,,191.2904009999993,191.30600389999927,191.50655969999934,191.49014439999974,189.7108804999998,,,,,,,,1,1,1.5642502000000604,None,,,,,,,,839,25,M,R,2026-02-25_12h16.59.573,VisualSearch_2526_3,,2025.2.4,2026-02-25 12h16.59.804802 +0100,
tilted.xlsx,The target is tilted.,117,59,3,7,1,1,1,1,1,1,1,1,0,0,0,0,0,7,8,117,space,21.234808399999565,None,1,1,1.0869825999998284,None,space,2.156667500000367,None,0,0,0,0,,,,,7,3,59,1,191.50655969999934,,,,,,,,,,,,,,,,,,,,,191.49088979999942,191.50655969999934,191.99054389999947,191.99503429999913,192.00999409999986,193.1067837999999,,,,,193.10695889999988,193.12245910000001,193.3229249999995,193.30659119999927,192.00999409999986,,,,,,,,1,1,1.0869825999998284,None,,,,,,,,839,25,M,R,2026-02-25_12h16.59.573,VisualSearch_2526_3,,2025.2.4,2026-02-25 12h16.59.804802 +0100,
tilted.xlsx,The target is tilted.,117,60,4,7,0,0,0,0,0,0,0,0,0,0,0,0,1,1,1,117,space,21.234808399999565,None,0,1,0.5123049000003448,None,space,2.156667500000367,None,0,0,0,0,,,,,7,4,60,7,193.3229249999995,,,,,,,,,,,,,,,,,,,,,193.30733019999934,193.3229249999995,193.8068405999993,193.81141200000002,193.8283019999999,194.3565463999994,,,,,194.35672519999935,194.37218239999947,194.5728898999996,194.55676409999978,193.8283019999999,,,,,,,,0,1,0.5123049000003448,None,,,,,,,,839,25,M,R,2026-02-25_12h16.59.573,VisualSearch_2526_3,,2025.2.4,2026-02-25 12h16.59.804802 +0100,
tilted.xlsx,The target is tilted.,117,61,5,7,0,1,1,1,1,1,1,1,1,1,1,1,1,11,12,117,space,21.234808399999565,None,0,1,2.442059699999845,None,space,2.156667500000367,None,0,0,0,0,,,,,7,5,61,4,194.5728898999996,,,,,,,,,,,,,,,,,,,,,194.55749839999953,194.5728898999996,195.0565872999996,195.06128790000002,195.0780464999998,197.52346259999922,,,,,197.52364409999973,197.5383994999993,197.73892429999978,197.72270909999952,195.0780464999998,,,,,,,,0,1,2.442059699999845,None,,,,,,,,839,25,M,R,2026-02-25_12h16.59.573,VisualSearch_2526_3,,2025.2.4,2026-02-25 12h16.59.804802 +0100,
tilted.xlsx,The target is tilted.,117,62,6,7,1,0,0,0,0,0,0,0,0,0,0,0,0,0,1,117,space,21.234808399999565,None,1,1,0.5161425000005693,None,space,2.156667500000367,None,0,0,0,0,,,,,7,6,62,3,197.73892429999978,,,,,,,,,,,,,,,,,,,,,197.72340919999988,197.73892429999978,198.22232769999937,198.22682969999914,198.23873279999953,198.75684469999942,,,,,198.75704609999957,198.77156379999997,198.97201849999965,198.95568129999992,198.23873279999953,,,,,,,,1,1,0.5161425000005693,None,,,,,,,,839,25,M,R,2026-02-25_12h16.59.573,VisualSearch_2526_3,,2025.2.4,2026-02-25 12h16.59.804802 +0100,
tilted.xlsx,The target is tilted.,117,63,7,7,0,1,1,1,0,0,0,0,0,0,0,0,1,3,4,117,space,21.234808399999565,None,0,1,0.6344462999995812,None,space,2.156667500000367,None,0,0,0,0,,,,,7,7,63,6,198.97201849999965,,,,,,,,,,,,,,,,,,,,,198.95641009999963,198.97201849999965,199.4561490999995,199.46107009999923,199.47900859999936,200.1229218999997,,,,,200.12309809999988,200.13801869999952,200.3381492999997,200.32242099999985,199.47900859999936,,,,,,,,0,1,0.6344462999995812,None,,,,,,,,839,25,M,R,2026-02-25_12h16.59.573,VisualSearch_2526_3,,2025.2.4,2026-02-25 12h16.59.804802 +0100,
tilted.xlsx,The target is tilted.,117,64,0,8,0,0,0,0,0,0,0,0,0,0,0,0,1,1,1,117,space,21.234808399999565,None,0,1,0.4958291000002646,None,space,2.156667500000367,None,0,0,0,0,,,,,8,0,64,7,200.3381492999997,,,,,,,,,,,,,,,,,,,,,200.32319879999977,200.3381492999997,200.82246269999996,200.82777539999915,200.84422099999938,201.35548589999962,,,,,201.35569759999998,201.37112139999954,201.57171649999964,201.5551857999999,200.84422099999938,,,,,,,,0,1,0.4958291000002646,None,,,,,,,,839,25,M,R,2026-02-25_12h16.59.573,VisualSearch_2526_3,,2025.2.4,2026-02-25 12h16.59.804802 +0100,
tilted.xlsx,The target is tilted.,117,65,1,8,1,1,1,1,1,1,1,1,0,0,0,0,0,7,8,117,space,21.234808399999565,None,1,1,0.6819212000000334,None,space,2.156667500000367,None,0,0,0,0,,,,,8,1,65,1,201.57171649999964,,,,,,,,,,,,,,,,,,,,,201.55593649999992,201.57171649999964,202.05501979999917,202.0592844999992,202.0710167999996,202.75567259999934,,,,,202.75583629999983,202.77089660000001,202.9714973,202.95533559999967,202.0710167999996,,,,,,,,1,1,0.6819212000000334,None,,,,,,,,839,25,M,R,2026-02-25_12h16.59.573,VisualSearch_2526_3,,2025.2.4,2026-02-25 12h16.59.804802 +0100,
tilted.xlsx,The target is tilted.,117,66,2,8,0,1,1,1,1,1,1,1,1,1,1,1,1,11,12,117,space,21.234808399999565,None,0,1,2.1031653999998525,None,space,2.156667500000367,None,0,0,0,0,,,,,8,2,66,4,202.9714973,,,,,,,,,,,,,,,,,,,,,202.9560606999994,202.9714973,203.45545799999945,203.46065559999988,203.47741319999932,205.5885935999995,,,,,205.5887692999995,205.60372149999966,205.8041401999999,205.78804059999948,203.47741319999932,,,,,,,,0,1,2.1031653999998525,None,,,,,,,,839,25,M,R,2026-02-25_12h16.59.573,VisualSearch_2526_3,,2025.2.4,2026-02-25 12h16.59.804802 +0100,
tilted.xlsx,The target is tilted.,117,67,3,8,1,0,0,0,0,0,0,0,0,0,0,0,0,0,1,117,space,21.234808399999565,None,1,1,0.658672700000352,None,space,2.156667500000367,None,0,0,0,0,,,,,8,3,67,3,205.8041401999999,,,,,,,,,,,,,,,,,,,,,205.78880279999976,205.8041401999999,206.2879611999997,206.2927297999995,206.30737999999928,206.97164789999988,,,,,206.9718129999992,206.98683489999985,207.1872389,207.17121469999984,206.30737999999928,,,,,,,,1,1,0.658672700000352,None,,,,,,,,839,25,M,R,2026-02-25_12h16.59.573,VisualSearch_2526_3,,2025.2.4,2026-02-25 12h16.59.804802 +0100,
tilted.xlsx,The target is tilted.,117,68,4,8,1,1,1,1,0,0,0,0,0,0,0,0,0,3,4,117,space,21.234808399999565,None,1,1,0.6160748000002059,None,space,2.156667500000367,None,0,0,0,0,,,,,8,4,68,2,207.1872389,,,,,,,,,,,,,,,,,,,,,207.17200030000004,207.1872389,207.67078279999987,207.6755478999994,207.68994229999953,208.32075639999948,,,,,208.3209210999994,208.33654399999978,208.53682619999927,208.52082639999935,207.68994229999953,,,,,,,,1,1,0.6160748000002059,None,,,,,,,,839,25,M,R,2026-02-25_12h16.59.573,VisualSearch_2526_3,,2025.2.4,2026-02-25 12h16.59.804802 +0100,
tilted.xlsx,The target is tilted.,117,69,5,8,1,1,1,1,1,1,1,1,1,1,1,1,0,11,12,117,space,21.234808399999565,None,0,0,1.7345805000004475,None,space,2.156667500000367,None,0,0,0,0,,,,,8,5,69,0,208.53682619999927,,,,,,,,,,,,,,,,,,,,,208.5215873999996,208.53682619999927,209.02094399999987,209.0255677999994,209.0423299999993,210.78761179999947,,,,,210.78779619999932,210.80294859999958,211.00329839999995,210.98701170000004,209.0423299999993,,,,,,,,0,0,1.7345805000004475,None,,,,,,,,839,25,M,R,2026-02-25_12h16.59.573,VisualSearch_2526_3,,2025.2.4,2026-02-25 12h16.59.804802 +0100,
tilted.xlsx,The target is tilted.,117,70,6,8,0,1,1,1,0,0,0,0,0,0,0,0,1,3,4,117,space,21.234808399999565,None,0,1,0.6355502999995224,None,space,2.156667500000367,None,0,0,0,0,,,,,8,6,70,6,211.00329839999995,,,,,,,,,,,,,,,,,,,,,210.98768010000003,211.00329839999995,211.48706270000002,211.49173489999976,211.50793350000004,212.1542798999999,,,,,212.15445509999972,212.16929099999925,212.36984159999975,212.35374169999977,211.50793350000004,,,,,,,,0,1,0.6355502999995224,None,,,,,,,,839,25,M,R,2026-02-25_12h16.59.573,VisualSearch_2526_3,,2025.2.4,2026-02-25 12h16.59.804802 +0100,
tilted.xlsx,The target is tilted.,117,71,7,8,0,1,1,1,1,1,1,1,0,0,0,0,1,7,8,117,space,21.234808399999565,None,0,1,0.903303699999924,None,space,2.156667500000367,None,0,0,0,0,,,,,8,7,71,5,212.36984159999975,,,,,,,,,,,,,,,,,,,,,212.35444869999992,212.36984159999975,212.8536392999995,212.85817679999946,212.87372089999917,213.7880970999995,,,,,213.78829049999968,213.8024175999999,214.00308889999997,213.98680949999925,212.87372089999917,,,,,,,,0,1,0.903303699999924,None,,,,,,,,839,25,M,R,2026-02-25_12h16.59.573,VisualSearch_2526_3,,2025.2.4,2026-02-25 12h16.59.804802 +0100,
tilted.xlsx,The target is tilted.,117,72,0,9,1,1,1,1,0,0,0,0,0,0,0,0,0,3,4,117,space,21.234808399999565,None,0,0,0.6453442000001814,None,space,2.156667500000367,None,0,0,0,0,,,,,9,0,72,2,214.00308889999997,,,,,,,,,,,,,,,,,,,,,213.98752519999925,214.00308889999997,214.48667569999998,214.49131399999987,214.50795799999923,215.16975999999977,,,,,215.1699222999996,215.18552999999974,215.3860937999998,215.3694272999992,214.50795799999923,,,,,,,,0,0,0.6453442000001814,None,,,,,,,,839,25,M,R,2026-02-25_12h16.59.573,VisualSearch_2526_3,,2025.2.4,2026-02-25 12h16.59.804802 +0100,
tilted.xlsx,The target is tilted.,117,73,1,9,0,1,1,1,0,0,0,0,0,0,0,0,1,3,4,117,space,21.234808399999565,None,0,1,0.5623340000001917,None,space,2.156667500000367,None,0,0,0,0,,,,,9,1,73,6,215.3860937999998,,,,,,,,,,,,,,,,,,,,,215.37015559999963,215.3860937999998,215.86977219999972,215.87445499999922,215.89013979999982,216.45368149999922,,,,,216.45387929999924,216.46868409999934,216.66916799999944,216.65299799999957,215.89013979999982,,,,,,,,0,1,0.5623340000001917,None,,,,,,,,839,25,M,R,2026-02-25_12h16.59.573,VisualSearch_2526_3,,2025.2.4,2026-02-25 12h16.59.804802 +0100,
tilted.xlsx,The target is tilted.,117,74,2,9,1,1,1,1,1,1,1,1,0,0,0,0,0,7,8,117,space,21.234808399999565,None,0,0,1.1217662000008204,None,space,2.156667500000367,None,0,0,0,0,,,,,9,2,74,1,216.66916799999944,,,,,,,,,,,,,,,,,,,,,216.6537329999992,216.66916799999944,217.15289009999924,217.15747789999932,217.1746481,218.30278679999992,,,,,218.30296439999984,218.3182896999997,218.51874309999948,218.50248959999954,217.1746481,,,,,,,,0,0,1.1217662000008204,None,,,,,,,,839,25,M,R,2026-02-25_12h16.59.573,VisualSearch_2526_3,,2025.2.4,2026-02-25 12h16.59.804802 +0100,
tilted.xlsx,The target is tilted.,117,75,3,9,1,0,0,0,0,0,0,0,0,0,0,0,0,0,1,117,space,21.234808399999565,None,1,1,0.5464419999998427,None,space,2.156667500000367,None,0,0,0,0,,,,,9,3,75,3,218.51874309999948,,,,,,,,,,,,,,,,,,,,,218.50323899999967,218.51874309999948,219.00244849999945,219.00587659999928,219.0181032999999,219.56937059999927,,,,,219.56954379999934,219.5847236999998,219.78536079999958,219.76911810000001,219.0181032999999,,,,,,,,1,1,0.5464419999998427,None,,,,,,,,839,25,M,R,2026-02-25_12h16.59.573,VisualSearch_2526_3,,2025.2.4,2026-02-25 12h16.59.804802 +0100,
tilted.xlsx,The target is tilted.,117,76,4,9,0,1,1,1,1,1,1,1,1,1,1,1,1,11,12,117,space,21.234808399999565,None,0,1,1.7523834000003262,None,space,2.156667500000367,None,0,0,0,0,,,,,9,4,76,4,219.78536079999958,,,,,,,,,,,,,,,,,,,,,219.76986859999943,219.78536079999958,220.26902569999947,220.27372469999955,220.29077609999968,222.05262029999994,,,,,222.0527809999994,222.06766199999947,222.26774979999936,222.2516059999998,220.29077609999968,,,,,,,,0,1,1.7523834000003262,None,,,,,,,,839,25,M,R,2026-02-25_12h16.59.573,VisualSearch_2526_3,,2025.2.4,2026-02-25 12h16.59.804802 +0100,
tilted.xlsx,The target is tilted.,117,77,5,9,0,1,1,1,1,1,1,1,0,0,0,0,1,7,8,117,space,21.234808399999565,None,0,1,1.3344030999996903,None,space,2.156667500000367,None,0,0,0,0,,,,,9,5,77,5,222.26774979999936,,,,,,,,,,,,,,,,,,,,,222.2524016999996,222.26774979999936,222.75182089999998,222.7565095,222.7718793999993,224.11882609999975,,,,,224.11900259999948,224.1339780999997,224.33453809999992,224.31828079999923,222.7718793999993,,,,,,,,0,1,1.3344030999996903,None,,,,,,,,839,25,M,R,2026-02-25_12h16.59.573,VisualSearch_2526_3,,2025.2.4,2026-02-25 12h16.59.804802 +0100,
tilted.xlsx,The target is tilted.,117,78,6,9,0,0,0,0,0,0,0,0,0,0,0,0,1,1,1,117,space,21.234808399999565,None,0,1,0.5617813999997452,None,space,2.156667500000367,None,0,0,0,0,,,,,9,6,78,7,224.33453809999992,,,,,,,,,,,,,,,,,,,,,224.31902489999993,224.33453809999992,224.8182208999997,224.82275129999925,224.8386563999993,225.4021004999995,,,,,225.40227739999955,225.41705529999945,225.61751119999917,225.60140989999945,224.8386563999993,,,,,,,,0,1,0.5617813999997452,None,,,,,,,,839,25,M,R,2026-02-25_12h16.59.573,VisualSearch_2526_3,,2025.2.4,2026-02-25 12h16.59.804802 +0100,
tilted.xlsx,The target is tilted.,117,79,7,9,1,1,1,1,1,1,1,1,1,1,1,1,0,11,12,117,space,21.234808399999565,None,1,1,1.879274500000065,None,space,2.156667500000367,None,0,0,0,0,,,,,9,7,79,0,225.61751119999917,,,,,,,,,,,,,,,,,,,,,225.60207419999915,225.61751119999917,226.10104069999943,226.10566889999973,226.12183509999977,228.01688509999985,,,,,228.0169905999992,228.03320219999932,,228.21716449999985,226.12183509999977,,,,,,,,1,1,1.879274500000065,None,,,,,,,,839,25,M,R,2026-02-25_12h16.59.573,VisualSearch_2526_3,,2025.2.4,2026-02-25 12h16.59.804802 +0100,
tilted.xlsx,The target is tilted.,117,80,0,10,0,1,1,1,1,1,1,1,0,0,0,0,1,7,8,117,space,21.234808399999565,None,0,1,1.4175853999995525,None,space,2.156667500000367,None,0,0,0,0,,,,,10,0,80,5,228.23400369999945,,,,,,,,,,,,,,,,,,,,,228.2179198999993,228.23400369999945,228.71709959999953,228.7217211999996,228.73828909999975,230.16759459999957,,,,,230.16776769999979,230.18297970000003,230.38346629999978,230.36701509999966,,,,,,,,,0,1,1.4175853999995525,None,,,,,,,,839,25,M,R,2026-02-25_12h16.59.573,VisualSearch_2526_3,,2025.2.4,2026-02-25 12h16.59.804802 +0100,
tilted.xlsx,The target is tilted.,117,81,1,10,1,1,1,1,0,0,0,0,0,0,0,0,0,3,4,117,space,21.234808399999565,None,1,1,0.980585099999189,None,space,2.156667500000367,None,0,0,0,0,,,,,10,1,81,2,230.38346629999978,,,,,,,,,,,,,,,,,,,,,230.3677807999993,230.38346629999978,230.86717869999939,230.87178029999995,230.89040189999923,231.88370059999943,,,,,231.88389189999998,231.89933839999958,232.09990789999938,232.08378979999998,230.89040189999923,,,,,,,,1,1,0.980585099999189,None,,,,,,,,839,25,M,R,2026-02-25_12h16.59.573,VisualSearch_2526_3,,2025.2.4,2026-02-25 12h16.59.804802 +0100,
tilted.xlsx,The target is tilted.,117,82,2,10,1,1,1,1,1,1,1,1,1,1,1,1,0,11,12,117,space,21.234808399999565,None,1,1,1.7927755000000616,None,space,2.156667500000367,None,0,0,0,0,,,,,10,2,82,0,232.09990789999938,,,,,,,,,,,,,,,,,,,,,232.08452399999987,232.09990789999938,232.58356689999982,232.58820429999923,232.60340319999978,234.40000599999985,,,,,234.40020919999915,234.41553789999944,234.61565339999925,234.59982199999922,232.60340319999978,,,,,,,,1,1,1.7927755000000616,None,,,,,,,,839,25,M,R,2026-02-25_12h16.59.573,VisualSearch_2526_3,,2025.2.4,2026-02-25 12h16.59.804802 +0100,
tilted.xlsx,The target is tilted.,117,83,3,10,0,1,1,1,0,0,0,0,0,0,0,0,1,3,4,117,space,21.234808399999565,None,0,1,0.7114547999999559,None,space,2.156667500000367,None,0,0,0,0,,,,,10,3,83,6,234.61565339999925,,,,,,,,,,,,,,,,,,,,,234.60048499999994,234.61565339999925,235.09990279999965,235.1044168999997,235.11936009999954,235.83364589999928,,,,,235.83381979999922,235.84868659999938,236.0491846999994,236.03289869999935,235.11936009999954,,,,,,,,0,1,0.7114547999999559,None,,,,,,,,839,25,M,R,2026-02-25_12h16.59.573,VisualSearch_2526_3,,2025.2.4,2026-02-25 12h16.59.804802 +0100,
tilted.xlsx,The target is tilted.,117,84,4,10,0,1,1,1,1,1,1,1,1,1,1,1,1,11,12,117,space,21.234808399999565,None,0,1,1.922483899999861,None,space,2.156667500000367,None,0,0,0,0,,,,,10,4,84,4,236.0491846999994,,,,,,,,,,,,,,,,,,,,,236.0335632999995,236.0491846999994,236.53254339999967,236.53670609999972,236.5488693999996,238.48248189999958,,,,,238.48262369999975,238.4981201999999,238.69808269999976,238.68216589999975,236.5488693999996,,,,,,,,0,1,1.922483899999861,None,,,,,,,,839,25,M,R,2026-02-25_12h16.59.573,VisualSearch_2526_3,,2025.2.4,2026-02-25 12h16.59.804802 +0100,
tilted.xlsx,The target is tilted.,117,85,5,10,1,1,1,1,1,1,1,1,0,0,0,0,0,7,8,117,space,21.234808399999565,None,1,1,1.633659600000101,None,space,2.156667500000367,None,0,0,0,0,,,,,10,5,85,1,238.69808269999976,,,,,,,,,,,,,,,,,,,,,238.68255239999962,238.69808269999976,239.1821704999993,239.1870145999992,239.20351479999954,240.84884939999938,,,,,240.84903139999915,240.8650063999994,241.06509929999993,241.0488880999992,239.20351479999954,,,,,,,,1,1,1.633659600000101,None,,,,,,,,839,25,M,R,2026-02-25_12h16.59.573,VisualSearch_2526_3,,2025.2.4,2026-02-25 12h16.59.804802 +0100,
tilted.xlsx,The target is tilted.,117,86,6,10,1,0,0,0,0,0,0,0,0,0,0,0,0,0,1,117,space,21.234808399999565,None,1,1,0.47585630000048695,None,space,2.156667500000367,None,0,0,0,0,,,,,10,6,86,3,241.06509929999993,,,,,,,,,,,,,,,,,,,,,241.04963429999952,241.06509929999993,241.54888289999963,241.55402109999977,241.57011739999962,242.04934709999998,,,,,242.04952109999977,242.06480349999947,242.26470289999997,242.24860839999928,241.57011739999962,,,,,,,,1,1,0.47585630000048695,None,,,,,,,,839,25,M,R,2026-02-25_12h16.59.573,VisualSearch_2526_3,,2025.2.4,2026-02-25 12h16.59.804802 +0100,
tilted.xlsx,The target is tilted.,117,87,7,10,0,0,0,0,0,0,0,0,0,0,0,0,1,1,1,117,space,21.234808399999565,None,0,1,0.5647260999994614,None,space,2.156667500000367,None,0,0,0,0,,,,,10,7,87,7,242.26470289999997,,,,,,,,,,,,,,,,,,,,,242.24934229999963,242.26470289999997,242.74877709999964,242.75394059999962,242.7700421999998,243.3491054999995,,,,,243.34930169999916,243.36462479999955,243.56432079999922,243.54842009999993,242.7700421999998,,,,,,,,0,1,0.5647260999994614,None,,,,,,,,839,25,M,R,2026-02-25_12h16.59.573,VisualSearch_2526_3,,2025.2.4,2026-02-25 12h16.59.804802 +0100,
tilted.xlsx,The target is tilted.,117,88,0,11,1,1,1,1,1,1,1,1,0,0,0,0,0,7,8,117,space,21.234808399999565,None,1,1,2.1338128999996115,None,space,2.156667500000367,None,0,0,0,0,,,,,11,0,88,1,243.56432079999922,,,,,,,,,,,,,,,,,,,,,243.54916409999987,243.56432079999922,244.04875379999976,244.05342999999993,244.06446629999937,246.21461659999932,,,,,246.21470219999992,246.2306013999996,246.43081059999986,246.4145187999993,244.06446629999937,,,,,,,,1,1,2.1338128999996115,None,,,,,,,,839,25,M,R,2026-02-25_12h16.59.573,VisualSearch_2526_3,,2025.2.4,2026-02-25 12h16.59.804802 +0100,
tilted.xlsx,The target is tilted.,117,89,1,11,1,1,1,1,0,0,0,0,0,0,0,0,0,3,4,117,space,21.234808399999565,None,1,1,0.7548209999995379,None,space,2.156667500000367,None,0,0,0,0,,,,,11,1,89,2,246.43081059999986,,,,,,,,,,,,,,,,,,,,,246.4152639999993,246.43081059999986,246.9145280999992,246.91879319999953,246.93472949999978,247.69841459999952,,,,,247.69860719999997,247.7138944999997,247.9136624999992,247.89716539999972,246.93472949999978,,,,,,,,1,1,0.7548209999995379,None,,,,,,,,839,25,M,R,2026-02-25_12h16.59.573,VisualSearch_2526_3,,2025.2.4,2026-02-25 12h16.59.804802 +0100,
tilted.xlsx,The target is tilted.,117,90,2,11,1,0,0,0,0,0,0,0,0,0,0,0,0,0,1,117,space,21.234808399999565,None,1,1,0.5153261999994356,None,space,2.156667500000367,None,0,0,0,0,,,,,11,2,90,3,247.9136624999992,,,,,,,,,,,,,,,,,,,,,247.89767099999972,247.9136624999992,248.3973664999994,248.40197519999947,248.41870069999914,248.94771539999965,,,,,248.9478984999996,248.96380639999916,249.16376939999918,249.14727689999927,248.41870069999914,,,,,,,,1,1,0.5153261999994356,None,,,,,,,,839,25,M,R,2026-02-25_12h16.59.573,VisualSearch_2526_3,,2025.2.4,2026-02-25 12h16.59.804802 +0100,
tilted.xlsx,The target is tilted.,117,91,3,11,1,1,1,1,1,1,1,1,1,1,1,1,0,11,12,117,space,21.234808399999565,None,0,0,1.8691693000000669,None,space,2.156667500000367,None,0,0,0,0,,,,,11,3,91,0,249.16376939999918,,,,,,,,,,,,,,,,,,,,,249.14800319999995,249.16376939999918,249.64724869999918,249.65179909999915,249.66825589999917,251.54749029999948,,,,,251.54766589999963,251.5631943999997,251.76335129999916,251.7470003999997,249.66825589999917,,,,,,,,0,0,1.8691693000000669,None,,,,,,,,839,25,M,R,2026-02-25_12h16.59.573,VisualSearch_2526_3,,2025.2.4,2026-02-25 12h16.59.804802 +0100,
tilted.xlsx,The target is tilted.,117,92,4,11,0,1,1,1,1,1,1,1,1,1,1,1,1,11,12,117,space,21.234808399999565,None,0,1,1.5750317000001814,None,space,2.156667500000367,None,0,0,0,0,,,,,11,4,92,4,251.76335129999916,,,,,,,,,,,,,,,,,,,,,251.74774489999982,251.76335129999916,252.24723689999973,252.25249069999973,252.26915729999928,253.84754239999984,,,,,253.84773159999986,253.86299619999954,254.0629057999995,254.04629339999974,252.26915729999928,,,,,,,,0,1,1.5750317000001814,None,,,,,,,,839,25,M,R,2026-02-25_12h16.59.573,VisualSearch_2526_3,,2025.2.4,2026-02-25 12h16.59.804802 +0100,
tilted.xlsx,The target is tilted.,117,93,5,11,0,0,0,0,0,0,0,0,0,0,0,0,1,1,1,117,space,21.234808399999565,None,0,1,0.699302500000158,None,space,2.156667500000367,None,0,0,0,0,,,,,11,5,93,7,254.0629057999995,,,,,,,,,,,,,,,,,,,,,254.04699170000004,254.0629057999995,254.5461891999994,254.55042029999913,254.56646829999954,255.28051439999945,,,,,255.2807129999992,255.2959478999992,255.49599189999935,255.4797450999995,254.56646829999954,,,,,,,,0,1,0.699302500000158,None,,,,,,,,839,25,M,R,2026-02-25_12h16.59.573,VisualSearch_2526_3,,2025.2.4,2026-02-25 12h16.59.804802 +0100,
tilted.xlsx,The target is tilted.,117,94,6,11,0,1,1,1,1,1,1,1,0,0,0,0,1,7,8,117,space,21.234808399999565,None,0,1,1.5349540000006527,None,space,2.156667500000367,None,0,0,0,0,,,,,11,6,94,5,255.49599189999935,,,,,,,,,,,,,,,,,,,,,255.4804927999994,255.49599189999935,255.97963779999918,255.98479249999946,256.00327409999954,257.54660739999963,,,,,257.54678219999914,257.5621867,257.76227299999937,257.74606139999923,256.00327409999954,,,,,,,,0,1,1.5349540000006527,None,,,,,,,,839,25,M,R,2026-02-25_12h16.59.573,VisualSearch_2526_3,,2025.2.4,2026-02-25 12h16.59.804802 +0100,
tilted.xlsx,The target is tilted.,117,95,7,11,0,1,1,1,0,0,0,0,0,0,0,0,1,3,4,117,space,21.234808399999565,None,0,1,0.581355899999835,None,space,2.156667500000367,None,0,0,0,0,,,,,11,7,95,6,257.76227299999937,,,,,,,,,,,,,,,,,,,,,257.7468073,257.76227299999937,258.24618269999974,258.2506582999995,258.2675400999997,258.86260329999914,,,,,258.8627940999995,258.8785810999998,259.0787244999992,259.06247039999926,258.2675400999997,,,,,,,,0,1,0.581355899999835,None,,,,,,,,839,25,M,R,2026-02-25_12h16.59.573,VisualSearch_2526_3,,2025.2.4,2026-02-25 12h16.59.804802 +0100,
tilted.xlsx,The target is tilted.,117,96,0,12,0,0,0,0,0,0,0,0,0,0,0,0,1,1,1,117,space,21.234808399999565,None,0,1,0.5299912000000404,None,space,2.156667500000367,None,0,0,0,0,,,,,12,0,96,7,259.0787244999992,,,,,,,,,,,,,,,,,,,,,259.06332869999915,259.0787244999992,259.5625737999999,259.5670414999995,259.5828438999997,260.1296765999996,,,,,260.1298741999999,260.1448047999993,260.34520339999926,260.3289047999997,259.5828438999997,,,,,,,,0,1,0.5299912000000404,None,,,,,,,,839,25,M,R,2026-02-25_12h16.59.573,VisualSearch_2526_3,,2025.2.4,2026-02-25 12h16.59.804802 +0100,
tilted.xlsx,The target is tilted.,117,97,1,12,1,1,1,1,1,1,1,1,1,1,1,1,0,11,12,117,space,21.234808399999565,None,0,0,2.0553878000000623,None,space,2.156667500000367,None,0,0,0,0,,,,,12,1,97,0,260.34520339999926,,,,,,,,,,,,,,,,,,,,,260.3296419999997,260.34520339999926,260.8291045999995,260.83429669999987,260.8501553999995,262.9123755999999,,,,,262.9125543,262.92796049999924,263.1279488,263.1119747999992,260.8501553999995,,,,,,,,0,0,2.0553878000000623,None,,,,,,,,839,25,M,R,2026-02-25_12h16.59.573,VisualSearch_2526_3,,2025.2.4,2026-02-25 12h16.59.804802 +0100,
tilted.xlsx,The target is tilted.,117,98,2,12,0,1,1,1,0,0,0,0,0,0,0,0,1,3,4,117,space,21.234808399999565,None,0,1,0.83863939999992,None,space,2.156667500000367,None,0,0,0,0,,,,,12,2,98,6,263.1279488,,,,,,,,,,,,,,,,,,,,,263.11275359999945,263.1279488,263.6119878999998,263.61650219999956,263.63412659999995,264.47854389999975,,,,,264.47871719999966,264.4941424999997,264.69444289999956,264.6782183999994,263.63412659999995,,,,,,,,0,1,0.83863939999992,None,,,,,,,,839,25,M,R,2026-02-25_12h16.59.573,VisualSearch_2526_3,,2025.2.4,2026-02-25 12h16.59.804802 +0100,
tilted.xlsx,The target is tilted.,117,99,3,12,1,1,1,1,0,0,0,0,0,0,0,0,0,3,4,117,space,21.234808399999565,None,1,1,0.8275236999998015,None,space,2.156667500000367,None,0,0,0,0,,,,,12,3,99,2,264.69444289999956,,,,,,,,,,,,,,,,,,,,,264.6789724999999,264.69444289999956,265.1783454999995,265.18375189999915,265.2019459999992,266.04536709999957,,,,,266.04557379999915,266.0604094999999,266.2608206999994,266.24457639999946,265.2019459999992,,,,,,,,1,1,0.8275236999998015,None,,,,,,,,839,25,M,R,2026-02-25_12h16.59.573,VisualSearch_2526_3,,2025.2.4,2026-02-25 12h16.59.804802 +0100,
tilted.xlsx,The target is tilted.,117,100,4,12,1,0,0,0,0,0,0,0,0,0,0,0,0,0,1,117,space,21.234808399999565,None,1,1,0.7009445000003325,None,space,2.156667500000367,None,0,0,0,0,,,,,12,4,100,3,266.2608206999994,,,,,,,,,,,,,,,,,,,,,266.2452979999998,266.2608206999994,266.74471469999935,266.74943639999947,266.7661105999996,267.4780885,,,,,267.4782878999995,267.49386819999927,267.6934953,267.6774519999999,266.7661105999996,,,,,,,,1,1,0.7009445000003325,None,,,,,,,,839,25,M,R,2026-02-25_12h16.59.573,VisualSearch_2526_3,,2025.2.4,2026-02-25 12h16.59.804802 +0100,
tilted.xlsx,The target is tilted.,117,101,5,12,0,1,1,1,1,1,1,1,1,1,1,1,1,11,12,117,space,21.234808399999565,None,0,1,1.978354500000023,None,space,2.156667500000367,None,0,0,0,0,,,,,12,5,101,4,267.6934953,,,,,,,,,,,,,,,,,,,,,267.6782199999998,267.6934953,268.1775500999993,268.1828192999992,268.19931759999963,270.1944980999997,,,,,270.19467429999986,270.2100762,270.4097364999998,270.3936592,268.19931759999963,,,,,,,,0,1,1.978354500000023,None,,,,,,,,839,25,M,R,2026-02-25_12h16.59.573,VisualSearch_2526_3,,2025.2.4,2026-02-25 12h16.59.804802 +0100,
tilted.xlsx,The target is tilted.,117,102,6,12,0,1,1,1,1,1,1,1,0,0,0,0,1,7,8,117,space,21.234808399999565,None,0,1,1.4210723999995025,None,space,2.156667500000367,None,0,0,0,0,,,,,12,6,102,5,270.4097364999998,,,,,,,,,,,,,,,,,,,,,270.39435499999945,270.4097364999998,270.89401669999916,270.8984934,270.91527139999926,272.3440871999992,,,,,272.3442613999996,272.35970949999955,272.55987209999967,272.5435439999992,270.91527139999926,,,,,,,,0,1,1.4210723999995025,None,,,,,,,,839,25,M,R,2026-02-25_12h16.59.573,VisualSearch_2526_3,,2025.2.4,2026-02-25 12h16.59.804802 +0100,
tilted.xlsx,The target is tilted.,117,103,7,12,1,1,1,1,1,1,1,1,0,0,0,0,0,7,8,117,space,21.234808399999565,None,0,0,1.4022236000000703,None,space,2.156667500000367,None,0,0,0,0,,,,,12,7,103,1,272.55987209999967,,,,,,,,,,,,,,,,,,,,,272.5442988999994,272.55987209999967,273.0434078999997,273.0479375999994,273.06910569999945,274.4769275999997,,,,,274.4770865999999,274.4926788999992,274.69283839999935,274.6767345999997,273.06910569999945,,,,,,,,0,0,1.4022236000000703,None,,,,,,,,839,25,M,R,2026-02-25_12h16.59.573,VisualSearch_2526_3,,2025.2.4,2026-02-25 12h16.59.804802 +0100,
tilted.xlsx,The target is tilted.,117,104,0,13,0,1,1,1,0,0,0,0,0,0,0,0,1,3,4,117,space,21.234808399999565,None,0,1,0.6254487999995035,None,space,2.156667500000367,None,0,0,0,0,,,,,13,0,104,6,274.69283839999935,,,,,,,,,,,,,,,,,,,,,274.67744929999935,274.69283839999935,275.1761024999996,275.17813119999937,275.1924578999997,275.82724829999916,,,,,275.8274943999995,275.84222619999946,276.0424843999999,276.02654559999974,275.1924578999997,,,,,,,,0,1,0.6254487999995035,None,,,,,,,,839,25,M,R,2026-02-25_12h16.59.573,VisualSearch_2526_3,,2025.2.4,2026-02-25 12h16.59.804802 +0100,
tilted.xlsx,The target is tilted.,117,105,1,13,1,1,1,1,1,1,1,1,0,0,0,0,0,7,8,117,space,21.234808399999565,None,0,0,1.6436939000004713,None,space,2.156667500000367,None,0,0,0,0,,,,,13,1,105,1,276.0424843999999,,,,,,,,,,,,,,,,,,,,,276.02727159999995,276.0424843999999,276.52643289999924,276.5309247999994,276.54604499999914,278.19304809999994,,,,,278.19322419999935,278.2087346999997,278.40884189999997,278.3923556999998,276.54604499999914,,,,,,,,0,0,1.6436939000004713,None,,,,,,,,839,25,M,R,2026-02-25_12h16.59.573,VisualSearch_2526_3,,2025.2.4,2026-02-25 12h16.59.804802 +0100,
tilted.xlsx,The target is tilted.,117,106,2,13,0,0,0,0,0,0,0,0,0,0,0,0,1,1,1,117,space,21.234808399999565,None,0,1,0.6536828999996942,None,space,2.156667500000367,None,0,0,0,0,,,,,13,2,106,7,278.40884189999997,,,,,,,,,,,,,,,,,,,,,278.3931187999997,278.40884189999997,278.8924804999997,278.8970153,278.9123869999994,279.57559499999934,,,,,279.5756797999993,279.59176149999985,279.79165439999997,279.77552769999966,278.9123869999994,,,,,,,,0,1,0.6536828999996942,None,,,,,,,,839,25,M,R,2026-02-25_12h16.59.573,VisualSearch_2526_3,,2025.2.4,2026-02-25 12h16.59.804802 +0100,
tilted.xlsx,The target is tilted.,117,107,3,13,1,0,0,0,0,0,0,0,0,0,0,0,0,0,1,117,space,21.234808399999565,None,0,0,0.3827400000000125,None,space,2.156667500000367,None,0,0,0,0,,,,,13,3,107,3,279.79165439999997,,,,,,,,,,,,,,,,,,,,,279.7762355999994,279.79165439999997,280.2753937999996,280.27991309999925,280.29586669999935,280.6929739999996,,,,,280.6932061999996,280.70834729999933,280.9083504,280.8922966,280.29586669999935,,,,,,,,0,0,0.3827400000000125,None,,,,,,,,839,25,M,R,2026-02-25_12h16.59.573,VisualSearch_2526_3,,2025.2.4,2026-02-25 12h16.59.804802 +0100,
tilted.xlsx,The target is tilted.,117,108,4,13,1,1,1,1,1,1,1,1,1,1,1,1,0,11,12,117,space,21.234808399999565,None,1,1,1.7496376999997665,None,space,2.156667500000367,None,0,0,0,0,,,,,13,4,108,0,280.9083504,,,,,,,,,,,,,,,,,,,,,280.8930109999992,280.9083504,281.3921501999994,281.3966774999999,281.4126847999996,283.17454029999953,,,,,283.17462720000003,283.1911911999996,,283.3749631999999,281.4126847999996,,,,,,,,1,1,1.7496376999997665,None,,,,,,,,839,25,M,R,2026-02-25_12h16.59.573,VisualSearch_2526_3,,2025.2.4,2026-02-25 12h16.59.804802 +0100,
tilted.xlsx,The target is tilted.,117,109,5,13,1,1,1,1,0,0,0,0,0,0,0,0,0,3,4,117,space,21.234808399999565,None,1,1,0.8436917999997604,None,space,2.156667500000367,None,0,0,0,0,,,,,13,5,109,2,283.3913935999999,,,,,,,,,,,,,,,,,,,,,283.3757292999999,283.3913935999999,283.8748423999996,283.8794633999996,283.89506639999945,284.74209249999967,,,,,284.7422538999999,284.7576395999995,284.95767439999963,284.9416111999999,,,,,,,,,1,1,0.8436917999997604,None,,,,,,,,839,25,M,R,2026-02-25_12h16.59.573,VisualSearch_2526_3,,2025.2.4,2026-02-25 12h16.59.804802 +0100,
tilted.xlsx,The target is tilted.,117,110,6,13,0,1,1,1,1,1,1,1,0,0,0,0,1,7,8,117,space,21.234808399999565,None,0,1,1.6158533999996507,None,space,2.156667500000367,None,0,0,0,0,,,,,13,6,110,5,284.95767439999963,,,,,,,,,,,,,,,,,,,,,284.94232809999994,284.95767439999963,285.4415851999993,285.44606769999973,285.4621363999995,287.09177269999964,,,,,287.0919501999997,287.10730779999994,287.3071224999994,287.2911908999995,285.4621363999995,,,,,,,,0,1,1.6158533999996507,None,,,,,,,,839,25,M,R,2026-02-25_12h16.59.573,VisualSearch_2526_3,,2025.2.4,2026-02-25 12h16.59.804802 +0100,
tilted.xlsx,The target is tilted.,117,111,7,13,0,1,1,1,1,1,1,1,1,1,1,1,1,11,12,117,space,21.234808399999565,None,0,1,3.008599600000707,None,space,2.156667500000367,None,0,0,0,0,,,,,13,7,111,4,287.3071224999994,,,,,,,,,,,,,,,,,,,,,287.2920177999995,287.3071224999994,287.79121589999977,287.79571269999997,287.81348309999976,290.8243711999994,,,,,290.82454269999926,290.8398475999993,291.04009159999987,291.0239213999994,287.81348309999976,,,,,,,,0,1,3.008599600000707,None,,,,,,,,839,25,M,R,2026-02-25_12h16.59.573,VisualSearch_2526_3,,2025.2.4,2026-02-25 12h16.59.804802 +0100,
tilted.xlsx,The target is tilted.,117,112,0,14,0,0,0,0,0,0,0,0,0,0,0,0,1,1,1,117,space,21.234808399999565,None,0,1,0.5606878999997207,None,space,2.156667500000367,None,0,0,0,0,,,,,14,0,112,7,291.04009159999987,,,,,,,,,,,,,,,,,,,,,291.0246583999997,291.04009159999987,291.5239839999995,291.5290828999996,291.5465538999997,292.12441019999915,,,,,292.1246388999998,292.1398165999999,292.33990670000003,292.32368639999913,291.5465538999997,,,,,,,,0,1,0.5606878999997207,None,,,,,,,,839,25,M,R,2026-02-25_12h16.59.573,VisualSearch_2526_3,,2025.2.4,2026-02-25 12h16.59.804802 +0100,
tilted.xlsx,The target is tilted.,117,113,1,14,0,1,1,1,1,1,1,1,0,0,0,0,1,7,8,117,space,21.234808399999565,None,0,1,2.2807019000001674,None,space,2.156667500000367,None,0,0,0,0,,,,,14,1,113,5,292.33990670000003,,,,,,,,,,,,,,,,,,,,,292.32441929999914,292.33990670000003,292.8231664999994,292.82770319999963,292.8436643999994,295.1403444999996,,,,,295.14052079999965,295.1558916999993,295.35608349999984,295.33978989999923,292.8436643999994,,,,,,,,0,1,2.2807019000001674,None,,,,,,,,839,25,M,R,2026-02-25_12h16.59.573,VisualSearch_2526_3,,2025.2.4,2026-02-25 12h16.59.804802 +0100,
tilted.xlsx,The target is tilted.,117,114,2,14,0,1,1,1,0,0,0,0,0,0,0,0,1,3,4,117,space,21.234808399999565,None,0,1,0.8200514000000112,None,space,2.156667500000367,None,0,0,0,0,,,,,14,2,114,6,295.35608349999984,,,,,,,,,,,,,,,,,,,,,295.3405444,295.35608349999984,295.8399167999996,295.8451019999993,295.8616849,296.68998999999985,,,,,296.6901633999996,296.7056872999992,296.9049755999995,296.88951049999923,295.8616849,,,,,,,,0,1,0.8200514000000112,None,,,,,,,,839,25,M,R,2026-02-25_12h16.59.573,VisualSearch_2526_3,,2025.2.4,2026-02-25 12h16.59.804802 +0100,
tilted.xlsx,The target is tilted.,117,115,3,14,0,1,1,1,1,1,1,1,1,1,1,1,1,11,12,117,space,21.234808399999565,None,0,1,1.861019299999498,None,space,2.156667500000367,None,0,0,0,0,,,,,14,3,115,4,296.9049755999995,,,,,,,,,,,,,,,,,,,,,296.89025889999994,296.9049755999995,297.38950099999965,297.3940057,297.4117318999997,299.2895558,,,,,299.2897162999998,299.3052109,299.5051891999992,299.4890910999993,297.4117318999997,,,,,,,,0,1,1.861019299999498,None,,,,,,,,839,25,M,R,2026-02-25_12h16.59.573,VisualSearch_2526_3,,2025.2.4,2026-02-25 12h16.59.804802 +0100,
tilted.xlsx,The target is tilted.,117,116,4,14,1,1,1,1,0,0,0,0,0,0,0,0,0,3,4,117,space,21.234808399999565,None,1,1,0.7218209000002389,None,space,2.156667500000367,None,0,0,0,0,,,,,14,4,116,2,299.5051891999992,,,,,,,,,,,,,,,,,,,,,299.48984239999936,299.5051891999992,299.9889198999999,299.9929886,300.0100173999999,300.7393968999995,,,,,300.7395711999998,300.7550177999992,300.95491519999996,300.93845169999986,300.0100173999999,,,,,,,,1,1,0.7218209000002389,None,,,,,,,,839,25,M,R,2026-02-25_12h16.59.573,VisualSearch_2526_3,,2025.2.4,2026-02-25 12h16.59.804802 +0100,
tilted.xlsx,The target is tilted.,117,117,5,14,1,1,1,1,1,1,1,1,0,0,0,0,0,7,8,117,space,21.234808399999565,None,1,1,1.496126899999581,None,space,2.156667500000367,None,0,0,0,0,,,,,14,5,117,1,300.95491519999996,,,,,,,,,,,,,,,,,,,,,300.9390922999992,300.95491519999996,301.4383683999995,301.4426657999993,301.45914489999996,302.9719449999993,,,,,302.97210469999936,302.9878672999994,303.1879079999999,303.1718917999997,301.45914489999996,,,,,,,,1,1,1.496126899999581,None,,,,,,,,839,25,M,R,2026-02-25_12h16.59.573,VisualSearch_2526_3,,2025.2.4,2026-02-25 12h16.59.804802 +0100,
tilted.xlsx,The target is tilted.,117,118,6,14,1,1,1,1,1,1,1,1,1,1,1,1,0,11,12,117,space,21.234808399999565,None,0,0,2.474350699999377,None,space,2.156667500000367,None,0,0,0,0,,,,,14,6,118,0,303.1879079999999,,,,,,,,,,,,,,,,,,,,,303.1726183999999,303.1879079999999,303.6714910999999,303.6749211999995,303.68807059999926,306.17115679999915,,,,,306.17127139999957,306.1871185,306.38728209999954,306.37114459999975,303.68807059999926,,,,,,,,0,0,2.474350699999377,None,,,,,,,,839,25,M,R,2026-02-25_12h16.59.573,VisualSearch_2526_3,,2025.2.4,2026-02-25 12h16.59.804802 +0100,
tilted.xlsx,The target is tilted.,117,119,7,14,1,0,0,0,0,0,0,0,0,0,0,0,0,0,1,117,space,21.234808399999565,None,1,1,0.5255089000002044,None,space,2.156667500000367,None,0,0,0,0,,,,,14,7,119,3,306.38728209999954,,,,,,,,,,,,,,,,,,,,,306.3717515999997,306.38728209999954,306.8715143999998,306.87666999999965,306.8925362,307.4217418999997,,,,,307.4219438,307.4369050999994,307.65558729999975,307.62129149999964,306.8925362,,,,,,,,1,1,0.5255089000002044,None,,,,,,,,839,25,M,R,2026-02-25_12h16.59.573,VisualSearch_2526_3,,2025.2.4,2026-02-25 12h16.59.804802 +0100,
tilted.xlsx,The target is tilted.,117,0,0,0,,,,,,,,,,,,,,,,,space,21.234808399999565,None,,,,,space,2.156667500000367,None,0,0,0,0,,,,,,,,,,,,,,,,,,,,,,,,,,,,,,,,,,,,,,,,,,,,,,,,,,,,,,,,,,,,,,,839,25,M,R,2026-02-25_12h16.59.573,VisualSearch_2526_3,,2025.2.4,2026-02-25 12h16.59.804802 +0100,
vertical.xlsx,The target is tilted.,135,0,0,0,0,0,0,0,0,0,0,0,0,0,0,0,1,1,1,135,space,8.955630200000087,None,0,1,0.7852106000000276,None,,,,0,1,1,1,0,0,0,7,,,,,316.6470395999995,,,,,,,,,,,,,,,307.65558729999975,307.65558729999975,307.65558729999975,space,8.955630200000087,None,316.64284079999925,316.6470395999995,317.1361111999995,317.14063559999977,317.1559793999995,317.9531653999993,0,1,0.7852106000000276,None,317.95332549999966,317.9686849999998,318.16886329999943,318.15264129999923,,,,,,,,,,,,,,,,,,,,839,25,M,R,2026-02-25_12h16.59.573,VisualSearch_2526_3,,2025.2.4,2026-02-25 12h16.59.804802 +0100,
vertical.xlsx,The target is tilted.,135,1,1,0,1,0,0,0,0,0,0,0,0,0,0,0,0,0,1,135,space,8.955630200000087,None,1,1,0.5338647999997193,None,,,,0,1,1,1,0,1,1,3,,,,,318.16886329999943,,,,,,,,,,,,,,,,,,,,,318.15332409999974,318.16886329999943,318.6525738999999,318.65719869999975,318.6729966999992,319.2196675999994,1,1,0.5338647999997193,None,319.21985159999986,319.23527019999983,319.4353719999999,319.4191224999995,318.6729966999992,,,,,,,,,,,,,,,,,,,839,25,M,R,2026-02-25_12h16.59.573,VisualSearch_2526_3,,2025.2.4,2026-02-25 12h16.59.804802 +0100,
vertical.xlsx,The target is tilted.,135,2,2,0,0,1,1,1,1,1,1,1,0,0,0,0,1,7,8,135,space,8.955630200000087,None,0,1,0.9706727000002502,None,,,,0,1,1,1,0,2,2,5,,,,,319.4353719999999,,,,,,,,,,,,,,,,,,,,,319.41983269999946,319.4353719999999,319.9189190999996,319.9234407999993,319.93757689999984,320.91931959999965,0,1,0.9706727000002502,None,320.91948499999944,320.93493339999986,321.1350831,321.11886089999916,319.93757689999984,,,,,,,,,,,,,,,,,,,839,25,M,R,2026-02-25_12h16.59.573,VisualSearch_2526_3,,2025.2.4,2026-02-25 12h16.59.804802 +0100,
vertical.xlsx,The target is tilted.,135,3,3,0,1,1,1,1,1,1,1,1,0,0,0,0,0,7,8,135,space,8.955630200000087,None,1,1,0.6589944999996078,None,,,,0,1,1,1,0,3,3,1,,,,,321.1350831,,,,,,,,,,,,,,,,,,,,,321.1195775999995,321.1350831,321.6186719999996,321.62329879999925,321.63990399999966,322.30231509999976,1,1,0.6589944999996078,None,322.3024824999993,322.3180810999993,322.5181170999995,322.5020248999999,321.63990399999966,,,,,,,,,,,,,,,,,,,839,25,M,R,2026-02-25_12h16.59.573,VisualSearch_2526_3,,2025.2.4,2026-02-25 12h16.59.804802 +0100,
vertical.xlsx,The target is tilted.,135,4,4,0,1,1,1,1,1,1,1,1,1,1,1,1,0,11,12,135,space,8.955630200000087,None,1,1,0.6480183000003308,None,,,,0,1,1,1,0,4,4,0,,,,,322.5181170999995,,,,,,,,,,,,,,,,,,,,,322.5026782999994,322.5181170999995,323.0018807999995,323.0065191999993,323.02330789999996,323.68577599999935,1,1,0.6480183000003308,None,323.6859640999992,323.7011763999999,323.9007711999993,323.88468739999917,323.02330789999996,,,,,,,,,,,,,,,,,,,839,25,M,R,2026-02-25_12h16.59.573,VisualSearch_2526_3,,2025.2.4,2026-02-25 12h16.59.804802 +0100,
vertical.xlsx,The target is tilted.,135,5,5,0,0,1,1,1,0,0,0,0,0,0,0,0,1,3,4,135,space,8.955630200000087,None,0,1,0.5553767000001244,None,,,,0,1,1,1,0,5,5,6,,,,,323.9007711999993,,,,,,,,,,,,,,,,,,,,,323.88542509999934,323.9007711999993,324.38498589999926,324.3897683999994,324.4010466999998,324.96852469999976,0,1,0.5553767000001244,None,324.96871569999985,324.9839841999992,325.1845451999998,325.1683267999997,324.4010466999998,,,,,,,,,,,,,,,,,,,839,25,M,R,2026-02-25_12h16.59.573,VisualSearch_2526_3,,2025.2.4,2026-02-25 12h16.59.804802 +0100,
vertical.xlsx,The target is tilted.,135,6,6,0,0,1,1,1,1,1,1,1,1,1,1,1,1,11,12,135,space,8.955630200000087,None,0,1,0.6968178000006446,None,,,,0,1,1,1,0,6,6,4,,,,,325.1845451999998,,,,,,,,,,,,,,,,,,,,,325.1691228999998,325.1845451999998,325.6681134999999,325.6731910999997,325.68962159999955,326.4017961999998,0,1,0.6968178000006446,None,326.40196769999966,326.4173603999998,326.6172796999999,326.60131569999976,325.68962159999955,,,,,,,,,,,,,,,,,,,839,25,M,R,2026-02-25_12h16.59.573,VisualSearch_2526_3,,2025.2.4,2026-02-25 12h16.59.804802 +0100,
vertical.xlsx,The target is tilted.,135,7,7,0,1,1,1,1,0,0,0,0,0,0,0,0,0,3,4,135,space,8.955630200000087,None,0,0,0.5192102999999406,None,,,,0,1,1,1,0,7,7,2,,,,,326.6172796999999,,,,,,,,,,,,,,,,,,,,,326.6020024999998,326.6172796999999,327.10139959999924,327.1067736999994,327.1241455999998,327.65154709999933,0,0,0.5192102999999406,None,327.65173519999917,327.66709399999945,327.86698089999936,327.8509961999998,327.1241455999998,,,,,,,,,,,,,,,,,,,839,25,M,R,2026-02-25_12h16.59.573,VisualSearch_2526_3,,2025.2.4,2026-02-25 12h16.59.804802 +0100,
vertical.xlsx,The target is tilted.,135,0,0,0,0,1,1,1,1,1,1,1,1,1,1,1,1,11,12,135,space,8.955630200000087,None,0,1,0.7742222999995647,None,space,1.4076318999996147,None,0,1,1,1,,,,,0,0,0,4,329.30663279999953,,,,,,,,,,,,,,,,,,,,,329.3029399999996,329.30663279999953,329.8006005999996,329.8058594999993,329.8250244999999,330.6017460999992,,,,,330.60193789999994,330.61635579999984,330.81666759999916,330.80079169999954,,327.85786259999986,327.86698089999936,327.86698089999936,329.2836916999995,space,1.4076318999996147,None,0,1,0.7742222999995647,None,,,,,,,,839,25,M,R,2026-02-25_12h16.59.573,VisualSearch_2526_3,,2025.2.4,2026-02-25 12h16.59.804802 +0100,
vertical.xlsx,The target is tilted.,135,1,1,0,0,1,1,1,0,0,0,0,0,0,0,0,1,3,4,135,space,8.955630200000087,None,0,1,0.5749734000000899,None,space,1.4076318999996147,None,0,1,1,1,,,,,0,1,1,6,330.81666759999916,,,,,,,,,,,,,,,,,,,,,330.8016125999993,330.81666759999916,331.3006992999999,331.3060313999995,331.32179449999967,331.9007462999998,,,,,331.90093629999956,331.91627959999914,332.11639599999944,332.0998686999992,331.32179449999967,,,,,,,,0,1,0.5749734000000899,None,,,,,,,,839,25,M,R,2026-02-25_12h16.59.573,VisualSearch_2526_3,,2025.2.4,2026-02-25 12h16.59.804802 +0100,
vertical.xlsx,The target is tilted.,135,2,2,0,0,1,1,1,1,1,1,1,0,0,0,0,1,7,8,135,space,8.955630200000087,None,0,1,0.8194376999999804,None,space,1.4076318999996147,None,0,1,1,1,,,,,0,2,2,5,332.11639599999944,,,,,,,,,,,,,,,,,,,,,332.10061210000003,332.11639599999944,332.6004110999993,332.6055774999995,332.62214609999955,333.45030399999996,,,,,333.45043969999915,333.4661704,333.66633289999936,333.6501042,332.62214609999955,,,,,,,,0,1,0.8194376999999804,None,,,,,,,,839,25,M,R,2026-02-25_12h16.59.573,VisualSearch_2526_3,,2025.2.4,2026-02-25 12h16.59.804802 +0100,
vertical.xlsx,The target is tilted.,135,3,3,0,1,0,0,0,0,0,0,0,0,0,0,0,0,0,1,135,space,8.955630200000087,None,1,1,0.5241809999997713,None,space,1.4076318999996147,None,0,1,1,1,,,,,0,3,3,3,333.66633289999936,,,,,,,,,,,,,,,,,,,,,333.65085980000003,333.66633289999936,334.15025629999946,334.1554864,334.1706807999999,334.7000789999993,,,,,334.70023559999936,334.7157121,334.91621919999943,334.8994881999997,334.1706807999999,,,,,,,,1,1,0.5241809999997713,None,,,,,,,,839,25,M,R,2026-02-25_12h16.59.573,VisualSearch_2526_3,,2025.2.4,2026-02-25 12h16.59.804802 +0100,
vertical.xlsx,The target is tilted.,135,4,4,0,0,0,0,0,0,0,0,0,0,0,0,0,1,1,1,135,space,8.955630200000087,None,0,1,0.6518853999996281,None,space,1.4076318999996147,None,0,1,1,1,,,,,0,4,4,7,334.91621919999943,,,,,,,,,,,,,,,,,,,,,334.9001800999995,334.91621919999943,335.39931369999977,335.40340839999953,335.4189211999992,336.0840314999996,,,,,336.08420489999935,336.0990652999999,336.29913339999985,336.2829908999993,335.4189211999992,,,,,,,,0,1,0.6518853999996281,None,,,,,,,,839,25,M,R,2026-02-25_12h16.59.573,VisualSearch_2526_3,,2025.2.4,2026-02-25 12h16.59.804802 +0100,
vertical.xlsx,The target is tilted.,135,5,5,0,1,1,1,1,1,1,1,1,1,1,1,1,0,11,12,135,space,8.955630200000087,None,1,1,1.1471399000001838,None,space,1.4076318999996147,None,0,1,1,1,,,,,0,5,5,0,336.29913339999985,,,,,,,,,,,,,,,,,,,,,336.2838088999997,336.29913339999985,336.7825888999996,336.7871026999992,336.80177749999984,337.9665262999997,,,,,337.9667069999996,337.98212369999965,338.1822554999999,338.16560409999965,336.80177749999984,,,,,,,,1,1,1.1471399000001838,None,,,,,,,,839,25,M,R,2026-02-25_12h16.59.573,VisualSearch_2526_3,,2025.2.4,2026-02-25 12h16.59.804802 +0100,
vertical.xlsx,The target is tilted.,135,6,6,0,1,1,1,1,1,1,1,1,0,0,0,0,0,7,8,135,space,8.955630200000087,None,1,1,0.7348124000000098,None,space,1.4076318999996147,None,0,1,1,1,,,,,0,6,6,1,338.1822554999999,,,,,,,,,,,,,,,,,,,,,338.1663022999992,338.1822554999999,338.6656052999997,338.6705493999998,338.68547019999914,339.4329785,,,,,339.43320849999964,339.44851909999943,339.6485576999994,339.6323618999995,338.68547019999914,,,,,,,,1,1,0.7348124000000098,None,,,,,,,,839,25,M,R,2026-02-25_12h16.59.573,VisualSearch_2526_3,,2025.2.4,2026-02-25 12h16.59.804802 +0100,
vertical.xlsx,The target is tilted.,135,7,7,0,1,1,1,1,0,0,0,0,0,0,0,0,0,3,4,135,space,8.955630200000087,None,1,1,0.506383800000549,None,space,1.4076318999996147,None,0,1,1,1,,,,,0,7,7,2,339.6485576999994,,,,,,,,,,,,,,,,,,,,,339.6330932999999,339.6485576999994,340.1325442999996,340.13763819999986,340.15402259999973,340.66567489999943,,,,,340.6658050999995,340.68158609999955,340.88174869999966,340.8652038,340.15402259999973,,,,,,,,1,1,0.506383800000549,None,,,,,,,,839,25,M,R,2026-02-25_12h16.59.573,VisualSearch_2526_3,,2025.2.4,2026-02-25 12h16.59.804802 +0100,
vertical.xlsx,The target is tilted.,135,8,0,1,0,1,1,1,1,1,1,1,0,0,0,0,1,7,8,135,space,8.955630200000087,None,0,1,0.7067688000006456,None,space,1.4076318999996147,None,0,1,1,1,,,,,1,0,8,5,340.88174869999966,,,,,,,,,,,,,,,,,,,,,340.86592109999947,340.88174869999966,341.36568329999955,341.3708023999998,341.3867941999997,342.09905119999985,,,,,342.09921940000004,342.11463729999923,342.31492529999923,342.29860009999993,341.3867941999997,,,,,,,,0,1,0.7067688000006456,None,,,,,,,,839,25,M,R,2026-02-25_12h16.59.573,VisualSearch_2526_3,,2025.2.4,2026-02-25 12h16.59.804802 +0100,
vertical.xlsx,The target is tilted.,135,9,1,1,1,1,1,1,1,1,1,1,0,0,0,0,0,7,8,135,space,8.955630200000087,None,1,1,0.4796508999997968,None,space,1.4076318999996147,None,0,1,1,1,,,,,1,1,9,1,342.31492529999923,,,,,,,,,,,,,,,,,,,,,342.29935529999966,342.31492529999923,342.79874199999995,342.8038854999995,342.8193692999994,343.31573649999973,,,,,343.3159317999998,343.33125929999915,343.53134599999976,343.5152306,342.8193692999994,,,,,,,,1,1,0.4796508999997968,None,,,,,,,,839,25,M,R,2026-02-25_12h16.59.573,VisualSearch_2526_3,,2025.2.4,2026-02-25 12h16.59.804802 +0100,
vertical.xlsx,The target is tilted.,135,10,2,1,1,0,0,0,0,0,0,0,0,0,0,0,0,0,1,135,space,8.955630200000087,None,1,1,0.48097190000044066,None,space,1.4076318999996147,None,0,1,1,1,,,,,1,2,10,3,343.53134599999976,,,,,,,,,,,,,,,,,,,,,343.51597089999996,343.53134599999976,344.0150948999999,344.01954659999956,344.0357301999993,344.5323413999995,,,,,344.5325594999995,344.5477289999999,344.7476547999995,344.73108779999984,344.0357301999993,,,,,,,,1,1,0.48097190000044066,None,,,,,,,,839,25,M,R,2026-02-25_12h16.59.573,VisualSearch_2526_3,,2025.2.4,2026-02-25 12h16.59.804802 +0100,
vertical.xlsx,The target is tilted.,135,11,3,1,0,1,1,1,1,1,1,1,1,1,1,1,1,11,12,135,space,8.955630200000087,None,0,1,0.9560147000001962,None,space,1.4076318999996147,None,0,1,1,1,,,,,1,3,11,4,344.7476547999995,,,,,,,,,,,,,,,,,,,,,344.73170199999913,344.7476547999995,345.2312618999995,345.23595769999974,345.2520790999997,346.2152017999997,,,,,346.2153951,346.2307873999998,346.4306743999996,346.4145945,345.2520790999997,,,,,,,,0,1,0.9560147000001962,None,,,,,,,,839,25,M,R,2026-02-25_12h16.59.573,VisualSearch_2526_3,,2025.2.4,2026-02-25 12h16.59.804802 +0100,
vertical.xlsx,The target is tilted.,135,12,4,1,0,1,1,1,0,0,0,0,0,0,0,0,1,3,4,135,space,8.955630200000087,None,0,1,0.7334386000002269,None,space,1.4076318999996147,None,0,1,1,1,,,,,1,4,12,6,346.4306743999996,,,,,,,,,,,,,,,,,,,,,346.4153624999999,346.4306743999996,346.9141405999999,346.918224,346.9338244999999,347.6818616999999,,,,,347.6820685999992,347.6971651999993,347.8968385999997,347.8808202,346.9338244999999,,,,,,,,0,1,0.7334386000002269,None,,,,,,,,839,25,M,R,2026-02-25_12h16.59.573,VisualSearch_2526_3,,2025.2.4,2026-02-25 12h16.59.804802 +0100,
vertical.xlsx,The target is tilted.,135,13,5,1,1,1,1,1,1,1,1,1,1,1,1,1,0,11,12,135,space,8.955630200000087,None,1,1,1.4584707999993043,None,space,1.4076318999996147,None,0,1,1,1,,,,,1,5,13,0,347.8968385999997,,,,,,,,,,,,,,,,,,,,,347.8816184999996,347.8968385999997,348.3811933999996,348.3864449999992,348.40180859999964,349.86423679999916,,,,,349.86441079999986,349.8801165999994,350.0798787999993,350.0638578999997,348.40180859999964,,,,,,,,1,1,1.4584707999993043,None,,,,,,,,839,25,M,R,2026-02-25_12h16.59.573,VisualSearch_2526_3,,2025.2.4,2026-02-25 12h16.59.804802 +0100,
vertical.xlsx,The target is tilted.,135,14,6,1,1,1,1,1,0,0,0,0,0,0,0,0,0,3,4,135,space,8.955630200000087,None,1,1,0.911830099999861,None,space,1.4076318999996147,None,0,1,1,1,,,,,1,6,14,2,350.0798787999993,,,,,,,,,,,,,,,,,,,,,350.0646177999997,350.0798787999993,350.5636308999992,350.5681337999995,350.57991799999945,351.49753039999996,,,,,351.49770029999945,351.51324869999917,351.7133170999996,351.6969073,350.57991799999945,,,,,,,,1,1,0.911830099999861,None,,,,,,,,839,25,M,R,2026-02-25_12h16.59.573,VisualSearch_2526_3,,2025.2.4,2026-02-25 12h16.59.804802 +0100,
vertical.xlsx,The target is tilted.,135,15,7,1,0,0,0,0,0,0,0,0,0,0,0,0,1,1,1,135,space,8.955630200000087,None,0,1,0.6414550999998028,None,space,1.4076318999996147,None,0,1,1,1,,,,,1,7,15,7,351.7133170999996,,,,,,,,,,,,,,,,,,,,,351.69763669999975,351.7133170999996,352.1966956999995,352.2011924999997,352.2174151999998,352.86376049999944,,,,,352.8639805999992,352.8792705999995,353.07971609999913,353.0635066999994,352.2174151999998,,,,,,,,0,1,0.6414550999998028,None,,,,,,,,839,25,M,R,2026-02-25_12h16.59.573,VisualSearch_2526_3,,2025.2.4,2026-02-25 12h16.59.804802 +0100,
vertical.xlsx,The target is tilted.,135,16,0,2,1,1,1,1,0,0,0,0,0,0,0,0,0,3,4,135,space,8.955630200000087,None,1,1,0.677738400000635,None,space,1.4076318999996147,None,0,1,1,1,,,,,2,0,16,2,353.07971609999913,,,,,,,,,,,,,,,,,,,,,353.06426869999996,353.07971609999913,353.5635500999997,353.56802589999916,353.5840924999993,354.26379709999946,,,,,354.2639701999997,354.2792793999997,354.4794738999999,354.46342709999954,353.5840924999993,,,,,,,,1,1,0.677738400000635,None,,,,,,,,839,25,M,R,2026-02-25_12h16.59.573,VisualSearch_2526_3,,2025.2.4,2026-02-25 12h16.59.804802 +0100,
vertical.xlsx,The target is tilted.,135,17,1,2,0,1,1,1,1,1,1,1,1,1,1,1,1,11,12,135,space,8.955630200000087,None,0,1,1.1345008999996935,None,space,1.4076318999996147,None,0,1,1,1,,,,,2,1,17,4,354.4794738999999,,,,,,,,,,,,,,,,,,,,,354.46416709999994,354.4794738999999,354.9634785999997,354.96839999999975,354.98470559999987,356.1306672999999,,,,,356.13084059999983,356.1456221999997,356.3457899999994,356.3294870999998,354.98470559999987,,,,,,,,0,1,1.1345008999996935,None,,,,,,,,839,25,M,R,2026-02-25_12h16.59.573,VisualSearch_2526_3,,2025.2.4,2026-02-25 12h16.59.804802 +0100,
vertical.xlsx,The target is tilted.,135,18,2,2,1,1,1,1,1,1,1,1,1,1,1,1,0,11,12,135,space,8.955630200000087,None,1,1,0.8146446000000651,None,space,1.4076318999996147,None,0,1,1,1,,,,,2,2,18,0,356.3457899999994,,,,,,,,,,,,,,,,,,,,,356.33023629999934,356.3457899999994,356.8294453999997,356.83410119999917,356.845198,357.66313049999917,,,,,357.66330369999923,357.6787633999993,357.8787620999992,357.8625599999996,356.845198,,,,,,,,1,1,0.8146446000000651,None,,,,,,,,839,25,M,R,2026-02-25_12h16.59.573,VisualSearch_2526_3,,2025.2.4,2026-02-25 12h16.59.804802 +0100,
vertical.xlsx,The target is tilted.,135,19,3,2,1,1,1,1,1,1,1,1,0,0,0,0,0,7,8,135,space,8.955630200000087,None,1,1,1.313684299999295,None,space,1.4076318999996147,None,0,1,1,1,,,,,2,3,19,1,357.8787620999992,,,,,,,,,,,,,,,,,,,,,357.8632441999998,357.8787620999992,358.36246109999956,358.3672577999996,358.3842531,359.71303519999947,,,,,359.7132152999993,359.7284654999994,359.9285317999993,359.9123972999996,358.3842531,,,,,,,,1,1,1.313684299999295,None,,,,,,,,839,25,M,R,2026-02-25_12h16.59.573,VisualSearch_2526_3,,2025.2.4,2026-02-25 12h16.59.804802 +0100,
vertical.xlsx,The target is tilted.,135,20,4,2,0,1,1,1,0,0,0,0,0,0,0,0,1,3,4,135,space,8.955630200000087,None,0,1,0.513662999999724,None,space,1.4076318999996147,None,0,1,1,1,,,,,2,4,20,6,359.9285317999993,,,,,,,,,,,,,,,,,,,,,359.91316879999977,359.9285317999993,360.4122598999993,360.4172532999992,360.43408309999995,360.96284469999955,,,,,360.96303649999936,360.9783583999997,361.1778184999994,361.16171510000004,360.43408309999995,,,,,,,,0,1,0.513662999999724,None,,,,,,,,839,25,M,R,2026-02-25_12h16.59.573,VisualSearch_2526_3,,2025.2.4,2026-02-25 12h16.59.804802 +0100,
vertical.xlsx,The target is tilted.,135,21,5,2,0,1,1,1,1,1,1,1,0,0,0,0,1,7,8,135,space,8.955630200000087,None,0,1,1.2370774999999412,None,space,1.4076318999996147,None,0,1,1,1,,,,,2,5,21,5,361.1778184999994,,,,,,,,,,,,,,,,,,,,,361.1623250999992,361.1778184999994,361.6619863999995,361.6667484999998,361.6775616999994,362.9283945999996,,,,,362.9284700999997,362.9446135999997,363.1447378999992,363.1285285999993,361.6775616999994,,,,,,,,0,1,1.2370774999999412,None,,,,,,,,839,25,M,R,2026-02-25_12h16.59.573,VisualSearch_2526_3,,2025.2.4,2026-02-25 12h16.59.804802 +0100,
vertical.xlsx,The target is tilted.,135,22,6,2,1,0,0,0,0,0,0,0,0,0,0,0,0,0,1,135,space,8.955630200000087,None,1,1,0.4971016999998028,None,space,1.4076318999996147,None,0,1,1,1,,,,,2,6,22,3,363.1447378999992,,,,,,,,,,,,,,,,,,,,,363.12928119999924,363.1447378999992,363.6283967999998,363.63292509999974,363.6491895999998,364.16202539999995,,,,,364.1622198999994,364.1778012999994,364.37714809999943,364.3616979999997,363.6491895999998,,,,,,,,1,1,0.4971016999998028,None,,,,,,,,839,25,M,R,2026-02-25_12h16.59.573,VisualSearch_2526_3,,2025.2.4,2026-02-25 12h16.59.804802 +0100,
vertical.xlsx,The target is tilted.,135,23,7,2,0,0,0,0,0,0,0,0,0,0,0,0,1,1,1,135,space,8.955630200000087,None,0,1,0.5104782999997042,None,space,1.4076318999996147,None,0,1,1,1,,,,,2,7,23,7,364.37714809999943,,,,,,,,,,,,,,,,,,,,,364.3625065999995,364.37714809999943,364.86172949999946,364.86789559999943,364.8855533999995,365.41136949999964,,,,,365.41143909999937,365.42738089999966,365.62724809999963,365.61121919999914,364.8855533999995,,,,,,,,0,1,0.5104782999997042,None,,,,,,,,839,25,M,R,2026-02-25_12h16.59.573,VisualSearch_2526_3,,2025.2.4,2026-02-25 12h16.59.804802 +0100,
vertical.xlsx,The target is tilted.,135,24,0,3,1,1,1,1,1,1,1,1,1,1,1,1,0,11,12,135,space,8.955630200000087,None,1,1,0.6529526999993323,None,space,1.4076318999996147,None,0,1,1,1,,,,,3,0,24,0,365.62724809999963,,,,,,,,,,,,,,,,,,,,,365.6120514999993,365.62724809999963,366.11128889999964,366.1158276999995,366.13099650000004,366.79503569999997,,,,,366.79522929999985,366.8106865,367.0107679999992,366.99475879999954,366.13099650000004,,,,,,,,1,1,0.6529526999993323,None,,,,,,,,839,25,M,R,2026-02-25_12h16.59.573,VisualSearch_2526_3,,2025.2.4,2026-02-25 12h16.59.804802 +0100,
vertical.xlsx,The target is tilted.,135,25,1,3,0,1,1,1,0,0,0,0,0,0,0,0,1,3,4,135,space,8.955630200000087,None,0,1,0.553430599999956,None,space,1.4076318999996147,None,0,1,1,1,,,,,3,1,25,6,367.0107679999992,,,,,,,,,,,,,,,,,,,,,366.9955878999999,367.0107679999992,367.49456669999927,367.4991898999997,367.5160189999997,368.07818899999984,,,,,368.07836169999973,368.0939136999996,368.29384799999934,368.2775871999993,367.5160189999997,,,,,,,,0,1,0.553430599999956,None,,,,,,,,839,25,M,R,2026-02-25_12h16.59.573,VisualSearch_2526_3,,2025.2.4,2026-02-25 12h16.59.804802 +0100,
vertical.xlsx,The target is tilted.,135,26,2,3,0,1,1,1,1,1,1,1,1,1,1,1,1,11,12,135,space,8.955630200000087,None,0,1,1.4399890999993659,None,space,1.4076318999996147,None,0,1,1,1,,,,,3,2,26,4,368.29384799999934,,,,,,,,,,,,,,,,,,,,,368.2783495999993,368.29384799999934,368.7774230999994,368.7823515,368.7987521999994,370.24452459999975,,,,,370.2447164999994,370.2599811,370.46017779999966,370.44400699999915,368.7987521999994,,,,,,,,0,1,1.4399890999993659,None,,,,,,,,839,25,M,R,2026-02-25_12h16.59.573,VisualSearch_2526_3,,2025.2.4,2026-02-25 12h16.59.804802 +0100,
vertical.xlsx,The target is tilted.,135,27,3,3,1,1,1,1,1,1,1,1,0,0,0,0,0,7,8,135,space,8.955630200000087,None,1,1,0.5997289999995701,None,space,1.4076318999996147,None,0,1,1,1,,,,,3,3,27,1,370.46017779999966,,,,,,,,,,,,,,,,,,,,,370.44474509999964,370.46017779999966,370.94357729999956,370.94808249999915,370.9647671999992,371.57743129999926,,,,,371.5776004999998,371.59323629999926,371.79326709999987,371.77705699999933,370.9647671999992,,,,,,,,1,1,0.5997289999995701,None,,,,,,,,839,25,M,R,2026-02-25_12h16.59.573,VisualSearch_2526_3,,2025.2.4,2026-02-25 12h16.59.804802 +0100,
vertical.xlsx,The target is tilted.,135,28,4,3,0,1,1,1,1,1,1,1,0,0,0,0,1,7,8,135,space,8.955630200000087,None,0,1,0.8873646000001827,None,space,1.4076318999996147,None,0,1,1,1,,,,,3,4,28,5,371.79326709999987,,,,,,,,,,,,,,,,,,,,,371.7778019999996,371.79326709999987,372.2768305999998,372.28134259999933,372.2979329,373.1939296999999,,,,,373.19410159999916,373.2094997999993,373.4096356,373.3934049999998,372.2979329,,,,,,,,0,1,0.8873646000001827,None,,,,,,,,839,25,M,R,2026-02-25_12h16.59.573,VisualSearch_2526_3,,2025.2.4,2026-02-25 12h16.59.804802 +0100,
vertical.xlsx,The target is tilted.,135,29,5,3,0,0,0,0,0,0,0,0,0,0,0,0,1,1,1,135,space,8.955630200000087,None,0,1,0.48201310000058584,None,space,1.4076318999996147,None,0,1,1,1,,,,,3,5,29,7,373.4096356,,,,,,,,,,,,,,,,,,,,,373.3941662999996,373.4096356,373.89357389999986,373.8981071999997,373.91547589999936,374.4106247999998,,,,,374.4108235999993,374.42620179999994,374.62614929999927,374.60958109999956,373.91547589999936,,,,,,,,0,1,0.48201310000058584,None,,,,,,,,839,25,M,R,2026-02-25_12h16.59.573,VisualSearch_2526_3,,2025.2.4,2026-02-25 12h16.59.804802 +0100,
vertical.xlsx,The target is tilted.,135,30,6,3,1,1,1,1,0,0,0,0,0,0,0,0,0,3,4,135,space,8.955630200000087,None,1,1,0.7093304999998509,None,space,1.4076318999996147,None,0,1,1,1,,,,,3,6,30,2,374.62614929999927,,,,,,,,,,,,,,,,,,,,,374.61032309999973,374.62614929999927,375.1097086999998,375.11495099999956,375.13129089999984,375.8432215999992,,,,,375.8433966999992,375.85894559999997,376.0587732999993,376.04315619999943,375.13129089999984,,,,,,,,1,1,0.7093304999998509,None,,,,,,,,839,25,M,R,2026-02-25_12h16.59.573,VisualSearch_2526_3,,2025.2.4,2026-02-25 12h16.59.804802 +0100,
vertical.xlsx,The target is tilted.,135,31,7,3,1,0,0,0,0,0,0,0,0,0,0,0,0,0,1,135,space,8.955630200000087,None,1,1,0.4602082999999766,None,space,1.4076318999996147,None,0,1,1,1,,,,,3,7,31,3,376.0587732999993,,,,,,,,,,,,,,,,,,,,,376.04398609999953,376.0587732999993,376.5427738999997,376.5480885999996,376.56572869999945,377.04268479999973,,,,,377.0427678999995,377.05882119999933,377.25829559999966,377.24228869999934,376.56572869999945,,,,,,,,1,1,0.4602082999999766,None,,,,,,,,839,25,M,R,2026-02-25_12h16.59.573,VisualSearch_2526_3,,2025.2.4,2026-02-25 12h16.59.804802 +0100,
vertical.xlsx,The target is tilted.,135,32,0,4,1,1,1,1,1,1,1,1,0,0,0,0,0,7,8,135,space,8.955630200000087,None,1,1,0.8401167000001806,None,space,1.4076318999996147,None,0,1,1,1,,,,,4,0,32,1,377.25829559999966,,,,,,,,,,,,,,,,,,,,,377.2427109999999,377.25829559999966,377.7428020999996,377.74727749999965,377.7640180999997,378.6095943,,,,,378.6097646999997,378.62539619999916,378.82542829999966,378.8091328999999,377.7640180999997,,,,,,,,1,1,0.8401167000001806,None,,,,,,,,839,25,M,R,2026-02-25_12h16.59.573,VisualSearch_2526_3,,2025.2.4,2026-02-25 12h16.59.804802 +0100,
vertical.xlsx,The target is tilted.,135,33,1,4,1,0,0,0,0,0,0,0,0,0,0,0,0,0,1,135,space,8.955630200000087,None,1,1,0.4686805000001186,None,space,1.4076318999996147,None,0,1,1,1,,,,,4,1,33,3,378.82542829999966,,,,,,,,,,,,,,,,,,,,,378.80990739999925,378.82542829999966,379.3092850999992,379.3141087999993,379.33128039999974,379.80958759999976,,,,,379.80975969999963,379.8251728999994,380.02519499999926,380.0090354999993,379.33128039999974,,,,,,,,1,1,0.4686805000001186,None,,,,,,,,839,25,M,R,2026-02-25_12h16.59.573,VisualSearch_2526_3,,2025.2.4,2026-02-25 12h16.59.804802 +0100,
