file_name,block_instructions,target_example,thisN,thisTrialN,thisRepN,target_presence,opacity_1,opacity_2,opacity_3,opacity_4,opacity_5,opacity_6,opacity_7,opacity_8,opacity_9,opacity_10,opacity_11,opacity_12,n_distract,n_items,target_ori,key_resp_4.keys,key_resp_4.rt,key_resp_4.duration,key_resp.keys,key_resp.corr,key_resp.rt,key_resp.duration,key_resp_5.keys,key_resp_5.rt,key_resp_5.duration,blocks.thisRepN,blocks.thisTrialN,blocks.thisN,blocks.thisIndex,practice_trials.thisRepN,practice_trials.thisTrialN,practice_trials.thisN,practice_trials.thisIndex,trials.thisRepN,trials.thisTrialN,trials.thisN,trials.thisIndex,thisRow.t,notes,Welcome.started,WelcomeText.started,key_resp_2.started,Welcome.stopped,key_resp_2.keys,key_resp_2.rt,key_resp_2.duration,InformedConsent.started,text_4.started,InformedConsent.stopped,key_resp_6.keys,key_resp_6.rt,key_resp_6.duration,key_resp_4.started,example_target.started,text_3.started,blocks.key_resp_4.keys,blocks.key_resp_4.rt,blocks.key_resp_4.duration,FixCross.started,fixCross.started,FixCross.stopped,Stimulus.started,key_resp.started,Stimulus.stopped,practice_trials.key_resp.keys,practice_trials.key_resp.corr,practice_trials.key_resp.rt,practice_trials.key_resp.duration,BlankScreen.started,text.started,text.stopped,BlankScreen.stopped,fixCross.stopped,ExperimentStart.started,text_2.started,key_resp_5.started,ExperimentStart.stopped,blocks.key_resp_5.keys,blocks.key_resp_5.rt,blocks.key_resp_5.duration,trials.key_resp.keys,trials.key_resp.corr,trials.key_resp.rt,trials.key_resp.duration,Thanks.started,ThankYou.started,key_resp_3.started,Thanks.stopped,key_resp_3.keys,key_resp_3.rt,key_resp_3.duration,participant,leeftijd,gender,links/rechtshandig,date,expName,expVersion,psychopyVersion,expStart,
,,,,,,,,,,,,,,,,,,,,,,,,,,,,,,,,,,,,,,,,,,,,,,0.02526320000015403,0.05463270000018383,0.05463270000018383,23.435288000000583,space,23.353618299999653,None,,,,,,,,,,,,,,,,,,,,,,,,,,,,,,,,,,,,,,,,,,,,,,840,21,M,R,2026-02-25_12h28.37.291,VisualSearch_2526_3,,2025.2.4,2026-02-25 12h28.37.521537 +0100,
,,,,,,,,,,,,,,,,,,,,,,,,,,,,,,,,,,,,,,,,,,,,,,,,,,,,,23.435441300000093,23.443715299999894,26.269820000000436,y,2.827581399999872,None,,,,,,,,,,,,,,,,,,,,,,,,,,,,,,,,,,,,,,,,840,21,M,R,2026-02-25_12h28.37.291,VisualSearch_2526_3,,2025.2.4,2026-02-25 12h28.37.521537 +0100,
vertical.xlsx,The target is tilted.,135,0,0,0,0,1,1,1,1,1,1,1,0,0,0,0,1,7,8,135,space,8.284229199999572,None,0,1,1.6426555000007284,None,,,,0,0,0,1,0,0,0,5,,,,,34.63106080000034,,,,,,,,,,,,,,,26.314049800000248,26.314049800000248,26.314049800000248,space,8.284229199999572,None,34.62558979999994,34.63106080000034,35.11737929999981,35.12198290000015,35.13377130000026,36.784489499999836,0,1,1.6426555000007284,None,36.784670000000006,36.80029420000028,37.00016229999983,36.98393820000001,,,,,,,,,,,,,,,,,,,,840,21,M,R,2026-02-25_12h28.37.291,VisualSearch_2526_3,,2025.2.4,2026-02-25 12h28.37.521537 +0100,
vertical.xlsx,The target is tilted.,135,1,1,0,1,1,1,1,1,1,1,1,1,1,1,1,0,11,12,135,space,8.284229199999572,None,1,1,1.1874861000005694,None,,,,0,0,0,1,0,1,1,0,,,,,37.00016229999983,,,,,,,,,,,,,,,,,,,,,36.984617799999796,37.00016229999983,37.48367710000002,37.488288999999895,37.503415700000005,38.70094770000014,1,1,1.1874861000005694,None,38.70110999999997,38.716504500000156,38.916619999999966,38.90036300000065,37.503415700000005,,,,,,,,,,,,,,,,,,,840,21,M,R,2026-02-25_12h28.37.291,VisualSearch_2526_3,,2025.2.4,2026-02-25 12h28.37.521537 +0100,
vertical.xlsx,The target is tilted.,135,2,2,0,1,1,1,1,1,1,1,1,0,0,0,0,0,7,8,135,space,8.284229199999572,None,1,1,1.230313600000045,None,,,,0,0,0,1,0,2,2,1,,,,,38.916619999999966,,,,,,,,,,,,,,,,,,,,,38.90105540000059,38.916619999999966,39.400446999999986,39.40510640000048,39.421053800000664,40.66662840000026,1,1,1.230313600000045,None,40.66678630000024,40.68227089999982,40.882964500000526,40.86686700000064,39.421053800000664,,,,,,,,,,,,,,,,,,,840,21,M,R,2026-02-25_12h28.37.291,VisualSearch_2526_3,,2025.2.4,2026-02-25 12h28.37.521537 +0100,
vertical.xlsx,The target is tilted.,135,3,3,0,0,1,1,1,1,1,1,1,1,1,1,1,1,11,12,135,space,8.284229199999572,None,0,1,2.093818199999987,None,,,,0,0,0,1,0,3,3,4,,,,,40.882964500000526,,,,,,,,,,,,,,,,,,,,,40.86758230000032,40.882964500000526,41.366930300000604,41.37217430000055,41.388484200000676,43.49955950000003,0,1,2.093818199999987,None,43.49975390000054,43.51517109999986,43.71539810000013,43.69920700000057,41.388484200000676,,,,,,,,,,,,,,,,,,,840,21,M,R,2026-02-25_12h28.37.291,VisualSearch_2526_3,,2025.2.4,2026-02-25 12h28.37.521537 +0100,
vertical.xlsx,The target is tilted.,135,4,4,0,0,1,1,1,0,0,0,0,0,0,0,0,1,3,4,135,space,8.284229199999572,None,0,1,0.8298831000001883,None,,,,0,0,0,1,0,4,4,6,,,,,43.71539810000013,,,,,,,,,,,,,,,,,,,,,43.699791500000174,43.71539810000013,44.19931340000039,44.20412660000056,44.22248310000032,45.06585240000004,0,1,0.8298831000001883,None,45.06600950000029,45.081621400000586,45.2817842000004,45.265755000000354,44.22248310000032,,,,,,,,,,,,,,,,,,,840,21,M,R,2026-02-25_12h28.37.291,VisualSearch_2526_3,,2025.2.4,2026-02-25 12h28.37.521537 +0100,
vertical.xlsx,The target is tilted.,135,5,5,0,0,0,0,0,0,0,0,0,0,0,0,0,1,1,1,135,space,8.284229199999572,None,0,1,0.8038077999999587,None,,,,0,0,0,1,0,5,5,7,,,,,45.2817842000004,,,,,,,,,,,,,,,,,,,,,45.26649749999979,45.2817842000004,45.76617559999977,45.771398200000476,45.78638620000038,46.59942229999979,0,1,0.8038077999999587,None,46.59961170000042,46.61473780000051,46.81533720000061,46.7993035999998,45.78638620000038,,,,,,,,,,,,,,,,,,,840,21,M,R,2026-02-25_12h28.37.291,VisualSearch_2526_3,,2025.2.4,2026-02-25 12h28.37.521537 +0100,
vertical.xlsx,The target is tilted.,135,6,6,0,1,1,1,1,0,0,0,0,0,0,0,0,0,3,4,135,space,8.284229199999572,None,1,1,0.7502100000001519,None,,,,0,0,0,1,0,6,6,2,,,,,46.81533720000061,,,,,,,,,,,,,,,,,,,,,46.79998010000054,46.81533720000061,47.29932499999995,47.30472660000032,47.32188980000046,48.08271530000002,1,1,0.7502100000001519,None,48.08290860000034,48.097826400000486,48.29821830000037,48.28203250000024,47.32188980000046,,,,,,,,,,,,,,,,,,,840,21,M,R,2026-02-25_12h28.37.291,VisualSearch_2526_3,,2025.2.4,2026-02-25 12h28.37.521537 +0100,
vertical.xlsx,The target is tilted.,135,7,7,0,1,0,0,0,0,0,0,0,0,0,0,0,0,0,1,135,space,8.284229199999572,None,0,0,0.61453100000017,None,,,,0,0,0,1,0,7,7,3,,,,,48.29821830000037,,,,,,,,,,,,,,,,,,,,,48.28271010000026,48.29821830000037,48.7822514999998,48.78734050000003,48.803650100000596,49.43164750000051,0,0,0.61453100000017,None,49.43177999999989,49.44759250000061,49.64773590000004,49.631378300000506,48.803650100000596,,,,,,,,,,,,,,,,,,,840,21,M,R,2026-02-25_12h28.37.291,VisualSearch_2526_3,,2025.2.4,2026-02-25 12h28.37.521537 +0100,
vertical.xlsx,The target is tilted.,135,0,0,0,0,1,1,1,0,0,0,0,0,0,0,0,1,3,4,135,space,8.284229199999572,None,0,1,1.8432630000006611,None,space,1.5766579000001002,None,0,0,0,1,,,,,0,0,0,6,51.26399250000031,,,,,,,,,,,,,,,,,,,,,51.259818300000006,51.26399250000031,51.74830740000016,51.753834900000584,51.770434600000044,53.61518030000025,,,,,53.61538720000044,53.63026530000025,53.83074020000004,53.814578399999846,,49.63604209999994,49.64773590000004,49.64773590000004,51.23219270000027,space,1.5766579000001002,None,0,1,1.8432630000006611,None,,,,,,,,840,21,M,R,2026-02-25_12h28.37.291,VisualSearch_2526_3,,2025.2.4,2026-02-25 12h28.37.521537 +0100,
vertical.xlsx,The target is tilted.,135,1,1,0,1,1,1,1,1,1,1,1,0,0,0,0,0,7,8,135,space,8.284229199999572,None,1,1,2.0193801000004896,None,space,1.5766579000001002,None,0,0,0,1,,,,,0,1,1,1,53.83074020000004,,,,,,,,,,,,,,,,,,,,,53.81535590000021,53.83074020000004,54.31458810000004,54.319351500000266,54.33661829999983,56.36467129999983,,,,,56.36484920000021,56.3797783,56.580392900000334,56.564132500000596,54.33661829999983,,,,,,,,1,1,2.0193801000004896,None,,,,,,,,840,21,M,R,2026-02-25_12h28.37.291,VisualSearch_2526_3,,2025.2.4,2026-02-25 12h28.37.521537 +0100,
vertical.xlsx,The target is tilted.,135,2,2,0,1,1,1,1,1,1,1,1,1,1,1,1,0,11,12,135,space,8.284229199999572,None,1,1,2.575469399999747,None,space,1.5766579000001002,None,0,0,0,1,,,,,0,2,2,0,56.580392900000334,,,,,,,,,,,,,,,,,,,,,56.564923400000225,56.580392900000334,57.06410700000015,57.06879180000033,57.08392259999982,59.663742900000216,,,,,59.663908399999855,59.67913970000063,59.87972380000065,59.86341360000006,57.08392259999982,,,,,,,,1,1,2.575469399999747,None,,,,,,,,840,21,M,R,2026-02-25_12h28.37.291,VisualSearch_2526_3,,2025.2.4,2026-02-25 12h28.37.521537 +0100,
vertical.xlsx,The target is tilted.,135,3,3,0,1,1,1,1,0,0,0,0,0,0,0,0,0,3,4,135,space,8.284229199999572,None,1,1,0.7604517999998279,None,space,1.5766579000001002,None,0,0,0,1,,,,,0,3,3,2,59.87972380000065,,,,,,,,,,,,,,,,,,,,,59.86406220000026,59.87972380000065,60.36351990000003,60.36820380000063,60.38352279999981,61.14734570000019,,,,,61.14758410000013,61.16227780000008,61.362753400000656,61.34666990000005,60.38352279999981,,,,,,,,1,1,0.7604517999998279,None,,,,,,,,840,21,M,R,2026-02-25_12h28.37.291,VisualSearch_2526_3,,2025.2.4,2026-02-25 12h28.37.521537 +0100,
vertical.xlsx,The target is tilted.,135,4,4,0,0,1,1,1,1,1,1,1,1,1,1,1,1,11,12,135,space,8.284229199999572,None,0,1,2.205408100000568,None,space,1.5766579000001002,None,0,0,0,1,,,,,0,4,4,4,61.362753400000656,,,,,,,,,,,,,,,,,,,,,61.347436500000185,61.362753400000656,61.84669930000018,61.85137829999985,61.86725540000043,64.08003760000065,,,,,64.08021960000042,64.09515520000059,64.29577640000025,64.27962790000038,61.86725540000043,,,,,,,,0,1,2.205408100000568,None,,,,,,,,840,21,M,R,2026-02-25_12h28.37.291,VisualSearch_2526_3,,2025.2.4,2026-02-25 12h28.37.521537 +0100,
vertical.xlsx,The target is tilted.,135,5,5,0,1,0,0,0,0,0,0,0,0,0,0,0,0,0,1,135,space,8.284229199999572,None,1,1,0.8209135000006427,None,space,1.5766579000001002,None,0,0,0,1,,,,,0,5,5,3,64.29577640000025,,,,,,,,,,,,,,,,,,,,,64.28036239999983,64.29577640000025,64.77954130000035,64.78415010000026,64.80061290000049,65.62918290000016,,,,,65.62925630000063,65.64465100000052,65.84544790000018,65.8292822000003,64.80061290000049,,,,,,,,1,1,0.8209135000006427,None,,,,,,,,840,21,M,R,2026-02-25_12h28.37.291,VisualSearch_2526_3,,2025.2.4,2026-02-25 12h28.37.521537 +0100,
vertical.xlsx,The target is tilted.,135,6,6,0,0,1,1,1,1,1,1,1,0,0,0,0,1,7,8,135,space,8.284229199999572,None,0,1,1.837647399999696,None,space,1.5766579000001002,None,0,0,0,1,,,,,0,6,6,5,65.84544790000018,,,,,,,,,,,,,,,,,,,,,65.83002870000018,65.84544790000018,66.32940020000024,66.33445459999984,66.3499511,68.1954495,,,,,68.19554470000003,68.2109089000005,68.4115526000005,68.39550490000056,66.3499511,,,,,,,,0,1,1.837647399999696,None,,,,,,,,840,21,M,R,2026-02-25_12h28.37.291,VisualSearch_2526_3,,2025.2.4,2026-02-25 12h28.37.521537 +0100,
vertical.xlsx,The target is tilted.,135,7,7,0,0,0,0,0,0,0,0,0,0,0,0,0,1,1,1,135,space,8.284229199999572,None,0,1,0.7540220999999292,None,space,1.5766579000001002,None,0,0,0,1,,,,,0,7,7,7,68.4115526000005,,,,,,,,,,,,,,,,,,,,,68.3962763999998,68.4115526000005,68.89544699999988,68.9000446,68.9160165000003,69.6787873000003,,,,,69.6789630000003,69.69419879999987,69.89476379999996,69.87846720000016,68.9160165000003,,,,,,,,0,1,0.7540220999999292,None,,,,,,,,840,21,M,R,2026-02-25_12h28.37.291,VisualSearch_2526_3,,2025.2.4,2026-02-25 12h28.37.521537 +0100,
vertical.xlsx,The target is tilted.,135,8,0,1,1,0,0,0,0,0,0,0,0,0,0,0,0,0,1,135,space,8.284229199999572,None,1,1,0.6499688000003516,None,space,1.5766579000001002,None,0,0,0,1,,,,,1,0,8,3,69.89476379999996,,,,,,,,,,,,,,,,,,,,,69.87919010000041,69.89476379999996,70.37838830000055,70.38309579999986,70.3983232999999,71.0616385000003,,,,,71.06182780000017,71.07725389999996,71.27792659999977,71.26139000000057,70.3983232999999,,,,,,,,1,1,0.6499688000003516,None,,,,,,,,840,21,M,R,2026-02-25_12h28.37.291,VisualSearch_2526_3,,2025.2.4,2026-02-25 12h28.37.521537 +0100,
vertical.xlsx,The target is tilted.,135,9,1,1,0,1,1,1,0,0,0,0,0,0,0,0,1,3,4,135,space,8.284229199999572,None,0,1,0.7280306999991808,None,space,1.5766579000001002,None,0,0,0,1,,,,,1,1,9,6,71.27792659999977,,,,,,,,,,,,,,,,,,,,,71.2621366000003,71.27792659999977,71.7623392000005,71.76725940000051,71.77761340000052,72.51191209999979,,,,,72.51210600000013,72.52707650000048,72.72767610000028,72.7113473999998,,,,,,,,,0,1,0.7280306999991808,None,,,,,,,,840,21,M,R,2026-02-25_12h28.37.291,VisualSearch_2526_3,,2025.2.4,2026-02-25 12h28.37.521537 +0100,
vertical.xlsx,The target is tilted.,135,10,2,1,1,1,1,1,0,0,0,0,0,0,0,0,0,3,4,135,space,8.284229199999572,None,1,1,0.6394068999998126,None,space,1.5766579000001002,None,0,0,0,1,,,,,1,2,10,2,72.72767610000028,,,,,,,,,,,,,,,,,,,,,72.71210710000014,72.72767610000028,73.211276,73.21592620000047,73.23133820000021,73.87841920000028,,,,,73.87859600000047,73.89351720000013,74.09410650000063,74.07800000000043,73.23133820000021,,,,,,,,1,1,0.6394068999998126,None,,,,,,,,840,21,M,R,2026-02-25_12h28.37.291,VisualSearch_2526_3,,2025.2.4,2026-02-25 12h28.37.521537 +0100,
vertical.xlsx,The target is tilted.,135,11,3,1,0,0,0,0,0,0,0,0,0,0,0,0,1,1,1,135,space,8.284229199999572,None,0,1,0.6482673999998951,None,space,1.5766579000001002,None,0,0,0,1,,,,,1,3,11,7,74.09410650000063,,,,,,,,,,,,,,,,,,,,,74.07871580000028,74.09410650000063,74.57808750000004,74.5834875999999,74.60060669999984,75.26079120000031,,,,,75.2609553000002,75.27648800000043,75.47721739999997,75.46110360000057,74.60060669999984,,,,,,,,0,1,0.6482673999998951,None,,,,,,,,840,21,M,R,2026-02-25_12h28.37.291,VisualSearch_2526_3,,2025.2.4,2026-02-25 12h28.37.521537 +0100,
vertical.xlsx,The target is tilted.,135,12,4,1,1,1,1,1,1,1,1,1,1,1,1,1,0,11,12,135,space,8.284229199999572,None,0,0,1.9165021999997407,None,space,1.5766579000001002,None,0,0,0,1,,,,,1,4,12,0,75.47721739999997,,,,,,,,,,,,,,,,,,,,,75.46181859999979,75.47721739999997,75.96076390000053,75.96545630000037,75.98194630000035,77.91051570000036,,,,,77.91066490000048,77.92611880000004,78.12672610000027,78.11065920000055,75.98194630000035,,,,,,,,0,0,1.9165021999997407,None,,,,,,,,840,21,M,R,2026-02-25_12h28.37.291,VisualSearch_2526_3,,2025.2.4,2026-02-25 12h28.37.521537 +0100,
vertical.xlsx,The target is tilted.,135,13,5,1,0,1,1,1,1,1,1,1,0,0,0,0,1,7,8,135,space,8.284229199999572,None,0,1,1.7802333999998154,None,space,1.5766579000001002,None,0,0,0,1,,,,,1,5,13,5,78.12672610000027,,,,,,,,,,,,,,,,,,,,,78.11138829999982,78.12672610000027,78.60993400000007,78.61417130000063,78.62903079999978,80.41070740000032,,,,,80.41089030000057,80.42580809999981,80.62624440000036,80.60981570000058,78.62903079999978,,,,,,,,0,1,1.7802333999998154,None,,,,,,,,840,21,M,R,2026-02-25_12h28.37.291,VisualSearch_2526_3,,2025.2.4,2026-02-25 12h28.37.521537 +0100,
vertical.xlsx,The target is tilted.,135,14,6,1,1,1,1,1,1,1,1,1,0,0,0,0,0,7,8,135,space,8.284229199999572,None,1,1,0.7690130000000863,None,space,1.5766579000001002,None,0,0,0,1,,,,,1,6,14,1,80.62624440000036,,,,,,,,,,,,,,,,,,,,,80.61057919999985,80.62624440000036,81.1103477000006,81.11565289999999,81.13218060000054,81.91030640000008,,,,,81.9104698000001,81.92553039999984,82.12612600000011,82.11010600000009,81.13218060000054,,,,,,,,1,1,0.7690130000000863,None,,,,,,,,840,21,M,R,2026-02-25_12h28.37.291,VisualSearch_2526_3,,2025.2.4,2026-02-25 12h28.37.521537 +0100,
vertical.xlsx,The target is tilted.,135,15,7,1,0,1,1,1,1,1,1,1,1,1,1,1,1,11,12,135,space,8.284229199999572,None,0,1,2.0142951999996512,None,space,1.5766579000001002,None,0,0,0,1,,,,,1,7,15,4,82.12612600000011,,,,,,,,,,,,,,,,,,,,,82.11093030000029,82.12612600000011,82.60997330000009,82.6152060000004,82.63059460000022,84.65972899999997,,,,,84.6598912999998,84.67509520000021,84.87567099999978,84.85955379999996,82.63059460000022,,,,,,,,0,1,2.0142951999996512,None,,,,,,,,840,21,M,R,2026-02-25_12h28.37.291,VisualSearch_2526_3,,2025.2.4,2026-02-25 12h28.37.521537 +0100,
vertical.xlsx,The target is tilted.,135,16,0,2,0,1,1,1,1,1,1,1,1,1,1,1,1,11,12,135,space,8.284229199999572,None,0,1,2.4146958999999697,None,space,1.5766579000001002,None,0,0,0,1,,,,,2,0,16,4,84.87567099999978,,,,,,,,,,,,,,,,,,,,,84.86026430000038,84.87567099999978,85.35945750000064,85.36407020000024,85.38075060000028,87.8087058000001,,,,,87.80885920000037,87.8244322999999,88.02510830000028,88.00891990000036,85.38075060000028,,,,,,,,0,1,2.4146958999999697,None,,,,,,,,840,21,M,R,2026-02-25_12h28.37.291,VisualSearch_2526_3,,2025.2.4,2026-02-25 12h28.37.521537 +0100,
vertical.xlsx,The target is tilted.,135,17,1,2,0,1,1,1,0,0,0,0,0,0,0,0,1,3,4,135,space,8.284229199999572,None,0,1,1.0671855999999025,None,space,1.5766579000001002,None,0,0,0,1,,,,,2,1,17,6,88.02510830000028,,,,,,,,,,,,,,,,,,,,,88.00965120000001,88.02510830000028,88.50882180000008,88.5135065000004,88.53077350000058,89.60906549999982,,,,,89.60924450000039,89.62422900000001,89.82475740000064,89.80864740000015,88.53077350000058,,,,,,,,0,1,1.0671855999999025,None,,,,,,,,840,21,M,R,2026-02-25_12h28.37.291,VisualSearch_2526_3,,2025.2.4,2026-02-25 12h28.37.521537 +0100,
vertical.xlsx,The target is tilted.,135,18,2,2,1,1,1,1,1,1,1,1,0,0,0,0,0,7,8,135,space,8.284229199999572,None,1,1,1.3213955000001079,None,space,1.5766579000001002,None,0,0,0,1,,,,,2,2,18,1,89.82475740000064,,,,,,,,,,,,,,,,,,,,,89.80937690000064,89.82475740000064,90.30741149999994,90.3093458000003,90.32389570000032,91.65860530000009,,,,,91.65873210000063,91.67381079999996,91.87448510000013,91.85827860000063,90.32389570000032,,,,,,,,1,1,1.3213955000001079,None,,,,,,,,840,21,M,R,2026-02-25_12h28.37.291,VisualSearch_2526_3,,2025.2.4,2026-02-25 12h28.37.521537 +0100,
vertical.xlsx,The target is tilted.,135,19,3,2,1,1,1,1,0,0,0,0,0,0,0,0,0,3,4,135,space,8.284229199999572,None,1,1,0.7196329999997033,None,space,1.5766579000001002,None,0,0,0,1,,,,,2,3,19,2,91.87448510000013,,,,,,,,,,,,,,,,,,,,,91.85900829999991,91.87448510000013,92.35811600000034,92.36273979999987,92.38041750000048,93.10846949999996,,,,,93.10865009999998,93.12366350000048,93.32377890000043,93.30764309999995,92.38041750000048,,,,,,,,1,1,0.7196329999997033,None,,,,,,,,840,21,M,R,2026-02-25_12h28.37.291,VisualSearch_2526_3,,2025.2.4,2026-02-25 12h28.37.521537 +0100,
vertical.xlsx,The target is tilted.,135,20,4,2,1,1,1,1,1,1,1,1,1,1,1,1,0,11,12,135,space,8.284229199999572,None,1,1,1.288875199999893,None,space,1.5766579000001002,None,0,0,0,1,,,,,2,4,20,0,93.32377890000043,,,,,,,,,,,,,,,,,,,,,93.30831279999984,93.32377890000043,93.80735060000006,93.81123040000057,93.82749180000064,95.12477080000008,,,,,95.12494719999995,95.13993750000009,95.34054180000021,95.32419530000061,93.82749180000064,,,,,,,,1,1,1.288875199999893,None,,,,,,,,840,21,M,R,2026-02-25_12h28.37.291,VisualSearch_2526_3,,2025.2.4,2026-02-25 12h28.37.521537 +0100,
vertical.xlsx,The target is tilted.,135,21,5,2,0,1,1,1,1,1,1,1,0,0,0,0,1,7,8,135,space,8.284229199999572,None,0,1,1.6260058999996545,None,space,1.5766579000001002,None,0,0,0,1,,,,,2,5,21,5,95.34054180000021,,,,,,,,,,,,,,,,,,,,,95.3248580999998,95.34054180000021,95.82432690000041,95.8288137999998,95.83994230000008,97.47448859999986,,,,,97.4746681000006,97.48957500000051,97.69013150000046,97.67365520000021,95.83994230000008,,,,,,,,0,1,1.6260058999996545,None,,,,,,,,840,21,M,R,2026-02-25_12h28.37.291,VisualSearch_2526_3,,2025.2.4,2026-02-25 12h28.37.521537 +0100,
vertical.xlsx,The target is tilted.,135,22,6,2,0,0,0,0,0,0,0,0,0,0,0,0,1,1,1,135,space,8.284229199999572,None,0,1,0.8635957000005874,None,space,1.5766579000001002,None,0,0,0,1,,,,,2,6,22,7,97.69013150000046,,,,,,,,,,,,,,,,,,,,,97.67426840000007,97.69013150000046,98.17344169999978,98.17542850000063,98.18950250000034,99.0572087999999,,,,,99.05739059999996,99.07262200000059,99.27283070000067,99.25679930000024,98.18950250000034,,,,,,,,0,1,0.8635957000005874,None,,,,,,,,840,21,M,R,2026-02-25_12h28.37.291,VisualSearch_2526_3,,2025.2.4,2026-02-25 12h28.37.521537 +0100,
vertical.xlsx,The target is tilted.,135,23,7,2,1,0,0,0,0,0,0,0,0,0,0,0,0,0,1,135,space,8.284229199999572,None,1,1,0.538311899999826,None,space,1.5766579000001002,None,0,0,0,1,,,,,2,7,23,3,99.27283070000067,,,,,,,,,,,,,,,,,,,,,99.2575867000005,99.27283070000067,99.75671140000031,99.76147870000023,99.77745289999984,100.32340980000026,,,,,100.32351190000009,100.33895140000004,100.53972770000018,100.52324910000061,99.77745289999984,,,,,,,,1,1,0.538311899999826,None,,,,,,,,840,21,M,R,2026-02-25_12h28.37.291,VisualSearch_2526_3,,2025.2.4,2026-02-25 12h28.37.521537 +0100,
vertical.xlsx,The target is tilted.,135,24,0,3,0,1,1,1,0,0,0,0,0,0,0,0,1,3,4,135,space,8.284229199999572,None,0,1,0.8145796999997401,None,space,1.5766579000001002,None,0,0,0,1,,,,,3,0,24,6,100.53972770000018,,,,,,,,,,,,,,,,,,,,,100.52408259999993,100.53972770000018,101.02330080000047,101.02798780000012,101.04372409999996,101.87301120000029,,,,,101.87317660000008,101.88876040000014,102.08904620000067,102.07290830000056,101.04372409999996,,,,,,,,0,1,0.8145796999997401,None,,,,,,,,840,21,M,R,2026-02-25_12h28.37.291,VisualSearch_2526_3,,2025.2.4,2026-02-25 12h28.37.521537 +0100,
vertical.xlsx,The target is tilted.,135,25,1,3,0,1,1,1,1,1,1,1,1,1,1,1,1,11,12,135,space,8.284229199999572,None,0,1,1.5726819000001342,None,space,1.5766579000001002,None,0,0,0,1,,,,,3,1,25,4,102.08904620000067,,,,,,,,,,,,,,,,,,,,,102.0736764000003,102.08904620000067,102.57309460000033,102.57764600000064,102.59089760000006,104.1732462,,,,,104.17345260000002,104.18855170000006,104.3891480000002,104.37278740000056,102.59089760000006,,,,,,,,0,1,1.5726819000001342,None,,,,,,,,840,21,M,R,2026-02-25_12h28.37.291,VisualSearch_2526_3,,2025.2.4,2026-02-25 12h28.37.521537 +0100,
vertical.xlsx,The target is tilted.,135,26,2,3,0,1,1,1,1,1,1,1,0,0,0,0,1,7,8,135,space,8.284229199999572,None,0,1,1.7049465999998574,None,space,1.5766579000001002,None,0,0,0,1,,,,,3,2,26,5,104.3891480000002,,,,,,,,,,,,,,,,,,,,,104.37355120000029,104.3891480000002,104.87270309999985,104.87755010000001,104.89400939999996,106.60618870000053,,,,,106.60636770000019,106.62135300000045,106.8218295000006,106.80558160000055,104.89400939999996,,,,,,,,0,1,1.7049465999998574,None,,,,,,,,840,21,M,R,2026-02-25_12h28.37.291,VisualSearch_2526_3,,2025.2.4,2026-02-25 12h28.37.521537 +0100,
vertical.xlsx,The target is tilted.,135,27,3,3,0,0,0,0,0,0,0,0,0,0,0,0,1,1,1,135,space,8.284229199999572,None,0,1,0.6528134000000136,None,space,1.5766579000001002,None,0,0,0,1,,,,,3,3,27,7,106.8218295000006,,,,,,,,,,,,,,,,,,,,,106.8063258000002,106.8218295000006,107.3054146000004,107.30797100000018,107.3216394000001,107.98901470000055,,,,,107.98920270000053,108.00458669999989,108.20503170000029,108.18892060000053,107.3216394000001,,,,,,,,0,1,0.6528134000000136,None,,,,,,,,840,21,M,R,2026-02-25_12h28.37.291,VisualSearch_2526_3,,2025.2.4,2026-02-25 12h28.37.521537 +0100,
vertical.xlsx,The target is tilted.,135,28,4,3,1,0,0,0,0,0,0,0,0,0,0,0,0,0,1,135,space,8.284229199999572,None,1,1,0.6579964000002292,None,space,1.5766579000001002,None,0,0,0,1,,,,,3,4,28,3,108.20503170000029,,,,,,,,,,,,,,,,,,,,,108.18963489999987,108.20503170000029,108.68884350000008,108.69343750000007,108.70972960000017,109.37230020000061,,,,,109.37250949999998,109.38769010000033,109.58829200000037,109.57172470000023,108.70972960000017,,,,,,,,1,1,0.6579964000002292,None,,,,,,,,840,21,M,R,2026-02-25_12h28.37.291,VisualSearch_2526_3,,2025.2.4,2026-02-25 12h28.37.521537 +0100,
vertical.xlsx,The target is tilted.,135,29,5,3,1,1,1,1,1,1,1,1,1,1,1,1,0,11,12,135,space,8.284229199999572,None,1,1,0.92913580000004,None,space,1.5766579000001002,None,0,0,0,1,,,,,3,5,29,0,109.58829200000037,,,,,,,,,,,,,,,,,,,,,109.57249990000037,109.58829200000037,110.07170620000034,110.07725949999985,110.09474769999997,111.03801329999988,,,,,111.03815300000042,111.05395210000006,111.25460360000034,111.23851950000062,110.09474769999997,,,,,,,,1,1,0.92913580000004,None,,,,,,,,840,21,M,R,2026-02-25_12h28.37.291,VisualSearch_2526_3,,2025.2.4,2026-02-25 12h28.37.521537 +0100,
vertical.xlsx,The target is tilted.,135,30,6,3,1,1,1,1,0,0,0,0,0,0,0,0,0,3,4,135,space,8.284229199999572,None,1,1,0.7127359000005526,None,space,1.5766579000001002,None,0,0,0,1,,,,,3,6,30,2,111.25460360000034,,,,,,,,,,,,,,,,,,,,,111.2393333,111.25460360000034,111.73827960000017,111.74291520000043,111.75924560000021,112.48797980000018,,,,,112.4881433999999,112.50359260000005,112.70402410000042,112.68813090000003,111.75924560000021,,,,,,,,1,1,0.7127359000005526,None,,,,,,,,840,21,M,R,2026-02-25_12h28.37.291,VisualSearch_2526_3,,2025.2.4,2026-02-25 12h28.37.521537 +0100,
vertical.xlsx,The target is tilted.,135,31,7,3,1,1,1,1,1,1,1,1,0,0,0,0,0,7,8,135,space,8.284229199999572,None,1,1,1.0507660000002943,None,space,1.5766579000001002,None,0,0,0,1,,,,,3,7,31,1,112.70402410000042,,,,,,,,,,,,,,,,,,,,,112.68886569999995,112.70402410000042,113.18799240000044,113.19261009999991,113.20816860000014,114.27173579999999,,,,,114.27191380000022,114.28675949999979,114.48735570000008,114.47127240000009,113.20816860000014,,,,,,,,1,1,1.0507660000002943,None,,,,,,,,840,21,M,R,2026-02-25_12h28.37.291,VisualSearch_2526_3,,2025.2.4,2026-02-25 12h28.37.521537 +0100,
vertical.xlsx,The target is tilted.,135,32,0,4,1,1,1,1,0,0,0,0,0,0,0,0,0,3,4,135,space,8.284229199999572,None,1,1,0.749016799999481,None,space,1.5766579000001002,None,0,0,0,1,,,,,4,0,32,2,114.48735570000008,,,,,,,,,,,,,,,,,,,,,114.4719925999998,114.48735570000008,114.97118930000033,114.97583870000017,114.99200110000038,115.75414780000028,,,,,115.75433160000011,115.76974000000064,115.97006169999986,115.95385609999994,114.99200110000038,,,,,,,,1,1,0.749016799999481,None,,,,,,,,840,21,M,R,2026-02-25_12h28.37.291,VisualSearch_2526_3,,2025.2.4,2026-02-25 12h28.37.521537 +0100,
vertical.xlsx,The target is tilted.,135,33,1,4,0,1,1,1,0,0,0,0,0,0,0,0,1,3,4,135,space,8.284229199999572,None,0,1,0.7714054999996733,None,space,1.5766579000001002,None,0,0,0,1,,,,,4,1,33,6,115.97006169999986,,,,,,,,,,,,,,,,,,,,,115.95459790000041,115.97006169999986,116.45435590000034,116.45942980000018,116.47652190000008,117.25405050000063,,,,,117.25419039999997,117.26984570000059,117.47022180000022,117.45364250000057,116.47652190000008,,,,,,,,0,1,0.7714054999996733,None,,,,,,,,840,21,M,R,2026-02-25_12h28.37.291,VisualSearch_2526_3,,2025.2.4,2026-02-25 12h28.37.521537 +0100,
vertical.xlsx,The target is tilted.,135,34,2,4,1,0,0,0,0,0,0,0,0,0,0,0,0,0,1,135,space,8.284229199999572,None,1,1,0.5471833999999944,None,space,1.5766579000001002,None,0,0,0,1,,,,,4,2,34,3,117.47022180000022,,,,,,,,,,,,,,,,,,,,,117.45436100000006,117.47022180000022,117.95360930000061,117.9583290999999,117.97446920000039,118.53706500000044,,,,,118.53724320000038,118.55261080000037,118.75315039999987,118.73709419999977,117.97446920000039,,,,,,,,1,1,0.5471833999999944,None,,,,,,,,840,21,M,R,2026-02-25_12h28.37.291,VisualSearch_2526_3,,2025.2.4,2026-02-25 12h28.37.521537 +0100,
vertical.xlsx,The target is tilted.,135,35,3,4,0,1,1,1,1,1,1,1,1,1,1,1,1,11,12,135,space,8.284229199999572,None,0,1,2.72439679999934,None,space,1.5766579000001002,None,0,0,0,1,,,,,4,3,35,4,118.75315039999987,,,,,,,,,,,,,,,,,,,,,118.73784510000041,118.75315039999987,119.23713000000043,119.24169650000022,119.25810080000065,121.98659740000039,,,,,121.98681780000061,122.00206600000001,122.20218420000037,122.1861856000005,119.25810080000065,,,,,,,,0,1,2.72439679999934,None,,,,,,,,840,21,M,R,2026-02-25_12h28.37.291,VisualSearch_2526_3,,2025.2.4,2026-02-25 12h28.37.521537 +0100,
vertical.xlsx,The target is tilted.,135,36,4,4,0,0,0,0,0,0,0,0,0,0,0,0,1,1,1,135,space,8.284229199999572,None,0,1,1.1615537000006952,None,space,1.5766579000001002,None,0,0,0,1,,,,,4,4,36,7,122.20218420000037,,,,,,,,,,,,,,,,,,,,,122.18689170000016,122.20218420000037,122.68654400000014,122.69122580000021,122.70493030000034,123.86969930000032,,,,,123.8698615000003,123.88510769999993,124.08573870000055,124.06952210000054,122.70493030000034,,,,,,,,0,1,1.1615537000006952,None,,,,,,,,840,21,M,R,2026-02-25_12h28.37.291,VisualSearch_2526_3,,2025.2.4,2026-02-25 12h28.37.521537 +0100,
vertical.xlsx,The target is tilted.,135,37,5,4,1,1,1,1,1,1,1,1,1,1,1,1,0,11,12,135,space,8.284229199999572,None,1,1,1.352674300000217,None,space,1.5766579000001002,None,0,0,0,1,,,,,4,5,37,0,124.08573870000055,,,,,,,,,,,,,,,,,,,,,124.0702054000003,124.08573870000055,124.56957039999998,124.5742893000006,124.59067360000063,125.95348960000047,,,,,125.95366749999994,125.96834500000023,126.16869570000017,126.15234760000021,124.59067360000063,,,,,,,,1,1,1.352674300000217,None,,,,,,,,840,21,M,R,2026-02-25_12h28.37.291,VisualSearch_2526_3,,2025.2.4,2026-02-25 12h28.37.521537 +0100,
vertical.xlsx,The target is tilted.,135,38,6,4,1,1,1,1,1,1,1,1,0,0,0,0,0,7,8,135,space,8.284229199999572,None,1,1,0.6800529000001916,None,space,1.5766579000001002,None,0,0,0,1,,,,,4,6,38,1,126.16869570000017,,,,,,,,,,,,,,,,,,,,,126.15308580000055,126.16869570000017,126.65234659999987,126.65698040000007,126.67272370000046,127.36880209999981,,,,,127.36896650000017,127.3845394,127.58512830000018,127.56906160000017,126.67272370000046,,,,,,,,1,1,0.6800529000001916,None,,,,,,,,840,21,M,R,2026-02-25_12h28.37.291,VisualSearch_2526_3,,2025.2.4,2026-02-25 12h28.37.521537 +0100,
vertical.xlsx,The target is tilted.,135,39,7,4,0,1,1,1,1,1,1,1,0,0,0,0,1,7,8,135,space,8.284229199999572,None,0,1,3.9978268999993816,None,space,1.5766579000001002,None,0,0,0,1,,,,,4,7,39,5,127.58512830000018,,,,,,,,,,,,,,,,,,,,,127.56977340000049,127.58512830000018,128.06917860000067,128.07440060000044,128.0912698000002,132.1016553999998,,,,,132.10181980000016,132.11705810000058,132.3171553000002,132.30117510000036,128.0912698000002,,,,,,,,0,1,3.9978268999993816,None,,,,,,,,840,21,M,R,2026-02-25_12h28.37.291,VisualSearch_2526_3,,2025.2.4,2026-02-25 12h28.37.521537 +0100,
vertical.xlsx,The target is tilted.,135,40,0,5,0,1,1,1,0,0,0,0,0,0,0,0,1,3,4,135,space,8.284229199999572,None,0,1,1.33461780000016,None,space,1.5766579000001002,None,0,0,0,1,,,,,5,0,40,6,132.3171553000002,,,,,,,,,,,,,,,,,,,,,132.30184970000028,132.3171553000002,132.80135920000066,132.80601070000012,132.82252299999982,134.16840800000045,,,,,134.16858610000054,134.1836162999998,134.38391990000036,134.36729220000052,132.82252299999982,,,,,,,,0,1,1.33461780000016,None,,,,,,,,840,21,M,R,2026-02-25_12h28.37.291,VisualSearch_2526_3,,2025.2.4,2026-02-25 12h28.37.521537 +0100,
vertical.xlsx,The target is tilted.,135,41,1,5,1,1,1,1,0,0,0,0,0,0,0,0,0,3,4,135,space,8.284229199999572,None,1,1,1.0053946999996697,None,space,1.5766579000001002,None,0,0,0,1,,,,,5,1,41,2,134.38391990000036,,,,,,,,,,,,,,,,,,,,,134.36794009999994,134.38391990000036,134.8674861999998,134.87218940000002,134.88880890000019,135.90088560000004,,,,,135.90105310000035,135.91644890000043,136.11710050000056,136.1010422999998,134.88880890000019,,,,,,,,1,1,1.0053946999996697,None,,,,,,,,840,21,M,R,2026-02-25_12h28.37.291,VisualSearch_2526_3,,2025.2.4,2026-02-25 12h28.37.521537 +0100,
vertical.xlsx,The target is tilted.,135,42,2,5,1,0,0,0,0,0,0,0,0,0,0,0,0,0,1,135,space,8.284229199999572,None,1,1,0.9399442000003546,None,space,1.5766579000001002,None,0,0,0,1,,,,,5,2,42,3,136.11710050000056,,,,,,,,,,,,,,,,,,,,,136.10179570000037,136.11710050000056,136.60083870000017,136.6054893999999,136.6222959000006,137.56761780000033,,,,,137.5678052000003,137.58285820000037,137.7833851000005,137.76718859999983,136.6222959000006,,,,,,,,1,1,0.9399442000003546,None,,,,,,,,840,21,M,R,2026-02-25_12h28.37.291,VisualSearch_2526_3,,2025.2.4,2026-02-25 12h28.37.521537 +0100,
vertical.xlsx,The target is tilted.,135,43,3,5,0,1,1,1,1,1,1,1,1,1,1,1,1,11,12,135,space,8.284229199999572,None,0,1,2.145622000000003,None,space,1.5766579000001002,None,0,0,0,1,,,,,5,3,43,4,137.7833851000005,,,,,,,,,,,,,,,,,,,,,137.7679420000004,137.7833851000005,138.26722860000064,138.27179810000052,138.28727870000057,140.4493352999998,,,,,140.44944740000028,140.46606750000046,,140.64996940000037,138.28727870000057,,,,,,,,0,1,2.145622000000003,None,,,,,,,,840,21,M,R,2026-02-25_12h28.37.291,VisualSearch_2526_3,,2025.2.4,2026-02-25 12h28.37.521537 +0100,
vertical.xlsx,The target is tilted.,135,44,4,5,1,1,1,1,1,1,1,1,0,0,0,0,0,7,8,135,space,8.284229199999572,None,1,1,2.0712917999999263,None,space,1.5766579000001002,None,0,0,0,1,,,,,5,4,44,1,140.66622780000034,,,,,,,,,,,,,,,,,,,,,140.65073490000032,140.66622780000034,141.14988790000007,141.15467330000047,141.17091560000063,143.25027690000024,,,,,143.25047499999982,143.26528150000013,143.4653917000005,143.44930600000043,,,,,,,,,1,1,2.0712917999999263,None,,,,,,,,840,21,M,R,2026-02-25_12h28.37.291,VisualSearch_2526_3,,2025.2.4,2026-02-25 12h28.37.521537 +0100,
vertical.xlsx,The target is tilted.,135,45,5,5,0,0,0,0,0,0,0,0,0,0,0,0,1,1,1,135,space,8.284229199999572,None,0,1,1.047807400000238,None,space,1.5766579000001002,None,0,0,0,1,,,,,5,5,45,7,143.4653917000005,,,,,,,,,,,,,,,,,,,,,143.4500863000003,143.4653917000005,143.94983630000024,143.95489590000034,143.9713427000006,145.03251619999992,,,,,145.03267980000055,145.0481792999999,145.24890080000023,145.2326221000003,143.9713427000006,,,,,,,,0,1,1.047807400000238,None,,,,,,,,840,21,M,R,2026-02-25_12h28.37.291,VisualSearch_2526_3,,2025.2.4,2026-02-25 12h28.37.521537 +0100,
vertical.xlsx,The target is tilted.,135,46,6,5,1,1,1,1,1,1,1,1,1,1,1,1,0,11,12,135,space,8.284229199999572,None,1,1,1.1020902000000206,None,space,1.5766579000001002,None,0,0,0,1,,,,,5,6,46,0,145.24890080000023,,,,,,,,,,,,,,,,,,,,,145.2333933,145.24890080000023,145.7325380000002,145.73714019999989,145.7535238999999,146.86627190000036,,,,,146.86645039999985,146.8813157000004,147.0817579000004,147.06574600000022,145.7535238999999,,,,,,,,1,1,1.1020902000000206,None,,,,,,,,840,21,M,R,2026-02-25_12h28.37.291,VisualSearch_2526_3,,2025.2.4,2026-02-25 12h28.37.521537 +0100,
vertical.xlsx,The target is tilted.,135,47,7,5,0,1,1,1,1,1,1,1,0,0,0,0,1,7,8,135,space,8.284229199999572,None,0,1,1.8600936000002548,None,space,1.5766579000001002,None,0,0,0,1,,,,,5,7,47,5,147.0817579000004,,,,,,,,,,,,,,,,,,,,,147.06646499999988,147.0817579000004,147.56563520000054,147.57021990000067,147.58734410000034,149.4483355000002,,,,,149.4484693000004,149.46414619999996,149.6648341,149.64867659999982,147.58734410000034,,,,,,,,0,1,1.8600936000002548,None,,,,,,,,840,21,M,R,2026-02-25_12h28.37.291,VisualSearch_2526_3,,2025.2.4,2026-02-25 12h28.37.521537 +0100,
vertical.xlsx,The target is tilted.,135,48,0,6,1,0,0,0,0,0,0,0,0,0,0,0,0,0,1,135,space,8.284229199999572,None,1,1,0.6339146999998775,None,space,1.5766579000001002,None,0,0,0,1,,,,,6,0,48,3,149.6648341,,,,,,,,,,,,,,,,,,,,,149.6494115000005,149.6648341,150.14860860000044,150.1531702000002,150.16997309999988,150.81561409999995,,,,,150.81579340000008,150.83061650000036,151.03085629999987,151.01505760000055,150.16997309999988,,,,,,,,1,1,0.6339146999998775,None,,,,,,,,840,21,M,R,2026-02-25_12h28.37.291,VisualSearch_2526_3,,2025.2.4,2026-02-25 12h28.37.521537 +0100,
vertical.xlsx,The target is tilted.,135,49,1,6,0,0,0,0,0,0,0,0,0,0,0,0,1,1,1,135,space,8.284229199999572,None,0,1,0.624758799999654,None,space,1.5766579000001002,None,0,0,0,1,,,,,6,1,49,7,151.03085629999987,,,,,,,,,,,,,,,,,,,,,151.0157952999998,151.03085629999987,151.51514000000043,151.52027670000007,151.53683309999997,152.16522840000016,,,,,152.16543300000012,152.18052050000006,152.3806349000006,152.3646391000002,151.53683309999997,,,,,,,,0,1,0.624758799999654,None,,,,,,,,840,21,M,R,2026-02-25_12h28.37.291,VisualSearch_2526_3,,2025.2.4,2026-02-25 12h28.37.521537 +0100,
vertical.xlsx,The target is tilted.,135,50,2,6,1,1,1,1,1,1,1,1,0,0,0,0,0,7,8,135,space,8.284229199999572,None,1,1,0.6299607000000833,None,space,1.5766579000001002,None,0,0,0,1,,,,,6,2,50,1,152.3806349000006,,,,,,,,,,,,,,,,,,,,,152.36536200000046,152.3806349000006,152.8647759000005,152.86949280000044,152.88500459999977,153.53111609999996,,,,,153.53126520000023,153.5467189000001,153.74748480000017,153.73136870000053,152.88500459999977,,,,,,,,1,1,0.6299607000000833,None,,,,,,,,840,21,M,R,2026-02-25_12h28.37.291,VisualSearch_2526_3,,2025.2.4,2026-02-25 12h28.37.521537 +0100,
vertical.xlsx,The target is tilted.,135,51,3,6,0,1,1,1,1,1,1,1,1,1,1,1,1,11,12,135,space,8.284229199999572,None,0,1,1.7181975999992574,None,space,1.5766579000001002,None,0,0,0,1,,,,,6,3,51,4,153.74748480000017,,,,,,,,,,,,,,,,,,,,,153.73210350000045,153.74748480000017,154.23121210000045,154.2356620999999,154.25105489999987,155.9810535000006,,,,,155.98122390000026,155.99650340000062,156.1969020000006,156.18061380000017,154.25105489999987,,,,,,,,0,1,1.7181975999992574,None,,,,,,,,840,21,M,R,2026-02-25_12h28.37.291,VisualSearch_2526_3,,2025.2.4,2026-02-25 12h28.37.521537 +0100,
vertical.xlsx,The target is tilted.,135,52,4,6,1,1,1,1,1,1,1,1,1,1,1,1,0,11,12,135,space,8.284229199999572,None,1,1,1.7980883000000176,None,space,1.5766579000001002,None,0,0,0,1,,,,,6,4,52,0,156.1969020000006,,,,,,,,,,,,,,,,,,,,,156.1812799999998,156.1969020000006,156.68095540000013,156.68567130000065,156.70194640000045,158.5132064999998,,,,,158.5133297000002,158.52924780000012,158.72951009999997,158.71336599999995,156.70194640000045,,,,,,,,1,1,1.7980883000000176,None,,,,,,,,840,21,M,R,2026-02-25_12h28.37.291,VisualSearch_2526_3,,2025.2.4,2026-02-25 12h28.37.521537 +0100,
vertical.xlsx,The target is tilted.,135,53,5,6,0,1,1,1,1,1,1,1,0,0,0,0,1,7,8,135,space,8.284229199999572,None,0,1,1.831473499999447,None,space,1.5766579000001002,None,0,0,0,1,,,,,6,5,53,5,158.72951009999997,,,,,,,,,,,,,,,,,,,,,158.71405330000016,158.72951009999997,159.21346510000058,159.2182899999998,159.2336667999998,161.07987010000033,,,,,161.08003180000014,161.0954873999999,161.2961707000004,161.27992880000056,,,,,,,,,0,1,1.831473499999447,None,,,,,,,,840,21,M,R,2026-02-25_12h28.37.291,VisualSearch_2526_3,,2025.2.4,2026-02-25 12h28.37.521537 +0100,
vertical.xlsx,The target is tilted.,135,54,6,6,0,1,1,1,0,0,0,0,0,0,0,0,1,3,4,135,space,8.284229199999572,None,0,1,0.907626799999889,None,space,1.5766579000001002,None,0,0,0,1,,,,,6,6,54,6,161.2961707000004,,,,,,,,,,,,,,,,,,,,,161.28061960000014,161.2961707000004,161.77992050000012,161.7845754,161.8004918000006,162.7134012000006,,,,,162.71356490000016,162.72863159999997,162.92924560000029,162.9128737000001,161.8004918000006,,,,,,,,0,1,0.907626799999889,None,,,,,,,,840,21,M,R,2026-02-25_12h28.37.291,VisualSearch_2526_3,,2025.2.4,2026-02-25 12h28.37.521537 +0100,
vertical.xlsx,The target is tilted.,135,55,7,6,1,1,1,1,0,0,0,0,0,0,0,0,0,3,4,135,space,8.284229199999572,None,1,1,0.8251566999997522,None,space,1.5766579000001002,None,0,0,0,1,,,,,6,7,55,2,162.92924560000029,,,,,,,,,,,,,,,,,,,,,162.9135299999998,162.92924560000029,163.41295119999995,163.4178364999998,163.43353490000027,164.26297690000047,,,,,164.26315930000055,164.2783829,164.47896420000052,164.46274340000036,163.43353490000027,,,,,,,,1,1,0.8251566999997522,None,,,,,,,,840,21,M,R,2026-02-25_12h28.37.291,VisualSearch_2526_3,,2025.2.4,2026-02-25 12h28.37.521537 +0100,
vertical.xlsx,The target is tilted.,135,56,0,7,0,1,1,1,1,1,1,1,1,1,1,1,1,11,12,135,space,8.284229199999572,None,0,1,2.4776099999999133,None,space,1.5766579000001002,None,0,0,0,1,,,,,7,0,56,4,164.47896420000052,,,,,,,,,,,,,,,,,,,,,164.4635014000005,164.47896420000052,164.96265570000014,164.96724750000067,164.98253540000042,167.4625433000001,,,,,167.46271179999985,167.4778322000002,167.67846120000013,167.66213620000053,164.98253540000042,,,,,,,,0,1,2.4776099999999133,None,,,,,,,,840,21,M,R,2026-02-25_12h28.37.291,VisualSearch_2526_3,,2025.2.4,2026-02-25 12h28.37.521537 +0100,
vertical.xlsx,The target is tilted.,135,57,1,7,1,1,1,1,1,1,1,1,0,0,0,0,0,7,8,135,space,8.284229199999572,None,1,1,0.7297819000004893,None,space,1.5766579000001002,None,0,0,0,1,,,,,7,1,57,1,167.67846120000013,,,,,,,,,,,,,,,,,,,,,167.6628836,167.67846120000013,168.1620225000006,168.16673480000009,168.18261119999988,168.9282374000004,,,,,168.92836950000037,168.9442164000002,169.14442950000011,169.12821600000007,168.18261119999988,,,,,,,,1,1,0.7297819000004893,None,,,,,,,,840,21,M,R,2026-02-25_12h28.37.291,VisualSearch_2526_3,,2025.2.4,2026-02-25 12h28.37.521537 +0100,
vertical.xlsx,The target is tilted.,135,58,2,7,1,0,0,0,0,0,0,0,0,0,0,0,0,0,1,135,space,8.284229199999572,None,1,1,0.5901617000008628,None,space,1.5766579000001002,None,0,0,0,1,,,,,7,2,58,3,169.14442950000011,,,,,,,,,,,,,,,,,,,,,169.12880920000043,169.14442950000011,169.6282226000003,169.63323260000016,169.65010020000045,170.2456073000003,,,,,170.24625220000053,170.26076230000035,170.4609285000006,170.44502680000005,169.65010020000045,,,,,,,,1,1,0.5901617000008628,None,,,,,,,,840,21,M,R,2026-02-25_12h28.37.291,VisualSearch_2526_3,,2025.2.4,2026-02-25 12h28.37.521537 +0100,
vertical.xlsx,The target is tilted.,135,59,3,7,0,1,1,1,1,1,1,1,0,0,0,0,1,7,8,135,space,8.284229199999572,None,0,1,2.119867099999283,None,space,1.5766579000001002,None,0,0,0,1,,,,,7,3,59,5,170.4609285000006,,,,,,,,,,,,,,,,,,,,,170.4457825999998,170.4609285000006,170.94456679999985,170.94642470000053,170.96086920000016,173.0944596999998,,,,,173.0946227000004,173.11020310000004,173.3106486000006,173.29462370000056,170.96086920000016,,,,,,,,0,1,2.119867099999283,None,,,,,,,,840,21,M,R,2026-02-25_12h28.37.291,VisualSearch_2526_3,,2025.2.4,2026-02-25 12h28.37.521537 +0100,
vertical.xlsx,The target is tilted.,135,60,4,7,1,1,1,1,1,1,1,1,1,1,1,1,0,11,12,135,space,8.284229199999572,None,0,0,2.075951400000122,None,space,1.5766579000001002,None,0,0,0,1,,,,,7,4,60,0,173.3106486000006,,,,,,,,,,,,,,,,,,,,,173.29538150000008,173.3106486000006,173.7946335000006,173.7993993,173.81402479999997,175.89437820000057,,,,,175.89457089999996,175.9097956000005,176.11045019999983,176.09417190000022,173.81402479999997,,,,,,,,0,0,2.075951400000122,None,,,,,,,,840,21,M,R,2026-02-25_12h28.37.291,VisualSearch_2526_3,,2025.2.4,2026-02-25 12h28.37.521537 +0100,
vertical.xlsx,The target is tilted.,135,61,5,7,1,1,1,1,0,0,0,0,0,0,0,0,0,3,4,135,space,8.284229199999572,None,1,1,0.7508974000002127,None,space,1.5766579000001002,None,0,0,0,1,,,,,7,5,61,2,176.11045019999983,,,,,,,,,,,,,,,,,,,,,176.0949285000006,176.11045019999983,176.59430840000005,176.59984020000047,176.61738849999983,177.3779400000003,,,,,177.37813920000008,177.39291700000012,177.59339210000053,177.57726450000064,176.61738849999983,,,,,,,,1,1,0.7508974000002127,None,,,,,,,,840,21,M,R,2026-02-25_12h28.37.291,VisualSearch_2526_3,,2025.2.4,2026-02-25 12h28.37.521537 +0100,
vertical.xlsx,The target is tilted.,135,62,6,7,0,1,1,1,0,0,0,0,0,0,0,0,1,3,4,135,space,8.284229199999572,None,0,1,0.7304094000000987,None,space,1.5766579000001002,None,0,0,0,1,,,,,7,6,62,6,177.59339210000053,,,,,,,,,,,,,,,,,,,,,177.5780923000002,177.59339210000053,178.077174,178.08182020000004,178.0987911000002,178.84371550000014,,,,,178.84392750000006,178.8592591000006,179.05990050000037,179.0436924000005,178.0987911000002,,,,,,,,0,1,0.7304094000000987,None,,,,,,,,840,21,M,R,2026-02-25_12h28.37.291,VisualSearch_2526_3,,2025.2.4,2026-02-25 12h28.37.521537 +0100,
vertical.xlsx,The target is tilted.,135,63,7,7,0,0,0,0,0,0,0,0,0,0,0,0,1,1,1,135,space,8.284229199999572,None,0,1,0.5700932999998258,None,space,1.5766579000001002,None,0,0,0,1,,,,,7,7,63,7,179.05990050000037,,,,,,,,,,,,,,,,,,,,,179.04444740000054,179.05990050000037,179.54298480000034,179.54712180000024,179.5593714000006,180.1434816000001,,,,,180.14369480000005,180.15905999999995,180.35959679999996,180.3430239999998,179.5593714000006,,,,,,,,0,1,0.5700932999998258,None,,,,,,,,840,21,M,R,2026-02-25_12h28.37.291,VisualSearch_2526_3,,2025.2.4,2026-02-25 12h28.37.521537 +0100,
vertical.xlsx,The target is tilted.,135,64,0,8,1,1,1,1,1,1,1,1,1,1,1,1,0,11,12,135,space,8.284229199999572,None,1,1,0.7776977999992596,None,space,1.5766579000001002,None,0,0,0,1,,,,,8,0,64,0,180.35959679999996,,,,,,,,,,,,,,,,,,,,,180.3437782000001,180.35959679999996,180.8434296000005,180.84809930000029,180.86540500000046,181.65927480000028,,,,,181.6593683000001,181.67536710000059,,181.8596877,180.86540500000046,,,,,,,,1,1,0.7776977999992596,None,,,,,,,,840,21,M,R,2026-02-25_12h28.37.291,VisualSearch_2526_3,,2025.2.4,2026-02-25 12h28.37.521537 +0100,
vertical.xlsx,The target is tilted.,135,65,1,8,0,1,1,1,1,1,1,1,0,0,0,0,1,7,8,135,space,8.284229199999572,None,0,1,1.1150596999996196,None,space,1.5766579000001002,None,0,0,0,1,,,,,8,1,65,5,181.8761271000003,,,,,,,,,,,,,,,,,,,,,181.8604393000005,181.8761271000003,182.35955210000066,182.3642786999999,182.3812536000005,183.50928550000026,,,,,183.5094356999998,183.52506750000066,183.72578489999978,183.7096489000005,,,,,,,,,0,1,1.1150596999996196,None,,,,,,,,840,21,M,R,2026-02-25_12h28.37.291,VisualSearch_2526_3,,2025.2.4,2026-02-25 12h28.37.521537 +0100,
vertical.xlsx,The target is tilted.,135,66,2,8,1,1,1,1,0,0,0,0,0,0,0,0,0,3,4,135,space,8.284229199999572,None,1,1,0.6264777999995204,None,space,1.5766579000001002,None,0,0,0,1,,,,,8,2,66,2,183.72578489999978,,,,,,,,,,,,,,,,,,,,,183.71038580000004,183.72578489999978,184.20959670000047,184.2142988000005,184.23102520000066,184.85919960000047,,,,,184.85928610000065,184.87472090000028,185.0751925000004,185.0594927000002,184.23102520000066,,,,,,,,1,1,0.6264777999995204,None,,,,,,,,840,21,M,R,2026-02-25_12h28.37.291,VisualSearch_2526_3,,2025.2.4,2026-02-25 12h28.37.521537 +0100,
vertical.xlsx,The target is tilted.,135,67,3,8,1,1,1,1,1,1,1,1,0,0,0,0,0,7,8,135,space,8.284229199999572,None,1,1,0.9108005000007324,None,space,1.5766579000001002,None,0,0,0,1,,,,,8,3,67,1,185.0751925000004,,,,,,,,,,,,,,,,,,,,,185.06023050000022,185.0751925000004,185.5590189000004,185.56372680000004,185.58038170000054,186.49230970000008,,,,,186.4923773999999,186.50775760000033,186.70846919999985,186.69242490000033,185.58038170000054,,,,,,,,1,1,0.9108005000007324,None,,,,,,,,840,21,M,R,2026-02-25_12h28.37.291,VisualSearch_2526_3,,2025.2.4,2026-02-25 12h28.37.521537 +0100,
vertical.xlsx,The target is tilted.,135,68,4,8,1,0,0,0,0,0,0,0,0,0,0,0,0,0,1,135,space,8.284229199999572,None,1,1,0.523159599999417,None,space,1.5766579000001002,None,0,0,0,1,,,,,8,4,68,3,186.70846919999985,,,,,,,,,,,,,,,,,,,,,186.6931824000003,186.70846919999985,187.19221509999988,187.19685500000014,187.2134133999998,187.74244499999986,,,,,187.7426245000006,187.7578852000006,187.95831679999992,187.94216270000015,187.2134133999998,,,,,,,,1,1,0.523159599999417,None,,,,,,,,840,21,M,R,2026-02-25_12h28.37.291,VisualSearch_2526_3,,2025.2.4,2026-02-25 12h28.37.521537 +0100,
vertical.xlsx,The target is tilted.,135,69,5,8,0,1,1,1,0,0,0,0,0,0,0,0,1,3,4,135,space,8.284229199999572,None,0,1,0.7218074000002161,None,space,1.5766579000001002,None,0,0,0,1,,,,,8,5,69,6,187.95831679999992,,,,,,,,,,,,,,,,,,,,,187.94291800000065,187.95831679999992,188.4420555000006,188.44671430000017,188.4581675999998,189.19178780000038,,,,,189.19187000000056,189.20734489999995,189.40775269999995,189.39159130000007,188.4581675999998,,,,,,,,0,1,0.7218074000002161,None,,,,,,,,840,21,M,R,2026-02-25_12h28.37.291,VisualSearch_2526_3,,2025.2.4,2026-02-25 12h28.37.521537 +0100,
vertical.xlsx,The target is tilted.,135,70,6,8,0,1,1,1,1,1,1,1,1,1,1,1,1,11,12,135,space,8.284229199999572,None,0,1,1.9395263999995223,None,space,1.5766579000001002,None,0,0,0,1,,,,,8,6,70,4,189.40775269999995,,,,,,,,,,,,,,,,,,,,,189.39227990000018,189.40775269999995,189.8915318999998,189.8959401000002,189.91177400000015,191.85861830000067,,,,,191.85881430000063,191.87384530000054,192.0741711999999,192.05763620000016,189.91177400000015,,,,,,,,0,1,1.9395263999995223,None,,,,,,,,840,21,M,R,2026-02-25_12h28.37.291,VisualSearch_2526_3,,2025.2.4,2026-02-25 12h28.37.521537 +0100,
vertical.xlsx,The target is tilted.,135,71,7,8,0,0,0,0,0,0,0,0,0,0,0,0,1,1,1,135,space,8.284229199999572,None,0,1,0.6493908000002193,None,space,1.5766579000001002,None,0,0,0,1,,,,,8,7,71,7,192.0741711999999,,,,,,,,,,,,,,,,,,,,,192.05829549999999,192.0741711999999,192.55838790000053,192.56327630000033,192.58048360000066,193.24168960000043,,,,,193.24186400000053,193.25690120000036,193.4575408999999,193.44130870000026,192.58048360000066,,,,,,,,0,1,0.6493908000002193,None,,,,,,,,840,21,M,R,2026-02-25_12h28.37.291,VisualSearch_2526_3,,2025.2.4,2026-02-25 12h28.37.521537 +0100,
vertical.xlsx,The target is tilted.,135,72,0,9,1,1,1,1,1,1,1,1,1,1,1,1,0,11,12,135,space,8.284229199999572,None,1,1,0.7910195999993448,None,space,1.5766579000001002,None,0,0,0,1,,,,,9,0,72,0,193.4575408999999,,,,,,,,,,,,,,,,,,,,,193.44204040000022,193.4575408999999,193.94124499999998,193.9467609000003,193.96131160000004,194.75794010000027,,,,,194.75811430000067,194.7734162000006,194.97337789999983,194.95714250000037,193.96131160000004,,,,,,,,1,1,0.7910195999993448,None,,,,,,,,840,21,M,R,2026-02-25_12h28.37.291,VisualSearch_2526_3,,2025.2.4,2026-02-25 12h28.37.521537 +0100,
vertical.xlsx,The target is tilted.,135,73,1,9,1,0,0,0,0,0,0,0,0,0,0,0,0,0,1,135,space,8.284229199999572,None,1,1,0.5053195999998934,None,space,1.5766579000001002,None,0,0,0,1,,,,,9,1,73,3,194.97337789999983,,,,,,,,,,,,,,,,,,,,,194.95744060000015,194.97337789999983,195.45768320000025,195.46229700000004,195.47818590000043,195.99142740000025,,,,,195.99159920000056,196.0064357000001,196.20703070000036,196.1908811000003,195.47818590000043,,,,,,,,1,1,0.5053195999998934,None,,,,,,,,840,21,M,R,2026-02-25_12h28.37.291,VisualSearch_2526_3,,2025.2.4,2026-02-25 12h28.37.521537 +0100,
vertical.xlsx,The target is tilted.,135,74,2,9,0,1,1,1,1,1,1,1,1,1,1,1,1,11,12,135,space,8.284229199999572,None,0,1,1.3892194999998537,None,space,1.5766579000001002,None,0,0,0,1,,,,,9,2,74,4,196.20703070000036,,,,,,,,,,,,,,,,,,,,,196.19159180000042,196.20703070000036,196.69065070000033,196.6952726999998,196.71085110000058,198.1075619000003,,,,,198.10773320000044,198.12269939999987,198.32333910000034,198.30720030000066,196.71085110000058,,,,,,,,0,1,1.3892194999998537,None,,,,,,,,840,21,M,R,2026-02-25_12h28.37.291,VisualSearch_2526_3,,2025.2.4,2026-02-25 12h28.37.521537 +0100,
vertical.xlsx,The target is tilted.,135,75,3,9,1,1,1,1,1,1,1,1,0,0,0,0,0,7,8,135,space,8.284229199999572,None,1,1,1.8354775000007066,None,space,1.5766579000001002,None,0,0,0,1,,,,,9,3,75,1,198.32333910000034,,,,,,,,,,,,,,,,,,,,,198.30798010000035,198.32333910000034,198.8069341999999,198.81100810000044,198.8268521,200.67373529999986,,,,,200.67389000000003,200.68894220000038,200.88956030000008,200.8733130999999,198.8268521,,,,,,,,1,1,1.8354775000007066,None,,,,,,,,840,21,M,R,2026-02-25_12h28.37.291,VisualSearch_2526_3,,2025.2.4,2026-02-25 12h28.37.521537 +0100,
vertical.xlsx,The target is tilted.,135,76,4,9,0,1,1,1,1,1,1,1,0,0,0,0,1,7,8,135,space,8.284229199999572,None,0,1,1.6688775000002352,None,space,1.5766579000001002,None,0,0,0,1,,,,,9,4,76,5,200.88956030000008,,,,,,,,,,,,,,,,,,,,,200.87400630000047,200.88956030000008,201.37292070000058,201.37696680000045,201.39191670000037,203.0733295,,,,,203.07348720000027,203.0885245999998,203.2891300000001,203.27280450000035,201.39191670000037,,,,,,,,0,1,1.6688775000002352,None,,,,,,,,840,21,M,R,2026-02-25_12h28.37.291,VisualSearch_2526_3,,2025.2.4,2026-02-25 12h28.37.521537 +0100,
vertical.xlsx,The target is tilted.,135,77,5,9,0,1,1,1,0,0,0,0,0,0,0,0,1,3,4,135,space,8.284229199999572,None,0,1,0.9128406999998333,None,space,1.5766579000001002,None,0,0,0,1,,,,,9,5,77,6,203.2891300000001,,,,,,,,,,,,,,,,,,,,,203.27348340000026,203.2891300000001,203.77284790000067,203.77739960000054,203.79258300000038,204.7064822000002,,,,,204.70665499999996,204.7216626999998,204.9217004000002,204.90560210000058,203.79258300000038,,,,,,,,0,1,0.9128406999998333,None,,,,,,,,840,21,M,R,2026-02-25_12h28.37.291,VisualSearch_2526_3,,2025.2.4,2026-02-25 12h28.37.521537 +0100,
vertical.xlsx,The target is tilted.,135,78,6,9,0,0,0,0,0,0,0,0,0,0,0,0,1,1,1,135,space,8.284229199999572,None,0,1,0.6223924999994779,None,space,1.5766579000001002,None,0,0,0,1,,,,,9,6,78,7,204.9217004000002,,,,,,,,,,,,,,,,,,,,,204.9063401000003,204.9217004000002,205.40600910000012,205.41054390000045,205.4278101,206.05603190000056,,,,,206.0561914,206.07146939999984,206.27193249999982,206.25585600000068,205.4278101,,,,,,,,0,1,0.6223924999994779,None,,,,,,,,840,21,M,R,2026-02-25_12h28.37.291,VisualSearch_2526_3,,2025.2.4,2026-02-25 12h28.37.521537 +0100,
vertical.xlsx,The target is tilted.,135,79,7,9,1,1,1,1,0,0,0,0,0,0,0,0,0,3,4,135,space,8.284229199999572,None,1,1,0.620540400000209,None,space,1.5766579000001002,None,0,0,0,1,,,,,9,7,79,2,206.27193249999982,,,,,,,,,,,,,,,,,,,,,206.25664450000022,206.27193249999982,206.75548510000044,206.76070400000026,206.7791814000002,207.40569070000038,,,,,207.40581639999982,207.4213004000003,207.6213926999999,207.60559439999997,206.7791814000002,,,,,,,,1,1,0.620540400000209,None,,,,,,,,840,21,M,R,2026-02-25_12h28.37.291,VisualSearch_2526_3,,2025.2.4,2026-02-25 12h28.37.521537 +0100,
vertical.xlsx,The target is tilted.,135,80,0,10,1,1,1,1,1,1,1,1,1,1,1,1,0,11,12,135,space,8.284229199999572,None,1,1,0.9508705999996891,None,space,1.5766579000001002,None,0,0,0,1,,,,,10,0,80,0,207.6213926999999,,,,,,,,,,,,,,,,,,,,,207.60642720000033,207.6213926999999,208.10568860000058,208.1105019000006,208.12142910000057,209.0882491000002,,,,,209.08837630000016,209.10419189999993,209.30453470000066,209.28836090000004,208.12142910000057,,,,,,,,1,1,0.9508705999996891,None,,,,,,,,840,21,M,R,2026-02-25_12h28.37.291,VisualSearch_2526_3,,2025.2.4,2026-02-25 12h28.37.521537 +0100,
vertical.xlsx,The target is tilted.,135,81,1,10,0,0,0,0,0,0,0,0,0,0,0,0,1,1,1,135,space,8.284229199999572,None,0,1,0.5824704999995447,None,space,1.5766579000001002,None,0,0,0,1,,,,,10,1,81,7,209.30453470000066,,,,,,,,,,,,,,,,,,,,,209.28910590000032,209.30453470000066,209.78873019999992,209.79386599999998,209.81002790000002,210.40511440000046,,,,,210.40532050000002,210.4206906999998,210.6209071000003,210.6051750000006,209.81002790000002,,,,,,,,0,1,0.5824704999995447,None,,,,,,,,840,21,M,R,2026-02-25_12h28.37.291,VisualSearch_2526_3,,2025.2.4,2026-02-25 12h28.37.521537 +0100,
vertical.xlsx,The target is tilted.,135,82,2,10,0,1,1,1,1,1,1,1,0,0,0,0,1,7,8,135,space,8.284229199999572,None,0,1,1.3344247999993968,None,space,1.5766579000001002,None,0,0,0,1,,,,,10,2,82,5,210.6209071000003,,,,,,,,,,,,,,,,,,,,,210.6059124000003,210.6209071000003,211.10473009999987,211.10935550000067,211.1270672999999,212.47176620000027,,,,,212.47194450000006,212.4870780000001,212.68715210000028,212.6711191000004,211.1270672999999,,,,,,,,0,1,1.3344247999993968,None,,,,,,,,840,21,M,R,2026-02-25_12h28.37.291,VisualSearch_2526_3,,2025.2.4,2026-02-25 12h28.37.521537 +0100,
vertical.xlsx,The target is tilted.,135,83,3,10,0,1,1,1,0,0,0,0,0,0,0,0,1,3,4,135,space,8.284229199999572,None,0,1,0.7168216999998549,None,space,1.5766579000001002,None,0,0,0,1,,,,,10,3,83,6,212.68715210000028,,,,,,,,,,,,,,,,,,,,,212.6718262000004,212.68715210000028,213.1715361000006,213.1764821000006,213.19260699999995,213.9219677000001,,,,,213.92217880000044,213.93727930000023,214.1372882000005,214.12105169999995,213.19260699999995,,,,,,,,0,1,0.7168216999998549,None,,,,,,,,840,21,M,R,2026-02-25_12h28.37.291,VisualSearch_2526_3,,2025.2.4,2026-02-25 12h28.37.521537 +0100,
vertical.xlsx,The target is tilted.,135,84,4,10,1,0,0,0,0,0,0,0,0,0,0,0,0,0,1,135,space,8.284229199999572,None,1,1,0.5282500000002983,None,space,1.5766579000001002,None,0,0,0,1,,,,,10,4,84,3,214.1372882000005,,,,,,,,,,,,,,,,,,,,,214.1217932999998,214.1372882000005,214.6213845000002,214.62668530000064,214.64191930000015,215.17175829999996,,,,,215.17196140000033,215.18704080000043,215.38680209999984,215.37095039999986,214.64191930000015,,,,,,,,1,1,0.5282500000002983,None,,,,,,,,840,21,M,R,2026-02-25_12h28.37.291,VisualSearch_2526_3,,2025.2.4,2026-02-25 12h28.37.521537 +0100,
vertical.xlsx,The target is tilted.,135,85,5,10,1,1,1,1,0,0,0,0,0,0,0,0,0,3,4,135,space,8.284229199999572,None,1,1,0.4985679000001255,None,space,1.5766579000001002,None,0,0,0,1,,,,,10,5,85,2,215.38680209999984,,,,,,,,,,,,,,,,,,,,,215.37171680000029,215.38680209999984,215.87100079999982,215.87549360000048,215.89216300000044,216.4047844000006,,,,,216.40497700000014,216.4202261999999,216.62026680000054,216.6040449000002,215.89216300000044,,,,,,,,1,1,0.4985679000001255,None,,,,,,,,840,21,M,R,2026-02-25_12h28.37.291,VisualSearch_2526_3,,2025.2.4,2026-02-25 12h28.37.521537 +0100,
vertical.xlsx,The target is tilted.,135,86,6,10,1,1,1,1,1,1,1,1,0,0,0,0,0,7,8,135,space,8.284229199999572,None,1,1,0.9595423999999184,None,space,1.5766579000001002,None,0,0,0,1,,,,,10,6,86,1,216.62026680000054,,,,,,,,,,,,,,,,,,,,,216.60479140000007,216.62026680000054,217.1038666000004,217.10904220000066,217.12457640000048,218.08755870000005,,,,,218.0877519000005,218.10287460000018,218.30294910000066,218.2871909000005,217.12457640000048,,,,,,,,1,1,0.9595423999999184,None,,,,,,,,840,21,M,R,2026-02-25_12h28.37.291,VisualSearch_2526_3,,2025.2.4,2026-02-25 12h28.37.521537 +0100,
vertical.xlsx,The target is tilted.,135,87,7,10,0,1,1,1,1,1,1,1,1,1,1,1,1,11,12,135,space,8.284229199999572,None,0,1,1.456074799999442,None,space,1.5766579000001002,None,0,0,0,1,,,,,10,7,87,4,218.30294910000066,,,,,,,,,,,,,,,,,,,,,218.28792969999995,218.30294910000066,218.78675730000032,218.79141600000003,218.8083446999999,220.27044829999977,,,,,220.27062509999996,220.28614800000014,220.48616240000047,220.47015230000034,218.8083446999999,,,,,,,,0,1,1.456074799999442,None,,,,,,,,840,21,M,R,2026-02-25_12h28.37.291,VisualSearch_2526_3,,2025.2.4,2026-02-25 12h28.37.521537 +0100,
vertical.xlsx,The target is tilted.,135,88,0,11,0,0,0,0,0,0,0,0,0,0,0,0,1,1,1,135,space,8.284229199999572,None,0,1,0.619013200000154,None,space,1.5766579000001002,None,0,0,0,1,,,,,11,0,88,7,220.48616240000047,,,,,,,,,,,,,,,,,,,,,220.4708724000002,220.48616240000047,220.97014370000034,220.97476820000065,220.99085540000033,221.62009240000043,,,,,221.6202731000003,221.63567130000047,221.83611819999987,221.81998629999998,220.99085540000033,,,,,,,,0,1,0.619013200000154,None,,,,,,,,840,21,M,R,2026-02-25_12h28.37.291,VisualSearch_2526_3,,2025.2.4,2026-02-25 12h28.37.521537 +0100,
vertical.xlsx,The target is tilted.,135,89,1,11,1,0,0,0,0,0,0,0,0,0,0,0,0,0,1,135,space,8.284229199999572,None,1,1,0.6304150000005393,None,space,1.5766579000001002,None,0,0,0,1,,,,,11,1,89,3,221.83611819999987,,,,,,,,,,,,,,,,,,,,,221.82069310000043,221.83611819999987,222.3200037000006,222.3246235000006,222.34254909999981,222.98684800000046,,,,,222.9870219000004,223.00248629999987,223.2024478000003,223.18637060000037,222.34254909999981,,,,,,,,1,1,0.6304150000005393,None,,,,,,,,840,21,M,R,2026-02-25_12h28.37.291,VisualSearch_2526_3,,2025.2.4,2026-02-25 12h28.37.521537 +0100,
vertical.xlsx,The target is tilted.,135,90,2,11,1,1,1,1,1,1,1,1,0,0,0,0,0,7,8,135,space,8.284229199999572,None,1,1,0.7864878999998837,None,space,1.5766579000001002,None,0,0,0,1,,,,,11,2,90,1,223.2024478000003,,,,,,,,,,,,,,,,,,,,,223.18707770000037,223.2024478000003,223.68639910000002,223.69089059999988,223.7066138,224.50303520000034,,,,,224.5031936000005,224.51887110000007,224.71842460000062,224.7023736000001,223.7066138,,,,,,,,1,1,0.7864878999998837,None,,,,,,,,840,21,M,R,2026-02-25_12h28.37.291,VisualSearch_2526_3,,2025.2.4,2026-02-25 12h28.37.521537 +0100,
vertical.xlsx,The target is tilted.,135,91,3,11,1,1,1,1,1,1,1,1,1,1,1,1,0,11,12,135,space,8.284229199999572,None,1,1,1.8737719999999172,None,space,1.5766579000001002,None,0,0,0,1,,,,,11,3,91,0,224.71842460000062,,,,,,,,,,,,,,,,,,,,,224.70305310000003,224.71842460000062,225.2027890999998,225.20771289999993,225.2237715000001,227.10280539999985,,,,,227.10298500000044,227.1183172000001,227.31803060000038,227.30223920000026,225.2237715000001,,,,,,,,1,1,1.8737719999999172,None,,,,,,,,840,21,M,R,2026-02-25_12h28.37.291,VisualSearch_2526_3,,2025.2.4,2026-02-25 12h28.37.521537 +0100,
vertical.xlsx,The target is tilted.,135,92,4,11,0,1,1,1,1,1,1,1,1,1,1,1,1,11,12,135,space,8.284229199999572,None,0,1,2.1990742999996655,None,space,1.5766579000001002,None,0,0,0,1,,,,,11,4,92,4,227.31803060000038,,,,,,,,,,,,,,,,,,,,,227.30300460000035,227.31803060000038,227.80219540000053,227.80726539999978,227.82354290000058,230.03573920000053,,,,,230.03591469999992,230.05123170000024,230.25094010000066,230.2347749999999,227.82354290000058,,,,,,,,0,1,2.1990742999996655,None,,,,,,,,840,21,M,R,2026-02-25_12h28.37.291,VisualSearch_2526_3,,2025.2.4,2026-02-25 12h28.37.521537 +0100,
vertical.xlsx,The target is tilted.,135,93,5,11,0,1,1,1,1,1,1,1,0,0,0,0,1,7,8,135,space,8.284229199999572,None,0,1,2.666548799999873,None,space,1.5766579000001002,None,0,0,0,1,,,,,11,5,93,5,230.25094010000066,,,,,,,,,,,,,,,,,,,,,230.23544500000025,230.25094010000066,230.73471550000068,230.73954670000057,230.75610779999988,233.43516240000008,,,,,233.43535169999996,233.45039570000063,233.6508958000004,233.6345968000005,230.75610779999988,,,,,,,,0,1,2.666548799999873,None,,,,,,,,840,21,M,R,2026-02-25_12h28.37.291,VisualSearch_2526_3,,2025.2.4,2026-02-25 12h28.37.521537 +0100,
vertical.xlsx,The target is tilted.,135,94,6,11,0,1,1,1,0,0,0,0,0,0,0,0,1,3,4,135,space,8.284229199999572,None,0,1,0.7937058999996225,None,space,1.5766579000001002,None,0,0,0,1,,,,,11,6,94,6,233.6508958000004,,,,,,,,,,,,,,,,,,,,,233.6353482000004,233.6508958000004,234.1345080000001,234.13911760000065,234.15570280000065,234.95119950000026,,,,,234.95137690000047,234.96695379999983,235.1670180000001,235.15091160000065,234.15570280000065,,,,,,,,0,1,0.7937058999996225,None,,,,,,,,840,21,M,R,2026-02-25_12h28.37.291,VisualSearch_2526_3,,2025.2.4,2026-02-25 12h28.37.521537 +0100,
vertical.xlsx,The target is tilted.,135,95,7,11,1,1,1,1,0,0,0,0,0,0,0,0,0,3,4,135,space,8.284229199999572,None,1,1,0.8599358999999822,None,space,1.5766579000001002,None,0,0,0,1,,,,,11,7,95,2,235.1670180000001,,,,,,,,,,,,,,,,,,,,,235.15153259999988,235.1670180000001,235.65060059999996,235.65537480000057,235.6713995,236.53458030000002,,,,,236.53475350000008,236.55019979999997,236.74984180000047,236.73407459999999,235.6713995,,,,,,,,1,1,0.8599358999999822,None,,,,,,,,840,21,M,R,2026-02-25_12h28.37.291,VisualSearch_2526_3,,2025.2.4,2026-02-25 12h28.37.521537 +0100,
vertical.xlsx,The target is tilted.,135,96,0,12,0,1,1,1,1,1,1,1,1,1,1,1,1,11,12,135,space,8.284229199999572,None,0,1,2.5767955000001166,None,space,1.5766579000001002,None,0,0,0,1,,,,,12,0,96,4,236.74984180000047,,,,,,,,,,,,,,,,,,,,,236.73488570000063,236.74984180000047,237.23419470000044,237.2392989,237.25496269999985,239.83393760000035,,,,,239.83412090000002,239.84968029999982,240.04960560000018,240.03315460000067,237.25496269999985,,,,,,,,0,1,2.5767955000001166,None,,,,,,,,840,21,M,R,2026-02-25_12h28.37.291,VisualSearch_2526_3,,2025.2.4,2026-02-25 12h28.37.521537 +0100,
vertical.xlsx,The target is tilted.,135,97,1,12,0,0,0,0,0,0,0,0,0,0,0,0,1,1,1,135,space,8.284229199999572,None,0,1,0.5786635000004026,None,space,1.5766579000001002,None,0,0,0,1,,,,,12,1,97,7,240.04960560000018,,,,,,,,,,,,,,,,,,,,,240.03360770000018,240.04960560000018,240.5333959999998,240.53793870000027,240.5547071000001,241.15032810000048,,,,,241.15047820000018,241.1659550000004,241.36614330000066,241.34995489999983,240.5547071000001,,,,,,,,0,1,0.5786635000004026,None,,,,,,,,840,21,M,R,2026-02-25_12h28.37.291,VisualSearch_2526_3,,2025.2.4,2026-02-25 12h28.37.521537 +0100,
vertical.xlsx,The target is tilted.,135,98,2,12,0,1,1,1,1,1,1,1,0,0,0,0,1,7,8,135,space,8.284229199999572,None,0,1,1.230088700000124,None,space,1.5766579000001002,None,0,0,0,1,,,,,12,2,98,5,241.36614330000066,,,,,,,,,,,,,,,,,,,,,241.35071200000039,241.36614330000066,241.8501580000002,241.8560419000005,241.87266,243.11683790000006,,,,,243.1170172000002,243.13236580000012,243.3323319000001,243.31626610000058,241.87266,,,,,,,,0,1,1.230088700000124,None,,,,,,,,840,21,M,R,2026-02-25_12h28.37.291,VisualSearch_2526_3,,2025.2.4,2026-02-25 12h28.37.521537 +0100,
vertical.xlsx,The target is tilted.,135,99,3,12,1,1,1,1,1,1,1,1,1,1,1,1,0,11,12,135,space,8.284229199999572,None,0,0,1.6310043000003134,None,space,1.5766579000001002,None,0,0,0,1,,,,,12,3,99,0,243.3323319000001,,,,,,,,,,,,,,,,,,,,,243.3169428000001,243.3323319000001,243.81586700000025,243.82084630000008,243.83837740000035,245.48259460000008,,,,,245.48274720000063,245.49859600000036,245.69860560000052,245.68252639999992,243.83837740000035,,,,,,,,0,0,1.6310043000003134,None,,,,,,,,840,21,M,R,2026-02-25_12h28.37.291,VisualSearch_2526_3,,2025.2.4,2026-02-25 12h28.37.521537 +0100,
vertical.xlsx,The target is tilted.,135,100,4,12,1,1,1,1,0,0,0,0,0,0,0,0,0,3,4,135,space,8.284229199999572,None,1,1,1.210965700000088,None,space,1.5766579000001002,None,0,0,0,1,,,,,12,4,100,2,245.69860560000052,,,,,,,,,,,,,,,,,,,,,245.68330570000035,245.69860560000052,246.18240510000032,246.1870054000001,246.2032175000004,247.41607060000024,,,,,247.4162462000004,247.43163379999987,247.63131590000012,247.61527600000045,246.2032175000004,,,,,,,,1,1,1.210965700000088,None,,,,,,,,840,21,M,R,2026-02-25_12h28.37.291,VisualSearch_2526_3,,2025.2.4,2026-02-25 12h28.37.521537 +0100,
vertical.xlsx,The target is tilted.,135,101,5,12,1,1,1,1,1,1,1,1,0,0,0,0,0,7,8,135,space,8.284229199999572,None,1,1,0.8777530999996088,None,space,1.5766579000001002,None,0,0,0,1,,,,,12,5,101,1,247.63131590000012,,,,,,,,,,,,,,,,,,,,,247.61605260000033,247.63131590000012,248.11469829999987,248.11929360000067,248.13409740000043,249.01550709999992,,,,,249.01568110000062,249.03139389999978,249.2312012000002,249.2153444000005,248.13409740000043,,,,,,,,1,1,0.8777530999996088,None,,,,,,,,840,21,M,R,2026-02-25_12h28.37.291,VisualSearch_2526_3,,2025.2.4,2026-02-25 12h28.37.521537 +0100,
vertical.xlsx,The target is tilted.,135,102,6,12,1,0,0,0,0,0,0,0,0,0,0,0,0,0,1,135,space,8.284229199999572,None,1,1,0.6017243999995117,None,space,1.5766579000001002,None,0,0,0,1,,,,,12,6,102,3,249.2312012000002,,,,,,,,,,,,,,,,,,,,,249.21606560000055,249.2312012000002,249.71551890000046,249.72070729999996,249.73592009999993,250.34853639999983,,,,,250.34865960000025,250.36447690000023,250.56458480000038,250.54854909999995,249.73592009999993,,,,,,,,1,1,0.6017243999995117,None,,,,,,,,840,21,M,R,2026-02-25_12h28.37.291,VisualSearch_2526_3,,2025.2.4,2026-02-25 12h28.37.521537 +0100,
vertical.xlsx,The target is tilted.,135,103,7,12,0,1,1,1,0,0,0,0,0,0,0,0,1,3,4,135,space,8.284229199999572,None,0,1,0.8463395999997374,None,space,1.5766579000001002,None,0,0,0,1,,,,,12,7,103,6,250.56458480000038,,,,,,,,,,,,,,,,,,,,,250.5493744000005,250.56458480000038,251.0484531000002,251.0530262000002,251.0685572000002,251.93170770000052,,,,,251.93188420000024,251.94706150000002,252.14752970000063,252.1306499000002,251.0685572000002,,,,,,,,0,1,0.8463395999997374,None,,,,,,,,840,21,M,R,2026-02-25_12h28.37.291,VisualSearch_2526_3,,2025.2.4,2026-02-25 12h28.37.521537 +0100,
vertical.xlsx,The target is tilted.,135,104,0,13,0,0,0,0,0,0,0,0,0,0,0,0,1,1,1,135,space,8.284229199999572,None,0,1,0.5757069000001138,None,space,1.5766579000001002,None,0,0,0,1,,,,,13,0,104,7,252.14752970000063,,,,,,,,,,,,,,,,,,,,,252.1310413000001,252.14752970000063,252.63139589999992,252.63665500000025,252.65141060000042,253.2316262000004,,,,,253.23182270000052,253.2473471000003,253.44751470000028,253.43144350000057,252.65141060000042,,,,,,,,0,1,0.5757069000001138,None,,,,,,,,840,21,M,R,2026-02-25_12h28.37.291,VisualSearch_2526_3,,2025.2.4,2026-02-25 12h28.37.521537 +0100,
vertical.xlsx,The target is tilted.,135,105,1,13,1,1,1,1,1,1,1,1,1,1,1,1,0,11,12,135,space,8.284229199999572,None,1,1,0.5482818999998926,None,space,1.5766579000001002,None,0,0,0,1,,,,,13,1,105,0,253.44751470000028,,,,,,,,,,,,,,,,,,,,,253.43225970000003,253.44751470000028,253.9314942000001,253.93681340000057,253.95175460000064,254.5149424000001,,,,,254.5151175000001,254.53062500000033,254.73062980000032,254.7142375000003,253.95175460000064,,,,,,,,1,1,0.5482818999998926,None,,,,,,,,840,21,M,R,2026-02-25_12h28.37.291,VisualSearch_2526_3,,2025.2.4,2026-02-25 12h28.37.521537 +0100,
vertical.xlsx,The target is tilted.,135,106,2,13,1,1,1,1,0,0,0,0,0,0,0,0,0,3,4,135,space,8.284229199999572,None,1,1,0.7994642000003296,None,space,1.5766579000001002,None,0,0,0,1,,,,,13,2,106,2,254.73062980000032,,,,,,,,,,,,,,,,,,,,,254.71488480000062,254.73062980000032,255.21403139999984,255.21881120000035,255.2304425000002,256.0311747000005,,,,,256.0313685000001,256.0466156000002,256.24696720000065,256.2311514000003,255.2304425000002,,,,,,,,1,1,0.7994642000003296,None,,,,,,,,840,21,M,R,2026-02-25_12h28.37.291,VisualSearch_2526_3,,2025.2.4,2026-02-25 12h28.37.521537 +0100,
vertical.xlsx,The target is tilted.,135,107,3,13,0,1,1,1,1,1,1,1,1,1,1,1,1,11,12,135,space,8.284229199999572,None,0,1,1.84407469999951,None,space,1.5766579000001002,None,0,0,0,1,,,,,13,3,107,4,256.24696720000065,,,,,,,,,,,,,,,,,,,,,256.2319027000003,256.24696720000065,256.73079450000023,256.7359559000006,256.7506720000001,258.5973991000001,,,,,258.59756019999986,258.61307470000065,258.8127492000003,258.79616739999983,256.7506720000001,,,,,,,,0,1,1.84407469999951,None,,,,,,,,840,21,M,R,2026-02-25_12h28.37.291,VisualSearch_2526_3,,2025.2.4,2026-02-25 12h28.37.521537 +0100,
vertical.xlsx,The target is tilted.,135,108,4,13,1,0,0,0,0,0,0,0,0,0,0,0,0,0,1,135,space,8.284229199999572,None,1,1,0.5877192999996623,None,space,1.5766579000001002,None,0,0,0,1,,,,,13,4,108,3,258.8127492000003,,,,,,,,,,,,,,,,,,,,,258.79644310000003,258.8127492000003,259.2970267999999,259.3016118000005,259.3178850000004,259.91405620000023,,,,,259.9142289000001,259.9296112000002,260.12946550000015,260.1135406000003,259.3178850000004,,,,,,,,1,1,0.5877192999996623,None,,,,,,,,840,21,M,R,2026-02-25_12h28.37.291,VisualSearch_2526_3,,2025.2.4,2026-02-25 12h28.37.521537 +0100,
vertical.xlsx,The target is tilted.,135,109,5,13,0,1,1,1,1,1,1,1,0,0,0,0,1,7,8,135,space,8.284229199999572,None,0,1,1.700724799999989,None,space,1.5766579000001002,None,0,0,0,1,,,,,13,5,109,5,260.12946550000015,,,,,,,,,,,,,,,,,,,,,260.1142569000003,260.12946550000015,260.61333809999996,260.6185352000002,260.6338061000006,262.3465743000006,,,,,262.34669080000003,262.3623975999999,262.56245519999993,262.5457326000005,260.6338061000006,,,,,,,,0,1,1.700724799999989,None,,,,,,,,840,21,M,R,2026-02-25_12h28.37.291,VisualSearch_2526_3,,2025.2.4,2026-02-25 12h28.37.521537 +0100,
vertical.xlsx,The target is tilted.,135,110,6,13,0,1,1,1,0,0,0,0,0,0,0,0,1,3,4,135,space,8.284229199999572,None,0,1,0.7550720999997793,None,space,1.5766579000001002,None,0,0,0,1,,,,,13,6,110,6,262.56245519999993,,,,,,,,,,,,,,,,,,,,,262.5462470000002,262.56245519999993,263.04634179999994,263.0505542000001,263.0659701000004,263.8298421999998,,,,,263.8300030999999,263.84557380000024,264.04564610000034,264.02942340000027,263.0659701000004,,,,,,,,0,1,0.7550720999997793,None,,,,,,,,840,21,M,R,2026-02-25_12h28.37.291,VisualSearch_2526_3,,2025.2.4,2026-02-25 12h28.37.521537 +0100,
vertical.xlsx,The target is tilted.,135,111,7,13,1,1,1,1,1,1,1,1,0,0,0,0,0,7,8,135,space,8.284229199999572,None,1,1,1.2838775999998688,None,space,1.5766579000001002,None,0,0,0,1,,,,,13,7,111,1,264.04564610000034,,,,,,,,,,,,,,,,,,,,,264.0301334000005,264.04564610000034,264.52860969999983,264.53076860000056,264.54545020000023,265.8463341000006,,,,,265.84652150000056,265.8619606000002,266.0619891000006,266.0460305000006,264.54545020000023,,,,,,,,1,1,1.2838775999998688,None,,,,,,,,840,21,M,R,2026-02-25_12h28.37.291,VisualSearch_2526_3,,2025.2.4,2026-02-25 12h28.37.521537 +0100,
vertical.xlsx,The target is tilted.,135,112,0,14,1,1,1,1,1,1,1,1,1,1,1,1,0,11,12,135,space,8.284229199999572,None,1,1,0.5312217000000601,None,space,1.5766579000001002,None,0,0,0,1,,,,,14,0,112,0,266.0619891000006,,,,,,,,,,,,,,,,,,,,,266.04684,266.0619891000006,266.54579449999983,266.5502610000003,266.56749670000045,267.11287300000004,,,,,267.1130656000005,267.12839520000034,267.32804810000016,267.3119784999999,266.56749670000045,,,,,,,,1,1,0.5312217000000601,None,,,,,,,,840,21,M,R,2026-02-25_12h28.37.291,VisualSearch_2526_3,,2025.2.4,2026-02-25 12h28.37.521537 +0100,
vertical.xlsx,The target is tilted.,135,113,1,14,0,1,1,1,1,1,1,1,1,1,1,1,1,11,12,135,space,8.284229199999572,None,0,1,1.3182687999997142,None,space,1.5766579000001002,None,0,0,0,1,,,,,14,1,113,4,267.32804810000016,,,,,,,,,,,,,,,,,,,,,267.31273969999984,267.32804810000016,267.81188530000054,267.81696960000045,267.83208250000007,269.16227359999993,,,,,269.16243100000065,269.17802370000027,269.3781714000006,269.3616079000003,267.83208250000007,,,,,,,,0,1,1.3182687999997142,None,,,,,,,,840,21,M,R,2026-02-25_12h28.37.291,VisualSearch_2526_3,,2025.2.4,2026-02-25 12h28.37.521537 +0100,
vertical.xlsx,The target is tilted.,135,114,2,14,1,1,1,1,1,1,1,1,0,0,0,0,0,7,8,135,space,8.284229199999572,None,1,1,1.3486821000005875,None,space,1.5766579000001002,None,0,0,0,1,,,,,14,2,114,1,269.3781714000006,,,,,,,,,,,,,,,,,,,,,269.36237979999987,269.3781714000006,269.8615811999998,269.86618980000003,269.8795847000001,271.2442428000004,,,,,271.2443192999999,271.2605401999999,271.46092790000057,271.4445900999999,269.8795847000001,,,,,,,,1,1,1.3486821000005875,None,,,,,,,,840,21,M,R,2026-02-25_12h28.37.291,VisualSearch_2526_3,,2025.2.4,2026-02-25 12h28.37.521537 +0100,
vertical.xlsx,The target is tilted.,135,115,3,14,0,0,0,0,0,0,0,0,0,0,0,0,1,1,1,135,space,8.284229199999572,None,0,1,0.717865300000085,None,space,1.5766579000001002,None,0,0,0,1,,,,,14,3,115,7,271.46092790000057,,,,,,,,,,,,,,,,,,,,,271.44530040000063,271.46092790000057,271.9447237000004,271.94977160000053,271.96506730000056,272.69490339999993,,,,,272.6950676000006,272.7104847999999,272.9108111000005,272.8947512000004,,,,,,,,,0,1,0.717865300000085,None,,,,,,,,840,21,M,R,2026-02-25_12h28.37.291,VisualSearch_2526_3,,2025.2.4,2026-02-25 12h28.37.521537 +0100,
vertical.xlsx,The target is tilted.,135,116,4,14,1,1,1,1,0,0,0,0,0,0,0,0,0,3,4,135,space,8.284229199999572,None,1,1,0.6483021000003646,None,space,1.5766579000001002,None,0,0,0,1,,,,,14,4,116,2,272.9108111000005,,,,,,,,,,,,,,,,,,,,,272.89546020000034,272.9108111000005,273.39461180000035,273.39918279999983,273.41649510000025,274.07814229999985,,,,,274.07830040000044,274.0939546999998,274.29398709999987,274.27784969999993,273.41649510000025,,,,,,,,1,1,0.6483021000003646,None,,,,,,,,840,21,M,R,2026-02-25_12h28.37.291,VisualSearch_2526_3,,2025.2.4,2026-02-25 12h28.37.521537 +0100,
vertical.xlsx,The target is tilted.,135,117,5,14,0,1,1,1,0,0,0,0,0,0,0,0,1,3,4,135,space,8.284229199999572,None,0,1,1.1352120999999897,None,space,1.5766579000001002,None,0,0,0,1,,,,,14,5,117,6,274.29398709999987,,,,,,,,,,,,,,,,,,,,,274.2785683000002,274.29398709999987,274.7779846000003,274.7830971000003,274.7991159000003,275.94448960000045,,,,,275.94464550000066,275.9603496999998,276.1602462000001,276.1439975000003,274.7991159000003,,,,,,,,0,1,1.1352120999999897,None,,,,,,,,840,21,M,R,2026-02-25_12h28.37.291,VisualSearch_2526_3,,2025.2.4,2026-02-25 12h28.37.521537 +0100,
vertical.xlsx,The target is tilted.,135,118,6,14,1,0,0,0,0,0,0,0,0,0,0,0,0,0,1,135,space,8.284229199999572,None,1,1,0.5203770999996777,None,space,1.5766579000001002,None,0,0,0,1,,,,,14,6,118,3,276.1602462000001,,,,,,,,,,,,,,,,,,,,,276.1447648000003,276.1602462000001,276.6440818000001,276.64871050000056,276.66483620000054,277.19461839999985,,,,,277.1948091000004,277.2099390000003,277.4101854999999,277.39388400000007,276.66483620000054,,,,,,,,1,1,0.5203770999996777,None,,,,,,,,840,21,M,R,2026-02-25_12h28.37.291,VisualSearch_2526_3,,2025.2.4,2026-02-25 12h28.37.521537 +0100,
vertical.xlsx,The target is tilted.,135,119,7,14,0,1,1,1,1,1,1,1,0,0,0,0,1,7,8,135,space,8.284229199999572,None,0,1,1.5013148000007277,None,space,1.5766579000001002,None,0,0,0,1,,,,,14,7,119,5,277.4101854999999,,,,,,,,,,,,,,,,,,,,,277.39467460000014,277.4101854999999,277.8940260999998,277.8990303999999,277.91410760000053,279.42714669999987,,,,,279.4272712000002,279.4429544000004,279.65666990000045,279.62682870000026,277.91410760000053,,,,,,,,0,1,1.5013148000007277,None,,,,,,,,840,21,M,R,2026-02-25_12h28.37.291,VisualSearch_2526_3,,2025.2.4,2026-02-25 12h28.37.521537 +0100,
vertical.xlsx,The target is tilted.,135,0,0,0,,,,,,,,,,,,,,,,,space,8.284229199999572,None,,,,,space,1.5766579000001002,None,0,0,0,1,,,,,,,,,,,,,,,,,,,,,,,,,,,,,,,,,,,,,,,,,,,,,,,,,,,,,,,,,,,,,,,840,21,M,R,2026-02-25_12h28.37.291,VisualSearch_2526_3,,2025.2.4,2026-02-25 12h28.37.521537 +0100,
tilted.xlsx,The target is tilted.,117,0,0,0,1,1,1,1,0,0,0,0,0,0,0,0,0,3,4,117,space,4.164289100000133,None,1,1,1.1442618000000948,None,,,,0,1,1,0,0,0,0,2,,,,,283.85352820000026,,,,,,,,,,,,,,,279.65666990000045,279.65666990000045,279.65666990000045,space,4.164289100000133,None,283.8496163,283.85352820000026,284.3424079000006,284.34656650000034,284.36103600000024,285.50925890000053,1,1,1.1442618000000948,None,285.5094458000003,285.52527610000016,285.7254284999999,285.70926060000056,,,,,,,,,,,,,,,,,,,,840,21,M,R,2026-02-25_12h28.37.291,VisualSearch_2526_3,,2025.2.4,2026-02-25 12h28.37.521537 +0100,
tilted.xlsx,The target is tilted.,117,1,1,0,0,1,1,1,1,1,1,1,1,1,1,1,1,11,12,117,space,4.164289100000133,None,1,0,1.1961666000006517,None,,,,0,1,1,0,0,1,1,4,,,,,285.7254284999999,,,,,,,,,,,,,,,,,,,,,285.7099225000002,285.7254284999999,286.209433,286.2145586000006,286.23117080000065,287.4427147000006,1,0,1.1961666000006517,None,287.44290290000026,287.45848920000026,287.65846950000014,287.6421009000005,286.23117080000065,,,,,,,,,,,,,,,,,,,840,21,M,R,2026-02-25_12h28.37.291,VisualSearch_2526_3,,2025.2.4,2026-02-25 12h28.37.521537 +0100,
tilted.xlsx,The target is tilted.,117,2,2,0,0,0,0,0,0,0,0,0,0,0,0,0,1,1,1,117,space,4.164289100000133,None,1,0,0.7760920000000624,None,,,,0,1,1,0,0,2,2,7,,,,,287.65846950000014,,,,,,,,,,,,,,,,,,,,,287.64279590000024,287.65846950000014,288.1419587999999,288.1464590000005,288.16277080000054,288.9423581000001,1,0,0.7760920000000624,None,288.9425418999999,288.9581339000006,289.1577246000006,289.14170980000017,288.16277080000054,,,,,,,,,,,,,,,,,,,840,21,M,R,2026-02-25_12h28.37.291,VisualSearch_2526_3,,2025.2.4,2026-02-25 12h28.37.521537 +0100,
tilted.xlsx,The target is tilted.,117,3,3,0,1,0,0,0,0,0,0,0,0,0,0,0,0,0,1,117,space,4.164289100000133,None,1,1,1.0151136000004044,None,,,,0,1,1,0,0,3,3,3,,,,,289.1577246000006,,,,,,,,,,,,,,,,,,,,,289.1424080000006,289.1577246000006,289.6414949,289.64600260000043,289.6624627000001,290.69128100000034,1,1,1.0151136000004044,None,290.6913819000001,290.7077708000006,290.9079363000001,290.89137630000005,289.6624627000001,,,,,,,,,,,,,,,,,,,840,21,M,R,2026-02-25_12h28.37.291,VisualSearch_2526_3,,2025.2.4,2026-02-25 12h28.37.521537 +0100,
tilted.xlsx,The target is tilted.,117,4,4,0,1,1,1,1,1,1,1,1,1,1,1,1,0,11,12,117,space,4.164289100000133,None,1,1,3.0862866999996186,None,,,,0,1,1,0,0,4,4,0,,,,,290.9079363000001,,,,,,,,,,,,,,,,,,,,,290.8920433000003,290.9079363000001,291.39097720000063,291.3940001000001,291.40724690000025,294.5081596,1,1,3.0862866999996186,None,294.50831000000017,294.5237253000005,294.7238763000005,294.70756580000034,291.40724690000025,,,,,,,,,,,,,,,,,,,840,21,M,R,2026-02-25_12h28.37.291,VisualSearch_2526_3,,2025.2.4,2026-02-25 12h28.37.521537 +0100,
tilted.xlsx,The target is tilted.,117,5,5,0,0,1,1,1,1,1,1,1,0,0,0,0,1,7,8,117,space,4.164289100000133,None,1,0,1.9334082000004855,None,,,,0,1,1,0,0,5,5,5,,,,,294.7238763000005,,,,,,,,,,,,,,,,,,,,,294.70816660000037,294.7238763000005,295.20772490000036,295.2122681000001,295.2259189000006,297.1744378000003,1,0,1.9334082000004855,None,297.1746096000006,297.19017650000023,297.3900725000003,297.3737146000003,295.2259189000006,,,,,,,,,,,,,,,,,,,840,21,M,R,2026-02-25_12h28.37.291,VisualSearch_2526_3,,2025.2.4,2026-02-25 12h28.37.521537 +0100,
tilted.xlsx,The target is tilted.,117,6,6,0,1,1,1,1,1,1,1,1,0,0,0,0,0,7,8,117,space,4.164289100000133,None,1,1,5.345115799999803,None,,,,0,1,1,0,0,6,6,1,,,,,297.3900725000003,,,,,,,,,,,,,,,,,,,,,297.37429729999985,297.3900725000003,297.8739088000002,297.8786619000002,297.89498920000005,303.2567755,1,1,5.345115799999803,None,303.2569481999999,303.2723412000005,303.4721862000006,303.4561884000004,297.89498920000005,,,,,,,,,,,,,,,,,,,840,21,M,R,2026-02-25_12h28.37.291,VisualSearch_2526_3,,2025.2.4,2026-02-25 12h28.37.521537 +0100,
tilted.xlsx,The target is tilted.,117,7,7,0,0,1,1,1,0,0,0,0,0,0,0,0,1,3,4,117,space,4.164289100000133,None,1,0,1.1434508000002097,None,,,,0,1,1,0,0,7,7,6,,,,,303.4721862000006,,,,,,,,,,,,,,,,,,,,,303.4569594000004,303.4721862000006,303.95578360000036,303.95992449999994,303.9744601000002,305.1231120000002,1,0,1.1434508000002097,None,305.12328119999984,305.1386798000003,305.33881139999994,305.32251989999986,303.9744601000002,,,,,,,,,,,,,,,,,,,840,21,M,R,2026-02-25_12h28.37.291,VisualSearch_2526_3,,2025.2.4,2026-02-25 12h28.37.521537 +0100,
tilted.xlsx,The target is tilted.,117,0,0,0,0,1,1,1,1,1,1,1,0,0,0,0,1,7,8,117,space,4.164289100000133,None,1,0,3.3818591999997807,None,space,1.70564529999956,None,0,1,1,0,,,,,0,0,0,5,307.08967550000034,,,,,,,,,,,,,,,,,,,,,307.08550600000035,307.08967550000034,307.57205150000027,307.57728920000045,307.59373700000015,310.98841640000046,,,,,310.98857660000067,311.0041041000004,311.20440529999996,311.18784850000065,,305.32926399999997,305.33881139999994,305.33881139999994,307.05630999999994,space,1.70564529999956,None,1,0,3.3818591999997807,None,,,,,,,,840,21,M,R,2026-02-25_12h28.37.291,VisualSearch_2526_3,,2025.2.4,2026-02-25 12h28.37.521537 +0100,
tilted.xlsx,The target is tilted.,117,1,1,0,0,1,1,1,1,1,1,1,1,1,1,1,1,11,12,117,space,4.164289100000133,None,1,0,2.741522699999223,None,space,1.70564529999956,None,0,1,1,0,,,,,0,1,1,4,311.20440529999996,,,,,,,,,,,,,,,,,,,,,311.1885775999999,311.20440529999996,311.6882826000001,311.6928551000001,311.7100651999999,314.45481850000033,,,,,314.4549807000003,314.47062280000046,314.67061550000017,314.654399,311.7100651999999,,,,,,,,1,0,2.741522699999223,None,,,,,,,,840,21,M,R,2026-02-25_12h28.37.291,VisualSearch_2526_3,,2025.2.4,2026-02-25 12h28.37.521537 +0100,
tilted.xlsx,The target is tilted.,117,2,2,0,0,0,0,0,0,0,0,0,0,0,0,0,1,1,1,117,space,4.164289100000133,None,1,0,0.6719303999998374,None,space,1.70564529999956,None,0,1,1,0,,,,,0,2,2,7,314.67061550000017,,,,,,,,,,,,,,,,,,,,,314.6551360000003,314.67061550000017,315.15429270000004,315.15893980000055,315.1745762999999,315.85453420000067,,,,,315.85470870000063,315.8702211,316.0704120999999,316.05406649999986,315.1745762999999,,,,,,,,1,0,0.6719303999998374,None,,,,,,,,840,21,M,R,2026-02-25_12h28.37.291,VisualSearch_2526_3,,2025.2.4,2026-02-25 12h28.37.521537 +0100,
tilted.xlsx,The target is tilted.,117,3,3,0,1,1,1,1,1,1,1,1,1,1,1,1,0,11,12,117,space,4.164289100000133,None,1,1,3.949581500000022,None,space,1.70564529999956,None,0,1,1,0,,,,,0,3,3,0,316.0704120999999,,,,,,,,,,,,,,,,,,,,,316.0548053000002,316.0704120999999,316.5542384999999,316.5593279000004,316.57468120000067,320.53727700000036,,,,,320.53745489999983,320.55279860000064,320.7528529000001,320.7363376000003,316.57468120000067,,,,,,,,1,1,3.949581500000022,None,,,,,,,,840,21,M,R,2026-02-25_12h28.37.291,VisualSearch_2526_3,,2025.2.4,2026-02-25 12h28.37.521537 +0100,
tilted.xlsx,The target is tilted.,117,4,4,0,1,0,0,0,0,0,0,0,0,0,0,0,0,0,1,117,space,4.164289100000133,None,0,0,1.2452708000000712,None,space,1.70564529999956,None,0,1,1,0,,,,,0,4,4,3,320.7528529000001,,,,,,,,,,,,,,,,,,,,,320.73701600000004,320.7528529000001,321.23653379999996,321.2410312000002,321.2555246000002,322.5032265,,,,,322.50337430000036,322.5188814000003,322.71901270000035,322.7029475999998,321.2555246000002,,,,,,,,0,0,1.2452708000000712,None,,,,,,,,840,21,M,R,2026-02-25_12h28.37.291,VisualSearch_2526_3,,2025.2.4,2026-02-25 12h28.37.521537 +0100,
tilted.xlsx,The target is tilted.,117,5,5,0,0,1,1,1,0,0,0,0,0,0,0,0,1,3,4,117,space,4.164289100000133,None,1,0,2.6915178999997806,None,space,1.70564529999956,None,0,1,1,0,,,,,0,5,5,6,322.71901270000035,,,,,,,,,,,,,,,,,,,,,322.70370980000007,322.71901270000035,323.2031268999999,323.2083289000002,323.2246513,325.9193647000002,,,,,325.9194908999998,325.93519840000044,326.1353568000004,326.1192529,323.2246513,,,,,,,,1,0,2.6915178999997806,None,,,,,,,,840,21,M,R,2026-02-25_12h28.37.291,VisualSearch_2526_3,,2025.2.4,2026-02-25 12h28.37.521537 +0100,
tilted.xlsx,The target is tilted.,117,6,6,0,1,1,1,1,0,0,0,0,0,0,0,0,0,3,4,117,space,4.164289100000133,None,1,1,1.111062199999651,None,space,1.70564529999956,None,0,1,1,0,,,,,0,6,6,2,326.1353568000004,,,,,,,,,,,,,,,,,,,,,326.1199856000003,326.1353568000004,326.6193051,326.6245471000002,326.6397670000006,327.7526594000001,,,,,327.7528505,327.76831330000005,327.9679504000005,327.95204620000004,326.6397670000006,,,,,,,,1,1,1.111062199999651,None,,,,,,,,840,21,M,R,2026-02-25_12h28.37.291,VisualSearch_2526_3,,2025.2.4,2026-02-25 12h28.37.521537 +0100,
tilted.xlsx,The target is tilted.,117,7,7,0,1,1,1,1,1,1,1,1,0,0,0,0,0,7,8,117,space,4.164289100000133,None,1,1,3.6918051999991803,None,space,1.70564529999956,None,0,1,1,0,,,,,0,7,7,1,327.9679504000005,,,,,,,,,,,,,,,,,,,,,327.95277010000063,327.9679504000005,328.4518661000002,328.45646840000063,328.47286369999983,332.1676091999998,,,,,332.16769550000026,332.18403860000035,,332.3678404000002,328.47286369999983,,,,,,,,1,1,3.6918051999991803,None,,,,,,,,840,21,M,R,2026-02-25_12h28.37.291,VisualSearch_2526_3,,2025.2.4,2026-02-25 12h28.37.521537 +0100,
tilted.xlsx,The target is tilted.,117,8,0,1,0,1,1,1,1,1,1,1,0,0,0,0,1,7,8,117,space,4.164289100000133,None,1,0,1.882781299999806,None,space,1.70564529999956,None,0,1,1,0,,,,,1,0,8,5,332.38431930000024,,,,,,,,,,,,,,,,,,,,,332.3685804000006,332.38431930000024,332.8680267,332.87342119999994,332.8917626000002,334.78509980000035,,,,,334.78528430000006,334.80040929999996,335.00054980000004,334.9842716000003,,,,,,,,,1,0,1.882781299999806,None,,,,,,,,840,21,M,R,2026-02-25_12h28.37.291,VisualSearch_2526_3,,2025.2.4,2026-02-25 12h28.37.521537 +0100,
tilted.xlsx,The target is tilted.,117,9,1,1,1,1,1,1,1,1,1,1,1,1,1,1,0,11,12,117,space,4.164289100000133,None,1,1,1.3829416999997193,None,space,1.70564529999956,None,0,1,1,0,,,,,1,1,9,0,335.00054980000004,,,,,,,,,,,,,,,,,,,,,334.9850182,335.00054980000004,335.4839939000003,335.4880361000005,335.50313670000014,336.9012942999998,,,,,336.90147179999985,336.9167232,337.11643129999993,337.10044300000027,335.50313670000014,,,,,,,,1,1,1.3829416999997193,None,,,,,,,,840,21,M,R,2026-02-25_12h28.37.291,VisualSearch_2526_3,,2025.2.4,2026-02-25 12h28.37.521537 +0100,
tilted.xlsx,The target is tilted.,117,10,2,1,1,1,1,1,0,0,0,0,0,0,0,0,0,3,4,117,space,4.164289100000133,None,1,1,1.6793084999999337,None,space,1.70564529999956,None,0,1,1,0,,,,,1,2,10,2,337.11643129999993,,,,,,,,,,,,,,,,,,,,,337.10118950000015,337.11643129999993,337.6004410000005,337.6050429000006,337.6207963000006,339.3170750999998,,,,,339.31719820000035,339.33293070000036,339.5330674000006,339.51694660000067,337.6207963000006,,,,,,,,1,1,1.6793084999999337,None,,,,,,,,840,21,M,R,2026-02-25_12h28.37.291,VisualSearch_2526_3,,2025.2.4,2026-02-25 12h28.37.521537 +0100,
tilted.xlsx,The target is tilted.,117,11,3,1,0,1,1,1,0,0,0,0,0,0,0,0,1,3,4,117,space,4.164289100000133,None,0,1,2.0089444000004733,None,space,1.70564529999956,None,0,1,1,0,,,,,1,3,11,6,339.5330674000006,,,,,,,,,,,,,,,,,,,,,339.51776920000066,339.5330674000006,340.01693109999997,340.0216353000005,340.03840300000047,342.0502459999998,,,,,342.0504039000007,342.0658454000004,342.2659450000001,342.24981190000017,340.03840300000047,,,,,,,,0,1,2.0089444000004733,None,,,,,,,,840,21,M,R,2026-02-25_12h28.37.291,VisualSearch_2526_3,,2025.2.4,2026-02-25 12h28.37.521537 +0100,
tilted.xlsx,The target is tilted.,117,12,4,1,1,0,0,0,0,0,0,0,0,0,0,0,0,0,1,117,space,4.164289100000133,None,0,0,1.3933500000002823,None,space,1.70564529999956,None,0,1,1,0,,,,,1,4,12,3,342.2659450000001,,,,,,,,,,,,,,,,,,,,,342.25053220000063,342.2659450000001,342.74962779999987,342.75376380000034,342.76951740000004,344.1663544000003,,,,,344.1665294000004,344.18177490000016,344.38218700000016,344.3662103000006,342.76951740000004,,,,,,,,0,0,1.3933500000002823,None,,,,,,,,840,21,M,R,2026-02-25_12h28.37.291,VisualSearch_2526_3,,2025.2.4,2026-02-25 12h28.37.521537 +0100,
tilted.xlsx,The target is tilted.,117,13,5,1,1,1,1,1,1,1,1,1,0,0,0,0,0,7,8,117,space,4.164289100000133,None,1,1,2.0684025999998994,None,space,1.70564529999956,None,0,1,1,0,,,,,1,5,13,1,344.38218700000016,,,,,,,,,,,,,,,,,,,,,344.36695640000016,344.38218700000016,344.86611730000004,344.8707265000003,344.8887577000005,346.9655211999998,,,,,346.96563440000045,346.9813052999998,347.1817191,347.16566310000053,344.8887577000005,,,,,,,,1,1,2.0684025999998994,None,,,,,,,,840,21,M,R,2026-02-25_12h28.37.291,VisualSearch_2526_3,,2025.2.4,2026-02-25 12h28.37.521537 +0100,
tilted.xlsx,The target is tilted.,117,14,6,1,0,0,0,0,0,0,0,0,0,0,0,0,1,1,1,117,space,4.164289100000133,None,0,1,1.0417485999996643,None,space,1.70564529999956,None,0,1,1,0,,,,,1,6,14,7,347.1817191,,,,,,,,,,,,,,,,,,,,,347.1663986000003,347.1817191,347.66549960000066,347.67004610000004,347.6876382999999,348.7321548,,,,,348.73233210000035,348.74815110000054,348.94823690000067,348.9318836000002,347.6876382999999,,,,,,,,0,1,1.0417485999996643,None,,,,,,,,840,21,M,R,2026-02-25_12h28.37.291,VisualSearch_2526_3,,2025.2.4,2026-02-25 12h28.37.521537 +0100,
tilted.xlsx,The target is tilted.,117,15,7,1,0,1,1,1,1,1,1,1,1,1,1,1,1,11,12,117,space,4.164289100000133,None,1,0,1.1222924000003331,None,space,1.70564529999956,None,0,1,1,0,,,,,1,7,15,4,348.94823690000067,,,,,,,,,,,,,,,,,,,,,348.9326301000001,348.94823690000067,349.4320809999999,349.4372032000001,349.45362660000046,350.5820822000005,,,,,350.58227590000024,350.5975208,350.79774110000017,350.78119909999987,349.45362660000046,,,,,,,,1,0,1.1222924000003331,None,,,,,,,,840,21,M,R,2026-02-25_12h28.37.291,VisualSearch_2526_3,,2025.2.4,2026-02-25 12h28.37.521537 +0100,
tilted.xlsx,The target is tilted.,117,16,0,2,1,1,1,1,1,1,1,1,1,1,1,1,0,11,12,117,space,4.164289100000133,None,0,0,3.2084215000004406,None,space,1.70564529999956,None,0,1,1,0,,,,,2,0,16,0,350.79774110000017,,,,,,,,,,,,,,,,,,,,,350.7819091000001,350.79774110000017,351.28139120000014,351.28602839999985,351.3022947999998,354.5145653999998,,,,,354.5147469000003,354.53003830000034,354.7306354000002,354.7143636999999,351.3022947999998,,,,,,,,0,0,3.2084215000004406,None,,,,,,,,840,21,M,R,2026-02-25_12h28.37.291,VisualSearch_2526_3,,2025.2.4,2026-02-25 12h28.37.521537 +0100,
tilted.xlsx,The target is tilted.,117,17,1,2,0,0,0,0,0,0,0,0,0,0,0,0,1,1,1,117,space,4.164289100000133,None,0,1,0.8921542000007321,None,space,1.70564529999956,None,0,1,1,0,,,,,2,1,17,7,354.7306354000002,,,,,,,,,,,,,,,,,,,,,354.71511499999997,354.7306354000002,355.2141347000006,355.2181945000002,355.23393790000046,356.13115449999987,,,,,356.13132940000014,356.1465318999999,356.3468631000005,356.3308168000003,355.23393790000046,,,,,,,,0,1,0.8921542000007321,None,,,,,,,,840,21,M,R,2026-02-25_12h28.37.291,VisualSearch_2526_3,,2025.2.4,2026-02-25 12h28.37.521537 +0100,
tilted.xlsx,The target is tilted.,117,18,2,2,1,0,0,0,0,0,0,0,0,0,0,0,0,0,1,117,space,4.164289100000133,None,1,1,1.1745700999999826,None,space,1.70564529999956,None,0,1,1,0,,,,,2,2,18,3,356.3468631000005,,,,,,,,,,,,,,,,,,,,,356.33152549999977,356.3468631000005,356.8303528000006,356.8349296000006,356.85086090000004,358.0307859000004,,,,,358.0309578000006,358.0465079000005,358.2466671000002,358.2302472000001,356.85086090000004,,,,,,,,1,1,1.1745700999999826,None,,,,,,,,840,21,M,R,2026-02-25_12h28.37.291,VisualSearch_2526_3,,2025.2.4,2026-02-25 12h28.37.521537 +0100,
tilted.xlsx,The target is tilted.,117,19,3,2,0,1,1,1,1,1,1,1,1,1,1,1,1,11,12,117,space,4.164289100000133,None,0,1,0.9040548999992097,None,space,1.70564529999956,None,0,1,1,0,,,,,2,3,19,4,358.2466671000002,,,,,,,,,,,,,,,,,,,,,358.2310127999999,358.2466671000002,358.7305193000002,358.73505699999987,358.7465527000004,359.66412519999994,,,,,359.66431790000024,359.67951280000034,359.87954960000025,359.86350290000064,358.7465527000004,,,,,,,,0,1,0.9040548999992097,None,,,,,,,,840,21,M,R,2026-02-25_12h28.37.291,VisualSearch_2526_3,,2025.2.4,2026-02-25 12h28.37.521537 +0100,
tilted.xlsx,The target is tilted.,117,20,4,2,1,1,1,1,0,0,0,0,0,0,0,0,0,3,4,117,space,4.164289100000133,None,1,1,0.33426979999967443,None,space,1.70564529999956,None,0,1,1,0,,,,,2,4,20,2,359.87954960000025,,,,,,,,,,,,,,,,,,,,,359.8642875000005,359.87954960000025,360.3632606000001,360.3685282000006,360.38378139999986,360.73027790000015,,,,,360.7304159000005,360.7460669000002,360.94605860000047,360.92991510000047,360.38378139999986,,,,,,,,1,1,0.33426979999967443,None,,,,,,,,840,21,M,R,2026-02-25_12h28.37.291,VisualSearch_2526_3,,2025.2.4,2026-02-25 12h28.37.521537 +0100,
tilted.xlsx,The target is tilted.,117,21,5,2,0,1,1,1,1,1,1,1,0,0,0,0,1,7,8,117,space,4.164289100000133,None,1,0,0.5672401000001628,None,space,1.70564529999956,None,0,1,1,0,,,,,2,5,21,5,360.94605860000047,,,,,,,,,,,,,,,,,,,,,360.93066220000037,360.94605860000047,361.43011340000066,361.43527170000016,361.45186400000057,362.0302737000002,,,,,362.03044690000024,362.04587340000035,362.24567260000003,362.22949320000043,361.45186400000057,,,,,,,,1,0,0.5672401000001628,None,,,,,,,,840,21,M,R,2026-02-25_12h28.37.291,VisualSearch_2526_3,,2025.2.4,2026-02-25 12h28.37.521537 +0100,
tilted.xlsx,The target is tilted.,117,22,6,2,0,1,1,1,0,0,0,0,0,0,0,0,1,3,4,117,space,4.164289100000133,None,0,1,0.18499949999932142,None,space,1.70564529999956,None,0,1,1,0,,,,,2,6,22,6,362.24567260000003,,,,,,,,,,,,,,,,,,,,,362.23023960000046,362.24567260000003,362.72932350000065,362.73406160000013,362.7509559,362.9469981000002,,,,,362.94719500000065,362.96251029999985,363.1620950000006,363.1465048,362.7509559,,,,,,,,0,1,0.18499949999932142,None,,,,,,,,840,21,M,R,2026-02-25_12h28.37.291,VisualSearch_2526_3,,2025.2.4,2026-02-25 12h28.37.521537 +0100,
tilted.xlsx,The target is tilted.,117,23,7,2,1,1,1,1,1,1,1,1,0,0,0,0,0,7,8,117,space,4.164289100000133,None,1,1,0.05984519999947224,None,space,1.70564529999956,None,0,1,1,0,,,,,2,7,23,1,363.1620950000006,,,,,,,,,,,,,,,,,,,,,363.1473167000004,363.1620950000006,363.64647849999983,363.65176359999987,363.67009510000025,363.7458477,,,,,363.7459644999999,363.7622951000003,363.96222490000036,363.9457929,363.67009510000025,,,,,,,,1,1,0.05984519999947224,None,,,,,,,,840,21,M,R,2026-02-25_12h28.37.291,VisualSearch_2526_3,,2025.2.4,2026-02-25 12h28.37.521537 +0100,
tilted.xlsx,The target is tilted.,117,24,0,3,1,1,1,1,1,1,1,1,0,0,0,0,0,7,8,117,space,4.164289100000133,None,1,1,0.28267330000016955,None,space,1.70564529999956,None,0,1,1,0,,,,,3,0,24,1,363.96222490000036,,,,,,,,,,,,,,,,,,,,,363.94608719999997,363.96222490000036,364.4459017999998,364.4511953000001,364.4681774999999,364.7634871,,,,,364.7637364000002,364.77898520000053,364.97854110000026,364.96241330000066,364.4681774999999,,,,,,,,1,1,0.28267330000016955,None,,,,,,,,840,21,M,R,2026-02-25_12h28.37.291,VisualSearch_2526_3,,2025.2.4,2026-02-25 12h28.37.521537 +0100,
tilted.xlsx,The target is tilted.,117,25,1,3,0,1,1,1,1,1,1,1,1,1,1,1,1,11,12,117,space,4.164289100000133,None,0,1,1.1624140000003536,None,space,1.70564529999956,None,0,1,1,0,,,,,3,1,25,4,364.97854110000026,,,,,,,,,,,,,,,,,,,,,364.9631681000001,364.97854110000026,365.4627350999999,365.46804169999996,365.4852520000004,366.6629518999998,,,,,366.66314450000027,366.67839129999993,366.87866570000006,366.8623299000001,365.4852520000004,,,,,,,,0,1,1.1624140000003536,None,,,,,,,,840,21,M,R,2026-02-25_12h28.37.291,VisualSearch_2526_3,,2025.2.4,2026-02-25 12h28.37.521537 +0100,
tilted.xlsx,The target is tilted.,117,26,2,3,1,1,1,1,1,1,1,1,1,1,1,1,0,11,12,117,space,4.164289100000133,None,0,0,1.0202420000005077,None,space,1.70564529999956,None,0,1,1,0,,,,,3,2,26,0,366.87866570000006,,,,,,,,,,,,,,,,,,,,,366.86316669999997,366.87866570000006,367.3620603999998,367.36720479999985,367.3832630000006,368.41265440000006,,,,,368.4128451000006,368.4283122000006,368.62826570000016,368.6117512999999,367.3832630000006,,,,,,,,0,0,1.0202420000005077,None,,,,,,,,840,21,M,R,2026-02-25_12h28.37.291,VisualSearch_2526_3,,2025.2.4,2026-02-25 12h28.37.521537 +0100,
tilted.xlsx,The target is tilted.,117,27,3,3,1,0,0,0,0,0,0,0,0,0,0,0,0,0,1,117,space,4.164289100000133,None,1,1,1.422923200000696,None,space,1.70564529999956,None,0,1,1,0,,,,,3,3,27,3,368.62826570000016,,,,,,,,,,,,,,,,,,,,,368.61249190000035,368.62826570000016,369.1118892000004,369.11718010000004,369.1336296999998,370.56213819999994,,,,,370.56231220000063,370.5774355000003,370.77789100000064,370.76136230000066,369.1336296999998,,,,,,,,1,1,1.422923200000696,None,,,,,,,,840,21,M,R,2026-02-25_12h28.37.291,VisualSearch_2526_3,,2025.2.4,2026-02-25 12h28.37.521537 +0100,
tilted.xlsx,The target is tilted.,117,28,4,3,1,1,1,1,0,0,0,0,0,0,0,0,0,3,4,117,space,4.164289100000133,None,1,1,1.1289472000007663,None,space,1.70564529999956,None,0,1,1,0,,,,,3,4,28,2,370.77789100000064,,,,,,,,,,,,,,,,,,,,,370.7621374999999,370.77789100000064,371.26138020000053,371.2660497000006,371.2826554000003,372.42852159999984,,,,,372.4286974000006,372.44431220000024,372.6442771000002,372.62809110000035,371.2826554000003,,,,,,,,1,1,1.1289472000007663,None,,,,,,,,840,21,M,R,2026-02-25_12h28.37.291,VisualSearch_2526_3,,2025.2.4,2026-02-25 12h28.37.521537 +0100,
tilted.xlsx,The target is tilted.,117,29,5,3,0,0,0,0,0,0,0,0,0,0,0,0,1,1,1,117,space,4.164289100000133,None,0,1,0.9675012999996397,None,space,1.70564529999956,None,0,1,1,0,,,,,3,5,29,7,372.6442771000002,,,,,,,,,,,,,,,,,,,,,372.62880440000026,372.6442771000002,373.1276926999999,373.1322145000004,373.14563850000013,374.1279490000006,,,,,374.12812310000027,374.14378320000014,374.3439558,374.3278207000003,373.14563850000013,,,,,,,,0,1,0.9675012999996397,None,,,,,,,,840,21,M,R,2026-02-25_12h28.37.291,VisualSearch_2526_3,,2025.2.4,2026-02-25 12h28.37.521537 +0100,
tilted.xlsx,The target is tilted.,117,30,6,3,0,1,1,1,0,0,0,0,0,0,0,0,1,3,4,117,space,4.164289100000133,None,0,1,1.0100893999997425,None,space,1.70564529999956,None,0,1,1,0,,,,,3,6,30,6,374.3439558,,,,,,,,,,,,,,,,,,,,,374.32853440000054,374.3439558,374.82781760000034,374.83227010000064,374.8493212000003,375.86032760000035,,,,,375.8604101000001,375.8764205000007,376.07704139999987,376.0606293999999,374.8493212000003,,,,,,,,0,1,1.0100893999997425,None,,,,,,,,840,21,M,R,2026-02-25_12h28.37.291,VisualSearch_2526_3,,2025.2.4,2026-02-25 12h28.37.521537 +0100,
tilted.xlsx,The target is tilted.,117,31,7,3,0,1,1,1,1,1,1,1,0,0,0,0,1,7,8,117,space,4.164289100000133,None,0,1,1.5952900000002046,None,space,1.70564529999956,None,0,1,1,0,,,,,3,7,31,5,376.07704139999987,,,,,,,,,,,,,,,,,,,,,376.06139130000065,376.07704139999987,376.5605153000006,376.56506030000037,376.5834986,378.19423820000065,,,,,378.1944112000001,378.20986690000063,378.4100494000004,378.3937341999999,,,,,,,,,0,1,1.5952900000002046,None,,,,,,,,840,21,M,R,2026-02-25_12h28.37.291,VisualSearch_2526_3,,2025.2.4,2026-02-25 12h28.37.521537 +0100,
tilted.xlsx,The target is tilted.,117,32,0,4,1,1,1,1,1,1,1,1,1,1,1,1,0,11,12,117,space,4.164289100000133,None,1,1,1.542586200000187,None,space,1.70564529999956,None,0,1,1,0,,,,,4,0,32,0,378.4100494000004,,,,,,,,,,,,,,,,,,,,,378.39449980000063,378.4100494000004,378.89365200000066,378.8983908,378.9152641999999,380.46025009999994,,,,,380.46041220000006,380.4757980000004,380.6762649000002,380.66010800000004,378.9152641999999,,,,,,,,1,1,1.542586200000187,None,,,,,,,,840,21,M,R,2026-02-25_12h28.37.291,VisualSearch_2526_3,,2025.2.4,2026-02-25 12h28.37.521537 +0100,
tilted.xlsx,The target is tilted.,117,33,1,4,0,1,1,1,1,1,1,1,0,0,0,0,1,7,8,117,space,4.164289100000133,None,0,1,1.42337310000039,None,space,1.70564529999956,None,0,1,1,0,,,,,4,1,33,5,380.6762649000002,,,,,,,,,,,,,,,,,,,,,380.6608249000001,380.6762649000002,381.1594644000006,381.16111940000064,381.1757107000003,382.60963210000045,,,,,382.60971040000004,382.6256972000001,382.8259052000003,382.809698,381.1757107000003,,,,,,,,0,1,1.42337310000039,None,,,,,,,,840,21,M,R,2026-02-25_12h28.37.291,VisualSearch_2526_3,,2025.2.4,2026-02-25 12h28.37.521537 +0100,
