file_name,block_instructions,target_example,thisN,thisTrialN,thisRepN,target_presence,opacity_1,opacity_2,opacity_3,opacity_4,opacity_5,opacity_6,opacity_7,opacity_8,opacity_9,opacity_10,opacity_11,opacity_12,n_distract,n_items,target_ori,key_resp_4.keys,key_resp_4.rt,key_resp_4.duration,key_resp.keys,key_resp.corr,key_resp.rt,key_resp.duration,key_resp_5.keys,key_resp_5.rt,key_resp_5.duration,blocks.thisRepN,blocks.thisTrialN,blocks.thisN,blocks.thisIndex,practice_trials.thisRepN,practice_trials.thisTrialN,practice_trials.thisN,practice_trials.thisIndex,trials.thisRepN,trials.thisTrialN,trials.thisN,trials.thisIndex,thisRow.t,notes,Welcome.started,WelcomeText.started,key_resp_2.started,Welcome.stopped,key_resp_2.keys,key_resp_2.rt,key_resp_2.duration,InformedConsent.started,text_4.started,InformedConsent.stopped,key_resp_6.keys,key_resp_6.rt,key_resp_6.duration,key_resp_4.started,example_target.started,text_3.started,blocks.key_resp_4.keys,blocks.key_resp_4.rt,blocks.key_resp_4.duration,FixCross.started,fixCross.started,FixCross.stopped,Stimulus.started,key_resp.started,Stimulus.stopped,practice_trials.key_resp.keys,practice_trials.key_resp.corr,practice_trials.key_resp.rt,practice_trials.key_resp.duration,BlankScreen.started,text.started,text.stopped,BlankScreen.stopped,fixCross.stopped,ExperimentStart.started,text_2.started,key_resp_5.started,ExperimentStart.stopped,blocks.key_resp_5.keys,blocks.key_resp_5.rt,blocks.key_resp_5.duration,trials.key_resp.keys,trials.key_resp.corr,trials.key_resp.rt,trials.key_resp.duration,Thanks.started,ThankYou.started,key_resp_3.started,Thanks.stopped,key_resp_3.keys,key_resp_3.rt,key_resp_3.duration,participant,leeftijd,gender,links/rechtshandig,date,expName,expVersion,psychopyVersion,expStart,
,,,,,,,,,,,,,,,,,,,,,,,,,,,,,,,,,,,,,,,,,,,,,,0.0415407000000414,0.06860050000000228,0.06860050000000228,48.9253731,space,48.6807139,None,,,,,,,,,,,,,,,,,,,,,,,,,,,,,,,,,,,,,,,,,,,,,, 841,22,M,L,2026-02-18_11h10.50.960,VisualSearch_2526_3,,2025.2.4,2026-02-18 11h10.51.851474 +0100,
,,,,,,,,,,,,,,,,,,,,,,,,,,,,,,,,,,,,,,,,,,,,,,,,,,,,,48.92544399999997,48.931858600000055,73.72821050000005,y,24.78706150000005,None,,,,,,,,,,,,,,,,,,,,,,,,,,,,,,,,,,,,,,,, 841,22,M,L,2026-02-18_11h10.50.960,VisualSearch_2526_3,,2025.2.4,2026-02-18 11h10.51.851474 +0100,
vertical.xlsx,The target is tilted.,135,0,0,0,1,1,1,1,0,0,0,0,0,0,0,0,0,3,4,135,space,5.687290399999938,None,1,1,1.3574278999999478,None,,,,0,0,0,1,0,0,0,2,,,,,79.71768469999995,,,,,,,,,,,,,,,73.91636589999996,73.91636589999996,73.91636589999996,space,5.687290399999938,None,79.71258390000003,79.71768469999995,80.12499549999995,80.13058560000002,80.15259660000004,81.5252749,1,1,1.3574278999999478,None,81.52550859999997,81.54042819999995,81.7407915,81.72474820000002,,,,,,,,,,,,,,,,,,,, 841,22,M,L,2026-02-18_11h10.50.960,VisualSearch_2526_3,,2025.2.4,2026-02-18 11h10.51.851474 +0100,
vertical.xlsx,The target is tilted.,135,1,1,0,1,1,1,1,1,1,1,1,0,0,0,0,0,7,8,135,space,5.687290399999938,None,1,1,1.1309449000000313,None,,,,0,0,0,1,0,1,1,1,,,,,81.7407915,,,,,,,,,,,,,,,,,,,,,81.72548940000001,81.7407915,82.22432839999999,82.22966359999998,82.24305909999998,83.39101689999995,1,1,1.1309449000000313,None,83.39122629999997,83.40645319999999,83.60682970000005,83.59076879999998,82.24305909999998,,,,,,,,,,,,,,,,,,, 841,22,M,L,2026-02-18_11h10.50.960,VisualSearch_2526_3,,2025.2.4,2026-02-18 11h10.51.851474 +0100,
vertical.xlsx,The target is tilted.,135,2,2,0,0,0,0,0,0,0,0,0,0,0,0,0,1,1,1,135,space,5.687290399999938,None,0,1,0.7631802000000789,None,,,,0,0,0,1,0,2,2,7,,,,,83.60682970000005,,,,,,,,,,,,,,,,,,,,,83.59151970000005,83.60682970000005,84.09052080000004,84.09557489999997,84.10642359999997,84.87318570000002,0,1,0.7631802000000789,None,84.87326559999997,84.88891430000001,85.08898610000006,85.07261900000003,84.10642359999997,,,,,,,,,,,,,,,,,,, 841,22,M,L,2026-02-18_11h10.50.960,VisualSearch_2526_3,,2025.2.4,2026-02-18 11h10.51.851474 +0100,
vertical.xlsx,The target is tilted.,135,3,3,0,0,1,1,1,1,1,1,1,0,0,0,0,1,7,8,135,space,5.687290399999938,None,0,1,1.971225000000004,None,,,,0,0,0,1,0,3,3,5,,,,,85.08898610000006,,,,,,,,,,,,,,,,,,,,,85.07309299999997,85.08898610000006,85.57244290000006,85.57531819999997,85.58886729999995,87.572137,0,1,1.971225000000004,None,87.57225500000004,87.58809459999998,87.78807099999995,87.7719581,85.58886729999995,,,,,,,,,,,,,,,,,,, 841,22,M,L,2026-02-18_11h10.50.960,VisualSearch_2526_3,,2025.2.4,2026-02-18 11h10.51.851474 +0100,
vertical.xlsx,The target is tilted.,135,4,4,0,0,1,1,1,1,1,1,1,1,1,1,1,1,11,12,135,space,5.687290399999938,None,0,1,1.5946236000000908,None,,,,0,0,0,1,0,4,4,4,,,,,87.78807099999995,,,,,,,,,,,,,,,,,,,,,87.77236430000005,87.78807099999995,88.2720544,88.27444349999996,88.2881658,89.88876110000001,0,1,1.5946236000000908,None,89.88895290000005,89.90424619999999,90.10437660000002,90.08830250000005,88.2881658,,,,,,,,,,,,,,,,,,, 841,22,M,L,2026-02-18_11h10.50.960,VisualSearch_2526_3,,2025.2.4,2026-02-18 11h10.51.851474 +0100,
vertical.xlsx,The target is tilted.,135,5,5,0,0,1,1,1,0,0,0,0,0,0,0,0,1,3,4,135,space,5.687290399999938,None,0,1,0.6564544999999953,None,,,,0,0,0,1,0,5,5,6,,,,,90.10437660000002,,,,,,,,,,,,,,,,,,,,,90.08910230000004,90.10437660000002,90.58808580000004,90.59337930000004,90.61481049999998,91.28793710000002,0,1,0.6564544999999953,None,91.28808490000006,91.30366260000005,91.50429229999997,91.48785110000006,90.61481049999998,,,,,,,,,,,,,,,,,,, 841,22,M,L,2026-02-18_11h10.50.960,VisualSearch_2526_3,,2025.2.4,2026-02-18 11h10.51.851474 +0100,
vertical.xlsx,The target is tilted.,135,6,6,0,1,1,1,1,1,1,1,1,1,1,1,1,0,11,12,135,space,5.687290399999938,None,1,1,1.4655493000000206,None,,,,0,0,0,1,0,6,6,0,,,,,91.50429229999997,,,,,,,,,,,,,,,,,,,,,91.48859809999999,91.50429229999997,91.98804070000006,91.99337219999995,92.01639250000005,93.48783330000003,1,1,1.4655493000000206,None,93.4880713,93.50316929999997,93.7035568,93.68755269999997,92.01639250000005,,,,,,,,,,,,,,,,,,, 841,22,M,L,2026-02-18_11h10.50.960,VisualSearch_2526_3,,2025.2.4,2026-02-18 11h10.51.851474 +0100,
vertical.xlsx,The target is tilted.,135,7,7,0,1,0,0,0,0,0,0,0,0,0,0,0,0,0,1,135,space,5.687290399999938,None,1,1,0.5740941999999905,None,,,,0,0,0,1,0,7,7,3,,,,,93.7035568,,,,,,,,,,,,,,,,,,,,,93.68833540000003,93.7035568,94.18677979999995,94.18887380000001,94.2031766,94.78739949999999,1,1,0.5740941999999905,None,94.78764020000006,94.80276079999999,95.00444890000006,94.98686029999999,94.2031766,,,,,,,,,,,,,,,,,,, 841,22,M,L,2026-02-18_11h10.50.960,VisualSearch_2526_3,,2025.2.4,2026-02-18 11h10.51.851474 +0100,
vertical.xlsx,The target is tilted.,135,0,0,0,0,1,1,1,1,1,1,1,0,0,0,0,1,7,8,135,space,5.687290399999938,None,0,1,1.1145649000000049,None,space,2.0703002000000197,None,0,0,0,1,,,,,0,0,0,5,97.11767440000006,,,,,,,,,,,,,,,,,,,,,97.11318319999998,97.11767440000006,97.60181179999995,97.60477830000002,97.61835680000002,98.73595109999997,,,,,98.73615110000003,98.75137359999997,98.95119609999995,98.93520850000004,,94.99630479999996,95.00444890000006,95.00444890000006,97.08606829999997,space,2.0703002000000197,None,0,1,1.1145649000000049,None,,,,,,,, 841,22,M,L,2026-02-18_11h10.50.960,VisualSearch_2526_3,,2025.2.4,2026-02-18 11h10.51.851474 +0100,
vertical.xlsx,The target is tilted.,135,1,1,0,1,1,1,1,1,1,1,1,0,0,0,0,0,7,8,135,space,5.687290399999938,None,1,1,0.9054577000000563,None,space,2.0703002000000197,None,0,0,0,1,,,,,0,1,1,1,98.95119609999995,,,,,,,,,,,,,,,,,,,,,98.93599240000003,98.95119609999995,99.43527500000005,99.44056479999995,99.46185079999998,100.38459699999999,,,,,100.38471830000003,100.40056049999998,100.6005361,100.58416030000001,99.46185079999998,,,,,,,,1,1,0.9054577000000563,None,,,,,,,, 841,22,M,L,2026-02-18_11h10.50.960,VisualSearch_2526_3,,2025.2.4,2026-02-18 11h10.51.851474 +0100,
vertical.xlsx,The target is tilted.,135,2,2,0,1,1,1,1,0,0,0,0,0,0,0,0,0,3,4,135,space,5.687290399999938,None,1,1,0.5579855999999381,None,space,2.0703002000000197,None,0,0,0,1,,,,,0,2,2,2,100.6005361,,,,,,,,,,,,,,,,,,,,,100.58461609999995,100.6005361,101.08395480000001,101.08669550000002,101.10036319999995,101.66759990000003,,,,,101.66772079999998,101.68350680000003,101.88343999999995,101.86773530000005,101.10036319999995,,,,,,,,1,1,0.5579855999999381,None,,,,,,,, 841,22,M,L,2026-02-18_11h10.50.960,VisualSearch_2526_3,,2025.2.4,2026-02-18 11h10.51.851474 +0100,
vertical.xlsx,The target is tilted.,135,3,3,0,0,1,1,1,0,0,0,0,0,0,0,0,1,3,4,135,space,5.687290399999938,None,0,1,0.6708149999999478,None,space,2.0703002000000197,None,0,0,0,1,,,,,0,3,3,6,101.88343999999995,,,,,,,,,,,,,,,,,,,,,101.8681398,101.88343999999995,102.36699999999996,102.36977149999996,102.38332760000003,103.06712890000006,,,,,103.06722730000001,103.08307100000002,103.28300019999995,103.26676380000004,102.38332760000003,,,,,,,,0,1,0.6708149999999478,None,,,,,,,, 841,22,M,L,2026-02-18_11h10.50.960,VisualSearch_2526_3,,2025.2.4,2026-02-18 11h10.51.851474 +0100,
vertical.xlsx,The target is tilted.,135,4,4,0,1,1,1,1,1,1,1,1,1,1,1,1,0,11,12,135,space,5.687290399999938,None,1,1,0.710429500000032,None,space,2.0703002000000197,None,0,0,0,1,,,,,0,4,4,0,103.28300019999995,,,,,,,,,,,,,,,,,,,,,103.26720650000004,103.28300019999995,103.76652809999996,103.76934210000002,103.78285540000002,104.50006140000005,,,,,104.50018650000004,104.51590550000003,104.71592329999999,104.69958050000002,103.78285540000002,,,,,,,,1,1,0.710429500000032,None,,,,,,,, 841,22,M,L,2026-02-18_11h10.50.960,VisualSearch_2526_3,,2025.2.4,2026-02-18 11h10.51.851474 +0100,
vertical.xlsx,The target is tilted.,135,5,5,0,1,0,0,0,0,0,0,0,0,0,0,0,0,0,1,135,space,5.687290399999938,None,1,1,0.5605540000000246,None,space,2.0703002000000197,None,0,0,0,1,,,,,0,5,5,3,104.71592329999999,,,,,,,,,,,,,,,,,,,,,104.70003510000004,104.71592329999999,105.19942609999998,105.2020238,105.21567379999999,105.78292369999997,,,,,105.78302169999995,105.79884649999997,105.99874509999995,105.98242340000002,105.21567379999999,,,,,,,,1,1,0.5605540000000246,None,,,,,,,, 841,22,M,L,2026-02-18_11h10.50.960,VisualSearch_2526_3,,2025.2.4,2026-02-18 11h10.51.851474 +0100,
vertical.xlsx,The target is tilted.,135,6,6,0,0,1,1,1,1,1,1,1,1,1,1,1,1,11,12,135,space,5.687290399999938,None,0,1,1.1044312000000218,None,space,2.0703002000000197,None,0,0,0,1,,,,,0,6,6,4,105.99874509999995,,,,,,,,,,,,,,,,,,,,,105.98287830000004,105.99874509999995,106.48232680000001,106.48513219999995,106.49870329999999,107.6158643,,,,,107.61598690000005,107.63152200000002,107.83144660000005,107.81500840000001,106.49870329999999,,,,,,,,0,1,1.1044312000000218,None,,,,,,,, 841,22,M,L,2026-02-18_11h10.50.960,VisualSearch_2526_3,,2025.2.4,2026-02-18 11h10.51.851474 +0100,
vertical.xlsx,The target is tilted.,135,7,7,0,0,0,0,0,0,0,0,0,0,0,0,0,1,1,1,135,space,5.687290399999938,None,0,1,0.6052596000000676,None,space,2.0703002000000197,None,0,0,0,1,,,,,0,7,7,7,107.83144660000005,,,,,,,,,,,,,,,,,,,,,107.81550449999997,107.83144660000005,108.31605630000001,108.32288640000002,108.34637329999998,108.9653707,,,,,108.96550320000006,108.98113490000003,109.18191969999998,109.16572989999997,108.34637329999998,,,,,,,,0,1,0.6052596000000676,None,,,,,,,, 841,22,M,L,2026-02-18_11h10.50.960,VisualSearch_2526_3,,2025.2.4,2026-02-18 11h10.51.851474 +0100,
vertical.xlsx,The target is tilted.,135,8,0,1,0,1,1,1,0,0,0,0,0,0,0,0,1,3,4,135,space,5.687290399999938,None,0,1,0.6738533999999845,None,space,2.0703002000000197,None,0,0,0,1,,,,,1,0,8,6,109.18191969999998,,,,,,,,,,,,,,,,,,,,,109.16678939999997,109.18191969999998,109.66534750000005,109.67067650000001,109.69172000000003,110.38215179999997,,,,,110.38238109999998,110.39755479999997,110.59800519999999,110.58191469999997,109.69172000000003,,,,,,,,0,1,0.6738533999999845,None,,,,,,,, 841,22,M,L,2026-02-18_11h10.50.960,VisualSearch_2526_3,,2025.2.4,2026-02-18 11h10.51.851474 +0100,
vertical.xlsx,The target is tilted.,135,9,1,1,1,1,1,1,1,1,1,1,1,1,1,1,0,11,12,135,space,5.687290399999938,None,1,1,0.7115133999999443,None,space,2.0703002000000197,None,0,0,0,1,,,,,1,1,9,0,110.59800519999999,,,,,,,,,,,,,,,,,,,,,110.58291729999996,110.59800519999999,111.08173060000001,111.08718480000005,111.10877900000003,111.83159750000004,,,,,111.83182409999995,111.84705529999997,112.04742780000004,112.03129590000003,111.10877900000003,,,,,,,,1,1,0.7115133999999443,None,,,,,,,, 841,22,M,L,2026-02-18_11h10.50.960,VisualSearch_2526_3,,2025.2.4,2026-02-18 11h10.51.851474 +0100,
vertical.xlsx,The target is tilted.,135,10,2,1,0,1,1,1,1,1,1,1,1,1,1,1,1,11,12,135,space,5.687290399999938,None,0,1,1.3931559999999763,None,space,2.0703002000000197,None,0,0,0,1,,,,,1,2,10,4,112.04742780000004,,,,,,,,,,,,,,,,,,,,,112.0321917,112.04742780000004,112.53140759999997,112.5367774,112.55689859999995,113.96424839999997,,,,,113.96447599999999,113.97978049999995,114.1801127,114.1640777,112.55689859999995,,,,,,,,0,1,1.3931559999999763,None,,,,,,,, 841,22,M,L,2026-02-18_11h10.50.960,VisualSearch_2526_3,,2025.2.4,2026-02-18 11h10.51.851474 +0100,
vertical.xlsx,The target is tilted.,135,11,3,1,0,0,0,0,0,0,0,0,0,0,0,0,1,1,1,135,space,5.687290399999938,None,0,1,0.5999798999999939,None,space,2.0703002000000197,None,0,0,0,1,,,,,1,3,11,7,114.1801127,,,,,,,,,,,,,,,,,,,,,114.16489179999996,114.1801127,114.66394509999998,114.66930760000002,114.69118070000002,115.29737550000004,,,,,115.29760090000002,115.31260029999999,115.51307299999996,115.49701540000001,114.69118070000002,,,,,,,,0,1,0.5999798999999939,None,,,,,,,, 841,22,M,L,2026-02-18_11h10.50.960,VisualSearch_2526_3,,2025.2.4,2026-02-18 11h10.51.851474 +0100,
vertical.xlsx,The target is tilted.,135,12,4,1,1,1,1,1,1,1,1,1,0,0,0,0,0,7,8,135,space,5.687290399999938,None,1,1,1.0750769999999648,None,space,2.0703002000000197,None,0,0,0,1,,,,,1,4,12,1,115.51307299999996,,,,,,,,,,,,,,,,,,,,,115.4978615,115.51307299999996,115.9967474,116.00216560000001,116.01908979999996,117.0969771,,,,,117.09721339999999,117.11199729999998,117.31195809999997,117.29606790000003,116.01908979999996,,,,,,,,1,1,1.0750769999999648,None,,,,,,,, 841,22,M,L,2026-02-18_11h10.50.960,VisualSearch_2526_3,,2025.2.4,2026-02-18 11h10.51.851474 +0100,
vertical.xlsx,The target is tilted.,135,13,5,1,0,1,1,1,1,1,1,1,0,0,0,0,1,7,8,135,space,5.687290399999938,None,0,1,1.1227709999999433,None,space,2.0703002000000197,None,0,0,0,1,,,,,1,5,13,5,117.31195809999997,,,,,,,,,,,,,,,,,,,,,117.29689280000002,117.31195809999997,117.79628509999998,117.80163270000003,117.81883990000006,118.9453767,,,,,118.94553659999997,118.96130889999995,119.16178439999999,119.14545169999997,117.81883990000006,,,,,,,,0,1,1.1227709999999433,None,,,,,,,, 841,22,M,L,2026-02-18_11h10.50.960,VisualSearch_2526_3,,2025.2.4,2026-02-18 11h10.51.851474 +0100,
vertical.xlsx,The target is tilted.,135,14,6,1,1,1,1,1,0,0,0,0,0,0,0,0,0,3,4,135,space,5.687290399999938,None,1,1,0.542626499999983,None,space,2.0703002000000197,None,0,0,0,1,,,,,1,6,14,2,119.16178439999999,,,,,,,,,,,,,,,,,,,,,119.14628670000002,119.16178439999999,119.645261,119.65065289999995,119.67243169999995,120.22806979999996,,,,,120.22819219999997,120.24452870000005,120.44474119999995,120.42833840000003,119.67243169999995,,,,,,,,1,1,0.542626499999983,None,,,,,,,, 841,22,M,L,2026-02-18_11h10.50.960,VisualSearch_2526_3,,2025.2.4,2026-02-18 11h10.51.851474 +0100,
vertical.xlsx,The target is tilted.,135,15,7,1,1,0,0,0,0,0,0,0,0,0,0,0,0,0,1,135,space,5.687290399999938,None,1,1,0.48191000000008444,None,space,2.0703002000000197,None,0,0,0,1,,,,,1,7,15,3,120.44474119999995,,,,,,,,,,,,,,,,,,,,,120.42917899999998,120.44474119999995,120.92832659999999,120.93399180000006,120.95468230000006,121.44545070000004,,,,,121.44565150000005,121.46054749999996,121.66094980000003,121.64483840000003,,,,,,,,,1,1,0.48191000000008444,None,,,,,,,, 841,22,M,L,2026-02-18_11h10.50.960,VisualSearch_2526_3,,2025.2.4,2026-02-18 11h10.51.851474 +0100,
vertical.xlsx,The target is tilted.,135,16,0,2,1,1,1,1,0,0,0,0,0,0,0,0,0,3,4,135,space,5.687290399999938,None,1,1,0.7483581999999842,None,space,2.0703002000000197,None,0,0,0,1,,,,,2,0,16,2,121.66094980000003,,,,,,,,,,,,,,,,,,,,,121.64568169999995,121.66094980000003,122.144859,122.15043790000004,122.17208719999996,122.92851340000004,,,,,122.92875530000003,122.94346659999997,123.14351060000001,123.12749110000004,122.17208719999996,,,,,,,,1,1,0.7483581999999842,None,,,,,,,, 841,22,M,L,2026-02-18_11h10.50.960,VisualSearch_2526_3,,2025.2.4,2026-02-18 11h10.51.851474 +0100,
vertical.xlsx,The target is tilted.,135,17,1,2,0,1,1,1,1,1,1,1,1,1,1,1,1,11,12,135,space,5.687290399999938,None,0,1,1.6192126999999346,None,space,2.0703002000000197,None,0,0,0,1,,,,,2,1,17,4,123.14351060000001,,,,,,,,,,,,,,,,,,,,,123.12824660000001,123.14351060000001,123.62754870000003,123.63237760000004,123.6434567,125.27727230000005,,,,,125.27749840000001,125.29267579999998,125.49317470000005,125.47702059999995,123.6434567,,,,,,,,0,1,1.6192126999999346,None,,,,,,,, 841,22,M,L,2026-02-18_11h10.50.960,VisualSearch_2526_3,,2025.2.4,2026-02-18 11h10.51.851474 +0100,
vertical.xlsx,The target is tilted.,135,18,2,2,0,1,1,1,0,0,0,0,0,0,0,0,1,3,4,135,space,5.687290399999938,None,0,1,0.6248454000000265,None,space,2.0703002000000197,None,0,0,0,1,,,,,2,2,18,6,125.49317470000005,,,,,,,,,,,,,,,,,,,,,125.47781780000003,125.49317470000005,125.97686099999999,125.98158660000001,125.9927543,126.62644769999997,,,,,126.62660589999996,126.64201449999996,126.84273389999998,126.82629580000003,125.9927543,,,,,,,,0,1,0.6248454000000265,None,,,,,,,, 841,22,M,L,2026-02-18_11h10.50.960,VisualSearch_2526_3,,2025.2.4,2026-02-18 11h10.51.851474 +0100,
vertical.xlsx,The target is tilted.,135,19,3,2,1,0,0,0,0,0,0,0,0,0,0,0,0,0,1,135,space,5.687290399999938,None,1,1,0.7453613999999789,None,space,2.0703002000000197,None,0,0,0,1,,,,,2,3,19,3,126.84273389999998,,,,,,,,,,,,,,,,,,,,,126.82713980000005,126.84273389999998,127.32631690000005,127.33184589999996,127.35328119999997,128.11023390000003,,,,,128.110457,128.12516159999996,128.32553559999997,128.30960500000003,127.35328119999997,,,,,,,,1,1,0.7453613999999789,None,,,,,,,, 841,22,M,L,2026-02-18_11h10.50.960,VisualSearch_2526_3,,2025.2.4,2026-02-18 11h10.51.851474 +0100,
vertical.xlsx,The target is tilted.,135,20,4,2,0,0,0,0,0,0,0,0,0,0,0,0,1,1,1,135,space,5.687290399999938,None,0,1,0.5816923999999517,None,space,2.0703002000000197,None,0,0,0,1,,,,,2,4,20,7,128.32553559999997,,,,,,,,,,,,,,,,,,,,,128.31043880000004,128.32553559999997,128.80936789999998,128.81510760000003,128.83726690000003,129.4259773,,,,,129.42622089999998,129.4413551,129.641483,129.6253239,128.83726690000003,,,,,,,,0,1,0.5816923999999517,None,,,,,,,, 841,22,M,L,2026-02-18_11h10.50.960,VisualSearch_2526_3,,2025.2.4,2026-02-18 11h10.51.851474 +0100,
vertical.xlsx,The target is tilted.,135,21,5,2,0,1,1,1,1,1,1,1,0,0,0,0,1,7,8,135,space,5.687290399999938,None,0,1,1.135669699999994,None,space,2.0703002000000197,None,0,0,0,1,,,,,2,5,21,5,129.641483,,,,,,,,,,,,,,,,,,,,,129.62618410000005,129.641483,130.12548389999995,130.13060180000002,130.14126439999995,131.29187739999998,,,,,131.29213719999996,131.3074497,131.507794,131.4912855,130.14126439999995,,,,,,,,0,1,1.135669699999994,None,,,,,,,, 841,22,M,L,2026-02-18_11h10.50.960,VisualSearch_2526_3,,2025.2.4,2026-02-18 11h10.51.851474 +0100,
vertical.xlsx,The target is tilted.,135,22,6,2,1,1,1,1,1,1,1,1,1,1,1,1,0,11,12,135,space,5.687290399999938,None,1,1,1.0026761000000306,None,space,2.0703002000000197,None,0,0,0,1,,,,,2,6,22,0,131.507794,,,,,,,,,,,,,,,,,,,,,131.49212509999995,131.507794,131.99163620000002,131.99718940000002,132.0191588,133.0247233,,,,,133.02485460000003,133.03985490000002,133.24056240000004,133.2245653,132.0191588,,,,,,,,1,1,1.0026761000000306,None,,,,,,,, 841,22,M,L,2026-02-18_11h10.50.960,VisualSearch_2526_3,,2025.2.4,2026-02-18 11h10.51.851474 +0100,
vertical.xlsx,The target is tilted.,135,23,7,2,1,1,1,1,1,1,1,1,0,0,0,0,0,7,8,135,space,5.687290399999938,None,1,1,0.6944429000000127,None,space,2.0703002000000197,None,0,0,0,1,,,,,2,7,23,1,133.24056240000004,,,,,,,,,,,,,,,,,,,,,133.22536850000006,133.24056240000004,133.72439169999996,133.72986400000002,133.75179149999997,134.45803969999997,,,,,134.4582974,134.47304699999995,134.6734179,134.65728190000004,133.75179149999997,,,,,,,,1,1,0.6944429000000127,None,,,,,,,, 841,22,M,L,2026-02-18_11h10.50.960,VisualSearch_2526_3,,2025.2.4,2026-02-18 11h10.51.851474 +0100,
vertical.xlsx,The target is tilted.,135,24,0,3,0,1,1,1,1,1,1,1,0,0,0,0,1,7,8,135,space,5.687290399999938,None,0,1,1.3352972999999793,None,space,2.0703002000000197,None,0,0,0,1,,,,,3,0,24,5,134.6734179,,,,,,,,,,,,,,,,,,,,,134.65811629999996,134.6734179,135.1570918,135.1626837,135.18415159999995,136.52382639999996,,,,,136.52405580000004,136.5386972,136.73905190000005,136.72345540000003,135.18415159999995,,,,,,,,0,1,1.3352972999999793,None,,,,,,,, 841,22,M,L,2026-02-18_11h10.50.960,VisualSearch_2526_3,,2025.2.4,2026-02-18 11h10.51.851474 +0100,
vertical.xlsx,The target is tilted.,135,25,1,3,1,0,0,0,0,0,0,0,0,0,0,0,0,0,1,135,space,5.687290399999938,None,1,1,0.5310724999999366,None,space,2.0703002000000197,None,0,0,0,1,,,,,3,1,25,3,136.73905190000005,,,,,,,,,,,,,,,,,,,,,136.72429190000003,136.73905190000005,137.2231905,137.22871399999997,137.25021419999996,137.7903119,,,,,137.79055589999996,137.80519319999996,138.00549490000003,137.98955539999997,137.25021419999996,,,,,,,,1,1,0.5310724999999366,None,,,,,,,, 841,22,M,L,2026-02-18_11h10.50.960,VisualSearch_2526_3,,2025.2.4,2026-02-18 11h10.51.851474 +0100,
vertical.xlsx,The target is tilted.,135,26,2,3,1,1,1,1,0,0,0,0,0,0,0,0,0,3,4,135,space,5.687290399999938,None,1,1,0.5747873999999911,None,space,2.0703002000000197,None,0,0,0,1,,,,,3,2,26,2,138.00549490000003,,,,,,,,,,,,,,,,,,,,,137.99041390000002,138.00549490000003,138.48955239999998,138.494638,138.5053226,139.08969130000003,,,,,139.0898886,139.1044872,139.3048278,139.28919259999998,138.5053226,,,,,,,,1,1,0.5747873999999911,None,,,,,,,, 841,22,M,L,2026-02-18_11h10.50.960,VisualSearch_2526_3,,2025.2.4,2026-02-18 11h10.51.851474 +0100,
vertical.xlsx,The target is tilted.,135,27,3,3,0,1,1,1,0,0,0,0,0,0,0,0,1,3,4,135,space,5.687290399999938,None,0,1,0.8133761000000277,None,space,2.0703002000000197,None,0,0,0,1,,,,,3,3,27,6,139.3048278,,,,,,,,,,,,,,,,,,,,,139.29000870000004,139.3048278,139.78906919999997,139.79478129999995,139.815828,140.6388018,,,,,140.63899749999996,140.6540129,140.8547324,140.8387341,139.815828,,,,,,,,0,1,0.8133761000000277,None,,,,,,,, 841,22,M,L,2026-02-18_11h10.50.960,VisualSearch_2526_3,,2025.2.4,2026-02-18 11h10.51.851474 +0100,
vertical.xlsx,The target is tilted.,135,28,4,3,1,1,1,1,1,1,1,1,0,0,0,0,0,7,8,135,space,5.687290399999938,None,1,1,1.0836084000000028,None,space,2.0703002000000197,None,0,0,0,1,,,,,3,4,28,1,140.8547324,,,,,,,,,,,,,,,,,,,,,140.83953269999995,140.8547324,141.33834409999997,141.34388330000002,141.36528410000005,142.45534050000003,,,,,142.45557799999995,142.47010720000003,142.67082289999996,142.65472009999996,141.36528410000005,,,,,,,,1,1,1.0836084000000028,None,,,,,,,, 841,22,M,L,2026-02-18_11h10.50.960,VisualSearch_2526_3,,2025.2.4,2026-02-18 11h10.51.851474 +0100,
vertical.xlsx,The target is tilted.,135,29,5,3,0,1,1,1,1,1,1,1,1,1,1,1,1,11,12,135,space,5.687290399999938,None,0,1,1.599973699999964,None,space,2.0703002000000197,None,0,0,0,1,,,,,3,5,29,4,142.67082289999996,,,,,,,,,,,,,,,,,,,,,142.65556130000004,142.67082289999996,143.15461960000005,143.1603179,143.18174090000002,144.78769420000003,,,,,144.78784640000003,144.80277880000006,145.00326210000003,144.98715890000005,143.18174090000002,,,,,,,,0,1,1.599973699999964,None,,,,,,,, 841,22,M,L,2026-02-18_11h10.50.960,VisualSearch_2526_3,,2025.2.4,2026-02-18 11h10.51.851474 +0100,
vertical.xlsx,The target is tilted.,135,30,6,3,1,1,1,1,1,1,1,1,1,1,1,1,0,11,12,135,space,5.687290399999938,None,1,1,1.4351487000000134,None,space,2.0703002000000197,None,0,0,0,1,,,,,3,6,30,0,145.00326210000003,,,,,,,,,,,,,,,,,,,,,144.9880286,145.00326210000003,145.48679319999997,145.49228089999997,145.51374199999998,146.95347040000001,,,,,146.95366820000004,146.96867959999997,147.1692471,147.15281270000003,145.51374199999998,,,,,,,,1,1,1.4351487000000134,None,,,,,,,, 841,22,M,L,2026-02-18_11h10.50.960,VisualSearch_2526_3,,2025.2.4,2026-02-18 11h10.51.851474 +0100,
vertical.xlsx,The target is tilted.,135,31,7,3,0,0,0,0,0,0,0,0,0,0,0,0,1,1,1,135,space,5.687290399999938,None,0,1,0.5592474999999695,None,space,2.0703002000000197,None,0,0,0,1,,,,,3,7,31,7,147.1692471,,,,,,,,,,,,,,,,,,,,,147.15326449999998,147.1692471,147.65324050000004,147.65878480000003,147.68116859999998,148.25310969999998,,,,,148.2533376,148.26847799999996,148.4688314,148.45281320000004,147.68116859999998,,,,,,,,0,1,0.5592474999999695,None,,,,,,,, 841,22,M,L,2026-02-18_11h10.50.960,VisualSearch_2526_3,,2025.2.4,2026-02-18 11h10.51.851474 +0100,
vertical.xlsx,The target is tilted.,135,32,0,4,1,1,1,1,1,1,1,1,1,1,1,1,0,11,12,135,space,5.687290399999938,None,1,1,1.0561535000000504,None,space,2.0703002000000197,None,0,0,0,1,,,,,4,0,32,0,148.4688314,,,,,,,,,,,,,,,,,,,,,148.45362269999998,148.4688314,148.952761,148.9582868,148.97989280000002,150.05253119999998,,,,,150.05276060000006,150.06788770000003,150.2683856,150.25230120000003,148.97989280000002,,,,,,,,1,1,1.0561535000000504,None,,,,,,,, 841,22,M,L,2026-02-18_11h10.50.960,VisualSearch_2526_3,,2025.2.4,2026-02-18 11h10.51.851474 +0100,
vertical.xlsx,The target is tilted.,135,33,1,4,0,0,0,0,0,0,0,0,0,0,0,0,1,1,1,135,space,5.687290399999938,None,0,1,0.5766464000000724,None,space,2.0703002000000197,None,0,0,0,1,,,,,4,1,33,7,150.2683856,,,,,,,,,,,,,,,,,,,,,150.2530971,150.2683856,150.75174389999995,150.7573261,150.77948479999998,151.368918,,,,,151.36914149999996,151.38415339999995,151.58453910000003,151.56849869999996,150.77948479999998,,,,,,,,0,1,0.5766464000000724,None,,,,,,,, 841,22,M,L,2026-02-18_11h10.50.960,VisualSearch_2526_3,,2025.2.4,2026-02-18 11h10.51.851474 +0100,
vertical.xlsx,The target is tilted.,135,34,2,4,1,0,0,0,0,0,0,0,0,0,0,0,0,0,1,135,space,5.687290399999938,None,1,1,0.5012528999999404,None,space,2.0703002000000197,None,0,0,0,1,,,,,4,2,34,3,151.58453910000003,,,,,,,,,,,,,,,,,,,,,151.56931759999998,151.58453910000003,152.06804950000003,152.07369219999998,152.09531890000005,152.60200610000004,,,,,152.6022388,152.6170747,152.81750810000005,152.80127530000004,152.09531890000005,,,,,,,,1,1,0.5012528999999404,None,,,,,,,, 841,22,M,L,2026-02-18_11h10.50.960,VisualSearch_2526_3,,2025.2.4,2026-02-18 11h10.51.851474 +0100,
vertical.xlsx,The target is tilted.,135,35,3,4,1,1,1,1,0,0,0,0,0,0,0,0,0,3,4,135,space,5.687290399999938,None,1,1,0.6532781000000796,None,space,2.0703002000000197,None,0,0,0,1,,,,,4,3,35,2,152.81750810000005,,,,,,,,,,,,,,,,,,,,,152.80217960000004,152.81750810000005,153.30133130000002,153.30690600000003,153.32857060000003,153.98582829999998,,,,,153.98605310000005,154.0000212,154.2003532,154.18403,153.32857060000003,,,,,,,,1,1,0.6532781000000796,None,,,,,,,, 841,22,M,L,2026-02-18_11h10.50.960,VisualSearch_2526_3,,2025.2.4,2026-02-18 11h10.51.851474 +0100,
vertical.xlsx,The target is tilted.,135,36,4,4,0,1,1,1,1,1,1,1,0,0,0,0,1,7,8,135,space,5.687290399999938,None,0,1,1.2783037000000377,None,space,2.0703002000000197,None,0,0,0,1,,,,,4,4,36,5,154.2003532,,,,,,,,,,,,,,,,,,,,,154.1848771,154.2003532,154.6841164,154.68951270000002,154.7103886,156.00049539999998,,,,,156.0007402,156.01586569999995,156.2163554,156.20039169999995,154.7103886,,,,,,,,0,1,1.2783037000000377,None,,,,,,,, 841,22,M,L,2026-02-18_11h10.50.960,VisualSearch_2526_3,,2025.2.4,2026-02-18 11h10.51.851474 +0100,
vertical.xlsx,The target is tilted.,135,37,5,4,0,1,1,1,0,0,0,0,0,0,0,0,1,3,4,135,space,5.687290399999938,None,0,1,0.9049406999999974,None,space,2.0703002000000197,None,0,0,0,1,,,,,4,5,37,6,156.2163554,,,,,,,,,,,,,,,,,,,,,156.20120269999995,156.2163554,156.69993039999997,156.70555130000002,156.72730339999998,157.6333025,,,,,157.63345200000003,157.64867089999996,157.84841070000004,157.83228269999995,156.72730339999998,,,,,,,,0,1,0.9049406999999974,None,,,,,,,, 841,22,M,L,2026-02-18_11h10.50.960,VisualSearch_2526_3,,2025.2.4,2026-02-18 11h10.51.851474 +0100,
vertical.xlsx,The target is tilted.,135,38,6,4,0,1,1,1,1,1,1,1,1,1,1,1,1,11,12,135,space,5.687290399999938,None,0,1,1.0929882000000362,None,space,2.0703002000000197,None,0,0,0,1,,,,,4,6,38,4,157.84841070000004,,,,,,,,,,,,,,,,,,,,,157.83269159999998,157.84841070000004,158.33282240000005,158.33842489999995,158.36133110000003,159.46601580000004,,,,,159.46624529999997,159.48143189999996,159.68188180000004,159.66550400000006,158.36133110000003,,,,,,,,0,1,1.0929882000000362,None,,,,,,,, 841,22,M,L,2026-02-18_11h10.50.960,VisualSearch_2526_3,,2025.2.4,2026-02-18 11h10.51.851474 +0100,
vertical.xlsx,The target is tilted.,135,39,7,4,1,1,1,1,1,1,1,1,0,0,0,0,0,7,8,135,space,5.687290399999938,None,1,1,0.7501369999999952,None,space,2.0703002000000197,None,0,0,0,1,,,,,4,7,39,1,159.68188180000004,,,,,,,,,,,,,,,,,,,,,159.66633690000003,159.68188180000004,160.1653718,160.17088720000004,160.19236869999997,160.9485763,,,,,160.94873770000004,160.96424530000002,161.16439330000003,161.14876749999996,160.19236869999997,,,,,,,,1,1,0.7501369999999952,None,,,,,,,, 841,22,M,L,2026-02-18_11h10.50.960,VisualSearch_2526_3,,2025.2.4,2026-02-18 11h10.51.851474 +0100,
vertical.xlsx,The target is tilted.,135,40,0,5,0,1,1,1,1,1,1,1,1,1,1,1,1,11,12,135,space,5.687290399999938,None,0,1,1.3635176000000229,None,space,2.0703002000000197,None,0,0,0,1,,,,,5,0,40,4,161.16439330000003,,,,,,,,,,,,,,,,,,,,,161.1496217,161.16439330000003,161.6485775,161.65413409999996,161.67183620000003,163.04819380000004,,,,,163.04842870000004,163.06356230000006,163.26400660000002,163.24791270000003,161.67183620000003,,,,,,,,0,1,1.3635176000000229,None,,,,,,,, 841,22,M,L,2026-02-18_11h10.50.960,VisualSearch_2526_3,,2025.2.4,2026-02-18 11h10.51.851474 +0100,
vertical.xlsx,The target is tilted.,135,41,1,5,1,0,0,0,0,0,0,0,0,0,0,0,0,0,1,135,space,5.687290399999938,None,1,1,0.503080700000055,None,space,2.0703002000000197,None,0,0,0,1,,,,,5,1,41,3,163.26400660000002,,,,,,,,,,,,,,,,,,,,,163.24874090000003,163.26400660000002,163.74784020000004,163.7538558,163.77595570000005,164.2814012,,,,,164.2817258,164.29652480000004,164.49685050000005,164.48075889999996,163.77595570000005,,,,,,,,1,1,0.503080700000055,None,,,,,,,, 841,22,M,L,2026-02-18_11h10.50.960,VisualSearch_2526_3,,2025.2.4,2026-02-18 11h10.51.851474 +0100,
vertical.xlsx,The target is tilted.,135,42,2,5,0,0,0,0,0,0,0,0,0,0,0,0,1,1,1,135,space,5.687290399999938,None,0,1,0.6138891000000513,None,space,2.0703002000000197,None,0,0,0,1,,,,,5,2,42,7,164.49685050000005,,,,,,,,,,,,,,,,,,,,,164.48161170000003,164.49685050000005,164.9809206,164.98651719999998,165.0083389,165.63054350000004,,,,,165.6307001,165.64587340000003,165.8464877,165.83053759999996,165.0083389,,,,,,,,0,1,0.6138891000000513,None,,,,,,,, 841,22,M,L,2026-02-18_11h10.50.960,VisualSearch_2526_3,,2025.2.4,2026-02-18 11h10.51.851474 +0100,
vertical.xlsx,The target is tilted.,135,43,3,5,0,1,1,1,0,0,0,0,0,0,0,0,1,3,4,135,space,5.687290399999938,None,0,1,0.7262975999999526,None,space,2.0703002000000197,None,0,0,0,1,,,,,5,3,43,6,165.8464877,,,,,,,,,,,,,,,,,,,,,165.8313564,165.8464877,166.3303396,166.3358978,166.35755570000003,167.09603130000005,,,,,167.09615210000004,167.11227259999998,,167.296377,166.35755570000003,,,,,,,,0,1,0.7262975999999526,None,,,,,,,, 841,22,M,L,2026-02-18_11h10.50.960,VisualSearch_2526_3,,2025.2.4,2026-02-18 11h10.51.851474 +0100,
vertical.xlsx,The target is tilted.,135,44,4,5,1,1,1,1,1,1,1,1,1,1,1,1,0,11,12,135,space,5.687290399999938,None,1,1,1.0199029000000337,None,space,2.0703002000000197,None,0,0,0,1,,,,,5,4,44,0,167.31277169999998,,,,,,,,,,,,,,,,,,,,,167.29726389999996,167.31277169999998,167.7964554,167.80197380000004,167.82351630000005,168.84677039999997,,,,,168.84703230000002,168.86179719999996,169.06189259999996,169.04576069999996,167.82351630000005,,,,,,,,1,1,1.0199029000000337,None,,,,,,,, 841,22,M,L,2026-02-18_11h10.50.960,VisualSearch_2526_3,,2025.2.4,2026-02-18 11h10.51.851474 +0100,
vertical.xlsx,The target is tilted.,135,45,5,5,0,1,1,1,1,1,1,1,0,0,0,0,1,7,8,135,space,5.687290399999938,None,0,1,1.3804433000000245,None,space,2.0703002000000197,None,0,0,0,1,,,,,5,5,45,5,169.06189259999996,,,,,,,,,,,,,,,,,,,,,169.04660030000002,169.06189259999996,169.54574509999998,169.55141760000004,169.57279559999995,170.9621687,,,,,170.96237050000002,170.97741919999999,171.17811040000004,171.16210850000004,169.57279559999995,,,,,,,,0,1,1.3804433000000245,None,,,,,,,, 841,22,M,L,2026-02-18_11h10.50.960,VisualSearch_2526_3,,2025.2.4,2026-02-18 11h10.51.851474 +0100,
vertical.xlsx,The target is tilted.,135,46,6,5,1,1,1,1,0,0,0,0,0,0,0,0,0,3,4,135,space,5.687290399999938,None,1,1,0.5879105999999865,None,space,2.0703002000000197,None,0,0,0,1,,,,,5,6,46,2,171.17811040000004,,,,,,,,,,,,,,,,,,,,,171.16294919999996,171.17811040000004,171.6619812,171.6674656,171.68833800000004,172.2788289,,,,,172.2790394,172.29365610000002,172.49441160000003,172.47823549999998,171.68833800000004,,,,,,,,1,1,0.5879105999999865,None,,,,,,,, 841,22,M,L,2026-02-18_11h10.50.960,VisualSearch_2526_3,,2025.2.4,2026-02-18 11h10.51.851474 +0100,
vertical.xlsx,The target is tilted.,135,47,7,5,1,1,1,1,1,1,1,1,0,0,0,0,0,7,8,135,space,5.687290399999938,None,1,1,0.8700847000000067,None,space,2.0703002000000197,None,0,0,0,1,,,,,5,7,47,1,172.49441160000003,,,,,,,,,,,,,,,,,,,,,172.47906809999995,172.49441160000003,172.97825260000002,172.9838201,173.00534919999996,173.87827660000005,,,,,173.87847339999996,173.89333420000003,174.09383079999998,174.07779719999996,173.00534919999996,,,,,,,,1,1,0.8700847000000067,None,,,,,,,, 841,22,M,L,2026-02-18_11h10.50.960,VisualSearch_2526_3,,2025.2.4,2026-02-18 11h10.51.851474 +0100,
vertical.xlsx,The target is tilted.,135,48,0,6,1,1,1,1,0,0,0,0,0,0,0,0,0,3,4,135,space,5.687290399999938,None,1,1,0.7783820999999307,None,space,2.0703002000000197,None,0,0,0,1,,,,,6,0,48,2,174.09383079999998,,,,,,,,,,,,,,,,,,,,,174.07860370000003,174.09383079999998,174.5775317,174.5821224,174.59312869999997,175.37794229999997,,,,,175.37819160000004,175.39316770000005,175.5934009,175.57718810000006,174.59312869999997,,,,,,,,1,1,0.7783820999999307,None,,,,,,,, 841,22,M,L,2026-02-18_11h10.50.960,VisualSearch_2526_3,,2025.2.4,2026-02-18 11h10.51.851474 +0100,
vertical.xlsx,The target is tilted.,135,49,1,6,1,0,0,0,0,0,0,0,0,0,0,0,0,0,1,135,space,5.687290399999938,None,1,1,0.526668299999983,None,space,2.0703002000000197,None,0,0,0,1,,,,,6,1,49,3,175.5934009,,,,,,,,,,,,,,,,,,,,,175.57803560000002,175.5934009,176.07709509999995,176.08261219999997,176.10424899999998,176.64292020000005,,,,,176.64304100000004,176.6589699,176.85963089999996,176.84316109999997,176.10424899999998,,,,,,,,1,1,0.526668299999983,None,,,,,,,, 841,22,M,L,2026-02-18_11h10.50.960,VisualSearch_2526_3,,2025.2.4,2026-02-18 11h10.51.851474 +0100,
vertical.xlsx,The target is tilted.,135,50,2,6,0,0,0,0,0,0,0,0,0,0,0,0,1,1,1,135,space,5.687290399999938,None,0,1,0.5649683999999979,None,space,2.0703002000000197,None,0,0,0,1,,,,,6,2,50,7,176.85963089999996,,,,,,,,,,,,,,,,,,,,,176.8440799,176.85963089999996,177.3433592,177.34884820000002,177.36617920000003,177.94344290000004,,,,,177.94365689999995,177.95844539999996,178.15925260000006,178.14320340000006,177.36617920000003,,,,,,,,0,1,0.5649683999999979,None,,,,,,,, 841,22,M,L,2026-02-18_11h10.50.960,VisualSearch_2526_3,,2025.2.4,2026-02-18 11h10.51.851474 +0100,
vertical.xlsx,The target is tilted.,135,51,3,6,0,1,1,1,1,1,1,1,0,0,0,0,1,7,8,135,space,5.687290399999938,None,0,1,1.5734345000000758,None,space,2.0703002000000197,None,0,0,0,1,,,,,6,3,51,5,178.15925260000006,,,,,,,,,,,,,,,,,,,,,178.14406399999996,178.15925260000006,178.64300160000005,178.6486326999999,178.66999479999993,180.25936809999996,,,,,180.2596147999999,180.27465259999997,180.4747513000001,180.4588609000001,178.66999479999993,,,,,,,,0,1,1.5734345000000758,None,,,,,,,, 841,22,M,L,2026-02-18_11h10.50.960,VisualSearch_2526_3,,2025.2.4,2026-02-18 11h10.51.851474 +0100,
vertical.xlsx,The target is tilted.,135,52,4,6,0,1,1,1,0,0,0,0,0,0,0,0,1,3,4,135,space,5.687290399999938,None,0,1,0.9973849999998947,None,space,2.0703002000000197,None,0,0,0,1,,,,,6,4,52,6,180.4747513000001,,,,,,,,,,,,,,,,,,,,,180.45970709999995,180.4747513000001,180.95865530000003,180.96419120000007,180.9861606999999,181.9924953000001,,,,,181.99275309999996,182.00746790000005,182.20775089999995,182.19186219999995,180.9861606999999,,,,,,,,0,1,0.9973849999998947,None,,,,,,,, 841,22,M,L,2026-02-18_11h10.50.960,VisualSearch_2526_3,,2025.2.4,2026-02-18 11h10.51.851474 +0100,
vertical.xlsx,The target is tilted.,135,53,5,6,0,1,1,1,1,1,1,1,1,1,1,1,1,11,12,135,space,5.687290399999938,None,0,1,1.2824691000000712,None,space,2.0703002000000197,None,0,0,0,1,,,,,6,5,53,4,182.20775089999995,,,,,,,,,,,,,,,,,,,,,182.1926686999999,182.20775089999995,182.69135399999993,182.6970116000001,182.71871350000004,184.0084488000001,,,,,184.00869999999998,184.02312300000006,184.22392849999994,184.2078212,182.71871350000004,,,,,,,,0,1,1.2824691000000712,None,,,,,,,, 841,22,M,L,2026-02-18_11h10.50.960,VisualSearch_2526_3,,2025.2.4,2026-02-18 11h10.51.851474 +0100,
vertical.xlsx,The target is tilted.,135,54,6,6,1,1,1,1,1,1,1,1,1,1,1,1,0,11,12,135,space,5.687290399999938,None,1,1,1.0216946999998981,None,space,2.0703002000000197,None,0,0,0,1,,,,,6,6,54,0,184.22392849999994,,,,,,,,,,,,,,,,,,,,,184.2086739,184.22392849999994,184.70752679999998,184.7139886000001,184.7358448000001,185.7734709,,,,,185.77361940000003,185.78928209999992,185.98996240000008,185.9737773999999,184.7358448000001,,,,,,,,1,1,1.0216946999998981,None,,,,,,,, 841,22,M,L,2026-02-18_11h10.50.960,VisualSearch_2526_3,,2025.2.4,2026-02-18 11h10.51.851474 +0100,
vertical.xlsx,The target is tilted.,135,55,7,6,1,1,1,1,1,1,1,1,0,0,0,0,0,7,8,135,space,5.687290399999938,None,1,1,1.5494731999999658,None,space,2.0703002000000197,None,0,0,0,1,,,,,6,7,55,1,185.98996240000008,,,,,,,,,,,,,,,,,,,,,185.97463570000002,185.98996240000008,186.4734979000001,186.4790021,186.5001661,188.05713860000003,,,,,188.05740460000004,188.07210999999995,188.27243699999997,188.25626610000006,186.5001661,,,,,,,,1,1,1.5494731999999658,None,,,,,,,, 841,22,M,L,2026-02-18_11h10.50.960,VisualSearch_2526_3,,2025.2.4,2026-02-18 11h10.51.851474 +0100,
vertical.xlsx,The target is tilted.,135,56,0,7,0,1,1,1,0,0,0,0,0,0,0,0,1,3,4,135,space,5.687290399999938,None,0,1,0.6523067999999057,None,space,2.0703002000000197,None,0,0,0,1,,,,,7,0,56,6,188.27243699999997,,,,,,,,,,,,,,,,,,,,,188.2570789,188.27243699999997,188.75611990000004,188.76203169999997,188.77584379999996,189.4394668000001,,,,,189.43968970000003,189.45487659999992,189.65515080000011,189.63939489999996,188.77584379999996,,,,,,,,0,1,0.6523067999999057,None,,,,,,,, 841,22,M,L,2026-02-18_11h10.50.960,VisualSearch_2526_3,,2025.2.4,2026-02-18 11h10.51.851474 +0100,
vertical.xlsx,The target is tilted.,135,57,1,7,1,1,1,1,1,1,1,1,1,1,1,1,0,11,12,135,space,5.687290399999938,None,1,1,1.2970381999998608,None,space,2.0703002000000197,None,0,0,0,1,,,,,7,1,57,0,189.65515080000011,,,,,,,,,,,,,,,,,,,,,189.6402271999999,189.65515080000011,190.13934060000008,190.1451224000001,190.16699060000008,191.47268539999993,,,,,191.47294999999997,191.48768890000008,191.68805970000005,191.67210190000003,190.16699060000008,,,,,,,,1,1,1.2970381999998608,None,,,,,,,, 841,22,M,L,2026-02-18_11h10.50.960,VisualSearch_2526_3,,2025.2.4,2026-02-18 11h10.51.851474 +0100,
vertical.xlsx,The target is tilted.,135,58,2,7,1,1,1,1,0,0,0,0,0,0,0,0,0,3,4,135,space,5.687290399999938,None,1,1,0.7179986000001009,None,space,2.0703002000000197,None,0,0,0,1,,,,,7,2,58,2,191.68805970000005,,,,,,,,,,,,,,,,,,,,,191.6729051000001,191.68805970000005,192.1719213,192.17823209999995,192.19959099999994,192.92187539999998,,,,,192.92210590000002,192.93727449999994,193.13765490000003,193.12164900000005,192.19959099999994,,,,,,,,1,1,0.7179986000001009,None,,,,,,,, 841,22,M,L,2026-02-18_11h10.50.960,VisualSearch_2526_3,,2025.2.4,2026-02-18 11h10.51.851474 +0100,
vertical.xlsx,The target is tilted.,135,59,3,7,1,0,0,0,0,0,0,0,0,0,0,0,0,0,1,135,space,5.687290399999938,None,1,1,0.4243189999999686,None,space,2.0703002000000197,None,0,0,0,1,,,,,7,3,59,3,193.13765490000003,,,,,,,,,,,,,,,,,,,,,193.12248379999994,193.13765490000003,193.6209823999999,193.6246577999999,193.63933469999995,194.07192730000008,,,,,194.07214710000005,194.0867985000001,194.2872797000001,194.2711654000001,193.63933469999995,,,,,,,,1,1,0.4243189999999686,None,,,,,,,, 841,22,M,L,2026-02-18_11h10.50.960,VisualSearch_2526_3,,2025.2.4,2026-02-18 11h10.51.851474 +0100,
vertical.xlsx,The target is tilted.,135,60,4,7,1,1,1,1,1,1,1,1,0,0,0,0,0,7,8,135,space,5.687290399999938,None,1,1,0.6666365999999471,None,space,2.0703002000000197,None,0,0,0,1,,,,,7,4,60,1,194.2872797000001,,,,,,,,,,,,,,,,,,,,,194.27203659999998,194.2872797000001,194.77105399999994,194.77661739999996,194.79843870000002,195.4711122,,,,,195.47135390000005,195.48607640000012,195.6867195000001,195.67072689999998,194.79843870000002,,,,,,,,1,1,0.6666365999999471,None,,,,,,,, 841,22,M,L,2026-02-18_11h10.50.960,VisualSearch_2526_3,,2025.2.4,2026-02-18 11h10.51.851474 +0100,
vertical.xlsx,The target is tilted.,135,61,5,7,0,1,1,1,1,1,1,1,0,0,0,0,1,7,8,135,space,5.687290399999938,None,0,1,1.471736299999975,None,space,2.0703002000000197,None,0,0,0,1,,,,,7,5,61,5,195.6867195000001,,,,,,,,,,,,,,,,,,,,,195.67153270000006,195.6867195000001,196.17050159999997,196.17576330000009,196.18613199999993,197.6701451,,,,,197.6703662000001,197.68563740000002,197.88597059999995,197.87009010000008,196.18613199999993,,,,,,,,0,1,1.471736299999975,None,,,,,,,, 841,22,M,L,2026-02-18_11h10.50.960,VisualSearch_2526_3,,2025.2.4,2026-02-18 11h10.51.851474 +0100,
vertical.xlsx,The target is tilted.,135,62,6,7,0,1,1,1,1,1,1,1,1,1,1,1,1,11,12,135,space,5.687290399999938,None,0,1,1.3075825000000805,None,space,2.0703002000000197,None,0,0,0,1,,,,,7,6,62,4,197.88597059999995,,,,,,,,,,,,,,,,,,,,,197.87094009999998,197.88597059999995,198.3696928999999,198.37534319999997,198.3976507000001,199.7194545000001,,,,,199.7196752000001,199.73487280000006,199.93503479999993,199.91931869999996,198.3976507000001,,,,,,,,0,1,1.3075825000000805,None,,,,,,,, 841,22,M,L,2026-02-18_11h10.50.960,VisualSearch_2526_3,,2025.2.4,2026-02-18 11h10.51.851474 +0100,
vertical.xlsx,The target is tilted.,135,63,7,7,0,0,0,0,0,0,0,0,0,0,0,0,1,1,1,135,space,5.687290399999938,None,0,1,0.48278400000003785,None,space,2.0703002000000197,None,0,0,0,1,,,,,7,7,63,7,199.93503479999993,,,,,,,,,,,,,,,,,,,,,199.9201882000001,199.93503479999993,200.41927309999994,200.42486420000012,200.44641650000005,200.9361338,,,,,200.9363864999999,200.95120880000002,201.1516762,201.13543549999997,200.44641650000005,,,,,,,,0,1,0.48278400000003785,None,,,,,,,, 841,22,M,L,2026-02-18_11h10.50.960,VisualSearch_2526_3,,2025.2.4,2026-02-18 11h10.51.851474 +0100,
vertical.xlsx,The target is tilted.,135,64,0,8,1,1,1,1,1,1,1,1,1,1,1,1,0,11,12,135,space,5.687290399999938,None,1,1,0.7902834999999868,None,space,2.0703002000000197,None,0,0,0,1,,,,,8,0,64,0,201.1516762,,,,,,,,,,,,,,,,,,,,,201.13629600000002,201.1516762,201.6354955999999,201.64083949999997,201.66160559999992,202.46779219999996,,,,,202.46791100000007,202.48418649999996,,202.66818550000005,201.66160559999992,,,,,,,,1,1,0.7902834999999868,None,,,,,,,, 841,22,M,L,2026-02-18_11h10.50.960,VisualSearch_2526_3,,2025.2.4,2026-02-18 11h10.51.851474 +0100,
vertical.xlsx,The target is tilted.,135,65,1,8,0,1,1,1,1,1,1,1,0,0,0,0,1,7,8,135,space,5.687290399999938,None,0,1,1.625172799999973,None,space,2.0703002000000197,None,0,0,0,1,,,,,8,1,65,5,202.68450380000002,,,,,,,,,,,,,,,,,,,,,202.66904340000008,202.68450380000002,203.16823340000008,203.1737128000001,203.19498069999997,204.83371010000008,,,,,204.83382930000005,204.8497708000001,,205.0340847000001,203.19498069999997,,,,,,,,0,1,1.625172799999973,None,,,,,,,, 841,22,M,L,2026-02-18_11h10.50.960,VisualSearch_2526_3,,2025.2.4,2026-02-18 11h10.51.851474 +0100,
vertical.xlsx,The target is tilted.,135,66,2,8,0,1,1,1,0,0,0,0,0,0,0,0,1,3,4,135,space,5.687290399999938,None,0,1,0.6431459999998879,None,space,2.0703002000000197,None,0,0,0,1,,,,,8,2,66,6,205.05040180000003,,,,,,,,,,,,,,,,,,,,,205.0349660999999,205.05040180000003,205.5338645999999,205.53941240000006,205.56080310000004,206.2173489999999,,,,,206.21756790000006,206.23292950000007,206.43330189999995,206.41720169999996,205.56080310000004,,,,,,,,0,1,0.6431459999998879,None,,,,,,,, 841,22,M,L,2026-02-18_11h10.50.960,VisualSearch_2526_3,,2025.2.4,2026-02-18 11h10.51.851474 +0100,
vertical.xlsx,The target is tilted.,135,67,3,8,1,1,1,1,0,0,0,0,0,0,0,0,0,3,4,135,space,5.687290399999938,None,1,1,0.5850794000000406,None,space,2.0703002000000197,None,0,0,0,1,,,,,8,3,67,2,206.43330189999995,,,,,,,,,,,,,,,,,,,,,206.41800139999998,206.43330189999995,206.91703489999998,206.92211570000006,206.93293830000005,207.53370370000005,,,,,207.53392330000008,207.5491091,207.74956839999993,207.7334508,206.93293830000005,,,,,,,,1,1,0.5850794000000406,None,,,,,,,, 841,22,M,L,2026-02-18_11h10.50.960,VisualSearch_2526_3,,2025.2.4,2026-02-18 11h10.51.851474 +0100,
vertical.xlsx,The target is tilted.,135,68,4,8,1,1,1,1,1,1,1,1,0,0,0,0,0,7,8,135,space,5.687290399999938,None,1,1,0.6205704999999853,None,space,2.0703002000000197,None,0,0,0,1,,,,,8,4,68,1,207.74956839999993,,,,,,,,,,,,,,,,,,,,,207.73426929999994,207.74956839999993,208.23276599999997,208.23812329999998,208.25862300000006,208.8833264000001,,,,,208.88352569999995,208.89856010000005,209.0991239000001,209.08304940000005,208.25862300000006,,,,,,,,1,1,0.6205704999999853,None,,,,,,,, 841,22,M,L,2026-02-18_11h10.50.960,VisualSearch_2526_3,,2025.2.4,2026-02-18 11h10.51.851474 +0100,
vertical.xlsx,The target is tilted.,135,69,5,8,0,1,1,1,1,1,1,1,1,1,1,1,1,11,12,135,space,5.687290399999938,None,0,1,1.758471899999904,None,space,2.0703002000000197,None,0,0,0,1,,,,,8,5,69,4,209.0991239000001,,,,,,,,,,,,,,,,,,,,,209.08386000000007,209.0991239000001,209.58285609999996,209.5883281,209.6096685000001,211.3824570999999,,,,,211.38267699999994,211.3978211,211.59817540000006,211.58211829999993,209.6096685000001,,,,,,,,0,1,1.758471899999904,None,,,,,,,, 841,22,M,L,2026-02-18_11h10.50.960,VisualSearch_2526_3,,2025.2.4,2026-02-18 11h10.51.851474 +0100,
vertical.xlsx,The target is tilted.,135,70,6,8,0,0,0,0,0,0,0,0,0,0,0,0,1,1,1,135,space,5.687290399999938,None,0,1,0.6745788999999149,None,space,2.0703002000000197,None,0,0,0,1,,,,,8,6,70,7,211.59817540000006,,,,,,,,,,,,,,,,,,,,,211.5830463000001,211.59817540000006,212.08204360000002,212.08745409999995,212.10863030000007,212.79851930000007,,,,,212.79873510000004,212.81392519999997,213.01431949999994,212.99836229999994,212.10863030000007,,,,,,,,0,1,0.6745788999999149,None,,,,,,,, 841,22,M,L,2026-02-18_11h10.50.960,VisualSearch_2526_3,,2025.2.4,2026-02-18 11h10.51.851474 +0100,
vertical.xlsx,The target is tilted.,135,71,7,8,1,0,0,0,0,0,0,0,0,0,0,0,0,0,1,135,space,5.687290399999938,None,1,1,0.6550437000000784,None,space,2.0703002000000197,None,0,0,0,1,,,,,8,7,71,3,213.01431949999994,,,,,,,,,,,,,,,,,,,,,212.99926360000006,213.01431949999994,213.4982799999999,213.5038126999999,213.52500040000007,214.18171610000002,,,,,214.18190760000005,214.19664640000008,214.39734450000003,214.38133219999997,213.52500040000007,,,,,,,,1,1,0.6550437000000784,None,,,,,,,, 841,22,M,L,2026-02-18_11h10.50.960,VisualSearch_2526_3,,2025.2.4,2026-02-18 11h10.51.851474 +0100,
vertical.xlsx,The target is tilted.,135,72,0,9,0,0,0,0,0,0,0,0,0,0,0,0,1,1,1,135,space,5.687290399999938,None,0,1,0.6609162000002016,None,space,2.0703002000000197,None,0,0,0,1,,,,,9,0,72,7,214.39734450000003,,,,,,,,,,,,,,,,,,,,,214.38220209999997,214.39734450000003,214.88104869999995,214.88643609999997,214.90785190000008,215.5811321,,,,,215.58136030000003,215.5964444,215.79687290000004,215.78088730000002,214.90785190000008,,,,,,,,0,1,0.6609162000002016,None,,,,,,,, 841,22,M,L,2026-02-18_11h10.50.960,VisualSearch_2526_3,,2025.2.4,2026-02-18 11h10.51.851474 +0100,
vertical.xlsx,The target is tilted.,135,73,1,9,1,1,1,1,1,1,1,1,1,1,1,1,0,11,12,135,space,5.687290399999938,None,1,1,0.6775378999998338,None,space,2.0703002000000197,None,0,0,0,1,,,,,9,1,73,0,215.79687290000004,,,,,,,,,,,,,,,,,,,,,215.7816787999999,215.79687290000004,216.28067550000003,216.2860919000001,216.30723380000006,216.99639319999994,,,,,216.99651219999998,217.0124004999999,,217.19671729999993,216.30723380000006,,,,,,,,1,1,0.6775378999998338,None,,,,,,,, 841,22,M,L,2026-02-18_11h10.50.960,VisualSearch_2526_3,,2025.2.4,2026-02-18 11h10.51.851474 +0100,
vertical.xlsx,The target is tilted.,135,74,2,9,1,1,1,1,0,0,0,0,0,0,0,0,0,3,4,135,space,5.687290399999938,None,1,1,0.6713219999999183,None,space,2.0703002000000197,None,0,0,0,1,,,,,9,2,74,2,217.21309570000005,,,,,,,,,,,,,,,,,,,,,217.1977387999999,217.21309570000005,217.6959920999999,217.6988437000001,217.71220469999992,218.39654159999998,,,,,218.39677300000005,218.4118671,218.61261819999993,218.5963883999999,217.71220469999992,,,,,,,,1,1,0.6713219999999183,None,,,,,,,, 841,22,M,L,2026-02-18_11h10.50.960,VisualSearch_2526_3,,2025.2.4,2026-02-18 11h10.51.851474 +0100,
vertical.xlsx,The target is tilted.,135,75,3,9,0,1,1,1,1,1,1,1,1,1,1,1,1,11,12,135,space,5.687290399999938,None,0,1,1.6491753000000244,None,space,2.0703002000000197,None,0,0,0,1,,,,,9,3,75,4,218.61261819999993,,,,,,,,,,,,,,,,,,,,,218.5972875000001,218.61261819999993,219.09626889999993,219.10171290000005,219.12321110000005,220.7798285,,,,,220.7800570999999,220.7947309,220.99464460000002,220.97908889999997,219.12321110000005,,,,,,,,0,1,1.6491753000000244,None,,,,,,,, 841,22,M,L,2026-02-18_11h10.50.960,VisualSearch_2526_3,,2025.2.4,2026-02-18 11h10.51.851474 +0100,
vertical.xlsx,The target is tilted.,135,76,4,9,0,1,1,1,0,0,0,0,0,0,0,0,1,3,4,135,space,5.687290399999938,None,0,1,0.6497014999999919,None,space,2.0703002000000197,None,0,0,0,1,,,,,9,4,76,6,220.99464460000002,,,,,,,,,,,,,,,,,,,,,220.9799870999999,220.99464460000002,221.47805830000004,221.48083039999995,221.49435959999994,222.14597629999992,,,,,222.14619340000002,222.16100760000006,222.36108980000006,222.3450478000001,221.49435959999994,,,,,,,,0,1,0.6497014999999919,None,,,,,,,, 841,22,M,L,2026-02-18_11h10.50.960,VisualSearch_2526_3,,2025.2.4,2026-02-18 11h10.51.851474 +0100,
vertical.xlsx,The target is tilted.,135,77,5,9,1,0,0,0,0,0,0,0,0,0,0,0,0,0,1,135,space,5.687290399999938,None,1,1,0.6983433999998852,None,space,2.0703002000000197,None,0,0,0,1,,,,,9,5,77,3,222.36108980000006,,,,,,,,,,,,,,,,,,,,,222.34592439999994,222.36108980000006,222.8452277,222.8506549,222.8727623000001,223.5783459999999,,,,,223.5785614,223.5938473,223.79432140000006,223.77784929999996,222.8727623000001,,,,,,,,1,1,0.6983433999998852,None,,,,,,,, 841,22,M,L,2026-02-18_11h10.50.960,VisualSearch_2526_3,,2025.2.4,2026-02-18 11h10.51.851474 +0100,
vertical.xlsx,The target is tilted.,135,78,6,9,0,1,1,1,1,1,1,1,0,0,0,0,1,7,8,135,space,5.687290399999938,None,0,1,0.9894254000000728,None,space,2.0703002000000197,None,0,0,0,1,,,,,9,6,78,5,223.79432140000006,,,,,,,,,,,,,,,,,,,,,223.7786804000001,223.79432140000006,224.2781295000001,224.28357070000004,224.30482799999993,225.31120829999998,,,,,225.31142499999999,225.32651090000002,225.52699760000007,225.51099729999999,224.30482799999993,,,,,,,,0,1,0.9894254000000728,None,,,,,,,, 841,22,M,L,2026-02-18_11h10.50.960,VisualSearch_2526_3,,2025.2.4,2026-02-18 11h10.51.851474 +0100,
vertical.xlsx,The target is tilted.,135,79,7,9,1,1,1,1,1,1,1,1,0,0,0,0,0,7,8,135,space,5.687290399999938,None,1,1,0.8123673000000053,None,space,2.0703002000000197,None,0,0,0,1,,,,,9,7,79,1,225.52699760000007,,,,,,,,,,,,,,,,,,,,,225.5119390000001,225.52699760000007,226.0108352000001,226.01545879999992,226.0265716,226.84377359999996,,,,,226.84392029999992,226.85926630000006,227.0598690999999,227.04382509999994,226.0265716,,,,,,,,1,1,0.8123673000000053,None,,,,,,,, 841,22,M,L,2026-02-18_11h10.50.960,VisualSearch_2526_3,,2025.2.4,2026-02-18 11h10.51.851474 +0100,
vertical.xlsx,The target is tilted.,135,80,0,10,1,1,1,1,1,1,1,1,0,0,0,0,0,7,8,135,space,5.687290399999938,None,1,1,0.8427563000000191,None,space,2.0703002000000197,None,0,0,0,1,,,,,10,0,80,1,227.0598690999999,,,,,,,,,,,,,,,,,,,,,227.0446101000001,227.0598690999999,227.54403280000008,227.54951139999991,227.5714581000001,228.4261471000001,,,,,228.42629109999996,228.4420750999999,228.6426914,228.6265153999999,227.5714581000001,,,,,,,,1,1,0.8427563000000191,None,,,,,,,, 841,22,M,L,2026-02-18_11h10.50.960,VisualSearch_2526_3,,2025.2.4,2026-02-18 11h10.51.851474 +0100,
vertical.xlsx,The target is tilted.,135,81,1,10,1,1,1,1,0,0,0,0,0,0,0,0,0,3,4,135,space,5.687290399999938,None,1,1,1.1266256999999769,None,space,2.0703002000000197,None,0,0,0,1,,,,,10,1,81,2,228.6426914,,,,,,,,,,,,,,,,,,,,,228.62743160000002,228.6426914,229.12640629999999,229.1314076,229.14233769999998,230.27663489999998,,,,,230.27685129999998,230.29134250000004,230.49163910000004,230.4756903000001,229.14233769999998,,,,,,,,1,1,1.1266256999999769,None,,,,,,,, 841,22,M,L,2026-02-18_11h10.50.960,VisualSearch_2526_3,,2025.2.4,2026-02-18 11h10.51.851474 +0100,
vertical.xlsx,The target is tilted.,135,82,2,10,1,0,0,0,0,0,0,0,0,0,0,0,0,0,1,135,space,5.687290399999938,None,1,1,0.6005638000001454,None,space,2.0703002000000197,None,0,0,0,1,,,,,10,2,82,3,230.49163910000004,,,,,,,,,,,,,,,,,,,,,230.47652159999996,230.49163910000004,230.9755747999999,230.98101039999995,231.0022361,231.6093196999999,,,,,231.60955619999993,231.62455710000006,231.82470460000002,231.8089452999999,231.0022361,,,,,,,,1,1,0.6005638000001454,None,,,,,,,, 841,22,M,L,2026-02-18_11h10.50.960,VisualSearch_2526_3,,2025.2.4,2026-02-18 11h10.51.851474 +0100,
vertical.xlsx,The target is tilted.,135,83,3,10,1,1,1,1,1,1,1,1,1,1,1,1,0,11,12,135,space,5.687290399999938,None,1,1,0.8762349999999515,None,space,2.0703002000000197,None,0,0,0,1,,,,,10,3,83,0,231.82470460000002,,,,,,,,,,,,,,,,,,,,,231.80975610000007,231.82470460000002,232.30882639999993,232.31440910000003,232.3357053000001,233.22553060000007,,,,,233.2258920999999,233.24056929999995,233.4411057000001,233.4250370000001,232.3357053000001,,,,,,,,1,1,0.8762349999999515,None,,,,,,,, 841,22,M,L,2026-02-18_11h10.50.960,VisualSearch_2526_3,,2025.2.4,2026-02-18 11h10.51.851474 +0100,
vertical.xlsx,The target is tilted.,135,84,4,10,0,1,1,1,1,1,1,1,0,0,0,0,1,7,8,135,space,5.687290399999938,None,0,1,1.3276166999999077,None,space,2.0703002000000197,None,0,0,0,1,,,,,10,4,84,5,233.4411057000001,,,,,,,,,,,,,,,,,,,,,233.42590460000008,233.4411057000001,233.92494550000004,233.93021080000005,233.95078879999994,235.29163540000002,,,,,235.29186390000007,235.3067337000001,235.50704430000008,235.49109099999998,233.95078879999994,,,,,,,,0,1,1.3276166999999077,None,,,,,,,, 841,22,M,L,2026-02-18_11h10.50.960,VisualSearch_2526_3,,2025.2.4,2026-02-18 11h10.51.851474 +0100,
vertical.xlsx,The target is tilted.,135,85,5,10,0,1,1,1,0,0,0,0,0,0,0,0,1,3,4,135,space,5.687290399999938,None,0,1,0.7332334999998693,None,space,2.0703002000000197,None,0,0,0,1,,,,,10,5,85,6,235.50704430000008,,,,,,,,,,,,,,,,,,,,,235.4918831000001,235.50704430000008,235.99032090000003,235.99332749999996,236.0078612000001,236.7584227000001,,,,,236.75863900000002,236.773143,236.9733253999999,236.9570927000001,236.0078612000001,,,,,,,,0,1,0.7332334999998693,None,,,,,,,, 841,22,M,L,2026-02-18_11h10.50.960,VisualSearch_2526_3,,2025.2.4,2026-02-18 11h10.51.851474 +0100,
vertical.xlsx,The target is tilted.,135,86,6,10,0,0,0,0,0,0,0,0,0,0,0,0,1,1,1,135,space,5.687290399999938,None,0,1,0.5922090999999909,None,space,2.0703002000000197,None,0,0,0,1,,,,,10,6,86,7,236.9733253999999,,,,,,,,,,,,,,,,,,,,,236.9579402999999,236.9733253999999,237.4570261,237.4624682,237.48389250000002,238.0907264000001,,,,,238.09096009999996,238.10610200000008,238.30606520000003,238.2901584,237.48389250000002,,,,,,,,0,1,0.5922090999999909,None,,,,,,,, 841,22,M,L,2026-02-18_11h10.50.960,VisualSearch_2526_3,,2025.2.4,2026-02-18 11h10.51.851474 +0100,
vertical.xlsx,The target is tilted.,135,87,7,10,0,1,1,1,1,1,1,1,1,1,1,1,1,11,12,135,space,5.687290399999938,None,0,1,1.5631859000000077,None,space,2.0703002000000197,None,0,0,0,1,,,,,10,7,87,4,238.30606520000003,,,,,,,,,,,,,,,,,,,,,238.29096040000002,238.30606520000003,238.78974030000006,238.79537949999997,238.81665499999997,240.38953129999993,,,,,240.3896759999999,240.40506889999995,240.60513890000004,240.5890995000001,238.81665499999997,,,,,,,,0,1,1.5631859000000077,None,,,,,,,, 841,22,M,L,2026-02-18_11h10.50.960,VisualSearch_2526_3,,2025.2.4,2026-02-18 11h10.51.851474 +0100,
vertical.xlsx,The target is tilted.,135,88,0,11,1,0,0,0,0,0,0,0,0,0,0,0,0,0,1,135,space,5.687290399999938,None,1,1,0.5438632000000325,None,space,2.0703002000000197,None,0,0,0,1,,,,,11,0,88,3,240.60513890000004,,,,,,,,,,,,,,,,,,,,,240.58990860000006,240.60513890000004,241.08914089999996,241.0944869000001,241.116492,241.67320159999997,,,,,241.67342210000004,241.68801380000002,241.8883365999999,241.8714521999999,241.116492,,,,,,,,1,1,0.5438632000000325,None,,,,,,,, 841,22,M,L,2026-02-18_11h10.50.960,VisualSearch_2526_3,,2025.2.4,2026-02-18 11h10.51.851474 +0100,
vertical.xlsx,The target is tilted.,135,89,1,11,1,1,1,1,0,0,0,0,0,0,0,0,0,3,4,135,space,5.687290399999938,None,1,1,0.5676765000000614,None,space,2.0703002000000197,None,0,0,0,1,,,,,11,1,89,2,241.8883365999999,,,,,,,,,,,,,,,,,,,,,241.8718861000001,241.8883365999999,242.37212779999993,242.37754230000007,242.39898469999991,242.9724890000001,,,,,242.97273729999995,242.98767140000007,243.18790810000007,243.17191949999994,242.39898469999991,,,,,,,,1,1,0.5676765000000614,None,,,,,,,, 841,22,M,L,2026-02-18_11h10.50.960,VisualSearch_2526_3,,2025.2.4,2026-02-18 11h10.51.851474 +0100,
vertical.xlsx,The target is tilted.,135,90,2,11,0,0,0,0,0,0,0,0,0,0,0,0,1,1,1,135,space,5.687290399999938,None,0,1,0.5732456999999158,None,space,2.0703002000000197,None,0,0,0,1,,,,,11,2,90,7,243.18790810000007,,,,,,,,,,,,,,,,,,,,,243.17278139999996,243.18790810000007,243.6717640999999,243.6772976000001,243.69883949999996,244.28877210000007,,,,,244.28903150000008,244.30427029999998,244.50416630000007,244.4879623999999,243.69883949999996,,,,,,,,0,1,0.5732456999999158,None,,,,,,,, 841,22,M,L,2026-02-18_11h10.50.960,VisualSearch_2526_3,,2025.2.4,2026-02-18 11h10.51.851474 +0100,
vertical.xlsx,The target is tilted.,135,91,3,11,0,1,1,1,1,1,1,1,0,0,0,0,1,7,8,135,space,5.687290399999938,None,0,1,1.6050720000000638,None,space,2.0703002000000197,None,0,0,0,1,,,,,11,3,91,5,244.50416630000007,,,,,,,,,,,,,,,,,,,,,244.48883560000002,244.50416630000007,244.9879012,244.99343869999996,245.01417860000004,246.6213967,,,,,246.6216137,246.63640739999994,246.83670590000008,246.82073320000006,245.01417860000004,,,,,,,,0,1,1.6050720000000638,None,,,,,,,, 841,22,M,L,2026-02-18_11h10.50.960,VisualSearch_2526_3,,2025.2.4,2026-02-18 11h10.51.851474 +0100,
vertical.xlsx,The target is tilted.,135,92,4,11,0,1,1,1,0,0,0,0,0,0,0,0,1,3,4,135,space,5.687290399999938,None,0,1,0.6747542000000522,None,space,2.0703002000000197,None,0,0,0,1,,,,,11,4,92,6,246.83670590000008,,,,,,,,,,,,,,,,,,,,,246.82155049999994,246.83670590000008,247.32054419999997,247.3259655999999,247.34842949999995,248.0382476000001,,,,,248.03849260000004,248.0529577000001,248.25291479999999,248.23655100000008,247.34842949999995,,,,,,,,0,1,0.6747542000000522,None,,,,,,,, 841,22,M,L,2026-02-18_11h10.50.960,VisualSearch_2526_3,,2025.2.4,2026-02-18 11h10.51.851474 +0100,
vertical.xlsx,The target is tilted.,135,93,5,11,0,1,1,1,1,1,1,1,1,1,1,1,1,11,12,135,space,5.687290399999938,None,0,1,1.3514424999998482,None,space,2.0703002000000197,None,0,0,0,1,,,,,11,5,93,4,248.25291479999999,,,,,,,,,,,,,,,,,,,,,248.23739390000003,248.25291479999999,248.73666719999994,248.74200439999993,248.7627088999999,250.12005420000003,,,,,250.12030310000011,250.13537250000002,250.33551690000002,250.31948150000005,248.7627088999999,,,,,,,,0,1,1.3514424999998482,None,,,,,,,, 841,22,M,L,2026-02-18_11h10.50.960,VisualSearch_2526_3,,2025.2.4,2026-02-18 11h10.51.851474 +0100,
vertical.xlsx,The target is tilted.,135,94,6,11,1,1,1,1,1,1,1,1,0,0,0,0,0,7,8,135,space,5.687290399999938,None,1,1,1.316744299999982,None,space,2.0703002000000197,None,0,0,0,1,,,,,11,6,94,1,250.33551690000002,,,,,,,,,,,,,,,,,,,,,250.3204336,250.33551690000002,250.81938389999993,250.82559559999993,250.8467887999999,252.16923379999992,,,,,252.16944890000002,252.18478519999996,252.3848188999999,252.36889080000003,250.8467887999999,,,,,,,,1,1,1.316744299999982,None,,,,,,,, 841,22,M,L,2026-02-18_11h10.50.960,VisualSearch_2526_3,,2025.2.4,2026-02-18 11h10.51.851474 +0100,
vertical.xlsx,The target is tilted.,135,95,7,11,1,1,1,1,1,1,1,1,1,1,1,1,0,11,12,135,space,5.687290399999938,None,1,1,1.398454700000002,None,space,2.0703002000000197,None,0,0,0,1,,,,,11,7,95,0,252.3848188999999,,,,,,,,,,,,,,,,,,,,,252.3697029000001,252.3848188999999,252.8687251,252.8741467000001,252.89625639999997,254.3013717,,,,,254.3015274999999,254.31698240000003,254.5174806000001,254.5011194,252.89625639999997,,,,,,,,1,1,1.398454700000002,None,,,,,,,, 841,22,M,L,2026-02-18_11h10.50.960,VisualSearch_2526_3,,2025.2.4,2026-02-18 11h10.51.851474 +0100,
vertical.xlsx,The target is tilted.,135,96,0,12,1,1,1,1,1,1,1,1,0,0,0,0,0,7,8,135,space,5.687290399999938,None,1,1,0.9764551999999185,None,space,2.0703002000000197,None,0,0,0,1,,,,,12,0,96,1,254.5174806000001,,,,,,,,,,,,,,,,,,,,,254.50195259999998,254.5174806000001,255.00134809999997,255.0069125000001,255.02876849999996,256.01830529999995,,,,,256.0185224999999,256.03363290000004,256.2336604999999,256.2174739000001,255.02876849999996,,,,,,,,1,1,0.9764551999999185,None,,,,,,,, 841,22,M,L,2026-02-18_11h10.50.960,VisualSearch_2526_3,,2025.2.4,2026-02-18 11h10.51.851474 +0100,
vertical.xlsx,The target is tilted.,135,97,1,12,0,1,1,1,0,0,0,0,0,0,0,0,1,3,4,135,space,5.687290399999938,None,0,1,0.6722606000000724,None,space,2.0703002000000197,None,0,0,0,1,,,,,12,1,97,6,256.2336604999999,,,,,,,,,,,,,,,,,,,,,256.21830190000003,256.2336604999999,256.71718350000003,256.72268270000006,256.7438063000001,257.41767360000006,,,,,257.4179170000001,257.43309239999996,257.6331464000001,257.6170771000001,256.7438063000001,,,,,,,,0,1,0.6722606000000724,None,,,,,,,, 841,22,M,L,2026-02-18_11h10.50.960,VisualSearch_2526_3,,2025.2.4,2026-02-18 11h10.51.851474 +0100,
vertical.xlsx,The target is tilted.,135,98,2,12,1,1,1,1,0,0,0,0,0,0,0,0,0,3,4,135,space,5.687290399999938,None,1,1,0.5848295999999209,None,space,2.0703002000000197,None,0,0,0,1,,,,,12,2,98,2,257.6331464000001,,,,,,,,,,,,,,,,,,,,,257.61787089999996,257.6331464000001,258.11689590000003,258.1224112000001,258.13886190000005,258.73407669999995,,,,,258.7342924000001,258.7490643,258.9494624,258.9334371000001,258.13886190000005,,,,,,,,1,1,0.5848295999999209,None,,,,,,,, 841,22,M,L,2026-02-18_11h10.50.960,VisualSearch_2526_3,,2025.2.4,2026-02-18 11h10.51.851474 +0100,
vertical.xlsx,The target is tilted.,135,99,3,12,1,0,0,0,0,0,0,0,0,0,0,0,0,0,1,135,space,5.687290399999938,None,1,1,0.5478009999999358,None,space,2.0703002000000197,None,0,0,0,1,,,,,12,3,99,3,258.9494624,,,,,,,,,,,,,,,,,,,,,258.9342736,258.9494624,259.4331939,259.4386521,259.4585412,260.0165903000001,,,,,260.01678230000005,260.03227090000007,260.2323560000001,260.21606140000006,259.4585412,,,,,,,,1,1,0.5478009999999358,None,,,,,,,, 841,22,M,L,2026-02-18_11h10.50.960,VisualSearch_2526_3,,2025.2.4,2026-02-18 11h10.51.851474 +0100,
vertical.xlsx,The target is tilted.,135,100,4,12,0,1,1,1,1,1,1,1,1,1,1,1,1,11,12,135,space,5.687290399999938,None,0,1,1.4742530999999417,None,space,2.0703002000000197,None,0,0,0,1,,,,,12,4,100,4,260.2323560000001,,,,,,,,,,,,,,,,,,,,,260.21702689999995,260.2323560000001,260.7157570999999,260.7211963000001,260.7423706000001,262.2319784,,,,,262.23207450000007,262.2480388,262.44823329999997,262.4320365,260.7423706000001,,,,,,,,0,1,1.4742530999999417,None,,,,,,,, 841,22,M,L,2026-02-18_11h10.50.960,VisualSearch_2526_3,,2025.2.4,2026-02-18 11h10.51.851474 +0100,
vertical.xlsx,The target is tilted.,135,101,5,12,0,1,1,1,1,1,1,1,0,0,0,0,1,7,8,135,space,5.687290399999938,None,0,1,1.235975099999905,None,space,2.0703002000000197,None,0,0,0,1,,,,,12,5,101,5,262.44823329999997,,,,,,,,,,,,,,,,,,,,,262.43297270000005,262.44823329999997,262.93210510000006,262.9375678,262.9590076999999,264.1983558999999,,,,,264.19854900000007,264.2142654999999,264.4139414,264.39783750000004,262.9590076999999,,,,,,,,0,1,1.235975099999905,None,,,,,,,, 841,22,M,L,2026-02-18_11h10.50.960,VisualSearch_2526_3,,2025.2.4,2026-02-18 11h10.51.851474 +0100,
vertical.xlsx,The target is tilted.,135,102,6,12,1,1,1,1,1,1,1,1,1,1,1,1,0,11,12,135,space,5.687290399999938,None,1,1,0.8486454999999751,None,space,2.0703002000000197,None,0,0,0,1,,,,,12,6,102,0,264.4139414,,,,,,,,,,,,,,,,,,,,,264.3986665000001,264.4139414,264.89813820000006,264.90361399999995,264.92476180000006,265.7816391,,,,,265.7818668000001,265.7969681000001,265.9971053999999,265.9811099,264.92476180000006,,,,,,,,1,1,0.8486454999999751,None,,,,,,,, 841,22,M,L,2026-02-18_11h10.50.960,VisualSearch_2526_3,,2025.2.4,2026-02-18 11h10.51.851474 +0100,
vertical.xlsx,The target is tilted.,135,103,7,12,0,0,0,0,0,0,0,0,0,0,0,0,1,1,1,135,space,5.687290399999938,None,0,1,0.6208799999999428,None,space,2.0703002000000197,None,0,0,0,1,,,,,12,7,103,7,265.9971053999999,,,,,,,,,,,,,,,,,,,,,265.98201729999994,265.9971053999999,266.4809272000001,266.48642170000005,266.50862889999996,267.13106200000004,,,,,267.1312761999999,267.14637690000006,267.3464031,267.33077620000006,266.50862889999996,,,,,,,,0,1,0.6208799999999428,None,,,,,,,, 841,22,M,L,2026-02-18_11h10.50.960,VisualSearch_2526_3,,2025.2.4,2026-02-18 11h10.51.851474 +0100,
vertical.xlsx,The target is tilted.,135,104,0,13,1,1,1,1,0,0,0,0,0,0,0,0,0,3,4,135,space,5.687290399999938,None,1,1,0.6226226000001134,None,space,2.0703002000000197,None,0,0,0,1,,,,,13,0,104,2,267.3464031,,,,,,,,,,,,,,,,,,,,,267.3316060000001,267.3464031,267.8304354999999,267.83611559999997,267.85381199999995,268.4805831,,,,,268.4808233,268.4961127,268.69615899999997,268.6801723,267.85381199999995,,,,,,,,1,1,0.6226226000001134,None,,,,,,,, 841,22,M,L,2026-02-18_11h10.50.960,VisualSearch_2526_3,,2025.2.4,2026-02-18 11h10.51.851474 +0100,
vertical.xlsx,The target is tilted.,135,105,1,13,0,1,1,1,0,0,0,0,0,0,0,0,1,3,4,135,space,5.687290399999938,None,0,1,0.6642859999999473,None,space,2.0703002000000197,None,0,0,0,1,,,,,13,1,105,6,268.69615899999997,,,,,,,,,,,,,,,,,,,,,268.6810101,268.69615899999997,269.1800801999999,269.1856587000001,269.20699720000005,269.88025329999994,,,,,269.88048130000004,269.89566920000004,270.0955884000001,270.0797945999999,269.20699720000005,,,,,,,,0,1,0.6642859999999473,None,,,,,,,, 841,22,M,L,2026-02-18_11h10.50.960,VisualSearch_2526_3,,2025.2.4,2026-02-18 11h10.51.851474 +0100,
vertical.xlsx,The target is tilted.,135,106,2,13,1,0,0,0,0,0,0,0,0,0,0,0,0,0,1,135,space,5.687290399999938,None,1,1,0.5293056000000433,None,space,2.0703002000000197,None,0,0,0,1,,,,,13,2,106,3,270.0955884000001,,,,,,,,,,,,,,,,,,,,,270.0806205,270.0955884000001,270.5795403999999,270.5849738999999,270.6063567,271.1463143,,,,,271.1465436,271.1619072,271.3615581,271.3455831,270.6063567,,,,,,,,1,1,0.5293056000000433,None,,,,,,,, 841,22,M,L,2026-02-18_11h10.50.960,VisualSearch_2526_3,,2025.2.4,2026-02-18 11h10.51.851474 +0100,
vertical.xlsx,The target is tilted.,135,107,3,13,1,1,1,1,1,1,1,1,0,0,0,0,0,7,8,135,space,5.687290399999938,None,0,0,0.7494633999999678,None,space,2.0703002000000197,None,0,0,0,1,,,,,13,3,107,1,271.3615581,,,,,,,,,,,,,,,,,,,,,271.3463894,271.3615581,271.8458635999999,271.85125170000003,271.8724767,272.6294544000001,,,,,272.6297131,272.6445387,272.84469520000005,272.8287375000001,271.8724767,,,,,,,,0,0,0.7494633999999678,None,,,,,,,, 841,22,M,L,2026-02-18_11h10.50.960,VisualSearch_2526_3,,2025.2.4,2026-02-18 11h10.51.851474 +0100,
vertical.xlsx,The target is tilted.,135,108,4,13,0,1,1,1,1,1,1,1,0,0,0,0,1,7,8,135,space,5.687290399999938,None,0,1,1.294125299999905,None,space,2.0703002000000197,None,0,0,0,1,,,,,13,4,108,5,272.84469520000005,,,,,,,,,,,,,,,,,,,,,272.82956679999995,272.84469520000005,273.3287160000001,273.33415890000003,273.35106529999996,274.6616232,,,,,274.66182360000005,274.6775412999999,274.8775070999999,274.8615407000001,273.35106529999996,,,,,,,,0,1,1.294125299999905,None,,,,,,,, 841,22,M,L,2026-02-18_11h10.50.960,VisualSearch_2526_3,,2025.2.4,2026-02-18 11h10.51.851474 +0100,
vertical.xlsx,The target is tilted.,135,109,5,13,1,1,1,1,1,1,1,1,1,1,1,1,0,11,12,135,space,5.687290399999938,None,1,1,0.9278647999999521,None,space,2.0703002000000197,None,0,0,0,1,,,,,13,5,109,0,274.8775070999999,,,,,,,,,,,,,,,,,,,,,274.8624063000001,274.8775070999999,275.36132540000006,275.36688949999996,275.38818860000003,276.3283599,,,,,276.3285804000001,276.34374560000003,276.5436896,276.5276339999999,275.38818860000003,,,,,,,,1,1,0.9278647999999521,None,,,,,,,, 841,22,M,L,2026-02-18_11h10.50.960,VisualSearch_2526_3,,2025.2.4,2026-02-18 11h10.51.851474 +0100,
vertical.xlsx,The target is tilted.,135,110,6,13,0,0,0,0,0,0,0,0,0,0,0,0,1,1,1,135,space,5.687290399999938,None,0,1,0.8984470000000329,None,space,2.0703002000000197,None,0,0,0,1,,,,,13,6,110,7,276.5436896,,,,,,,,,,,,,,,,,,,,,276.52842380000004,276.5436896,277.0274126999999,277.0328363,277.0541010999999,277.96117360000005,,,,,277.9613925,277.9764392000001,278.17608200000006,278.16018180000003,277.0541010999999,,,,,,,,0,1,0.8984470000000329,None,,,,,,,, 841,22,M,L,2026-02-18_11h10.50.960,VisualSearch_2526_3,,2025.2.4,2026-02-18 11h10.51.851474 +0100,
vertical.xlsx,The target is tilted.,135,111,7,13,0,1,1,1,1,1,1,1,1,1,1,1,1,11,12,135,space,5.687290399999938,None,0,1,1.567113500000005,None,space,2.0703002000000197,None,0,0,0,1,,,,,13,7,111,4,278.17608200000006,,,,,,,,,,,,,,,,,,,,,278.16102880000005,278.17608200000006,278.6603093,278.6658106000001,278.6869759,280.2600779999999,,,,,280.2602727,280.2755570999999,280.4755632,280.4596375,278.6869759,,,,,,,,0,1,1.567113500000005,None,,,,,,,, 841,22,M,L,2026-02-18_11h10.50.960,VisualSearch_2526_3,,2025.2.4,2026-02-18 11h10.51.851474 +0100,
vertical.xlsx,The target is tilted.,135,112,0,14,1,0,0,0,0,0,0,0,0,0,0,0,0,0,1,135,space,5.687290399999938,None,1,1,0.6120408999997835,None,space,2.0703002000000197,None,0,0,0,1,,,,,14,0,112,3,280.4755632,,,,,,,,,,,,,,,,,,,,,280.4604350000001,280.4755632,280.95949469999994,280.96492709999995,280.98628070000007,281.6100285000001,,,,,281.61024570000006,281.62502269999993,281.82494310000004,281.8091571000001,280.98628070000007,,,,,,,,1,1,0.6120408999997835,None,,,,,,,, 841,22,M,L,2026-02-18_11h10.50.960,VisualSearch_2526_3,,2025.2.4,2026-02-18 11h10.51.851474 +0100,
vertical.xlsx,The target is tilted.,135,113,1,14,0,1,1,1,0,0,0,0,0,0,0,0,1,3,4,135,space,5.687290399999938,None,0,1,0.6107801000000563,None,space,2.0703002000000197,None,0,0,0,1,,,,,14,1,113,6,281.82494310000004,,,,,,,,,,,,,,,,,,,,,281.80997059999993,281.82494310000004,282.309034,282.31459299999995,282.3359434,282.9595088,,,,,282.9597290999999,282.9748189999999,283.1748750999999,283.15878280000004,282.3359434,,,,,,,,0,1,0.6107801000000563,None,,,,,,,, 841,22,M,L,2026-02-18_11h10.50.960,VisualSearch_2526_3,,2025.2.4,2026-02-18 11h10.51.851474 +0100,
vertical.xlsx,The target is tilted.,135,114,2,14,0,0,0,0,0,0,0,0,0,0,0,0,1,1,1,135,space,5.687290399999938,None,0,1,0.6821990999999343,None,space,2.0703002000000197,None,0,0,0,1,,,,,14,2,114,7,283.1748750999999,,,,,,,,,,,,,,,,,,,,,283.1596037999999,283.1748750999999,283.6586195000001,283.66337020000003,283.67449150000004,284.35896579999996,,,,,284.3592153000001,284.37402770000006,284.5743357,284.5579409999999,283.67449150000004,,,,,,,,0,1,0.6821990999999343,None,,,,,,,, 841,22,M,L,2026-02-18_11h10.50.960,VisualSearch_2526_3,,2025.2.4,2026-02-18 11h10.51.851474 +0100,
vertical.xlsx,The target is tilted.,135,115,3,14,1,1,1,1,1,1,1,1,0,0,0,0,0,7,8,135,space,5.687290399999938,None,1,1,0.5773922999999286,None,space,2.0703002000000197,None,0,0,0,1,,,,,14,3,115,1,284.5743357,,,,,,,,,,,,,,,,,,,,,284.5587732,284.5743357,285.05826650000006,285.0637691999999,285.0845445000001,285.67491770000004,,,,,285.6751498,285.6901801,285.89044090000004,285.8745794,285.0845445000001,,,,,,,,1,1,0.5773922999999286,None,,,,,,,, 841,22,M,L,2026-02-18_11h10.50.960,VisualSearch_2526_3,,2025.2.4,2026-02-18 11h10.51.851474 +0100,
vertical.xlsx,The target is tilted.,135,116,4,14,1,1,1,1,1,1,1,1,1,1,1,1,0,11,12,135,space,5.687290399999938,None,1,1,1.132686700000022,None,space,2.0703002000000197,None,0,0,0,1,,,,,14,4,116,0,285.89044090000004,,,,,,,,,,,,,,,,,,,,,285.8754086,285.89044090000004,286.3744402000001,286.3798444,286.4023129000001,287.5408762999999,,,,,287.5410932000001,287.5566614999999,287.7561772,287.74016990000007,286.4023129000001,,,,,,,,1,1,1.132686700000022,None,,,,,,,, 841,22,M,L,2026-02-18_11h10.50.960,VisualSearch_2526_3,,2025.2.4,2026-02-18 11h10.51.851474 +0100,
vertical.xlsx,The target is tilted.,135,117,5,14,1,1,1,1,0,0,0,0,0,0,0,0,0,3,4,135,space,5.687290399999938,None,1,1,0.6211835000001429,None,space,2.0703002000000197,None,0,0,0,1,,,,,14,5,117,2,287.7561772,,,,,,,,,,,,,,,,,,,,,287.7409893,287.7561772,288.2404643000001,288.2459239000001,288.26738650000004,288.89078000000006,,,,,288.8909789999999,288.9060261999999,289.10618639999996,289.0901336999999,288.26738650000004,,,,,,,,1,1,0.6211835000001429,None,,,,,,,, 841,22,M,L,2026-02-18_11h10.50.960,VisualSearch_2526_3,,2025.2.4,2026-02-18 11h10.51.851474 +0100,
vertical.xlsx,The target is tilted.,135,118,6,14,0,1,1,1,1,1,1,1,0,0,0,0,1,7,8,135,space,5.687290399999938,None,0,1,1.2167007000000467,None,space,2.0703002000000197,None,0,0,0,1,,,,,14,6,118,5,289.10618639999996,,,,,,,,,,,,,,,,,,,,,289.09096409999995,289.10618639999996,289.58996790000003,289.59541750000005,289.61789439999995,290.8401095999999,,,,,290.84033740000007,290.85533380000004,291.0556158999999,291.03945880000003,289.61789439999995,,,,,,,,0,1,1.2167007000000467,None,,,,,,,, 841,22,M,L,2026-02-18_11h10.50.960,VisualSearch_2526_3,,2025.2.4,2026-02-18 11h10.51.851474 +0100,
vertical.xlsx,The target is tilted.,135,119,7,14,0,1,1,1,1,1,1,1,1,1,1,1,1,11,12,135,space,5.687290399999938,None,0,1,1.4706787000000077,None,space,2.0703002000000197,None,0,0,0,1,,,,,14,7,119,4,291.0556158999999,,,,,,,,,,,,,,,,,,,,,291.0403170000001,291.0556158999999,291.5391997999999,291.54458639999996,291.5659627000001,293.0395391999999,,,,,293.03975520000006,293.05475379999996,293.26769249999995,293.2387543000001,291.5659627000001,,,,,,,,0,1,1.4706787000000077,None,,,,,,,, 841,22,M,L,2026-02-18_11h10.50.960,VisualSearch_2526_3,,2025.2.4,2026-02-18 11h10.51.851474 +0100,
vertical.xlsx,The target is tilted.,135,0,0,0,,,,,,,,,,,,,,,,,space,5.687290399999938,None,,,,,space,2.0703002000000197,None,0,0,0,1,,,,,,,,,,,,,,,,,,,,,,,,,,,,,,,,,,,,,,,,,,,,,,,,,,,,,,,,,,,,,,, 841,22,M,L,2026-02-18_11h10.50.960,VisualSearch_2526_3,,2025.2.4,2026-02-18 11h10.51.851474 +0100,
tilted.xlsx,The target is tilted.,117,0,0,0,1,1,1,1,0,0,0,0,0,0,0,0,0,3,4,117,space,4.042490199999975,None,1,1,0.9377639000001636,None,,,,0,1,1,0,0,0,0,2,,,,,297.43254250000007,,,,,,,,,,,,,,,293.26769249999995,293.26769249999995,293.26769249999995,space,4.042490199999975,None,297.4281929,297.43254250000007,297.83667720000005,297.8422162999999,297.86341529999993,298.80428489999997,1,1,0.9377639000001636,None,298.8045042,298.8192992999999,299.0195668,299.00323319999995,,,,,,,,,,,,,,,,,,,, 841,22,M,L,2026-02-18_11h10.50.960,VisualSearch_2526_3,,2025.2.4,2026-02-18 11h10.51.851474 +0100,
tilted.xlsx,The target is tilted.,117,1,1,0,1,0,0,0,0,0,0,0,0,0,0,0,0,0,1,117,space,4.042490199999975,None,1,1,0.5698808000001918,None,,,,0,1,1,0,0,1,1,3,,,,,299.0195668,,,,,,,,,,,,,,,,,,,,,299.0040834,299.0195668,299.5032553,299.5086514999999,299.5306068000001,300.10371640000005,1,1,0.5698808000001918,None,300.10393540000007,300.1187925999999,300.3190843000001,300.3031414999999,299.5306068000001,,,,,,,,,,,,,,,,,,, 841,22,M,L,2026-02-18_11h10.50.960,VisualSearch_2526_3,,2025.2.4,2026-02-18 11h10.51.851474 +0100,
tilted.xlsx,The target is tilted.,117,2,2,0,1,1,1,1,1,1,1,1,1,1,1,1,0,11,12,117,space,4.042490199999975,None,1,1,1.2862452000001667,None,,,,0,1,1,0,0,2,2,0,,,,,300.3190843000001,,,,,,,,,,,,,,,,,,,,,300.3039150999999,300.3190843000001,300.8029800999999,300.8086382,300.8304317000001,302.1199620000001,1,1,1.2862452000001667,None,302.1201694,302.1351956,302.3347444,302.31850539999994,300.8304317000001,,,,,,,,,,,,,,,,,,, 841,22,M,L,2026-02-18_11h10.50.960,VisualSearch_2526_3,,2025.2.4,2026-02-18 11h10.51.851474 +0100,
tilted.xlsx,The target is tilted.,117,3,3,0,0,0,0,0,0,0,0,0,0,0,0,0,1,1,1,117,space,4.042490199999975,None,0,1,0.6563510000000861,None,,,,0,1,1,0,0,3,3,7,,,,,302.3347444,,,,,,,,,,,,,,,,,,,,,302.3189057000001,302.3347444,302.81886139999995,302.8242240000001,302.84524049999993,303.5028587999999,0,1,0.6563510000000861,None,303.5031866999999,303.51812430000007,303.7181085000001,303.7020005999999,302.84524049999993,,,,,,,,,,,,,,,,,,, 841,22,M,L,2026-02-18_11h10.50.960,VisualSearch_2526_3,,2025.2.4,2026-02-18 11h10.51.851474 +0100,
tilted.xlsx,The target is tilted.,117,4,4,0,0,1,1,1,1,1,1,1,0,0,0,0,1,7,8,117,space,4.042490199999975,None,1,0,0.7947131000000809,None,,,,0,1,1,0,0,4,4,5,,,,,303.7181085000001,,,,,,,,,,,,,,,,,,,,,303.7027574,303.7181085000001,304.2018669,304.2067724,304.21771079999996,305.01876329999993,1,0,0.7947131000000809,None,305.01899979999996,305.0341967999999,305.23391260000005,305.2182242,304.21771079999996,,,,,,,,,,,,,,,,,,, 841,22,M,L,2026-02-18_11h10.50.960,VisualSearch_2526_3,,2025.2.4,2026-02-18 11h10.51.851474 +0100,
tilted.xlsx,The target is tilted.,117,5,5,0,0,1,1,1,1,1,1,1,1,1,1,1,1,11,12,117,space,4.042490199999975,None,1,0,0.9357543999999507,None,,,,0,1,1,0,0,5,5,4,,,,,305.23391260000005,,,,,,,,,,,,,,,,,,,,,305.2189668,305.23391260000005,305.7180695999999,305.723662,305.739003,306.6850207000001,1,0,0.9357543999999507,None,306.68524820000005,306.7001842000001,306.90040639999995,306.88436609999997,305.739003,,,,,,,,,,,,,,,,,,, 841,22,M,L,2026-02-18_11h10.50.960,VisualSearch_2526_3,,2025.2.4,2026-02-18 11h10.51.851474 +0100,
tilted.xlsx,The target is tilted.,117,6,6,0,1,1,1,1,1,1,1,1,0,0,0,0,0,7,8,117,space,4.042490199999975,None,1,1,1.7407149000000572,None,,,,0,1,1,0,0,6,6,1,,,,,306.90040639999995,,,,,,,,,,,,,,,,,,,,,306.8851120999999,306.90040639999995,307.3842229999999,307.3897058000001,307.4112619000001,309.1673013000001,1,1,1.7407149000000572,None,309.1674870999999,309.1827491,309.38286890000006,309.3664453,307.4112619000001,,,,,,,,,,,,,,,,,,, 841,22,M,L,2026-02-18_11h10.50.960,VisualSearch_2526_3,,2025.2.4,2026-02-18 11h10.51.851474 +0100,
tilted.xlsx,The target is tilted.,117,7,7,0,0,1,1,1,0,0,0,0,0,0,0,0,1,3,4,117,space,4.042490199999975,None,0,1,1.9952774999999292,None,,,,0,1,1,0,0,7,7,6,,,,,309.38286890000006,,,,,,,,,,,,,,,,,,,,,309.36722309999993,309.38286890000006,309.8667440999999,309.8715527999999,309.88259419999997,311.8829353,0,1,1.9952774999999292,None,311.8831593000001,311.8986914000001,312.0986604000001,312.08270159999995,309.88259419999997,,,,,,,,,,,,,,,,,,, 841,22,M,L,2026-02-18_11h10.50.960,VisualSearch_2526_3,,2025.2.4,2026-02-18 11h10.51.851474 +0100,
tilted.xlsx,The target is tilted.,117,0,0,0,1,1,1,1,0,0,0,0,0,0,0,0,0,3,4,117,space,4.042490199999975,None,0,0,1.4039764999999989,None,space,1.708783799999992,None,0,1,1,0,,,,,0,0,0,2,313.8555416999999,,,,,,,,,,,,,,,,,,,,,313.8509077,313.8555416999999,314.33134299999995,314.3369980000001,314.35845529999995,315.7653752,,,,,315.7656235999999,315.78044050000005,315.98078799999996,315.96470110000007,,312.09050149999996,312.0986604000001,312.0986604000001,313.8157675000001,space,1.708783799999992,None,0,0,1.4039764999999989,None,,,,,,,, 841,22,M,L,2026-02-18_11h10.50.960,VisualSearch_2526_3,,2025.2.4,2026-02-18 11h10.51.851474 +0100,
tilted.xlsx,The target is tilted.,117,1,1,0,0,0,0,0,0,0,0,0,0,0,0,0,1,1,1,117,space,4.042490199999975,None,0,1,1.456434199999876,None,space,1.708783799999992,None,0,1,1,0,,,,,0,1,1,7,315.98078799999996,,,,,,,,,,,,,,,,,,,,,315.96549429999993,315.98078799999996,316.4643850000001,316.4698009,316.4906107999999,317.9641193000001,,,,,317.96426439999993,317.9800643,318.1800598000001,318.1638377999999,316.4906107999999,,,,,,,,0,1,1.456434199999876,None,,,,,,,, 841,22,M,L,2026-02-18_11h10.50.960,VisualSearch_2526_3,,2025.2.4,2026-02-18 11h10.51.851474 +0100,
tilted.xlsx,The target is tilted.,117,2,2,0,0,1,1,1,1,1,1,1,0,0,0,0,1,7,8,117,space,4.042490199999975,None,1,0,1.8558020000000397,None,space,1.708783799999992,None,0,1,1,0,,,,,0,2,2,5,318.1800598000001,,,,,,,,,,,,,,,,,,,,,318.1646847999999,318.1800598000001,318.66380560000005,318.6692397999999,318.6908990999999,320.5626845999999,,,,,320.5627860999999,320.57911049999996,320.7789421000001,320.76285229999996,318.6908990999999,,,,,,,,1,0,1.8558020000000397,None,,,,,,,, 841,22,M,L,2026-02-18_11h10.50.960,VisualSearch_2526_3,,2025.2.4,2026-02-18 11h10.51.851474 +0100,
tilted.xlsx,The target is tilted.,117,3,3,0,1,1,1,1,1,1,1,1,1,1,1,1,0,11,12,117,space,4.042490199999975,None,1,1,1.0222665000001143,None,space,1.708783799999992,None,0,1,1,0,,,,,0,3,3,0,320.7789421000001,,,,,,,,,,,,,,,,,,,,,320.7636676000001,320.7789421000001,321.262918,321.26837680000006,321.2895979000001,322.3132472000001,,,,,322.3134983000001,322.32850169999995,322.5285806999999,322.5125342,321.2895979000001,,,,,,,,1,1,1.0222665000001143,None,,,,,,,, 841,22,M,L,2026-02-18_11h10.50.960,VisualSearch_2526_3,,2025.2.4,2026-02-18 11h10.51.851474 +0100,
tilted.xlsx,The target is tilted.,117,4,4,0,1,1,1,1,1,1,1,1,0,0,0,0,0,7,8,117,space,4.042490199999975,None,1,1,0.9952835999999934,None,space,1.708783799999992,None,0,1,1,0,,,,,0,4,4,1,322.5285806999999,,,,,,,,,,,,,,,,,,,,,322.5133554,322.5285806999999,323.0121683000001,323.0175478,323.03863579999995,324.0453902999999,,,,,324.0455361999999,324.0614374999999,324.2613407,324.24519829999997,323.03863579999995,,,,,,,,1,1,0.9952835999999934,None,,,,,,,, 841,22,M,L,2026-02-18_11h10.50.960,VisualSearch_2526_3,,2025.2.4,2026-02-18 11h10.51.851474 +0100,
tilted.xlsx,The target is tilted.,117,5,5,0,0,1,1,1,0,0,0,0,0,0,0,0,1,3,4,117,space,4.042490199999975,None,0,1,1.1023093999999674,None,space,1.708783799999992,None,0,1,1,0,,,,,0,5,5,6,324.2613407,,,,,,,,,,,,,,,,,,,,,324.2460305000001,324.2613407,324.74521590000006,324.7512605999999,324.7730166,325.8786782000001,,,,,325.8789679,325.8941429,326.09409100000005,326.0780711000001,324.7730166,,,,,,,,0,1,1.1023093999999674,None,,,,,,,, 841,22,M,L,2026-02-18_11h10.50.960,VisualSearch_2526_3,,2025.2.4,2026-02-18 11h10.51.851474 +0100,
tilted.xlsx,The target is tilted.,117,6,6,0,0,1,1,1,1,1,1,1,1,1,1,1,1,11,12,117,space,4.042490199999975,None,1,0,0.9236350999999559,None,space,1.708783799999992,None,0,1,1,0,,,,,0,6,6,4,326.09409100000005,,,,,,,,,,,,,,,,,,,,,326.07889250000005,326.09409100000005,326.5779818,326.5834903000001,326.6047476,327.54480920000003,,,,,327.54508150000004,327.5598882999999,327.76020830000004,327.7443277000001,326.6047476,,,,,,,,1,0,0.9236350999999559,None,,,,,,,, 841,22,M,L,2026-02-18_11h10.50.960,VisualSearch_2526_3,,2025.2.4,2026-02-18 11h10.51.851474 +0100,
tilted.xlsx,The target is tilted.,117,7,7,0,1,0,0,0,0,0,0,0,0,0,0,0,0,0,1,117,space,4.042490199999975,None,1,1,0.566954399999986,None,space,1.708783799999992,None,0,1,1,0,,,,,0,7,7,3,327.76020830000004,,,,,,,,,,,,,,,,,,,,,327.7451599,327.76020830000004,328.2440177,328.24942210000006,328.2707964,328.8444263,,,,,328.8446783999999,328.8594976999999,329.0596297000001,329.0429525999999,328.2707964,,,,,,,,1,1,0.566954399999986,None,,,,,,,, 841,22,M,L,2026-02-18_11h10.50.960,VisualSearch_2526_3,,2025.2.4,2026-02-18 11h10.51.851474 +0100,
tilted.xlsx,The target is tilted.,117,8,0,1,1,1,1,1,1,1,1,1,0,0,0,0,0,7,8,117,space,4.042490199999975,None,1,1,0.9494116999999278,None,space,1.708783799999992,None,0,1,1,0,,,,,1,0,8,1,329.0596297000001,,,,,,,,,,,,,,,,,,,,,329.0434019999999,329.0596297000001,329.54346150000003,329.54913369999997,329.57085730000006,330.52775899999995,,,,,330.52797870000006,330.54244299999993,330.74257520000003,330.72636980000004,329.57085730000006,,,,,,,,1,1,0.9494116999999278,None,,,,,,,, 841,22,M,L,2026-02-18_11h10.50.960,VisualSearch_2526_3,,2025.2.4,2026-02-18 11h10.51.851474 +0100,
tilted.xlsx,The target is tilted.,117,9,1,1,0,1,1,1,1,1,1,1,1,1,1,1,1,11,12,117,space,4.042490199999975,None,0,1,2.367080099999839,None,space,1.708783799999992,None,0,1,1,0,,,,,1,1,9,4,330.74257520000003,,,,,,,,,,,,,,,,,,,,,330.7272486999999,330.74257520000003,331.2257851999999,331.2300984,331.24912400000005,333.626169,,,,,333.6264182000001,333.64160260000006,333.841583,333.8253373000001,331.24912400000005,,,,,,,,0,1,2.367080099999839,None,,,,,,,, 841,22,M,L,2026-02-18_11h10.50.960,VisualSearch_2526_3,,2025.2.4,2026-02-18 11h10.51.851474 +0100,
tilted.xlsx,The target is tilted.,117,10,2,1,0,0,0,0,0,0,0,0,0,0,0,0,1,1,1,117,space,4.042490199999975,None,0,1,0.654830999999831,None,space,1.708783799999992,None,0,1,1,0,,,,,1,2,10,7,333.841583,,,,,,,,,,,,,,,,,,,,,333.8261781,333.841583,334.3254266,334.3305094000001,334.34114779999993,335.00884439999993,,,,,335.0090583,335.0245814000001,335.2244833000001,335.20837560000007,334.34114779999993,,,,,,,,0,1,0.654830999999831,None,,,,,,,, 841,22,M,L,2026-02-18_11h10.50.960,VisualSearch_2526_3,,2025.2.4,2026-02-18 11h10.51.851474 +0100,
tilted.xlsx,The target is tilted.,117,11,3,1,0,1,1,1,1,1,1,1,0,0,0,0,1,7,8,117,space,4.042490199999975,None,0,1,1.4402844999999616,None,space,1.708783799999992,None,0,1,1,0,,,,,1,3,11,5,335.2244833000001,,,,,,,,,,,,,,,,,,,,,335.2091916999999,335.2244833000001,335.7082623,335.71370820000004,335.7349170000001,337.1917251000001,,,,,337.1919429999999,337.20712590000005,337.4070324999999,337.39089939999997,335.7349170000001,,,,,,,,0,1,1.4402844999999616,None,,,,,,,, 841,22,M,L,2026-02-18_11h10.50.960,VisualSearch_2526_3,,2025.2.4,2026-02-18 11h10.51.851474 +0100,
tilted.xlsx,The target is tilted.,117,12,4,1,1,0,0,0,0,0,0,0,0,0,0,0,0,0,1,117,space,4.042490199999975,None,1,1,0.5813291000001755,None,space,1.708783799999992,None,0,1,1,0,,,,,1,4,12,3,337.4070324999999,,,,,,,,,,,,,,,,,,,,,337.3917522999999,337.4070324999999,337.89049050000006,337.89591559999997,337.9172388999999,338.50772199999994,,,,,338.5078661000001,338.52317430000005,338.72340870000005,338.7075378999999,337.9172388999999,,,,,,,,1,1,0.5813291000001755,None,,,,,,,, 841,22,M,L,2026-02-18_11h10.50.960,VisualSearch_2526_3,,2025.2.4,2026-02-18 11h10.51.851474 +0100,
tilted.xlsx,The target is tilted.,117,13,5,1,1,1,1,1,1,1,1,1,1,1,1,1,0,11,12,117,space,4.042490199999975,None,1,1,0.965217100000018,None,space,1.708783799999992,None,0,1,1,0,,,,,1,5,13,0,338.72340870000005,,,,,,,,,,,,,,,,,,,,,338.70840839999994,338.72340870000005,339.20700739999995,339.2126064,339.2339889000001,340.2072371999999,,,,,340.20747760000006,340.22269889999995,340.42274800000007,340.4069436000001,339.2339889000001,,,,,,,,1,1,0.965217100000018,None,,,,,,,, 841,22,M,L,2026-02-18_11h10.50.960,VisualSearch_2526_3,,2025.2.4,2026-02-18 11h10.51.851474 +0100,
tilted.xlsx,The target is tilted.,117,14,6,1,0,1,1,1,0,0,0,0,0,0,0,0,1,3,4,117,space,4.042490199999975,None,0,1,0.7407702000000427,None,space,1.708783799999992,None,0,1,1,0,,,,,1,6,14,6,340.42274800000007,,,,,,,,,,,,,,,,,,,,,340.407998,340.42274800000007,340.90614560000006,340.91163169999993,340.9330449,341.6902741,,,,,341.6904928,341.70555580000007,341.90539380000007,341.88949790000004,340.9330449,,,,,,,,0,1,0.7407702000000427,None,,,,,,,, 841,22,M,L,2026-02-18_11h10.50.960,VisualSearch_2526_3,,2025.2.4,2026-02-18 11h10.51.851474 +0100,
tilted.xlsx,The target is tilted.,117,15,7,1,1,1,1,1,0,0,0,0,0,0,0,0,0,3,4,117,space,4.042490199999975,None,0,0,0.9597152000001188,None,space,1.708783799999992,None,0,1,1,0,,,,,1,7,15,2,341.90539380000007,,,,,,,,,,,,,,,,,,,,,341.89030160000004,341.90539380000007,342.3894143000001,342.3950530999999,342.4171118999999,343.3898335,,,,,343.3900596,343.4047650000001,343.6047588,343.5889375999999,342.4171118999999,,,,,,,,0,0,0.9597152000001188,None,,,,,,,, 841,22,M,L,2026-02-18_11h10.50.960,VisualSearch_2526_3,,2025.2.4,2026-02-18 11h10.51.851474 +0100,
tilted.xlsx,The target is tilted.,117,16,0,2,1,1,1,1,0,0,0,0,0,0,0,0,0,3,4,117,space,4.042490199999975,None,1,1,0.9788694999999734,None,space,1.708783799999992,None,0,1,1,0,,,,,2,0,16,2,343.6047588,,,,,,,,,,,,,,,,,,,,,343.5898065,343.6047588,344.0886122999999,344.0941159,344.1151754000001,345.10574639999993,,,,,345.1059965999999,345.1208083,345.3211771,345.3050583999999,344.1151754000001,,,,,,,,1,1,0.9788694999999734,None,,,,,,,, 841,22,M,L,2026-02-18_11h10.50.960,VisualSearch_2526_3,,2025.2.4,2026-02-18 11h10.51.851474 +0100,
tilted.xlsx,The target is tilted.,117,17,1,2,0,1,1,1,0,0,0,0,0,0,0,0,1,3,4,117,space,4.042490199999975,None,0,1,0.8418903000001592,None,space,1.708783799999992,None,0,1,1,0,,,,,2,1,17,6,345.3211771,,,,,,,,,,,,,,,,,,,,,345.30587479999997,345.3211771,345.8049536,345.81037249999997,345.8311832999999,346.6885490000001,,,,,346.68880079999997,346.70366320000005,346.90385819999995,346.8877254,345.8311832999999,,,,,,,,0,1,0.8418903000001592,None,,,,,,,, 841,22,M,L,2026-02-18_11h10.50.960,VisualSearch_2526_3,,2025.2.4,2026-02-18 11h10.51.851474 +0100,
tilted.xlsx,The target is tilted.,117,18,2,2,1,0,0,0,0,0,0,0,0,0,0,0,0,0,1,117,space,4.042490199999975,None,1,1,0.5554835000000367,None,space,1.708783799999992,None,0,1,1,0,,,,,2,2,18,3,346.90385819999995,,,,,,,,,,,,,,,,,,,,,346.88862660000007,346.90385819999995,347.3876755,347.3924169999999,347.4035629000001,347.9715477000001,,,,,347.9717687000001,347.98685119999993,348.1866020000001,348.1709032,347.4035629000001,,,,,,,,1,1,0.5554835000000367,None,,,,,,,, 841,22,M,L,2026-02-18_11h10.50.960,VisualSearch_2526_3,,2025.2.4,2026-02-18 11h10.51.851474 +0100,
tilted.xlsx,The target is tilted.,117,19,3,2,0,0,0,0,0,0,0,0,0,0,0,0,1,1,1,117,space,4.042490199999975,None,0,1,0.586851900000056,None,space,1.708783799999992,None,0,1,1,0,,,,,2,3,19,7,348.1866020000001,,,,,,,,,,,,,,,,,,,,,348.1717425999999,348.1866020000001,348.6707917,348.67580770000006,348.6864852,349.28780059999997,,,,,349.2880197999999,349.30310270000007,349.50296349999996,349.4862634,348.6864852,,,,,,,,0,1,0.586851900000056,None,,,,,,,, 841,22,M,L,2026-02-18_11h10.50.960,VisualSearch_2526_3,,2025.2.4,2026-02-18 11h10.51.851474 +0100,
tilted.xlsx,The target is tilted.,117,20,4,2,0,1,1,1,1,1,1,1,1,1,1,1,1,11,12,117,space,4.042490199999975,None,0,1,2.692965299999969,None,space,1.708783799999992,None,0,1,1,0,,,,,2,4,20,4,349.50296349999996,,,,,,,,,,,,,,,,,,,,,349.486587,349.50296349999996,349.98684979999996,349.9923050000001,350.0145116,352.71997369999997,,,,,352.7201931000001,352.73499129999993,352.93490740000004,352.9192333,350.0145116,,,,,,,,0,1,2.692965299999969,None,,,,,,,, 841,22,M,L,2026-02-18_11h10.50.960,VisualSearch_2526_3,,2025.2.4,2026-02-18 11h10.51.851474 +0100,
tilted.xlsx,The target is tilted.,117,21,5,2,0,1,1,1,1,1,1,1,0,0,0,0,1,7,8,117,space,4.042490199999975,None,0,1,1.6314763000000312,None,space,1.708783799999992,None,0,1,1,0,,,,,2,5,21,5,352.93490740000004,,,,,,,,,,,,,,,,,,,,,352.92007550000005,352.93490740000004,353.41833140000006,353.4210541000001,353.43463540000005,355.0699315999999,,,,,355.0701822,355.0843255000001,355.2845891999999,355.2684923999999,353.43463540000005,,,,,,,,0,1,1.6314763000000312,None,,,,,,,, 841,22,M,L,2026-02-18_11h10.50.960,VisualSearch_2526_3,,2025.2.4,2026-02-18 11h10.51.851474 +0100,
tilted.xlsx,The target is tilted.,117,22,6,2,1,1,1,1,1,1,1,1,1,1,1,1,0,11,12,117,space,4.042490199999975,None,1,1,2.092340800000102,None,space,1.708783799999992,None,0,1,1,0,,,,,2,6,22,0,355.2845891999999,,,,,,,,,,,,,,,,,,,,,355.2693206,355.2845891999999,355.7679995,355.77340689999994,355.7950448,357.9016313000001,,,,,357.9018509000001,357.9170717999999,358.1169157999999,358.1008806000001,355.7950448,,,,,,,,1,1,2.092340800000102,None,,,,,,,, 841,22,M,L,2026-02-18_11h10.50.960,VisualSearch_2526_3,,2025.2.4,2026-02-18 11h10.51.851474 +0100,
tilted.xlsx,The target is tilted.,117,23,7,2,1,1,1,1,1,1,1,1,0,0,0,0,0,7,8,117,space,4.042490199999975,None,1,1,1.4052888999999595,None,space,1.708783799999992,None,0,1,1,0,,,,,2,7,23,1,358.1169157999999,,,,,,,,,,,,,,,,,,,,,358.1016975000001,358.1169157999999,358.6006507000001,358.60603690000005,358.61876829999994,360.0341967999999,,,,,360.03445350000004,360.0492875000001,360.2495857,360.23352880000004,358.61876829999994,,,,,,,,1,1,1.4052888999999595,None,,,,,,,, 841,22,M,L,2026-02-18_11h10.50.960,VisualSearch_2526_3,,2025.2.4,2026-02-18 11h10.51.851474 +0100,
tilted.xlsx,The target is tilted.,117,24,0,3,1,1,1,1,0,0,0,0,0,0,0,0,0,3,4,117,space,4.042490199999975,None,1,1,0.902439399999821,None,space,1.708783799999992,None,0,1,1,0,,,,,3,0,24,2,360.2495857,,,,,,,,,,,,,,,,,,,,,360.2343514999999,360.2495857,360.7334526000001,360.7389285999999,360.7519642000001,361.6669997,,,,,361.66728580000006,361.68238740000004,361.88246100000003,361.8661555,360.7519642000001,,,,,,,,1,1,0.902439399999821,None,,,,,,,, 841,22,M,L,2026-02-18_11h10.50.960,VisualSearch_2526_3,,2025.2.4,2026-02-18 11h10.51.851474 +0100,
tilted.xlsx,The target is tilted.,117,25,1,3,1,1,1,1,1,1,1,1,1,1,1,1,0,11,12,117,space,4.042490199999975,None,0,0,1.8995304999998552,None,space,1.708783799999992,None,0,1,1,0,,,,,3,1,25,0,361.88246100000003,,,,,,,,,,,,,,,,,,,,,361.8670599000001,361.88246100000003,362.3661602000001,362.3717318,362.3934786000001,364.2993499999999,,,,,364.29959369999995,364.31456330000003,364.51487140000006,364.49886159999994,362.3934786000001,,,,,,,,0,0,1.8995304999998552,None,,,,,,,, 841,22,M,L,2026-02-18_11h10.50.960,VisualSearch_2526_3,,2025.2.4,2026-02-18 11h10.51.851474 +0100,
tilted.xlsx,The target is tilted.,117,26,2,3,1,0,0,0,0,0,0,0,0,0,0,0,0,0,1,117,space,4.042490199999975,None,1,1,0.7561560000001464,None,space,1.708783799999992,None,0,1,1,0,,,,,3,2,26,3,364.51487140000006,,,,,,,,,,,,,,,,,,,,,364.49966929999994,364.51487140000006,364.99869780000006,365.0042245000001,365.02613830000007,365.7989583,,,,,365.7992197,365.8143039,366.0143452000001,365.9982467000001,365.02613830000007,,,,,,,,1,1,0.7561560000001464,None,,,,,,,, 841,22,M,L,2026-02-18_11h10.50.960,VisualSearch_2526_3,,2025.2.4,2026-02-18 11h10.51.851474 +0100,
tilted.xlsx,The target is tilted.,117,27,3,3,0,1,1,1,1,1,1,1,0,0,0,0,1,7,8,117,space,4.042490199999975,None,0,1,1.829347000000098,None,space,1.708783799999992,None,0,1,1,0,,,,,3,3,27,5,366.0143452000001,,,,,,,,,,,,,,,,,,,,,365.9990838,366.0143452000001,366.49814200000003,366.5037274,366.52524860000005,368.3648624000001,,,,,368.3651139,368.37997529999996,368.5802133000001,368.5642285,366.52524860000005,,,,,,,,0,1,1.829347000000098,None,,,,,,,, 841,22,M,L,2026-02-18_11h10.50.960,VisualSearch_2526_3,,2025.2.4,2026-02-18 11h10.51.851474 +0100,
tilted.xlsx,The target is tilted.,117,28,4,3,0,0,0,0,0,0,0,0,0,0,0,0,1,1,1,117,space,4.042490199999975,None,0,1,0.5755320999999185,None,space,1.708783799999992,None,0,1,1,0,,,,,3,4,28,7,368.5802133000001,,,,,,,,,,,,,,,,,,,,,368.5650824999999,368.5802133000001,369.06395540000005,369.0693775000001,369.09118509999996,369.6810363999999,,,,,369.6812833,369.6964933999999,369.89632900000004,369.8803758,369.09118509999996,,,,,,,,0,1,0.5755320999999185,None,,,,,,,, 841,22,M,L,2026-02-18_11h10.50.960,VisualSearch_2526_3,,2025.2.4,2026-02-18 11h10.51.851474 +0100,
tilted.xlsx,The target is tilted.,117,29,5,3,1,1,1,1,1,1,1,1,0,0,0,0,0,7,8,117,space,4.042490199999975,None,1,1,2.0144537999999557,None,space,1.708783799999992,None,0,1,1,0,,,,,3,5,29,1,369.89632900000004,,,,,,,,,,,,,,,,,,,,,369.8811746,369.89632900000004,370.38019870000005,370.38570889999994,370.407611,372.43012740000006,,,,,372.430379,372.44548410000004,372.6455826,372.62902270000006,370.407611,,,,,,,,1,1,2.0144537999999557,None,,,,,,,, 841,22,M,L,2026-02-18_11h10.50.960,VisualSearch_2526_3,,2025.2.4,2026-02-18 11h10.51.851474 +0100,
tilted.xlsx,The target is tilted.,117,30,6,3,0,1,1,1,0,0,0,0,0,0,0,0,1,3,4,117,space,4.042490199999975,None,0,1,1.1310081999999966,None,space,1.708783799999992,None,0,1,1,0,,,,,3,6,30,6,372.6455826,,,,,,,,,,,,,,,,,,,,,372.6298393999999,372.6455826,373.1293365,373.1348635999999,373.1571362000001,374.2959480999999,,,,,374.29618270000003,374.3113508,374.511611,374.4953746,373.1571362000001,,,,,,,,0,1,1.1310081999999966,None,,,,,,,, 841,22,M,L,2026-02-18_11h10.50.960,VisualSearch_2526_3,,2025.2.4,2026-02-18 11h10.51.851474 +0100,
tilted.xlsx,The target is tilted.,117,31,7,3,0,1,1,1,1,1,1,1,1,1,1,1,1,11,12,117,space,4.042490199999975,None,0,1,1.8396616999998514,None,space,1.708783799999992,None,0,1,1,0,,,,,3,7,31,4,374.511611,,,,,,,,,,,,,,,,,,,,,374.4962555999999,374.511611,374.99505009999996,375.0004914,375.02219389999993,376.8777960000001,,,,,376.8778974999999,376.89407040000003,377.09400199999993,377.0779811000001,375.02219389999993,,,,,,,,0,1,1.8396616999998514,None,,,,,,,, 841,22,M,L,2026-02-18_11h10.50.960,VisualSearch_2526_3,,2025.2.4,2026-02-18 11h10.51.851474 +0100,
tilted.xlsx,The target is tilted.,117,32,0,4,1,1,1,1,0,0,0,0,0,0,0,0,0,3,4,117,space,4.042490199999975,None,0,0,0.6529720999999427,None,space,1.708783799999992,None,0,1,1,0,,,,,4,0,32,2,377.09400199999993,,,,,,,,,,,,,,,,,,,,,377.0787747999999,377.09400199999993,377.57793890000005,377.5834128,377.60494630000005,378.2609606,,,,,378.2611063999999,378.27684439999996,378.47697959999994,378.46097169999996,377.60494630000005,,,,,,,,0,0,0.6529720999999427,None,,,,,,,, 841,22,M,L,2026-02-18_11h10.50.960,VisualSearch_2526_3,,2025.2.4,2026-02-18 11h10.51.851474 +0100,
tilted.xlsx,The target is tilted.,117,33,1,4,1,0,0,0,0,0,0,0,0,0,0,0,0,0,1,117,space,4.042490199999975,None,1,1,0.6626203999999234,None,space,1.708783799999992,None,0,1,1,0,,,,,4,1,33,3,378.47697959999994,,,,,,,,,,,,,,,,,,,,,378.46176679999996,378.47697959999994,378.96074409999994,378.9661979000001,378.9887253999999,379.6610704000001,,,,,379.6613424000001,379.6765383999999,379.87642829999993,379.8605942999999,378.9887253999999,,,,,,,,1,1,0.6626203999999234,None,,,,,,,, 841,22,M,L,2026-02-18_11h10.50.960,VisualSearch_2526_3,,2025.2.4,2026-02-18 11h10.51.851474 +0100,
tilted.xlsx,The target is tilted.,117,34,2,4,1,1,1,1,1,1,1,1,1,1,1,1,0,11,12,117,space,4.042490199999975,None,1,1,2.435857599999963,None,space,1.708783799999992,None,0,1,1,0,,,,,4,2,34,0,379.87642829999993,,,,,,,,,,,,,,,,,,,,,379.8614388,379.87642829999993,380.36035189999996,380.3659397,380.38758100000007,382.8268961,,,,,382.82711400000005,382.8421072,383.04208619999997,383.0253074000001,380.38758100000007,,,,,,,,1,1,2.435857599999963,None,,,,,,,, 841,22,M,L,2026-02-18_11h10.50.960,VisualSearch_2526_3,,2025.2.4,2026-02-18 11h10.51.851474 +0100,
tilted.xlsx,The target is tilted.,117,35,3,4,0,1,1,1,1,1,1,1,1,1,1,1,1,11,12,117,space,4.042490199999975,None,0,1,3.747613400000091,None,space,1.708783799999992,None,0,1,1,0,,,,,4,3,35,4,383.04208619999997,,,,,,,,,,,,,,,,,,,,,383.0257502999999,383.04208619999997,383.52555930000005,383.53102780000006,383.5525613000001,387.3085654,,,,,387.30881650000003,387.32395280000003,387.5240436,387.508011,383.5525613000001,,,,,,,,0,1,3.747613400000091,None,,,,,,,, 841,22,M,L,2026-02-18_11h10.50.960,VisualSearch_2526_3,,2025.2.4,2026-02-18 11h10.51.851474 +0100,
tilted.xlsx,The target is tilted.,117,36,4,4,0,0,0,0,0,0,0,0,0,0,0,0,1,1,1,117,space,4.042490199999975,None,0,1,0.7017941999999948,None,space,1.708783799999992,None,0,1,1,0,,,,,4,4,36,7,387.5240436,,,,,,,,,,,,,,,,,,,,,387.5089019999999,387.5240436,388.0074459000001,388.01298899999995,388.0348333999999,388.7411840000001,,,,,388.7414012999999,388.7565163999999,388.95677779999994,388.94086359999994,388.0348333999999,,,,,,,,0,1,0.7017941999999948,None,,,,,,,, 841,22,M,L,2026-02-18_11h10.50.960,VisualSearch_2526_3,,2025.2.4,2026-02-18 11h10.51.851474 +0100,
