file_name,block_instructions,target_example,thisN,thisTrialN,thisRepN,target_presence,opacity_1,opacity_2,opacity_3,opacity_4,opacity_5,opacity_6,opacity_7,opacity_8,opacity_9,opacity_10,opacity_11,opacity_12,n_distract,n_items,target_ori,key_resp_4.keys,key_resp_4.rt,key_resp_4.duration,key_resp.keys,key_resp.corr,key_resp.rt,key_resp.duration,key_resp_5.keys,key_resp_5.rt,key_resp_5.duration,blocks.thisRepN,blocks.thisTrialN,blocks.thisN,blocks.thisIndex,practice_trials.thisRepN,practice_trials.thisTrialN,practice_trials.thisN,practice_trials.thisIndex,trials.thisRepN,trials.thisTrialN,trials.thisN,trials.thisIndex,thisRow.t,notes,Welcome.started,WelcomeText.started,key_resp_2.started,Welcome.stopped,key_resp_2.keys,key_resp_2.rt,key_resp_2.duration,InformedConsent.started,text_4.started,InformedConsent.stopped,key_resp_6.keys,key_resp_6.rt,key_resp_6.duration,key_resp_4.started,example_target.started,text_3.started,blocks.key_resp_4.keys,blocks.key_resp_4.rt,blocks.key_resp_4.duration,FixCross.started,fixCross.started,FixCross.stopped,Stimulus.started,key_resp.started,Stimulus.stopped,practice_trials.key_resp.keys,practice_trials.key_resp.corr,practice_trials.key_resp.rt,practice_trials.key_resp.duration,BlankScreen.started,text.started,text.stopped,BlankScreen.stopped,fixCross.stopped,ExperimentStart.started,text_2.started,key_resp_5.started,ExperimentStart.stopped,blocks.key_resp_5.keys,blocks.key_resp_5.rt,blocks.key_resp_5.duration,trials.key_resp.keys,trials.key_resp.corr,trials.key_resp.rt,trials.key_resp.duration,Thanks.started,ThankYou.started,key_resp_3.started,Thanks.stopped,key_resp_3.keys,key_resp_3.rt,key_resp_3.duration,participant,leeftijd,gender,links/rechtshandig,date,expName,expVersion,psychopyVersion,expStart,
,,,,,,,,,,,,,,,,,,,,,,,,,,,,,,,,,,,,,,,,,,,,,,0.03351359999987835,0.058345799999869996,0.058345799999869996,141.22068409999997,space,141.14565709999988,None,,,,,,,,,,,,,,,,,,,,,,,,,,,,,,,,,,,,,,,,,,,,,,842,24,V,R,2026-02-18_11h26.30.084,VisualSearch_2526_3,,2025.2.4,2026-02-18 11h26.30.504443 +0100,
,,,,,,,,,,,,,,,,,,,,,,,,,,,,,,,,,,,,,,,,,,,,,,,,,,,,,141.22075719999998,141.22672879999982,147.9883544999998,y,6.763886100000036,None,,,,,,,,,,,,,,,,,,,,,,,,,,,,,,,,,,,,,,,,842,24,V,R,2026-02-18_11h26.30.084,VisualSearch_2526_3,,2025.2.4,2026-02-18 11h26.30.504443 +0100,
vertical.xlsx,The target is tilted.,135,0,0,0,0,0,0,0,0,0,0,0,0,0,0,0,1,1,1,135,space,30.80210369999986,None,0,1,2.293089000000009,None,,,,0,0,0,1,0,0,0,7,,,,,178.8799841,,,,,,,,,,,,,,,148.04067579999992,148.04067579999992,148.04067579999992,space,30.80210369999986,None,178.87412329999984,178.8799841,179.36011659999986,179.36575549999998,179.38645399999996,181.69351099999994,0,1,2.293089000000009,None,181.69376979999993,181.70904459999997,181.9089363999999,181.89294369999993,,,,,,,,,,,,,,,,,,,,842,24,V,R,2026-02-18_11h26.30.084,VisualSearch_2526_3,,2025.2.4,2026-02-18 11h26.30.504443 +0100,
vertical.xlsx,The target is tilted.,135,1,1,0,0,1,1,1,1,1,1,1,0,0,0,0,1,7,8,135,space,30.80210369999986,None,0,1,3.264451400000098,None,,,,0,0,0,1,0,1,1,5,,,,,181.9089363999999,,,,,,,,,,,,,,,,,,,,,181.89368969999987,181.9089363999999,182.3927812999998,182.39824469999985,182.41986439999982,185.69276139999988,0,1,3.264451400000098,None,185.69298449999997,185.70766869999989,185.90750359999993,185.89170609999996,182.41986439999982,,,,,,,,,,,,,,,,,,,842,24,V,R,2026-02-18_11h26.30.084,VisualSearch_2526_3,,2025.2.4,2026-02-18 11h26.30.504443 +0100,
vertical.xlsx,The target is tilted.,135,2,2,0,1,0,0,0,0,0,0,0,0,0,0,0,0,0,1,135,space,30.80210369999986,None,1,1,0.8752331999999114,None,,,,0,0,0,1,0,2,2,3,,,,,185.90750359999993,,,,,,,,,,,,,,,,,,,,,185.8924603999999,185.90750359999993,186.3913545999999,186.39684999999986,186.41774819999978,187.3074297999999,1,1,0.8752331999999114,None,187.3075488999998,187.32326449999982,187.5233925,187.50768329999983,186.41774819999978,,,,,,,,,,,,,,,,,,,842,24,V,R,2026-02-18_11h26.30.084,VisualSearch_2526_3,,2025.2.4,2026-02-18 11h26.30.504443 +0100,
vertical.xlsx,The target is tilted.,135,3,3,0,0,1,1,1,0,0,0,0,0,0,0,0,1,3,4,135,space,30.80210369999986,None,0,1,1.2390009000000646,None,,,,0,0,0,1,0,3,3,6,,,,,187.5233925,,,,,,,,,,,,,,,,,,,,,187.5084324999998,187.5233925,188.0074838999999,188.0128838999999,188.03397529999984,189.27434679999988,0,1,1.2390009000000646,None,189.2745789999999,189.2893956999999,189.48954749999984,189.47335629999998,188.03397529999984,,,,,,,,,,,,,,,,,,,842,24,V,R,2026-02-18_11h26.30.084,VisualSearch_2526_3,,2025.2.4,2026-02-18 11h26.30.504443 +0100,
vertical.xlsx,The target is tilted.,135,4,4,0,1,1,1,1,1,1,1,1,1,1,1,1,0,11,12,135,space,30.80210369999986,None,1,1,1.207206000000042,None,,,,0,0,0,1,0,4,4,0,,,,,189.48954749999984,,,,,,,,,,,,,,,,,,,,,189.47413519999986,189.48954749999984,189.97309619999987,189.97588849999988,189.98935619999997,191.2063337999998,1,1,1.207206000000042,None,191.2064860999999,191.22198519999984,191.4224890999999,191.4064524999999,189.98935619999997,,,,,,,,,,,,,,,,,,,842,24,V,R,2026-02-18_11h26.30.084,VisualSearch_2526_3,,2025.2.4,2026-02-18 11h26.30.504443 +0100,
vertical.xlsx,The target is tilted.,135,5,5,0,1,1,1,1,1,1,1,1,0,0,0,0,0,7,8,135,space,30.80210369999986,None,1,1,0.8612960000000385,None,,,,0,0,0,1,0,5,5,1,,,,,191.4224890999999,,,,,,,,,,,,,,,,,,,,,191.4073123999999,191.4224890999999,191.9063028999999,191.91170249999982,191.93349079999984,192.80628379999985,1,1,0.8612960000000385,None,192.80650119999996,192.82152329999985,193.0219866,193.00553289999993,191.93349079999984,,,,,,,,,,,,,,,,,,,842,24,V,R,2026-02-18_11h26.30.084,VisualSearch_2526_3,,2025.2.4,2026-02-18 11h26.30.504443 +0100,
vertical.xlsx,The target is tilted.,135,6,6,0,0,1,1,1,1,1,1,1,1,1,1,1,1,11,12,135,space,30.80210369999986,None,0,1,2.1311699000000317,None,,,,0,0,0,1,0,6,6,4,,,,,193.0219866,,,,,,,,,,,,,,,,,,,,,193.00626149999994,193.0219866,193.50590469999997,193.51040409999996,193.5215956999998,195.6554718,0,1,2.1311699000000317,None,195.65572409999982,195.67059419999987,195.87105039999983,195.8546237999999,193.5215956999998,,,,,,,,,,,,,,,,,,,842,24,V,R,2026-02-18_11h26.30.084,VisualSearch_2526_3,,2025.2.4,2026-02-18 11h26.30.504443 +0100,
vertical.xlsx,The target is tilted.,135,7,7,0,1,1,1,1,0,0,0,0,0,0,0,0,0,3,4,135,space,30.80210369999986,None,1,1,0.7390175000000454,None,,,,0,0,0,1,0,7,7,2,,,,,195.87105039999983,,,,,,,,,,,,,,,,,,,,,195.85537599999998,195.87105039999983,196.3548432,196.36029929999995,196.38121669999987,197.12146929999994,1,1,0.7390175000000454,None,197.1216837999998,197.13685209999994,197.3369856999998,197.32118969999988,196.38121669999987,,,,,,,,,,,,,,,,,,,842,24,V,R,2026-02-18_11h26.30.084,VisualSearch_2526_3,,2025.2.4,2026-02-18 11h26.30.504443 +0100,
vertical.xlsx,The target is tilted.,135,0,0,0,0,1,1,1,0,0,0,0,0,0,0,0,1,3,4,135,space,30.80210369999986,None,0,1,1.3921736999998302,None,space,2.101565100000016,None,0,0,0,1,,,,,0,0,0,6,199.4858698999999,,,,,,,,,,,,,,,,,,,,,199.48206929999992,199.4858698999999,199.9697173999998,199.97370389999992,199.99299309999992,201.3870505,,,,,201.38730069999997,201.40207429999987,201.60231409999983,201.5862937999998,,197.32901809999998,197.3369856999998,197.3369856999998,199.45367409999994,space,2.101565100000016,None,0,1,1.3921736999998302,None,,,,,,,,842,24,V,R,2026-02-18_11h26.30.084,VisualSearch_2526_3,,2025.2.4,2026-02-18 11h26.30.504443 +0100,
vertical.xlsx,The target is tilted.,135,1,1,0,1,0,0,0,0,0,0,0,0,0,0,0,0,0,1,135,space,30.80210369999986,None,1,1,0.788586099999975,None,space,2.101565100000016,None,0,0,0,1,,,,,0,1,1,3,201.60231409999983,,,,,,,,,,,,,,,,,,,,,201.5871669999999,201.60231409999983,202.08656469999983,202.09135419999984,202.10214439999982,202.9019434999998,,,,,202.9020665999999,202.9179526999999,,203.1022579999999,202.10214439999982,,,,,,,,1,1,0.788586099999975,None,,,,,,,,842,24,V,R,2026-02-18_11h26.30.084,VisualSearch_2526_3,,2025.2.4,2026-02-18 11h26.30.504443 +0100,
vertical.xlsx,The target is tilted.,135,2,2,0,1,1,1,1,1,1,1,1,1,1,1,1,0,11,12,135,space,30.80210369999986,None,1,1,1.115282999999863,None,space,2.101565100000016,None,0,0,0,1,,,,,0,2,2,0,203.11858869999992,,,,,,,,,,,,,,,,,,,,,203.1032151999998,203.11858869999992,203.60223189999988,203.60782329999984,203.62948699999993,204.75224639999988,,,,,204.7523994999999,204.7673805999998,204.96790929999997,204.95166259999996,,,,,,,,,1,1,1.115282999999863,None,,,,,,,,842,24,V,R,2026-02-18_11h26.30.084,VisualSearch_2526_3,,2025.2.4,2026-02-18 11h26.30.504443 +0100,
vertical.xlsx,The target is tilted.,135,3,3,0,0,0,0,0,0,0,0,0,0,0,0,0,1,1,1,135,space,30.80210369999986,None,0,1,0.7906849000000875,None,space,2.101565100000016,None,0,0,0,1,,,,,0,3,3,7,204.96790929999997,,,,,,,,,,,,,,,,,,,,,204.9522854999998,204.96790929999997,205.4519383999998,205.45760849999988,205.47982449999995,206.28502119999985,,,,,206.28527689999987,206.30046909999987,206.5007877999999,206.48480169999993,205.47982449999995,,,,,,,,0,1,0.7906849000000875,None,,,,,,,,842,24,V,R,2026-02-18_11h26.30.084,VisualSearch_2526_3,,2025.2.4,2026-02-18 11h26.30.504443 +0100,
vertical.xlsx,The target is tilted.,135,4,4,0,0,1,1,1,1,1,1,1,1,1,1,1,1,11,12,135,space,30.80210369999986,None,0,1,2.1212112000000616,None,space,2.101565100000016,None,0,0,0,1,,,,,0,4,4,4,206.5007877999999,,,,,,,,,,,,,,,,,,,,,206.48561999999993,206.5007877999999,206.98465409999994,206.98951739999984,207.00048059999995,209.13407069999994,,,,,209.13433529999998,209.14952169999992,209.34965409999995,209.3339246999999,207.00048059999995,,,,,,,,0,1,2.1212112000000616,None,,,,,,,,842,24,V,R,2026-02-18_11h26.30.084,VisualSearch_2526_3,,2025.2.4,2026-02-18 11h26.30.504443 +0100,
vertical.xlsx,The target is tilted.,135,5,5,0,1,1,1,1,1,1,1,1,0,0,0,0,0,7,8,135,space,30.80210369999986,None,1,1,0.7391009999998914,None,space,2.101565100000016,None,0,0,0,1,,,,,0,5,5,1,209.34965409999995,,,,,,,,,,,,,,,,,,,,,209.3347177999999,209.34965409999995,209.83377199999995,209.8391383999999,209.86170399999992,210.61687229999984,,,,,210.61709669999982,210.6323903,210.83286049999992,210.81660779999993,209.86170399999992,,,,,,,,1,1,0.7391009999998914,None,,,,,,,,842,24,V,R,2026-02-18_11h26.30.084,VisualSearch_2526_3,,2025.2.4,2026-02-18 11h26.30.504443 +0100,
vertical.xlsx,The target is tilted.,135,6,6,0,1,1,1,1,0,0,0,0,0,0,0,0,0,3,4,135,space,30.80210369999986,None,1,1,0.8398941000000377,None,space,2.101565100000016,None,0,0,0,1,,,,,0,6,6,2,210.83286049999992,,,,,,,,,,,,,,,,,,,,,210.81746699999985,210.83286049999992,211.3165823999998,211.32204719999982,211.34414089999996,212.19968799999992,,,,,212.19991729999992,212.2150663,212.41555859999994,212.3994370999999,211.34414089999996,,,,,,,,1,1,0.8398941000000377,None,,,,,,,,842,24,V,R,2026-02-18_11h26.30.084,VisualSearch_2526_3,,2025.2.4,2026-02-18 11h26.30.504443 +0100,
vertical.xlsx,The target is tilted.,135,7,7,0,0,1,1,1,1,1,1,1,0,0,0,0,1,7,8,135,space,30.80210369999986,None,0,1,1.2855246000001443,None,space,2.101565100000016,None,0,0,0,1,,,,,0,7,7,5,212.41555859999994,,,,,,,,,,,,,,,,,,,,,212.4003042999998,212.41555859999994,212.89939549999986,212.90482339999994,212.92702599999984,214.2160210999998,,,,,214.21624299999985,214.2312367999998,214.43163659999982,214.41518419999989,212.92702599999984,,,,,,,,0,1,1.2855246000001443,None,,,,,,,,842,24,V,R,2026-02-18_11h26.30.084,VisualSearch_2526_3,,2025.2.4,2026-02-18 11h26.30.504443 +0100,
vertical.xlsx,The target is tilted.,135,8,0,1,1,0,0,0,0,0,0,0,0,0,0,0,0,0,1,135,space,30.80210369999986,None,1,1,0.5541077000000314,None,space,2.101565100000016,None,0,0,0,1,,,,,1,0,8,3,214.43163659999982,,,,,,,,,,,,,,,,,,,,,214.41607369999997,214.43163659999982,214.91502809999997,214.92044639999995,214.94222389999982,215.49907399999984,,,,,215.4993179999999,215.51406569999995,215.71443339999996,215.69845579999992,214.94222389999982,,,,,,,,1,1,0.5541077000000314,None,,,,,,,,842,24,V,R,2026-02-18_11h26.30.084,VisualSearch_2526_3,,2025.2.4,2026-02-18 11h26.30.504443 +0100,
vertical.xlsx,The target is tilted.,135,9,1,1,0,1,1,1,1,1,1,1,0,0,0,0,1,7,8,135,space,30.80210369999986,None,0,1,1.4361216999998305,None,space,2.101565100000016,None,0,0,0,1,,,,,1,1,9,5,215.71443339999996,,,,,,,,,,,,,,,,,,,,,215.6992745,215.71443339999996,216.1983674999999,216.20379319999984,216.22538309999982,217.6649458999998,,,,,217.6651715999999,217.68012129999988,217.88011319999987,217.86398969999982,216.22538309999982,,,,,,,,0,1,1.4361216999998305,None,,,,,,,,842,24,V,R,2026-02-18_11h26.30.084,VisualSearch_2526_3,,2025.2.4,2026-02-18 11h26.30.504443 +0100,
vertical.xlsx,The target is tilted.,135,10,2,1,1,1,1,1,1,1,1,1,0,0,0,0,0,7,8,135,space,30.80210369999986,None,1,1,0.9758855999998559,None,space,2.101565100000016,None,0,0,0,1,,,,,1,2,10,1,217.88011319999987,,,,,,,,,,,,,,,,,,,,,217.86486409999998,217.88011319999987,218.36433999999986,218.3692908999999,218.37997099999984,219.36444819999997,,,,,219.36469679999982,219.37947969999982,219.57998209999982,219.56430299999988,218.37997099999984,,,,,,,,1,1,0.9758855999998559,None,,,,,,,,842,24,V,R,2026-02-18_11h26.30.084,VisualSearch_2526_3,,2025.2.4,2026-02-18 11h26.30.504443 +0100,
vertical.xlsx,The target is tilted.,135,11,3,1,1,1,1,1,0,0,0,0,0,0,0,0,0,3,4,135,space,30.80210369999986,None,1,1,0.586602399999947,None,space,2.101565100000016,None,0,0,0,1,,,,,1,3,11,2,219.57998209999982,,,,,,,,,,,,,,,,,,,,,219.5651436999999,219.57998209999982,220.06379349999997,220.06939339999985,220.0912113999998,220.6804841999999,,,,,220.68070869999997,220.6957003,220.8961178999998,220.8801993999998,220.0912113999998,,,,,,,,1,1,0.586602399999947,None,,,,,,,,842,24,V,R,2026-02-18_11h26.30.084,VisualSearch_2526_3,,2025.2.4,2026-02-18 11h26.30.504443 +0100,
vertical.xlsx,The target is tilted.,135,12,4,1,0,1,1,1,1,1,1,1,1,1,1,1,1,11,12,135,space,30.80210369999986,None,0,1,1.3335356000000047,None,space,2.101565100000016,None,0,0,0,1,,,,,1,4,12,4,220.8961178999998,,,,,,,,,,,,,,,,,,,,,220.8810411999998,220.8961178999998,221.38005699999985,221.38563699999986,221.4065208999998,222.7467400999999,,,,,222.7470097999999,222.761712,222.9621854999998,222.94608639999979,221.4065208999998,,,,,,,,0,1,1.3335356000000047,None,,,,,,,,842,24,V,R,2026-02-18_11h26.30.084,VisualSearch_2526_3,,2025.2.4,2026-02-18 11h26.30.504443 +0100,
vertical.xlsx,The target is tilted.,135,13,5,1,1,1,1,1,1,1,1,1,1,1,1,1,0,11,12,135,space,30.80210369999986,None,1,1,1.0453664000001481,None,space,2.101565100000016,None,0,0,0,1,,,,,1,5,13,0,222.9621854999998,,,,,,,,,,,,,,,,,,,,,222.9469545999998,222.9621854999998,223.44577549999985,223.45121679999988,223.47248019999984,224.5295572,,,,,224.5298135999999,224.54422339999996,224.74464009999997,224.72845989999996,223.47248019999984,,,,,,,,1,1,1.0453664000001481,None,,,,,,,,842,24,V,R,2026-02-18_11h26.30.084,VisualSearch_2526_3,,2025.2.4,2026-02-18 11h26.30.504443 +0100,
vertical.xlsx,The target is tilted.,135,14,6,1,0,0,0,0,0,0,0,0,0,0,0,0,1,1,1,135,space,30.80210369999986,None,0,1,0.603723299999956,None,space,2.101565100000016,None,0,0,0,1,,,,,1,6,14,7,224.74464009999997,,,,,,,,,,,,,,,,,,,,,224.72926479999978,224.74464009999997,225.2287311,225.23463679999986,225.25611159999994,225.86183749999987,,,,,225.86201729999993,225.87740559999997,226.07786899999996,226.06189029999996,225.25611159999994,,,,,,,,0,1,0.603723299999956,None,,,,,,,,842,24,V,R,2026-02-18_11h26.30.084,VisualSearch_2526_3,,2025.2.4,2026-02-18 11h26.30.504443 +0100,
vertical.xlsx,The target is tilted.,135,15,7,1,0,1,1,1,0,0,0,0,0,0,0,0,1,3,4,135,space,30.80210369999986,None,0,1,0.6993646000000808,None,space,2.101565100000016,None,0,0,0,1,,,,,1,7,15,6,226.07786899999996,,,,,,,,,,,,,,,,,,,,,226.0627169999998,226.07786899999996,226.56170749999978,226.56719669999984,226.5893678,227.29527529999996,,,,,227.29555789999995,227.31027729999983,227.51070379999987,227.49463789999982,226.5893678,,,,,,,,0,1,0.6993646000000808,None,,,,,,,,842,24,V,R,2026-02-18_11h26.30.084,VisualSearch_2526_3,,2025.2.4,2026-02-18 11h26.30.504443 +0100,
vertical.xlsx,The target is tilted.,135,16,0,2,1,0,0,0,0,0,0,0,0,0,0,0,0,0,1,135,space,30.80210369999986,None,1,1,0.635748299999932,None,space,2.101565100000016,None,0,0,0,1,,,,,2,0,16,3,227.51070379999987,,,,,,,,,,,,,,,,,,,,,227.4955726999999,227.51070379999987,227.9945361,227.9994995999998,228.01030979999996,228.66019989999995,,,,,228.6603217999998,228.67618919999995,228.87679879999996,228.86041349999982,228.01030979999996,,,,,,,,1,1,0.635748299999932,None,,,,,,,,842,24,V,R,2026-02-18_11h26.30.084,VisualSearch_2526_3,,2025.2.4,2026-02-18 11h26.30.504443 +0100,
vertical.xlsx,The target is tilted.,135,17,1,2,1,1,1,1,0,0,0,0,0,0,0,0,0,3,4,135,space,30.80210369999986,None,1,1,0.8730763000000934,None,space,2.101565100000016,None,0,0,0,1,,,,,2,1,17,2,228.87679879999996,,,,,,,,,,,,,,,,,,,,,228.86124759999984,228.87679879999996,229.36048659999983,229.36602279999988,229.38767469999993,230.27632019999987,,,,,230.27645089999987,230.29290739999988,,230.47667619999993,,,,,,,,,1,1,0.8730763000000934,None,,,,,,,,842,24,V,R,2026-02-18_11h26.30.084,VisualSearch_2526_3,,2025.2.4,2026-02-18 11h26.30.504443 +0100,
vertical.xlsx,The target is tilted.,135,18,2,2,0,0,0,0,0,0,0,0,0,0,0,0,1,1,1,135,space,30.80210369999986,None,0,1,0.6122487000000092,None,space,2.101565100000016,None,0,0,0,1,,,,,2,2,18,7,230.49304489999986,,,,,,,,,,,,,,,,,,,,,230.4775193999999,230.49304489999986,230.97658629999978,230.98166149999997,231.00249059999987,231.6259081999999,,,,,231.62602779999997,231.6419841999998,,231.8262209999998,231.00249059999987,,,,,,,,0,1,0.6122487000000092,None,,,,,,,,842,24,V,R,2026-02-18_11h26.30.084,VisualSearch_2526_3,,2025.2.4,2026-02-18 11h26.30.504443 +0100,
vertical.xlsx,The target is tilted.,135,19,3,2,0,1,1,1,0,0,0,0,0,0,0,0,1,3,4,135,space,30.80210369999986,None,0,1,0.6846291000001656,None,space,2.101565100000016,None,0,0,0,1,,,,,2,3,19,6,231.84266719999982,,,,,,,,,,,,,,,,,,,,,231.82708359999992,231.84266719999982,232.3263619999998,232.3315224999999,232.34223759999986,233.04297739999993,,,,,233.0431994999999,233.0583689,233.25883199999998,233.2429886,232.34223759999986,,,,,,,,0,1,0.6846291000001656,None,,,,,,,,842,24,V,R,2026-02-18_11h26.30.084,VisualSearch_2526_3,,2025.2.4,2026-02-18 11h26.30.504443 +0100,
vertical.xlsx,The target is tilted.,135,20,4,2,1,1,1,1,1,1,1,1,0,0,0,0,0,7,8,135,space,30.80210369999986,None,1,1,0.8198388000000705,None,space,2.101565100000016,None,0,0,0,1,,,,,2,4,20,1,233.25883199999998,,,,,,,,,,,,,,,,,,,,,233.24380969999993,233.25883199999998,233.7426026999999,233.7480880999999,233.7697796,234.59305889999996,,,,,234.59327949999988,234.60792909999986,234.8082241999998,234.79212489999986,233.7697796,,,,,,,,1,1,0.8198388000000705,None,,,,,,,,842,24,V,R,2026-02-18_11h26.30.084,VisualSearch_2526_3,,2025.2.4,2026-02-18 11h26.30.504443 +0100,
vertical.xlsx,The target is tilted.,135,21,5,2,1,1,1,1,1,1,1,1,1,1,1,1,0,11,12,135,space,30.80210369999986,None,1,1,0.895772099999931,None,space,2.101565100000016,None,0,0,0,1,,,,,2,5,21,0,234.8082241999998,,,,,,,,,,,,,,,,,,,,,234.79295249999996,234.8082241999998,235.29219569999987,235.29773549999982,235.31924959999992,236.22540759999993,,,,,236.2256527999998,236.2406183999999,236.4411759999998,236.42492149999998,235.31924959999992,,,,,,,,1,1,0.895772099999931,None,,,,,,,,842,24,V,R,2026-02-18_11h26.30.084,VisualSearch_2526_3,,2025.2.4,2026-02-18 11h26.30.504443 +0100,
vertical.xlsx,The target is tilted.,135,22,6,2,0,1,1,1,1,1,1,1,0,0,0,0,1,7,8,135,space,30.80210369999986,None,0,1,1.3547900999999456,None,space,2.101565100000016,None,0,0,0,1,,,,,2,6,22,5,236.4411759999998,,,,,,,,,,,,,,,,,,,,,236.42575569999985,236.4411759999998,236.9248978999999,236.9302978999999,236.95211889999996,238.30814399999986,,,,,238.30838329999983,238.32340899999986,238.52376679999998,238.50767199999996,236.95211889999996,,,,,,,,0,1,1.3547900999999456,None,,,,,,,,842,24,V,R,2026-02-18_11h26.30.084,VisualSearch_2526_3,,2025.2.4,2026-02-18 11h26.30.504443 +0100,
vertical.xlsx,The target is tilted.,135,23,7,2,0,1,1,1,1,1,1,1,1,1,1,1,1,11,12,135,space,30.80210369999986,None,0,1,2.053951700000198,None,space,2.101565100000016,None,0,0,0,1,,,,,2,7,23,4,238.52376679999998,,,,,,,,,,,,,,,,,,,,,238.5085838,238.52376679999998,239.00742189999983,239.0129669999999,239.03437399999984,241.0904043999999,,,,,241.0906298,241.10551399999986,241.3061608999999,241.29021309999985,239.03437399999984,,,,,,,,0,1,2.053951700000198,None,,,,,,,,842,24,V,R,2026-02-18_11h26.30.084,VisualSearch_2526_3,,2025.2.4,2026-02-18 11h26.30.504443 +0100,
vertical.xlsx,The target is tilted.,135,24,0,3,1,0,0,0,0,0,0,0,0,0,0,0,0,0,1,135,space,30.80210369999986,None,1,1,0.5746490000001359,None,space,2.101565100000016,None,0,0,0,1,,,,,3,0,24,3,241.3061608999999,,,,,,,,,,,,,,,,,,,,,241.29103639999994,241.3061608999999,241.7899642,241.79536659999985,241.81688039999995,242.4056819,,,,,242.40580209999985,242.42179979999992,,242.60595899999998,241.81688039999995,,,,,,,,1,1,0.5746490000001359,None,,,,,,,,842,24,V,R,2026-02-18_11h26.30.084,VisualSearch_2526_3,,2025.2.4,2026-02-18 11h26.30.504443 +0100,
vertical.xlsx,The target is tilted.,135,25,1,3,0,1,1,1,1,1,1,1,1,1,1,1,1,11,12,135,space,30.80210369999986,None,0,1,1.7548518999999487,None,space,2.101565100000016,None,0,0,0,1,,,,,3,1,25,4,242.62247059999982,,,,,,,,,,,,,,,,,,,,,242.60684249999986,242.62247059999982,243.1061691,243.11155669999994,243.13328809999985,244.8894997,,,,,244.8897781999999,244.90420169999993,245.10456079999994,245.0889514999999,243.13328809999985,,,,,,,,0,1,1.7548518999999487,None,,,,,,,,842,24,V,R,2026-02-18_11h26.30.084,VisualSearch_2526_3,,2025.2.4,2026-02-18 11h26.30.504443 +0100,
vertical.xlsx,The target is tilted.,135,26,2,3,1,1,1,1,1,1,1,1,1,1,1,1,0,11,12,135,space,30.80210369999986,None,1,1,1.807244399999945,None,space,2.101565100000016,None,0,0,0,1,,,,,3,2,26,0,245.10456079999994,,,,,,,,,,,,,,,,,,,,,245.08975599999985,245.10456079999994,245.58864489999996,245.59410909999997,245.61569059999988,247.43822849999992,,,,,247.43845399999987,247.45365459999994,247.6541404999998,247.63804119999986,245.61569059999988,,,,,,,,1,1,1.807244399999945,None,,,,,,,,842,24,V,R,2026-02-18_11h26.30.084,VisualSearch_2526_3,,2025.2.4,2026-02-18 11h26.30.504443 +0100,
vertical.xlsx,The target is tilted.,135,27,3,3,1,1,1,1,1,1,1,1,0,0,0,0,0,7,8,135,space,30.80210369999986,None,1,1,1.4873454000000947,None,space,2.101565100000016,None,0,0,0,1,,,,,3,3,27,1,247.6541404999998,,,,,,,,,,,,,,,,,,,,,247.6388387999998,247.6541404999998,248.13802899999996,248.14352669999994,248.1652979999999,249.65461969999978,,,,,249.65487759999996,249.6695995,249.8700042999999,249.85382119999986,248.1652979999999,,,,,,,,1,1,1.4873454000000947,None,,,,,,,,842,24,V,R,2026-02-18_11h26.30.084,VisualSearch_2526_3,,2025.2.4,2026-02-18 11h26.30.504443 +0100,
vertical.xlsx,The target is tilted.,135,28,4,3,0,1,1,1,1,1,1,1,0,0,0,0,1,7,8,135,space,30.80210369999986,None,0,1,1.6791961999999785,None,space,2.101565100000016,None,0,0,0,1,,,,,3,4,28,5,249.8700042999999,,,,,,,,,,,,,,,,,,,,,249.85465179999983,249.8700042999999,250.3535195999998,250.35890419999987,250.38026379999997,252.07064289999994,,,,,252.07087009999987,252.08524179999995,252.2859031999999,252.26988979999987,250.38026379999997,,,,,,,,0,1,1.6791961999999785,None,,,,,,,,842,24,V,R,2026-02-18_11h26.30.084,VisualSearch_2526_3,,2025.2.4,2026-02-18 11h26.30.504443 +0100,
vertical.xlsx,The target is tilted.,135,29,5,3,0,0,0,0,0,0,0,0,0,0,0,0,1,1,1,135,space,30.80210369999986,None,0,1,1.256934099999853,None,space,2.101565100000016,None,0,0,0,1,,,,,3,5,29,7,252.2859031999999,,,,,,,,,,,,,,,,,,,,,252.27067939999984,252.2859031999999,252.76959939999983,252.77509179999993,252.7966323999999,254.06931839999993,,,,,254.06954359999986,254.0847640999998,254.28505819999987,254.26952459999984,252.7966323999999,,,,,,,,0,1,1.256934099999853,None,,,,,,,,842,24,V,R,2026-02-18_11h26.30.084,VisualSearch_2526_3,,2025.2.4,2026-02-18 11h26.30.504443 +0100,
vertical.xlsx,The target is tilted.,135,30,6,3,0,1,1,1,0,0,0,0,0,0,0,0,1,3,4,135,space,30.80210369999986,None,0,1,0.814891500000158,None,space,2.101565100000016,None,0,0,0,1,,,,,3,6,30,6,254.28505819999987,,,,,,,,,,,,,,,,,,,,,254.2707023999999,254.28505819999987,254.76914909999982,254.77460189999988,254.7960450999999,255.61942509999994,,,,,255.61964949999992,255.634325,255.8344353,255.81880819999992,254.7960450999999,,,,,,,,0,1,0.814891500000158,None,,,,,,,,842,24,V,R,2026-02-18_11h26.30.084,VisualSearch_2526_3,,2025.2.4,2026-02-18 11h26.30.504443 +0100,
vertical.xlsx,The target is tilted.,135,31,7,3,1,1,1,1,0,0,0,0,0,0,0,0,0,3,4,135,space,30.80210369999986,None,1,1,1.1102213000001484,None,space,2.101565100000016,None,0,0,0,1,,,,,3,7,31,2,255.8344353,,,,,,,,,,,,,,,,,,,,,255.8196446999998,255.8344353,256.31859899999995,256.32417539999983,256.3453046999998,257.46749309999996,,,,,257.4676155999998,257.48340029999986,257.6840362999999,257.6676636999998,256.3453046999998,,,,,,,,1,1,1.1102213000001484,None,,,,,,,,842,24,V,R,2026-02-18_11h26.30.084,VisualSearch_2526_3,,2025.2.4,2026-02-18 11h26.30.504443 +0100,
vertical.xlsx,The target is tilted.,135,32,0,4,1,0,0,0,0,0,0,0,0,0,0,0,0,0,1,135,space,30.80210369999986,None,1,1,0.6728109999999106,None,space,2.101565100000016,None,0,0,0,1,,,,,4,0,32,3,257.6840362999999,,,,,,,,,,,,,,,,,,,,,257.6684886999999,257.6840362999999,258.1679092999998,258.1734127999998,258.195649,258.88367289999997,,,,,258.8837948999999,258.89966579999987,,259.08405719999996,258.195649,,,,,,,,1,1,0.6728109999999106,None,,,,,,,,842,24,V,R,2026-02-18_11h26.30.084,VisualSearch_2526_3,,2025.2.4,2026-02-18 11h26.30.504443 +0100,
vertical.xlsx,The target is tilted.,135,33,1,4,1,1,1,1,1,1,1,1,0,0,0,0,0,7,8,135,space,30.80210369999986,None,1,1,1.6277804999999717,None,space,2.101565100000016,None,0,0,0,1,,,,,4,1,33,1,259.1003567999999,,,,,,,,,,,,,,,,,,,,,259.08491489999983,259.1003567999999,259.58394539999995,259.58936789999984,259.6103324999999,261.25033399999984,,,,,261.25055999999995,261.2657969999998,261.4662937999999,261.45022989999984,,,,,,,,,1,1,1.6277804999999717,None,,,,,,,,842,24,V,R,2026-02-18_11h26.30.084,VisualSearch_2526_3,,2025.2.4,2026-02-18 11h26.30.504443 +0100,
vertical.xlsx,The target is tilted.,135,34,2,4,0,0,0,0,0,0,0,0,0,0,0,0,1,1,1,135,space,30.80210369999986,None,0,1,0.5967229000000316,None,space,2.101565100000016,None,0,0,0,1,,,,,4,2,34,7,261.4662937999999,,,,,,,,,,,,,,,,,,,,,261.45109849999994,261.4662937999999,261.95009289999985,261.9557553999998,261.978118,262.58378789999983,,,,,262.5840377999998,262.5984713999999,262.7991645999998,262.7831566,261.978118,,,,,,,,0,1,0.5967229000000316,None,,,,,,,,842,24,V,R,2026-02-18_11h26.30.084,VisualSearch_2526_3,,2025.2.4,2026-02-18 11h26.30.504443 +0100,
vertical.xlsx,The target is tilted.,135,35,3,4,0,1,1,1,1,1,1,1,0,0,0,0,1,7,8,135,space,30.80210369999986,None,0,1,1.4254631000001154,None,space,2.101565100000016,None,0,0,0,1,,,,,4,3,35,5,262.7991645999998,,,,,,,,,,,,,,,,,,,,,262.7839803999998,262.7991645999998,263.2828708999998,263.2882947999999,263.3092122999999,264.7492165000001,,,,,264.7494442999998,264.7646397000001,264.96494529999995,264.94956979999984,263.3092122999999,,,,,,,,0,1,1.4254631000001154,None,,,,,,,,842,24,V,R,2026-02-18_11h26.30.084,VisualSearch_2526_3,,2025.2.4,2026-02-18 11h26.30.504443 +0100,
vertical.xlsx,The target is tilted.,135,36,4,4,1,1,1,1,1,1,1,1,1,1,1,1,0,11,12,135,space,30.80210369999986,None,1,1,1.2194086999998035,None,space,2.101565100000016,None,0,0,0,1,,,,,4,4,36,0,264.96494529999995,,,,,,,,,,,,,,,,,,,,,264.9504294000001,264.96494529999995,265.4490195000001,265.45454029999996,265.47614279999993,266.6987684999997,,,,,266.69899250000003,266.7140333,266.9143670000001,266.8983734000001,265.47614279999993,,,,,,,,1,1,1.2194086999998035,None,,,,,,,,842,24,V,R,2026-02-18_11h26.30.084,VisualSearch_2526_3,,2025.2.4,2026-02-18 11h26.30.504443 +0100,
vertical.xlsx,The target is tilted.,135,37,5,4,1,1,1,1,0,0,0,0,0,0,0,0,0,3,4,135,space,30.80210369999986,None,1,1,0.6986264000001938,None,space,2.101565100000016,None,0,0,0,1,,,,,4,5,37,2,266.9143670000001,,,,,,,,,,,,,,,,,,,,,266.89916919999973,266.9143670000001,267.3981879999999,267.4035100999997,267.42274889999976,268.13076419999993,,,,,268.13089190000005,268.1466337999998,268.34734090000006,268.33124759999987,267.42274889999976,,,,,,,,1,1,0.6986264000001938,None,,,,,,,,842,24,V,R,2026-02-18_11h26.30.084,VisualSearch_2526_3,,2025.2.4,2026-02-18 11h26.30.504443 +0100,
vertical.xlsx,The target is tilted.,135,38,6,4,0,1,1,1,1,1,1,1,1,1,1,1,1,11,12,135,space,30.80210369999986,None,0,1,1.7562127000001055,None,space,2.101565100000016,None,0,0,0,1,,,,,4,6,38,4,268.34734090000006,,,,,,,,,,,,,,,,,,,,,268.33208279999985,268.34734090000006,268.8311705999997,268.83715819999975,268.8587166,270.63031810000007,,,,,270.6305692999997,270.64595829999985,270.84638689999997,270.83014019999996,268.8587166,,,,,,,,0,1,1.7562127000001055,None,,,,,,,,842,24,V,R,2026-02-18_11h26.30.084,VisualSearch_2526_3,,2025.2.4,2026-02-18 11h26.30.504443 +0100,
vertical.xlsx,The target is tilted.,135,39,7,4,0,1,1,1,0,0,0,0,0,0,0,0,1,3,4,135,space,30.80210369999986,None,0,1,0.6367396000000554,None,space,2.101565100000016,None,0,0,0,1,,,,,4,7,39,6,270.84638689999997,,,,,,,,,,,,,,,,,,,,,270.8309431,270.84638689999997,271.3303352999999,271.33573779999983,271.3571894999998,271.9973441999998,,,,,271.99759040000004,272.0120454999999,272.2125980999997,272.1963011,271.3571894999998,,,,,,,,0,1,0.6367396000000554,None,,,,,,,,842,24,V,R,2026-02-18_11h26.30.084,VisualSearch_2526_3,,2025.2.4,2026-02-18 11h26.30.504443 +0100,
vertical.xlsx,The target is tilted.,135,40,0,5,1,1,1,1,1,1,1,1,0,0,0,0,0,7,8,135,space,30.80210369999986,None,1,1,0.6210191999998642,None,space,2.101565100000016,None,0,0,0,1,,,,,5,0,40,1,272.2125980999997,,,,,,,,,,,,,,,,,,,,,272.1971329999999,272.2125980999997,272.69636909999986,272.70185190000007,272.72320680000007,273.34683870000003,,,,,273.34713309999984,273.36185969999974,273.56228529999976,273.54615499999977,272.72320680000007,,,,,,,,1,1,0.6210191999998642,None,,,,,,,,842,24,V,R,2026-02-18_11h26.30.084,VisualSearch_2526_3,,2025.2.4,2026-02-18 11h26.30.504443 +0100,
vertical.xlsx,The target is tilted.,135,41,1,5,0,1,1,1,0,0,0,0,0,0,0,0,1,3,4,135,space,30.80210369999986,None,0,1,0.6507151000000704,None,space,2.101565100000016,None,0,0,0,1,,,,,5,1,41,6,273.56228529999976,,,,,,,,,,,,,,,,,,,,,273.54696039999976,273.56228529999976,274.0460562999999,274.05153099999984,274.07320939999977,274.729771,,,,,274.7300356999997,274.74473379999995,274.94506959999967,274.9291579999997,274.07320939999977,,,,,,,,0,1,0.6507151000000704,None,,,,,,,,842,24,V,R,2026-02-18_11h26.30.084,VisualSearch_2526_3,,2025.2.4,2026-02-18 11h26.30.504443 +0100,
vertical.xlsx,The target is tilted.,135,42,2,5,0,1,1,1,1,1,1,1,1,1,1,1,1,11,12,135,space,30.80210369999986,None,0,1,3.4367465999998785,None,space,2.101565100000016,None,0,0,0,1,,,,,5,2,42,4,274.94506959999967,,,,,,,,,,,,,,,,,,,,,274.93002139999976,274.94506959999967,275.4289646,275.4343987999998,275.4549442,278.8949780999999,,,,,278.8952314999999,278.9099955999998,279.11047299999996,279.0944956999999,275.4549442,,,,,,,,0,1,3.4367465999998785,None,,,,,,,,842,24,V,R,2026-02-18_11h26.30.084,VisualSearch_2526_3,,2025.2.4,2026-02-18 11h26.30.504443 +0100,
vertical.xlsx,The target is tilted.,135,43,3,5,1,1,1,1,1,1,1,1,1,1,1,1,0,11,12,135,space,30.80210369999986,None,1,1,1.7898560000003272,None,space,2.101565100000016,None,0,0,0,1,,,,,5,3,43,0,279.11047299999996,,,,,,,,,,,,,,,,,,,,,279.09532319999994,279.11047299999996,279.59427249999976,279.59964149999973,279.6211563999998,281.42707659999974,,,,,281.4273066999997,281.4425061999998,281.6429765999999,281.6267664999998,279.6211563999998,,,,,,,,1,1,1.7898560000003272,None,,,,,,,,842,24,V,R,2026-02-18_11h26.30.084,VisualSearch_2526_3,,2025.2.4,2026-02-18 11h26.30.504443 +0100,
vertical.xlsx,The target is tilted.,135,44,4,5,1,1,1,1,0,0,0,0,0,0,0,0,0,3,4,135,space,30.80210369999986,None,1,1,0.647660999999971,None,space,2.101565100000016,None,0,0,0,1,,,,,5,4,44,2,281.6429765999999,,,,,,,,,,,,,,,,,,,,,281.6276135999999,281.6429765999999,282.12667529999976,282.13282909999975,282.1540276999997,282.810514,,,,,282.8107404,282.82536289999985,283.02588119999996,283.0097195000001,282.1540276999997,,,,,,,,1,1,0.647660999999971,None,,,,,,,,842,24,V,R,2026-02-18_11h26.30.084,VisualSearch_2526_3,,2025.2.4,2026-02-18 11h26.30.504443 +0100,
vertical.xlsx,The target is tilted.,135,45,5,5,0,1,1,1,1,1,1,1,0,0,0,0,1,7,8,135,space,30.80210369999986,None,0,1,1.0620398000000932,None,space,2.101565100000016,None,0,0,0,1,,,,,5,5,45,5,283.02588119999996,,,,,,,,,,,,,,,,,,,,,283.0105390000001,283.02588119999996,283.50961540000003,283.5151011999999,283.53661469999975,284.6098405,,,,,284.6101003000001,284.6245292000001,284.8251269,284.8092028999997,283.53661469999975,,,,,,,,0,1,1.0620398000000932,None,,,,,,,,842,24,V,R,2026-02-18_11h26.30.084,VisualSearch_2526_3,,2025.2.4,2026-02-18 11h26.30.504443 +0100,
vertical.xlsx,The target is tilted.,135,46,6,5,1,0,0,0,0,0,0,0,0,0,0,0,0,0,1,135,space,30.80210369999986,None,1,1,0.5868147999999564,None,space,2.101565100000016,None,0,0,0,1,,,,,5,6,46,3,284.8251269,,,,,,,,,,,,,,,,,,,,,284.81000229999995,284.8251269,285.3086969999997,285.3140664,285.3358747,285.9258631,,,,,285.9260876999999,285.9411149,286.1414001999999,286.12538930000005,285.3358747,,,,,,,,1,1,0.5868147999999564,None,,,,,,,,842,24,V,R,2026-02-18_11h26.30.084,VisualSearch_2526_3,,2025.2.4,2026-02-18 11h26.30.504443 +0100,
vertical.xlsx,The target is tilted.,135,47,7,5,0,0,0,0,0,0,0,0,0,0,0,0,1,1,1,135,space,30.80210369999986,None,0,1,0.43972329999996873,None,space,2.101565100000016,None,0,0,0,1,,,,,5,7,47,7,286.1414001999999,,,,,,,,,,,,,,,,,,,,,286.1261836000001,286.1414001999999,286.6249019999998,286.63042010000004,286.6513110999997,287.0922662999999,,,,,287.09250739999993,287.1073608999998,287.3078374999998,287.2917890000001,286.6513110999997,,,,,,,,0,1,0.43972329999996873,None,,,,,,,,842,24,V,R,2026-02-18_11h26.30.084,VisualSearch_2526_3,,2025.2.4,2026-02-18 11h26.30.504443 +0100,
vertical.xlsx,The target is tilted.,135,48,0,6,1,1,1,1,1,1,1,1,0,0,0,0,0,7,8,135,space,30.80210369999986,None,1,1,0.6648124000003008,None,space,2.101565100000016,None,0,0,0,1,,,,,6,0,48,1,287.3078374999998,,,,,,,,,,,,,,,,,,,,,287.2926384,287.3078374999998,287.7915784999998,287.79718979999984,287.8186887999998,288.4919709999997,,,,,288.4922307999998,288.50688179999975,288.7070312999997,288.69094900000005,287.8186887999998,,,,,,,,1,1,0.6648124000003008,None,,,,,,,,842,24,V,R,2026-02-18_11h26.30.084,VisualSearch_2526_3,,2025.2.4,2026-02-18 11h26.30.504443 +0100,
vertical.xlsx,The target is tilted.,135,49,1,6,1,1,1,1,0,0,0,0,0,0,0,0,0,3,4,135,space,30.80210369999986,None,1,1,0.5101345999996738,None,space,2.101565100000016,None,0,0,0,1,,,,,6,1,49,2,288.7070312999997,,,,,,,,,,,,,,,,,,,,,288.69184040000005,288.7070312999997,289.19094679999967,289.19639759999995,289.2182915000001,289.74074499999983,,,,,289.7409703000001,289.7564252999998,289.9568855,289.94089389999976,289.2182915000001,,,,,,,,1,1,0.5101345999996738,None,,,,,,,,842,24,V,R,2026-02-18_11h26.30.084,VisualSearch_2526_3,,2025.2.4,2026-02-18 11h26.30.504443 +0100,
vertical.xlsx,The target is tilted.,135,50,2,6,0,1,1,1,1,1,1,1,0,0,0,0,1,7,8,135,space,30.80210369999986,None,0,1,1.434357699999964,None,space,2.101565100000016,None,0,0,0,1,,,,,6,2,50,5,289.9568855,,,,,,,,,,,,,,,,,,,,,289.9417467999999,289.9568855,290.44070069999975,290.4461445999998,290.467543,291.90674449999983,,,,,291.90689659999975,291.9222398999998,292.1228329999997,292.10649249999983,290.467543,,,,,,,,0,1,1.434357699999964,None,,,,,,,,842,24,V,R,2026-02-18_11h26.30.084,VisualSearch_2526_3,,2025.2.4,2026-02-18 11h26.30.504443 +0100,
vertical.xlsx,The target is tilted.,135,51,3,6,0,0,0,0,0,0,0,0,0,0,0,0,1,1,1,135,space,30.80210369999986,None,0,1,0.7483609000000797,None,space,2.101565100000016,None,0,0,0,1,,,,,6,3,51,7,292.1228329999997,,,,,,,,,,,,,,,,,,,,,292.1073206999997,292.1228329999997,292.60617449999995,292.6096326999998,292.6237997999999,293.3737423,,,,,293.37398400000006,293.3886654999999,293.58874549999996,293.5728148999999,292.6237997999999,,,,,,,,0,1,0.7483609000000797,None,,,,,,,,842,24,V,R,2026-02-18_11h26.30.084,VisualSearch_2526_3,,2025.2.4,2026-02-18 11h26.30.504443 +0100,
vertical.xlsx,The target is tilted.,135,52,4,6,0,1,1,1,0,0,0,0,0,0,0,0,1,3,4,135,space,30.80210369999986,None,0,1,0.4877516999999898,None,space,2.101565100000016,None,0,0,0,1,,,,,6,4,52,6,293.58874549999996,,,,,,,,,,,,,,,,,,,,,293.5736664999997,293.58874549999996,294.0729604999999,294.0784028999999,294.09995000000004,294.58985389999975,,,,,294.5901259,294.60492739999995,294.8052086,294.7893894000001,294.09995000000004,,,,,,,,0,1,0.4877516999999898,None,,,,,,,,842,24,V,R,2026-02-18_11h26.30.084,VisualSearch_2526_3,,2025.2.4,2026-02-18 11h26.30.504443 +0100,
vertical.xlsx,The target is tilted.,135,53,5,6,1,0,0,0,0,0,0,0,0,0,0,0,0,0,1,135,space,30.80210369999986,None,1,1,0.5008237000001827,None,space,2.101565100000016,None,0,0,0,1,,,,,6,5,53,3,294.8052086,,,,,,,,,,,,,,,,,,,,,294.79024849999973,294.8052086,295.28913009999974,295.2946426000001,295.3161098999997,295.82263080000007,,,,,295.8228541000001,295.8374779999997,296.0382167999999,296.02220639999973,295.3161098999997,,,,,,,,1,1,0.5008237000001827,None,,,,,,,,842,24,V,R,2026-02-18_11h26.30.084,VisualSearch_2526_3,,2025.2.4,2026-02-18 11h26.30.504443 +0100,
vertical.xlsx,The target is tilted.,135,54,6,6,0,1,1,1,1,1,1,1,1,1,1,1,1,11,12,135,space,30.80210369999986,None,0,1,2.148377199999686,None,space,2.101565100000016,None,0,0,0,1,,,,,6,6,54,4,296.0382167999999,,,,,,,,,,,,,,,,,,,,,296.0230005000001,296.0382167999999,296.52214149999986,296.5275906999998,296.54890809999984,298.7052034999999,,,,,298.70548619999977,298.7201875999997,298.9206208999997,298.9046086000001,296.54890809999984,,,,,,,,0,1,2.148377199999686,None,,,,,,,,842,24,V,R,2026-02-18_11h26.30.084,VisualSearch_2526_3,,2025.2.4,2026-02-18 11h26.30.504443 +0100,
vertical.xlsx,The target is tilted.,135,55,7,6,1,1,1,1,1,1,1,1,1,1,1,1,0,11,12,135,space,30.80210369999986,None,1,1,1.9236017000002903,None,space,2.101565100000016,None,0,0,0,1,,,,,6,7,55,0,298.9206208999997,,,,,,,,,,,,,,,,,,,,,298.90541819999976,298.9206208999997,299.40450799999985,299.4099166999997,299.43182909999973,301.3697952,,,,,301.3699143000001,301.38575509999987,,301.5701203000001,299.43182909999973,,,,,,,,1,1,1.9236017000002903,None,,,,,,,,842,24,V,R,2026-02-18_11h26.30.084,VisualSearch_2526_3,,2025.2.4,2026-02-18 11h26.30.504443 +0100,
vertical.xlsx,The target is tilted.,135,56,0,7,0,1,1,1,1,1,1,1,1,1,1,1,1,11,12,135,space,30.80210369999986,None,0,1,1.2943976999999904,None,space,2.101565100000016,None,0,0,0,1,,,,,7,0,56,4,301.5863879000001,,,,,,,,,,,,,,,,,,,,,301.5711288,301.5863879000001,302.0701855,302.07568749999996,302.0932083,303.4032058,,,,,303.40342899999973,303.4186889,303.61910969999985,303.6030838999998,302.0932083,,,,,,,,0,1,1.2943976999999904,None,,,,,,,,842,24,V,R,2026-02-18_11h26.30.084,VisualSearch_2526_3,,2025.2.4,2026-02-18 11h26.30.504443 +0100,
vertical.xlsx,The target is tilted.,135,57,1,7,0,0,0,0,0,0,0,0,0,0,0,0,1,1,1,135,space,30.80210369999986,None,0,1,0.7402775000000474,None,space,2.101565100000016,None,0,0,0,1,,,,,7,1,57,7,303.61910969999985,,,,,,,,,,,,,,,,,,,,,303.6039140999999,303.61910969999985,304.10281269999973,304.10741349999967,304.11864820000005,304.8699320999997,,,,,304.8701659999999,304.8848006999999,305.0851679,305.0692120000001,304.11864820000005,,,,,,,,0,1,0.7402775000000474,None,,,,,,,,842,24,V,R,2026-02-18_11h26.30.084,VisualSearch_2526_3,,2025.2.4,2026-02-18 11h26.30.504443 +0100,
vertical.xlsx,The target is tilted.,135,58,2,7,1,0,0,0,0,0,0,0,0,0,0,0,0,0,1,135,space,30.80210369999986,None,1,1,0.5621470999999474,None,space,2.101565100000016,None,0,0,0,1,,,,,7,2,58,3,305.0851679,,,,,,,,,,,,,,,,,,,,,305.07000330000005,305.0851679,305.5689196999999,305.5744244,305.59598089999986,306.1693958999997,,,,,306.1696472000001,306.18439569999987,306.38456859999974,306.36887379999985,305.59598089999986,,,,,,,,1,1,0.5621470999999474,None,,,,,,,,842,24,V,R,2026-02-18_11h26.30.084,VisualSearch_2526_3,,2025.2.4,2026-02-18 11h26.30.504443 +0100,
vertical.xlsx,The target is tilted.,135,59,3,7,0,1,1,1,0,0,0,0,0,0,0,0,1,3,4,135,space,30.80210369999986,None,0,1,0.9039536999998745,None,space,2.101565100000016,None,0,0,0,1,,,,,7,3,59,6,306.38456859999974,,,,,,,,,,,,,,,,,,,,,306.3697331000001,306.38456859999974,306.8687354000001,306.8749307999999,306.8956735999998,307.8022559999997,,,,,307.8026207999999,307.81731319999994,308.0175972999998,308.0016853999998,306.8956735999998,,,,,,,,0,1,0.9039536999998745,None,,,,,,,,842,24,V,R,2026-02-18_11h26.30.084,VisualSearch_2526_3,,2025.2.4,2026-02-18 11h26.30.504443 +0100,
vertical.xlsx,The target is tilted.,135,60,4,7,1,1,1,1,0,0,0,0,0,0,0,0,0,3,4,135,space,30.80210369999986,None,1,1,0.7496651000001293,None,space,2.101565100000016,None,0,0,0,1,,,,,7,4,60,2,308.0175972999998,,,,,,,,,,,,,,,,,,,,,308.0025141999997,308.0175972999998,308.5014630999997,308.5064513,308.51732100000004,309.26840960000004,,,,,309.2686778,309.2834571000001,309.48380599999996,309.4678363999999,308.51732100000004,,,,,,,,1,1,0.7496651000001293,None,,,,,,,,842,24,V,R,2026-02-18_11h26.30.084,VisualSearch_2526_3,,2025.2.4,2026-02-18 11h26.30.504443 +0100,
vertical.xlsx,The target is tilted.,135,61,5,7,1,1,1,1,1,1,1,1,1,1,1,1,0,11,12,135,space,30.80210369999986,None,1,1,0.9413212999997995,None,space,2.101565100000016,None,0,0,0,1,,,,,7,5,61,0,309.48380599999996,,,,,,,,,,,,,,,,,,,,,309.46863389999976,309.48380599999996,309.96764419999977,309.9730219999999,309.99428999999986,310.9511221,,,,,310.95143170000006,310.9662228999998,311.1665206,311.1504136000001,309.99428999999986,,,,,,,,1,1,0.9413212999997995,None,,,,,,,,842,24,V,R,2026-02-18_11h26.30.084,VisualSearch_2526_3,,2025.2.4,2026-02-18 11h26.30.504443 +0100,
vertical.xlsx,The target is tilted.,135,62,6,7,0,1,1,1,1,1,1,1,0,0,0,0,1,7,8,135,space,30.80210369999986,None,0,1,1.21052200000031,None,space,2.101565100000016,None,0,0,0,1,,,,,7,6,62,5,311.1665206,,,,,,,,,,,,,,,,,,,,,311.15129920000004,311.1665206,311.65042719999997,311.6558493,311.67793030000007,312.9000626999998,,,,,312.9002800999999,312.91545010000004,313.11590509999974,313.09996639999986,311.67793030000007,,,,,,,,0,1,1.21052200000031,None,,,,,,,,842,24,V,R,2026-02-18_11h26.30.084,VisualSearch_2526_3,,2025.2.4,2026-02-18 11h26.30.504443 +0100,
vertical.xlsx,The target is tilted.,135,63,7,7,1,1,1,1,1,1,1,1,0,0,0,0,0,7,8,135,space,30.80210369999986,None,1,1,0.9071291000000201,None,space,2.101565100000016,None,0,0,0,1,,,,,7,7,63,1,313.11590509999974,,,,,,,,,,,,,,,,,,,,,313.1007520999999,313.11590509999974,313.5994558,313.6049892999997,313.62674839999977,314.5492928000001,,,,,314.5495113999998,314.5649175000001,314.7650618,314.7492040999998,313.62674839999977,,,,,,,,1,1,0.9071291000000201,None,,,,,,,,842,24,V,R,2026-02-18_11h26.30.084,VisualSearch_2526_3,,2025.2.4,2026-02-18 11h26.30.504443 +0100,
vertical.xlsx,The target is tilted.,135,64,0,8,0,1,1,1,0,0,0,0,0,0,0,0,1,3,4,135,space,30.80210369999986,None,0,1,0.7192488000000594,None,space,2.101565100000016,None,0,0,0,1,,,,,8,0,64,6,314.7650618,,,,,,,,,,,,,,,,,,,,,314.7500453,314.7650618,315.24929670000006,315.2547500999997,315.2755273,315.9992384999998,,,,,315.9994568999998,316.0142236999998,316.2146704999998,316.1989603999998,315.2755273,,,,,,,,0,1,0.7192488000000594,None,,,,,,,,842,24,V,R,2026-02-18_11h26.30.084,VisualSearch_2526_3,,2025.2.4,2026-02-18 11h26.30.504443 +0100,
vertical.xlsx,The target is tilted.,135,65,1,8,1,1,1,1,1,1,1,1,1,1,1,1,0,11,12,135,space,30.80210369999986,None,1,1,0.7026388999997835,None,space,2.101565100000016,None,0,0,0,1,,,,,8,1,65,0,316.2146704999998,,,,,,,,,,,,,,,,,,,,,316.19974579999985,316.2146704999998,316.6984864999997,316.70408759999987,316.7261495,317.4322792999999,,,,,317.4325005999997,317.44743719999974,317.64790579999976,317.63189959999977,316.7261495,,,,,,,,1,1,0.7026388999997835,None,,,,,,,,842,24,V,R,2026-02-18_11h26.30.084,VisualSearch_2526_3,,2025.2.4,2026-02-18 11h26.30.504443 +0100,
vertical.xlsx,The target is tilted.,135,66,2,8,0,1,1,1,1,1,1,1,0,0,0,0,1,7,8,135,space,30.80210369999986,None,0,1,0.9286799000001338,None,space,2.101565100000016,None,0,0,0,1,,,,,8,2,66,5,317.64790579999976,,,,,,,,,,,,,,,,,,,,,317.6327036,317.64790579999976,318.13161289999994,318.13693820000003,318.1585613,319.0980684999997,,,,,319.0982886999998,319.1134933999999,319.3139811999997,319.29756239999983,318.1585613,,,,,,,,0,1,0.9286799000001338,None,,,,,,,,842,24,V,R,2026-02-18_11h26.30.084,VisualSearch_2526_3,,2025.2.4,2026-02-18 11h26.30.504443 +0100,
vertical.xlsx,The target is tilted.,135,67,3,8,1,0,0,0,0,0,0,0,0,0,0,0,0,0,1,135,space,30.80210369999986,None,1,1,0.5485968000002686,None,space,2.101565100000016,None,0,0,0,1,,,,,8,3,67,3,319.3139811999997,,,,,,,,,,,,,,,,,,,,,319.29841199999987,319.3139811999997,319.7977641,319.8032664,319.8246345,320.3815108000001,,,,,320.38175380000007,320.39643520000004,320.59687710000003,320.58080049999967,319.8246345,,,,,,,,1,1,0.5485968000002686,None,,,,,,,,842,24,V,R,2026-02-18_11h26.30.084,VisualSearch_2526_3,,2025.2.4,2026-02-18 11h26.30.504443 +0100,
vertical.xlsx,The target is tilted.,135,68,4,8,1,1,1,1,0,0,0,0,0,0,0,0,0,3,4,135,space,30.80210369999986,None,1,1,0.6785962000003565,None,space,2.101565100000016,None,0,0,0,1,,,,,8,4,68,2,320.59687710000003,,,,,,,,,,,,,,,,,,,,,320.58162549999975,320.59687710000003,321.0806725,321.0860559,321.10766480000007,321.7977430999997,,,,,321.7979764999998,321.81234560000007,322.01299319999976,321.99694829999976,321.10766480000007,,,,,,,,1,1,0.6785962000003565,None,,,,,,,,842,24,V,R,2026-02-18_11h26.30.084,VisualSearch_2526_3,,2025.2.4,2026-02-18 11h26.30.504443 +0100,
vertical.xlsx,The target is tilted.,135,69,5,8,1,1,1,1,1,1,1,1,0,0,0,0,0,7,8,135,space,30.80210369999986,None,1,1,0.7774608999998236,None,space,2.101565100000016,None,0,0,0,1,,,,,8,5,69,1,322.01299319999976,,,,,,,,,,,,,,,,,,,,,321.99775769999974,322.01299319999976,322.49684520000005,322.5022984999998,322.52414350000004,323.3137300000001,,,,,323.3139464999997,323.32847609999976,323.5293025999997,323.5132059,322.52414350000004,,,,,,,,1,1,0.7774608999998236,None,,,,,,,,842,24,V,R,2026-02-18_11h26.30.084,VisualSearch_2526_3,,2025.2.4,2026-02-18 11h26.30.504443 +0100,
vertical.xlsx,The target is tilted.,135,70,6,8,0,1,1,1,1,1,1,1,1,1,1,1,1,11,12,135,space,30.80210369999986,None,0,1,1.2719537000002674,None,space,2.101565100000016,None,0,0,0,1,,,,,8,6,70,4,323.5293025999997,,,,,,,,,,,,,,,,,,,,,323.5139896999997,323.5293025999997,324.0126740999997,324.0155247,324.02869080000005,325.31311549999987,,,,,325.3134526000001,325.3281070999999,325.52864639999984,325.51254219999987,324.02869080000005,,,,,,,,0,1,1.2719537000002674,None,,,,,,,,842,24,V,R,2026-02-18_11h26.30.084,VisualSearch_2526_3,,2025.2.4,2026-02-18 11h26.30.504443 +0100,
vertical.xlsx,The target is tilted.,135,71,7,8,0,0,0,0,0,0,0,0,0,0,0,0,1,1,1,135,space,30.80210369999986,None,0,1,0.6415031999999883,None,space,2.101565100000016,None,0,0,0,1,,,,,8,7,71,7,325.52864639999984,,,,,,,,,,,,,,,,,,,,,325.51336389999983,325.52864639999984,326.01243499999987,326.0177051999997,326.0388064000001,326.6948384,,,,,326.6949554,326.71110479999993,326.9115088000001,326.8950106,326.0388064000001,,,,,,,,0,1,0.6415031999999883,None,,,,,,,,842,24,V,R,2026-02-18_11h26.30.084,VisualSearch_2526_3,,2025.2.4,2026-02-18 11h26.30.504443 +0100,
vertical.xlsx,The target is tilted.,135,72,0,9,0,1,1,1,1,1,1,1,0,0,0,0,1,7,8,135,space,30.80210369999986,None,0,1,1.3064561999999569,None,space,2.101565100000016,None,0,0,0,1,,,,,9,0,72,5,326.9115088000001,,,,,,,,,,,,,,,,,,,,,326.8958325000001,326.9115088000001,327.39492589999986,327.40034149999997,327.4215197000001,328.74542670000005,,,,,328.7457010999999,328.7603747999999,328.96084289999976,328.94476659999987,327.4215197000001,,,,,,,,0,1,1.3064561999999569,None,,,,,,,,842,24,V,R,2026-02-18_11h26.30.084,VisualSearch_2526_3,,2025.2.4,2026-02-18 11h26.30.504443 +0100,
vertical.xlsx,The target is tilted.,135,73,1,9,1,1,1,1,0,0,0,0,0,0,0,0,0,3,4,135,space,30.80210369999986,None,0,0,0.5487725000002683,None,space,2.101565100000016,None,0,0,0,1,,,,,9,1,73,2,328.96084289999976,,,,,,,,,,,,,,,,,,,,,328.94558699999993,328.96084289999976,329.4446228999998,329.44991619999996,329.47206459999984,330.0283214999997,,,,,330.0285944999998,330.04329759999996,330.2437373,330.22762799999987,329.47206459999984,,,,,,,,0,0,0.5487725000002683,None,,,,,,,,842,24,V,R,2026-02-18_11h26.30.084,VisualSearch_2526_3,,2025.2.4,2026-02-18 11h26.30.504443 +0100,
vertical.xlsx,The target is tilted.,135,74,2,9,0,1,1,1,0,0,0,0,0,0,0,0,1,3,4,135,space,30.80210369999986,None,0,1,0.5586861000001591,None,space,2.101565100000016,None,0,0,0,1,,,,,9,2,74,6,330.2437373,,,,,,,,,,,,,,,,,,,,,330.22847049999996,330.2437373,330.7274811,330.7332377,330.7542944999998,331.3277201999997,,,,,331.3280646999999,331.3428730999997,331.54322350000007,331.5270223,330.7542944999998,,,,,,,,0,1,0.5586861000001591,None,,,,,,,,842,24,V,R,2026-02-18_11h26.30.084,VisualSearch_2526_3,,2025.2.4,2026-02-18 11h26.30.504443 +0100,
vertical.xlsx,The target is tilted.,135,75,3,9,1,0,0,0,0,0,0,0,0,0,0,0,0,0,1,135,space,30.80210369999986,None,1,1,0.4693247000000156,None,space,2.101565100000016,None,0,0,0,1,,,,,9,3,75,3,331.54322350000007,,,,,,,,,,,,,,,,,,,,,331.52786709999987,331.54322350000007,332.0270930999998,332.03236760000004,332.0529128999999,332.52712210000004,,,,,332.52733809999995,332.542471,332.7429175,332.72678269999983,332.0529128999999,,,,,,,,1,1,0.4693247000000156,None,,,,,,,,842,24,V,R,2026-02-18_11h26.30.084,VisualSearch_2526_3,,2025.2.4,2026-02-18 11h26.30.504443 +0100,
vertical.xlsx,The target is tilted.,135,76,4,9,0,0,0,0,0,0,0,0,0,0,0,0,1,1,1,135,space,30.80210369999986,None,0,1,1.205423200000041,None,space,2.101565100000016,None,0,0,0,1,,,,,9,4,76,7,332.7429175,,,,,,,,,,,,,,,,,,,,,332.7275721999997,332.7429175,333.2266293,333.2319976000001,333.2537643999997,334.4755611999997,,,,,334.4756789999999,334.49166450000007,,334.6758127999999,333.2537643999997,,,,,,,,0,1,1.205423200000041,None,,,,,,,,842,24,V,R,2026-02-18_11h26.30.084,VisualSearch_2526_3,,2025.2.4,2026-02-18 11h26.30.504443 +0100,
vertical.xlsx,The target is tilted.,135,77,5,9,0,1,1,1,1,1,1,1,1,1,1,1,1,11,12,135,space,30.80210369999986,None,0,1,2.652022300000226,None,space,2.101565100000016,None,0,0,0,1,,,,,9,5,77,4,334.6922297999997,,,,,,,,,,,,,,,,,,,,,334.67665329999977,334.6922297999997,335.17597409999985,335.18129769999973,335.20212259999994,337.85879039999986,,,,,337.8590088999997,337.8737834000001,338.0744606999999,338.0584105999999,335.20212259999994,,,,,,,,0,1,2.652022300000226,None,,,,,,,,842,24,V,R,2026-02-18_11h26.30.084,VisualSearch_2526_3,,2025.2.4,2026-02-18 11h26.30.504443 +0100,
vertical.xlsx,The target is tilted.,135,78,6,9,1,1,1,1,1,1,1,1,1,1,1,1,0,11,12,135,space,30.80210369999986,None,1,1,0.6869656000003488,None,space,2.101565100000016,None,0,0,0,1,,,,,9,6,78,0,338.0744606999999,,,,,,,,,,,,,,,,,,,,,338.0592537,338.0744606999999,338.5582834999998,338.5642984999997,338.58492309999997,339.2752433999997,,,,,339.2754821000001,339.29021050000006,339.49066149999976,339.47462169999994,338.58492309999997,,,,,,,,1,1,0.6869656000003488,None,,,,,,,,842,24,V,R,2026-02-18_11h26.30.084,VisualSearch_2526_3,,2025.2.4,2026-02-18 11h26.30.504443 +0100,
vertical.xlsx,The target is tilted.,135,79,7,9,1,1,1,1,1,1,1,1,0,0,0,0,0,7,8,135,space,30.80210369999986,None,1,1,0.7247446000001219,None,space,2.101565100000016,None,0,0,0,1,,,,,9,7,79,1,339.49066149999976,,,,,,,,,,,,,,,,,,,,,339.47543359999986,339.49066149999976,339.9745581999998,339.9798838999998,340.0004600999998,340.7401586999997,,,,,340.74027739999997,340.75626450000004,,340.9406041999998,340.0004600999998,,,,,,,,1,1,0.7247446000001219,None,,,,,,,,842,24,V,R,2026-02-18_11h26.30.084,VisualSearch_2526_3,,2025.2.4,2026-02-18 11h26.30.504443 +0100,
vertical.xlsx,The target is tilted.,135,80,0,10,0,1,1,1,1,1,1,1,0,0,0,0,1,7,8,135,space,30.80210369999986,None,0,1,0.9701208999999835,None,space,2.101565100000016,None,0,0,0,1,,,,,10,0,80,5,340.95663149999996,,,,,,,,,,,,,,,,,,,,,340.9415432999997,340.95663149999996,341.4400954,341.44547119999993,341.4661242999998,342.44057629999975,,,,,342.44079769999985,342.4556706000001,342.65628649999985,342.64013090000003,341.4661242999998,,,,,,,,0,1,0.9701208999999835,None,,,,,,,,842,24,V,R,2026-02-18_11h26.30.084,VisualSearch_2526_3,,2025.2.4,2026-02-18 11h26.30.504443 +0100,
vertical.xlsx,The target is tilted.,135,81,1,10,0,1,1,1,1,1,1,1,1,1,1,1,1,11,12,135,space,30.80210369999986,None,0,1,1.3208807999999408,None,space,2.101565100000016,None,0,0,0,1,,,,,10,1,81,4,342.65628649999985,,,,,,,,,,,,,,,,,,,,,342.6409808000001,342.65628649999985,343.1400739999997,343.14549969999985,343.1669165999999,344.4903452000001,,,,,344.4905647999997,344.5049615999999,344.70567229999983,344.6895965000001,343.1669165999999,,,,,,,,0,1,1.3208807999999408,None,,,,,,,,842,24,V,R,2026-02-18_11h26.30.084,VisualSearch_2526_3,,2025.2.4,2026-02-18 11h26.30.504443 +0100,
vertical.xlsx,The target is tilted.,135,82,2,10,1,0,0,0,0,0,0,0,0,0,0,0,0,0,1,135,space,30.80210369999986,None,1,1,0.6796941999996307,None,space,2.101565100000016,None,0,0,0,1,,,,,10,2,82,3,344.70567229999983,,,,,,,,,,,,,,,,,,,,,344.69038579999983,344.70567229999983,345.1893014,345.19469509999976,345.21548559999997,345.9062131999997,,,,,345.90641189999974,345.92137449999996,346.12189539999986,346.1055743999998,345.21548559999997,,,,,,,,1,1,0.6796941999996307,None,,,,,,,,842,24,V,R,2026-02-18_11h26.30.084,VisualSearch_2526_3,,2025.2.4,2026-02-18 11h26.30.504443 +0100,
vertical.xlsx,The target is tilted.,135,83,3,10,0,0,0,0,0,0,0,0,0,0,0,0,1,1,1,135,space,30.80210369999986,None,0,1,1.2930390000001353,None,space,2.101565100000016,None,0,0,0,1,,,,,10,3,83,7,346.12189539999986,,,,,,,,,,,,,,,,,,,,,346.1064282,346.12189539999986,346.6053261999998,346.6106741000001,346.6326951999997,347.93778659999975,,,,,347.93790319999994,347.9542306999999,,348.13821170000006,346.6326951999997,,,,,,,,0,1,1.2930390000001353,None,,,,,,,,842,24,V,R,2026-02-18_11h26.30.084,VisualSearch_2526_3,,2025.2.4,2026-02-18 11h26.30.504443 +0100,
vertical.xlsx,The target is tilted.,135,84,4,10,0,1,1,1,0,0,0,0,0,0,0,0,1,3,4,135,space,30.80210369999986,None,0,1,0.7296843000003719,None,space,2.101565100000016,None,0,0,0,1,,,,,10,4,84,6,348.1543873999997,,,,,,,,,,,,,,,,,,,,,348.13907919999997,348.1543873999997,348.63807539999993,348.6436272999997,348.6651776000001,349.40448249999986,,,,,349.40462520000005,349.42061839999974,349.62022619999993,349.6047106999997,,,,,,,,,0,1,0.7296843000003719,None,,,,,,,,842,24,V,R,2026-02-18_11h26.30.084,VisualSearch_2526_3,,2025.2.4,2026-02-18 11h26.30.504443 +0100,
vertical.xlsx,The target is tilted.,135,85,5,10,1,1,1,1,1,1,1,1,0,0,0,0,0,7,8,135,space,30.80210369999986,None,1,1,0.5174441999997725,None,space,2.101565100000016,None,0,0,0,1,,,,,10,5,85,1,349.62022619999993,,,,,,,,,,,,,,,,,,,,,349.60550579999995,349.62022619999993,350.10415739999985,350.1095177999998,350.1306269999998,350.65455529999986,,,,,350.6547723000001,350.67027239999993,350.87003519999985,350.8541001000001,350.1306269999998,,,,,,,,1,1,0.5174441999997725,None,,,,,,,,842,24,V,R,2026-02-18_11h26.30.084,VisualSearch_2526_3,,2025.2.4,2026-02-18 11h26.30.504443 +0100,
vertical.xlsx,The target is tilted.,135,86,6,10,1,1,1,1,1,1,1,1,1,1,1,1,0,11,12,135,space,30.80210369999986,None,1,1,1.2484417999999096,None,space,2.101565100000016,None,0,0,0,1,,,,,10,6,86,0,350.87003519999985,,,,,,,,,,,,,,,,,,,,,350.854959,350.87003519999985,351.35416729999974,351.35939329999997,351.38008349999996,352.6375691999999,,,,,352.63785889999986,352.65265350000004,352.8529762999999,352.8368840999999,351.38008349999996,,,,,,,,1,1,1.2484417999999096,None,,,,,,,,842,24,V,R,2026-02-18_11h26.30.084,VisualSearch_2526_3,,2025.2.4,2026-02-18 11h26.30.504443 +0100,
vertical.xlsx,The target is tilted.,135,87,7,10,1,1,1,1,0,0,0,0,0,0,0,0,0,3,4,135,space,30.80210369999986,None,1,1,1.2066620000000512,None,space,2.101565100000016,None,0,0,0,1,,,,,10,7,87,2,352.8529762999999,,,,,,,,,,,,,,,,,,,,,352.8377772000001,352.8529762999999,353.33670659999984,353.3420957000001,353.36278960000004,354.5860161999997,,,,,354.5861617999997,354.60193939999976,354.8023897999999,354.78652869999974,353.36278960000004,,,,,,,,1,1,1.2066620000000512,None,,,,,,,,842,24,V,R,2026-02-18_11h26.30.084,VisualSearch_2526_3,,2025.2.4,2026-02-18 11h26.30.504443 +0100,
vertical.xlsx,The target is tilted.,135,88,0,11,1,1,1,1,1,1,1,1,1,1,1,1,0,11,12,135,space,30.80210369999986,None,1,1,0.6636042000000089,None,space,2.101565100000016,None,0,0,0,1,,,,,11,0,88,0,354.8023897999999,,,,,,,,,,,,,,,,,,,,,354.78767379999977,354.8023897999999,355.3015726000001,355.3043898999997,355.31843939999976,355.9862093999998,,,,,355.98642479999967,356.001767,356.2014541000001,356.1856746000001,,,,,,,,,1,1,0.6636042000000089,None,,,,,,,,842,24,V,R,2026-02-18_11h26.30.084,VisualSearch_2526_3,,2025.2.4,2026-02-18 11h26.30.504443 +0100,
vertical.xlsx,The target is tilted.,135,89,1,11,1,1,1,1,1,1,1,1,0,0,0,0,0,7,8,135,space,30.80210369999986,None,1,1,0.6750688000001901,None,space,2.101565100000016,None,0,0,0,1,,,,,11,1,89,1,356.2014541000001,,,,,,,,,,,,,,,,,,,,,356.18654979999997,356.2014541000001,356.68534669999985,356.69071329999974,356.7122850999997,357.4024816999997,,,,,357.4027183999999,357.41801199999986,357.61806729999967,357.6021490999999,356.7122850999997,,,,,,,,1,1,0.6750688000001901,None,,,,,,,,842,24,V,R,2026-02-18_11h26.30.084,VisualSearch_2526_3,,2025.2.4,2026-02-18 11h26.30.504443 +0100,
vertical.xlsx,The target is tilted.,135,90,2,11,1,1,1,1,0,0,0,0,0,0,0,0,0,3,4,135,space,30.80210369999986,None,1,1,0.7317610999998578,None,space,2.101565100000016,None,0,0,0,1,,,,,11,2,90,2,357.61806729999967,,,,,,,,,,,,,,,,,,,,,357.60300619999975,357.61806729999967,358.1015006,358.1054650999997,358.1177123,358.8509984,,,,,358.85111789999996,358.86710100000005,359.06734230000006,359.05077129999995,358.1177123,,,,,,,,1,1,0.7317610999998578,None,,,,,,,,842,24,V,R,2026-02-18_11h26.30.084,VisualSearch_2526_3,,2025.2.4,2026-02-18 11h26.30.504443 +0100,
vertical.xlsx,The target is tilted.,135,91,3,11,0,1,1,1,1,1,1,1,1,1,1,1,1,11,12,135,space,30.80210369999986,None,0,1,1.4403769999998985,None,space,2.101565100000016,None,0,0,0,1,,,,,11,3,91,4,359.06734230000006,,,,,,,,,,,,,,,,,,,,,359.0511171999999,359.06734230000006,359.5514439000001,359.55683509999994,359.57860800000003,361.0355096999999,,,,,361.03575079999996,361.0500285999999,361.24993629999994,361.2342035999998,359.57860800000003,,,,,,,,0,1,1.4403769999998985,None,,,,,,,,842,24,V,R,2026-02-18_11h26.30.084,VisualSearch_2526_3,,2025.2.4,2026-02-18 11h26.30.504443 +0100,
vertical.xlsx,The target is tilted.,135,92,4,11,0,1,1,1,1,1,1,1,0,0,0,0,1,7,8,135,space,30.80210369999986,None,0,1,1.4135305000004337,None,space,2.101565100000016,None,0,0,0,1,,,,,11,4,92,5,361.24993629999994,,,,,,,,,,,,,,,,,,,,,361.23499130000005,361.24993629999994,361.7340382,361.7394889999998,361.76087630000006,363.1841704000001,,,,,363.1844101999998,363.1996203000001,363.3995972,363.3835446999999,361.76087630000006,,,,,,,,0,1,1.4135305000004337,None,,,,,,,,842,24,V,R,2026-02-18_11h26.30.084,VisualSearch_2526_3,,2025.2.4,2026-02-18 11h26.30.504443 +0100,
vertical.xlsx,The target is tilted.,135,93,5,11,0,0,0,0,0,0,0,0,0,0,0,0,1,1,1,135,space,30.80210369999986,None,0,1,0.612675500000023,None,space,2.101565100000016,None,0,0,0,1,,,,,11,5,93,7,363.3995972,,,,,,,,,,,,,,,,,,,,,363.38435939999977,363.3995972,363.88337449999995,363.8887235999998,363.91000710000003,364.5335106,,,,,364.5337056000001,364.5490911999998,364.7491478999998,364.7328904999997,363.91000710000003,,,,,,,,0,1,0.612675500000023,None,,,,,,,,842,24,V,R,2026-02-18_11h26.30.084,VisualSearch_2526_3,,2025.2.4,2026-02-18 11h26.30.504443 +0100,
vertical.xlsx,The target is tilted.,135,94,6,11,0,1,1,1,0,0,0,0,0,0,0,0,1,3,4,135,space,30.80210369999986,None,0,1,0.6990053999998054,None,space,2.101565100000016,None,0,0,0,1,,,,,11,6,94,6,364.7491478999998,,,,,,,,,,,,,,,,,,,,,364.73375379999993,364.7491478999998,365.2328280999998,365.23743219999983,365.2486779999997,365.95005179999976,,,,,365.95028309999975,365.9652610999999,366.1648726000001,366.1492784999998,365.2486779999997,,,,,,,,0,1,0.6990053999998054,None,,,,,,,,842,24,V,R,2026-02-18_11h26.30.084,VisualSearch_2526_3,,2025.2.4,2026-02-18 11h26.30.504443 +0100,
vertical.xlsx,The target is tilted.,135,95,7,11,1,0,0,0,0,0,0,0,0,0,0,0,0,0,1,135,space,30.80210369999986,None,1,1,0.591074700000263,None,space,2.101565100000016,None,0,0,0,1,,,,,11,7,95,3,366.1648726000001,,,,,,,,,,,,,,,,,,,,,366.1500625000001,366.1648726000001,366.6491506,366.65446399999996,366.6757947999997,367.2824339000001,,,,,367.2826561999998,367.2981841999997,367.4982398999998,367.4821494999999,366.6757947999997,,,,,,,,1,1,0.591074700000263,None,,,,,,,,842,24,V,R,2026-02-18_11h26.30.084,VisualSearch_2526_3,,2025.2.4,2026-02-18 11h26.30.504443 +0100,
vertical.xlsx,The target is tilted.,135,96,0,12,0,1,1,1,1,1,1,1,1,1,1,1,1,11,12,135,space,30.80210369999986,None,0,1,1.7676065000000563,None,space,2.101565100000016,None,0,0,0,1,,,,,12,0,96,4,367.4982398999998,,,,,,,,,,,,,,,,,,,,,367.4829277000001,367.4982398999998,367.98206030000006,367.98743089999994,368.0078431999998,369.78198150000003,,,,,369.78223490000005,369.7971012999999,369.9973702,369.9809382000001,368.0078431999998,,,,,,,,0,1,1.7676065000000563,None,,,,,,,,842,24,V,R,2026-02-18_11h26.30.084,VisualSearch_2526_3,,2025.2.4,2026-02-18 11h26.30.504443 +0100,
vertical.xlsx,The target is tilted.,135,97,1,12,1,1,1,1,1,1,1,1,0,0,0,0,0,7,8,135,space,30.80210369999986,None,1,1,0.5961614999996527,None,space,2.101565100000016,None,0,0,0,1,,,,,12,1,97,1,369.9973702,,,,,,,,,,,,,,,,,,,,,369.9817565000001,369.9973702,370.4810136999997,370.48640809999984,370.5077208,371.11452029999987,,,,,371.1147381999997,371.1300493000001,371.33022159999996,371.3142648999999,370.5077208,,,,,,,,1,1,0.5961614999996527,None,,,,,,,,842,24,V,R,2026-02-18_11h26.30.084,VisualSearch_2526_3,,2025.2.4,2026-02-18 11h26.30.504443 +0100,
vertical.xlsx,The target is tilted.,135,98,2,12,0,0,0,0,0,0,0,0,0,0,0,0,1,1,1,135,space,30.80210369999986,None,1,0,0.3873920000000908,None,space,2.101565100000016,None,0,0,0,1,,,,,12,2,98,7,371.33022159999996,,,,,,,,,,,,,,,,,,,,,371.31507309999984,371.33022159999996,371.8140292999999,371.819346,371.8405151999998,372.23135209999987,,,,,372.2315682000001,372.2466106999998,372.44660439999984,372.4304983999998,371.8405151999998,,,,,,,,1,0,0.3873920000000908,None,,,,,,,,842,24,V,R,2026-02-18_11h26.30.084,VisualSearch_2526_3,,2025.2.4,2026-02-18 11h26.30.504443 +0100,
vertical.xlsx,The target is tilted.,135,99,3,12,0,1,1,1,0,0,0,0,0,0,0,0,1,3,4,135,space,30.80210369999986,None,0,1,0.7346474000000853,None,space,2.101565100000016,None,0,0,0,1,,,,,12,3,99,6,372.44660439999984,,,,,,,,,,,,,,,,,,,,,372.4314883999998,372.44660439999984,372.9303322999997,372.93579079999995,372.95446990000005,373.6973790999998,,,,,373.6976244,373.7124397,373.91275329999985,373.8964914999999,372.95446990000005,,,,,,,,0,1,0.7346474000000853,None,,,,,,,,842,24,V,R,2026-02-18_11h26.30.084,VisualSearch_2526_3,,2025.2.4,2026-02-18 11h26.30.504443 +0100,
vertical.xlsx,The target is tilted.,135,100,4,12,0,1,1,1,1,1,1,1,0,0,0,0,1,7,8,135,space,30.80210369999986,None,0,1,2.096330599999874,None,space,2.101565100000016,None,0,0,0,1,,,,,12,4,100,5,373.91275329999985,,,,,,,,,,,,,,,,,,,,,373.89735879999967,373.91275329999985,374.3964881999998,374.4012224999999,374.4124196,376.51219349999997,,,,,376.5123388999998,376.52859620000004,376.72851990000004,376.7124588999998,374.4124196,,,,,,,,0,1,2.096330599999874,None,,,,,,,,842,24,V,R,2026-02-18_11h26.30.084,VisualSearch_2526_3,,2025.2.4,2026-02-18 11h26.30.504443 +0100,
vertical.xlsx,The target is tilted.,135,101,5,12,1,0,0,0,0,0,0,0,0,0,0,0,0,0,1,135,space,30.80210369999986,None,1,1,2.689784000000145,None,space,2.101565100000016,None,0,0,0,1,,,,,12,5,101,3,376.72851990000004,,,,,,,,,,,,,,,,,,,,,376.7132710999997,376.72851990000004,377.21227380000005,377.21768799999995,377.2390637000001,379.94485229999987,,,,,379.94505419999973,379.96055809999984,380.1605744000001,380.14462149999986,377.2390637000001,,,,,,,,1,1,2.689784000000145,None,,,,,,,,842,24,V,R,2026-02-18_11h26.30.084,VisualSearch_2526_3,,2025.2.4,2026-02-18 11h26.30.504443 +0100,
vertical.xlsx,The target is tilted.,135,102,6,12,1,1,1,1,1,1,1,1,1,1,1,1,0,11,12,135,space,30.80210369999986,None,1,1,1.4264594000001125,None,space,2.101565100000016,None,0,0,0,1,,,,,12,6,102,0,380.1605744000001,,,,,,,,,,,,,,,,,,,,,380.14543219999973,380.1605744000001,380.64451399999984,380.64982499999974,380.6708060999997,382.1112737000001,,,,,382.11153179999997,382.1265606999998,382.3263697,382.3106559999999,380.6708060999997,,,,,,,,1,1,1.4264594000001125,None,,,,,,,,842,24,V,R,2026-02-18_11h26.30.084,VisualSearch_2526_3,,2025.2.4,2026-02-18 11h26.30.504443 +0100,
vertical.xlsx,The target is tilted.,135,103,7,12,1,1,1,1,0,0,0,0,0,0,0,0,0,3,4,135,space,30.80210369999986,None,1,1,0.5933301999998548,None,space,2.101565100000016,None,0,0,0,1,,,,,12,7,103,2,382.3263697,,,,,,,,,,,,,,,,,,,,,382.3115338,382.3263697,382.81052569999997,382.8153798000001,382.8262041999999,383.4275298,,,,,383.42777150000006,383.44298090000007,383.6428923000001,383.6267771,382.8262041999999,,,,,,,,1,1,0.5933301999998548,None,,,,,,,,842,24,V,R,2026-02-18_11h26.30.084,VisualSearch_2526_3,,2025.2.4,2026-02-18 11h26.30.504443 +0100,
vertical.xlsx,The target is tilted.,135,104,0,13,1,1,1,1,1,1,1,1,1,1,1,1,0,11,12,135,space,30.80210369999986,None,1,1,1.0277554999997847,None,space,2.101565100000016,None,0,0,0,1,,,,,13,0,104,0,383.6428923000001,,,,,,,,,,,,,,,,,,,,,383.6275859,383.6428923000001,384.1266632999998,384.13123459999974,384.1422707999998,385.17699119999975,,,,,385.17721529999994,385.19200909999995,385.3923096000001,385.3762985999999,384.1422707999998,,,,,,,,1,1,1.0277554999997847,None,,,,,,,,842,24,V,R,2026-02-18_11h26.30.084,VisualSearch_2526_3,,2025.2.4,2026-02-18 11h26.30.504443 +0100,
vertical.xlsx,The target is tilted.,135,105,1,13,0,1,1,1,1,1,1,1,1,1,1,1,1,11,12,135,space,30.80210369999986,None,0,1,1.829117799999949,None,space,2.101565100000016,None,0,0,0,1,,,,,13,1,105,4,385.3923096000001,,,,,,,,,,,,,,,,,,,,,385.3770785999998,385.3923096000001,385.8760599999998,385.8810437999998,385.8921107999997,387.7257853999997,,,,,387.7260039,387.7413967,387.9414737999998,387.9250988000001,385.8921107999997,,,,,,,,0,1,1.829117799999949,None,,,,,,,,842,24,V,R,2026-02-18_11h26.30.084,VisualSearch_2526_3,,2025.2.4,2026-02-18 11h26.30.504443 +0100,
vertical.xlsx,The target is tilted.,135,106,2,13,1,1,1,1,1,1,1,1,0,0,0,0,0,7,8,135,space,30.80210369999986,None,1,1,1.2517462000000705,None,space,2.101565100000016,None,0,0,0,1,,,,,13,2,106,1,387.9414737999998,,,,,,,,,,,,,,,,,,,,,387.9259866,387.9414737999998,388.4247926999999,388.4299795999998,388.4512936999997,389.7085998,,,,,389.7088180999997,389.7238252999998,389.92421039999977,389.9081085,388.4512936999997,,,,,,,,1,1,1.2517462000000705,None,,,,,,,,842,24,V,R,2026-02-18_11h26.30.084,VisualSearch_2526_3,,2025.2.4,2026-02-18 11h26.30.504443 +0100,
vertical.xlsx,The target is tilted.,135,107,3,13,0,1,1,1,1,1,1,1,0,0,0,0,1,7,8,135,space,30.80210369999986,None,0,1,1.2496043999999529,None,space,2.101565100000016,None,0,0,0,1,,,,,13,3,107,5,389.92421039999977,,,,,,,,,,,,,,,,,,,,,389.9089203000001,389.92421039999977,390.40801080000006,390.41338470000005,390.43445210000004,391.6915234999999,,,,,391.6917464999999,391.70689319999997,391.90679840000007,391.8907999999999,390.43445210000004,,,,,,,,0,1,1.2496043999999529,None,,,,,,,,842,24,V,R,2026-02-18_11h26.30.084,VisualSearch_2526_3,,2025.2.4,2026-02-18 11h26.30.504443 +0100,
vertical.xlsx,The target is tilted.,135,108,4,13,1,1,1,1,0,0,0,0,0,0,0,0,0,3,4,135,space,30.80210369999986,None,1,1,0.8585429999998269,None,space,2.101565100000016,None,0,0,0,1,,,,,13,4,108,2,391.90679840000007,,,,,,,,,,,,,,,,,,,,,391.8916578000001,391.90679840000007,392.3904646999997,392.39586110000005,392.41626359999987,393.29065749999995,,,,,393.2908795000001,393.3060115999999,393.5063392999998,393.4903189999998,392.41626359999987,,,,,,,,1,1,0.8585429999998269,None,,,,,,,,842,24,V,R,2026-02-18_11h26.30.084,VisualSearch_2526_3,,2025.2.4,2026-02-18 11h26.30.504443 +0100,
vertical.xlsx,The target is tilted.,135,109,5,13,0,0,0,0,0,0,0,0,0,0,0,0,1,1,1,135,space,30.80210369999986,None,0,1,0.809639199999765,None,space,2.101565100000016,None,0,0,0,1,,,,,13,5,109,7,393.5063392999998,,,,,,,,,,,,,,,,,,,,,393.49111179999977,393.5063392999998,393.99013839999975,393.99560270000006,394.0160604,394.8404499999999,,,,,394.8407276999999,394.85580939999977,395.0557584999999,395.0397439000001,394.0160604,,,,,,,,0,1,0.809639199999765,None,,,,,,,,842,24,V,R,2026-02-18_11h26.30.084,VisualSearch_2526_3,,2025.2.4,2026-02-18 11h26.30.504443 +0100,
vertical.xlsx,The target is tilted.,135,110,6,13,0,1,1,1,0,0,0,0,0,0,0,0,1,3,4,135,space,30.80210369999986,None,0,1,0.8914499000002252,None,space,2.101565100000016,None,0,0,0,1,,,,,13,6,110,6,395.0557584999999,,,,,,,,,,,,,,,,,,,,,395.0405601,395.0557584999999,395.53950299999974,395.5447606,395.5657313999998,396.4730784000001,,,,,396.4732695,396.48877530000004,396.68878530000006,396.6725878999998,395.5657313999998,,,,,,,,0,1,0.8914499000002252,None,,,,,,,,842,24,V,R,2026-02-18_11h26.30.084,VisualSearch_2526_3,,2025.2.4,2026-02-18 11h26.30.504443 +0100,
vertical.xlsx,The target is tilted.,135,111,7,13,1,0,0,0,0,0,0,0,0,0,0,0,0,0,1,135,space,30.80210369999986,None,1,1,0.5261334000001625,None,space,2.101565100000016,None,0,0,0,1,,,,,13,7,111,3,396.68878530000006,,,,,,,,,,,,,,,,,,,,,396.67338529999984,396.68878530000006,397.1724842000001,397.17796440000006,397.19907739999985,397.7389372,,,,,397.7390863999997,397.75434679999967,397.95457409999995,397.93865159999973,397.19907739999985,,,,,,,,1,1,0.5261334000001625,None,,,,,,,,842,24,V,R,2026-02-18_11h26.30.084,VisualSearch_2526_3,,2025.2.4,2026-02-18 11h26.30.504443 +0100,
vertical.xlsx,The target is tilted.,135,112,0,14,1,1,1,1,0,0,0,0,0,0,0,0,0,3,4,135,space,30.80210369999986,None,1,1,0.9384095000000343,None,space,2.101565100000016,None,0,0,0,1,,,,,14,0,112,2,397.95457409999995,,,,,,,,,,,,,,,,,,,,,397.9394918999999,397.95457409999995,398.4389702000001,398.4438445999997,398.4545233000001,399.4055919,,,,,399.4058480000001,399.42068159999985,399.62101069999994,399.60445400000003,398.4545233000001,,,,,,,,1,1,0.9384095000000343,None,,,,,,,,842,24,V,R,2026-02-18_11h26.30.084,VisualSearch_2526_3,,2025.2.4,2026-02-18 11h26.30.504443 +0100,
vertical.xlsx,The target is tilted.,135,113,1,14,1,1,1,1,1,1,1,1,1,1,1,1,0,11,12,135,space,30.80210369999986,None,1,1,0.9672201000003042,None,space,2.101565100000016,None,0,0,0,1,,,,,14,1,113,0,399.62101069999994,,,,,,,,,,,,,,,,,,,,,399.60526400000003,399.62101069999994,400.1048100999999,400.1101796999999,400.1312769999997,401.10503919999996,,,,,401.10529489999976,401.1201573999999,401.3205372,401.3044809999999,400.1312769999997,,,,,,,,1,1,0.9672201000003042,None,,,,,,,,842,24,V,R,2026-02-18_11h26.30.084,VisualSearch_2526_3,,2025.2.4,2026-02-18 11h26.30.504443 +0100,
vertical.xlsx,The target is tilted.,135,114,2,14,0,1,1,1,1,1,1,1,1,1,1,1,1,11,12,135,space,30.80210369999986,None,0,1,1.1075166999999055,None,space,2.101565100000016,None,0,0,0,1,,,,,14,2,114,4,401.3205372,,,,,,,,,,,,,,,,,,,,,401.3053103,401.3205372,401.80431350000003,401.8097151999998,401.83130069999993,402.95320049999987,,,,,402.95332080000003,402.9696484999997,,403.1535388,401.83130069999993,,,,,,,,0,1,1.1075166999999055,None,,,,,,,,842,24,V,R,2026-02-18_11h26.30.084,VisualSearch_2526_3,,2025.2.4,2026-02-18 11h26.30.504443 +0100,
vertical.xlsx,The target is tilted.,135,115,3,14,0,0,0,0,0,0,0,0,0,0,0,0,1,1,1,135,space,30.80210369999986,None,0,1,0.6410345999997844,None,space,2.101565100000016,None,0,0,0,1,,,,,14,3,115,7,403.1698429999999,,,,,,,,,,,,,,,,,,,,,403.1544078999998,403.1698429999999,403.6536716999997,403.65895799999976,403.6766645,404.320919,,,,,404.32113400000003,404.33575859999996,404.5359934999999,404.5200312999998,403.6766645,,,,,,,,0,1,0.6410345999997844,None,,,,,,,,842,24,V,R,2026-02-18_11h26.30.084,VisualSearch_2526_3,,2025.2.4,2026-02-18 11h26.30.504443 +0100,
vertical.xlsx,The target is tilted.,135,116,4,14,0,1,1,1,1,1,1,1,0,0,0,0,1,7,8,135,space,30.80210369999986,None,0,1,1.0992969999997513,None,space,2.101565100000016,None,0,0,0,1,,,,,14,4,116,5,404.5359934999999,,,,,,,,,,,,,,,,,,,,,404.5208227999999,404.5359934999999,405.01987029999987,405.02529119999986,405.04585109999994,406.15344260000006,,,,,406.15367379999975,406.16847059999986,406.36885229999984,406.3528555999999,405.04585109999994,,,,,,,,0,1,1.0992969999997513,None,,,,,,,,842,24,V,R,2026-02-18_11h26.30.084,VisualSearch_2526_3,,2025.2.4,2026-02-18 11h26.30.504443 +0100,
vertical.xlsx,The target is tilted.,135,117,5,14,1,1,1,1,1,1,1,1,0,0,0,0,0,7,8,135,space,30.80210369999986,None,1,1,1.2817113999999492,None,space,2.101565100000016,None,0,0,0,1,,,,,14,5,117,1,406.36885229999984,,,,,,,,,,,,,,,,,,,,,406.3537303999999,406.36885229999984,406.85259699999983,406.85789899999986,406.87916139999993,408.1692246,,,,,408.1694322999999,408.1844386999999,408.38445739999975,408.3688400999997,406.87916139999993,,,,,,,,1,1,1.2817113999999492,None,,,,,,,,842,24,V,R,2026-02-18_11h26.30.084,VisualSearch_2526_3,,2025.2.4,2026-02-18 11h26.30.504443 +0100,
vertical.xlsx,The target is tilted.,135,118,6,14,1,0,0,0,0,0,0,0,0,0,0,0,0,0,1,135,space,30.80210369999986,None,1,1,0.7449106999997639,None,space,2.101565100000016,None,0,0,0,1,,,,,14,6,118,3,408.38445739999975,,,,,,,,,,,,,,,,,,,,,408.3696674999999,408.38445739999975,408.8687217999998,408.8738449,408.8842551,409.63521939999987,,,,,409.63542170000005,409.6509632,409.85070519999977,409.8347978999998,408.8842551,,,,,,,,1,1,0.7449106999997639,None,,,,,,,,842,24,V,R,2026-02-18_11h26.30.084,VisualSearch_2526_3,,2025.2.4,2026-02-18 11h26.30.504443 +0100,
vertical.xlsx,The target is tilted.,135,119,7,14,0,1,1,1,0,0,0,0,0,0,0,0,1,3,4,135,space,30.80210369999986,None,0,1,0.578563000000031,None,space,2.101565100000016,None,0,0,0,1,,,,,14,7,119,6,409.85070519999977,,,,,,,,,,,,,,,,,,,,,409.8356836999999,409.85070519999977,410.3348461999997,410.34015079999995,410.36148339999977,410.9519988999998,,,,,410.9522394999997,410.9669521999997,411.18995689999997,411.15104339999993,410.36148339999977,,,,,,,,0,1,0.578563000000031,None,,,,,,,,842,24,V,R,2026-02-18_11h26.30.084,VisualSearch_2526_3,,2025.2.4,2026-02-18 11h26.30.504443 +0100,
vertical.xlsx,The target is tilted.,135,0,0,0,,,,,,,,,,,,,,,,,space,30.80210369999986,None,,,,,space,2.101565100000016,None,0,0,0,1,,,,,,,,,,,,,,,,,,,,,,,,,,,,,,,,,,,,,,,,,,,,,,,,,,,,,,,,,,,,,,,842,24,V,R,2026-02-18_11h26.30.084,VisualSearch_2526_3,,2025.2.4,2026-02-18 11h26.30.504443 +0100,
tilted.xlsx,The target is tilted.,117,0,0,0,1,1,1,1,0,0,0,0,0,0,0,0,0,3,4,117,space,5.543518400000266,None,1,1,1.4741091999999298,None,,,,0,1,1,0,0,0,0,2,,,,,416.7825929999997,,,,,,,,,,,,,,,411.18995689999997,411.18995689999997,411.18995689999997,space,5.543518400000266,None,416.7786168,416.7825929999997,417.26542300000006,417.2708190000001,417.29196690000003,418.78273220000005,1,1,1.4741091999999298,None,418.782966,418.79785659999993,418.99731270000007,418.9817526999998,,,,,,,,,,,,,,,,,,,,842,24,V,R,2026-02-18_11h26.30.084,VisualSearch_2526_3,,2025.2.4,2026-02-18 11h26.30.504443 +0100,
tilted.xlsx,The target is tilted.,117,1,1,0,0,1,1,1,0,0,0,0,0,0,0,0,1,3,4,117,space,5.543518400000266,None,0,1,1.0591405000000123,None,,,,0,1,1,0,0,1,1,6,,,,,418.99731270000007,,,,,,,,,,,,,,,,,,,,,418.9821829,418.99731270000007,419.4818297999998,419.48719319999987,419.5076695,420.5820114999999,0,1,1.0591405000000123,None,420.5822582999997,420.59732569999983,420.7973298999998,420.7812996,419.5076695,,,,,,,,,,,,,,,,,,,842,24,V,R,2026-02-18_11h26.30.084,VisualSearch_2526_3,,2025.2.4,2026-02-18 11h26.30.504443 +0100,
tilted.xlsx,The target is tilted.,117,2,2,0,0,0,0,0,0,0,0,0,0,0,0,0,1,1,1,117,space,5.543518400000266,None,1,0,5.181769299999814,None,,,,0,1,1,0,0,2,2,7,,,,,420.7973298999998,,,,,,,,,,,,,,,,,,,,,420.78223159999993,420.7973298999998,421.2818153999999,421.2870418,421.3076398999999,426.4967245999999,1,0,5.181769299999814,None,426.49697390000006,426.5118522999999,426.7121319999999,426.69599059999996,421.3076398999999,,,,,,,,,,,,,,,,,,,842,24,V,R,2026-02-18_11h26.30.084,VisualSearch_2526_3,,2025.2.4,2026-02-18 11h26.30.504443 +0100,
tilted.xlsx,The target is tilted.,117,3,3,0,1,0,0,0,0,0,0,0,0,0,0,0,0,0,1,117,space,5.543518400000266,None,1,1,1.6780068000002757,None,,,,0,1,1,0,0,3,3,3,,,,,426.7121319999999,,,,,,,,,,,,,,,,,,,,,426.6967158,426.7121319999999,427.1956097,427.2009270000001,427.22242299999994,428.91275500000006,1,1,1.6780068000002757,None,428.9129651999999,428.9280071999999,429.1280626,429.1120036,427.22242299999994,,,,,,,,,,,,,,,,,,,842,24,V,R,2026-02-18_11h26.30.084,VisualSearch_2526_3,,2025.2.4,2026-02-18 11h26.30.504443 +0100,
tilted.xlsx,The target is tilted.,117,4,4,0,1,1,1,1,1,1,1,1,1,1,1,1,0,11,12,117,space,5.543518400000266,None,1,1,2.3001408999998603,None,,,,0,1,1,0,0,4,4,0,,,,,429.1280626,,,,,,,,,,,,,,,,,,,,,429.1127448,429.1280626,429.6116526999997,429.6169288999997,429.63806039999986,431.9456778000001,1,1,2.3001408999998603,None,431.94590289999974,431.9604379,432.16035929999975,432.14436580000006,429.63806039999986,,,,,,,,,,,,,,,,,,,842,24,V,R,2026-02-18_11h26.30.084,VisualSearch_2526_3,,2025.2.4,2026-02-18 11h26.30.504443 +0100,
tilted.xlsx,The target is tilted.,117,5,5,0,0,1,1,1,1,1,1,1,1,1,1,1,1,11,12,117,space,5.543518400000266,None,0,1,3.128657700000076,None,,,,0,1,1,0,0,5,5,4,,,,,432.16035929999975,,,,,,,,,,,,,,,,,,,,,432.14512149999996,432.16035929999975,432.6442024999999,432.6495136000001,432.67093249999994,435.8105057999999,0,1,3.128657700000076,None,435.81072849999987,435.82575109999993,436.0256714999998,436.0096361999997,432.67093249999994,,,,,,,,,,,,,,,,,,,842,24,V,R,2026-02-18_11h26.30.084,VisualSearch_2526_3,,2025.2.4,2026-02-18 11h26.30.504443 +0100,
tilted.xlsx,The target is tilted.,117,6,6,0,0,1,1,1,1,1,1,1,0,0,0,0,1,7,8,117,space,5.543518400000266,None,0,1,4.555848900000001,None,,,,0,1,1,0,0,6,6,5,,,,,436.0256714999998,,,,,,,,,,,,,,,,,,,,,436.0104149000001,436.0256714999998,436.5096298000001,436.5149703999998,436.5363387,441.10866239999973,0,1,4.555848900000001,None,441.10890589999985,441.1237335999997,441.3240728999997,441.30799150000007,436.5363387,,,,,,,,,,,,,,,,,,,842,24,V,R,2026-02-18_11h26.30.084,VisualSearch_2526_3,,2025.2.4,2026-02-18 11h26.30.504443 +0100,
tilted.xlsx,The target is tilted.,117,7,7,0,1,1,1,1,1,1,1,1,0,0,0,0,0,7,8,117,space,5.543518400000266,None,1,1,2.1641543999999158,None,,,,0,1,1,0,0,7,7,1,,,,,441.3240728999997,,,,,,,,,,,,,,,,,,,,,441.30874849999987,441.3240728999997,441.80779499999994,441.8139785000001,441.8350697999997,444.0075827999997,1,1,2.1641543999999158,None,444.00780569999984,444.0229962000001,444.22309440000004,444.20695580000006,441.8350697999997,,,,,,,,,,,,,,,,,,,842,24,V,R,2026-02-18_11h26.30.084,VisualSearch_2526_3,,2025.2.4,2026-02-18 11h26.30.504443 +0100,
tilted.xlsx,The target is tilted.,117,0,0,0,1,1,1,1,1,1,1,1,1,1,1,1,0,11,12,117,space,5.543518400000266,None,1,1,5.279919800000243,None,space,4.186950099999649,None,0,1,1,0,,,,,0,0,0,0,448.4616577999998,,,,,,,,,,,,,,,,,,,,,448.4570934000001,448.4616577999998,448.93760199999974,448.9404194000001,448.95438820000004,454.2376174999997,,,,,454.23787749999997,454.2523141999998,454.4530884999997,454.43698130000007,,444.2147029999999,444.22309440000004,444.22309440000004,448.4227315999999,space,4.186950099999649,None,1,1,5.279919800000243,None,,,,,,,,842,24,V,R,2026-02-18_11h26.30.084,VisualSearch_2526_3,,2025.2.4,2026-02-18 11h26.30.504443 +0100,
tilted.xlsx,The target is tilted.,117,1,1,0,1,0,0,0,0,0,0,0,0,0,0,0,0,0,1,117,space,5.543518400000266,None,1,1,1.2670545999999376,None,space,4.186950099999649,None,0,1,1,0,,,,,0,1,1,3,454.4530884999997,,,,,,,,,,,,,,,,,,,,,454.43778629999974,454.4530884999997,454.93686890000004,454.9422208999997,454.9577247999998,456.23685509999973,,,,,456.23709129999975,456.2520844999997,456.4524326999997,456.43629469999973,454.9577247999998,,,,,,,,1,1,1.2670545999999376,None,,,,,,,,842,24,V,R,2026-02-18_11h26.30.084,VisualSearch_2526_3,,2025.2.4,2026-02-18 11h26.30.504443 +0100,
tilted.xlsx,The target is tilted.,117,2,2,0,0,1,1,1,0,0,0,0,0,0,0,0,1,3,4,117,space,5.543518400000266,None,0,1,1.040601499999866,None,space,4.186950099999649,None,0,1,1,0,,,,,0,2,2,6,456.4524326999997,,,,,,,,,,,,,,,,,,,,,456.4371073,456.4524326999997,456.9362033,456.9415277999999,456.9573396999997,458.0031305,,,,,458.0033606999998,458.01856539999994,458.2185530999998,458.2024613000001,456.9573396999997,,,,,,,,0,1,1.040601499999866,None,,,,,,,,842,24,V,R,2026-02-18_11h26.30.084,VisualSearch_2526_3,,2025.2.4,2026-02-18 11h26.30.504443 +0100,
tilted.xlsx,The target is tilted.,117,3,3,0,1,1,1,1,1,1,1,1,0,0,0,0,0,7,8,117,space,5.543518400000266,None,1,1,1.6175060999999005,None,space,4.186950099999649,None,0,1,1,0,,,,,0,3,3,1,458.2185530999998,,,,,,,,,,,,,,,,,,,,,458.20327489999977,458.2185530999998,458.70230549999974,458.70726039999977,458.71802189999994,460.3521546999998,,,,,460.3523512999998,460.36760359999994,460.5676897000001,460.55171029999997,458.71802189999994,,,,,,,,1,1,1.6175060999999005,None,,,,,,,,842,24,V,R,2026-02-18_11h26.30.084,VisualSearch_2526_3,,2025.2.4,2026-02-18 11h26.30.504443 +0100,
tilted.xlsx,The target is tilted.,117,4,4,0,0,1,1,1,1,1,1,1,1,1,1,1,1,11,12,117,space,5.543518400000266,None,0,1,2.726542700000209,None,space,4.186950099999649,None,0,1,1,0,,,,,0,4,4,4,460.5676897000001,,,,,,,,,,,,,,,,,,,,,460.5525061999999,460.5676897000001,461.05157729999996,461.0569048,461.0783829999998,463.8175653999999,,,,,463.8177825,463.83321550000005,464.03284929999995,464.0172393999999,461.0783829999998,,,,,,,,0,1,2.726542700000209,None,,,,,,,,842,24,V,R,2026-02-18_11h26.30.084,VisualSearch_2526_3,,2025.2.4,2026-02-18 11h26.30.504443 +0100,
tilted.xlsx,The target is tilted.,117,5,5,0,0,0,0,0,0,0,0,0,0,0,0,0,1,1,1,117,space,5.543518400000266,None,0,1,1.3995941000002858,None,space,4.186950099999649,None,0,1,1,0,,,,,0,5,5,7,464.03284929999995,,,,,,,,,,,,,,,,,,,,,464.0180462000001,464.03284929999995,464.51707919999967,464.5223727,464.5426832999999,465.9502852999997,,,,,465.95053329999996,465.9659159999999,466.16582809999977,466.1498865000001,464.5426832999999,,,,,,,,0,1,1.3995941000002858,None,,,,,,,,842,24,V,R,2026-02-18_11h26.30.084,VisualSearch_2526_3,,2025.2.4,2026-02-18 11h26.30.504443 +0100,
tilted.xlsx,The target is tilted.,117,6,6,0,1,1,1,1,0,0,0,0,0,0,0,0,0,3,4,117,space,5.543518400000266,None,1,1,1.2374907000003077,None,space,4.186950099999649,None,0,1,1,0,,,,,0,6,6,2,466.16582809999977,,,,,,,,,,,,,,,,,,,,,466.1506892,466.16582809999977,466.64931169999977,466.65476250000006,466.67628839999975,467.91643869999984,,,,,467.91664479999986,467.93196049999983,468.13188990000003,468.11569529999974,466.67628839999975,,,,,,,,1,1,1.2374907000003077,None,,,,,,,,842,24,V,R,2026-02-18_11h26.30.084,VisualSearch_2526_3,,2025.2.4,2026-02-18 11h26.30.504443 +0100,
tilted.xlsx,The target is tilted.,117,7,7,0,0,1,1,1,1,1,1,1,0,0,0,0,1,7,8,117,space,5.543518400000266,None,0,1,4.186367300000256,None,space,4.186950099999649,None,0,1,1,0,,,,,0,7,7,5,468.13188990000003,,,,,,,,,,,,,,,,,,,,,468.11652249999975,468.13188990000003,468.6153047,468.62064429999987,468.64195959999984,472.8322004999998,,,,,472.83244579999996,472.84660729999973,473.0469068,473.0309411999999,468.64195959999984,,,,,,,,0,1,4.186367300000256,None,,,,,,,,842,24,V,R,2026-02-18_11h26.30.084,VisualSearch_2526_3,,2025.2.4,2026-02-18 11h26.30.504443 +0100,
tilted.xlsx,The target is tilted.,117,8,0,1,1,1,1,1,1,1,1,1,1,1,1,1,0,11,12,117,space,5.543518400000266,None,1,1,1.4622832000000017,None,space,4.186950099999649,None,0,1,1,0,,,,,1,0,8,0,473.0469068,,,,,,,,,,,,,,,,,,,,,473.0317322999997,473.0469068,473.5308275,473.5363415999998,473.5575673999999,475.0309202000001,,,,,475.03113529999996,475.04595399999994,475.24624149999977,475.23001439999985,473.5575673999999,,,,,,,,1,1,1.4622832000000017,None,,,,,,,,842,24,V,R,2026-02-18_11h26.30.084,VisualSearch_2526_3,,2025.2.4,2026-02-18 11h26.30.504443 +0100,
tilted.xlsx,The target is tilted.,117,9,1,1,1,1,1,1,0,0,0,0,0,0,0,0,0,3,4,117,space,5.543518400000266,None,1,1,1.751605500000096,None,space,4.186950099999649,None,0,1,1,0,,,,,1,1,9,2,475.24624149999977,,,,,,,,,,,,,,,,,,,,,475.2309290999999,475.24624149999977,475.7300413999999,475.73541090000003,475.7527047000001,477.5132605000001,,,,,477.51350690000004,477.5286976,477.72839739999995,477.7125693999999,475.7527047000001,,,,,,,,1,1,1.751605500000096,None,,,,,,,,842,24,V,R,2026-02-18_11h26.30.084,VisualSearch_2526_3,,2025.2.4,2026-02-18 11h26.30.504443 +0100,
tilted.xlsx,The target is tilted.,117,10,2,1,0,1,1,1,1,1,1,1,1,1,1,1,1,11,12,117,space,5.543518400000266,None,0,1,5.083691600000293,None,space,4.186950099999649,None,0,1,1,0,,,,,1,2,10,4,477.72839739999995,,,,,,,,,,,,,,,,,,,,,477.7134316999998,477.72839739999995,478.2125894999997,478.21786099999986,478.24021100000004,483.3279124999997,,,,,483.3281356,483.34345800000006,483.5435033000001,483.5274572000001,478.24021100000004,,,,,,,,0,1,5.083691600000293,None,,,,,,,,842,24,V,R,2026-02-18_11h26.30.084,VisualSearch_2526_3,,2025.2.4,2026-02-18 11h26.30.504443 +0100,
tilted.xlsx,The target is tilted.,117,11,3,1,0,1,1,1,1,1,1,1,0,0,0,0,1,7,8,117,space,5.543518400000266,None,0,1,2.821390600000086,None,space,4.186950099999649,None,0,1,1,0,,,,,1,3,11,5,483.5435033000001,,,,,,,,,,,,,,,,,,,,,483.5282642999998,483.5435033000001,484.0272921999997,484.03270240000006,484.0539274,486.87700040000004,,,,,486.87724030000004,486.89251379999973,487.09242519999975,487.07627179999986,484.0539274,,,,,,,,0,1,2.821390600000086,None,,,,,,,,842,24,V,R,2026-02-18_11h26.30.084,VisualSearch_2526_3,,2025.2.4,2026-02-18 11h26.30.504443 +0100,
tilted.xlsx,The target is tilted.,117,12,4,1,0,1,1,1,0,0,0,0,0,0,0,0,1,3,4,117,space,5.543518400000266,None,0,1,1.2733707000002141,None,space,4.186950099999649,None,0,1,1,0,,,,,1,4,12,6,487.09242519999975,,,,,,,,,,,,,,,,,,,,,487.0770903,487.09242519999975,487.5761593999998,487.5815,487.60286870000004,488.8936825999997,,,,,488.8939087000001,488.9081464999997,489.1084221999997,489.0924002999998,487.60286870000004,,,,,,,,0,1,1.2733707000002141,None,,,,,,,,842,24,V,R,2026-02-18_11h26.30.084,VisualSearch_2526_3,,2025.2.4,2026-02-18 11h26.30.504443 +0100,
tilted.xlsx,The target is tilted.,117,13,5,1,1,0,0,0,0,0,0,0,0,0,0,0,0,0,1,117,space,5.543518400000266,None,1,1,0.9436012999999548,None,space,4.186950099999649,None,0,1,1,0,,,,,1,5,13,3,489.1084221999997,,,,,,,,,,,,,,,,,,,,,489.09323059999974,489.1084221999997,489.59217139999987,489.59750009999993,489.61859249999975,490.5756058999998,,,,,490.5758244000001,490.5908870999999,490.79117599999995,490.7748019999997,489.61859249999975,,,,,,,,1,1,0.9436012999999548,None,,,,,,,,842,24,V,R,2026-02-18_11h26.30.084,VisualSearch_2526_3,,2025.2.4,2026-02-18 11h26.30.504443 +0100,
tilted.xlsx,The target is tilted.,117,14,6,1,1,1,1,1,1,1,1,1,0,0,0,0,0,7,8,117,space,5.543518400000266,None,1,1,2.0320682000001398,None,space,4.186950099999649,None,0,1,1,0,,,,,1,6,14,1,490.79117599999995,,,,,,,,,,,,,,,,,,,,,490.7756462,490.79117599999995,491.2748749,491.2801545,491.30088409999985,493.3415236999997,,,,,493.34178180000004,493.35690499999987,493.5568624,493.5408875999999,491.30088409999985,,,,,,,,1,1,2.0320682000001398,None,,,,,,,,842,24,V,R,2026-02-18_11h26.30.084,VisualSearch_2526_3,,2025.2.4,2026-02-18 11h26.30.504443 +0100,
tilted.xlsx,The target is tilted.,117,15,7,1,0,0,0,0,0,0,0,0,0,0,0,0,1,1,1,117,space,5.543518400000266,None,0,1,0.750966999999946,None,space,4.186950099999649,None,0,1,1,0,,,,,1,7,15,7,493.5568624,,,,,,,,,,,,,,,,,,,,,493.5418112,493.5568624,494.0407668999999,494.04623449999985,494.0675525999998,494.8242233999997,,,,,494.8244978,494.83948039999973,495.03976880000005,495.02377009999987,494.0675525999998,,,,,,,,0,1,0.750966999999946,None,,,,,,,,842,24,V,R,2026-02-18_11h26.30.084,VisualSearch_2526_3,,2025.2.4,2026-02-18 11h26.30.504443 +0100,
tilted.xlsx,The target is tilted.,117,16,0,2,1,1,1,1,0,0,0,0,0,0,0,0,0,3,4,117,space,5.543518400000266,None,1,1,0.9298416000001453,None,space,4.186950099999649,None,0,1,1,0,,,,,2,0,16,2,495.03976880000005,,,,,,,,,,,,,,,,,,,,,495.0245867000001,495.03976880000005,495.5235412999998,495.5289193000001,495.54993009999976,496.4905421000001,,,,,496.49077280000006,496.5058977000001,496.7058171000001,496.6900008,495.54993009999976,,,,,,,,1,1,0.9298416000001453,None,,,,,,,,842,24,V,R,2026-02-18_11h26.30.084,VisualSearch_2526_3,,2025.2.4,2026-02-18 11h26.30.504443 +0100,
tilted.xlsx,The target is tilted.,117,17,1,2,0,0,0,0,0,0,0,0,0,0,0,0,1,1,1,117,space,5.543518400000266,None,0,1,0.7505476000001181,None,space,4.186950099999649,None,0,1,1,0,,,,,2,1,17,7,496.7058171000001,,,,,,,,,,,,,,,,,,,,,496.69082509999976,496.7058171000001,497.1896583,497.19512770000006,497.21636379999995,497.97346109999967,,,,,497.9736765,497.9885056999999,498.1887457999999,498.1722404999998,497.21636379999995,,,,,,,,0,1,0.7505476000001181,None,,,,,,,,842,24,V,R,2026-02-18_11h26.30.084,VisualSearch_2526_3,,2025.2.4,2026-02-18 11h26.30.504443 +0100,
tilted.xlsx,The target is tilted.,117,18,2,2,1,1,1,1,1,1,1,1,0,0,0,0,0,7,8,117,space,5.543518400000266,None,1,1,1.8987505999998575,None,space,4.186950099999649,None,0,1,1,0,,,,,2,2,18,1,498.1887457999999,,,,,,,,,,,,,,,,,,,,,498.17310459999976,498.1887457999999,498.67238459999976,498.6777424999998,498.6990070999998,500.6061546999997,,,,,500.60636929999987,500.62132129999986,500.82120899999995,500.80482659999984,498.6990070999998,,,,,,,,1,1,1.8987505999998575,None,,,,,,,,842,24,V,R,2026-02-18_11h26.30.084,VisualSearch_2526_3,,2025.2.4,2026-02-18 11h26.30.504443 +0100,
tilted.xlsx,The target is tilted.,117,19,3,2,1,0,0,0,0,0,0,0,0,0,0,0,0,0,1,117,space,5.543518400000266,None,1,1,0.5613523000001805,None,space,4.186950099999649,None,0,1,1,0,,,,,2,3,19,3,500.82120899999995,,,,,,,,,,,,,,,,,,,,,500.8056703999998,500.82120899999995,501.30501630000003,501.31031069999995,501.3315196000001,501.90515170000003,,,,,501.90536629999974,501.9205463999999,502.1206565,502.1047627999999,501.3315196000001,,,,,,,,1,1,0.5613523000001805,None,,,,,,,,842,24,V,R,2026-02-18_11h26.30.084,VisualSearch_2526_3,,2025.2.4,2026-02-18 11h26.30.504443 +0100,
tilted.xlsx,The target is tilted.,117,20,4,2,0,1,1,1,1,1,1,1,1,1,1,1,1,11,12,117,space,5.543518400000266,None,0,1,3.675992099999803,None,space,4.186950099999649,None,0,1,1,0,,,,,2,4,20,4,502.1206565,,,,,,,,,,,,,,,,,,,,,502.1055722999997,502.1206565,502.6046008999999,502.6099074000001,502.63191600000005,506.3203427000001,,,,,506.3205585999997,506.3357755999998,506.5359949000001,506.51998119999985,502.63191600000005,,,,,,,,0,1,3.675992099999803,None,,,,,,,,842,24,V,R,2026-02-18_11h26.30.084,VisualSearch_2526_3,,2025.2.4,2026-02-18 11h26.30.504443 +0100,
tilted.xlsx,The target is tilted.,117,21,5,2,1,1,1,1,1,1,1,1,1,1,1,1,0,11,12,117,space,5.543518400000266,None,1,1,1.838205300000027,None,space,4.186950099999649,None,0,1,1,0,,,,,2,5,21,0,506.5359949000001,,,,,,,,,,,,,,,,,,,,,506.5207748,506.5359949000001,507.0198109999999,507.0251028,507.04587049999986,508.8862901,,,,,508.8865165999998,508.90153239999995,509.10167449999994,509.0856274,507.04587049999986,,,,,,,,1,1,1.838205300000027,None,,,,,,,,842,24,V,R,2026-02-18_11h26.30.084,VisualSearch_2526_3,,2025.2.4,2026-02-18 11h26.30.504443 +0100,
tilted.xlsx,The target is tilted.,117,22,6,2,0,1,1,1,0,0,0,0,0,0,0,0,1,3,4,117,space,5.543518400000266,None,0,1,1.6754132999999456,None,space,4.186950099999649,None,0,1,1,0,,,,,2,6,22,6,509.10167449999994,,,,,,,,,,,,,,,,,,,,,509.08649779999973,509.10167449999994,509.5853497999999,509.5905236000001,509.6115027999997,511.30239890000007,,,,,511.3026170999999,511.31736320000005,511.51773519999983,511.5013148999999,509.6115027999997,,,,,,,,0,1,1.6754132999999456,None,,,,,,,,842,24,V,R,2026-02-18_11h26.30.084,VisualSearch_2526_3,,2025.2.4,2026-02-18 11h26.30.504443 +0100,
tilted.xlsx,The target is tilted.,117,23,7,2,0,1,1,1,1,1,1,1,0,0,0,0,1,7,8,117,space,5.543518400000266,None,0,1,4.209214499999689,None,space,4.186950099999649,None,0,1,1,0,,,,,2,7,23,5,511.51773519999983,,,,,,,,,,,,,,,,,,,,,511.50224490000005,511.51773519999983,512.0015258999999,512.0065103,512.0173149999998,516.2341363999997,,,,,516.2343542000001,516.2491167000001,516.4492949999997,516.4332044999999,512.0173149999998,,,,,,,,0,1,4.209214499999689,None,,,,,,,,842,24,V,R,2026-02-18_11h26.30.084,VisualSearch_2526_3,,2025.2.4,2026-02-18 11h26.30.504443 +0100,
tilted.xlsx,The target is tilted.,117,24,0,3,0,1,1,1,1,1,1,1,1,1,1,1,1,11,12,117,space,5.543518400000266,None,0,1,2.6718799999998737,None,space,4.186950099999649,None,0,1,1,0,,,,,3,0,24,4,516.4492949999997,,,,,,,,,,,,,,,,,,,,,516.4340669000001,516.4492949999997,516.9333449999997,516.9387959999997,516.9554685,519.6330324999997,,,,,519.6332522999999,519.6482275000001,519.8482514,519.8322910999998,516.9554685,,,,,,,,0,1,2.6718799999998737,None,,,,,,,,842,24,V,R,2026-02-18_11h26.30.084,VisualSearch_2526_3,,2025.2.4,2026-02-18 11h26.30.504443 +0100,
tilted.xlsx,The target is tilted.,117,25,1,3,1,1,1,1,0,0,0,0,0,0,0,0,0,3,4,117,space,5.543518400000266,None,1,1,1.213960600000064,None,space,4.186950099999649,None,0,1,1,0,,,,,3,1,25,2,519.8482514,,,,,,,,,,,,,,,,,,,,,519.8330883000001,519.8482514,520.3321641999999,520.3375183999999,520.3586122999998,521.5824302999997,,,,,521.5826479999998,521.5973775999998,521.7976277,521.7816691999999,520.3586122999998,,,,,,,,1,1,1.213960600000064,None,,,,,,,,842,24,V,R,2026-02-18_11h26.30.084,VisualSearch_2526_3,,2025.2.4,2026-02-18 11h26.30.504443 +0100,
tilted.xlsx,The target is tilted.,117,26,2,3,1,0,0,0,0,0,0,0,0,0,0,0,0,0,1,117,space,5.543518400000266,None,1,1,0.5273713000001408,None,space,4.186950099999649,None,0,1,1,0,,,,,3,2,26,3,521.7976277,,,,,,,,,,,,,,,,,,,,,521.7824638,521.7976277,522.2814937999999,522.2867323999997,522.3078217,522.8485040999997,,,,,522.8487566000001,522.8637084,523.0639650999999,523.0479239999997,522.3078217,,,,,,,,1,1,0.5273713000001408,None,,,,,,,,842,24,V,R,2026-02-18_11h26.30.084,VisualSearch_2526_3,,2025.2.4,2026-02-18 11h26.30.504443 +0100,
tilted.xlsx,The target is tilted.,117,27,3,3,1,1,1,1,1,1,1,1,0,0,0,0,0,7,8,117,space,5.543518400000266,None,1,1,3.1189617,None,space,4.186950099999649,None,0,1,1,0,,,,,3,3,27,1,523.0639650999999,,,,,,,,,,,,,,,,,,,,,523.0487175999999,523.0639650999999,523.5475237999997,523.5529159,523.5734325000001,526.6971495,,,,,526.6973943999999,526.7126539999997,526.9127114,526.8963114999999,523.5734325000001,,,,,,,,1,1,3.1189617,None,,,,,,,,842,24,V,R,2026-02-18_11h26.30.084,VisualSearch_2526_3,,2025.2.4,2026-02-18 11h26.30.504443 +0100,
tilted.xlsx,The target is tilted.,117,28,4,3,0,1,1,1,1,1,1,1,0,0,0,0,1,7,8,117,space,5.543518400000266,None,0,1,2.079499599999963,None,space,4.186950099999649,None,0,1,1,0,,,,,3,4,28,5,526.9127114,,,,,,,,,,,,,,,,,,,,,526.8971331999999,526.9127114,527.3964728999997,527.4017197999999,527.4224850999997,529.5131054999999,,,,,529.5133226,529.5280608,529.7284707000001,529.7124799999999,527.4224850999997,,,,,,,,0,1,2.079499599999963,None,,,,,,,,842,24,V,R,2026-02-18_11h26.30.084,VisualSearch_2526_3,,2025.2.4,2026-02-18 11h26.30.504443 +0100,
tilted.xlsx,The target is tilted.,117,29,5,3,0,1,1,1,0,0,0,0,0,0,0,0,1,3,4,117,space,5.543518400000266,None,0,1,1.0108024000001024,None,space,4.186950099999649,None,0,1,1,0,,,,,3,5,29,6,529.7284707000001,,,,,,,,,,,,,,,,,,,,,529.7133108999999,529.7284707000001,530.2122754,530.2172490999999,530.2279748999997,531.2454339999997,,,,,531.2456727000001,531.2610751,531.4612402,531.4449696999998,530.2279748999997,,,,,,,,0,1,1.0108024000001024,None,,,,,,,,842,24,V,R,2026-02-18_11h26.30.084,VisualSearch_2526_3,,2025.2.4,2026-02-18 11h26.30.504443 +0100,
tilted.xlsx,The target is tilted.,117,30,6,3,0,0,0,0,0,0,0,0,0,0,0,0,1,1,1,117,space,5.543518400000266,None,0,1,0.49106320000009873,None,space,4.186950099999649,None,0,1,1,0,,,,,3,6,30,7,531.4612402,,,,,,,,,,,,,,,,,,,,,531.4458413,531.4612402,531.9449677999999,531.9503090999999,531.9710634999999,532.4786674,,,,,532.4789161000001,532.4938085000001,532.6940093000001,532.6777129999998,531.9710634999999,,,,,,,,0,1,0.49106320000009873,None,,,,,,,,842,24,V,R,2026-02-18_11h26.30.084,VisualSearch_2526_3,,2025.2.4,2026-02-18 11h26.30.504443 +0100,
tilted.xlsx,The target is tilted.,117,31,7,3,1,1,1,1,1,1,1,1,1,1,1,1,0,11,12,117,space,5.543518400000266,None,1,1,1.112187200000335,None,space,4.186950099999649,None,0,1,1,0,,,,,3,7,31,0,532.6940093000001,,,,,,,,,,,,,,,,,,,,,532.6785456999999,532.6940093000001,533.1779355000001,533.1833166999998,533.2046915999997,534.3281491999999,,,,,534.3283789999998,534.3432829000001,534.5435046,534.5271252,533.2046915999997,,,,,,,,1,1,1.112187200000335,None,,,,,,,,842,24,V,R,2026-02-18_11h26.30.084,VisualSearch_2526_3,,2025.2.4,2026-02-18 11h26.30.504443 +0100,
tilted.xlsx,The target is tilted.,117,32,0,4,1,1,1,1,1,1,1,1,1,1,1,1,0,11,12,117,space,5.543518400000266,None,1,1,3.4924393999999666,None,space,4.186950099999649,None,0,1,1,0,,,,,4,0,32,0,534.5435046,,,,,,,,,,,,,,,,,,,,,534.5279472999998,534.5435046,535.0270058999997,535.0325169,535.0542926999999,538.5600434999999,,,,,538.5602932999998,538.5754098999998,538.7751043999999,538.7593970999999,535.0542926999999,,,,,,,,1,1,3.4924393999999666,None,,,,,,,,842,24,V,R,2026-02-18_11h26.30.084,VisualSearch_2526_3,,2025.2.4,2026-02-18 11h26.30.504443 +0100,
tilted.xlsx,The target is tilted.,117,33,1,4,0,1,1,1,0,0,0,0,0,0,0,0,1,3,4,117,space,5.543518400000266,None,0,1,1.1577142999999523,None,space,4.186950099999649,None,0,1,1,0,,,,,4,1,33,6,538.7751043999999,,,,,,,,,,,,,,,,,,,,,538.7601893999997,538.7751043999999,539.2589347,539.2642298999997,539.2853201999999,540.4594887999999,,,,,540.4597108,540.4747520999997,540.6747459000001,540.6588672999999,539.2853201999999,,,,,,,,0,1,1.1577142999999523,None,,,,,,,,842,24,V,R,2026-02-18_11h26.30.084,VisualSearch_2526_3,,2025.2.4,2026-02-18 11h26.30.504443 +0100,
tilted.xlsx,The target is tilted.,117,34,2,4,1,1,1,1,0,0,0,0,0,0,0,0,0,3,4,117,space,5.543518400000266,None,0,0,0.972858499999802,None,space,4.186950099999649,None,0,1,1,0,,,,,4,2,34,2,540.6747459000001,,,,,,,,,,,,,,,,,,,,,540.6596879000001,540.6747459000001,541.1586597999997,541.1640473,541.1855539000001,542.1749026,,,,,542.1750482999998,542.1907383,542.3909649,542.3750161999999,541.1855539000001,,,,,,,,0,0,0.972858499999802,None,,,,,,,,842,24,V,R,2026-02-18_11h26.30.084,VisualSearch_2526_3,,2025.2.4,2026-02-18 11h26.30.504443 +0100,
tilted.xlsx,The target is tilted.,117,35,3,4,0,0,0,0,0,0,0,0,0,0,0,0,1,1,1,117,space,5.543518400000266,None,0,1,0.8861962999999378,None,space,4.186950099999649,None,0,1,1,0,,,,,4,3,35,7,542.3909649,,,,,,,,,,,,,,,,,,,,,542.3758298999999,542.3909649,542.8747154,542.8800454999998,542.9012938999997,543.7913636000001,,,,,543.7915796999998,543.8068213999998,544.0070456000001,543.9911027,542.9012938999997,,,,,,,,0,1,0.8861962999999378,None,,,,,,,,842,24,V,R,2026-02-18_11h26.30.084,VisualSearch_2526_3,,2025.2.4,2026-02-18 11h26.30.504443 +0100,
tilted.xlsx,The target is tilted.,117,36,4,4,0,1,1,1,1,1,1,1,0,0,0,0,1,7,8,117,space,5.543518400000266,None,0,1,3.4770712000004096,None,space,4.186950099999649,None,0,1,1,0,,,,,4,4,36,5,544.0070456000001,,,,,,,,,,,,,,,,,,,,,543.991957,544.0070456000001,544.4904724999999,544.4957975,544.5170799999999,548.0069563,,,,,548.0072017999998,548.0220643999999,548.2223606999999,548.206257,544.5170799999999,,,,,,,,0,1,3.4770712000004096,None,,,,,,,,842,24,V,R,2026-02-18_11h26.30.084,VisualSearch_2526_3,,2025.2.4,2026-02-18 11h26.30.504443 +0100,
