file_name,block_instructions,target_example,thisN,thisTrialN,thisRepN,target_presence,opacity_1,opacity_2,opacity_3,opacity_4,opacity_5,opacity_6,opacity_7,opacity_8,opacity_9,opacity_10,opacity_11,opacity_12,n_distract,n_items,target_ori,key_resp_4.keys,key_resp_4.rt,key_resp_4.duration,key_resp.keys,key_resp.corr,key_resp.rt,key_resp.duration,key_resp_5.keys,key_resp_5.rt,key_resp_5.duration,blocks.thisRepN,blocks.thisTrialN,blocks.thisN,blocks.thisIndex,practice_trials.thisRepN,practice_trials.thisTrialN,practice_trials.thisN,practice_trials.thisIndex,trials.thisRepN,trials.thisTrialN,trials.thisN,trials.thisIndex,thisRow.t,notes,Welcome.started,WelcomeText.started,key_resp_2.started,Welcome.stopped,key_resp_2.keys,key_resp_2.rt,key_resp_2.duration,InformedConsent.started,text_4.started,InformedConsent.stopped,key_resp_6.keys,key_resp_6.rt,key_resp_6.duration,key_resp_4.started,example_target.started,text_3.started,blocks.key_resp_4.keys,blocks.key_resp_4.rt,blocks.key_resp_4.duration,FixCross.started,fixCross.started,FixCross.stopped,Stimulus.started,key_resp.started,Stimulus.stopped,practice_trials.key_resp.keys,practice_trials.key_resp.corr,practice_trials.key_resp.rt,practice_trials.key_resp.duration,BlankScreen.started,text.started,text.stopped,BlankScreen.stopped,fixCross.stopped,ExperimentStart.started,text_2.started,key_resp_5.started,ExperimentStart.stopped,blocks.key_resp_5.keys,blocks.key_resp_5.rt,blocks.key_resp_5.duration,trials.key_resp.keys,trials.key_resp.corr,trials.key_resp.rt,trials.key_resp.duration,Thanks.started,ThankYou.started,key_resp_3.started,Thanks.stopped,key_resp_3.keys,key_resp_3.rt,key_resp_3.duration,participant,leeftijd,gender,links/rechtshandig,date,expName,expVersion,psychopyVersion,expStart,
,,,,,,,,,,,,,,,,,,,,,,,,,,,,,,,,,,,,,,,,,,,,,,0.016840400000091904,0.03101020000030985,0.03101020000030985,47.961517200000344,space,47.91017759999977,None,,,,,,,,,,,,,,,,,,,,,,,,,,,,,,,,,,,,,,,,,,,,,,843,24,V,R,2026-02-18_11h46.17.206,VisualSearch_2526_3,,2025.2.4,2026-02-18 11h46.17.431216 +0100,
,,,,,,,,,,,,,,,,,,,,,,,,,,,,,,,,,,,,,,,,,,,,,,,,,,,,,47.96159549999993,47.96734050000032,50.86371240000017,y,2.8895958999996765,None,,,,,,,,,,,,,,,,,,,,,,,,,,,,,,,,,,,,,,,,843,24,V,R,2026-02-18_11h46.17.206,VisualSearch_2526_3,,2025.2.4,2026-02-18 11h46.17.431216 +0100,
vertical.xlsx,The target is tilted.,135,0,0,0,1,1,1,1,0,0,0,0,0,0,0,0,0,3,4,135,space,4.452764599999682,None,1,1,0.8540923000000475,None,,,,0,0,0,1,0,0,0,2,,,,,55.38736240000026,,,,,,,,,,,,,,,50.90165230000002,50.90165230000002,50.90165230000002,space,4.452764599999682,None,55.38234420000026,55.38736240000026,55.87721250000004,55.88281450000022,55.897997900000064,56.761458700000276,1,1,0.8540923000000475,None,56.76170400000001,56.776661200000035,56.97681590000002,56.960604700000204,,,,,,,,,,,,,,,,,,,,843,24,V,R,2026-02-18_11h46.17.206,VisualSearch_2526_3,,2025.2.4,2026-02-18 11h46.17.431216 +0100,
vertical.xlsx,The target is tilted.,135,1,1,0,0,1,1,1,1,1,1,1,0,0,0,0,1,7,8,135,space,4.452764599999682,None,0,1,2.0236048000001574,None,,,,0,0,0,1,0,1,1,5,,,,,56.97681590000002,,,,,,,,,,,,,,,,,,,,,56.96138850000034,56.97681590000002,57.46027630000026,57.46577079999997,57.483769400000256,59.509660200000326,0,1,2.0236048000001574,None,59.509826299999986,59.52555290000009,59.72593010000037,59.70977240000002,57.483769400000256,,,,,,,,,,,,,,,,,,,843,24,V,R,2026-02-18_11h46.17.206,VisualSearch_2526_3,,2025.2.4,2026-02-18 11h46.17.431216 +0100,
vertical.xlsx,The target is tilted.,135,2,2,0,0,1,1,1,0,0,0,0,0,0,0,0,1,3,4,135,space,4.452764599999682,None,0,1,0.6644068000000516,None,,,,0,0,0,1,0,2,2,6,,,,,59.72593010000037,,,,,,,,,,,,,,,,,,,,,59.71052009999994,59.72593010000037,60.20970010000019,60.2150558000003,60.22897130000001,60.90960320000022,0,1,0.6644068000000516,None,60.909793400000126,60.92489230000001,61.12548760000027,61.10938299999998,60.22897130000001,,,,,,,,,,,,,,,,,,,843,24,V,R,2026-02-18_11h46.17.206,VisualSearch_2526_3,,2025.2.4,2026-02-18 11h46.17.431216 +0100,
vertical.xlsx,The target is tilted.,135,3,3,0,1,0,0,0,0,0,0,0,0,0,0,0,0,0,1,135,space,4.452764599999682,None,1,1,0.7369760999999926,None,,,,0,0,0,1,0,3,3,3,,,,,61.12548760000027,,,,,,,,,,,,,,,,,,,,,61.11015780000025,61.12548760000027,61.6090336000002,61.614454300000034,61.63104360000034,62.37598900000012,1,1,0.7369760999999926,None,62.37622390000024,62.39127940000026,62.591488700000355,62.57561900000019,61.63104360000034,,,,,,,,,,,,,,,,,,,843,24,V,R,2026-02-18_11h46.17.206,VisualSearch_2526_3,,2025.2.4,2026-02-18 11h46.17.431216 +0100,
vertical.xlsx,The target is tilted.,135,4,4,0,0,0,0,0,0,0,0,0,0,0,0,0,1,1,1,135,space,4.452764599999682,None,0,1,0.6109808999999586,None,,,,0,0,0,1,0,4,4,7,,,,,62.591488700000355,,,,,,,,,,,,,,,,,,,,,62.57634420000022,62.591488700000355,63.07509280000022,63.08054420000008,63.097157100000004,63.725274300000365,0,1,0.6109808999999586,None,63.72549310000022,63.74120680000033,63.940923399999974,63.92512130000023,63.097157100000004,,,,,,,,,,,,,,,,,,,843,24,V,R,2026-02-18_11h46.17.206,VisualSearch_2526_3,,2025.2.4,2026-02-18 11h46.17.431216 +0100,
vertical.xlsx,The target is tilted.,135,5,5,0,1,1,1,1,1,1,1,1,1,1,1,1,0,11,12,135,space,4.452764599999682,None,1,1,1.6075886999997238,None,,,,0,0,0,1,0,5,5,0,,,,,63.940923399999974,,,,,,,,,,,,,,,,,,,,,63.92594270000018,63.940923399999974,64.4251290000002,64.43053800000007,64.44432600000027,66.05783270000029,1,1,1.6075886999997238,None,66.05803170000036,66.07332859999997,66.2738360000003,66.25781069999994,64.44432600000027,,,,,,,,,,,,,,,,,,,843,24,V,R,2026-02-18_11h46.17.206,VisualSearch_2526_3,,2025.2.4,2026-02-18 11h46.17.431216 +0100,
vertical.xlsx,The target is tilted.,135,6,6,0,1,1,1,1,1,1,1,1,0,0,0,0,0,7,8,135,space,4.452764599999682,None,1,1,0.9212247000000389,None,,,,0,0,0,1,0,6,6,1,,,,,66.2738360000003,,,,,,,,,,,,,,,,,,,,,66.25857339999993,66.2738360000003,66.75744020000002,66.7629578000001,66.77713710000035,67.70718239999997,1,1,0.9212247000000389,None,67.70733289999998,67.72265430000016,67.92295430000013,67.90679910000017,66.77713710000035,,,,,,,,,,,,,,,,,,,843,24,V,R,2026-02-18_11h46.17.206,VisualSearch_2526_3,,2025.2.4,2026-02-18 11h46.17.431216 +0100,
vertical.xlsx,The target is tilted.,135,7,7,0,0,1,1,1,1,1,1,1,1,1,1,1,1,11,12,135,space,4.452764599999682,None,0,1,2.6429103999998915,None,,,,0,0,0,1,0,7,7,4,,,,,67.92295430000013,,,,,,,,,,,,,,,,,,,,,67.9075358,67.92295430000013,68.4059070000003,68.40794480000022,68.42230530000006,71.07342540000036,0,1,2.6429103999998915,None,71.07368540000016,71.08839370000032,71.28817700000036,71.27227900000025,68.42230530000006,,,,,,,,,,,,,,,,,,,843,24,V,R,2026-02-18_11h46.17.206,VisualSearch_2526_3,,2025.2.4,2026-02-18 11h46.17.431216 +0100,
vertical.xlsx,The target is tilted.,135,0,0,0,1,1,1,1,1,1,1,1,0,0,0,0,0,7,8,135,space,4.452764599999682,None,1,1,1.5915638999999828,None,space,2.3451876999997694,None,0,0,0,1,,,,,0,0,0,1,73.66919619999999,,,,,,,,,,,,,,,,,,,,,73.6653851000001,73.66919619999999,74.15488180000011,74.16037030000007,74.17579969999997,75.77156839999998,,,,,75.77180210000006,75.78664260000005,75.98726990000023,75.9713514,,71.28029170000036,71.28817700000036,71.28817700000036,73.63890480000009,space,2.3451876999997694,None,1,1,1.5915638999999828,None,,,,,,,,843,24,V,R,2026-02-18_11h46.17.206,VisualSearch_2526_3,,2025.2.4,2026-02-18 11h46.17.431216 +0100,
vertical.xlsx,The target is tilted.,135,1,1,0,1,1,1,1,0,0,0,0,0,0,0,0,0,3,4,135,space,4.452764599999682,None,1,1,0.6961354000000028,None,space,2.3451876999997694,None,0,0,0,1,,,,,0,1,1,2,75.98726990000023,,,,,,,,,,,,,,,,,,,,,75.97217720000026,75.98726990000023,76.47070080000003,76.47608050000008,76.49199160000035,77.2037733000002,,,,,77.20393009999998,77.2196100000001,77.41996250000011,77.40363849999994,76.49199160000035,,,,,,,,1,1,0.6961354000000028,None,,,,,,,,843,24,V,R,2026-02-18_11h46.17.206,VisualSearch_2526_3,,2025.2.4,2026-02-18 11h46.17.431216 +0100,
vertical.xlsx,The target is tilted.,135,2,2,0,0,1,1,1,0,0,0,0,0,0,0,0,1,3,4,135,space,4.452764599999682,None,0,1,0.9023225000000821,None,space,2.3451876999997694,None,0,0,0,1,,,,,0,2,2,6,77.41996250000011,,,,,,,,,,,,,,,,,,,,,77.40447240000003,77.41996250000011,77.90394200000037,77.90916540000035,77.91982850000022,78.83681100000013,,,,,78.83700640000006,78.85253749999993,79.05269150000004,79.03629470000033,77.91982850000022,,,,,,,,0,1,0.9023225000000821,None,,,,,,,,843,24,V,R,2026-02-18_11h46.17.206,VisualSearch_2526_3,,2025.2.4,2026-02-18 11h46.17.431216 +0100,
vertical.xlsx,The target is tilted.,135,3,3,0,1,0,0,0,0,0,0,0,0,0,0,0,0,0,1,135,space,4.452764599999682,None,1,1,0.5144722000000002,None,space,2.3451876999997694,None,0,0,0,1,,,,,0,3,3,3,79.05269150000004,,,,,,,,,,,,,,,,,,,,,79.0366927,79.05269150000004,79.53609200000028,79.54152560000011,79.55750030000036,80.08565840000028,,,,,80.08576429999994,80.10233700000026,,80.28619610000032,79.55750030000036,,,,,,,,1,1,0.5144722000000002,None,,,,,,,,843,24,V,R,2026-02-18_11h46.17.206,VisualSearch_2526_3,,2025.2.4,2026-02-18 11h46.17.431216 +0100,
vertical.xlsx,The target is tilted.,135,4,4,0,1,1,1,1,1,1,1,1,1,1,1,1,0,11,12,135,space,4.452764599999682,None,1,1,0.8544385999998667,None,space,2.3451876999997694,None,0,0,0,1,,,,,0,4,4,0,80.30246480000005,,,,,,,,,,,,,,,,,,,,,80.28706790000024,80.30246480000005,80.7859225000002,80.79133619999993,80.80492300000014,81.67007890000014,,,,,81.67030169999998,81.6849599000002,81.88489200000004,81.8693516000003,80.80492300000014,,,,,,,,1,1,0.8544385999998667,None,,,,,,,,843,24,V,R,2026-02-18_11h46.17.206,VisualSearch_2526_3,,2025.2.4,2026-02-18 11h46.17.431216 +0100,
vertical.xlsx,The target is tilted.,135,5,5,0,0,0,0,0,0,0,0,0,0,0,0,0,1,1,1,135,space,4.452764599999682,None,0,1,0.687461500000154,None,space,2.3451876999997694,None,0,0,0,1,,,,,0,5,5,7,81.88489200000004,,,,,,,,,,,,,,,,,,,,,81.87023790000012,81.88489200000004,82.36833270000034,82.37116090000018,82.38432550000016,83.08480320000035,,,,,83.08490340000026,83.10075060000008,83.30088550000028,83.28446870000016,82.38432550000016,,,,,,,,0,1,0.687461500000154,None,,,,,,,,843,24,V,R,2026-02-18_11h46.17.206,VisualSearch_2526_3,,2025.2.4,2026-02-18 11h46.17.431216 +0100,
vertical.xlsx,The target is tilted.,135,6,6,0,0,1,1,1,1,1,1,1,0,0,0,0,1,7,8,135,space,4.452764599999682,None,0,1,1.9223645000001852,None,space,2.3451876999997694,None,0,0,0,1,,,,,0,6,6,5,83.30088550000028,,,,,,,,,,,,,,,,,,,,,83.28487480000013,83.30088550000028,83.78422070000033,83.78619710000021,83.8006163,85.73477500000035,,,,,85.73502000000008,85.75013089999993,85.95051770000009,85.93436509999992,83.8006163,,,,,,,,0,1,1.9223645000001852,None,,,,,,,,843,24,V,R,2026-02-18_11h46.17.206,VisualSearch_2526_3,,2025.2.4,2026-02-18 11h46.17.431216 +0100,
vertical.xlsx,The target is tilted.,135,7,7,0,0,1,1,1,1,1,1,1,1,1,1,1,1,11,12,135,space,4.452764599999682,None,0,1,2.4680057999999008,None,space,2.3451876999997694,None,0,0,0,1,,,,,0,7,7,4,85.95051770000009,,,,,,,,,,,,,,,,,,,,,85.93522699999994,85.95051770000009,86.43453090000003,86.43938270000035,86.45028470000034,88.93300550000004,,,,,88.93315740000025,88.94912000000022,89.1491618,89.13323410000021,86.45028470000034,,,,,,,,0,1,2.4680057999999008,None,,,,,,,,843,24,V,R,2026-02-18_11h46.17.206,VisualSearch_2526_3,,2025.2.4,2026-02-18 11h46.17.431216 +0100,
vertical.xlsx,The target is tilted.,135,8,0,1,0,0,0,0,0,0,0,0,0,0,0,0,1,1,1,135,space,4.452764599999682,None,0,1,0.8503679999998894,None,space,2.3451876999997694,None,0,0,0,1,,,,,1,0,8,7,89.1491618,,,,,,,,,,,,,,,,,,,,,89.1340723000003,89.1491618,89.63284360000034,89.63822580000033,89.65213050000011,90.51661240000021,,,,,90.51685080000016,90.53195619999997,90.73239719999992,90.71608340000012,89.65213050000011,,,,,,,,0,1,0.8503679999998894,None,,,,,,,,843,24,V,R,2026-02-18_11h46.17.206,VisualSearch_2526_3,,2025.2.4,2026-02-18 11h46.17.431216 +0100,
vertical.xlsx,The target is tilted.,135,9,1,1,1,0,0,0,0,0,0,0,0,0,0,0,0,0,1,135,space,4.452764599999682,None,1,1,1.1717111999996632,None,space,2.3451876999997694,None,0,0,0,1,,,,,1,1,9,3,90.73239719999992,,,,,,,,,,,,,,,,,,,,,90.71692050000001,90.73239719999992,91.2163459000003,91.22179330000017,91.23536349999995,92.41553820000036,,,,,92.41564710000011,92.43122270000003,92.63167370000019,92.6154504000001,91.23536349999995,,,,,,,,1,1,1.1717111999996632,None,,,,,,,,843,24,V,R,2026-02-18_11h46.17.206,VisualSearch_2526_3,,2025.2.4,2026-02-18 11h46.17.431216 +0100,
vertical.xlsx,The target is tilted.,135,10,2,1,1,1,1,1,1,1,1,1,0,0,0,0,0,7,8,135,space,4.452764599999682,None,1,1,1.6746846999999434,None,space,2.3451876999997694,None,0,0,0,1,,,,,1,2,10,1,92.63167370000019,,,,,,,,,,,,,,,,,,,,,92.61627780000026,92.63167370000019,93.11554580000029,93.12082770000006,93.14060840000002,94.83131510000021,,,,,94.83146710000028,94.84726279999995,95.04775050000035,95.03140650000023,93.14060840000002,,,,,,,,1,1,1.6746846999999434,None,,,,,,,,843,24,V,R,2026-02-18_11h46.17.206,VisualSearch_2526_3,,2025.2.4,2026-02-18 11h46.17.431216 +0100,
vertical.xlsx,The target is tilted.,135,11,3,1,0,1,1,1,1,1,1,1,1,1,1,1,1,11,12,135,space,4.452764599999682,None,0,1,2.907486600000084,None,space,2.3451876999997694,None,0,0,0,1,,,,,1,3,11,4,95.04775050000035,,,,,,,,,,,,,,,,,,,,,95.03225380000003,95.04775050000035,95.53137930000003,95.53634390000025,95.54734720000033,98.46439839999994,,,,,98.46465519999992,98.47939040000028,98.6797518000003,98.66360669999995,95.54734720000033,,,,,,,,0,1,2.907486600000084,None,,,,,,,,843,24,V,R,2026-02-18_11h46.17.206,VisualSearch_2526_3,,2025.2.4,2026-02-18 11h46.17.431216 +0100,
vertical.xlsx,The target is tilted.,135,12,4,1,0,1,1,1,0,0,0,0,0,0,0,0,1,3,4,135,space,4.452764599999682,None,0,1,0.9224710999997114,None,space,2.3451876999997694,None,0,0,0,1,,,,,1,4,12,6,98.6797518000003,,,,,,,,,,,,,,,,,,,,,98.66449120000016,98.6797518000003,99.16374240000005,99.16920500000015,99.18367960000023,100.11332080000011,,,,,100.1134704000001,100.12859230000004,100.32918610000024,100.31290430000035,99.18367960000023,,,,,,,,0,1,0.9224710999997114,None,,,,,,,,843,24,V,R,2026-02-18_11h46.17.206,VisualSearch_2526_3,,2025.2.4,2026-02-18 11h46.17.431216 +0100,
vertical.xlsx,The target is tilted.,135,13,5,1,0,1,1,1,1,1,1,1,0,0,0,0,1,7,8,135,space,4.452764599999682,None,0,1,1.4502607999997963,None,space,2.3451876999997694,None,0,0,0,1,,,,,1,5,13,5,100.32918610000024,,,,,,,,,,,,,,,,,,,,,100.31372940000028,100.32918610000024,100.8131257,100.81849899999997,100.83429960000012,102.29611650000015,,,,,102.29634280000028,102.31140950000008,102.5118139000001,102.4957902000001,100.83429960000012,,,,,,,,0,1,1.4502607999997963,None,,,,,,,,843,24,V,R,2026-02-18_11h46.17.206,VisualSearch_2526_3,,2025.2.4,2026-02-18 11h46.17.431216 +0100,
vertical.xlsx,The target is tilted.,135,14,6,1,1,1,1,1,0,0,0,0,0,0,0,0,0,3,4,135,space,4.452764599999682,None,1,1,0.7653401000002304,None,space,2.3451876999997694,None,0,0,0,1,,,,,1,6,14,2,102.5118139000001,,,,,,,,,,,,,,,,,,,,,102.49661000000015,102.5118139000001,102.99558479999996,103.00138779999997,103.01750340000035,103.79491370000005,,,,,103.79502660000026,103.81066480000027,,103.99516690000019,103.01750340000035,,,,,,,,1,1,0.7653401000002304,None,,,,,,,,843,24,V,R,2026-02-18_11h46.17.206,VisualSearch_2526_3,,2025.2.4,2026-02-18 11h46.17.431216 +0100,
vertical.xlsx,The target is tilted.,135,15,7,1,1,1,1,1,1,1,1,1,1,1,1,1,0,11,12,135,space,4.452764599999682,None,1,1,0.8630763999999544,None,space,2.3451876999997694,None,0,0,0,1,,,,,1,7,15,0,104.0110824000003,,,,,,,,,,,,,,,,,,,,,103.99613399999998,104.0110824000003,104.49492129999999,104.50053290000005,104.5142581,105.37884250000025,,,,,105.37911680000025,105.39351190000025,105.59422029999996,105.57830280000007,104.5142581,,,,,,,,1,1,0.8630763999999544,None,,,,,,,,843,24,V,R,2026-02-18_11h46.17.206,VisualSearch_2526_3,,2025.2.4,2026-02-18 11h46.17.431216 +0100,
vertical.xlsx,The target is tilted.,135,16,0,2,0,1,1,1,0,0,0,0,0,0,0,0,1,3,4,135,space,4.452764599999682,None,0,1,0.7282319999999345,None,space,2.3451876999997694,None,0,0,0,1,,,,,2,0,16,6,105.59422029999996,,,,,,,,,,,,,,,,,,,,,105.57918400000017,105.59422029999996,106.07781449999993,106.08330840000008,106.10020090000035,106.84454760000017,,,,,106.84469660000013,106.85998900000004,107.06049550000034,107.0442008,106.10020090000035,,,,,,,,0,1,0.7282319999999345,None,,,,,,,,843,24,V,R,2026-02-18_11h46.17.206,VisualSearch_2526_3,,2025.2.4,2026-02-18 11h46.17.431216 +0100,
vertical.xlsx,The target is tilted.,135,17,1,2,1,1,1,1,1,1,1,1,1,1,1,1,0,11,12,135,space,4.452764599999682,None,1,1,0.6819470999998885,None,space,2.3451876999997694,None,0,0,0,1,,,,,2,1,17,0,107.06049550000034,,,,,,,,,,,,,,,,,,,,,107.04508680000026,107.06049550000034,107.54425000000037,107.54968320000035,107.56541749999997,108.26087730000017,,,,,108.26110330000029,108.2762229,108.47663990000001,108.46022210000001,107.56541749999997,,,,,,,,1,1,0.6819470999998885,None,,,,,,,,843,24,V,R,2026-02-18_11h46.17.206,VisualSearch_2526_3,,2025.2.4,2026-02-18 11h46.17.431216 +0100,
vertical.xlsx,The target is tilted.,135,18,2,2,0,1,1,1,1,1,1,1,1,1,1,1,1,11,12,135,space,4.452764599999682,None,0,1,2.2008700000001227,None,space,2.3451876999997694,None,0,0,0,1,,,,,2,2,18,4,108.47663990000001,,,,,,,,,,,,,,,,,,,,,108.4612304000002,108.47663990000001,108.96045660000027,108.96587750000026,108.98251310000023,111.19281820000015,,,,,111.19298160000017,111.20837110000002,111.40874720000011,111.39280120000012,108.98251310000023,,,,,,,,0,1,2.2008700000001227,None,,,,,,,,843,24,V,R,2026-02-18_11h46.17.206,VisualSearch_2526_3,,2025.2.4,2026-02-18 11h46.17.431216 +0100,
vertical.xlsx,The target is tilted.,135,19,3,2,0,1,1,1,1,1,1,1,0,0,0,0,1,7,8,135,space,4.452764599999682,None,0,1,1.3243192999998428,None,space,2.3451876999997694,None,0,0,0,1,,,,,2,3,19,5,111.40874720000011,,,,,,,,,,,,,,,,,,,,,111.39366270000028,111.40874720000011,111.89271140000028,111.89802880000025,111.91710650000005,113.24260240000012,,,,,113.24279909999996,113.2579340000002,113.45834490000016,113.44214220000003,111.91710650000005,,,,,,,,0,1,1.3243192999998428,None,,,,,,,,843,24,V,R,2026-02-18_11h46.17.206,VisualSearch_2526_3,,2025.2.4,2026-02-18 11h46.17.431216 +0100,
vertical.xlsx,The target is tilted.,135,20,4,2,0,0,0,0,0,0,0,0,0,0,0,0,1,1,1,135,space,4.452764599999682,None,0,1,0.9386226000001443,None,space,2.3451876999997694,None,0,0,0,1,,,,,2,4,20,7,113.45834490000016,,,,,,,,,,,,,,,,,,,,,113.44293670000025,113.45834490000016,113.94194450000032,113.94742290000022,113.96082819999992,114.90856590000021,,,,,114.90870630000018,114.92382560000033,115.12442469999996,115.10848690000012,113.96082819999992,,,,,,,,0,1,0.9386226000001443,None,,,,,,,,843,24,V,R,2026-02-18_11h46.17.206,VisualSearch_2526_3,,2025.2.4,2026-02-18 11h46.17.431216 +0100,
vertical.xlsx,The target is tilted.,135,21,5,2,1,1,1,1,1,1,1,1,0,0,0,0,0,7,8,135,space,4.452764599999682,None,1,1,1.226829799999905,None,space,2.3451876999997694,None,0,0,0,1,,,,,2,5,21,1,115.12442469999996,,,,,,,,,,,,,,,,,,,,,115.10931980000032,115.12442469999996,115.60785690000012,115.61320580000029,115.6300156000002,116.85763620000034,,,,,116.85781220000035,116.87334740000006,117.07372130000022,117.05740160000005,115.6300156000002,,,,,,,,1,1,1.226829799999905,None,,,,,,,,843,24,V,R,2026-02-18_11h46.17.206,VisualSearch_2526_3,,2025.2.4,2026-02-18 11h46.17.431216 +0100,
vertical.xlsx,The target is tilted.,135,22,6,2,1,0,0,0,0,0,0,0,0,0,0,0,0,0,1,135,space,4.452764599999682,None,1,1,0.530888799999957,None,space,2.3451876999997694,None,0,0,0,1,,,,,2,6,22,3,117.07372130000022,,,,,,,,,,,,,,,,,,,,,117.05825240000013,117.07372130000022,117.55745780000007,117.56282020000026,117.58049140000003,118.12317780000012,,,,,118.12327099999993,118.13988990000007,,118.32368350000024,117.58049140000003,,,,,,,,1,1,0.530888799999957,None,,,,,,,,843,24,V,R,2026-02-18_11h46.17.206,VisualSearch_2526_3,,2025.2.4,2026-02-18 11h46.17.431216 +0100,
vertical.xlsx,The target is tilted.,135,23,7,2,1,1,1,1,0,0,0,0,0,0,0,0,0,3,4,135,space,4.452764599999682,None,1,1,0.64055529999996,None,space,2.3451876999997694,None,0,0,0,1,,,,,2,7,23,2,118.34012090000033,,,,,,,,,,,,,,,,,,,,,118.32452310000008,118.34012090000033,118.82350399999996,118.8288150000003,118.8465914000003,119.4906189000003,,,,,119.49083960000007,119.50586860000021,119.70636289999993,119.69001150000031,,,,,,,,,1,1,0.64055529999996,None,,,,,,,,843,24,V,R,2026-02-18_11h46.17.206,VisualSearch_2526_3,,2025.2.4,2026-02-18 11h46.17.431216 +0100,
vertical.xlsx,The target is tilted.,135,24,0,3,1,1,1,1,0,0,0,0,0,0,0,0,0,3,4,135,space,4.452764599999682,None,1,1,0.6955577999997331,None,space,2.3451876999997694,None,0,0,0,1,,,,,3,0,24,2,119.70636289999993,,,,,,,,,,,,,,,,,,,,,119.69085440000026,119.70636289999993,120.19020309999996,120.19657210000014,120.21385540000028,120.9231533000002,,,,,120.92337410000027,120.93864450000001,121.13912620000019,121.12312870000005,120.21385540000028,,,,,,,,1,1,0.6955577999997331,None,,,,,,,,843,24,V,R,2026-02-18_11h46.17.206,VisualSearch_2526_3,,2025.2.4,2026-02-18 11h46.17.431216 +0100,
vertical.xlsx,The target is tilted.,135,25,1,3,0,1,1,1,1,1,1,1,1,1,1,1,1,11,12,135,space,4.452764599999682,None,0,1,2.1599553000000924,None,space,2.3451876999997694,None,0,0,0,1,,,,,3,1,25,4,121.13912620000019,,,,,,,,,,,,,,,,,,,,,121.1239915000001,121.13912620000019,121.62295549999999,121.62840510000024,121.64616019999994,123.82227770000009,,,,,123.82250610000028,123.83766749999995,124.0382224,124.02208900000005,121.64616019999994,,,,,,,,0,1,2.1599553000000924,None,,,,,,,,843,24,V,R,2026-02-18_11h46.17.206,VisualSearch_2526_3,,2025.2.4,2026-02-18 11h46.17.431216 +0100,
vertical.xlsx,The target is tilted.,135,26,2,3,1,1,1,1,1,1,1,1,1,1,1,1,0,11,12,135,space,4.452764599999682,None,1,1,0.7103071000001364,None,space,2.3451876999997694,None,0,0,0,1,,,,,3,2,26,0,124.0382224,,,,,,,,,,,,,,,,,,,,,124.02288799999997,124.0382224,124.52165349999996,124.52702270000009,124.54271620000009,125.25572450000027,,,,,125.25595010000006,125.27068580000014,125.47078310000006,125.4547864000001,124.54271620000009,,,,,,,,1,1,0.7103071000001364,None,,,,,,,,843,24,V,R,2026-02-18_11h46.17.206,VisualSearch_2526_3,,2025.2.4,2026-02-18 11h46.17.431216 +0100,
vertical.xlsx,The target is tilted.,135,27,3,3,0,1,1,1,1,1,1,1,0,0,0,0,1,7,8,135,space,4.452764599999682,None,0,1,1.4613914999999906,None,space,2.3451876999997694,None,0,0,0,1,,,,,3,3,27,5,125.47078310000006,,,,,,,,,,,,,,,,,,,,,125.45564080000031,125.47078310000006,125.95478540000022,125.96040399999993,125.97613450000017,127.4538950000001,,,,,127.45405520000031,127.46997009999995,127.67034280000007,127.65432809999993,125.97613450000017,,,,,,,,0,1,1.4613914999999906,None,,,,,,,,843,24,V,R,2026-02-18_11h46.17.206,VisualSearch_2526_3,,2025.2.4,2026-02-18 11h46.17.431216 +0100,
vertical.xlsx,The target is tilted.,135,28,4,3,0,0,0,0,0,0,0,0,0,0,0,0,1,1,1,135,space,4.452764599999682,None,0,1,0.5241280999998708,None,space,2.3451876999997694,None,0,0,0,1,,,,,3,4,28,7,127.67034280000007,,,,,,,,,,,,,,,,,,,,,127.65513080000028,127.67034280000007,128.15329010000005,128.15556300000026,128.16974860000028,128.70450400000027,,,,,128.7047609000001,128.71957580000026,128.91996100000006,128.90390879999995,128.16974860000028,,,,,,,,0,1,0.5241280999998708,None,,,,,,,,843,24,V,R,2026-02-18_11h46.17.206,VisualSearch_2526_3,,2025.2.4,2026-02-18 11h46.17.431216 +0100,
vertical.xlsx,The target is tilted.,135,29,5,3,1,1,1,1,1,1,1,1,0,0,0,0,0,7,8,135,space,4.452764599999682,None,1,1,0.9767857000001641,None,space,2.3451876999997694,None,0,0,0,1,,,,,3,5,29,1,128.91996100000006,,,,,,,,,,,,,,,,,,,,,128.9047039000002,128.91996100000006,129.40378520000013,129.40919770000028,129.42637570000034,130.41917460000013,,,,,130.41928300000018,130.43584710000005,,130.61976410000034,129.42637570000034,,,,,,,,1,1,0.9767857000001641,None,,,,,,,,843,24,V,R,2026-02-18_11h46.17.206,VisualSearch_2526_3,,2025.2.4,2026-02-18 11h46.17.431216 +0100,
vertical.xlsx,The target is tilted.,135,30,6,3,1,0,0,0,0,0,0,0,0,0,0,0,0,0,1,135,space,4.452764599999682,None,1,1,0.5481200999997782,None,space,2.3451876999997694,None,0,0,0,1,,,,,3,6,30,3,130.63604759999998,,,,,,,,,,,,,,,,,,,,,130.62070340000037,130.63604759999998,131.11962780000022,131.1251599000002,131.14322270000002,131.7030896000001,,,,,131.7033177000003,131.71853409999994,131.9182579000003,131.9022530000002,,,,,,,,,1,1,0.5481200999997782,None,,,,,,,,843,24,V,R,2026-02-18_11h46.17.206,VisualSearch_2526_3,,2025.2.4,2026-02-18 11h46.17.431216 +0100,
vertical.xlsx,The target is tilted.,135,31,7,3,0,1,1,1,0,0,0,0,0,0,0,0,1,3,4,135,space,4.452764599999682,None,0,1,1.0134007999999994,None,space,2.3451876999997694,None,0,0,0,1,,,,,3,7,31,6,131.9182579000003,,,,,,,,,,,,,,,,,,,,,131.90280789999997,131.9182579000003,132.4026885000003,132.40805350000028,132.42779670000027,133.45229930000005,,,,,133.4524464000001,133.46788670000024,133.66840279999997,133.65214210000022,132.42779670000027,,,,,,,,0,1,1.0134007999999994,None,,,,,,,,843,24,V,R,2026-02-18_11h46.17.206,VisualSearch_2526_3,,2025.2.4,2026-02-18 11h46.17.431216 +0100,
vertical.xlsx,The target is tilted.,135,32,0,4,1,1,1,1,1,1,1,1,1,1,1,1,0,11,12,135,space,4.452764599999682,None,1,1,1.4636805999998614,None,space,2.3451876999997694,None,0,0,0,1,,,,,4,0,32,0,133.66840279999997,,,,,,,,,,,,,,,,,,,,,133.6529829000001,133.66840279999997,134.15178830000013,134.15711790000023,134.1711749000001,135.6511604000002,,,,,135.6512974000002,135.66760620000014,135.86767750000035,135.85138440000037,134.1711749000001,,,,,,,,1,1,1.4636805999998614,None,,,,,,,,843,24,V,R,2026-02-18_11h46.17.206,VisualSearch_2526_3,,2025.2.4,2026-02-18 11h46.17.431216 +0100,
vertical.xlsx,The target is tilted.,135,33,1,4,1,1,1,1,1,1,1,1,0,0,0,0,0,7,8,135,space,4.452764599999682,None,1,1,0.8443191999999726,None,space,2.3451876999997694,None,0,0,0,1,,,,,4,1,33,1,135.86767750000035,,,,,,,,,,,,,,,,,,,,,135.85234050000008,135.86767750000035,136.35132650000014,136.35678869999992,136.37270979999994,137.21773230000008,,,,,137.21786079999993,137.233381,137.43382350000002,137.41784150000012,136.37270979999994,,,,,,,,1,1,0.8443191999999726,None,,,,,,,,843,24,V,R,2026-02-18_11h46.17.206,VisualSearch_2526_3,,2025.2.4,2026-02-18 11h46.17.431216 +0100,
vertical.xlsx,The target is tilted.,135,34,2,4,0,1,1,1,1,1,1,1,0,0,0,0,1,7,8,135,space,4.452764599999682,None,0,1,1.5121769000002132,None,space,2.3451876999997694,None,0,0,0,1,,,,,4,2,34,5,137.43382350000002,,,,,,,,,,,,,,,,,,,,,137.41870240000026,137.43382350000002,137.91758930000015,137.92301990000033,137.9384245000001,139.46652740000036,,,,,139.4666787000001,139.4830449000001,,139.66682200000014,137.9384245000001,,,,,,,,0,1,1.5121769000002132,None,,,,,,,,843,24,V,R,2026-02-18_11h46.17.206,VisualSearch_2526_3,,2025.2.4,2026-02-18 11h46.17.431216 +0100,
vertical.xlsx,The target is tilted.,135,35,3,4,0,1,1,1,0,0,0,0,0,0,0,0,1,3,4,135,space,4.452764599999682,None,0,1,1.0089192000000367,None,space,2.3451876999997694,None,0,0,0,1,,,,,4,3,35,6,139.68309020000015,,,,,,,,,,,,,,,,,,,,,139.6677053000003,139.68309020000015,140.16691600000013,140.17227279999997,140.1913456000002,141.2169726000002,,,,,141.21733310000036,141.23201890000018,141.43237640000007,141.41641160000017,140.1913456000002,,,,,,,,0,1,1.0089192000000367,None,,,,,,,,843,24,V,R,2026-02-18_11h46.17.206,VisualSearch_2526_3,,2025.2.4,2026-02-18 11h46.17.431216 +0100,
vertical.xlsx,The target is tilted.,135,36,4,4,0,0,0,0,0,0,0,0,0,0,0,0,1,1,1,135,space,4.452764599999682,None,0,1,0.49601849999999104,None,space,2.3451876999997694,None,0,0,0,1,,,,,4,4,36,7,141.43237640000007,,,,,,,,,,,,,,,,,,,,,141.4172496000001,141.43237640000007,141.9164393000001,141.9219224000003,141.93871549999994,142.44955560000017,,,,,142.44978340000034,142.4649174000001,142.66507649999994,142.64940090000027,141.93871549999994,,,,,,,,0,1,0.49601849999999104,None,,,,,,,,843,24,V,R,2026-02-18_11h46.17.206,VisualSearch_2526_3,,2025.2.4,2026-02-18 11h46.17.431216 +0100,
vertical.xlsx,The target is tilted.,135,37,5,4,1,1,1,1,0,0,0,0,0,0,0,0,0,3,4,135,space,4.452764599999682,None,1,1,0.8087992000000668,None,space,2.3451876999997694,None,0,0,0,1,,,,,4,5,37,2,142.66507649999994,,,,,,,,,,,,,,,,,,,,,142.65021879999995,142.66507649999994,143.14927780000016,143.15472880000016,143.17079890000014,143.98261130000037,,,,,143.9828090000001,143.9979314000002,144.19816570000012,144.18200079999997,143.17079890000014,,,,,,,,1,1,0.8087992000000668,None,,,,,,,,843,24,V,R,2026-02-18_11h46.17.206,VisualSearch_2526_3,,2025.2.4,2026-02-18 11h46.17.431216 +0100,
vertical.xlsx,The target is tilted.,135,38,6,4,0,1,1,1,1,1,1,1,1,1,1,1,1,11,12,135,space,4.452764599999682,None,0,1,2.18549400000029,None,space,2.3451876999997694,None,0,0,0,1,,,,,4,6,38,4,144.19816570000012,,,,,,,,,,,,,,,,,,,,,144.18285130000004,144.19816570000012,144.68167889999995,144.68708490000017,144.70292300000028,146.89834530000007,,,,,146.89854809999997,146.91358230000014,147.11397350000016,147.09801199999993,144.70292300000028,,,,,,,,0,1,2.18549400000029,None,,,,,,,,843,24,V,R,2026-02-18_11h46.17.206,VisualSearch_2526_3,,2025.2.4,2026-02-18 11h46.17.431216 +0100,
vertical.xlsx,The target is tilted.,135,39,7,4,1,0,0,0,0,0,0,0,0,0,0,0,0,0,1,135,space,4.452764599999682,None,1,1,0.49363910000010947,None,space,2.3451876999997694,None,0,0,0,1,,,,,4,7,39,3,147.11397350000016,,,,,,,,,,,,,,,,,,,,,147.0988752000003,147.11397350000016,147.59746799999994,147.6027710000003,147.6179578000001,148.11496810000017,,,,,148.11519480000015,148.1297985000001,148.3302735000002,148.31420479999997,147.6179578000001,,,,,,,,1,1,0.49363910000010947,None,,,,,,,,843,24,V,R,2026-02-18_11h46.17.206,VisualSearch_2526_3,,2025.2.4,2026-02-18 11h46.17.431216 +0100,
vertical.xlsx,The target is tilted.,135,40,0,5,1,1,1,1,0,0,0,0,0,0,0,0,0,3,4,135,space,4.452764599999682,None,1,1,0.6020607999998902,None,space,2.3451876999997694,None,0,0,0,1,,,,,5,0,40,2,148.3302735000002,,,,,,,,,,,,,,,,,,,,,148.31499950000034,148.3302735000002,148.81396710000035,148.81932170000027,148.83635780000031,149.4473783000003,,,,,149.4475811000002,149.46272799999997,149.66304470000023,149.64703069999996,148.83635780000031,,,,,,,,1,1,0.6020607999998902,None,,,,,,,,843,24,V,R,2026-02-18_11h46.17.206,VisualSearch_2526_3,,2025.2.4,2026-02-18 11h46.17.431216 +0100,
vertical.xlsx,The target is tilted.,135,41,1,5,1,1,1,1,1,1,1,1,1,1,1,1,0,11,12,135,space,4.452764599999682,None,1,1,0.7748308000000179,None,space,2.3451876999997694,None,0,0,0,1,,,,,5,1,41,0,149.66304470000023,,,,,,,,,,,,,,,,,,,,,149.64787049999995,149.66304470000023,150.14695810000012,150.1530786000003,150.1679392000001,150.94698270000026,,,,,150.94720430000007,150.96218120000003,151.16250040000023,151.14647370000012,150.1679392000001,,,,,,,,1,1,0.7748308000000179,None,,,,,,,,843,24,V,R,2026-02-18_11h46.17.206,VisualSearch_2526_3,,2025.2.4,2026-02-18 11h46.17.431216 +0100,
vertical.xlsx,The target is tilted.,135,42,2,5,0,1,1,1,0,0,0,0,0,0,0,0,1,3,4,135,space,4.452764599999682,None,0,1,0.7350080000001071,None,space,2.3451876999997694,None,0,0,0,1,,,,,5,2,42,6,151.16250040000023,,,,,,,,,,,,,,,,,,,,,151.14735659999997,151.16250040000023,151.64646949999997,151.65194880000035,151.6649999000001,152.41306840000016,,,,,152.4133522000002,152.42840019999994,152.62889210000003,152.61273329999995,151.6649999000001,,,,,,,,0,1,0.7350080000001071,None,,,,,,,,843,24,V,R,2026-02-18_11h46.17.206,VisualSearch_2526_3,,2025.2.4,2026-02-18 11h46.17.431216 +0100,
vertical.xlsx,The target is tilted.,135,43,3,5,0,0,0,0,0,0,0,0,0,0,0,0,1,1,1,135,space,4.452764599999682,None,0,1,0.5211816999999428,None,space,2.3451876999997694,None,0,0,0,1,,,,,5,3,43,7,152.62889210000003,,,,,,,,,,,,,,,,,,,,,152.6135658000003,152.62889210000003,153.1126121000002,153.11784699999998,153.13773820000006,153.66253350000034,,,,,153.66272690000005,153.67799240000022,153.8783641,153.86220700000013,153.13773820000006,,,,,,,,0,1,0.5211816999999428,None,,,,,,,,843,24,V,R,2026-02-18_11h46.17.206,VisualSearch_2526_3,,2025.2.4,2026-02-18 11h46.17.431216 +0100,
vertical.xlsx,The target is tilted.,135,44,4,5,0,1,1,1,1,1,1,1,1,1,1,1,1,11,12,135,space,4.452764599999682,None,0,1,1.865745699999934,None,space,2.3451876999997694,None,0,0,0,1,,,,,5,4,44,4,153.8783641,,,,,,,,,,,,,,,,,,,,,153.8631018000001,153.8783641,154.36217010000018,154.36752849999993,154.38316970000005,156.26201140000012,,,,,156.2622351,156.27728449999995,156.47759570000017,156.4613102000003,154.38316970000005,,,,,,,,0,1,1.865745699999934,None,,,,,,,,843,24,V,R,2026-02-18_11h46.17.206,VisualSearch_2526_3,,2025.2.4,2026-02-18 11h46.17.431216 +0100,
vertical.xlsx,The target is tilted.,135,45,5,5,1,1,1,1,1,1,1,1,0,0,0,0,0,7,8,135,space,4.452764599999682,None,1,1,0.9546205000001464,None,space,2.3451876999997694,None,0,0,0,1,,,,,5,5,45,1,156.47759570000017,,,,,,,,,,,,,,,,,,,,,156.46227090000002,156.47759570000017,156.96141000000034,156.96689340000012,156.98270230000026,157.94402370000034,,,,,157.94413729999997,157.9596617000002,158.1600897000003,158.1438731000003,156.98270230000026,,,,,,,,1,1,0.9546205000001464,None,,,,,,,,843,24,V,R,2026-02-18_11h46.17.206,VisualSearch_2526_3,,2025.2.4,2026-02-18 11h46.17.431216 +0100,
vertical.xlsx,The target is tilted.,135,46,6,5,1,0,0,0,0,0,0,0,0,0,0,0,0,0,1,135,space,4.452764599999682,None,1,1,0.49110069999960615,None,space,2.3451876999997694,None,0,0,0,1,,,,,5,6,46,3,158.1600897000003,,,,,,,,,,,,,,,,,,,,,158.14469780000036,158.1600897000003,158.6441791000002,158.6495519,158.6636510000003,159.1610595000002,,,,,159.1612554000003,159.1762117000003,159.3766273000001,159.3605421000002,158.6636510000003,,,,,,,,1,1,0.49110069999960615,None,,,,,,,,843,24,V,R,2026-02-18_11h46.17.206,VisualSearch_2526_3,,2025.2.4,2026-02-18 11h46.17.431216 +0100,
vertical.xlsx,The target is tilted.,135,47,7,5,0,1,1,1,1,1,1,1,0,0,0,0,1,7,8,135,space,4.452764599999682,None,0,1,1.9885764000000563,None,space,2.3451876999997694,None,0,0,0,1,,,,,5,7,47,5,159.3766273000001,,,,,,,,,,,,,,,,,,,,,159.36134760000004,159.3766273000001,159.86049130000038,159.86644430000024,159.8824410000002,161.87603549999994,,,,,161.87618580000026,161.89191449999998,162.09206730000005,162.07593810000026,159.8824410000002,,,,,,,,0,1,1.9885764000000563,None,,,,,,,,843,24,V,R,2026-02-18_11h46.17.206,VisualSearch_2526_3,,2025.2.4,2026-02-18 11h46.17.431216 +0100,
vertical.xlsx,The target is tilted.,135,48,0,6,0,1,1,1,0,0,0,0,0,0,0,0,1,3,4,135,space,4.452764599999682,None,0,1,0.6175333999999566,None,space,2.3451876999997694,None,0,0,0,1,,,,,6,0,48,6,162.09206730000005,,,,,,,,,,,,,,,,,,,,,162.07675169999993,162.09206730000005,162.5761778000001,162.5816659000002,162.5987914000002,163.2258624000001,,,,,163.22603960000015,163.2414960000001,163.44190960000014,163.42590960000007,162.5987914000002,,,,,,,,0,1,0.6175333999999566,None,,,,,,,,843,24,V,R,2026-02-18_11h46.17.206,VisualSearch_2526_3,,2025.2.4,2026-02-18 11h46.17.431216 +0100,
vertical.xlsx,The target is tilted.,135,49,1,6,0,1,1,1,1,1,1,1,0,0,0,0,1,7,8,135,space,4.452764599999682,None,0,1,1.5893937999999252,None,space,2.3451876999997694,None,0,0,0,1,,,,,6,1,49,5,163.44190960000014,,,,,,,,,,,,,,,,,,,,,163.42684050000025,163.44190960000014,163.92582710000033,163.93127630000026,163.94626370000015,165.54289160000008,,,,,165.54307030000018,165.55744370000002,165.75789030000033,165.74158230000012,163.94626370000015,,,,,,,,0,1,1.5893937999999252,None,,,,,,,,843,24,V,R,2026-02-18_11h46.17.206,VisualSearch_2526_3,,2025.2.4,2026-02-18 11h46.17.431216 +0100,
vertical.xlsx,The target is tilted.,135,50,2,6,1,1,1,1,0,0,0,0,0,0,0,0,0,3,4,135,space,4.452764599999682,None,1,1,0.5814444000002368,None,space,2.3451876999997694,None,0,0,0,1,,,,,6,2,50,2,165.75789030000033,,,,,,,,,,,,,,,,,,,,,165.74244210000006,165.75789030000033,166.24138770000036,166.24690009999995,166.26199670000005,166.85811379999996,,,,,166.85833619999994,166.8736017000001,167.07415320000018,167.0577499000001,166.26199670000005,,,,,,,,1,1,0.5814444000002368,None,,,,,,,,843,24,V,R,2026-02-18_11h46.17.206,VisualSearch_2526_3,,2025.2.4,2026-02-18 11h46.17.431216 +0100,
vertical.xlsx,The target is tilted.,135,51,3,6,1,1,1,1,1,1,1,1,1,1,1,1,0,11,12,135,space,4.452764599999682,None,1,1,0.9314042999999401,None,space,2.3451876999997694,None,0,0,0,1,,,,,6,3,51,0,167.07415320000018,,,,,,,,,,,,,,,,,,,,,167.05862500000012,167.07415320000018,167.55788630000006,167.56272990000025,167.5736955000002,168.50757820000035,,,,,168.50771740000027,168.52303250000023,168.72358110000005,168.7071619000003,167.5736955000002,,,,,,,,1,1,0.9314042999999401,None,,,,,,,,843,24,V,R,2026-02-18_11h46.17.206,VisualSearch_2526_3,,2025.2.4,2026-02-18 11h46.17.431216 +0100,
vertical.xlsx,The target is tilted.,135,52,4,6,0,1,1,1,1,1,1,1,1,1,1,1,1,11,12,135,space,4.452764599999682,None,0,1,1.698288799999773,None,space,2.3451876999997694,None,0,0,0,1,,,,,6,4,52,4,168.72358110000005,,,,,,,,,,,,,,,,,,,,,168.7080235000003,168.72358110000005,169.2074487,169.21291520000023,169.22806420000006,170.9402288000001,,,,,170.9404502000002,170.95559700000013,171.15609270000004,171.14001030000009,169.22806420000006,,,,,,,,0,1,1.698288799999773,None,,,,,,,,843,24,V,R,2026-02-18_11h46.17.206,VisualSearch_2526_3,,2025.2.4,2026-02-18 11h46.17.431216 +0100,
vertical.xlsx,The target is tilted.,135,53,5,6,1,0,0,0,0,0,0,0,0,0,0,0,0,0,1,135,space,4.452764599999682,None,1,1,0.4400221999999303,None,space,2.3451876999997694,None,0,0,0,1,,,,,6,5,53,3,171.15609270000004,,,,,,,,,,,,,,,,,,,,,171.14086480000014,171.15609270000004,171.63998340000035,171.64531530000022,171.6610410000003,172.10694850000027,,,,,172.1071836000001,172.12197200000037,172.32240769999999,172.3063889,171.6610410000003,,,,,,,,1,1,0.4400221999999303,None,,,,,,,,843,24,V,R,2026-02-18_11h46.17.206,VisualSearch_2526_3,,2025.2.4,2026-02-18 11h46.17.431216 +0100,
vertical.xlsx,The target is tilted.,135,54,6,6,1,1,1,1,1,1,1,1,0,0,0,0,0,7,8,135,space,4.452764599999682,None,1,1,0.6942250000001877,None,space,2.3451876999997694,None,0,0,0,1,,,,,6,6,54,1,172.32240769999999,,,,,,,,,,,,,,,,,,,,,172.30718960000013,172.32240769999999,172.80615360000002,172.81168670000034,172.82746260000022,173.52302899999995,,,,,173.5232701,173.53813370000034,173.73866680000037,173.7223729000002,172.82746260000022,,,,,,,,1,1,0.6942250000001877,None,,,,,,,,843,24,V,R,2026-02-18_11h46.17.206,VisualSearch_2526_3,,2025.2.4,2026-02-18 11h46.17.431216 +0100,
vertical.xlsx,The target is tilted.,135,55,7,6,0,0,0,0,0,0,0,0,0,0,0,0,1,1,1,135,space,4.452764599999682,None,0,1,0.6989200000002711,None,space,2.3451876999997694,None,0,0,0,1,,,,,6,7,55,7,173.73866680000037,,,,,,,,,,,,,,,,,,,,,173.72325520000004,173.73866680000037,174.22207180000032,174.22739140000022,174.24252550000028,174.95554310000034,,,,,174.95576849999998,174.97104200000012,175.17136430000028,175.15537640000002,174.24252550000028,,,,,,,,0,1,0.6989200000002711,None,,,,,,,,843,24,V,R,2026-02-18_11h46.17.206,VisualSearch_2526_3,,2025.2.4,2026-02-18 11h46.17.431216 +0100,
vertical.xlsx,The target is tilted.,135,56,0,7,0,1,1,1,1,1,1,1,0,0,0,0,1,7,8,135,space,4.452764599999682,None,0,1,1.6668274999997266,None,space,2.3451876999997694,None,0,0,0,1,,,,,7,0,56,5,175.17136430000028,,,,,,,,,,,,,,,,,,,,,175.15621099999998,175.17136430000028,175.6549632000001,175.66037770000003,175.6767377000001,177.35473000000002,,,,,177.35489710000002,177.3703977,177.57072930000004,177.55460680000033,175.6767377000001,,,,,,,,0,1,1.6668274999997266,None,,,,,,,,843,24,V,R,2026-02-18_11h46.17.206,VisualSearch_2526_3,,2025.2.4,2026-02-18 11h46.17.431216 +0100,
vertical.xlsx,The target is tilted.,135,57,1,7,0,1,1,1,1,1,1,1,1,1,1,1,1,11,12,135,space,4.452764599999682,None,0,1,2.004273000000012,None,space,2.3451876999997694,None,0,0,0,1,,,,,7,1,57,4,177.57072930000004,,,,,,,,,,,,,,,,,,,,,177.55554710000024,177.57072930000004,178.05438870000035,178.05989180000006,178.0755653000001,180.0876985,,,,,180.0879570000002,180.10268870000027,180.30300119999993,180.28676160000032,178.0755653000001,,,,,,,,0,1,2.004273000000012,None,,,,,,,,843,24,V,R,2026-02-18_11h46.17.206,VisualSearch_2526_3,,2025.2.4,2026-02-18 11h46.17.431216 +0100,
vertical.xlsx,The target is tilted.,135,58,2,7,1,1,1,1,1,1,1,1,0,0,0,0,0,7,8,135,space,4.452764599999682,None,1,1,0.6705355999997664,None,space,2.3451876999997694,None,0,0,0,1,,,,,7,2,58,1,180.30300119999993,,,,,,,,,,,,,,,,,,,,,180.2875879000003,180.30300119999993,180.78685730000007,180.79211810000015,180.80271070000026,181.48703449999994,,,,,181.48723370000016,181.50220050000007,181.70236599999998,181.68656480000027,180.80271070000026,,,,,,,,1,1,0.6705355999997664,None,,,,,,,,843,24,V,R,2026-02-18_11h46.17.206,VisualSearch_2526_3,,2025.2.4,2026-02-18 11h46.17.431216 +0100,
vertical.xlsx,The target is tilted.,135,59,3,7,0,1,1,1,0,0,0,0,0,0,0,0,1,3,4,135,space,4.452764599999682,None,0,1,0.9076076000001194,None,space,2.3451876999997694,None,0,0,0,1,,,,,7,3,59,6,181.70236599999998,,,,,,,,,,,,,,,,,,,,,181.68738140000005,181.70236599999998,182.18651530000034,182.1921301000002,182.20810570000003,183.11888820000013,,,,,183.11898180000026,183.13469590000022,,183.3191372000001,182.20810570000003,,,,,,,,0,1,0.9076076000001194,None,,,,,,,,843,24,V,R,2026-02-18_11h46.17.206,VisualSearch_2526_3,,2025.2.4,2026-02-18 11h46.17.431216 +0100,
vertical.xlsx,The target is tilted.,135,60,4,7,1,0,0,0,0,0,0,0,0,0,0,0,0,0,1,135,space,4.452764599999682,None,1,1,0.5796274999997877,None,space,2.3451876999997694,None,0,0,0,1,,,,,7,4,60,3,183.3355136,,,,,,,,,,,,,,,,,,,,,183.31997550000006,183.3355136,183.81922980000036,183.82501930000035,183.84152570000015,184.43507510000018,,,,,184.43521340000007,184.45116150000013,,184.63532030000033,,,,,,,,,1,1,0.5796274999997877,None,,,,,,,,843,24,V,R,2026-02-18_11h46.17.206,VisualSearch_2526_3,,2025.2.4,2026-02-18 11h46.17.431216 +0100,
vertical.xlsx,The target is tilted.,135,61,5,7,1,1,1,1,0,0,0,0,0,0,0,0,0,3,4,135,space,4.452764599999682,None,1,1,0.6070130999996763,None,space,2.3451876999997694,None,0,0,0,1,,,,,7,5,61,2,184.6515346000001,,,,,,,,,,,,,,,,,,,,,184.63617330000034,184.6515346000001,185.13545150000027,185.1409582000001,185.15711650000003,185.7689617000001,,,,,185.76918160000014,185.7841724,185.98422800000026,185.9685929000002,185.15711650000003,,,,,,,,1,1,0.6070130999996763,None,,,,,,,,843,24,V,R,2026-02-18_11h46.17.206,VisualSearch_2526_3,,2025.2.4,2026-02-18 11h46.17.431216 +0100,
vertical.xlsx,The target is tilted.,135,62,6,7,1,1,1,1,1,1,1,1,1,1,1,1,0,11,12,135,space,4.452764599999682,None,1,1,1.0472789999998895,None,space,2.3451876999997694,None,0,0,0,1,,,,,7,6,62,0,185.98422800000026,,,,,,,,,,,,,,,,,,,,,185.96943790000023,185.98422800000026,186.46837499999992,186.47355170000037,186.48418470000024,187.5348065000003,,,,,187.53554610000037,187.55025879999994,187.75060680000024,187.73421009999993,186.48418470000024,,,,,,,,1,1,1.0472789999998895,None,,,,,,,,843,24,V,R,2026-02-18_11h46.17.206,VisualSearch_2526_3,,2025.2.4,2026-02-18 11h46.17.431216 +0100,
vertical.xlsx,The target is tilted.,135,63,7,7,0,0,0,0,0,0,0,0,0,0,0,0,1,1,1,135,space,4.452764599999682,None,0,1,0.5810249999999542,None,space,2.3451876999997694,None,0,0,0,1,,,,,7,7,63,7,187.75060680000024,,,,,,,,,,,,,,,,,,,,,187.73503100000016,187.75060680000024,188.23447830000032,188.23932830000012,188.25036620000037,188.83441889999995,,,,,188.8345789,188.84982350000018,189.04987600000004,189.03367730000036,188.25036620000037,,,,,,,,0,1,0.5810249999999542,None,,,,,,,,843,24,V,R,2026-02-18_11h46.17.206,VisualSearch_2526_3,,2025.2.4,2026-02-18 11h46.17.431216 +0100,
vertical.xlsx,The target is tilted.,135,64,0,8,0,1,1,1,1,1,1,1,0,0,0,0,1,7,8,135,space,4.452764599999682,None,0,1,1.795164399999976,None,space,2.3451876999997694,None,0,0,0,1,,,,,8,0,64,5,189.04987600000004,,,,,,,,,,,,,,,,,,,,,189.0341553000003,189.04987600000004,189.53402330000017,189.5393455000003,189.55544350000037,191.36625790000016,,,,,191.3664050000002,191.38228230000004,191.5827107,191.56676470000002,189.55544350000037,,,,,,,,0,1,1.795164399999976,None,,,,,,,,843,24,V,R,2026-02-18_11h46.17.206,VisualSearch_2526_3,,2025.2.4,2026-02-18 11h46.17.431216 +0100,
vertical.xlsx,The target is tilted.,135,65,1,8,0,1,1,1,0,0,0,0,0,0,0,0,1,3,4,135,space,4.452764599999682,None,0,1,0.5956104000001687,None,space,2.3451876999997694,None,0,0,0,1,,,,,8,1,65,6,191.5827107,,,,,,,,,,,,,,,,,,,,,191.56756670000004,191.5827107,192.06641020000006,192.0718541000001,192.0874772000002,192.69888730000002,,,,,192.69899380000015,192.71547720000035,,192.8993134000002,192.0874772000002,,,,,,,,0,1,0.5956104000001687,None,,,,,,,,843,24,V,R,2026-02-18_11h46.17.206,VisualSearch_2526_3,,2025.2.4,2026-02-18 11h46.17.431216 +0100,
vertical.xlsx,The target is tilted.,135,66,2,8,1,1,1,1,1,1,1,1,1,1,1,1,0,11,12,135,space,4.452764599999682,None,1,1,0.8476458999998613,None,space,2.3451876999997694,None,0,0,0,1,,,,,8,2,66,0,192.91522010000017,,,,,,,,,,,,,,,,,,,,,192.90016319999995,192.91522010000017,193.39919580000014,193.4046131,193.42088690000037,194.28199730000006,,,,,194.28214389999994,194.29795600000034,194.4984956000003,194.4822581000003,,,,,,,,,1,1,0.8476458999998613,None,,,,,,,,843,24,V,R,2026-02-18_11h46.17.206,VisualSearch_2526_3,,2025.2.4,2026-02-18 11h46.17.431216 +0100,
vertical.xlsx,The target is tilted.,135,67,3,8,1,1,1,1,0,0,0,0,0,0,0,0,0,3,4,135,space,4.452764599999682,None,1,1,0.6009148000002824,None,space,2.3451876999997694,None,0,0,0,1,,,,,8,3,67,2,194.4984956000003,,,,,,,,,,,,,,,,,,,,,194.48313039999994,194.4984956000003,194.98233550000032,194.98770520000016,195.00357350000013,195.61557010000024,,,,,195.61573110000018,195.63098890000037,195.83099500000026,195.81523080000034,195.00357350000013,,,,,,,,1,1,0.6009148000002824,None,,,,,,,,843,24,V,R,2026-02-18_11h46.17.206,VisualSearch_2526_3,,2025.2.4,2026-02-18 11h46.17.431216 +0100,
vertical.xlsx,The target is tilted.,135,68,4,8,1,1,1,1,1,1,1,1,0,0,0,0,0,7,8,135,space,4.452764599999682,None,1,1,0.6508410999999796,None,space,2.3451876999997694,None,0,0,0,1,,,,,8,4,68,1,195.83099500000026,,,,,,,,,,,,,,,,,,,,,195.8160600000001,195.83099500000026,196.31489620000002,196.32025160000012,196.3359574000001,196.99858680000034,,,,,196.9987653000003,197.01370410000027,197.21414820000018,197.19816390000005,196.3359574000001,,,,,,,,1,1,0.6508410999999796,None,,,,,,,,843,24,V,R,2026-02-18_11h46.17.206,VisualSearch_2526_3,,2025.2.4,2026-02-18 11h46.17.431216 +0100,
vertical.xlsx,The target is tilted.,135,69,5,8,0,0,0,0,0,0,0,0,0,0,0,0,1,1,1,135,space,4.452764599999682,None,0,1,0.5312649000002239,None,space,2.3451876999997694,None,0,0,0,1,,,,,8,5,69,7,197.21414820000018,,,,,,,,,,,,,,,,,,,,,197.19906440000022,197.21414820000018,197.6980463,197.70295140000007,197.71391700000004,198.24863500000038,,,,,198.2488558,198.26318000000038,198.46359530000018,198.44740850000017,197.71391700000004,,,,,,,,0,1,0.5312649000002239,None,,,,,,,,843,24,V,R,2026-02-18_11h46.17.206,VisualSearch_2526_3,,2025.2.4,2026-02-18 11h46.17.431216 +0100,
vertical.xlsx,The target is tilted.,135,70,6,8,1,0,0,0,0,0,0,0,0,0,0,0,0,0,1,135,space,4.452764599999682,None,1,1,0.595577300000059,None,space,2.3451876999997694,None,0,0,0,1,,,,,8,6,70,3,198.46359530000018,,,,,,,,,,,,,,,,,,,,,198.44822019999992,198.46359530000018,198.9476950000003,198.95310700000027,198.96836650000023,199.5799637,,,,,199.58007270000007,199.5962787000003,,199.78044610000006,198.96836650000023,,,,,,,,1,1,0.595577300000059,None,,,,,,,,843,24,V,R,2026-02-18_11h46.17.206,VisualSearch_2526_3,,2025.2.4,2026-02-18 11h46.17.431216 +0100,
vertical.xlsx,The target is tilted.,135,71,7,8,0,1,1,1,1,1,1,1,1,1,1,1,1,11,12,135,space,4.452764599999682,None,0,1,2.4315550999999687,None,space,2.3451876999997694,None,0,0,0,1,,,,,8,7,71,4,199.79671800000006,,,,,,,,,,,,,,,,,,,,,199.7814426,199.79671800000006,200.28044240000008,200.28553550000015,200.2962891000002,202.72949130000006,,,,,202.7296212000001,202.74510400000008,202.9456679,202.9297429000003,200.2962891000002,,,,,,,,0,1,2.4315550999999687,None,,,,,,,,843,24,V,R,2026-02-18_11h46.17.206,VisualSearch_2526_3,,2025.2.4,2026-02-18 11h46.17.431216 +0100,
vertical.xlsx,The target is tilted.,135,72,0,9,0,0,0,0,0,0,0,0,0,0,0,0,1,1,1,135,space,4.452764599999682,None,0,1,13.641443900000013,None,space,2.3451876999997694,None,0,0,0,1,,,,,9,0,72,7,202.9456679,,,,,,,,,,,,,,,,,,,,,202.93057750000025,202.9456679,203.42955090000032,203.43485099999998,203.45052299999998,217.10826799999995,,,,,217.1084152000003,217.12382290000005,217.32436510000025,217.30827020000015,203.45052299999998,,,,,,,,0,1,13.641443900000013,None,,,,,,,,843,24,V,R,2026-02-18_11h46.17.206,VisualSearch_2526_3,,2025.2.4,2026-02-18 11h46.17.431216 +0100,
vertical.xlsx,The target is tilted.,135,73,1,9,1,1,1,1,1,1,1,1,1,1,1,1,0,11,12,135,space,4.452764599999682,None,1,1,3.0986447000000226,None,space,2.3451876999997694,None,0,0,0,1,,,,,9,1,73,0,217.32436510000025,,,,,,,,,,,,,,,,,,,,,217.30914280000025,217.32436510000025,217.80812779999997,217.8136174000001,217.83032950000006,220.94098480000002,,,,,220.9412252000002,220.95605250000017,221.15642720000005,221.14000260000012,217.83032950000006,,,,,,,,1,1,3.0986447000000226,None,,,,,,,,843,24,V,R,2026-02-18_11h46.17.206,VisualSearch_2526_3,,2025.2.4,2026-02-18 11h46.17.431216 +0100,
vertical.xlsx,The target is tilted.,135,74,2,9,1,1,1,1,1,1,1,1,0,0,0,0,0,7,8,135,space,4.452764599999682,None,0,0,5.8173830000000635,None,space,2.3451876999997694,None,0,0,0,1,,,,,9,2,74,1,221.15642720000005,,,,,,,,,,,,,,,,,,,,,221.14091000000008,221.15642720000005,221.6402406000002,221.64548280000008,221.66113250000035,227.48881280000023,,,,,227.48906280000028,227.5038870000003,227.70431910000025,227.68819470000017,221.66113250000035,,,,,,,,0,0,5.8173830000000635,None,,,,,,,,843,24,V,R,2026-02-18_11h46.17.206,VisualSearch_2526_3,,2025.2.4,2026-02-18 11h46.17.431216 +0100,
vertical.xlsx,The target is tilted.,135,75,3,9,0,1,1,1,0,0,0,0,0,0,0,0,1,3,4,135,space,4.452764599999682,None,0,1,11.151541400000042,None,space,2.3451876999997694,None,0,0,0,1,,,,,9,3,75,6,227.70431910000025,,,,,,,,,,,,,,,,,,,,,227.6890301000003,227.70431910000025,228.1880527000003,228.19353450000017,228.20906280000008,239.36836200000016,,,,,239.36858810000012,239.38330270000006,239.5837319000002,239.56766500000003,228.20906280000008,,,,,,,,0,1,11.151541400000042,None,,,,,,,,843,24,V,R,2026-02-18_11h46.17.206,VisualSearch_2526_3,,2025.2.4,2026-02-18 11h46.17.431216 +0100,
vertical.xlsx,The target is tilted.,135,76,4,9,1,0,0,0,0,0,0,0,0,0,0,0,0,0,1,135,space,4.452764599999682,None,1,1,2.0716984000000593,None,space,2.3451876999997694,None,0,0,0,1,,,,,9,4,76,3,239.5837319000002,,,,,,,,,,,,,,,,,,,,,239.56846250000035,239.5837319000002,240.0675309000003,240.0735992,240.08820970000033,242.167465,,,,,242.16768330000014,242.18238080000037,242.38270200000034,242.3667349000002,240.08820970000033,,,,,,,,1,1,2.0716984000000593,None,,,,,,,,843,24,V,R,2026-02-18_11h46.17.206,VisualSearch_2526_3,,2025.2.4,2026-02-18 11h46.17.431216 +0100,
vertical.xlsx,The target is tilted.,135,77,5,9,1,1,1,1,0,0,0,0,0,0,0,0,0,3,4,135,space,4.452764599999682,None,1,1,2.626617299999907,None,space,2.3451876999997694,None,0,0,0,1,,,,,9,5,77,2,242.38270200000034,,,,,,,,,,,,,,,,,,,,,242.36753339999996,242.38270200000034,242.86643070000036,242.87174380000033,242.88729570000032,245.51617380000016,,,,,245.51641150000023,245.53130529999999,245.73158710000007,245.71574630000032,242.88729570000032,,,,,,,,1,1,2.626617299999907,None,,,,,,,,843,24,V,R,2026-02-18_11h46.17.206,VisualSearch_2526_3,,2025.2.4,2026-02-18 11h46.17.431216 +0100,
vertical.xlsx,The target is tilted.,135,78,6,9,0,1,1,1,1,1,1,1,1,1,1,1,1,11,12,135,space,4.452764599999682,None,0,1,8.592681900000116,None,space,2.3451876999997694,None,0,0,0,1,,,,,9,6,78,4,245.73158710000007,,,,,,,,,,,,,,,,,,,,,245.7165686000003,245.73158710000007,246.21545749999996,246.2208998000001,246.2368994000003,254.8460817,,,,,254.84630030000017,254.86163729999998,255.0618568,255.04579220000005,246.2368994000003,,,,,,,,0,1,8.592681900000116,None,,,,,,,,843,24,V,R,2026-02-18_11h46.17.206,VisualSearch_2526_3,,2025.2.4,2026-02-18 11h46.17.431216 +0100,
vertical.xlsx,The target is tilted.,135,79,7,9,0,1,1,1,1,1,1,1,0,0,0,0,1,7,8,135,space,4.452764599999682,None,0,1,6.987447099999827,None,space,2.3451876999997694,None,0,0,0,1,,,,,9,7,79,5,255.0618568,,,,,,,,,,,,,,,,,,,,,255.04658300000028,255.0618568,255.54550570000038,255.5509393000002,255.56562340000028,262.55966000000035,,,,,262.5597706000003,262.5754128000003,262.7760092000003,262.7601453000002,255.56562340000028,,,,,,,,0,1,6.987447099999827,None,,,,,,,,843,24,V,R,2026-02-18_11h46.17.206,VisualSearch_2526_3,,2025.2.4,2026-02-18 11h46.17.431216 +0100,
vertical.xlsx,The target is tilted.,135,80,0,10,1,0,0,0,0,0,0,0,0,0,0,0,0,0,1,135,space,4.452764599999682,None,1,1,0.5627697999998418,None,space,2.3451876999997694,None,0,0,0,1,,,,,10,0,80,3,262.7760092000003,,,,,,,,,,,,,,,,,,,,,262.7609967000003,262.7760092000003,263.2600536,263.2653931,263.28084620000027,263.86002959999996,,,,,263.8602840000003,263.87521760000027,264.07545600000003,264.0594860000001,263.28084620000027,,,,,,,,1,1,0.5627697999998418,None,,,,,,,,843,24,V,R,2026-02-18_11h46.17.206,VisualSearch_2526_3,,2025.2.4,2026-02-18 11h46.17.431216 +0100,
vertical.xlsx,The target is tilted.,135,81,1,10,0,1,1,1,0,0,0,0,0,0,0,0,1,3,4,135,space,4.452764599999682,None,0,1,0.990889100000004,None,space,2.3451876999997694,None,0,0,0,1,,,,,10,1,81,6,264.07545600000003,,,,,,,,,,,,,,,,,,,,,264.0604833000002,264.07545600000003,264.5594698,264.56483100000014,264.58156580000013,265.5755240000003,,,,,265.57567599999993,265.5912959000002,265.79165580000017,265.7757821,264.58156580000013,,,,,,,,0,1,0.990889100000004,None,,,,,,,,843,24,V,R,2026-02-18_11h46.17.206,VisualSearch_2526_3,,2025.2.4,2026-02-18 11h46.17.431216 +0100,
vertical.xlsx,The target is tilted.,135,82,2,10,1,1,1,1,1,1,1,1,0,0,0,0,0,7,8,135,space,4.452764599999682,None,1,1,1.9704498999999487,None,space,2.3451876999997694,None,0,0,0,1,,,,,10,2,82,1,265.79165580000017,,,,,,,,,,,,,,,,,,,,,265.7765816000001,265.79165580000017,266.27560489999996,266.28102190000027,266.2945138,268.2753663000003,,,,,268.27555699999994,268.29049520000035,268.4907975000001,268.4748773000001,266.2945138,,,,,,,,1,1,1.9704498999999487,None,,,,,,,,843,24,V,R,2026-02-18_11h46.17.206,VisualSearch_2526_3,,2025.2.4,2026-02-18 11h46.17.431216 +0100,
vertical.xlsx,The target is tilted.,135,83,3,10,0,1,1,1,1,1,1,1,1,1,1,1,1,11,12,135,space,4.452764599999682,None,0,1,1.912927999999738,None,space,2.3451876999997694,None,0,0,0,1,,,,,10,3,83,4,268.4907975000001,,,,,,,,,,,,,,,,,,,,,268.47568249999995,268.4907975000001,268.97431170000027,268.97968830000036,268.9937304,270.90768960000014,,,,,270.90787750000027,270.92285470000024,271.12342190000027,271.1071428,268.9937304,,,,,,,,0,1,1.912927999999738,None,,,,,,,,843,24,V,R,2026-02-18_11h46.17.206,VisualSearch_2526_3,,2025.2.4,2026-02-18 11h46.17.431216 +0100,
vertical.xlsx,The target is tilted.,135,84,4,10,1,1,1,1,0,0,0,0,0,0,0,0,0,3,4,135,space,4.452764599999682,None,1,1,0.9271283000002768,None,space,2.3451876999997694,None,0,0,0,1,,,,,10,4,84,2,271.12342190000027,,,,,,,,,,,,,,,,,,,,,271.10803970000006,271.12342190000027,271.6071987,271.6124818000003,271.63034070000003,272.5732399000003,,,,,272.5733296000003,272.58936970000013,272.7895275000001,272.77343340000016,271.63034070000003,,,,,,,,1,1,0.9271283000002768,None,,,,,,,,843,24,V,R,2026-02-18_11h46.17.206,VisualSearch_2526_3,,2025.2.4,2026-02-18 11h46.17.431216 +0100,
vertical.xlsx,The target is tilted.,135,85,5,10,0,1,1,1,1,1,1,1,0,0,0,0,1,7,8,135,space,4.452764599999682,None,0,1,4.01737200000025,None,space,2.3451876999997694,None,0,0,0,1,,,,,10,5,85,5,272.7895275000001,,,,,,,,,,,,,,,,,,,,,272.7742310000003,272.7895275000001,273.2728003000002,273.27790540000024,273.2891975000002,277.32212800000025,,,,,277.3223025000002,277.33793790000027,277.5379360000002,277.5214882,273.2891975000002,,,,,,,,0,1,4.01737200000025,None,,,,,,,,843,24,V,R,2026-02-18_11h46.17.206,VisualSearch_2526_3,,2025.2.4,2026-02-18 11h46.17.431216 +0100,
vertical.xlsx,The target is tilted.,135,86,6,10,0,0,0,0,0,0,0,0,0,0,0,0,1,1,1,135,space,4.452764599999682,None,0,1,0.7656267999996089,None,space,2.3451876999997694,None,0,0,0,1,,,,,10,6,86,7,277.5379360000002,,,,,,,,,,,,,,,,,,,,,277.5223108,277.5379360000002,278.02073010000004,278.02294699999993,278.0375286000003,278.8047200000001,,,,,278.8049119000002,278.8203403000002,279.02050929999996,279.0046663000003,278.0375286000003,,,,,,,,0,1,0.7656267999996089,None,,,,,,,,843,24,V,R,2026-02-18_11h46.17.206,VisualSearch_2526_3,,2025.2.4,2026-02-18 11h46.17.431216 +0100,
vertical.xlsx,The target is tilted.,135,87,7,10,1,1,1,1,1,1,1,1,1,1,1,1,0,11,12,135,space,4.452764599999682,None,1,1,1.0460008999998536,None,space,2.3451876999997694,None,0,0,0,1,,,,,10,7,87,0,279.02050929999996,,,,,,,,,,,,,,,,,,,,,279.0055440000001,279.02050929999996,279.5045261,279.5098613,279.52492840000014,280.58792399999993,,,,,280.5881322,280.6034023000002,280.8035149000002,280.7874750000001,279.52492840000014,,,,,,,,1,1,1.0460008999998536,None,,,,,,,,843,24,V,R,2026-02-18_11h46.17.206,VisualSearch_2526_3,,2025.2.4,2026-02-18 11h46.17.431216 +0100,
vertical.xlsx,The target is tilted.,135,88,0,11,1,0,0,0,0,0,0,0,0,0,0,0,0,0,1,135,space,4.452764599999682,None,1,1,0.7472930000003544,None,space,2.3451876999997694,None,0,0,0,1,,,,,11,0,88,3,280.8035149000002,,,,,,,,,,,,,,,,,,,,,280.78842060000034,280.8035149000002,281.28731960000005,281.2927751000002,281.30761500000017,282.07071940000014,,,,,282.0709385,282.08645650000017,282.2864104,282.2704068000003,281.30761500000017,,,,,,,,1,1,0.7472930000003544,None,,,,,,,,843,24,V,R,2026-02-18_11h46.17.206,VisualSearch_2526_3,,2025.2.4,2026-02-18 11h46.17.431216 +0100,
vertical.xlsx,The target is tilted.,135,89,1,11,0,1,1,1,0,0,0,0,0,0,0,0,1,3,4,135,space,4.452764599999682,None,0,1,0.9370195999999851,None,space,2.3451876999997694,None,0,0,0,1,,,,,11,1,89,6,282.2864104,,,,,,,,,,,,,,,,,,,,,282.2711968000003,282.2864104,282.7702528,282.7755294000003,282.79131270000016,283.7372098000001,,,,,283.7374268000003,283.7522183000001,283.9523994000001,283.9365321,282.79131270000016,,,,,,,,0,1,0.9370195999999851,None,,,,,,,,843,24,V,R,2026-02-18_11h46.17.206,VisualSearch_2526_3,,2025.2.4,2026-02-18 11h46.17.431216 +0100,
vertical.xlsx,The target is tilted.,135,90,2,11,0,1,1,1,1,1,1,1,1,1,1,1,1,11,12,135,space,4.452764599999682,None,0,1,1.2864732000002732,None,space,2.3451876999997694,None,0,0,0,1,,,,,11,2,90,4,283.9523994000001,,,,,,,,,,,,,,,,,,,,,283.93739760000017,283.9523994000001,284.4362384000001,284.44165040000007,284.45722350000005,285.75241970000025,,,,,285.75255319999997,285.7683406000001,285.9685707000003,285.95230070000025,284.45722350000005,,,,,,,,0,1,1.2864732000002732,None,,,,,,,,843,24,V,R,2026-02-18_11h46.17.206,VisualSearch_2526_3,,2025.2.4,2026-02-18 11h46.17.431216 +0100,
vertical.xlsx,The target is tilted.,135,91,3,11,0,0,0,0,0,0,0,0,0,0,0,0,1,1,1,135,space,4.452764599999682,None,0,1,1.0877291000001605,None,space,2.3451876999997694,None,0,0,0,1,,,,,11,3,91,7,285.9685707000003,,,,,,,,,,,,,,,,,,,,,285.95318,285.9685707000003,286.45217260000027,286.45753650000006,286.4732758,287.5687974000002,,,,,287.5689860000002,287.58422370000017,287.78463690000035,287.76865380000027,286.4732758,,,,,,,,0,1,1.0877291000001605,None,,,,,,,,843,24,V,R,2026-02-18_11h46.17.206,VisualSearch_2526_3,,2025.2.4,2026-02-18 11h46.17.431216 +0100,
vertical.xlsx,The target is tilted.,135,92,4,11,1,1,1,1,1,1,1,1,0,0,0,0,0,7,8,135,space,4.452764599999682,None,1,1,0.9012630000001991,None,space,2.3451876999997694,None,0,0,0,1,,,,,11,4,92,1,287.78463690000035,,,,,,,,,,,,,,,,,,,,,287.7695017000001,287.78463690000035,288.26843099999996,288.2737599000002,288.28942159999997,289.20133220000025,,,,,289.20147339999994,289.21706600000016,289.41744130000006,289.4013927000001,288.28942159999997,,,,,,,,1,1,0.9012630000001991,None,,,,,,,,843,24,V,R,2026-02-18_11h46.17.206,VisualSearch_2526_3,,2025.2.4,2026-02-18 11h46.17.431216 +0100,
vertical.xlsx,The target is tilted.,135,93,5,11,0,1,1,1,1,1,1,1,0,0,0,0,1,7,8,135,space,4.452764599999682,None,0,1,1.2440487000003486,None,space,2.3451876999997694,None,0,0,0,1,,,,,11,5,93,5,289.41744130000006,,,,,,,,,,,,,,,,,,,,,289.402188,289.41744130000006,289.9013595000001,289.90660890000026,289.9220911000002,291.1678055000002,,,,,291.1680044,291.1833604000003,291.3834310000002,291.3674533000003,289.9220911000002,,,,,,,,0,1,1.2440487000003486,None,,,,,,,,843,24,V,R,2026-02-18_11h46.17.206,VisualSearch_2526_3,,2025.2.4,2026-02-18 11h46.17.431216 +0100,
vertical.xlsx,The target is tilted.,135,94,6,11,1,1,1,1,0,0,0,0,0,0,0,0,0,3,4,135,space,4.452764599999682,None,1,1,0.7491092999998727,None,space,2.3451876999997694,None,0,0,0,1,,,,,11,6,94,2,291.3834310000002,,,,,,,,,,,,,,,,,,,,,291.36828760000026,291.3834310000002,291.86723200000006,291.8725222000003,291.89030730000013,292.65051070000027,,,,,292.6506800000002,292.66623210000034,292.86624550000033,292.8502489000002,291.89030730000013,,,,,,,,1,1,0.7491092999998727,None,,,,,,,,843,24,V,R,2026-02-18_11h46.17.206,VisualSearch_2526_3,,2025.2.4,2026-02-18 11h46.17.431216 +0100,
vertical.xlsx,The target is tilted.,135,95,7,11,1,1,1,1,1,1,1,1,1,1,1,1,0,11,12,135,space,4.452764599999682,None,1,1,1.1347900999999183,None,space,2.3451876999997694,None,0,0,0,1,,,,,11,7,95,0,292.86624550000033,,,,,,,,,,,,,,,,,,,,,292.85106300000007,292.86624550000033,293.3501822000003,293.35546790000035,293.37103419999994,294.5161733,,,,,294.5163262000001,294.5320063000004,294.7322395000001,294.7158723000002,293.37103419999994,,,,,,,,1,1,1.1347900999999183,None,,,,,,,,843,24,V,R,2026-02-18_11h46.17.206,VisualSearch_2526_3,,2025.2.4,2026-02-18 11h46.17.431216 +0100,
vertical.xlsx,The target is tilted.,135,96,0,12,0,0,0,0,0,0,0,0,0,0,0,0,1,1,1,135,space,4.452764599999682,None,0,1,0.7233215999999629,None,space,2.3451876999997694,None,0,0,0,1,,,,,12,0,96,7,294.7322395000001,,,,,,,,,,,,,,,,,,,,,294.71668709999994,294.7322395000001,295.21613270000034,295.2215652,295.2370955000001,295.9661978000004,,,,,295.9663829000001,295.98168750000013,296.18171359999997,296.1656353000003,295.2370955000001,,,,,,,,0,1,0.7233215999999629,None,,,,,,,,843,24,V,R,2026-02-18_11h46.17.206,VisualSearch_2526_3,,2025.2.4,2026-02-18 11h46.17.431216 +0100,
vertical.xlsx,The target is tilted.,135,97,1,12,1,1,1,1,0,0,0,0,0,0,0,0,0,3,4,135,space,4.452764599999682,None,1,1,1.252078800000163,None,space,2.3451876999997694,None,0,0,0,1,,,,,12,1,97,2,296.18171359999997,,,,,,,,,,,,,,,,,,,,,296.1665046000003,296.18171359999997,296.66560770000024,296.67086940000036,296.68588450000016,297.94915260000016,,,,,297.9494060000002,297.9642967,298.16455810000025,298.14846579999994,296.68588450000016,,,,,,,,1,1,1.252078800000163,None,,,,,,,,843,24,V,R,2026-02-18_11h46.17.206,VisualSearch_2526_3,,2025.2.4,2026-02-18 11h46.17.431216 +0100,
vertical.xlsx,The target is tilted.,135,98,2,12,1,1,1,1,1,1,1,1,1,1,1,1,0,11,12,135,space,4.452764599999682,None,1,1,0.6241852000002837,None,space,2.3451876999997694,None,0,0,0,1,,,,,12,2,98,0,298.16455810000025,,,,,,,,,,,,,,,,,,,,,298.14938370000027,298.16455810000025,298.6479266000001,298.6529936000002,298.6638587000002,299.29870070000015,,,,,299.2989527,299.3142378000002,299.5140484000003,299.497875,298.6638587000002,,,,,,,,1,1,0.6241852000002837,None,,,,,,,,843,24,V,R,2026-02-18_11h46.17.206,VisualSearch_2526_3,,2025.2.4,2026-02-18 11h46.17.431216 +0100,
vertical.xlsx,The target is tilted.,135,99,3,12,1,0,0,0,0,0,0,0,0,0,0,0,0,0,1,135,space,4.452764599999682,None,1,1,0.4402448999999251,None,space,2.3451876999997694,None,0,0,0,1,,,,,12,3,99,3,299.5140484000003,,,,,,,,,,,,,,,,,,,,,299.4987605000001,299.5140484000003,299.99801130000014,300.0033559000003,300.0133344999999,300.4650571000002,,,,,300.4652699000003,300.48003289999997,300.68044050000026,300.6639706000001,300.0133344999999,,,,,,,,1,1,0.4402448999999251,None,,,,,,,,843,24,V,R,2026-02-18_11h46.17.206,VisualSearch_2526_3,,2025.2.4,2026-02-18 11h46.17.431216 +0100,
vertical.xlsx,The target is tilted.,135,100,4,12,0,1,1,1,1,1,1,1,1,1,1,1,1,11,12,135,space,4.452764599999682,None,0,1,2.0089147999997294,None,space,2.3451876999997694,None,0,0,0,1,,,,,12,4,100,4,300.68044050000026,,,,,,,,,,,,,,,,,,,,,300.6647965000002,300.68044050000026,301.1641482,301.16880119999996,301.18000660000007,303.1972654000001,,,,,303.1974888,303.2125103000003,303.41246530000035,303.3967954,301.18000660000007,,,,,,,,0,1,2.0089147999997294,None,,,,,,,,843,24,V,R,2026-02-18_11h46.17.206,VisualSearch_2526_3,,2025.2.4,2026-02-18 11h46.17.431216 +0100,
vertical.xlsx,The target is tilted.,135,101,5,12,1,1,1,1,1,1,1,1,0,0,0,0,0,7,8,135,space,4.452764599999682,None,1,1,0.6982689000001301,None,space,2.3451876999997694,None,0,0,0,1,,,,,12,5,101,1,303.41246530000035,,,,,,,,,,,,,,,,,,,,,303.397594,303.41246530000035,303.8966227000001,303.9014682000002,303.9123747000003,304.6129490000003,,,,,304.61309299999994,304.62892839999995,304.8289565,304.8129551000002,303.9123747000003,,,,,,,,1,1,0.6982689000001301,None,,,,,,,,843,24,V,R,2026-02-18_11h46.17.206,VisualSearch_2526_3,,2025.2.4,2026-02-18 11h46.17.431216 +0100,
vertical.xlsx,The target is tilted.,135,102,6,12,0,1,1,1,1,1,1,1,0,0,0,0,1,7,8,135,space,4.452764599999682,None,0,1,1.2107842999998866,None,space,2.3451876999997694,None,0,0,0,1,,,,,12,6,102,5,304.8289565,,,,,,,,,,,,,,,,,,,,,304.8138841,304.8289565,305.3127926000002,305.3181007000003,305.33359210000026,306.5461639,,,,,306.54635780000035,306.5616007000003,306.76167669999995,306.7456328000003,305.33359210000026,,,,,,,,0,1,1.2107842999998866,None,,,,,,,,843,24,V,R,2026-02-18_11h46.17.206,VisualSearch_2526_3,,2025.2.4,2026-02-18 11h46.17.431216 +0100,
vertical.xlsx,The target is tilted.,135,103,7,12,0,1,1,1,0,0,0,0,0,0,0,0,1,3,4,135,space,4.452764599999682,None,0,1,0.7357877999997982,None,space,2.3451876999997694,None,0,0,0,1,,,,,12,7,103,6,306.76167669999995,,,,,,,,,,,,,,,,,,,,,306.74645150000015,306.76167669999995,307.24548600000026,307.2509293000003,307.2659170000002,308.0115453000003,,,,,308.0116889000001,308.0275451000002,308.22787540000036,308.2115143000001,307.2659170000002,,,,,,,,0,1,0.7357877999997982,None,,,,,,,,843,24,V,R,2026-02-18_11h46.17.206,VisualSearch_2526_3,,2025.2.4,2026-02-18 11h46.17.431216 +0100,
vertical.xlsx,The target is tilted.,135,104,0,13,0,1,1,1,1,1,1,1,1,1,1,1,1,11,12,135,space,4.452764599999682,None,0,1,1.6116703000002417,None,space,2.3451876999997694,None,0,0,0,1,,,,,13,0,104,4,308.22787540000036,,,,,,,,,,,,,,,,,,,,,308.21235590000015,308.22787540000036,308.71137260000023,308.71677339999997,308.72998210000014,310.3449333000003,,,,,310.34513640000023,310.36003400000027,310.56042049999996,310.54445179999993,308.72998210000014,,,,,,,,0,1,1.6116703000002417,None,,,,,,,,843,24,V,R,2026-02-18_11h46.17.206,VisualSearch_2526_3,,2025.2.4,2026-02-18 11h46.17.431216 +0100,
vertical.xlsx,The target is tilted.,135,105,1,13,1,1,1,1,1,1,1,1,0,0,0,0,0,7,8,135,space,4.452764599999682,None,0,0,1.1791940000002796,None,space,2.3451876999997694,None,0,0,0,1,,,,,13,1,105,1,310.56042049999996,,,,,,,,,,,,,,,,,,,,,310.5452693000002,310.56042049999996,311.0434878000001,311.04617940000026,311.06006830000024,312.2434105000002,,,,,312.24352020000015,312.2597158000003,312.45982520000007,312.44378080000024,311.06006830000024,,,,,,,,0,0,1.1791940000002796,None,,,,,,,,843,24,V,R,2026-02-18_11h46.17.206,VisualSearch_2526_3,,2025.2.4,2026-02-18 11h46.17.431216 +0100,
vertical.xlsx,The target is tilted.,135,106,2,13,1,1,1,1,1,1,1,1,1,1,1,1,0,11,12,135,space,4.452764599999682,None,1,1,0.939672900000005,None,space,2.3451876999997694,None,0,0,0,1,,,,,13,2,106,0,312.45982520000007,,,,,,,,,,,,,,,,,,,,,312.4445737000001,312.45982520000007,312.9436171000002,312.94843740000033,312.95946270000013,313.91057550000005,,,,,313.91082400000005,313.92566209999995,314.12560729999996,314.10989900000004,312.95946270000013,,,,,,,,1,1,0.939672900000005,None,,,,,,,,843,24,V,R,2026-02-18_11h46.17.206,VisualSearch_2526_3,,2025.2.4,2026-02-18 11h46.17.431216 +0100,
vertical.xlsx,The target is tilted.,135,107,3,13,0,0,0,0,0,0,0,0,0,0,0,0,1,1,1,135,space,4.452764599999682,None,0,1,0.5593814999997448,None,space,2.3451876999997694,None,0,0,0,1,,,,,13,3,107,7,314.12560729999996,,,,,,,,,,,,,,,,,,,,,314.1107890000003,314.12560729999996,314.6098371000003,314.61515750000035,314.63165260000005,315.19337190000033,,,,,315.19365940000034,315.20884000000024,315.4089235000001,315.39267830000017,314.63165260000005,,,,,,,,0,1,0.5593814999997448,None,,,,,,,,843,24,V,R,2026-02-18_11h46.17.206,VisualSearch_2526_3,,2025.2.4,2026-02-18 11h46.17.431216 +0100,
vertical.xlsx,The target is tilted.,135,108,4,13,0,1,1,1,0,0,0,0,0,0,0,0,1,3,4,135,space,4.452764599999682,None,0,1,0.8669672000000901,None,space,2.3451876999997694,None,0,0,0,1,,,,,13,4,108,6,315.4089235000001,,,,,,,,,,,,,,,,,,,,,315.39356110000017,315.4089235000001,315.89254900000014,315.89765620000026,315.90850930000033,316.7928162000003,,,,,316.7930322000002,316.80844049999996,317.00804140000037,316.9919979000001,315.90850930000033,,,,,,,,0,1,0.8669672000000901,None,,,,,,,,843,24,V,R,2026-02-18_11h46.17.206,VisualSearch_2526_3,,2025.2.4,2026-02-18 11h46.17.431216 +0100,
vertical.xlsx,The target is tilted.,135,109,5,13,1,0,0,0,0,0,0,0,0,0,0,0,0,0,1,135,space,4.452764599999682,None,1,1,0.48498060000019905,None,space,2.3451876999997694,None,0,0,0,1,,,,,13,5,109,3,317.00804140000037,,,,,,,,,,,,,,,,,,,,,316.9928546000001,317.00804140000037,317.4918954,317.4972372000002,317.5126825000002,318.0091225000001,,,,,318.00934700000016,318.02439830000003,318.22462840000026,318.20857490000026,317.5126825000002,,,,,,,,1,1,0.48498060000019905,None,,,,,,,,843,24,V,R,2026-02-18_11h46.17.206,VisualSearch_2526_3,,2025.2.4,2026-02-18 11h46.17.431216 +0100,
vertical.xlsx,The target is tilted.,135,110,6,13,0,1,1,1,1,1,1,1,0,0,0,0,1,7,8,135,space,4.452764599999682,None,0,1,1.838029799999731,None,space,2.3451876999997694,None,0,0,0,1,,,,,13,6,110,5,318.22462840000026,,,,,,,,,,,,,,,,,,,,,318.2093867000003,318.22462840000026,318.7085986000002,318.7138476,318.73046950000025,320.5748129000003,,,,,320.57503270000007,320.5903939,320.79038760000003,320.7739845000001,318.73046950000025,,,,,,,,0,1,1.838029799999731,None,,,,,,,,843,24,V,R,2026-02-18_11h46.17.206,VisualSearch_2526_3,,2025.2.4,2026-02-18 11h46.17.431216 +0100,
vertical.xlsx,The target is tilted.,135,111,7,13,1,1,1,1,0,0,0,0,0,0,0,0,0,3,4,135,space,4.452764599999682,None,0,0,0.44587860000001456,None,space,2.3451876999997694,None,0,0,0,1,,,,,13,7,111,2,320.79038760000003,,,,,,,,,,,,,,,,,,,,,320.77480160000005,320.79038760000003,321.27426110000033,321.2793587000001,321.2898557000003,321.7413002000003,,,,,321.74152600000025,321.75682240000015,321.9567455000001,321.94063929999993,321.2898557000003,,,,,,,,0,0,0.44587860000001456,None,,,,,,,,843,24,V,R,2026-02-18_11h46.17.206,VisualSearch_2526_3,,2025.2.4,2026-02-18 11h46.17.431216 +0100,
vertical.xlsx,The target is tilted.,135,112,0,14,0,1,1,1,1,1,1,1,0,0,0,0,1,7,8,135,space,4.452764599999682,None,0,1,1.3490318999997726,None,space,2.3451876999997694,None,0,0,0,1,,,,,14,0,112,5,321.9567455000001,,,,,,,,,,,,,,,,,,,,,321.94153499999993,321.9567455000001,322.4403556000002,322.4457003000002,322.45957320000025,323.82397630000014,,,,,323.8242260000002,323.8394737000003,324.0394145,324.0232960000003,322.45957320000025,,,,,,,,0,1,1.3490318999997726,None,,,,,,,,843,24,V,R,2026-02-18_11h46.17.206,VisualSearch_2526_3,,2025.2.4,2026-02-18 11h46.17.431216 +0100,
vertical.xlsx,The target is tilted.,135,113,1,14,0,1,1,1,0,0,0,0,0,0,0,0,1,3,4,135,space,4.452764599999682,None,0,1,0.5817001000000346,None,space,2.3451876999997694,None,0,0,0,1,,,,,14,1,113,6,324.0394145,,,,,,,,,,,,,,,,,,,,,324.0241159000002,324.0394145,324.52328430000034,324.52869950000013,324.5444348000001,325.1402710000002,,,,,325.1405046,325.1553196,325.35570410000037,325.33957439999995,324.5444348000001,,,,,,,,0,1,0.5817001000000346,None,,,,,,,,843,24,V,R,2026-02-18_11h46.17.206,VisualSearch_2526_3,,2025.2.4,2026-02-18 11h46.17.431216 +0100,
vertical.xlsx,The target is tilted.,135,114,2,14,1,1,1,1,1,1,1,1,1,1,1,1,0,11,12,135,space,4.452764599999682,None,1,1,0.6628125000002001,None,space,2.3451876999997694,None,0,0,0,1,,,,,14,2,114,0,325.35570410000037,,,,,,,,,,,,,,,,,,,,,325.3403824000002,325.35570410000037,325.83930039999996,325.84464290000005,325.8603602000003,326.53920500000004,,,,,326.53935120000006,326.55497330000026,326.7551963000001,326.73915160000024,325.8603602000003,,,,,,,,1,1,0.6628125000002001,None,,,,,,,,843,24,V,R,2026-02-18_11h46.17.206,VisualSearch_2526_3,,2025.2.4,2026-02-18 11h46.17.431216 +0100,
vertical.xlsx,The target is tilted.,135,115,3,14,0,1,1,1,1,1,1,1,1,1,1,1,1,11,12,135,space,4.452764599999682,None,0,1,1.6264337000002342,None,space,2.3451876999997694,None,0,0,0,1,,,,,14,3,115,4,326.7551963000001,,,,,,,,,,,,,,,,,,,,,326.74006009999994,326.7551963000001,327.2389317000002,327.2442137000003,327.25838680000015,328.88811060000035,,,,,328.88825309999993,328.9042564000001,329.1043773000001,329.08833430000004,327.25838680000015,,,,,,,,0,1,1.6264337000002342,None,,,,,,,,843,24,V,R,2026-02-18_11h46.17.206,VisualSearch_2526_3,,2025.2.4,2026-02-18 11h46.17.431216 +0100,
vertical.xlsx,The target is tilted.,135,116,4,14,1,0,0,0,0,0,0,0,0,0,0,0,0,0,1,135,space,4.452764599999682,None,1,1,0.4041551000000254,None,space,2.3451876999997694,None,0,0,0,1,,,,,14,4,116,3,329.1043773000001,,,,,,,,,,,,,,,,,,,,,329.0891687000003,329.1043773000001,329.5877845,329.5931164000003,329.6068717000003,330.02112460000035,,,,,330.02120030000015,330.03722700000026,330.2374557000003,330.2213442000002,329.6068717000003,,,,,,,,1,1,0.4041551000000254,None,,,,,,,,843,24,V,R,2026-02-18_11h46.17.206,VisualSearch_2526_3,,2025.2.4,2026-02-18 11h46.17.431216 +0100,
vertical.xlsx,The target is tilted.,135,117,5,14,0,0,0,0,0,0,0,0,0,0,0,0,1,1,1,135,space,4.452764599999682,None,0,1,0.5461673999998311,None,space,2.3451876999997694,None,0,0,0,1,,,,,14,5,117,7,330.2374557000003,,,,,,,,,,,,,,,,,,,,,330.22228829999995,330.2374557000003,330.7211324,330.72638780000034,330.7421413000002,331.3042684000002,,,,,331.3044139000003,331.32024920000003,331.5203352000003,331.5042604,330.7421413000002,,,,,,,,0,1,0.5461673999998311,None,,,,,,,,843,24,V,R,2026-02-18_11h46.17.206,VisualSearch_2526_3,,2025.2.4,2026-02-18 11h46.17.431216 +0100,
vertical.xlsx,The target is tilted.,135,118,6,14,1,1,1,1,1,1,1,1,0,0,0,0,0,7,8,135,space,4.452764599999682,None,1,1,1.0414115999997193,None,space,2.3451876999997694,None,0,0,0,1,,,,,14,6,118,1,331.5203352000003,,,,,,,,,,,,,,,,,,,,,331.5050454000002,331.5203352000003,332.0040419000002,332.00661549999995,332.01956199999995,333.07104000000027,,,,,333.07127119999996,333.08614050000006,333.2863983000002,333.27007660000027,332.01956199999995,,,,,,,,1,1,1.0414115999997193,None,,,,,,,,843,24,V,R,2026-02-18_11h46.17.206,VisualSearch_2526_3,,2025.2.4,2026-02-18 11h46.17.431216 +0100,
vertical.xlsx,The target is tilted.,135,119,7,14,1,1,1,1,0,0,0,0,0,0,0,0,0,3,4,135,space,4.452764599999682,None,1,1,0.6077141000000665,None,space,2.3451876999997694,None,0,0,0,1,,,,,14,7,119,2,333.2863983000002,,,,,,,,,,,,,,,,,,,,,333.2709122000001,333.2863983000002,333.7701801000003,333.77538840000034,333.79177389999995,334.4028999000002,,,,,334.4030568000003,334.4191244000003,334.6197965000001,334.6021463000002,333.79177389999995,,,,,,,,1,1,0.6077141000000665,None,,,,,,,,843,24,V,R,2026-02-18_11h46.17.206,VisualSearch_2526_3,,2025.2.4,2026-02-18 11h46.17.431216 +0100,
vertical.xlsx,The target is tilted.,135,0,0,0,,,,,,,,,,,,,,,,,space,4.452764599999682,None,,,,,space,2.3451876999997694,None,0,0,0,1,,,,,,,,,,,,,,,,,,,,,,,,,,,,,,,,,,,,,,,,,,,,,,,,,,,,,,,,,,,,,,,843,24,V,R,2026-02-18_11h46.17.206,VisualSearch_2526_3,,2025.2.4,2026-02-18 11h46.17.431216 +0100,
tilted.xlsx,The target is tilted.,117,0,0,0,1,1,1,1,1,1,1,1,1,1,1,1,0,11,12,117,space,15.262512999999672,None,0,0,3.626438700000108,None,,,,0,1,1,0,0,0,0,0,,,,,349.92462939999996,,,,,,,,,,,,,,,334.6197965000001,334.6197965000001,334.6197965000001,space,15.262512999999672,None,349.9209357,349.92462939999996,350.4144564000003,350.41984730000013,350.4374821000001,354.0801067000002,0,0,3.626438700000108,None,354.0802490000001,354.0960712000001,354.2961827000004,354.28015619999996,,,,,,,,,,,,,,,,,,,,843,24,V,R,2026-02-18_11h46.17.206,VisualSearch_2526_3,,2025.2.4,2026-02-18 11h46.17.431216 +0100,
tilted.xlsx,The target is tilted.,117,1,1,0,0,1,1,1,1,1,1,1,0,0,0,0,1,7,8,117,space,15.262512999999672,None,1,0,2.088896300000215,None,,,,0,1,1,0,0,1,1,5,,,,,354.2961827000004,,,,,,,,,,,,,,,,,,,,,354.28091059999997,354.2961827000004,354.7800075,354.7853245000001,354.80186790000016,356.89646930000026,1,0,2.088896300000215,None,356.8966845,356.91187820000005,357.11174819999997,357.09586880000006,354.80186790000016,,,,,,,,,,,,,,,,,,,843,24,V,R,2026-02-18_11h46.17.206,VisualSearch_2526_3,,2025.2.4,2026-02-18 11h46.17.431216 +0100,
tilted.xlsx,The target is tilted.,117,2,2,0,0,0,0,0,0,0,0,0,0,0,0,0,1,1,1,117,space,15.262512999999672,None,0,1,0.8227473000001737,None,,,,0,1,1,0,0,2,2,7,,,,,357.11174819999997,,,,,,,,,,,,,,,,,,,,,357.0966228000002,357.11174819999997,357.5956741,357.6010219,357.6138966000003,358.4454297000002,0,1,0.8227473000001737,None,358.44556790000024,358.4608940000003,358.66143880000027,358.64530620000005,357.6138966000003,,,,,,,,,,,,,,,,,,,843,24,V,R,2026-02-18_11h46.17.206,VisualSearch_2526_3,,2025.2.4,2026-02-18 11h46.17.431216 +0100,
tilted.xlsx,The target is tilted.,117,3,3,0,1,1,1,1,1,1,1,1,0,0,0,0,0,7,8,117,space,15.262512999999672,None,1,1,2.1990911000002598,None,,,,0,1,1,0,0,3,3,1,,,,,358.66143880000027,,,,,,,,,,,,,,,,,,,,,358.6460741000001,358.66143880000027,359.1451992000002,359.15046250000023,359.16688049999993,361.3783463,1,1,2.1990911000002598,None,361.3785805000002,361.39344180000035,361.5937933,361.57750510000005,359.16688049999993,,,,,,,,,,,,,,,,,,,843,24,V,R,2026-02-18_11h46.17.206,VisualSearch_2526_3,,2025.2.4,2026-02-18 11h46.17.431216 +0100,
tilted.xlsx,The target is tilted.,117,4,4,0,0,1,1,1,0,0,0,0,0,0,0,0,1,3,4,117,space,15.262512999999672,None,0,1,1.3389099000000897,None,,,,0,1,1,0,0,4,4,6,,,,,361.5937933,,,,,,,,,,,,,,,,,,,,,361.57830749999994,361.5937933,362.07757979999997,362.08299860000034,362.0970926,363.4437058000003,0,1,1.3389099000000897,None,363.4438438000002,363.4596985000003,363.65976020000016,363.64376059999995,362.0970926,,,,,,,,,,,,,,,,,,,843,24,V,R,2026-02-18_11h46.17.206,VisualSearch_2526_3,,2025.2.4,2026-02-18 11h46.17.431216 +0100,
tilted.xlsx,The target is tilted.,117,5,5,0,1,0,0,0,0,0,0,0,0,0,0,0,0,0,1,117,space,15.262512999999672,None,1,1,0.6350743000002694,None,,,,0,1,1,0,0,5,5,3,,,,,363.65976020000016,,,,,,,,,,,,,,,,,,,,,363.64450510000006,363.65976020000016,364.14333030000034,364.1489322000002,364.1610689000004,364.81055890000016,1,1,0.6350743000002694,None,364.8108056000001,364.8256628000004,365.0257598000003,365.00930659999995,364.1610689000004,,,,,,,,,,,,,,,,,,,843,24,V,R,2026-02-18_11h46.17.206,VisualSearch_2526_3,,2025.2.4,2026-02-18 11h46.17.431216 +0100,
tilted.xlsx,The target is tilted.,117,6,6,0,0,1,1,1,1,1,1,1,1,1,1,1,1,11,12,117,space,15.262512999999672,None,1,0,3.386714600000232,None,,,,0,1,1,0,0,6,6,4,,,,,365.0257598000003,,,,,,,,,,,,,,,,,,,,,365.0096502000001,365.0257598000003,365.50975080000035,365.51496180000004,365.53037310000036,368.92538430000013,1,0,3.386714600000232,None,368.92557209999995,368.9409117,369.14089460000014,369.1252191000003,365.53037310000036,,,,,,,,,,,,,,,,,,,843,24,V,R,2026-02-18_11h46.17.206,VisualSearch_2526_3,,2025.2.4,2026-02-18 11h46.17.431216 +0100,
tilted.xlsx,The target is tilted.,117,7,7,0,1,1,1,1,0,0,0,0,0,0,0,0,0,3,4,117,space,15.262512999999672,None,0,0,1.6146781999996165,None,,,,0,1,1,0,0,7,7,2,,,,,369.14089460000014,,,,,,,,,,,,,,,,,,,,,369.12598530000014,369.14089460000014,369.6251271000001,369.6304229000002,369.6466465000003,371.2738227,0,0,1.6146781999996165,None,371.2739283000001,371.28984919999994,371.4902443000001,371.47413499999993,369.6466465000003,,,,,,,,,,,,,,,,,,,843,24,V,R,2026-02-18_11h46.17.206,VisualSearch_2526_3,,2025.2.4,2026-02-18 11h46.17.431216 +0100,
tilted.xlsx,The target is tilted.,117,0,0,0,0,1,1,1,0,0,0,0,0,0,0,0,1,3,4,117,space,15.262512999999672,None,0,1,1.5748891999996886,None,space,3.368857100000241,None,0,1,1,0,,,,,0,0,0,6,374.9021550000002,,,,,,,,,,,,,,,,,,,,,374.8982906000001,374.9021550000002,375.38956989999997,375.3950179000003,375.4103705000002,376.98966500000006,,,,,376.9898826000003,377.0049976,377.2052198000001,377.18929240000034,,371.4819741000001,371.4902443000001,371.4902443000001,374.87376710000035,space,3.368857100000241,None,0,1,1.5748891999996886,None,,,,,,,,843,24,V,R,2026-02-18_11h46.17.206,VisualSearch_2526_3,,2025.2.4,2026-02-18 11h46.17.431216 +0100,
tilted.xlsx,The target is tilted.,117,1,1,0,1,0,0,0,0,0,0,0,0,0,0,0,0,0,1,117,space,15.262512999999672,None,1,1,0.7125762999999097,None,space,3.368857100000241,None,0,1,1,0,,,,,0,1,1,3,377.2052198000001,,,,,,,,,,,,,,,,,,,,,377.1901018000003,377.2052198000001,377.6890773,377.69240860000036,377.70469550000007,378.42206000000033,,,,,378.4222042000001,378.4380953,378.63816650000035,378.62212880000016,377.70469550000007,,,,,,,,1,1,0.7125762999999097,None,,,,,,,,843,24,V,R,2026-02-18_11h46.17.206,VisualSearch_2526_3,,2025.2.4,2026-02-18 11h46.17.431216 +0100,
tilted.xlsx,The target is tilted.,117,2,2,0,1,1,1,1,1,1,1,1,1,1,1,1,0,11,12,117,space,15.262512999999672,None,0,0,4.732576600000357,None,space,3.368857100000241,None,0,1,1,0,,,,,0,2,2,0,378.63816650000035,,,,,,,,,,,,,,,,,,,,,378.62293180000006,378.63816650000035,379.12160670000003,379.12686970000004,379.14501040000005,383.88764500000025,,,,,383.88790040000004,383.9027722999999,384.102938,384.0868353999999,379.14501040000005,,,,,,,,0,0,4.732576600000357,None,,,,,,,,843,24,V,R,2026-02-18_11h46.17.206,VisualSearch_2526_3,,2025.2.4,2026-02-18 11h46.17.431216 +0100,
tilted.xlsx,The target is tilted.,117,3,3,0,1,1,1,1,1,1,1,1,0,0,0,0,0,7,8,117,space,15.262512999999672,None,1,1,0.798757999999907,None,space,3.368857100000241,None,0,1,1,0,,,,,0,3,3,1,384.102938,,,,,,,,,,,,,,,,,,,,,384.08770000000004,384.102938,384.58691850000014,384.59221560000015,384.60736610000004,385.4199295000003,,,,,385.42007650000005,385.4357831000002,385.6359018000003,385.6198611,384.60736610000004,,,,,,,,1,1,0.798757999999907,None,,,,,,,,843,24,V,R,2026-02-18_11h46.17.206,VisualSearch_2526_3,,2025.2.4,2026-02-18 11h46.17.431216 +0100,
tilted.xlsx,The target is tilted.,117,4,4,0,0,0,0,0,0,0,0,0,0,0,0,0,1,1,1,117,space,15.262512999999672,None,0,1,0.7318188999997801,None,space,3.368857100000241,None,0,1,1,0,,,,,0,4,4,7,385.6359018000003,,,,,,,,,,,,,,,,,,,,,385.6206476000002,385.6359018000003,386.1193367999999,386.1245179000002,386.1436321000001,386.88617509999995,,,,,386.8863930000002,386.9020837000003,387.1020622000001,387.0861086,386.1436321000001,,,,,,,,0,1,0.7318188999997801,None,,,,,,,,843,24,V,R,2026-02-18_11h46.17.206,VisualSearch_2526_3,,2025.2.4,2026-02-18 11h46.17.431216 +0100,
tilted.xlsx,The target is tilted.,117,5,5,0,1,1,1,1,0,0,0,0,0,0,0,0,0,3,4,117,space,15.262512999999672,None,0,0,1.1627949999997327,None,space,3.368857100000241,None,0,1,1,0,,,,,0,5,5,2,387.1020622000001,,,,,,,,,,,,,,,,,,,,,387.0868952000001,387.1020622000001,387.5858953000002,387.59074340000006,387.6013439000003,388.76905080000006,,,,,388.76924350000036,388.78484389999994,388.98475290000033,388.96874049999997,387.6013439000003,,,,,,,,0,0,1.1627949999997327,None,,,,,,,,843,24,V,R,2026-02-18_11h46.17.206,VisualSearch_2526_3,,2025.2.4,2026-02-18 11h46.17.431216 +0100,
tilted.xlsx,The target is tilted.,117,6,6,0,0,1,1,1,1,1,1,1,1,1,1,1,1,11,12,117,space,15.262512999999672,None,0,1,5.637415299999702,None,space,3.368857100000241,None,0,1,1,0,,,,,0,6,6,4,388.98475290000033,,,,,,,,,,,,,,,,,,,,,388.96955330000037,388.98475290000033,389.4682592000004,389.4735621,389.48764580000034,395.13401850000037,,,,,395.1342374000001,395.1493802,395.34939299999996,395.3332654000001,389.48764580000034,,,,,,,,0,1,5.637415299999702,None,,,,,,,,843,24,V,R,2026-02-18_11h46.17.206,VisualSearch_2526_3,,2025.2.4,2026-02-18 11h46.17.431216 +0100,
tilted.xlsx,The target is tilted.,117,7,7,0,0,1,1,1,1,1,1,1,0,0,0,0,1,7,8,117,space,15.262512999999672,None,0,1,2.7085320999999567,None,space,3.368857100000241,None,0,1,1,0,,,,,0,7,7,5,395.34939299999996,,,,,,,,,,,,,,,,,,,,,395.3340720000001,395.34939299999996,395.8330930000002,395.8381499000002,395.84901530000025,398.5661877000002,,,,,398.56644540000025,398.58147610000015,398.7814238000001,398.76520819999996,395.84901530000025,,,,,,,,0,1,2.7085320999999567,None,,,,,,,,843,24,V,R,2026-02-18_11h46.17.206,VisualSearch_2526_3,,2025.2.4,2026-02-18 11h46.17.431216 +0100,
tilted.xlsx,The target is tilted.,117,8,0,1,1,1,1,1,1,1,1,1,0,0,0,0,0,7,8,117,space,15.262512999999672,None,1,1,1.7054164999999557,None,space,3.368857100000241,None,0,1,1,0,,,,,1,0,8,1,398.7814238000001,,,,,,,,,,,,,,,,,,,,,398.76605020000034,398.7814238000001,399.2654402000003,399.2707929000003,399.28646300000037,400.9985727000003,,,,,400.9987172000001,401.0139839000003,401.21403150000015,401.19756910000024,399.28646300000037,,,,,,,,1,1,1.7054164999999557,None,,,,,,,,843,24,V,R,2026-02-18_11h46.17.206,VisualSearch_2526_3,,2025.2.4,2026-02-18 11h46.17.431216 +0100,
tilted.xlsx,The target is tilted.,117,9,1,1,1,1,1,1,0,0,0,0,0,0,0,0,0,3,4,117,space,15.262512999999672,None,1,1,1.3325015000000349,None,space,3.368857100000241,None,0,1,1,0,,,,,1,1,9,2,401.21403150000015,,,,,,,,,,,,,,,,,,,,,401.1984106,401.21403150000015,401.69794930000035,401.70293310000034,401.7137613,403.04809290000003,,,,,403.04832639999995,403.06342680000034,403.26309760000004,403.24685190000037,401.7137613,,,,,,,,1,1,1.3325015000000349,None,,,,,,,,843,24,V,R,2026-02-18_11h46.17.206,VisualSearch_2526_3,,2025.2.4,2026-02-18 11h46.17.431216 +0100,
tilted.xlsx,The target is tilted.,117,10,2,1,0,0,0,0,0,0,0,0,0,0,0,0,1,1,1,117,space,15.262512999999672,None,0,1,0.6676844999997229,None,space,3.368857100000241,None,0,1,1,0,,,,,1,2,10,7,403.26309760000004,,,,,,,,,,,,,,,,,,,,,403.2476683,403.26309760000004,403.74724430000015,403.75218900000027,403.7630105000003,404.4476711000002,,,,,404.4478845000003,404.4628706000003,404.66300130000036,404.64696589999994,403.7630105000003,,,,,,,,0,1,0.6676844999997229,None,,,,,,,,843,24,V,R,2026-02-18_11h46.17.206,VisualSearch_2526_3,,2025.2.4,2026-02-18 11h46.17.431216 +0100,
tilted.xlsx,The target is tilted.,117,11,3,1,1,0,0,0,0,0,0,0,0,0,0,0,0,0,1,117,space,15.262512999999672,None,1,1,0.606996099999833,None,space,3.368857100000241,None,0,1,1,0,,,,,1,3,11,3,404.66300130000036,,,,,,,,,,,,,,,,,,,,,404.6477986,404.66300130000036,405.1466561000002,405.1519760000001,405.16613099999995,405.7801717000002,,,,,405.78034860000025,405.79589320000014,405.99592269999994,405.9796905000003,405.16613099999995,,,,,,,,1,1,0.606996099999833,None,,,,,,,,843,24,V,R,2026-02-18_11h46.17.206,VisualSearch_2526_3,,2025.2.4,2026-02-18 11h46.17.431216 +0100,
tilted.xlsx,The target is tilted.,117,12,4,1,1,1,1,1,1,1,1,1,1,1,1,1,0,11,12,117,space,15.262512999999672,None,1,1,0.8167095000003428,None,space,3.368857100000241,None,0,1,1,0,,,,,1,4,12,0,405.99592269999994,,,,,,,,,,,,,,,,,,,,,405.98055650000015,405.99592269999994,406.4795387000004,406.48480830000017,406.50061830000004,407.3299562000002,,,,,407.33019200000035,407.34480299999996,407.54536499999995,407.52925170000026,406.50061830000004,,,,,,,,1,1,0.8167095000003428,None,,,,,,,,843,24,V,R,2026-02-18_11h46.17.206,VisualSearch_2526_3,,2025.2.4,2026-02-18 11h46.17.431216 +0100,
tilted.xlsx,The target is tilted.,117,13,5,1,0,1,1,1,0,0,0,0,0,0,0,0,1,3,4,117,space,15.262512999999672,None,0,1,1.4605876999999055,None,space,3.368857100000241,None,0,1,1,0,,,,,1,5,13,6,407.54536499999995,,,,,,,,,,,,,,,,,,,,,407.53016620000017,407.54536499999995,408.02852010000015,408.03075830000034,408.0450009000001,409.5127241,,,,,409.5129458000001,409.52809160000015,409.72785520000025,409.7116718000002,408.0450009000001,,,,,,,,0,1,1.4605876999999055,None,,,,,,,,843,24,V,R,2026-02-18_11h46.17.206,VisualSearch_2526_3,,2025.2.4,2026-02-18 11h46.17.431216 +0100,
tilted.xlsx,The target is tilted.,117,14,6,1,0,1,1,1,1,1,1,1,0,0,0,0,1,7,8,117,space,15.262512999999672,None,0,1,4.432695400000284,None,space,3.368857100000241,None,0,1,1,0,,,,,1,6,14,5,409.72785520000025,,,,,,,,,,,,,,,,,,,,,409.7124987000002,409.72785520000025,410.21139519999997,410.2167393,410.23298620000014,414.6769846000002,,,,,414.6771354000002,414.6928173000001,414.89303470000004,414.8769162000003,410.23298620000014,,,,,,,,0,1,4.432695400000284,None,,,,,,,,843,24,V,R,2026-02-18_11h46.17.206,VisualSearch_2526_3,,2025.2.4,2026-02-18 11h46.17.431216 +0100,
tilted.xlsx,The target is tilted.,117,15,7,1,0,1,1,1,1,1,1,1,1,1,1,1,1,11,12,117,space,15.262512999999672,None,1,0,5.21501840000019,None,space,3.368857100000241,None,0,1,1,0,,,,,1,7,15,4,414.89303470000004,,,,,,,,,,,,,,,,,,,,,414.8777693000002,414.89303470000004,415.3767315,415.3820399000001,415.39763949999997,420.62451320000037,,,,,420.6246420000002,420.64070630000015,420.8409479000002,420.8249816000002,415.39763949999997,,,,,,,,1,0,5.21501840000019,None,,,,,,,,843,24,V,R,2026-02-18_11h46.17.206,VisualSearch_2526_3,,2025.2.4,2026-02-18 11h46.17.431216 +0100,
tilted.xlsx,The target is tilted.,117,16,0,2,0,1,1,1,1,1,1,1,1,1,1,1,1,11,12,117,space,15.262512999999672,None,0,1,3.686764999999923,None,space,3.368857100000241,None,0,1,1,0,,,,,2,0,16,4,420.8409479000002,,,,,,,,,,,,,,,,,,,,,420.8259487,420.8409479000002,421.32451690000016,421.32999870000003,421.3442768,425.04033800000025,,,,,425.04049520000035,425.0558527000003,425.25628480000023,425.2402714,421.3442768,,,,,,,,0,1,3.686764999999923,None,,,,,,,,843,24,V,R,2026-02-18_11h46.17.206,VisualSearch_2526_3,,2025.2.4,2026-02-18 11h46.17.431216 +0100,
tilted.xlsx,The target is tilted.,117,17,1,2,1,0,0,0,0,0,0,0,0,0,0,0,0,0,1,117,space,15.262512999999672,None,1,1,0.5626157000001513,None,space,3.368857100000241,None,0,1,1,0,,,,,2,1,17,3,425.25628480000023,,,,,,,,,,,,,,,,,,,,,425.24107159999994,425.25628480000023,425.73978320000015,425.74472319999995,425.75581450000027,426.3223906000003,,,,,426.3225173000001,426.33839149999994,,426.5227947000003,425.75581450000027,,,,,,,,1,1,0.5626157000001513,None,,,,,,,,843,24,V,R,2026-02-18_11h46.17.206,VisualSearch_2526_3,,2025.2.4,2026-02-18 11h46.17.431216 +0100,
tilted.xlsx,The target is tilted.,117,18,2,2,0,1,1,1,1,1,1,1,0,0,0,0,1,7,8,117,space,15.262512999999672,None,1,0,4.180036799999925,None,space,3.368857100000241,None,0,1,1,0,,,,,2,2,18,5,426.539182,,,,,,,,,,,,,,,,,,,,,426.5237511,426.539182,427.02284610000015,427.02811610000026,427.0424432,431.2389006000003,,,,,431.23912080000036,431.2541288000002,431.4542802000001,431.43753110000034,427.0424432,,,,,,,,1,0,4.180036799999925,None,,,,,,,,843,24,V,R,2026-02-18_11h46.17.206,VisualSearch_2526_3,,2025.2.4,2026-02-18 11h46.17.431216 +0100,
tilted.xlsx,The target is tilted.,117,19,3,2,0,1,1,1,0,0,0,0,0,0,0,0,1,3,4,117,space,15.262512999999672,None,0,1,1.9187804999996843,None,space,3.368857100000241,None,0,1,1,0,,,,,2,3,19,6,431.4542802000001,,,,,,,,,,,,,,,,,,,,,431.43840930000033,431.4542802000001,431.93800280000005,431.9432802000001,431.9575025000004,433.88780190000034,,,,,433.88799470000004,433.90326470000036,434.1033252000002,434.08688660000007,431.9575025000004,,,,,,,,0,1,1.9187804999996843,None,,,,,,,,843,24,V,R,2026-02-18_11h46.17.206,VisualSearch_2526_3,,2025.2.4,2026-02-18 11h46.17.431216 +0100,
tilted.xlsx,The target is tilted.,117,20,4,2,1,1,1,1,0,0,0,0,0,0,0,0,0,3,4,117,space,15.262512999999672,None,1,1,1.3497739000004003,None,space,3.368857100000241,None,0,1,1,0,,,,,2,4,20,2,434.1033252000002,,,,,,,,,,,,,,,,,,,,,434.08772880000015,434.1033252000002,434.5871924000003,434.59320160000016,434.6089162000003,435.9691904000001,,,,,435.9692817,435.98586539999997,,436.16963190000024,434.6089162000003,,,,,,,,1,1,1.3497739000004003,None,,,,,,,,843,24,V,R,2026-02-18_11h46.17.206,VisualSearch_2526_3,,2025.2.4,2026-02-18 11h46.17.431216 +0100,
tilted.xlsx,The target is tilted.,117,21,5,2,1,1,1,1,1,1,1,1,0,0,0,0,0,7,8,117,space,15.262512999999672,None,1,1,1.7701914999997825,None,space,3.368857100000241,None,0,1,1,0,,,,,2,5,21,1,436.1860425,,,,,,,,,,,,,,,,,,,,,436.1705145000001,436.1860425,436.66950190000034,436.6748553000002,436.69139399999995,438.4691987000001,,,,,438.46934360000023,438.4852413000003,438.68503009999995,438.66895820000036,,,,,,,,,1,1,1.7701914999997825,None,,,,,,,,843,24,V,R,2026-02-18_11h46.17.206,VisualSearch_2526_3,,2025.2.4,2026-02-18 11h46.17.431216 +0100,
tilted.xlsx,The target is tilted.,117,22,6,2,1,1,1,1,1,1,1,1,1,1,1,1,0,11,12,117,space,15.262512999999672,None,0,0,2.7113749999998618,None,space,3.368857100000241,None,0,1,1,0,,,,,2,6,22,0,438.68503009999995,,,,,,,,,,,,,,,,,,,,,438.6699205,438.68503009999995,439.16902660000005,439.1743128000003,439.1873902000002,441.90213900000026,,,,,441.90235570000004,441.91685380000035,442.11686880000025,442.1014505000003,439.1873902000002,,,,,,,,0,0,2.7113749999998618,None,,,,,,,,843,24,V,R,2026-02-18_11h46.17.206,VisualSearch_2526_3,,2025.2.4,2026-02-18 11h46.17.431216 +0100,
tilted.xlsx,The target is tilted.,117,23,7,2,0,0,0,0,0,0,0,0,0,0,0,0,1,1,1,117,space,15.262512999999672,None,0,1,0.5361136999999871,None,space,3.368857100000241,None,0,1,1,0,,,,,2,7,23,7,442.11686880000025,,,,,,,,,,,,,,,,,,,,,442.1022842000002,442.11686880000025,442.6011853,442.60657850000007,442.6225324000002,443.16828480000004,,,,,443.16853089999995,443.18365900000026,443.3836478000003,443.3676009999999,442.6225324000002,,,,,,,,0,1,0.5361136999999871,None,,,,,,,,843,24,V,R,2026-02-18_11h46.17.206,VisualSearch_2526_3,,2025.2.4,2026-02-18 11h46.17.431216 +0100,
tilted.xlsx,The target is tilted.,117,24,0,3,1,0,0,0,0,0,0,0,0,0,0,0,0,0,1,117,space,15.262512999999672,None,1,1,0.6432433999998466,None,space,3.368857100000241,None,0,1,1,0,,,,,3,0,24,3,443.3836478000003,,,,,,,,,,,,,,,,,,,,,443.3684392,443.3836478000003,443.86742219999996,443.8727613000001,443.88778500000035,444.53401920000033,,,,,444.5341636000003,444.5497054000002,444.74990030000026,444.73393110000006,443.88778500000035,,,,,,,,1,1,0.6432433999998466,None,,,,,,,,843,24,V,R,2026-02-18_11h46.17.206,VisualSearch_2526_3,,2025.2.4,2026-02-18 11h46.17.431216 +0100,
tilted.xlsx,The target is tilted.,117,25,1,3,0,1,1,1,0,0,0,0,0,0,0,0,1,3,4,117,space,15.262512999999672,None,0,1,1.376632100000279,None,space,3.368857100000241,None,0,1,1,0,,,,,3,1,25,6,444.74990030000026,,,,,,,,,,,,,,,,,,,,,444.7347546000001,444.74990030000026,445.2336296000003,445.23831210000026,445.2495223000001,446.63359519999995,,,,,446.6337846000001,446.6488830000003,446.8492304000001,446.83313150000004,445.2495223000001,,,,,,,,0,1,1.376632100000279,None,,,,,,,,843,24,V,R,2026-02-18_11h46.17.206,VisualSearch_2526_3,,2025.2.4,2026-02-18 11h46.17.431216 +0100,
tilted.xlsx,The target is tilted.,117,26,2,3,1,1,1,1,0,0,0,0,0,0,0,0,0,3,4,117,space,15.262512999999672,None,1,1,0.8312755000001744,None,space,3.368857100000241,None,0,1,1,0,,,,,3,2,26,2,446.8492304000001,,,,,,,,,,,,,,,,,,,,,446.83394739999994,446.8492304000001,447.33286,447.3382378000001,447.35350570000037,448.2000414000004,,,,,448.2002586000003,448.2152189000003,448.41532110000026,448.39930900000036,447.35350570000037,,,,,,,,1,1,0.8312755000001744,None,,,,,,,,843,24,V,R,2026-02-18_11h46.17.206,VisualSearch_2526_3,,2025.2.4,2026-02-18 11h46.17.431216 +0100,
tilted.xlsx,The target is tilted.,117,27,3,3,0,1,1,1,1,1,1,1,1,1,1,1,1,11,12,117,space,15.262512999999672,None,0,1,3.403423500000372,None,space,3.368857100000241,None,0,1,1,0,,,,,3,3,27,4,448.41532110000026,,,,,,,,,,,,,,,,,,,,,448.40012860000024,448.41532110000026,448.8992123000003,448.90454100000034,448.9200503000002,452.3313105000002,,,,,452.3314441000002,452.3471652000003,452.5473830000001,452.5313871000003,448.9200503000002,,,,,,,,0,1,3.403423500000372,None,,,,,,,,843,24,V,R,2026-02-18_11h46.17.206,VisualSearch_2526_3,,2025.2.4,2026-02-18 11h46.17.431216 +0100,
tilted.xlsx,The target is tilted.,117,28,4,3,0,0,0,0,0,0,0,0,0,0,0,0,1,1,1,117,space,15.262512999999672,None,0,1,0.5202807999999095,None,space,3.368857100000241,None,0,1,1,0,,,,,3,4,28,7,452.5473830000001,,,,,,,,,,,,,,,,,,,,,452.5322268,452.5473830000001,453.0305023000001,453.0339121000002,453.0483475000001,453.5815480000001,,,,,453.58172790000026,453.59691810000004,453.796973,453.78090599999996,453.0483475000001,,,,,,,,0,1,0.5202807999999095,None,,,,,,,,843,24,V,R,2026-02-18_11h46.17.206,VisualSearch_2526_3,,2025.2.4,2026-02-18 11h46.17.431216 +0100,
tilted.xlsx,The target is tilted.,117,29,5,3,0,1,1,1,1,1,1,1,0,0,0,0,1,7,8,117,space,15.262512999999672,None,0,1,2.209038800000144,None,space,3.368857100000241,None,0,1,1,0,,,,,3,5,29,5,453.796973,,,,,,,,,,,,,,,,,,,,,453.7817021000001,453.796973,454.28067770000007,454.2862650000002,454.3022195000003,456.5135405000001,,,,,456.5137173000003,456.52934900000037,456.72912670000005,456.71283200000016,454.3022195000003,,,,,,,,0,1,2.209038800000144,None,,,,,,,,843,24,V,R,2026-02-18_11h46.17.206,VisualSearch_2526_3,,2025.2.4,2026-02-18 11h46.17.431216 +0100,
tilted.xlsx,The target is tilted.,117,30,6,3,1,1,1,1,1,1,1,1,0,0,0,0,0,7,8,117,space,15.262512999999672,None,1,1,1.3331271000001834,None,space,3.368857100000241,None,0,1,1,0,,,,,3,6,30,1,456.72912670000005,,,,,,,,,,,,,,,,,,,,,456.71367640000017,456.72912670000005,457.21312020000005,457.21842530000004,457.2325129999999,458.5790314000001,,,,,458.5791929000002,458.5950560000001,458.7953160000002,458.77919550000024,457.2325129999999,,,,,,,,1,1,1.3331271000001834,None,,,,,,,,843,24,V,R,2026-02-18_11h46.17.206,VisualSearch_2526_3,,2025.2.4,2026-02-18 11h46.17.431216 +0100,
tilted.xlsx,The target is tilted.,117,31,7,3,1,1,1,1,1,1,1,1,1,1,1,1,0,11,12,117,space,15.262512999999672,None,1,1,0.8619304999997439,None,space,3.368857100000241,None,0,1,1,0,,,,,3,7,31,0,458.7953160000002,,,,,,,,,,,,,,,,,,,,,458.7800419,458.7953160000002,459.2787599000003,459.2841231000002,459.30093639999996,460.1791449000002,,,,,460.1793805000002,460.19445480000013,460.3947852000001,460.37872100000004,459.30093639999996,,,,,,,,1,1,0.8619304999997439,None,,,,,,,,843,24,V,R,2026-02-18_11h46.17.206,VisualSearch_2526_3,,2025.2.4,2026-02-18 11h46.17.431216 +0100,
tilted.xlsx,The target is tilted.,117,32,0,4,1,0,0,0,0,0,0,0,0,0,0,0,0,0,1,117,space,15.262512999999672,None,1,1,1.0144531999999344,None,space,3.368857100000241,None,0,1,1,0,,,,,4,0,32,3,460.3947852000001,,,,,,,,,,,,,,,,,,,,,460.3795381,460.3947852000001,460.8784719,460.8838112000003,460.8979012,461.9278755,,,,,461.92802329999995,461.9437247999999,462.14416310000024,462.1281236,460.8979012,,,,,,,,1,1,1.0144531999999344,None,,,,,,,,843,24,V,R,2026-02-18_11h46.17.206,VisualSearch_2526_3,,2025.2.4,2026-02-18 11h46.17.431216 +0100,
tilted.xlsx,The target is tilted.,117,33,1,4,0,0,0,0,0,0,0,0,0,0,0,0,1,1,1,117,space,15.262512999999672,None,0,1,0.5980654999998478,None,space,3.368857100000241,None,0,1,1,0,,,,,4,1,33,7,462.14416310000024,,,,,,,,,,,,,,,,,,,,,462.12906280000016,462.14416310000024,462.6279418000004,462.6332612000001,462.6473304000001,463.26073570000017,,,,,463.26087840000037,463.27701700000034,463.47711070000014,463.4606957000001,462.6473304000001,,,,,,,,0,1,0.5980654999998478,None,,,,,,,,843,24,V,R,2026-02-18_11h46.17.206,VisualSearch_2526_3,,2025.2.4,2026-02-18 11h46.17.431216 +0100,
tilted.xlsx,The target is tilted.,117,34,2,4,1,1,1,1,1,1,1,1,1,1,1,1,0,11,12,117,space,15.262512999999672,None,1,1,1.384247399999822,None,space,3.368857100000241,None,0,1,1,0,,,,,4,2,34,0,463.47711070000014,,,,,,,,,,,,,,,,,,,,,463.46152310000025,463.47711070000014,463.9609184000001,463.96573119999994,463.976721,465.3764605000001,,,,,465.3765649000002,465.3927427000003,,465.5767149000003,463.976721,,,,,,,,1,1,1.384247399999822,None,,,,,,,,843,24,V,R,2026-02-18_11h46.17.206,VisualSearch_2526_3,,2025.2.4,2026-02-18 11h46.17.431216 +0100,
