file_name,block_instructions,target_example,thisN,thisTrialN,thisRepN,target_presence,opacity_1,opacity_2,opacity_3,opacity_4,opacity_5,opacity_6,opacity_7,opacity_8,opacity_9,opacity_10,opacity_11,opacity_12,n_distract,n_items,target_ori,key_resp_4.keys,key_resp_4.rt,key_resp_4.duration,key_resp.keys,key_resp.corr,key_resp.rt,key_resp.duration,key_resp_5.keys,key_resp_5.rt,key_resp_5.duration,blocks.thisRepN,blocks.thisTrialN,blocks.thisN,blocks.thisIndex,practice_trials.thisRepN,practice_trials.thisTrialN,practice_trials.thisN,practice_trials.thisIndex,trials.thisRepN,trials.thisTrialN,trials.thisN,trials.thisIndex,thisRow.t,notes,Welcome.started,WelcomeText.started,key_resp_2.started,Welcome.stopped,key_resp_2.keys,key_resp_2.rt,key_resp_2.duration,InformedConsent.started,text_4.started,InformedConsent.stopped,key_resp_6.keys,key_resp_6.rt,key_resp_6.duration,key_resp_4.started,example_target.started,text_3.started,blocks.key_resp_4.keys,blocks.key_resp_4.rt,blocks.key_resp_4.duration,FixCross.started,fixCross.started,FixCross.stopped,Stimulus.started,key_resp.started,Stimulus.stopped,practice_trials.key_resp.keys,practice_trials.key_resp.corr,practice_trials.key_resp.rt,practice_trials.key_resp.duration,BlankScreen.started,text.started,text.stopped,BlankScreen.stopped,fixCross.stopped,ExperimentStart.started,text_2.started,key_resp_5.started,ExperimentStart.stopped,blocks.key_resp_5.keys,blocks.key_resp_5.rt,blocks.key_resp_5.duration,trials.key_resp.keys,trials.key_resp.corr,trials.key_resp.rt,trials.key_resp.duration,Thanks.started,ThankYou.started,key_resp_3.started,Thanks.stopped,key_resp_3.keys,key_resp_3.rt,key_resp_3.duration,participant,leeftijd,gender,links/rechtshandig,date,expName,expVersion,psychopyVersion,expStart,
,,,,,,,,,,,,,,,,,,,,,,,,,,,,,,,,,,,,,,,,,,,,,,0.017371800000091753,0.04756580000002941,0.04756580000002941,62.296853700000156,space,62.245804600000156,None,,,,,,,,,,,,,,,,,,,,,,,,,,,,,,,,,,,,,,,,,,,,,,844,21,M,R,2026-02-18_11h58.48.089,VisualSearch_2526_3,,2025.2.4,2026-02-18 11h58.48.315903 +0100,
,,,,,,,,,,,,,,,,,,,,,,,,,,,,,,,,,,,,,,,,,,,,,,,,,,,,,62.297032800000125,62.31242340000017,68.29467760000034,y,5.989830699999857,None,,,,,,,,,,,,,,,,,,,,,,,,,,,,,,,,,,,,,,,,844,21,M,R,2026-02-18_11h58.48.089,VisualSearch_2526_3,,2025.2.4,2026-02-18 11h58.48.315903 +0100,
tilted.xlsx,The target is tilted.,117,0,0,0,1,0,0,0,0,0,0,0,0,0,0,0,0,0,1,117,space,4.8072698999999375,None,1,1,0.9651423999998769,None,,,,0,0,0,0,0,0,0,3,,,,,73.16915310000013,,,,,,,,,,,,,,,68.33129080000026,68.33129080000026,68.33129080000026,space,4.8072698999999375,None,73.16405179999992,73.16915310000013,73.65840079999998,73.66340330000003,73.67459110000027,74.6417792000002,1,1,0.9651423999998769,None,74.64197280000008,74.65751230000023,74.85759880000023,74.84151390000034,,,,,,,,,,,,,,,,,,,,844,21,M,R,2026-02-18_11h58.48.089,VisualSearch_2526_3,,2025.2.4,2026-02-18 11h58.48.315903 +0100,
tilted.xlsx,The target is tilted.,117,1,1,0,1,1,1,1,0,0,0,0,0,0,0,0,0,3,4,117,space,4.8072698999999375,None,1,1,0.8921494999999595,None,,,,0,0,0,0,0,1,1,2,,,,,74.85759880000023,,,,,,,,,,,,,,,,,,,,,74.84226350000017,74.85759880000023,75.3414557000001,75.34692480000012,75.36043700000027,76.25806409999996,1,1,0.8921494999999595,None,76.25823990000026,76.27380230000017,76.47381429999996,76.45743720000019,75.36043700000027,,,,,,,,,,,,,,,,,,,844,21,M,R,2026-02-18_11h58.48.089,VisualSearch_2526_3,,2025.2.4,2026-02-18 11h58.48.315903 +0100,
tilted.xlsx,The target is tilted.,117,2,2,0,1,1,1,1,1,1,1,1,0,0,0,0,0,7,8,117,space,4.8072698999999375,None,1,1,1.7874562000001788,None,,,,0,0,0,0,0,2,2,1,,,,,76.47381429999996,,,,,,,,,,,,,,,,,,,,,76.4582006999999,76.47381429999996,76.9572731000003,76.96267750000015,76.9782779000002,78.77338129999998,1,1,1.7874562000001788,None,78.7734644000002,78.78891449999992,78.98966310000014,78.97319510000034,76.9782779000002,,,,,,,,,,,,,,,,,,,844,21,M,R,2026-02-18_11h58.48.089,VisualSearch_2526_3,,2025.2.4,2026-02-18 11h58.48.315903 +0100,
tilted.xlsx,The target is tilted.,117,3,3,0,0,0,0,0,0,0,0,0,0,0,0,0,1,1,1,117,space,4.8072698999999375,None,1,0,1.4029074000000037,None,,,,0,0,0,0,0,3,3,7,,,,,78.98966310000014,,,,,,,,,,,,,,,,,,,,,78.97396180000032,78.98966310000014,79.4735470999999,79.47897809999995,79.49403500000017,80.90689670000029,1,0,1.4029074000000037,None,80.90714810000009,80.92191189999994,81.12237480000022,81.1062866000002,79.49403500000017,,,,,,,,,,,,,,,,,,,844,21,M,R,2026-02-18_11h58.48.089,VisualSearch_2526_3,,2025.2.4,2026-02-18 11h58.48.315903 +0100,
tilted.xlsx,The target is tilted.,117,4,4,0,0,1,1,1,1,1,1,1,1,1,1,1,1,11,12,117,space,4.8072698999999375,None,1,0,1.6094024000003628,None,,,,0,0,0,0,0,4,4,4,,,,,81.12237480000022,,,,,,,,,,,,,,,,,,,,,81.10700580000002,81.12237480000022,81.60596680000026,81.61135080000031,81.62681310000016,83.23965500000031,1,0,1.6094024000003628,None,83.2398731000003,83.25446529999999,83.45469660000026,83.43876589999991,81.62681310000016,,,,,,,,,,,,,,,,,,,844,21,M,R,2026-02-18_11h58.48.089,VisualSearch_2526_3,,2025.2.4,2026-02-18 11h58.48.315903 +0100,
tilted.xlsx,The target is tilted.,117,5,5,0,0,1,1,1,0,0,0,0,0,0,0,0,1,3,4,117,space,4.8072698999999375,None,1,0,1.71086060000016,None,,,,0,0,0,0,0,5,5,6,,,,,83.45469660000026,,,,,,,,,,,,,,,,,,,,,83.43949190000012,83.45469660000026,83.93869650000033,83.94406010000012,83.95903309999994,85.67142490000015,1,0,1.71086060000016,None,85.67156680000016,85.68671549999999,85.8873609000002,85.8714229000002,83.95903309999994,,,,,,,,,,,,,,,,,,,844,21,M,R,2026-02-18_11h58.48.089,VisualSearch_2526_3,,2025.2.4,2026-02-18 11h58.48.315903 +0100,
tilted.xlsx,The target is tilted.,117,6,6,0,1,1,1,1,1,1,1,1,1,1,1,1,0,11,12,117,space,4.8072698999999375,None,1,1,1.5692487999999685,None,,,,0,0,0,0,0,6,6,0,,,,,85.8873609000002,,,,,,,,,,,,,,,,,,,,,85.8721413000003,85.8873609000002,86.37121990000014,86.37669860000005,86.38977730000033,87.97090220000018,1,1,1.5692487999999685,None,87.97109219999993,87.98625360000005,88.18663719999995,88.17061490000015,86.38977730000033,,,,,,,,,,,,,,,,,,,844,21,M,R,2026-02-18_11h58.48.089,VisualSearch_2526_3,,2025.2.4,2026-02-18 11h58.48.315903 +0100,
tilted.xlsx,The target is tilted.,117,7,7,0,0,1,1,1,1,1,1,1,0,0,0,0,1,7,8,117,space,4.8072698999999375,None,1,0,1.4147289000002274,None,,,,0,0,0,0,0,7,7,5,,,,,88.18663719999995,,,,,,,,,,,,,,,,,,,,,88.17139249999991,88.18663719999995,88.67047649999995,88.67589799999996,88.69248530000004,90.12052799999992,1,0,1.4147289000002274,None,90.12084330000016,90.13553830000001,90.33533790000001,90.31993779999993,88.69248530000004,,,,,,,,,,,,,,,,,,,844,21,M,R,2026-02-18_11h58.48.089,VisualSearch_2526_3,,2025.2.4,2026-02-18 11h58.48.315903 +0100,
tilted.xlsx,The target is tilted.,117,0,0,0,0,0,0,0,0,0,0,0,0,0,0,0,1,1,1,117,space,4.8072698999999375,None,1,0,0.5343777000002774,None,space,3.1409740999997666,None,0,0,0,0,,,,,0,0,0,7,93.51296700000012,,,,,,,,,,,,,,,,,,,,,93.50909060000004,93.51296700000012,94.00175979999995,94.00644749999992,94.01790090000031,94.56802569999991,,,,,94.56816580000032,94.58399290000034,94.78457879999996,94.76840919999995,,90.32822030000034,90.33533790000001,90.33533790000001,93.48556670000016,space,3.1409740999997666,None,1,0,0.5343777000002774,None,,,,,,,,844,21,M,R,2026-02-18_11h58.48.089,VisualSearch_2526_3,,2025.2.4,2026-02-18 11h58.48.315903 +0100,
tilted.xlsx,The target is tilted.,117,1,1,0,0,1,1,1,0,0,0,0,0,0,0,0,1,3,4,117,space,4.8072698999999375,None,0,1,1.3109166999997797,None,space,3.1409740999997666,None,0,0,0,0,,,,,0,1,1,6,94.78457879999996,,,,,,,,,,,,,,,,,,,,,94.76932420000003,94.78457879999996,95.2680891,95.27347710000004,95.28778920000013,96.60084189999998,,,,,96.60099059999993,96.61663610000005,96.81681400000025,96.80111840000018,95.28778920000013,,,,,,,,0,1,1.3109166999997797,None,,,,,,,,844,21,M,R,2026-02-18_11h58.48.089,VisualSearch_2526_3,,2025.2.4,2026-02-18 11h58.48.315903 +0100,
tilted.xlsx,The target is tilted.,117,2,2,0,0,1,1,1,1,1,1,1,0,0,0,0,1,7,8,117,space,4.8072698999999375,None,1,0,1.282065700000203,None,space,3.1409740999997666,None,0,0,0,0,,,,,0,2,2,5,96.81681400000025,,,,,,,,,,,,,,,,,,,,,96.80204260000028,96.81681400000025,97.30099130000008,97.30607520000012,97.31689480000023,98.60108100000025,,,,,98.60134760000028,98.61608700000033,98.81657799999994,98.80051230000026,97.31689480000023,,,,,,,,1,0,1.282065700000203,None,,,,,,,,844,21,M,R,2026-02-18_11h58.48.089,VisualSearch_2526_3,,2025.2.4,2026-02-18 11h58.48.315903 +0100,
tilted.xlsx,The target is tilted.,117,3,3,0,1,0,0,0,0,0,0,0,0,0,0,0,0,0,1,117,space,4.8072698999999375,None,0,0,0.9018781999998282,None,space,3.1409740999997666,None,0,0,0,0,,,,,0,3,3,3,98.81657799999994,,,,,,,,,,,,,,,,,,,,,98.8013590999999,98.81657799999994,99.30025210000031,99.30524190000006,99.31615319999992,100.2332306000003,,,,,100.23342679999996,100.24876820000009,100.44931350000024,100.43307400000003,99.31615319999992,,,,,,,,0,0,0.9018781999998282,None,,,,,,,,844,21,M,R,2026-02-18_11h58.48.089,VisualSearch_2526_3,,2025.2.4,2026-02-18 11h58.48.315903 +0100,
tilted.xlsx,The target is tilted.,117,4,4,0,1,1,1,1,1,1,1,1,1,1,1,1,0,11,12,117,space,4.8072698999999375,None,1,1,2.268407500000194,None,space,3.1409740999997666,None,0,0,0,0,,,,,0,4,4,0,100.44931350000024,,,,,,,,,,,,,,,,,,,,,100.4340044999999,100.44931350000024,100.93276370000012,100.93822210000008,100.95413570000028,103.23274850000007,,,,,103.23294870000018,103.24790070000017,103.44809710000027,103.43225840000014,100.95413570000028,,,,,,,,1,1,2.268407500000194,None,,,,,,,,844,21,M,R,2026-02-18_11h58.48.089,VisualSearch_2526_3,,2025.2.4,2026-02-18 11h58.48.315903 +0100,
tilted.xlsx,The target is tilted.,117,5,5,0,0,1,1,1,1,1,1,1,1,1,1,1,1,11,12,117,space,4.8072698999999375,None,1,0,1.3363926000001811,None,space,3.1409740999997666,None,0,0,0,0,,,,,0,5,5,4,103.44809710000027,,,,,,,,,,,,,,,,,,,,,103.43312210000022,103.44809710000027,103.93215660000033,103.93755020000026,103.95079740000028,105.29852980000032,,,,,105.29875380000021,105.31380160000026,105.51427150000018,105.49814259999994,103.95079740000028,,,,,,,,1,0,1.3363926000001811,None,,,,,,,,844,21,M,R,2026-02-18_11h58.48.089,VisualSearch_2526_3,,2025.2.4,2026-02-18 11h58.48.315903 +0100,
tilted.xlsx,The target is tilted.,117,6,6,0,1,1,1,1,1,1,1,1,0,0,0,0,0,7,8,117,space,4.8072698999999375,None,1,1,2.134337399999822,None,space,3.1409740999997666,None,0,0,0,0,,,,,0,6,6,1,105.51427150000018,,,,,,,,,,,,,,,,,,,,,105.49903180000001,105.51427150000018,105.99778210000022,106.0032283999999,106.01732630000015,108.1641525,,,,,108.16440680000005,108.17967320000025,108.38000060000013,108.36396830000012,106.01732630000015,,,,,,,,1,1,2.134337399999822,None,,,,,,,,844,21,M,R,2026-02-18_11h58.48.089,VisualSearch_2526_3,,2025.2.4,2026-02-18 11h58.48.315903 +0100,
tilted.xlsx,The target is tilted.,117,7,7,0,1,1,1,1,0,0,0,0,0,0,0,0,0,3,4,117,space,4.8072698999999375,None,0,0,1.421520899999905,None,space,3.1409740999997666,None,0,0,0,0,,,,,0,7,7,2,108.38000060000013,,,,,,,,,,,,,,,,,,,,,108.3648105000002,108.38000060000013,108.86372010000014,108.86921580000035,108.88426759999993,110.3133656,,,,,110.3135158,110.32869400000027,110.5293885000001,110.51313000000027,108.88426759999993,,,,,,,,0,0,1.421520899999905,None,,,,,,,,844,21,M,R,2026-02-18_11h58.48.089,VisualSearch_2526_3,,2025.2.4,2026-02-18 11h58.48.315903 +0100,
tilted.xlsx,The target is tilted.,117,8,0,1,1,0,0,0,0,0,0,0,0,0,0,0,0,0,1,117,space,4.8072698999999375,None,0,0,0.6884308999997302,None,space,3.1409740999997666,None,0,0,0,0,,,,,1,0,8,3,110.5293885000001,,,,,,,,,,,,,,,,,,,,,110.51407440000003,110.5293885000001,111.0131008000003,111.10653140000022,111.11707479999995,111.81344910000007,,,,,111.81371440000021,111.82848319999994,112.02887180000016,112.01244840000027,111.11707479999995,,,,,,,,0,0,0.6884308999997302,None,,,,,,,,844,21,M,R,2026-02-18_11h58.48.089,VisualSearch_2526_3,,2025.2.4,2026-02-18 11h58.48.315903 +0100,
tilted.xlsx,The target is tilted.,117,9,1,1,1,1,1,1,0,0,0,0,0,0,0,0,0,3,4,117,space,4.8072698999999375,None,0,0,1.871482399999877,None,space,3.1409740999997666,None,0,0,0,0,,,,,1,1,9,2,112.02887180000016,,,,,,,,,,,,,,,,,,,,,112.0132950000002,112.02887180000016,112.5126809000003,112.5180476999999,112.53337839999995,114.41181469999992,,,,,114.41194810000025,114.42733780000026,114.62790270000005,114.61161840000022,112.53337839999995,,,,,,,,0,0,1.871482399999877,None,,,,,,,,844,21,M,R,2026-02-18_11h58.48.089,VisualSearch_2526_3,,2025.2.4,2026-02-18 11h58.48.315903 +0100,
tilted.xlsx,The target is tilted.,117,10,2,1,0,0,0,0,0,0,0,0,0,0,0,0,1,1,1,117,space,4.8072698999999375,None,1,0,0.9586758999998892,None,space,3.1409740999997666,None,0,0,0,0,,,,,1,2,10,7,114.62790270000005,,,,,,,,,,,,,,,,,,,,,114.61245820000022,114.62790270000005,115.11182140000028,115.11678900000015,115.12757740000006,116.09549460000017,,,,,116.09571820000019,116.11038559999997,116.31074800000033,116.29469240000026,115.12757740000006,,,,,,,,1,0,0.9586758999998892,None,,,,,,,,844,21,M,R,2026-02-18_11h58.48.089,VisualSearch_2526_3,,2025.2.4,2026-02-18 11h58.48.315903 +0100,
tilted.xlsx,The target is tilted.,117,11,3,1,1,1,1,1,1,1,1,1,0,0,0,0,0,7,8,117,space,4.8072698999999375,None,1,1,1.2239399000000049,None,space,3.1409740999997666,None,0,0,0,0,,,,,1,3,11,1,116.31074800000033,,,,,,,,,,,,,,,,,,,,,116.29551100000026,116.31074800000033,116.79421559999992,116.79959820000022,116.81420990000015,118.04479570000012,,,,,118.04504550000001,118.05974240000023,118.2601007000003,118.24409280000009,116.81420990000015,,,,,,,,1,1,1.2239399000000049,None,,,,,,,,844,21,M,R,2026-02-18_11h58.48.089,VisualSearch_2526_3,,2025.2.4,2026-02-18 11h58.48.315903 +0100,
tilted.xlsx,The target is tilted.,117,12,4,1,1,1,1,1,1,1,1,1,1,1,1,1,0,11,12,117,space,4.8072698999999375,None,1,1,3.020101500000237,None,space,3.1409740999997666,None,0,0,0,0,,,,,1,4,12,0,118.2601007000003,,,,,,,,,,,,,,,,,,,,,118.24491800000033,118.2601007000003,118.74391330000026,118.74930080000013,118.76624300000003,121.79341340000019,,,,,121.79366610000034,121.80851460000031,122.00855860000001,121.99268540000003,118.76624300000003,,,,,,,,1,1,3.020101500000237,None,,,,,,,,844,21,M,R,2026-02-18_11h58.48.089,VisualSearch_2526_3,,2025.2.4,2026-02-18 11h58.48.315903 +0100,
tilted.xlsx,The target is tilted.,117,13,5,1,0,1,1,1,1,1,1,1,1,1,1,1,1,11,12,117,space,4.8072698999999375,None,1,0,2.6422514000000774,None,space,3.1409740999997666,None,0,0,0,0,,,,,1,5,13,4,122.00855860000001,,,,,,,,,,,,,,,,,,,,,121.9935359000001,122.00855860000001,122.49265060000016,122.49805050000032,122.5122022999999,125.1588297000003,,,,,125.1590599000001,125.1740705000002,125.37456650000013,125.35842290000028,122.5122022999999,,,,,,,,1,0,2.6422514000000774,None,,,,,,,,844,21,M,R,2026-02-18_11h58.48.089,VisualSearch_2526_3,,2025.2.4,2026-02-18 11h58.48.315903 +0100,
tilted.xlsx,The target is tilted.,117,14,6,1,0,1,1,1,1,1,1,1,0,0,0,0,1,7,8,117,space,4.8072698999999375,None,1,0,2.1612617000000682,None,space,3.1409740999997666,None,0,0,0,0,,,,,1,6,14,5,125.37456650000013,,,,,,,,,,,,,,,,,,,,,125.35922800000026,125.37456650000013,125.85791990000007,125.86332880000009,125.87883920000013,128.0415524,,,,,128.04177800000025,128.05647709999994,128.25651210000024,128.24076670000022,125.87883920000013,,,,,,,,1,0,2.1612617000000682,None,,,,,,,,844,21,M,R,2026-02-18_11h58.48.089,VisualSearch_2526_3,,2025.2.4,2026-02-18 11h58.48.315903 +0100,
tilted.xlsx,The target is tilted.,117,15,7,1,0,1,1,1,0,0,0,0,0,0,0,0,1,3,4,117,space,4.8072698999999375,None,0,1,1.435407700000269,None,space,3.1409740999997666,None,0,0,0,0,,,,,1,7,15,6,128.25651210000024,,,,,,,,,,,,,,,,,,,,,128.24159370000007,128.25651210000024,128.7407521,128.74570399999993,128.7565397000003,130.20674850000023,,,,,130.2069477,130.22244120000005,130.42281000000003,130.40661150000005,128.7565397000003,,,,,,,,0,1,1.435407700000269,None,,,,,,,,844,21,M,R,2026-02-18_11h58.48.089,VisualSearch_2526_3,,2025.2.4,2026-02-18 11h58.48.315903 +0100,
tilted.xlsx,The target is tilted.,117,16,0,2,1,0,0,0,0,0,0,0,0,0,0,0,0,0,1,117,space,4.8072698999999375,None,0,0,0.5767679000000498,None,space,3.1409740999997666,None,0,0,0,0,,,,,2,0,16,3,130.42281000000003,,,,,,,,,,,,,,,,,,,,,130.40754930000003,130.42281000000003,130.906653,130.9120542999999,130.92769550000003,131.50706900000023,,,,,131.5073038999999,131.52200380000022,131.7221658000003,131.70643280000013,130.92769550000003,,,,,,,,0,0,0.5767679000000498,None,,,,,,,,844,21,M,R,2026-02-18_11h58.48.089,VisualSearch_2526_3,,2025.2.4,2026-02-18 11h58.48.315903 +0100,
tilted.xlsx,The target is tilted.,117,17,1,2,0,0,0,0,0,0,0,0,0,0,0,0,1,1,1,117,space,4.8072698999999375,None,1,0,0.6966161999998803,None,space,3.1409740999997666,None,0,0,0,0,,,,,2,1,17,7,131.7221658000003,,,,,,,,,,,,,,,,,,,,,131.70724180000025,131.7221658000003,132.2057709999999,132.21120530000007,132.22665600000028,132.93844609999996,,,,,132.93855669999994,132.95517640000025,133.1550999000001,133.13864150000018,132.22665600000028,,,,,,,,1,0,0.6966161999998803,None,,,,,,,,844,21,M,R,2026-02-18_11h58.48.089,VisualSearch_2526_3,,2025.2.4,2026-02-18 11h58.48.315903 +0100,
tilted.xlsx,The target is tilted.,117,18,2,2,1,1,1,1,1,1,1,1,0,0,0,0,0,7,8,117,space,4.8072698999999375,None,1,1,2.10241330000008,None,space,3.1409740999997666,None,0,0,0,0,,,,,2,2,18,1,133.1550999000001,,,,,,,,,,,,,,,,,,,,,133.13913200000025,133.1550999000001,133.63869849999992,133.64422060000015,133.65913920000003,135.7720532000003,,,,,135.7722560000002,135.78723010000022,135.98763740000004,135.9716254,,,,,,,,,1,1,2.10241330000008,None,,,,,,,,844,21,M,R,2026-02-18_11h58.48.089,VisualSearch_2526_3,,2025.2.4,2026-02-18 11h58.48.315903 +0100,
tilted.xlsx,The target is tilted.,117,19,3,2,0,1,1,1,1,1,1,1,1,1,1,1,1,11,12,117,space,4.8072698999999375,None,1,0,4.030957899999976,None,space,3.1409740999997666,None,0,0,0,0,,,,,2,3,19,4,135.98763740000004,,,,,,,,,,,,,,,,,,,,,135.97244460000002,135.98763740000004,136.47141580000016,136.47688760000028,136.4905675,140.53584260000025,,,,,140.53597620000028,140.55263030000015,,140.73642010000003,136.4905675,,,,,,,,1,0,4.030957899999976,None,,,,,,,,844,21,M,R,2026-02-18_11h58.48.089,VisualSearch_2526_3,,2025.2.4,2026-02-18 11h58.48.315903 +0100,
tilted.xlsx,The target is tilted.,117,20,4,2,0,1,1,1,1,1,1,1,0,0,0,0,1,7,8,117,space,4.8072698999999375,None,1,0,2.58460709999963,None,space,3.1409740999997666,None,0,0,0,0,,,,,2,4,20,5,140.75251389999994,,,,,,,,,,,,,,,,,,,,,140.73726140000008,140.75251389999994,141.23630860000003,141.2419130000003,141.25868200000014,143.85210640000014,,,,,143.8522057,143.86771720000024,144.0680784000001,144.05199560000028,,,,,,,,,1,0,2.58460709999963,None,,,,,,,,844,21,M,R,2026-02-18_11h58.48.089,VisualSearch_2526_3,,2025.2.4,2026-02-18 11h58.48.315903 +0100,
tilted.xlsx,The target is tilted.,117,21,5,2,1,1,1,1,0,0,0,0,0,0,0,0,0,3,4,117,space,4.8072698999999375,None,0,0,3.0685013000002073,None,space,3.1409740999997666,None,0,0,0,0,,,,,2,5,21,2,144.0680784000001,,,,,,,,,,,,,,,,,,,,,144.0528489000003,144.0680784000001,144.55220400000007,144.55792640000027,144.57368410000026,147.65139020000015,,,,,147.6516228999999,147.66669860000002,147.8670886,147.85069520000025,144.57368410000026,,,,,,,,0,0,3.0685013000002073,None,,,,,,,,844,21,M,R,2026-02-18_11h58.48.089,VisualSearch_2526_3,,2025.2.4,2026-02-18 11h58.48.315903 +0100,
tilted.xlsx,The target is tilted.,117,22,6,2,1,1,1,1,1,1,1,1,1,1,1,1,0,11,12,117,space,4.8072698999999375,None,1,1,2.69375940000009,None,space,3.1409740999997666,None,0,0,0,0,,,,,2,6,22,0,147.8670886,,,,,,,,,,,,,,,,,,,,,147.85154150000017,147.8670886,148.3510507000001,148.35647640000025,148.3722732000001,151.08309800000006,,,,,151.08329529999992,151.0988040000002,151.29935620000015,151.28323470000032,148.3722732000001,,,,,,,,1,1,2.69375940000009,None,,,,,,,,844,21,M,R,2026-02-18_11h58.48.089,VisualSearch_2526_3,,2025.2.4,2026-02-18 11h58.48.315903 +0100,
tilted.xlsx,The target is tilted.,117,23,7,2,0,1,1,1,0,0,0,0,0,0,0,0,1,3,4,117,space,4.8072698999999375,None,0,1,1.6854413999999451,None,space,3.1409740999997666,None,0,0,0,0,,,,,2,7,23,6,151.29935620000015,,,,,,,,,,,,,,,,,,,,,151.28407340000012,151.29935620000015,151.78312050000022,151.7882866,151.8010862000001,153.49898250000024,,,,,153.49920079999993,153.51475040000014,153.71519450000005,153.69910610000034,151.8010862000001,,,,,,,,0,1,1.6854413999999451,None,,,,,,,,844,21,M,R,2026-02-18_11h58.48.089,VisualSearch_2526_3,,2025.2.4,2026-02-18 11h58.48.315903 +0100,
tilted.xlsx,The target is tilted.,117,24,0,3,1,1,1,1,1,1,1,1,0,0,0,0,0,7,8,117,space,4.8072698999999375,None,1,1,2.38404730000002,None,space,3.1409740999997666,None,0,0,0,0,,,,,3,0,24,1,153.71519450000005,,,,,,,,,,,,,,,,,,,,,153.6999083999999,153.71519450000005,154.1990192000003,154.20440129999997,154.22267020000027,156.61512380000022,,,,,156.6153016000003,156.63033200000018,156.83091190000005,156.8148067000002,154.22267020000027,,,,,,,,1,1,2.38404730000002,None,,,,,,,,844,21,M,R,2026-02-18_11h58.48.089,VisualSearch_2526_3,,2025.2.4,2026-02-18 11h58.48.315903 +0100,
tilted.xlsx,The target is tilted.,117,25,1,3,0,1,1,1,1,1,1,1,0,0,0,0,1,7,8,117,space,4.8072698999999375,None,1,0,1.3065988000003017,None,space,3.1409740999997666,None,0,0,0,0,,,,,3,1,25,5,156.83091190000005,,,,,,,,,,,,,,,,,,,,,156.8156254999999,156.83091190000005,157.3148615,157.3202580000002,157.33487520000017,158.64717659999997,,,,,158.64733810000007,158.66299500000014,158.86341560000028,158.84714050000002,157.33487520000017,,,,,,,,1,0,1.3065988000003017,None,,,,,,,,844,21,M,R,2026-02-18_11h58.48.089,VisualSearch_2526_3,,2025.2.4,2026-02-18 11h58.48.315903 +0100,
tilted.xlsx,The target is tilted.,117,26,2,3,1,0,0,0,0,0,0,0,0,0,0,0,0,0,1,117,space,4.8072698999999375,None,0,0,0.6855236000001241,None,space,3.1409740999997666,None,0,0,0,0,,,,,3,2,26,3,158.86341560000028,,,,,,,,,,,,,,,,,,,,,158.8479640999999,158.86341560000028,159.34683200000018,159.35030030000007,159.36472559999993,160.0639102,,,,,160.06413360000033,160.07923900000014,160.27971789999992,160.2633324000003,159.36472559999993,,,,,,,,0,0,0.6855236000001241,None,,,,,,,,844,21,M,R,2026-02-18_11h58.48.089,VisualSearch_2526_3,,2025.2.4,2026-02-18 11h58.48.315903 +0100,
tilted.xlsx,The target is tilted.,117,27,3,3,1,1,1,1,0,0,0,0,0,0,0,0,0,3,4,117,space,4.8072698999999375,None,0,0,1.1978332999997292,None,space,3.1409740999997666,None,0,0,0,0,,,,,3,3,27,2,160.27971789999992,,,,,,,,,,,,,,,,,,,,,160.2642820000001,160.27971789999992,160.76360969999996,160.7691248000001,160.78484770000023,161.99707070000022,,,,,161.99737790000017,162.0117869999999,162.21231230000012,162.19596739999997,160.78484770000023,,,,,,,,0,0,1.1978332999997292,None,,,,,,,,844,21,M,R,2026-02-18_11h58.48.089,VisualSearch_2526_3,,2025.2.4,2026-02-18 11h58.48.315903 +0100,
tilted.xlsx,The target is tilted.,117,28,4,3,0,1,1,1,1,1,1,1,1,1,1,1,1,11,12,117,space,4.8072698999999375,None,1,0,1.5198599999998805,None,space,3.1409740999997666,None,0,0,0,0,,,,,3,4,28,4,162.21231230000012,,,,,,,,,,,,,,,,,,,,,162.19679140000017,162.21231230000012,162.69628749999993,162.7023075000002,162.71843470000022,164.24580530000003,,,,,164.24595709999994,164.26127850000012,164.46167620000006,164.44567110000025,162.71843470000022,,,,,,,,1,0,1.5198599999998805,None,,,,,,,,844,21,M,R,2026-02-18_11h58.48.089,VisualSearch_2526_3,,2025.2.4,2026-02-18 11h58.48.315903 +0100,
tilted.xlsx,The target is tilted.,117,29,5,3,1,1,1,1,1,1,1,1,1,1,1,1,0,11,12,117,space,4.8072698999999375,None,1,1,3.4000654000001305,None,space,3.1409740999997666,None,0,0,0,0,,,,,3,5,29,0,164.46167620000006,,,,,,,,,,,,,,,,,,,,,164.4464954,164.46167620000006,164.94535110000015,164.95076670000026,164.96395090000033,168.3772686000002,,,,,168.37741860000006,168.39314000000013,168.59373189999997,168.57729259999996,164.96395090000033,,,,,,,,1,1,3.4000654000001305,None,,,,,,,,844,21,M,R,2026-02-18_11h58.48.089,VisualSearch_2526_3,,2025.2.4,2026-02-18 11h58.48.315903 +0100,
tilted.xlsx,The target is tilted.,117,30,6,3,0,0,0,0,0,0,0,0,0,0,0,0,1,1,1,117,space,4.8072698999999375,None,1,0,1.1608893000002354,None,space,3.1409740999997666,None,0,0,0,0,,,,,3,6,30,7,168.59373189999997,,,,,,,,,,,,,,,,,,,,,168.57810500000005,168.59373189999997,169.07721710000033,169.08282310000004,169.09666800000014,170.26076170000033,,,,,170.2609682000002,170.2758558999999,170.47642769999993,170.46031650000032,169.09666800000014,,,,,,,,1,0,1.1608893000002354,None,,,,,,,,844,21,M,R,2026-02-18_11h58.48.089,VisualSearch_2526_3,,2025.2.4,2026-02-18 11h58.48.315903 +0100,
tilted.xlsx,The target is tilted.,117,31,7,3,0,1,1,1,0,0,0,0,0,0,0,0,1,3,4,117,space,4.8072698999999375,None,1,0,1.4427937000000384,None,space,3.1409740999997666,None,0,0,0,0,,,,,3,7,31,6,170.47642769999993,,,,,,,,,,,,,,,,,,,,,170.4612145000001,170.47642769999993,170.9601702,170.96563460000016,170.98236690000022,172.42598270000008,,,,,172.42608569999993,172.44173170000022,172.64247300000034,172.6263573000001,170.98236690000022,,,,,,,,1,0,1.4427937000000384,None,,,,,,,,844,21,M,R,2026-02-18_11h58.48.089,VisualSearch_2526_3,,2025.2.4,2026-02-18 11h58.48.315903 +0100,
tilted.xlsx,The target is tilted.,117,32,0,4,0,1,1,1,0,0,0,0,0,0,0,0,1,3,4,117,space,4.8072698999999375,None,1,0,1.0732051999998475,None,space,3.1409740999997666,None,0,0,0,0,,,,,4,0,32,6,172.64247300000034,,,,,,,,,,,,,,,,,,,,,172.62769230000004,172.64247300000034,173.12540040000022,173.12734090000004,173.14198410000017,174.22559040000033,,,,,174.22575899999993,174.24105970000028,174.44155170000022,174.42575840000018,173.14198410000017,,,,,,,,1,0,1.0732051999998475,None,,,,,,,,844,21,M,R,2026-02-18_11h58.48.089,VisualSearch_2526_3,,2025.2.4,2026-02-18 11h58.48.315903 +0100,
tilted.xlsx,The target is tilted.,117,33,1,4,1,0,0,0,0,0,0,0,0,0,0,0,0,0,1,117,space,4.8072698999999375,None,0,0,0.6893534999999247,None,space,3.1409740999997666,None,0,0,0,0,,,,,4,1,33,3,174.44155170000022,,,,,,,,,,,,,,,,,,,,,174.42656549999992,174.44155170000022,174.92558260000033,174.93044559999998,174.9413343000001,175.6419934999999,,,,,175.6421424,175.65732260000004,175.85783390000006,175.84184890000006,174.9413343000001,,,,,,,,0,0,0.6893534999999247,None,,,,,,,,844,21,M,R,2026-02-18_11h58.48.089,VisualSearch_2526_3,,2025.2.4,2026-02-18 11h58.48.315903 +0100,
tilted.xlsx,The target is tilted.,117,34,2,4,1,1,1,1,1,1,1,1,0,0,0,0,0,7,8,117,space,4.8072698999999375,None,1,1,1.9861039000002165,None,space,3.1409740999997666,None,0,0,0,0,,,,,4,2,34,1,175.85783390000006,,,,,,,,,,,,,,,,,,,,,175.84267249999994,175.85783390000006,176.3413800000003,176.34672,176.3647119000002,178.35733870000013,,,,,178.35748760000024,178.3730958000001,178.5737451,178.55731500000002,176.3647119000002,,,,,,,,1,1,1.9861039000002165,None,,,,,,,,844,21,M,R,2026-02-18_11h58.48.089,VisualSearch_2526_3,,2025.2.4,2026-02-18 11h58.48.315903 +0100,
tilted.xlsx,The target is tilted.,117,35,3,4,1,1,1,1,0,0,0,0,0,0,0,0,0,3,4,117,space,4.8072698999999375,None,0,0,1.420228599999973,None,space,3.1409740999997666,None,0,0,0,0,,,,,4,3,35,2,178.5737451,,,,,,,,,,,,,,,,,,,,,178.55825430000004,178.5737451,179.05719520000002,179.06260610000027,179.07841430000008,180.50711900000033,,,,,180.50727009999991,180.52237890000015,180.72294950000014,180.70678110000017,179.07841430000008,,,,,,,,0,0,1.420228599999973,None,,,,,,,,844,21,M,R,2026-02-18_11h58.48.089,VisualSearch_2526_3,,2025.2.4,2026-02-18 11h58.48.315903 +0100,
tilted.xlsx,The target is tilted.,117,36,4,4,0,1,1,1,1,1,1,1,0,0,0,0,1,7,8,117,space,4.8072698999999375,None,1,0,1.622389099999964,None,space,3.1409740999997666,None,0,0,0,0,,,,,4,4,36,5,180.72294950000014,,,,,,,,,,,,,,,,,,,,,180.70765010000014,180.72294950000014,181.20693440000014,181.21228550000023,181.22796300000027,182.8569440000001,,,,,182.85716980000007,182.87193019999995,183.07234620000008,183.05568110000013,181.22796300000027,,,,,,,,1,0,1.622389099999964,None,,,,,,,,844,21,M,R,2026-02-18_11h58.48.089,VisualSearch_2526_3,,2025.2.4,2026-02-18 11h58.48.315903 +0100,
tilted.xlsx,The target is tilted.,117,37,5,4,0,1,1,1,1,1,1,1,1,1,1,1,1,11,12,117,space,4.8072698999999375,None,1,0,3.3416399000002457,None,space,3.1409740999997666,None,0,0,0,0,,,,,4,5,37,4,183.07234620000008,,,,,,,,,,,,,,,,,,,,,183.05651530000023,183.07234620000008,183.55579209999996,183.56114380000008,183.57628019999993,186.92186119999997,,,,,186.92209690000027,186.9371675000002,187.13720570000032,187.12120129999994,183.57628019999993,,,,,,,,1,0,3.3416399000002457,None,,,,,,,,844,21,M,R,2026-02-18_11h58.48.089,VisualSearch_2526_3,,2025.2.4,2026-02-18 11h58.48.315903 +0100,
tilted.xlsx,The target is tilted.,117,38,6,4,0,0,0,0,0,0,0,0,0,0,0,0,1,1,1,117,space,4.8072698999999375,None,0,1,0.7275625999996009,None,space,3.1409740999997666,None,0,0,0,0,,,,,4,6,38,7,187.13720570000032,,,,,,,,,,,,,,,,,,,,,187.12202560000014,187.13720570000032,187.62145409999994,187.62637700000005,187.6371661000003,188.37167670000008,,,,,188.3719203999999,188.38654670000005,188.5870887000001,188.57072640000024,187.6371661000003,,,,,,,,0,1,0.7275625999996009,None,,,,,,,,844,21,M,R,2026-02-18_11h58.48.089,VisualSearch_2526_3,,2025.2.4,2026-02-18 11h58.48.315903 +0100,
tilted.xlsx,The target is tilted.,117,39,7,4,1,1,1,1,1,1,1,1,1,1,1,1,0,11,12,117,space,4.8072698999999375,None,1,1,2.53582600000027,None,space,3.1409740999997666,None,0,0,0,0,,,,,4,7,39,0,188.5870887000001,,,,,,,,,,,,,,,,,,,,,188.57156970000005,188.5870887000001,189.07093609999993,189.07713270000022,189.09333270000025,191.63735940000015,,,,,191.63762369999995,191.65226900000016,191.85275660000025,191.83672670000033,189.09333270000025,,,,,,,,1,1,2.53582600000027,None,,,,,,,,844,21,M,R,2026-02-18_11h58.48.089,VisualSearch_2526_3,,2025.2.4,2026-02-18 11h58.48.315903 +0100,
tilted.xlsx,The target is tilted.,117,40,0,5,0,1,1,1,0,0,0,0,0,0,0,0,1,3,4,117,space,4.8072698999999375,None,0,1,2.031536099999812,None,space,3.1409740999997666,None,0,0,0,0,,,,,5,0,40,6,191.85275660000025,,,,,,,,,,,,,,,,,,,,,191.8375917000003,191.85275660000025,192.3365649000002,192.34188040000026,192.35843539999996,194.4031831000002,,,,,194.40340930000002,194.4180706000002,194.61848660000032,194.60250730000007,192.35843539999996,,,,,,,,0,1,2.031536099999812,None,,,,,,,,844,21,M,R,2026-02-18_11h58.48.089,VisualSearch_2526_3,,2025.2.4,2026-02-18 11h58.48.315903 +0100,
tilted.xlsx,The target is tilted.,117,41,1,5,0,0,0,0,0,0,0,0,0,0,0,0,1,1,1,117,space,4.8072698999999375,None,0,1,0.8731014999998479,None,space,3.1409740999997666,None,0,0,0,0,,,,,5,1,41,7,194.61848660000032,,,,,,,,,,,,,,,,,,,,,194.6034026000002,194.61848660000032,195.1023336000003,195.1072935000002,195.11804660000007,196.00268959999994,,,,,196.00291400000015,196.0174562000002,196.21790880000026,196.20179290000033,195.11804660000007,,,,,,,,0,1,0.8731014999998479,None,,,,,,,,844,21,M,R,2026-02-18_11h58.48.089,VisualSearch_2526_3,,2025.2.4,2026-02-18 11h58.48.315903 +0100,
tilted.xlsx,The target is tilted.,117,42,2,5,1,0,0,0,0,0,0,0,0,0,0,0,0,0,1,117,space,4.8072698999999375,None,0,0,1.0764445999998316,None,space,3.1409740999997666,None,0,0,0,0,,,,,5,2,42,3,196.21790880000026,,,,,,,,,,,,,,,,,,,,,196.20265629999994,196.21790880000026,196.70174020000013,196.70758260000002,196.72848380000005,197.81816490000028,,,,,197.81833030000007,197.83341070000006,198.03404279999995,198.01803689999997,196.72848380000005,,,,,,,,0,0,1.0764445999998316,None,,,,,,,,844,21,M,R,2026-02-18_11h58.48.089,VisualSearch_2526_3,,2025.2.4,2026-02-18 11h58.48.315903 +0100,
tilted.xlsx,The target is tilted.,117,43,3,5,0,1,1,1,1,1,1,1,0,0,0,0,1,7,8,117,space,4.8072698999999375,None,1,0,3.2545070999999552,None,space,3.1409740999997666,None,0,0,0,0,,,,,5,3,43,5,198.03404279999995,,,,,,,,,,,,,,,,,,,,,198.0188489000002,198.03404279999995,198.51738690000002,198.52275690000033,198.53785470000003,201.80124939999996,,,,,201.80148009999994,201.81545380000034,202.01609050000025,202.00027530000034,198.53785470000003,,,,,,,,1,0,3.2545070999999552,None,,,,,,,,844,21,M,R,2026-02-18_11h58.48.089,VisualSearch_2526_3,,2025.2.4,2026-02-18 11h58.48.315903 +0100,
tilted.xlsx,The target is tilted.,117,44,4,5,1,1,1,1,0,0,0,0,0,0,0,0,0,3,4,117,space,4.8072698999999375,None,0,0,1.4221136000001025,None,space,3.1409740999997666,None,0,0,0,0,,,,,5,4,44,2,202.01609050000025,,,,,,,,,,,,,,,,,,,,,202.00137300000006,202.01609050000025,202.4998402000001,202.5054442999999,202.51939380000022,203.95001559999992,,,,,203.95025699999997,203.9649975000002,204.16538489999994,204.14918780000016,202.51939380000022,,,,,,,,0,0,1.4221136000001025,None,,,,,,,,844,21,M,R,2026-02-18_11h58.48.089,VisualSearch_2526_3,,2025.2.4,2026-02-18 11h58.48.315903 +0100,
tilted.xlsx,The target is tilted.,117,45,5,5,1,1,1,1,1,1,1,1,1,1,1,1,0,11,12,117,space,4.8072698999999375,None,1,1,5.052532300000166,None,space,3.1409740999997666,None,0,0,0,0,,,,,5,5,45,0,204.16538489999994,,,,,,,,,,,,,,,,,,,,,204.15005840000003,204.16538489999994,204.64918680000028,204.65462389999993,204.66796520000025,209.73094200000014,,,,,209.73114970000006,209.7464986,209.94684940000025,209.93076599999995,204.66796520000025,,,,,,,,1,1,5.052532300000166,None,,,,,,,,844,21,M,R,2026-02-18_11h58.48.089,VisualSearch_2526_3,,2025.2.4,2026-02-18 11h58.48.315903 +0100,
tilted.xlsx,The target is tilted.,117,46,6,5,1,1,1,1,1,1,1,1,0,0,0,0,0,7,8,117,space,4.8072698999999375,None,1,1,2.0751781999997547,None,space,3.1409740999997666,None,0,0,0,0,,,,,5,6,46,1,209.94684940000025,,,,,,,,,,,,,,,,,,,,,209.93159820000028,209.94684940000025,210.43052290000014,210.43596430000025,210.45228160000033,212.5306754000003,,,,,212.53134330000012,212.54524880000008,212.7455272000002,212.72972460000028,210.45228160000033,,,,,,,,1,1,2.0751781999997547,None,,,,,,,,844,21,M,R,2026-02-18_11h58.48.089,VisualSearch_2526_3,,2025.2.4,2026-02-18 11h58.48.315903 +0100,
tilted.xlsx,The target is tilted.,117,47,7,5,0,1,1,1,1,1,1,1,1,1,1,1,1,11,12,117,space,4.8072698999999375,None,1,0,2.8723682999998346,None,space,3.1409740999997666,None,0,0,0,0,,,,,5,7,47,4,212.7455272000002,,,,,,,,,,,,,,,,,,,,,212.7305722000001,212.7455272000002,213.22967280000012,213.2352122000002,213.24977590000026,216.12853029999997,,,,,216.1287109,216.1439780999999,216.3447046000001,216.32867890000034,213.24977590000026,,,,,,,,1,0,2.8723682999998346,None,,,,,,,,844,21,M,R,2026-02-18_11h58.48.089,VisualSearch_2526_3,,2025.2.4,2026-02-18 11h58.48.315903 +0100,
tilted.xlsx,The target is tilted.,117,48,0,6,0,1,1,1,1,1,1,1,1,1,1,1,1,11,12,117,space,4.8072698999999375,None,1,0,3.324595400000362,None,space,3.1409740999997666,None,0,0,0,0,,,,,6,0,48,4,216.3447046000001,,,,,,,,,,,,,,,,,,,,,216.32950010000013,216.3447046000001,216.82844250000016,216.83384680000017,216.8497170999999,220.17719250000027,,,,,220.17734450000034,220.19285880000007,220.39294870000003,220.37715070000013,216.8497170999999,,,,,,,,1,0,3.324595400000362,None,,,,,,,,844,21,M,R,2026-02-18_11h58.48.089,VisualSearch_2526_3,,2025.2.4,2026-02-18 11h58.48.315903 +0100,
tilted.xlsx,The target is tilted.,117,49,1,6,0,1,1,1,1,1,1,1,0,0,0,0,1,7,8,117,space,4.8072698999999375,None,0,1,4.02311009999994,None,space,3.1409740999997666,None,0,0,0,0,,,,,6,1,49,5,220.39294870000003,,,,,,,,,,,,,,,,,,,,,220.3780925000001,220.39294870000003,220.8767528000003,220.88215880000007,220.89566890000015,224.92592330000025,,,,,224.92608240000027,224.94126760000017,225.14185420000013,225.12542550000035,220.89566890000015,,,,,,,,0,1,4.02311009999994,None,,,,,,,,844,21,M,R,2026-02-18_11h58.48.089,VisualSearch_2526_3,,2025.2.4,2026-02-18 11h58.48.315903 +0100,
tilted.xlsx,The target is tilted.,117,50,2,6,1,1,1,1,1,1,1,1,1,1,1,1,0,11,12,117,space,4.8072698999999375,None,1,1,3.6063097000001108,None,space,3.1409740999997666,None,0,0,0,0,,,,,6,2,50,0,225.14185420000013,,,,,,,,,,,,,,,,,,,,,225.1262670000001,225.14185420000013,225.6255483,225.63101600000027,225.64661550000028,229.2581242000001,,,,,229.2583257000001,229.2731174999999,229.4737857,229.4573150000001,225.64661550000028,,,,,,,,1,1,3.6063097000001108,None,,,,,,,,844,21,M,R,2026-02-18_11h58.48.089,VisualSearch_2526_3,,2025.2.4,2026-02-18 11h58.48.315903 +0100,
tilted.xlsx,The target is tilted.,117,51,3,6,1,0,0,0,0,0,0,0,0,0,0,0,0,0,1,117,space,4.8072698999999375,None,0,0,0.8130728000001,None,space,3.1409740999997666,None,0,0,0,0,,,,,6,3,51,3,229.4737857,,,,,,,,,,,,,,,,,,,,,229.45814689999997,229.4737857,229.95730970000022,229.9626499000001,229.97839440000007,230.8067903000001,,,,,230.80694410000024,230.8228441000001,231.0232073000002,231.0071227000003,229.97839440000007,,,,,,,,0,0,0.8130728000001,None,,,,,,,,844,21,M,R,2026-02-18_11h58.48.089,VisualSearch_2526_3,,2025.2.4,2026-02-18 11h58.48.315903 +0100,
tilted.xlsx,The target is tilted.,117,52,4,6,1,1,1,1,1,1,1,1,0,0,0,0,0,7,8,117,space,4.8072698999999375,None,1,1,3.103343499999937,None,space,3.1409740999997666,None,0,0,0,0,,,,,6,4,52,1,231.0232073000002,,,,,,,,,,,,,,,,,,,,,231.0079556999999,231.0232073000002,231.5071223,231.51246840000022,231.52816770000027,234.63935730000003,,,,,234.63951279999992,234.65479989999994,234.8551338000002,234.83914499999992,231.52816770000027,,,,,,,,1,1,3.103343499999937,None,,,,,,,,844,21,M,R,2026-02-18_11h58.48.089,VisualSearch_2526_3,,2025.2.4,2026-02-18 11h58.48.315903 +0100,
tilted.xlsx,The target is tilted.,117,53,5,6,0,1,1,1,0,0,0,0,0,0,0,0,1,3,4,117,space,4.8072698999999375,None,0,1,1.1634801000000152,None,space,3.1409740999997666,None,0,0,0,0,,,,,6,5,53,6,234.8551338000002,,,,,,,,,,,,,,,,,,,,,234.84002779999992,234.8551338000002,235.33872830000018,235.3442,235.36054760000025,236.53818820000015,,,,,236.53833750000013,236.55418510000027,236.75466750000032,236.73825239999996,235.36054760000025,,,,,,,,0,1,1.1634801000000152,None,,,,,,,,844,21,M,R,2026-02-18_11h58.48.089,VisualSearch_2526_3,,2025.2.4,2026-02-18 11h58.48.315903 +0100,
tilted.xlsx,The target is tilted.,117,54,6,6,1,1,1,1,0,0,0,0,0,0,0,0,0,3,4,117,space,4.8072698999999375,None,0,0,0.9709516999996595,None,space,3.1409740999997666,None,0,0,0,0,,,,,6,6,54,2,236.75466750000032,,,,,,,,,,,,,,,,,,,,,236.7390808,236.75466750000032,237.23848130000033,237.24385060000031,237.26199160000033,238.23836870000014,,,,,238.23854729999994,238.25370320000002,238.4542219,238.4379214999999,237.26199160000033,,,,,,,,0,0,0.9709516999996595,None,,,,,,,,844,21,M,R,2026-02-18_11h58.48.089,VisualSearch_2526_3,,2025.2.4,2026-02-18 11h58.48.315903 +0100,
tilted.xlsx,The target is tilted.,117,55,7,6,0,0,0,0,0,0,0,0,0,0,0,0,1,1,1,117,space,4.8072698999999375,None,0,1,0.9631438000001253,None,space,3.1409740999997666,None,0,0,0,0,,,,,6,7,55,7,238.4542219,,,,,,,,,,,,,,,,,,,,,238.43890890000011,238.4542219,238.93754350000017,238.94290589999991,238.9590948,239.93714750000026,,,,,239.9372972000001,239.95309739999993,240.15356680000014,240.13708829999996,238.9590948,,,,,,,,0,1,0.9631438000001253,None,,,,,,,,844,21,M,R,2026-02-18_11h58.48.089,VisualSearch_2526_3,,2025.2.4,2026-02-18 11h58.48.315903 +0100,
tilted.xlsx,The target is tilted.,117,56,0,7,1,1,1,1,0,0,0,0,0,0,0,0,0,3,4,117,space,4.8072698999999375,None,0,0,1.3922613999998248,None,space,3.1409740999997666,None,0,0,0,0,,,,,7,0,56,2,240.15356680000014,,,,,,,,,,,,,,,,,,,,,240.1379777000002,240.15356680000014,240.63731110000026,240.64271980000012,240.65869930000008,242.05325560000028,,,,,242.05338660000007,242.06910240000025,242.26954569999998,242.2535284999999,240.65869930000008,,,,,,,,0,0,1.3922613999998248,None,,,,,,,,844,21,M,R,2026-02-18_11h58.48.089,VisualSearch_2526_3,,2025.2.4,2026-02-18 11h58.48.315903 +0100,
tilted.xlsx,The target is tilted.,117,57,1,7,0,1,1,1,0,0,0,0,0,0,0,0,1,3,4,117,space,4.8072698999999375,None,0,1,1.309988400000293,None,space,3.1409740999997666,None,0,0,0,0,,,,,7,1,57,6,242.26954569999998,,,,,,,,,,,,,,,,,,,,,242.2543452,242.26954569999998,242.75339350000013,242.75892060000024,242.77290970000013,244.0857060000003,,,,,244.0858188000002,244.10160160000032,244.30217560000028,244.28581490000033,242.77290970000013,,,,,,,,0,1,1.309988400000293,None,,,,,,,,844,21,M,R,2026-02-18_11h58.48.089,VisualSearch_2526_3,,2025.2.4,2026-02-18 11h58.48.315903 +0100,
tilted.xlsx,The target is tilted.,117,58,2,7,0,0,0,0,0,0,0,0,0,0,0,0,1,1,1,117,space,4.8072698999999375,None,0,1,1.0095605999999862,None,space,3.1409740999997666,None,0,0,0,0,,,,,7,2,58,7,244.30217560000028,,,,,,,,,,,,,,,,,,,,,244.28665880000017,244.30217560000028,244.7860995000001,244.79148220000025,244.80703799999992,245.81886520000035,,,,,245.81901340000013,245.83429560000013,246.03475690000005,246.0188352,244.80703799999992,,,,,,,,0,1,1.0095605999999862,None,,,,,,,,844,21,M,R,2026-02-18_11h58.48.089,VisualSearch_2526_3,,2025.2.4,2026-02-18 11h58.48.315903 +0100,
tilted.xlsx,The target is tilted.,117,59,3,7,0,1,1,1,1,1,1,1,1,1,1,1,1,11,12,117,space,4.8072698999999375,None,1,0,3.2782924999996794,None,space,3.1409740999997666,None,0,0,0,0,,,,,7,3,59,4,246.03475690000005,,,,,,,,,,,,,,,,,,,,,246.01965599999994,246.03475690000005,246.51878110000007,246.52436530000023,246.53952260000005,249.8343162000001,,,,,249.83451409999998,249.84979610000028,250.04993700000023,250.03426080000008,246.53952260000005,,,,,,,,1,0,3.2782924999996794,None,,,,,,,,844,21,M,R,2026-02-18_11h58.48.089,VisualSearch_2526_3,,2025.2.4,2026-02-18 11h58.48.315903 +0100,
tilted.xlsx,The target is tilted.,117,60,4,7,1,0,0,0,0,0,0,0,0,0,0,0,0,0,1,117,space,4.8072698999999375,None,0,0,0.8337339999998221,None,space,3.1409740999997666,None,0,0,0,0,,,,,7,4,60,3,250.04993700000023,,,,,,,,,,,,,,,,,,,,,250.03506689999995,250.04993700000023,250.53328839999995,250.5366242,250.5499523000003,251.40026669999997,,,,,251.40048780000006,251.4160294000003,251.6164862999999,251.60000960000025,250.5499523000003,,,,,,,,0,0,0.8337339999998221,None,,,,,,,,844,21,M,R,2026-02-18_11h58.48.089,VisualSearch_2526_3,,2025.2.4,2026-02-18 11h58.48.315903 +0100,
tilted.xlsx,The target is tilted.,117,61,5,7,1,1,1,1,1,1,1,1,1,1,1,1,0,11,12,117,space,4.8072698999999375,None,1,1,5.684008899999753,None,space,3.1409740999997666,None,0,0,0,0,,,,,7,5,61,0,251.6164862999999,,,,,,,,,,,,,,,,,,,,,251.60082610000018,251.6164862999999,252.1002868999999,252.10568710000007,252.1199474,257.81516580000016,,,,,257.8153162000003,257.83057929999995,258.0310072000002,258.01488199999994,252.1199474,,,,,,,,1,1,5.684008899999753,None,,,,,,,,844,21,M,R,2026-02-18_11h58.48.089,VisualSearch_2526_3,,2025.2.4,2026-02-18 11h58.48.315903 +0100,
tilted.xlsx,The target is tilted.,117,62,6,7,1,1,1,1,1,1,1,1,0,0,0,0,0,7,8,117,space,4.8072698999999375,None,1,1,1.59236699999974,None,space,3.1409740999997666,None,0,0,0,0,,,,,7,6,62,1,258.0310072000002,,,,,,,,,,,,,,,,,,,,,258.0157309000001,258.0310072000002,258.5146629000001,258.52003319999994,258.53696100000025,260.1305109,,,,,260.1306244000002,260.1464254000002,260.3465925999999,260.3308543000003,258.53696100000025,,,,,,,,1,1,1.59236699999974,None,,,,,,,,844,21,M,R,2026-02-18_11h58.48.089,VisualSearch_2526_3,,2025.2.4,2026-02-18 11h58.48.315903 +0100,
tilted.xlsx,The target is tilted.,117,63,7,7,0,1,1,1,1,1,1,1,0,0,0,0,1,7,8,117,space,4.8072698999999375,None,1,0,2.352472900000066,None,space,3.1409740999997666,None,0,0,0,0,,,,,7,7,63,5,260.3465925999999,,,,,,,,,,,,,,,,,,,,,260.33167870000034,260.3465925999999,260.83083860000033,260.8354180000001,260.8463945000003,263.2133755,,,,,263.2135962000002,263.2288853,263.4292296000003,263.4130482999999,260.8463945000003,,,,,,,,1,0,2.352472900000066,None,,,,,,,,844,21,M,R,2026-02-18_11h58.48.089,VisualSearch_2526_3,,2025.2.4,2026-02-18 11h58.48.315903 +0100,
tilted.xlsx,The target is tilted.,117,64,0,8,1,1,1,1,1,1,1,1,1,1,1,1,0,11,12,117,space,4.8072698999999375,None,1,1,3.35494510000035,None,space,3.1409740999997666,None,0,0,0,0,,,,,8,0,64,0,263.4292296000003,,,,,,,,,,,,,,,,,,,,,263.4139935000003,263.4292296000003,263.91319250000015,263.91848630000004,263.92892170000005,267.2954328999999,,,,,267.2955985000003,267.31087130000014,267.51124660000005,267.495226,263.92892170000005,,,,,,,,1,1,3.35494510000035,None,,,,,,,,844,21,M,R,2026-02-18_11h58.48.089,VisualSearch_2526_3,,2025.2.4,2026-02-18 11h58.48.315903 +0100,
tilted.xlsx,The target is tilted.,117,65,1,8,1,0,0,0,0,0,0,0,0,0,0,0,0,0,1,117,space,4.8072698999999375,None,0,0,0.7400666000003184,None,space,3.1409740999997666,None,0,0,0,0,,,,,8,1,65,3,267.51124660000005,,,,,,,,,,,,,,,,,,,,,267.49604150000005,267.51124660000005,267.9951160999999,268.00047840000025,268.0166770999999,268.76137270000027,,,,,268.76155259999996,268.7770534000001,268.9774709000003,268.9613739000001,268.0166770999999,,,,,,,,0,0,0.7400666000003184,None,,,,,,,,844,21,M,R,2026-02-18_11h58.48.089,VisualSearch_2526_3,,2025.2.4,2026-02-18 11h58.48.315903 +0100,
tilted.xlsx,The target is tilted.,117,66,2,8,0,0,0,0,0,0,0,0,0,0,0,0,1,1,1,117,space,4.8072698999999375,None,0,1,0.6017726000000039,None,space,3.1409740999997666,None,0,0,0,0,,,,,8,2,66,7,268.9774709000003,,,,,,,,,,,,,,,,,,,,,268.96224250000023,268.9774709000003,269.4608737000003,269.4656906,269.47683559999996,270.093969,,,,,270.0941455000002,270.1102479000001,270.31037830000014,270.2944461000002,269.47683559999996,,,,,,,,0,1,0.6017726000000039,None,,,,,,,,844,21,M,R,2026-02-18_11h58.48.089,VisualSearch_2526_3,,2025.2.4,2026-02-18 11h58.48.315903 +0100,
tilted.xlsx,The target is tilted.,117,67,3,8,1,1,1,1,1,1,1,1,0,0,0,0,0,7,8,117,space,4.8072698999999375,None,1,1,3.8644085000000814,None,space,3.1409740999997666,None,0,0,0,0,,,,,8,3,67,1,270.31037830000014,,,,,,,,,,,,,,,,,,,,,270.2952723000003,270.31037830000014,270.7941843000003,270.79958320000014,270.81639029999997,274.6932197000001,,,,,274.6934013,274.70846740000025,274.908813,274.89276850000033,270.81639029999997,,,,,,,,1,1,3.8644085000000814,None,,,,,,,,844,21,M,R,2026-02-18_11h58.48.089,VisualSearch_2526_3,,2025.2.4,2026-02-18 11h58.48.315903 +0100,
tilted.xlsx,The target is tilted.,117,68,4,8,0,1,1,1,1,1,1,1,0,0,0,0,1,7,8,117,space,4.8072698999999375,None,1,0,2.281285300000036,None,space,3.1409740999997666,None,0,0,0,0,,,,,8,4,68,5,274.908813,,,,,,,,,,,,,,,,,,,,,274.89361910000025,274.908813,275.3915774000002,275.39452230000006,275.4078875,277.69231519999994,,,,,277.69249160000027,277.70742150000024,277.9076331000001,277.8914993000003,275.4078875,,,,,,,,1,0,2.281285300000036,None,,,,,,,,844,21,M,R,2026-02-18_11h58.48.089,VisualSearch_2526_3,,2025.2.4,2026-02-18 11h58.48.315903 +0100,
tilted.xlsx,The target is tilted.,117,69,5,8,0,1,1,1,0,0,0,0,0,0,0,0,1,3,4,117,space,4.8072698999999375,None,0,1,1.6946204999999281,None,space,3.1409740999997666,None,0,0,0,0,,,,,8,5,69,6,277.9076331000001,,,,,,,,,,,,,,,,,,,,,277.89234540000007,277.9076331000001,278.39172640000015,278.3970912,278.41359550000016,280.12554260000024,,,,,280.12576230000013,280.1399405000002,280.3405015000003,280.3239762000003,278.41359550000016,,,,,,,,0,1,1.6946204999999281,None,,,,,,,,844,21,M,R,2026-02-18_11h58.48.089,VisualSearch_2526_3,,2025.2.4,2026-02-18 11h58.48.315903 +0100,
tilted.xlsx,The target is tilted.,117,70,6,8,1,1,1,1,0,0,0,0,0,0,0,0,0,3,4,117,space,4.8072698999999375,None,0,0,1.3119226999997409,None,space,3.1409740999997666,None,0,0,0,0,,,,,8,6,70,2,280.3405015000003,,,,,,,,,,,,,,,,,,,,,280.3248159,280.3405015000003,280.8239160000003,280.8292865000003,280.8433064999999,282.1573698000002,,,,,282.1575714999999,282.1724283000003,282.3727355000001,282.35702519999995,280.8433064999999,,,,,,,,0,0,1.3119226999997409,None,,,,,,,,844,21,M,R,2026-02-18_11h58.48.089,VisualSearch_2526_3,,2025.2.4,2026-02-18 11h58.48.315903 +0100,
tilted.xlsx,The target is tilted.,117,71,7,8,0,1,1,1,1,1,1,1,1,1,1,1,1,11,12,117,space,4.8072698999999375,None,0,1,6.109526100000039,None,space,3.1409740999997666,None,0,0,0,0,,,,,8,7,71,4,282.3727355000001,,,,,,,,,,,,,,,,,,,,,282.3579663999999,282.3727355000001,282.85689360000015,282.8621555,282.87800749999997,288.98875720000024,,,,,288.9890031,289.0038006,289.2042431,289.1879601999999,282.87800749999997,,,,,,,,0,1,6.109526100000039,None,,,,,,,,844,21,M,R,2026-02-18_11h58.48.089,VisualSearch_2526_3,,2025.2.4,2026-02-18 11h58.48.315903 +0100,
tilted.xlsx,The target is tilted.,117,72,0,9,1,1,1,1,0,0,0,0,0,0,0,0,0,3,4,117,space,4.8072698999999375,None,0,0,1.3075175999997555,None,space,3.1409740999997666,None,0,0,0,0,,,,,9,0,72,2,289.2042431,,,,,,,,,,,,,,,,,,,,,289.18879030000016,289.2042431,289.6880132000001,289.6933683000002,289.7074302000001,291.02138520000017,,,,,291.02161590000014,291.0364832,291.23687169999994,291.2206059,289.7074302000001,,,,,,,,0,0,1.3075175999997555,None,,,,,,,,844,21,M,R,2026-02-18_11h58.48.089,VisualSearch_2526_3,,2025.2.4,2026-02-18 11h58.48.315903 +0100,
tilted.xlsx,The target is tilted.,117,73,1,9,0,1,1,1,1,1,1,1,0,0,0,0,1,7,8,117,space,4.8072698999999375,None,1,0,2.2554077000004327,None,space,3.1409740999997666,None,0,0,0,0,,,,,9,1,73,5,291.23687169999994,,,,,,,,,,,,,,,,,,,,,291.2214772000002,291.23687169999994,291.72062400000004,291.72596939999994,291.742436,294.00359640000033,,,,,294.0038201000002,294.01893229999996,294.21916379999993,294.2031305999999,291.742436,,,,,,,,1,0,2.2554077000004327,None,,,,,,,,844,21,M,R,2026-02-18_11h58.48.089,VisualSearch_2526_3,,2025.2.4,2026-02-18 11h58.48.315903 +0100,
tilted.xlsx,The target is tilted.,117,74,2,9,1,1,1,1,1,1,1,1,1,1,1,1,0,11,12,117,space,4.8072698999999375,None,1,1,2.367783800000325,None,space,3.1409740999997666,None,0,0,0,0,,,,,9,2,74,0,294.21916379999993,,,,,,,,,,,,,,,,,,,,,294.20397360000015,294.21916379999993,294.70304510000005,294.7083619,294.72265590000006,297.10255730000017,,,,,297.10280710000006,297.1175214,297.3181165000001,297.30223849999993,294.72265590000006,,,,,,,,1,1,2.367783800000325,None,,,,,,,,844,21,M,R,2026-02-18_11h58.48.089,VisualSearch_2526_3,,2025.2.4,2026-02-18 11h58.48.315903 +0100,
tilted.xlsx,The target is tilted.,117,75,3,9,0,0,0,0,0,0,0,0,0,0,0,0,1,1,1,117,space,4.8072698999999375,None,0,1,0.7502640999996402,None,space,3.1409740999997666,None,0,0,0,0,,,,,9,3,75,7,297.3181165000001,,,,,,,,,,,,,,,,,,,,,297.30307919999996,297.3181165000001,297.80186649999996,297.80729569999994,297.82331410000006,298.5850343000002,,,,,298.5851825,298.60056380000015,298.8012401000001,298.78496399999995,297.82331410000006,,,,,,,,0,1,0.7502640999996402,None,,,,,,,,844,21,M,R,2026-02-18_11h58.48.089,VisualSearch_2526_3,,2025.2.4,2026-02-18 11h58.48.315903 +0100,
tilted.xlsx,The target is tilted.,117,76,4,9,0,1,1,1,1,1,1,1,1,1,1,1,1,11,12,117,space,4.8072698999999375,None,0,1,4.308864900000117,None,space,3.1409740999997666,None,0,0,0,0,,,,,9,4,76,4,298.8012401000001,,,,,,,,,,,,,,,,,,,,,298.7858074999999,298.8012401000001,299.2848587000003,299.2900972000002,299.3051932000003,303.6168878000003,,,,,303.61704150000014,303.6321017,303.8327683000002,303.81630780000023,299.3051932000003,,,,,,,,0,1,4.308864900000117,None,,,,,,,,844,21,M,R,2026-02-18_11h58.48.089,VisualSearch_2526_3,,2025.2.4,2026-02-18 11h58.48.315903 +0100,
tilted.xlsx,The target is tilted.,117,77,5,9,0,1,1,1,0,0,0,0,0,0,0,0,1,3,4,117,space,4.8072698999999375,None,0,1,1.1935914000000594,None,space,3.1409740999997666,None,0,0,0,0,,,,,9,5,77,6,303.8327683000002,,,,,,,,,,,,,,,,,,,,,303.8171511999999,303.8327683000002,304.31632960000024,304.32160380000005,304.3371675000003,305.5332466,,,,,305.53348400000004,305.54833580000013,305.7487225,305.73259370000005,304.3371675000003,,,,,,,,0,1,1.1935914000000594,None,,,,,,,,844,21,M,R,2026-02-18_11h58.48.089,VisualSearch_2526_3,,2025.2.4,2026-02-18 11h58.48.315903 +0100,
tilted.xlsx,The target is tilted.,117,78,6,9,1,0,0,0,0,0,0,0,0,0,0,0,0,0,1,117,space,4.8072698999999375,None,0,0,0.7062846999997419,None,space,3.1409740999997666,None,0,0,0,0,,,,,9,6,78,3,305.7487225,,,,,,,,,,,,,,,,,,,,,305.7334467999999,305.7487225,306.23217590000013,306.2376180000001,306.25338520000014,306.9656557000003,,,,,306.9658030999999,306.9811380000001,307.18162680000023,307.1653500000002,306.25338520000014,,,,,,,,0,0,0.7062846999997419,None,,,,,,,,844,21,M,R,2026-02-18_11h58.48.089,VisualSearch_2526_3,,2025.2.4,2026-02-18 11h58.48.315903 +0100,
tilted.xlsx,The target is tilted.,117,79,7,9,1,1,1,1,1,1,1,1,0,0,0,0,0,7,8,117,space,4.8072698999999375,None,1,1,2.6158769999997276,None,space,3.1409740999997666,None,0,0,0,0,,,,,9,7,79,1,307.18162680000023,,,,,,,,,,,,,,,,,,,,,307.1661724999999,307.18162680000023,307.6654695000002,307.67072450000023,307.6853986000001,310.31516280000005,,,,,310.31541719999996,310.33012400000007,310.5301159999999,310.51452700000027,307.6853986000001,,,,,,,,1,1,2.6158769999997276,None,,,,,,,,844,21,M,R,2026-02-18_11h58.48.089,VisualSearch_2526_3,,2025.2.4,2026-02-18 11h58.48.315903 +0100,
tilted.xlsx,The target is tilted.,117,80,0,10,1,1,1,1,1,1,1,1,1,1,1,1,0,11,12,117,space,4.8072698999999375,None,0,0,3.9036270999999942,None,space,3.1409740999997666,None,0,0,0,0,,,,,10,0,80,0,310.5301159999999,,,,,,,,,,,,,,,,,,,,,310.5153190000001,310.5301159999999,311.01436030000013,311.01925729999994,311.0301892000002,314.94702750000033,,,,,314.94726340000034,314.9619098000003,315.1623562,315.1463311000002,311.0301892000002,,,,,,,,0,0,3.9036270999999942,None,,,,,,,,844,21,M,R,2026-02-18_11h58.48.089,VisualSearch_2526_3,,2025.2.4,2026-02-18 11h58.48.315903 +0100,
tilted.xlsx,The target is tilted.,117,81,1,10,0,1,1,1,1,1,1,1,0,0,0,0,1,7,8,117,space,4.8072698999999375,None,0,1,3.56162089999998,None,space,3.1409740999997666,None,0,0,0,0,,,,,10,1,81,5,315.1623562,,,,,,,,,,,,,,,,,,,,,315.1472425000002,315.1623562,315.6460711,315.65131180000026,315.66709740000033,319.24502070000017,,,,,319.24523960000033,319.2604120000001,319.46089980000033,319.4448900000002,315.66709740000033,,,,,,,,0,1,3.56162089999998,None,,,,,,,,844,21,M,R,2026-02-18_11h58.48.089,VisualSearch_2526_3,,2025.2.4,2026-02-18 11h58.48.315903 +0100,
tilted.xlsx,The target is tilted.,117,82,2,10,0,1,1,1,1,1,1,1,1,1,1,1,1,11,12,117,space,4.8072698999999375,None,1,0,3.6288131999999678,None,space,3.1409740999997666,None,0,0,0,0,,,,,10,2,82,4,319.46089980000033,,,,,,,,,,,,,,,,,,,,,319.4457489000001,319.46089980000033,319.9449628000002,319.9502507000002,319.96410560000004,323.59400730000016,,,,,323.59420260000024,323.60914980000007,323.8095188000002,323.79344070000025,319.96410560000004,,,,,,,,1,0,3.6288131999999678,None,,,,,,,,844,21,M,R,2026-02-18_11h58.48.089,VisualSearch_2526_3,,2025.2.4,2026-02-18 11h58.48.315903 +0100,
tilted.xlsx,The target is tilted.,117,83,3,10,1,1,1,1,0,0,0,0,0,0,0,0,0,3,4,117,space,4.8072698999999375,None,0,0,1.3923782000001665,None,space,3.1409740999997666,None,0,0,0,0,,,,,10,3,83,2,323.8095188000002,,,,,,,,,,,,,,,,,,,,,323.7942843000001,323.8095188000002,324.29336220000005,324.2986589000002,324.31375590000016,325.70945930000016,,,,,325.70964030000005,325.72511810000015,325.9254894999999,325.90932569999995,324.31375590000016,,,,,,,,0,0,1.3923782000001665,None,,,,,,,,844,21,M,R,2026-02-18_11h58.48.089,VisualSearch_2526_3,,2025.2.4,2026-02-18 11h58.48.315903 +0100,
tilted.xlsx,The target is tilted.,117,84,4,10,1,0,0,0,0,0,0,0,0,0,0,0,0,0,1,117,space,4.8072698999999375,None,0,0,0.9621052000002237,None,space,3.1409740999997666,None,0,0,0,0,,,,,10,4,84,3,325.9254894999999,,,,,,,,,,,,,,,,,,,,,325.91017880000027,325.9254894999999,326.40888600000017,326.4141730000001,326.42949720000024,327.3931633000002,,,,,327.3933990999999,327.4081940000001,327.6081924,327.5922356000001,326.42949720000024,,,,,,,,0,0,0.9621052000002237,None,,,,,,,,844,21,M,R,2026-02-18_11h58.48.089,VisualSearch_2526_3,,2025.2.4,2026-02-18 11h58.48.315903 +0100,
tilted.xlsx,The target is tilted.,117,85,5,10,0,0,0,0,0,0,0,0,0,0,0,0,1,1,1,117,space,4.8072698999999375,None,0,1,1.5655463000002783,None,space,3.1409740999997666,None,0,0,0,0,,,,,10,5,85,7,327.6081924,,,,,,,,,,,,,,,,,,,,,327.5930601,327.6081924,328.09168180000006,328.0970024000003,328.11301090000006,329.6919823000003,,,,,329.69217449999996,329.70751020000034,329.9073693,329.8911299000001,328.11301090000006,,,,,,,,0,1,1.5655463000002783,None,,,,,,,,844,21,M,R,2026-02-18_11h58.48.089,VisualSearch_2526_3,,2025.2.4,2026-02-18 11h58.48.315903 +0100,
tilted.xlsx,The target is tilted.,117,86,6,10,0,1,1,1,0,0,0,0,0,0,0,0,1,3,4,117,space,4.8072698999999375,None,0,1,1.716309700000238,None,space,3.1409740999997666,None,0,0,0,0,,,,,10,6,86,6,329.9073693,,,,,,,,,,,,,,,,,,,,,329.89196600000014,329.9073693,330.3912866999999,330.3966378,330.41260520000014,332.1406372000001,,,,,332.14077590000034,332.15628970000034,332.3566622000003,332.3402245000002,330.41260520000014,,,,,,,,0,1,1.716309700000238,None,,,,,,,,844,21,M,R,2026-02-18_11h58.48.089,VisualSearch_2526_3,,2025.2.4,2026-02-18 11h58.48.315903 +0100,
tilted.xlsx,The target is tilted.,117,87,7,10,1,1,1,1,1,1,1,1,0,0,0,0,0,7,8,117,space,4.8072698999999375,None,1,1,2.403246599999875,None,space,3.1409740999997666,None,0,0,0,0,,,,,10,7,87,1,332.3566622000003,,,,,,,,,,,,,,,,,,,,,332.3410337,332.3566622000003,332.8404071,332.8458717000003,332.86244179999994,335.2727654,,,,,335.2728769,335.2889651999999,335.4887483000002,335.4725301000003,332.86244179999994,,,,,,,,1,1,2.403246599999875,None,,,,,,,,844,21,M,R,2026-02-18_11h58.48.089,VisualSearch_2526_3,,2025.2.4,2026-02-18 11h58.48.315903 +0100,
tilted.xlsx,The target is tilted.,117,88,0,11,0,1,1,1,1,1,1,1,0,0,0,0,1,7,8,117,space,4.8072698999999375,None,1,0,3.725029000000177,None,space,3.1409740999997666,None,0,0,0,0,,,,,11,0,88,5,335.4887483000002,,,,,,,,,,,,,,,,,,,,,335.4733361000003,335.4887483000002,335.9727732000001,335.9770589,335.9886815,339.7212698000003,,,,,339.7214283000003,339.7372249,339.93742550000024,339.92150519999996,335.9886815,,,,,,,,1,0,3.725029000000177,None,,,,,,,,844,21,M,R,2026-02-18_11h58.48.089,VisualSearch_2526_3,,2025.2.4,2026-02-18 11h58.48.315903 +0100,
tilted.xlsx,The target is tilted.,117,89,1,11,1,1,1,1,1,1,1,1,1,1,1,1,0,11,12,117,space,4.8072698999999375,None,1,1,1.8821882000002006,None,space,3.1409740999997666,None,0,0,0,0,,,,,11,1,89,0,339.93742550000024,,,,,,,,,,,,,,,,,,,,,339.9223243000001,339.93742550000024,340.42117740000003,340.42653960000007,340.44118160000016,342.3373700000002,,,,,342.33748490000016,342.35326440000017,342.55339010000034,342.5372152,340.44118160000016,,,,,,,,1,1,1.8821882000002006,None,,,,,,,,844,21,M,R,2026-02-18_11h58.48.089,VisualSearch_2526_3,,2025.2.4,2026-02-18 11h58.48.315903 +0100,
tilted.xlsx,The target is tilted.,117,90,2,11,1,0,0,0,0,0,0,0,0,0,0,0,0,0,1,117,space,4.8072698999999375,None,0,0,0.8846595999998499,None,space,3.1409740999997666,None,0,0,0,0,,,,,11,2,90,3,342.55339010000034,,,,,,,,,,,,,,,,,,,,,342.5381173999999,342.55339010000034,343.0368558,343.04227519999995,343.05650289999994,343.95349840000017,,,,,343.95363190000035,343.9695004,344.1694798000003,344.15285459999996,343.05650289999994,,,,,,,,0,0,0.8846595999998499,None,,,,,,,,844,21,M,R,2026-02-18_11h58.48.089,VisualSearch_2526_3,,2025.2.4,2026-02-18 11h58.48.315903 +0100,
tilted.xlsx,The target is tilted.,117,91,3,11,1,1,1,1,1,1,1,1,0,0,0,0,0,7,8,117,space,4.8072698999999375,None,0,0,3.1413563000000977,None,space,3.1409740999997666,None,0,0,0,0,,,,,11,3,91,1,344.1694798000003,,,,,,,,,,,,,,,,,,,,,344.1536332999999,344.1694798000003,344.6533198000002,344.65863390000004,344.67242179999994,347.8192411,,,,,347.8194782999999,347.8349780000003,348.03496840000025,348.0186883000001,344.67242179999994,,,,,,,,0,0,3.1413563000000977,None,,,,,,,,844,21,M,R,2026-02-18_11h58.48.089,VisualSearch_2526_3,,2025.2.4,2026-02-18 11h58.48.315903 +0100,
tilted.xlsx,The target is tilted.,117,92,4,11,1,1,1,1,0,0,0,0,0,0,0,0,0,3,4,117,space,4.8072698999999375,None,0,0,1.469977100000051,None,space,3.1409740999997666,None,0,0,0,0,,,,,11,4,92,2,348.03496840000025,,,,,,,,,,,,,,,,,,,,,348.0195563000002,348.03496840000025,348.5186977000003,348.5239501000001,348.5390451000003,350.01810250000017,,,,,350.01825290000033,350.0338225999999,350.23421310000003,350.2179650000003,348.5390451000003,,,,,,,,0,0,1.469977100000051,None,,,,,,,,844,21,M,R,2026-02-18_11h58.48.089,VisualSearch_2526_3,,2025.2.4,2026-02-18 11h58.48.315903 +0100,
tilted.xlsx,The target is tilted.,117,93,5,11,0,1,1,1,0,0,0,0,0,0,0,0,1,3,4,117,space,4.8072698999999375,None,0,1,1.6552567999997336,None,space,3.1409740999997666,None,0,0,0,0,,,,,11,5,93,6,350.23421310000003,,,,,,,,,,,,,,,,,,,,,350.21881870000016,350.23421310000003,350.71766960000014,350.7229937000002,350.7383453000002,352.4007295000001,,,,,352.4008601999999,352.4165581000002,352.61675650000006,352.60065090000035,350.7383453000002,,,,,,,,0,1,1.6552567999997336,None,,,,,,,,844,21,M,R,2026-02-18_11h58.48.089,VisualSearch_2526_3,,2025.2.4,2026-02-18 11h58.48.315903 +0100,
tilted.xlsx,The target is tilted.,117,94,6,11,0,1,1,1,1,1,1,1,1,1,1,1,1,11,12,117,space,4.8072698999999375,None,1,0,5.486786599999959,None,space,3.1409740999997666,None,0,0,0,0,,,,,11,6,94,4,352.61675650000006,,,,,,,,,,,,,,,,,,,,,352.6014736000002,352.61675650000006,353.1006010000001,353.10582109999996,353.12261190000027,358.6153111000003,,,,,358.6154481000003,358.6313118000003,358.8313862,358.81522730000006,353.12261190000027,,,,,,,,1,0,5.486786599999959,None,,,,,,,,844,21,M,R,2026-02-18_11h58.48.089,VisualSearch_2526_3,,2025.2.4,2026-02-18 11h58.48.315903 +0100,
tilted.xlsx,The target is tilted.,117,95,7,11,0,0,0,0,0,0,0,0,0,0,0,0,1,1,1,117,space,4.8072698999999375,None,0,1,1.0705609999999979,None,space,3.1409740999997666,None,0,0,0,0,,,,,11,7,95,7,358.8313862,,,,,,,,,,,,,,,,,,,,,358.8160723000001,358.8313862,359.31483720000006,359.3201968000003,359.3343990000003,360.4148828000002,,,,,360.4150288000001,360.43068970000013,360.63072409999995,360.6146275000001,359.3343990000003,,,,,,,,0,1,1.0705609999999979,None,,,,,,,,844,21,M,R,2026-02-18_11h58.48.089,VisualSearch_2526_3,,2025.2.4,2026-02-18 11h58.48.315903 +0100,
tilted.xlsx,The target is tilted.,117,96,0,12,0,1,1,1,0,0,0,0,0,0,0,0,1,3,4,117,space,4.8072698999999375,None,0,1,1.5454925999997613,None,space,3.1409740999997666,None,0,0,0,0,,,,,12,0,96,6,360.63072409999995,,,,,,,,,,,,,,,,,,,,,360.6154867,360.63072409999995,361.11464730000034,361.12008330000026,361.1304811,362.68115149999994,,,,,362.68127700000014,362.69648529999995,362.89663710000013,362.8802407000003,361.1304811,,,,,,,,0,1,1.5454925999997613,None,,,,,,,,844,21,M,R,2026-02-18_11h58.48.089,VisualSearch_2526_3,,2025.2.4,2026-02-18 11h58.48.315903 +0100,
tilted.xlsx,The target is tilted.,117,97,1,12,0,0,0,0,0,0,0,0,0,0,0,0,1,1,1,117,space,4.8072698999999375,None,0,1,1.069738800000323,None,space,3.1409740999997666,None,0,0,0,0,,,,,12,1,97,7,362.89663710000013,,,,,,,,,,,,,,,,,,,,,362.88105670000004,362.89663710000013,363.3805554999999,363.38598360000015,363.39987659999997,364.480783,,,,,364.4810295000002,364.4958409000001,364.69585959999995,364.67996200000016,363.39987659999997,,,,,,,,0,1,1.069738800000323,None,,,,,,,,844,21,M,R,2026-02-18_11h58.48.089,VisualSearch_2526_3,,2025.2.4,2026-02-18 11h58.48.315903 +0100,
tilted.xlsx,The target is tilted.,117,98,2,12,0,1,1,1,1,1,1,1,1,1,1,1,1,11,12,117,space,4.8072698999999375,None,1,0,2.3703919999998107,None,space,3.1409740999997666,None,0,0,0,0,,,,,12,2,98,4,364.69585959999995,,,,,,,,,,,,,,,,,,,,,364.6808208000002,364.69585959999995,365.17981260000033,365.18525260000024,365.1989033,367.5791199,,,,,367.57926510000016,367.5949372,367.7951098000003,367.7788972000003,365.1989033,,,,,,,,1,0,2.3703919999998107,None,,,,,,,,844,21,M,R,2026-02-18_11h58.48.089,VisualSearch_2526_3,,2025.2.4,2026-02-18 11h58.48.315903 +0100,
tilted.xlsx,The target is tilted.,117,99,3,12,1,0,0,0,0,0,0,0,0,0,0,0,0,0,1,117,space,4.8072698999999375,None,0,0,0.771428300000025,None,space,3.1409740999997666,None,0,0,0,0,,,,,12,3,99,3,367.7951098000003,,,,,,,,,,,,,,,,,,,,,367.77974399999994,367.7951098000003,368.27916600000026,368.2843892000001,368.30443520000017,369.0790985000003,,,,,369.0793014000001,369.0945435000003,369.294629,369.27848029999996,368.30443520000017,,,,,,,,0,0,0.771428300000025,None,,,,,,,,844,21,M,R,2026-02-18_11h58.48.089,VisualSearch_2526_3,,2025.2.4,2026-02-18 11h58.48.315903 +0100,
tilted.xlsx,The target is tilted.,117,100,4,12,0,1,1,1,1,1,1,1,0,0,0,0,1,7,8,117,space,4.8072698999999375,None,1,0,2.5025132000000667,None,space,3.1409740999997666,None,0,0,0,0,,,,,12,4,100,5,369.294629,,,,,,,,,,,,,,,,,,,,,369.2793188999999,369.294629,369.7785071000003,369.78378250000014,369.80032800000026,372.3107090000003,,,,,372.31084230000033,372.3264495000003,372.5265351000003,372.51083900000003,369.80032800000026,,,,,,,,1,0,2.5025132000000667,None,,,,,,,,844,21,M,R,2026-02-18_11h58.48.089,VisualSearch_2526_3,,2025.2.4,2026-02-18 11h58.48.315903 +0100,
tilted.xlsx,The target is tilted.,117,101,5,12,1,1,1,1,1,1,1,1,1,1,1,1,0,11,12,117,space,4.8072698999999375,None,1,1,2.718536700000186,None,space,3.1409740999997666,None,0,0,0,0,,,,,12,5,101,0,372.5265351000003,,,,,,,,,,,,,,,,,,,,,372.51166090000015,372.5265351000003,373.0103673000003,373.01573970000027,373.0324687000002,375.76028550000046,,,,,375.76044490000004,375.7758921000004,375.97577309999997,375.9597093000002,373.0324687000002,,,,,,,,1,1,2.718536700000186,None,,,,,,,,844,21,M,R,2026-02-18_11h58.48.089,VisualSearch_2526_3,,2025.2.4,2026-02-18 11h58.48.315903 +0100,
tilted.xlsx,The target is tilted.,117,102,6,12,1,1,1,1,0,0,0,0,0,0,0,0,0,3,4,117,space,4.8072698999999375,None,0,0,1.2806349000002228,None,space,3.1409740999997666,None,0,0,0,0,,,,,12,6,102,2,375.97577309999997,,,,,,,,,,,,,,,,,,,,,375.9606564000005,375.97577309999997,376.4595562000004,376.4649304000004,376.47892310000043,377.77551779999976,,,,,377.77561380000043,377.7916403999998,377.99177750000035,377.9757970999999,376.47892310000043,,,,,,,,0,0,1.2806349000002228,None,,,,,,,,844,21,M,R,2026-02-18_11h58.48.089,VisualSearch_2526_3,,2025.2.4,2026-02-18 11h58.48.315903 +0100,
tilted.xlsx,The target is tilted.,117,103,7,12,1,1,1,1,1,1,1,1,0,0,0,0,0,7,8,117,space,4.8072698999999375,None,1,1,1.4226042000000234,None,space,3.1409740999997666,None,0,0,0,0,,,,,12,7,103,1,377.99177750000035,,,,,,,,,,,,,,,,,,,,,377.9765908999998,377.99177750000035,378.4755525999999,378.4808492000002,378.4948972000002,379.9256605999999,,,,,379.92590070000006,379.9411293000003,380.1404461000002,380.12473820000014,378.4948972000002,,,,,,,,1,1,1.4226042000000234,None,,,,,,,,844,21,M,R,2026-02-18_11h58.48.089,VisualSearch_2526_3,,2025.2.4,2026-02-18 11h58.48.315903 +0100,
tilted.xlsx,The target is tilted.,117,104,0,13,0,1,1,1,1,1,1,1,1,1,1,1,1,11,12,117,space,4.8072698999999375,None,1,0,2.1016466000000946,None,space,3.1409740999997666,None,0,0,0,0,,,,,13,0,104,4,380.1404461000002,,,,,,,,,,,,,,,,,,,,,380.1253826000002,380.1404461000002,380.6248840999997,380.6303337999998,380.64653499999986,382.7570704,,,,,382.75717749999967,382.77334040000005,382.9735387999999,382.9569115000004,380.64653499999986,,,,,,,,1,0,2.1016466000000946,None,,,,,,,,844,21,M,R,2026-02-18_11h58.48.089,VisualSearch_2526_3,,2025.2.4,2026-02-18 11h58.48.315903 +0100,
tilted.xlsx,The target is tilted.,117,105,1,13,1,1,1,1,1,1,1,1,1,1,1,1,0,11,12,117,space,4.8072698999999375,None,0,0,4.569838999999774,None,space,3.1409740999997666,None,0,0,0,0,,,,,13,1,105,0,382.9735387999999,,,,,,,,,,,,,,,,,,,,,382.95775930000036,382.9735387999999,383.4572834999999,383.46262730000035,383.47834220000004,388.0564224,,,,,388.05668160000005,388.0715763999997,388.27171199999975,388.25569580000047,383.47834220000004,,,,,,,,0,0,4.569838999999774,None,,,,,,,,844,21,M,R,2026-02-18_11h58.48.089,VisualSearch_2526_3,,2025.2.4,2026-02-18 11h58.48.315903 +0100,
tilted.xlsx,The target is tilted.,117,106,2,13,1,1,1,1,0,0,0,0,0,0,0,0,0,3,4,117,space,4.8072698999999375,None,0,0,1.25824509999984,None,space,3.1409740999997666,None,0,0,0,0,,,,,13,2,106,2,388.27171199999975,,,,,,,,,,,,,,,,,,,,,388.25664159999997,388.27171199999975,388.75554980000015,388.76079780000055,388.77744260000054,390.03908200000023,,,,,390.03933770000003,390.0541291999998,390.2544834,390.23820160000014,388.77744260000054,,,,,,,,0,0,1.25824509999984,None,,,,,,,,844,21,M,R,2026-02-18_11h58.48.089,VisualSearch_2526_3,,2025.2.4,2026-02-18 11h58.48.315903 +0100,
tilted.xlsx,The target is tilted.,117,107,3,13,1,0,0,0,0,0,0,0,0,0,0,0,0,0,1,117,space,4.8072698999999375,None,0,0,0.7480895999997301,None,space,3.1409740999997666,None,0,0,0,0,,,,,13,3,107,3,390.2544834,,,,,,,,,,,,,,,,,,,,,390.23913150000044,390.2544834,390.73780780000016,390.7430610000001,390.75853220000045,391.52187070000036,,,,,391.52212210000016,391.5369990999998,391.7372352000002,391.7212354000003,390.75853220000045,,,,,,,,0,0,0.7480895999997301,None,,,,,,,,844,21,M,R,2026-02-18_11h58.48.089,VisualSearch_2526_3,,2025.2.4,2026-02-18 11h58.48.315903 +0100,
tilted.xlsx,The target is tilted.,117,108,4,13,1,1,1,1,1,1,1,1,0,0,0,0,0,7,8,117,space,4.8072698999999375,None,1,1,3.6836278999999195,None,space,3.1409740999997666,None,0,0,0,0,,,,,13,4,108,1,391.7372352000002,,,,,,,,,,,,,,,,,,,,,391.72205080000003,391.7372352000002,392.2209634000001,392.2262614000001,392.2398697999997,395.93647320000036,,,,,395.93663209999977,395.9524564000003,396.1518213999998,396.13564099999985,392.2398697999997,,,,,,,,1,1,3.6836278999999195,None,,,,,,,,844,21,M,R,2026-02-18_11h58.48.089,VisualSearch_2526_3,,2025.2.4,2026-02-18 11h58.48.315903 +0100,
tilted.xlsx,The target is tilted.,117,109,5,13,0,1,1,1,1,1,1,1,0,0,0,0,1,7,8,117,space,4.8072698999999375,None,0,1,2.7497740999997404,None,space,3.1409740999997666,None,0,0,0,0,,,,,13,5,109,5,396.1518213999998,,,,,,,,,,,,,,,,,,,,,396.13614640000014,396.1518213999998,396.63637199999994,396.6416976999999,396.6576348999997,399.4186380000001,,,,,399.4187853000003,399.43461389999993,399.6347103999997,399.61851360000037,396.6576348999997,,,,,,,,0,1,2.7497740999997404,None,,,,,,,,844,21,M,R,2026-02-18_11h58.48.089,VisualSearch_2526_3,,2025.2.4,2026-02-18 11h58.48.315903 +0100,
tilted.xlsx,The target is tilted.,117,110,6,13,0,1,1,1,0,0,0,0,0,0,0,0,1,3,4,117,space,4.8072698999999375,None,0,1,1.3084306000000652,None,space,3.1409740999997666,None,0,0,0,0,,,,,13,6,110,6,399.6347103999997,,,,,,,,,,,,,,,,,,,,,399.6193991,399.6347103999997,400.11843899999985,400.1237235999997,400.1343588,401.45130210000025,,,,,401.4514396000004,401.4671672000004,401.6673593000005,401.6515085000001,400.1343588,,,,,,,,0,1,1.3084306000000652,None,,,,,,,,844,21,M,R,2026-02-18_11h58.48.089,VisualSearch_2526_3,,2025.2.4,2026-02-18 11h58.48.315903 +0100,
tilted.xlsx,The target is tilted.,117,111,7,13,0,0,0,0,0,0,0,0,0,0,0,0,1,1,1,117,space,4.8072698999999375,None,0,1,0.9025258000001486,None,space,3.1409740999997666,None,0,0,0,0,,,,,13,7,111,7,401.6673593000005,,,,,,,,,,,,,,,,,,,,,401.65234990000044,401.6673593000005,402.1505186000004,402.1534413999998,402.1671151999999,403.08434970000053,,,,,403.08452320000015,403.1001415999999,403.29975939999986,403.2840139,402.1671151999999,,,,,,,,0,1,0.9025258000001486,None,,,,,,,,844,21,M,R,2026-02-18_11h58.48.089,VisualSearch_2526_3,,2025.2.4,2026-02-18 11h58.48.315903 +0100,
tilted.xlsx,The target is tilted.,117,112,0,14,0,1,1,1,0,0,0,0,0,0,0,0,1,3,4,117,space,4.8072698999999375,None,0,1,1.026657599999453,None,space,3.1409740999997666,None,0,0,0,0,,,,,14,0,112,6,403.29975939999986,,,,,,,,,,,,,,,,,,,,,403.2848912999998,403.29975939999986,403.7840591000004,403.78938629999993,403.80342440000004,404.83343160000004,,,,,404.8336254000005,404.8495794999999,405.04963190000035,405.0335801000001,403.80342440000004,,,,,,,,0,1,1.026657599999453,None,,,,,,,,844,21,M,R,2026-02-18_11h58.48.089,VisualSearch_2526_3,,2025.2.4,2026-02-18 11h58.48.315903 +0100,
tilted.xlsx,The target is tilted.,117,113,1,14,1,1,1,1,1,1,1,1,1,1,1,1,0,11,12,117,space,4.8072698999999375,None,1,1,3.3774734999997236,None,space,3.1409740999997666,None,0,0,0,0,,,,,14,1,113,0,405.04963190000035,,,,,,,,,,,,,,,,,,,,,405.03448260000005,405.04963190000035,405.5334542999999,405.53888259999985,405.55280440000024,408.9329359000003,,,,,408.9331781000001,408.94807740000033,409.1482057000003,409.1318633000001,405.55280440000024,,,,,,,,1,1,3.3774734999997236,None,,,,,,,,844,21,M,R,2026-02-18_11h58.48.089,VisualSearch_2526_3,,2025.2.4,2026-02-18 11h58.48.315903 +0100,
tilted.xlsx,The target is tilted.,117,114,2,14,1,1,1,1,0,0,0,0,0,0,0,0,0,3,4,117,space,4.8072698999999375,None,0,0,0.783675000000585,None,space,3.1409740999997666,None,0,0,0,0,,,,,14,2,114,2,409.1482057000003,,,,,,,,,,,,,,,,,,,,,409.1326939999999,409.1482057000003,409.6318656000003,409.63728170000013,409.6502029000003,410.44898620000004,,,,,410.4492209,410.46409349999976,410.66441360000044,410.64800540000033,409.6502029000003,,,,,,,,0,0,0.783675000000585,None,,,,,,,,844,21,M,R,2026-02-18_11h58.48.089,VisualSearch_2526_3,,2025.2.4,2026-02-18 11h58.48.315903 +0100,
tilted.xlsx,The target is tilted.,117,115,3,14,1,1,1,1,1,1,1,1,0,0,0,0,0,7,8,117,space,4.8072698999999375,None,0,0,2.152231699999902,None,space,3.1409740999997666,None,0,0,0,0,,,,,14,3,115,1,410.66441360000044,,,,,,,,,,,,,,,,,,,,,410.6488485,410.66441360000044,411.14717550000023,411.14959270000054,411.1635898000004,413.3305356000001,,,,,413.3306217999998,413.34661310000047,413.5466617000002,413.5306863000005,411.1635898000004,,,,,,,,0,0,2.152231699999902,None,,,,,,,,844,21,M,R,2026-02-18_11h58.48.089,VisualSearch_2526_3,,2025.2.4,2026-02-18 11h58.48.315903 +0100,
tilted.xlsx,The target is tilted.,117,116,4,14,0,0,0,0,0,0,0,0,0,0,0,0,1,1,1,117,space,4.8072698999999375,None,0,1,0.8985384999996313,None,space,3.1409740999997666,None,0,0,0,0,,,,,14,4,116,7,413.5466617000002,,,,,,,,,,,,,,,,,,,,,413.5315178000001,413.5466617000002,414.0305994999999,414.03688390000025,414.05396139999993,414.9633463,,,,,414.9635459000001,414.9795817000004,415.1796535000003,415.16368220000004,414.05396139999993,,,,,,,,0,1,0.8985384999996313,None,,,,,,,,844,21,M,R,2026-02-18_11h58.48.089,VisualSearch_2526_3,,2025.2.4,2026-02-18 11h58.48.315903 +0100,
tilted.xlsx,The target is tilted.,117,117,5,14,0,1,1,1,1,1,1,1,0,0,0,0,1,7,8,117,space,4.8072698999999375,None,1,0,2.3643965000001117,None,space,3.1409740999997666,None,0,0,0,0,,,,,14,5,117,5,415.1796535000003,,,,,,,,,,,,,,,,,,,,,415.16459699999996,415.1796535000003,415.6634702000001,415.6689145,415.6846301000005,418.0626801999997,,,,,418.06286610000006,418.07832680000047,418.2785541000003,418.2624940000005,415.6846301000005,,,,,,,,1,0,2.3643965000001117,None,,,,,,,,844,21,M,R,2026-02-18_11h58.48.089,VisualSearch_2526_3,,2025.2.4,2026-02-18 11h58.48.315903 +0100,
tilted.xlsx,The target is tilted.,117,118,6,14,1,0,0,0,0,0,0,0,0,0,0,0,0,0,1,117,space,4.8072698999999375,None,0,0,0.782438600000205,None,space,3.1409740999997666,None,0,0,0,0,,,,,14,6,118,3,418.2785541000003,,,,,,,,,,,,,,,,,,,,,418.26334080000015,418.2785541000003,418.7623991999999,418.76775050000015,418.78338020000047,419.5786392,,,,,419.5788058999997,419.5946113,419.7943941000003,419.778808,418.78338020000047,,,,,,,,0,0,0.782438600000205,None,,,,,,,,844,21,M,R,2026-02-18_11h58.48.089,VisualSearch_2526_3,,2025.2.4,2026-02-18 11h58.48.315903 +0100,
tilted.xlsx,The target is tilted.,117,119,7,14,0,1,1,1,1,1,1,1,1,1,1,1,1,11,12,117,space,4.8072698999999375,None,1,0,2.633432300000095,None,space,3.1409740999997666,None,0,0,0,0,,,,,14,7,119,4,419.7943941000003,,,,,,,,,,,,,,,,,,,,,419.7796573000005,419.7943941000003,420.27849760000026,420.2837356,420.30157620000045,422.94461580000007,,,,,422.9447912000005,422.96005520000017,423.16661790000035,423.1438029000001,420.30157620000045,,,,,,,,1,0,2.633432300000095,None,,,,,,,,844,21,M,R,2026-02-18_11h58.48.089,VisualSearch_2526_3,,2025.2.4,2026-02-18 11h58.48.315903 +0100,
tilted.xlsx,The target is tilted.,117,0,0,0,,,,,,,,,,,,,,,,,space,4.8072698999999375,None,,,,,space,3.1409740999997666,None,0,0,0,0,,,,,,,,,,,,,,,,,,,,,,,,,,,,,,,,,,,,,,,,,,,,,,,,,,,,,,,,,,,,,,,844,21,M,R,2026-02-18_11h58.48.089,VisualSearch_2526_3,,2025.2.4,2026-02-18 11h58.48.315903 +0100,
vertical.xlsx,The target is tilted.,135,0,0,0,0,0,0,0,0,0,0,0,0,0,0,0,1,1,1,135,space,8.537312100000236,None,0,1,0.7490133999999671,None,,,,0,1,1,1,0,0,0,7,,,,,431.74128160000055,,,,,,,,,,,,,,,423.16661790000035,423.16661790000035,423.16661790000035,space,8.537312100000236,None,431.73682650000046,431.74128160000055,432.2239483000003,432.2262195000003,432.2405353000004,432.9916095999997,0,1,0.7490133999999671,None,432.9918482000003,433.0067660000004,433.20680510000057,433.19064440000056,,,,,,,,,,,,,,,,,,,,844,21,M,R,2026-02-18_11h58.48.089,VisualSearch_2526_3,,2025.2.4,2026-02-18 11h58.48.315903 +0100,
vertical.xlsx,The target is tilted.,135,1,1,0,1,0,0,0,0,0,0,0,0,0,0,0,0,0,1,135,space,8.537312100000236,None,1,1,0.580294800000047,None,,,,0,1,1,1,0,1,1,3,,,,,433.20680510000057,,,,,,,,,,,,,,,,,,,,,433.19138999999996,433.20680510000057,433.6908191000002,433.69589520000045,433.7066144999999,434.29027719999976,1,1,0.580294800000047,None,434.2904153999998,434.3065525000002,434.5067012999998,434.49067860000014,433.7066144999999,,,,,,,,,,,,,,,,,,,844,21,M,R,2026-02-18_11h58.48.089,VisualSearch_2526_3,,2025.2.4,2026-02-18 11h58.48.315903 +0100,
vertical.xlsx,The target is tilted.,135,2,2,0,1,1,1,1,1,1,1,1,0,0,0,0,0,7,8,135,space,8.537312100000236,None,1,1,0.7848408999998355,None,,,,0,1,1,1,0,2,2,1,,,,,434.5067012999998,,,,,,,,,,,,,,,,,,,,,434.4914163000003,434.5067012999998,434.99036220000016,434.99543059999996,435.00602249999974,435.8063825999998,1,1,0.7848408999998355,None,435.8064715999999,435.8225884000003,436.0228648000002,436.00685539999995,435.00602249999974,,,,,,,,,,,,,,,,,,,844,21,M,R,2026-02-18_11h58.48.089,VisualSearch_2526_3,,2025.2.4,2026-02-18 11h58.48.315903 +0100,
vertical.xlsx,The target is tilted.,135,3,3,0,1,1,1,1,1,1,1,1,1,1,1,1,0,11,12,135,space,8.537312100000236,None,1,1,1.5120513000001665,None,,,,0,1,1,1,0,3,3,0,,,,,436.0228648000002,,,,,,,,,,,,,,,,,,,,,436.00759860000016,436.0228648000002,436.5066526999999,436.51190320000023,436.5275421000006,438.05578500000047,1,1,1.5120513000001665,None,438.05587430000014,438.07177950000005,438.27170320000005,438.2560518999999,436.5275421000006,,,,,,,,,,,,,,,,,,,844,21,M,R,2026-02-18_11h58.48.089,VisualSearch_2526_3,,2025.2.4,2026-02-18 11h58.48.315903 +0100,
vertical.xlsx,The target is tilted.,135,4,4,0,0,1,1,1,1,1,1,1,0,0,0,0,1,7,8,135,space,8.537312100000236,None,0,1,1.5636376000002201,None,,,,0,1,1,1,0,4,4,5,,,,,438.27170320000005,,,,,,,,,,,,,,,,,,,,,438.2568146000003,438.27170320000005,438.75584640000034,438.7612164000002,438.77763419999974,440.35535100000016,0,1,1.5636376000002201,None,440.3554935000002,440.3711056000002,440.57096770000044,440.5552914,438.77763419999974,,,,,,,,,,,,,,,,,,,844,21,M,R,2026-02-18_11h58.48.089,VisualSearch_2526_3,,2025.2.4,2026-02-18 11h58.48.315903 +0100,
vertical.xlsx,The target is tilted.,135,5,5,0,0,1,1,1,0,0,0,0,0,0,0,0,1,3,4,135,space,8.537312100000236,None,0,1,0.8512792999999874,None,,,,0,1,1,1,0,5,5,6,,,,,440.57096770000044,,,,,,,,,,,,,,,,,,,,,440.5560310000001,440.57096770000044,441.05498369999987,441.06025020000016,441.07826399999976,441.9386891000004,0,1,0.8512792999999874,None,441.9389164000004,441.9539418000004,442.15414789999977,442.1376072000003,441.07826399999976,,,,,,,,,,,,,,,,,,,844,21,M,R,2026-02-18_11h58.48.089,VisualSearch_2526_3,,2025.2.4,2026-02-18 11h58.48.315903 +0100,
vertical.xlsx,The target is tilted.,135,6,6,0,0,1,1,1,1,1,1,1,1,1,1,1,1,11,12,135,space,8.537312100000236,None,0,1,2.313798100000895,None,,,,0,1,1,1,0,6,6,4,,,,,442.15414789999977,,,,,,,,,,,,,,,,,,,,,442.1383734000001,442.15414789999977,442.6375657999997,442.6435217999997,442.65742560000035,444.9868793000005,0,1,2.313798100000895,None,444.98697470000025,445.0026527,445.2031605000002,445.18716159999985,442.65742560000035,,,,,,,,,,,,,,,,,,,844,21,M,R,2026-02-18_11h58.48.089,VisualSearch_2526_3,,2025.2.4,2026-02-18 11h58.48.315903 +0100,
vertical.xlsx,The target is tilted.,135,7,7,0,1,1,1,1,0,0,0,0,0,0,0,0,0,3,4,135,space,8.537312100000236,None,1,1,0.7955165000003035,None,,,,0,1,1,1,0,7,7,2,,,,,445.2031605000002,,,,,,,,,,,,,,,,,,,,,445.18790830000034,445.2031605000002,445.6868666999999,445.6921349000004,445.70613310000044,446.5039827999999,1,1,0.7955165000003035,None,446.50418790000003,446.51918079999996,446.71913420000055,446.70331330000045,445.70613310000044,,,,,,,,,,,,,,,,,,,844,21,M,R,2026-02-18_11h58.48.089,VisualSearch_2526_3,,2025.2.4,2026-02-18 11h58.48.315903 +0100,
vertical.xlsx,The target is tilted.,135,0,0,0,0,1,1,1,1,1,1,1,1,1,1,1,1,11,12,135,space,8.537312100000236,None,0,1,1.8134196000000884,None,space,2.1552953000000343,None,0,1,1,1,,,,,0,0,0,4,448.90727810000044,,,,,,,,,,,,,,,,,,,,,448.90336879999995,448.90727810000044,449.4020806999997,449.40749719999985,449.4232264000002,451.2521562000002,,,,,451.25235070000053,451.2675495000003,451.4675540999997,451.45164269999987,,446.7109387999999,446.71913420000055,446.71913420000055,448.8862248000005,space,2.1552953000000343,None,0,1,1.8134196000000884,None,,,,,,,,844,21,M,R,2026-02-18_11h58.48.089,VisualSearch_2526_3,,2025.2.4,2026-02-18 11h58.48.315903 +0100,
vertical.xlsx,The target is tilted.,135,1,1,0,0,0,0,0,0,0,0,0,0,0,0,0,1,1,1,135,space,8.537312100000236,None,0,1,0.619813599999361,None,space,2.1552953000000343,None,0,1,1,1,,,,,0,1,1,7,451.4675540999997,,,,,,,,,,,,,,,,,,,,,451.45245690000047,451.4675540999997,451.9515631000004,451.95690809999996,451.96972559999995,452.6014789000001,,,,,452.6015975,452.6169196999999,452.8170482000005,452.8012211000005,451.96972559999995,,,,,,,,0,1,0.619813599999361,None,,,,,,,,844,21,M,R,2026-02-18_11h58.48.089,VisualSearch_2526_3,,2025.2.4,2026-02-18 11h58.48.315903 +0100,
vertical.xlsx,The target is tilted.,135,2,2,0,1,1,1,1,0,0,0,0,0,0,0,0,0,3,4,135,space,8.537312100000236,None,0,0,0.6018195999995442,None,space,2.1552953000000343,None,0,1,1,1,,,,,0,2,2,2,452.8170482000005,,,,,,,,,,,,,,,,,,,,,452.8020191000005,452.8170482000005,453.3012884,453.3065883999998,453.3200004999999,453.93420479999986,,,,,453.9343504999997,453.9501998000005,454.15026670000043,454.1342523000003,453.3200004999999,,,,,,,,0,0,0.6018195999995442,None,,,,,,,,844,21,M,R,2026-02-18_11h58.48.089,VisualSearch_2526_3,,2025.2.4,2026-02-18 11h58.48.315903 +0100,
vertical.xlsx,The target is tilted.,135,3,3,0,0,1,1,1,1,1,1,1,0,0,0,0,1,7,8,135,space,8.537312100000236,None,0,1,2.0135276999999405,None,space,2.1552953000000343,None,0,1,1,1,,,,,0,3,3,5,454.15026670000043,,,,,,,,,,,,,,,,,,,,,454.13507519999985,454.15026670000043,454.63359480000054,454.6387672999999,454.65372449999995,456.6833077000001,,,,,456.6834509999999,456.69926510000005,456.89916429999994,456.88284360000034,454.65372449999995,,,,,,,,0,1,2.0135276999999405,None,,,,,,,,844,21,M,R,2026-02-18_11h58.48.089,VisualSearch_2526_3,,2025.2.4,2026-02-18 11h58.48.315903 +0100,
vertical.xlsx,The target is tilted.,135,4,4,0,0,1,1,1,0,0,0,0,0,0,0,0,1,3,4,135,space,8.537312100000236,None,0,1,0.6885739999997895,None,space,2.1552953000000343,None,0,1,1,1,,,,,0,4,4,6,456.89916429999994,,,,,,,,,,,,,,,,,,,,,456.8837193999998,456.89916429999994,457.3831734000005,457.38842879999993,457.4040009999999,458.0994040000005,,,,,458.0996044000003,458.11534589999974,458.31548680000014,458.29904220000026,457.4040009999999,,,,,,,,0,1,0.6885739999997895,None,,,,,,,,844,21,M,R,2026-02-18_11h58.48.089,VisualSearch_2526_3,,2025.2.4,2026-02-18 11h58.48.315903 +0100,
vertical.xlsx,The target is tilted.,135,5,5,0,1,1,1,1,1,1,1,1,1,1,1,1,0,11,12,135,space,8.537312100000236,None,1,1,1.539755700000569,None,space,2.1552953000000343,None,0,1,1,1,,,,,0,5,5,0,458.31548680000014,,,,,,,,,,,,,,,,,,,,,458.29986890000055,458.31548680000014,458.79928029999974,458.8046025000003,458.8191396000002,460.3654567000003,,,,,460.36560389999977,460.3814459000005,460.58136490000015,460.5652963000002,458.8191396000002,,,,,,,,1,1,1.539755700000569,None,,,,,,,,844,21,M,R,2026-02-18_11h58.48.089,VisualSearch_2526_3,,2025.2.4,2026-02-18 11h58.48.315903 +0100,
vertical.xlsx,The target is tilted.,135,6,6,0,1,1,1,1,1,1,1,1,0,0,0,0,0,7,8,135,space,8.537312100000236,None,1,1,1.2013656999997693,None,space,2.1552953000000343,None,0,1,1,1,,,,,0,6,6,1,460.58136490000015,,,,,,,,,,,,,,,,,,,,,460.56612289999975,460.58136490000015,461.06447350000053,461.06683799999973,461.0810055000002,462.2978367000005,,,,,462.29797810000036,462.3140524999999,462.5140485000002,462.49773280000045,461.0810055000002,,,,,,,,1,1,1.2013656999997693,None,,,,,,,,844,21,M,R,2026-02-18_11h58.48.089,VisualSearch_2526_3,,2025.2.4,2026-02-18 11h58.48.315903 +0100,
vertical.xlsx,The target is tilted.,135,7,7,0,1,0,0,0,0,0,0,0,0,0,0,0,0,0,1,135,space,8.537312100000236,None,1,1,0.5553540999999313,None,space,2.1552953000000343,None,0,1,1,1,,,,,0,7,7,3,462.5140485000002,,,,,,,,,,,,,,,,,,,,,462.4985643,462.5140485000002,462.99755540000024,463.00284610000017,463.01865799999996,463.58142510000016,,,,,463.5816626000005,463.5970054999998,463.79678330000024,463.7809594999999,463.01865799999996,,,,,,,,1,1,0.5553540999999313,None,,,,,,,,844,21,M,R,2026-02-18_11h58.48.089,VisualSearch_2526_3,,2025.2.4,2026-02-18 11h58.48.315903 +0100,
vertical.xlsx,The target is tilted.,135,8,0,1,0,1,1,1,1,1,1,1,1,1,1,1,1,11,12,135,space,8.537312100000236,None,0,1,2.6326703999993697,None,space,2.1552953000000343,None,0,1,1,1,,,,,1,0,8,4,463.79678330000024,,,,,,,,,,,,,,,,,,,,,463.7817606999997,463.79678330000024,464.2808538999998,464.2859373000001,464.29663830000027,466.93111769999996,,,,,466.9312914000002,466.9457792000003,467.1459328000001,467.1294474000006,464.29663830000027,,,,,,,,0,1,2.6326703999993697,None,,,,,,,,844,21,M,R,2026-02-18_11h58.48.089,VisualSearch_2526_3,,2025.2.4,2026-02-18 11h58.48.315903 +0100,
vertical.xlsx,The target is tilted.,135,9,1,1,1,1,1,1,0,0,0,0,0,0,0,0,0,3,4,135,space,8.537312100000236,None,1,1,0.9011960000007093,None,space,2.1552953000000343,None,0,1,1,1,,,,,1,1,9,2,467.1459328000001,,,,,,,,,,,,,,,,,,,,,467.13029540000025,467.1459328000001,467.6297169999998,467.6350772000005,467.6495474000003,468.5633909999997,,,,,468.56362809999973,468.5787828000002,468.77852359999997,468.7624418000005,467.6495474000003,,,,,,,,1,1,0.9011960000007093,None,,,,,,,,844,21,M,R,2026-02-18_11h58.48.089,VisualSearch_2526_3,,2025.2.4,2026-02-18 11h58.48.315903 +0100,
vertical.xlsx,The target is tilted.,135,10,2,1,1,1,1,1,1,1,1,1,0,0,0,0,0,7,8,135,space,8.537312100000236,None,1,1,1.2749483000006876,None,space,2.1552953000000343,None,0,1,1,1,,,,,1,2,10,1,468.77852359999997,,,,,,,,,,,,,,,,,,,,,468.7632673999997,468.77852359999997,469.2626535999998,469.2679913000002,469.284044,470.5618007000003,,,,,470.5619234000005,470.5778670999998,470.7780393000003,470.7615787000004,469.284044,,,,,,,,1,1,1.2749483000006876,None,,,,,,,,844,21,M,R,2026-02-18_11h58.48.089,VisualSearch_2526_3,,2025.2.4,2026-02-18 11h58.48.315903 +0100,
vertical.xlsx,The target is tilted.,135,11,3,1,0,1,1,1,1,1,1,1,0,0,0,0,1,7,8,135,space,8.537312100000236,None,1,0,0.8807189999997718,None,space,2.1552953000000343,None,0,1,1,1,,,,,1,3,11,5,470.7780393000003,,,,,,,,,,,,,,,,,,,,,470.76239480000004,470.7780393000003,471.26197310000043,471.2674130000005,471.28326949999973,472.17857640000057,,,,,472.1787962999997,472.1942535999997,472.39424880000024,472.37802509999983,471.28326949999973,,,,,,,,1,0,0.8807189999997718,None,,,,,,,,844,21,M,R,2026-02-18_11h58.48.089,VisualSearch_2526_3,,2025.2.4,2026-02-18 11h58.48.315903 +0100,
vertical.xlsx,The target is tilted.,135,12,4,1,0,0,0,0,0,0,0,0,0,0,0,0,1,1,1,135,space,8.537312100000236,None,0,1,0.6478399000006902,None,space,2.1552953000000343,None,0,1,1,1,,,,,1,4,12,7,472.39424880000024,,,,,,,,,,,,,,,,,,,,,472.3789373999998,472.39424880000024,472.87772010000026,472.8830327000005,472.89615030000004,473.56171540000014,,,,,473.5619625999998,473.57677429999967,473.7768127999998,473.76103990000047,472.89615030000004,,,,,,,,0,1,0.6478399000006902,None,,,,,,,,844,21,M,R,2026-02-18_11h58.48.089,VisualSearch_2526_3,,2025.2.4,2026-02-18 11h58.48.315903 +0100,
vertical.xlsx,The target is tilted.,135,13,5,1,1,1,1,1,1,1,1,1,1,1,1,1,0,11,12,135,space,8.537312100000236,None,1,1,1.3361910999992688,None,space,2.1552953000000343,None,0,1,1,1,,,,,1,5,13,0,473.7768127999998,,,,,,,,,,,,,,,,,,,,,473.7618514000005,473.7768127999998,474.26084360000004,474.2662177000002,474.2833369,475.62771539999994,,,,,475.62796789999993,475.6428168000002,475.8429216000004,475.82716080000046,474.2833369,,,,,,,,1,1,1.3361910999992688,None,,,,,,,,844,21,M,R,2026-02-18_11h58.48.089,VisualSearch_2526_3,,2025.2.4,2026-02-18 11h58.48.315903 +0100,
vertical.xlsx,The target is tilted.,135,14,6,1,1,0,0,0,0,0,0,0,0,0,0,0,0,0,1,135,space,8.537312100000236,None,1,1,0.5875764000002164,None,space,2.1552953000000343,None,0,1,1,1,,,,,1,6,14,3,475.8429216000004,,,,,,,,,,,,,,,,,,,,,475.8280315000002,475.8429216000004,476.32696680000026,476.3321312999997,476.34958689999985,476.9437699,,,,,476.94396340000003,476.95898940000006,477.1593287000005,477.1431472000004,476.34958689999985,,,,,,,,1,1,0.5875764000002164,None,,,,,,,,844,21,M,R,2026-02-18_11h58.48.089,VisualSearch_2526_3,,2025.2.4,2026-02-18 11h58.48.315903 +0100,
vertical.xlsx,The target is tilted.,135,15,7,1,0,1,1,1,0,0,0,0,0,0,0,0,1,3,4,135,space,8.537312100000236,None,0,1,0.6798436999997648,None,space,2.1552953000000343,None,0,1,1,1,,,,,1,7,15,6,477.1593287000005,,,,,,,,,,,,,,,,,,,,,477.14400680000017,477.1593287000005,477.64303670000027,477.6483352000005,477.6635134999997,478.3592454999998,,,,,478.35939860000053,478.3754968000003,478.57559910000055,478.55941090000033,477.6635134999997,,,,,,,,0,1,0.6798436999997648,None,,,,,,,,844,21,M,R,2026-02-18_11h58.48.089,VisualSearch_2526_3,,2025.2.4,2026-02-18 11h58.48.315903 +0100,
vertical.xlsx,The target is tilted.,135,16,0,2,1,1,1,1,0,0,0,0,0,0,0,0,0,3,4,135,space,8.537312100000236,None,1,1,0.5821085999996285,None,space,2.1552953000000343,None,0,1,1,1,,,,,2,0,16,2,478.57559910000055,,,,,,,,,,,,,,,,,,,,,478.56022380000013,478.57559910000055,479.05912439999975,479.0646010999999,479.07851310000024,479.6757970999997,,,,,479.6759417000003,479.69162640000013,479.8917733999997,479.87570810000034,479.07851310000024,,,,,,,,1,1,0.5821085999996285,None,,,,,,,,844,21,M,R,2026-02-18_11h58.48.089,VisualSearch_2526_3,,2025.2.4,2026-02-18 11h58.48.315903 +0100,
vertical.xlsx,The target is tilted.,135,17,1,2,0,1,1,1,1,1,1,1,1,1,1,1,1,11,12,135,space,8.537312100000236,None,0,1,2.0887289000002056,None,space,2.1552953000000343,None,0,1,1,1,,,,,2,1,17,4,479.8917733999997,,,,,,,,,,,,,,,,,,,,,479.87661730000036,479.8917733999997,480.3755501000005,480.38080340000033,480.3945241000001,482.4920211999997,,,,,482.4922611000002,482.50745430000006,482.70736560000023,482.6914088000003,480.3945241000001,,,,,,,,0,1,2.0887289000002056,None,,,,,,,,844,21,M,R,2026-02-18_11h58.48.089,VisualSearch_2526_3,,2025.2.4,2026-02-18 11h58.48.315903 +0100,
vertical.xlsx,The target is tilted.,135,18,2,2,1,1,1,1,1,1,1,1,1,1,1,1,0,11,12,135,space,8.537312100000236,None,1,1,1.573355100000299,None,space,2.1552953000000343,None,0,1,1,1,,,,,2,2,18,0,482.70736560000023,,,,,,,,,,,,,,,,,,,,,482.69287820000045,482.70736560000023,483.1912437000001,483.1965865000002,483.2116057000003,484.79117320000023,,,,,484.7913644,484.80640310000035,485.0064207000005,484.9905755,483.2116057000003,,,,,,,,1,1,1.573355100000299,None,,,,,,,,844,21,M,R,2026-02-18_11h58.48.089,VisualSearch_2526_3,,2025.2.4,2026-02-18 11h58.48.315903 +0100,
vertical.xlsx,The target is tilted.,135,19,3,2,0,1,1,1,0,0,0,0,0,0,0,0,1,3,4,135,space,8.537312100000236,None,0,1,0.6123864000001049,None,space,2.1552953000000343,None,0,1,1,1,,,,,2,3,19,6,485.0064207000005,,,,,,,,,,,,,,,,,,,,,484.9914434000002,485.0064207000005,485.4905440000002,485.4959482000004,485.5097697000001,486.12311339999997,,,,,486.12319370000023,486.1393184999997,486.33968319999985,486.3235848000004,485.5097697000001,,,,,,,,0,1,0.6123864000001049,None,,,,,,,,844,21,M,R,2026-02-18_11h58.48.089,VisualSearch_2526_3,,2025.2.4,2026-02-18 11h58.48.315903 +0100,
vertical.xlsx,The target is tilted.,135,20,4,2,1,1,1,1,1,1,1,1,0,0,0,0,0,7,8,135,space,8.537312100000236,None,0,0,1.1069448999996894,None,space,2.1552953000000343,None,0,1,1,1,,,,,2,4,20,1,486.33968319999985,,,,,,,,,,,,,,,,,,,,,486.3244771999998,486.33968319999985,486.8229988000003,486.82832899999994,486.8439325999998,487.9564870000004,,,,,487.95668019999994,487.9723673999997,488.1723913000005,488.15630469999996,486.8439325999998,,,,,,,,0,0,1.1069448999996894,None,,,,,,,,844,21,M,R,2026-02-18_11h58.48.089,VisualSearch_2526_3,,2025.2.4,2026-02-18 11h58.48.315903 +0100,
vertical.xlsx,The target is tilted.,135,21,5,2,1,0,0,0,0,0,0,0,0,0,0,0,0,0,1,135,space,8.537312100000236,None,1,1,0.7041023000001587,None,space,2.1552953000000343,None,0,1,1,1,,,,,2,5,21,3,488.1723913000005,,,,,,,,,,,,,,,,,,,,,488.1571174999999,488.1723913000005,488.65621139999985,488.6614877000002,488.6765728999999,489.3893515,,,,,489.3894878000001,489.40515099999993,489.60521849999986,489.5890771000004,488.6765728999999,,,,,,,,1,1,0.7041023000001587,None,,,,,,,,844,21,M,R,2026-02-18_11h58.48.089,VisualSearch_2526_3,,2025.2.4,2026-02-18 11h58.48.315903 +0100,
vertical.xlsx,The target is tilted.,135,22,6,2,0,1,1,1,1,1,1,1,0,0,0,0,1,7,8,135,space,8.537312100000236,None,0,1,1.4767795999996451,None,space,2.1552953000000343,None,0,1,1,1,,,,,2,6,22,5,489.60521849999986,,,,,,,,,,,,,,,,,,,,,489.5899416000002,489.60521849999986,490.08900710000034,490.0949472000002,490.1109538999999,491.5890820000004,,,,,491.5893090999998,491.60459189999983,491.8045165000003,491.7880881000001,490.1109538999999,,,,,,,,0,1,1.4767795999996451,None,,,,,,,,844,21,M,R,2026-02-18_11h58.48.089,VisualSearch_2526_3,,2025.2.4,2026-02-18 11h58.48.315903 +0100,
vertical.xlsx,The target is tilted.,135,23,7,2,0,0,0,0,0,0,0,0,0,0,0,0,1,1,1,135,space,8.537312100000236,None,0,1,0.5816021999999066,None,space,2.1552953000000343,None,0,1,1,1,,,,,2,7,23,7,491.8045165000003,,,,,,,,,,,,,,,,,,,,,491.7889642,491.8045165000003,492.2882761999999,492.2935570999998,492.3092065999999,492.90479030000006,,,,,492.90491569999995,492.9204719999998,493.12081060000037,493.1048516999999,492.3092065999999,,,,,,,,0,1,0.5816021999999066,None,,,,,,,,844,21,M,R,2026-02-18_11h58.48.089,VisualSearch_2526_3,,2025.2.4,2026-02-18 11h58.48.315903 +0100,
vertical.xlsx,The target is tilted.,135,24,0,3,1,1,1,1,1,1,1,1,1,1,1,1,0,11,12,135,space,8.537312100000236,None,1,1,1.2795471999997972,None,space,2.1552953000000343,None,0,1,1,1,,,,,3,0,24,0,493.12081060000037,,,,,,,,,,,,,,,,,,,,,493.10572460000003,493.12081060000037,493.6045529000003,493.6097920000002,493.6236750999997,494.9044869999998,,,,,494.9046932000001,494.9200471000004,495.1201609999998,495.10406539999985,493.6236750999997,,,,,,,,1,1,1.2795471999997972,None,,,,,,,,844,21,M,R,2026-02-18_11h58.48.089,VisualSearch_2526_3,,2025.2.4,2026-02-18 11h58.48.315903 +0100,
vertical.xlsx,The target is tilted.,135,25,1,3,0,1,1,1,1,1,1,1,1,1,1,1,1,11,12,135,space,8.537312100000236,None,0,1,2.303762100000313,None,space,2.1552953000000343,None,0,1,1,1,,,,,3,1,25,4,495.1201609999998,,,,,,,,,,,,,,,,,,,,,495.1049347999997,495.1201609999998,495.6034896000001,495.6087029,495.62287670000023,497.93702029999986,,,,,497.9372516000003,497.95212999999967,498.1521614000003,498.1358786999999,495.62287670000023,,,,,,,,0,1,2.303762100000313,None,,,,,,,,844,21,M,R,2026-02-18_11h58.48.089,VisualSearch_2526_3,,2025.2.4,2026-02-18 11h58.48.315903 +0100,
vertical.xlsx,The target is tilted.,135,26,2,3,0,1,1,1,1,1,1,1,0,0,0,0,1,7,8,135,space,8.537312100000236,None,0,1,1.5663241000002017,None,space,2.1552953000000343,None,0,1,1,1,,,,,3,2,26,5,498.1521614000003,,,,,,,,,,,,,,,,,,,,,498.1362409000003,498.1521614000003,498.63626850000037,498.6415809,498.6572593000001,500.2363654999999,,,,,500.2365963000002,500.2513813000005,500.4517596000005,500.43563880000056,498.6572593000001,,,,,,,,0,1,1.5663241000002017,None,,,,,,,,844,21,M,R,2026-02-18_11h58.48.089,VisualSearch_2526_3,,2025.2.4,2026-02-18 11h58.48.315903 +0100,
vertical.xlsx,The target is tilted.,135,27,3,3,0,1,1,1,0,0,0,0,0,0,0,0,1,3,4,135,space,8.537312100000236,None,0,1,0.5844568000002255,None,space,2.1552953000000343,None,0,1,1,1,,,,,3,3,27,6,500.4517596000005,,,,,,,,,,,,,,,,,,,,,500.43644829999994,500.4517596000005,500.93552420000015,500.9409572000004,500.95708209999975,501.5522436000001,,,,,501.5524593,501.56791150000026,501.76785290000043,501.7518525000005,500.95708209999975,,,,,,,,0,1,0.5844568000002255,None,,,,,,,,844,21,M,R,2026-02-18_11h58.48.089,VisualSearch_2526_3,,2025.2.4,2026-02-18 11h58.48.315903 +0100,
vertical.xlsx,The target is tilted.,135,28,4,3,0,0,0,0,0,0,0,0,0,0,0,0,1,1,1,135,space,8.537312100000236,None,0,1,0.4704600000004575,None,space,2.1552953000000343,None,0,1,1,1,,,,,3,4,28,7,501.76785290000043,,,,,,,,,,,,,,,,,,,,,501.75273780000043,501.76785290000043,502.2517539999999,502.25716790000024,502.2734578999998,502.7521149000004,,,,,502.7523529,502.7676484000003,502.96739080000043,502.95167480000055,502.2734578999998,,,,,,,,0,1,0.4704600000004575,None,,,,,,,,844,21,M,R,2026-02-18_11h58.48.089,VisualSearch_2526_3,,2025.2.4,2026-02-18 11h58.48.315903 +0100,
vertical.xlsx,The target is tilted.,135,29,5,3,1,0,0,0,0,0,0,0,0,0,0,0,0,0,1,135,space,8.537312100000236,None,1,1,0.590516000000207,None,space,2.1552953000000343,None,0,1,1,1,,,,,3,5,29,3,502.96739080000043,,,,,,,,,,,,,,,,,,,,,502.9525093000002,502.96739080000043,503.45120469999983,503.45662189999985,503.4700825,504.06785560000026,,,,,504.0680454000003,504.0836890999999,504.28347290000056,504.2672985999998,503.4700825,,,,,,,,1,1,0.590516000000207,None,,,,,,,,844,21,M,R,2026-02-18_11h58.48.089,VisualSearch_2526_3,,2025.2.4,2026-02-18 11h58.48.315903 +0100,
vertical.xlsx,The target is tilted.,135,30,6,3,1,1,1,1,0,0,0,0,0,0,0,0,0,3,4,135,space,8.537312100000236,None,0,0,0.6270813000000999,None,space,2.1552953000000343,None,0,1,1,1,,,,,3,6,30,2,504.28347290000056,,,,,,,,,,,,,,,,,,,,,504.26822020000054,504.28347290000056,504.7672192,504.7724973000004,504.78510929999993,505.4170658000003,,,,,505.4171630000001,505.43318120000004,505.6333605,505.61722629999986,504.78510929999993,,,,,,,,0,0,0.6270813000000999,None,,,,,,,,844,21,M,R,2026-02-18_11h58.48.089,VisualSearch_2526_3,,2025.2.4,2026-02-18 11h58.48.315903 +0100,
vertical.xlsx,The target is tilted.,135,31,7,3,1,1,1,1,1,1,1,1,0,0,0,0,0,7,8,135,space,8.537312100000236,None,1,1,1.264194000000316,None,space,2.1552953000000343,None,0,1,1,1,,,,,3,7,31,1,505.6333605,,,,,,,,,,,,,,,,,,,,,505.6181297000003,505.6333605,506.1170952000002,506.12233300000025,506.13300470000013,507.4004448000005,,,,,507.4006522999998,507.41596610000033,507.6160666000005,507.59983889999967,506.13300470000013,,,,,,,,1,1,1.264194000000316,None,,,,,,,,844,21,M,R,2026-02-18_11h58.48.089,VisualSearch_2526_3,,2025.2.4,2026-02-18 11h58.48.315903 +0100,
vertical.xlsx,The target is tilted.,135,32,0,4,0,1,1,1,1,1,1,1,0,0,0,0,1,7,8,135,space,8.537312100000236,None,0,1,1.4879932999992889,None,space,2.1552953000000343,None,0,1,1,1,,,,,4,0,32,5,507.6160666000005,,,,,,,,,,,,,,,,,,,,,507.6007251000001,507.6160666000005,508.09976410000036,508.1051709000003,508.1208131000003,509.6160044999997,,,,,509.6161473000002,509.6317760000002,509.83194449999974,509.81586570000036,508.1208131000003,,,,,,,,0,1,1.4879932999992889,None,,,,,,,,844,21,M,R,2026-02-18_11h58.48.089,VisualSearch_2526_3,,2025.2.4,2026-02-18 11h58.48.315903 +0100,
vertical.xlsx,The target is tilted.,135,33,1,4,1,1,1,1,1,1,1,1,0,0,0,0,0,7,8,135,space,8.537312100000236,None,1,1,0.9132031000008283,None,space,2.1552953000000343,None,0,1,1,1,,,,,4,1,33,1,509.83194449999974,,,,,,,,,,,,,,,,,,,,,509.8167629999998,509.83194449999974,510.31577300000026,510.3210160999997,510.3369388000001,511.2654633000002,,,,,511.2656096999999,511.28133739999976,511.4813734999998,511.4652723999998,510.3369388000001,,,,,,,,1,1,0.9132031000008283,None,,,,,,,,844,21,M,R,2026-02-18_11h58.48.089,VisualSearch_2526_3,,2025.2.4,2026-02-18 11h58.48.315903 +0100,
vertical.xlsx,The target is tilted.,135,34,2,4,1,1,1,1,0,0,0,0,0,0,0,0,0,3,4,135,space,8.537312100000236,None,1,1,0.7669992999999522,None,space,2.1552953000000343,None,0,1,1,1,,,,,4,2,34,2,511.4813734999998,,,,,,,,,,,,,,,,,,,,,511.46610340000007,511.4813734999998,511.9652794000003,511.97115870000016,511.98458240000036,512.7652287999999,,,,,512.7654031000002,512.7809957999998,512.9809096999998,512.9644356999997,511.98458240000036,,,,,,,,1,1,0.7669992999999522,None,,,,,,,,844,21,M,R,2026-02-18_11h58.48.089,VisualSearch_2526_3,,2025.2.4,2026-02-18 11h58.48.315903 +0100,
