file_name,block_instructions,target_example,thisN,thisTrialN,thisRepN,target_presence,opacity_1,opacity_2,opacity_3,opacity_4,opacity_5,opacity_6,opacity_7,opacity_8,opacity_9,opacity_10,opacity_11,opacity_12,n_distract,n_items,target_ori,key_resp_4.keys,key_resp_4.rt,key_resp_4.duration,key_resp.keys,key_resp.corr,key_resp.rt,key_resp.duration,key_resp_5.keys,key_resp_5.rt,key_resp_5.duration,blocks.thisRepN,blocks.thisTrialN,blocks.thisN,blocks.thisIndex,practice_trials.thisRepN,practice_trials.thisTrialN,practice_trials.thisN,practice_trials.thisIndex,trials.thisRepN,trials.thisTrialN,trials.thisN,trials.thisIndex,thisRow.t,notes,Welcome.started,WelcomeText.started,key_resp_2.started,Welcome.stopped,key_resp_2.keys,key_resp_2.rt,key_resp_2.duration,InformedConsent.started,text_4.started,InformedConsent.stopped,key_resp_6.keys,key_resp_6.rt,key_resp_6.duration,key_resp_4.started,example_target.started,text_3.started,blocks.key_resp_4.keys,blocks.key_resp_4.rt,blocks.key_resp_4.duration,FixCross.started,fixCross.started,FixCross.stopped,Stimulus.started,key_resp.started,Stimulus.stopped,practice_trials.key_resp.keys,practice_trials.key_resp.corr,practice_trials.key_resp.rt,practice_trials.key_resp.duration,BlankScreen.started,text.started,text.stopped,BlankScreen.stopped,fixCross.stopped,ExperimentStart.started,text_2.started,key_resp_5.started,ExperimentStart.stopped,blocks.key_resp_5.keys,blocks.key_resp_5.rt,blocks.key_resp_5.duration,trials.key_resp.keys,trials.key_resp.corr,trials.key_resp.rt,trials.key_resp.duration,Thanks.started,ThankYou.started,key_resp_3.started,Thanks.stopped,key_resp_3.keys,key_resp_3.rt,key_resp_3.duration,participant,leeftijd,gender,links/rechtshandig,date,expName,expVersion,psychopyVersion,expStart,
,,,,,,,,,,,,,,,,,,,,,,,,,,,,,,,,,,,,,,,,,,,,,,0.025115000000369037,0.0545378000006167,0.0545378000006167,83.16451710000001,space,83.08942039999965,None,,,,,,,,,,,,,,,,,,,,,,,,,,,,,,,,,,,,,,,,,,,,,,845,22,V,L,2026-02-18_12h13.01.659,VisualSearch_2526_3,,2025.2.4,2026-02-18 12h13.01.903636 +0100,
,,,,,,,,,,,,,,,,,,,,,,,,,,,,,,,,,,,,,,,,,,,,,,,,,,,,,83.16469030000007,83.17505100000017,107.18933190000007,y,24.01835790000041,None,,,,,,,,,,,,,,,,,,,,,,,,,,,,,,,,,,,,,,,,845,22,V,L,2026-02-18_12h13.01.659,VisualSearch_2526_3,,2025.2.4,2026-02-18 12h13.01.903636 +0100,
tilted.xlsx,The target is tilted.,117,0,0,0,0,1,1,1,1,1,1,1,0,0,0,0,1,7,8,117,space,7.148748300000079,None,0,1,2.1378170999996655,None,,,,0,0,0,0,0,0,0,5,,,,,114.41498120000051,,,,,,,,,,,,,,,107.23373510000056,107.23373510000056,107.23373510000056,space,7.148748300000079,None,114.40926310000032,114.41498120000051,114.90239999999994,114.90795849999995,114.92555119999997,117.06938330000048,0,1,2.1378170999996655,None,117.06960799999979,117.0845276,117.2846556000004,117.26856409999982,,,,,,,,,,,,,,,,,,,,845,22,V,L,2026-02-18_12h13.01.659,VisualSearch_2526_3,,2025.2.4,2026-02-18 12h13.01.903636 +0100,
tilted.xlsx,The target is tilted.,117,1,1,0,1,0,0,0,0,0,0,0,0,0,0,0,0,0,1,117,space,7.148748300000079,None,0,0,1.0782485999998244,None,,,,0,0,0,0,0,1,1,3,,,,,117.2846556000004,,,,,,,,,,,,,,,,,,,,,117.26929840000048,117.2846556000004,117.76820640000005,117.77350850000039,117.79142130000037,118.88502640000024,0,0,1.0782485999998244,None,118.88521700000001,118.90073510000002,119.10077249999995,119.0847547000003,117.79142130000037,,,,,,,,,,,,,,,,,,,845,22,V,L,2026-02-18_12h13.01.659,VisualSearch_2526_3,,2025.2.4,2026-02-18 12h13.01.903636 +0100,
tilted.xlsx,The target is tilted.,117,2,2,0,0,1,1,1,0,0,0,0,0,0,0,0,1,3,4,117,space,7.148748300000079,None,0,1,1.3573323999999047,None,,,,0,0,0,0,0,2,2,6,,,,,119.10077249999995,,,,,,,,,,,,,,,,,,,,,119.0854976999999,119.10077249999995,119.5842244000005,119.58962059999976,119.60687409999991,120.96750659999998,0,1,1.3573323999999047,None,120.96769750000021,120.98290630000065,121.18311690000064,121.16721360000065,119.60687409999991,,,,,,,,,,,,,,,,,,,845,22,V,L,2026-02-18_12h13.01.659,VisualSearch_2526_3,,2025.2.4,2026-02-18 12h13.01.903636 +0100,
tilted.xlsx,The target is tilted.,117,3,3,0,1,1,1,1,1,1,1,1,1,1,1,1,0,11,12,117,space,7.148748300000079,None,0,0,1.754780700000083,None,,,,0,0,0,0,0,3,3,0,,,,,121.18311690000064,,,,,,,,,,,,,,,,,,,,,121.16798240000026,121.18311690000064,121.66715560000011,121.6724105000003,121.68999870000061,123.45044790000065,0,0,1.754780700000083,None,123.45068760000049,123.46533900000031,123.66590270000052,123.64978000000065,121.68999870000061,,,,,,,,,,,,,,,,,,,845,22,V,L,2026-02-18_12h13.01.659,VisualSearch_2526_3,,2025.2.4,2026-02-18 12h13.01.903636 +0100,
tilted.xlsx,The target is tilted.,117,4,4,0,1,1,1,1,0,0,0,0,0,0,0,0,0,3,4,117,space,7.148748300000079,None,0,0,0.7276135000001887,None,,,,0,0,0,0,0,4,4,2,,,,,123.66590270000052,,,,,,,,,,,,,,,,,,,,,123.6505158,123.66590270000052,124.14925420000054,124.1545157999999,124.17329140000038,124.91573450000033,0,0,0.7276135000001887,None,124.91587340000024,124.93134569999984,125.13204959999985,125.11581990000013,124.17329140000038,,,,,,,,,,,,,,,,,,,845,22,V,L,2026-02-18_12h13.01.659,VisualSearch_2526_3,,2025.2.4,2026-02-18 12h13.01.903636 +0100,
tilted.xlsx,The target is tilted.,117,5,5,0,0,0,0,0,0,0,0,0,0,0,0,0,1,1,1,117,space,7.148748300000079,None,0,1,1.7609580999996979,None,,,,0,0,0,0,0,5,5,7,,,,,125.13204959999985,,,,,,,,,,,,,,,,,,,,,125.11654679999992,125.13204959999985,125.61581620000015,125.62119190000067,125.63949529999991,127.4152095999998,0,1,1.7609580999996979,None,127.41541360000065,127.43070929999976,127.63106810000045,127.6151233999999,125.63949529999991,,,,,,,,,,,,,,,,,,,845,22,V,L,2026-02-18_12h13.01.659,VisualSearch_2526_3,,2025.2.4,2026-02-18 12h13.01.903636 +0100,
tilted.xlsx,The target is tilted.,117,6,6,0,0,1,1,1,1,1,1,1,1,1,1,1,1,11,12,117,space,7.148748300000079,None,0,1,3.2084850000001097,None,,,,0,0,0,0,0,6,6,4,,,,,127.63106810000045,,,,,,,,,,,,,,,,,,,,,127.61586720000014,127.63106810000045,128.11505099999977,128.12034180000046,128.14183610000055,131.3639950000006,0,1,3.2084850000001097,None,131.3642157000004,131.37951860000067,131.5799289000006,131.56375540000045,128.14183610000055,,,,,,,,,,,,,,,,,,,845,22,V,L,2026-02-18_12h13.01.659,VisualSearch_2526_3,,2025.2.4,2026-02-18 12h13.01.903636 +0100,
tilted.xlsx,The target is tilted.,117,7,7,0,1,1,1,1,1,1,1,1,0,0,0,0,0,7,8,117,space,7.148748300000079,None,0,0,3.996658000000025,None,,,,0,0,0,0,0,7,7,1,,,,,131.5799289000006,,,,,,,,,,,,,,,,,,,,,131.56449840000005,131.5799289000006,132.06333050000012,132.06830360000004,132.07951589999993,136.0794977000005,0,0,3.996658000000025,None,136.0797161999999,136.09463870000036,136.29469299999982,136.27905980000014,132.07951589999993,,,,,,,,,,,,,,,,,,,845,22,V,L,2026-02-18_12h13.01.659,VisualSearch_2526_3,,2025.2.4,2026-02-18 12h13.01.903636 +0100,
tilted.xlsx,The target is tilted.,117,0,0,0,1,1,1,1,1,1,1,1,0,0,0,0,0,7,8,117,space,7.148748300000079,None,0,0,1.6896485999996003,None,space,3.3072054000003845,None,0,0,0,0,,,,,0,0,0,1,139.64707820000058,,,,,,,,,,,,,,,,,,,,,139.6421715000006,139.64707820000058,140.1272982999999,140.1327640999998,140.15077240000028,141.8438311,,,,,141.84403209999982,141.8593418999999,142.05986610000036,142.04379590000008,,136.28680309999982,136.29469299999982,136.29469299999982,139.61157970000022,space,3.3072054000003845,None,0,0,1.6896485999996003,None,,,,,,,,845,22,V,L,2026-02-18_12h13.01.659,VisualSearch_2526_3,,2025.2.4,2026-02-18 12h13.01.903636 +0100,
tilted.xlsx,The target is tilted.,117,1,1,0,0,0,0,0,0,0,0,0,0,0,0,0,1,1,1,117,space,7.148748300000079,None,0,1,1.0918149999997695,None,space,3.3072054000003845,None,0,0,0,0,,,,,0,1,1,7,142.05986610000036,,,,,,,,,,,,,,,,,,,,,142.04466670000056,142.05986610000036,142.5433133000006,142.54537410000012,142.55952780000007,143.65987620000033,,,,,143.66004070000054,143.67536410000048,143.87564060000022,143.85990420000053,142.55952780000007,,,,,,,,0,1,1.0918149999997695,None,,,,,,,,845,22,V,L,2026-02-18_12h13.01.659,VisualSearch_2526_3,,2025.2.4,2026-02-18 12h13.01.903636 +0100,
tilted.xlsx,The target is tilted.,117,2,2,0,1,1,1,1,1,1,1,1,1,1,1,1,0,11,12,117,space,7.148748300000079,None,0,0,4.790689100000236,None,space,3.3072054000003845,None,0,0,0,0,,,,,0,2,2,0,143.87564060000022,,,,,,,,,,,,,,,,,,,,,143.8607378000006,143.87564060000022,144.35970220000036,144.36507040000015,144.38207650000004,149.1753649000002,,,,,149.17561579999983,149.1902780999999,149.39073950000056,149.374323,144.38207650000004,,,,,,,,0,0,4.790689100000236,None,,,,,,,,845,22,V,L,2026-02-18_12h13.01.659,VisualSearch_2526_3,,2025.2.4,2026-02-18 12h13.01.903636 +0100,
tilted.xlsx,The target is tilted.,117,3,3,0,1,1,1,1,0,0,0,0,0,0,0,0,0,3,4,117,space,7.148748300000079,None,0,0,0.8250442999997176,None,space,3.3072054000003845,None,0,0,0,0,,,,,0,3,3,2,149.39073950000056,,,,,,,,,,,,,,,,,,,,,149.37523659999988,149.39073950000056,149.8745686000002,149.87951280000016,149.89035180000064,150.724193,,,,,150.72433439999986,150.73975119999977,150.94029880000016,150.92422100000022,149.89035180000064,,,,,,,,0,0,0.8250442999997176,None,,,,,,,,845,22,V,L,2026-02-18_12h13.01.659,VisualSearch_2526_3,,2025.2.4,2026-02-18 12h13.01.903636 +0100,
tilted.xlsx,The target is tilted.,117,4,4,0,0,1,1,1,1,1,1,1,1,1,1,1,1,11,12,117,space,7.148748300000079,None,0,1,2.0371803000007276,None,space,3.3072054000003845,None,0,0,0,0,,,,,0,4,4,4,150.94029880000016,,,,,,,,,,,,,,,,,,,,,150.9250208000003,150.94029880000016,151.4240094000006,151.42928930000016,151.44434230000024,153.4899464,,,,,153.49013040000045,153.50537520000034,153.7061537999998,153.6898581000005,151.44434230000024,,,,,,,,0,1,2.0371803000007276,None,,,,,,,,845,22,V,L,2026-02-18_12h13.01.659,VisualSearch_2526_3,,2025.2.4,2026-02-18 12h13.01.903636 +0100,
tilted.xlsx,The target is tilted.,117,5,5,0,0,1,1,1,1,1,1,1,0,0,0,0,1,7,8,117,space,7.148748300000079,None,0,1,2.9024327999995876,None,space,3.3072054000003845,None,0,0,0,0,,,,,0,5,5,5,153.7061537999998,,,,,,,,,,,,,,,,,,,,,153.6906869000004,153.7061537999998,154.1897509999999,154.19499040000028,154.21190970000043,157.12276780000047,,,,,157.12301540000044,157.13774730000023,157.3380520999999,157.3221113999998,154.21190970000043,,,,,,,,0,1,2.9024327999995876,None,,,,,,,,845,22,V,L,2026-02-18_12h13.01.659,VisualSearch_2526_3,,2025.2.4,2026-02-18 12h13.01.903636 +0100,
tilted.xlsx,The target is tilted.,117,6,6,0,1,0,0,0,0,0,0,0,0,0,0,0,0,0,1,117,space,7.148748300000079,None,0,0,2.5899430999998003,None,space,3.3072054000003845,None,0,0,0,0,,,,,0,6,6,3,157.3380520999999,,,,,,,,,,,,,,,,,,,,,157.3229535999999,157.3380520999999,157.82199720000062,157.82731599999988,157.84347489999982,160.4380110000002,,,,,160.43825490000017,160.45335539999996,160.65379120000034,160.63750119999986,157.84347489999982,,,,,,,,0,0,2.5899430999998003,None,,,,,,,,845,22,V,L,2026-02-18_12h13.01.659,VisualSearch_2526_3,,2025.2.4,2026-02-18 12h13.01.903636 +0100,
tilted.xlsx,The target is tilted.,117,7,7,0,0,1,1,1,0,0,0,0,0,0,0,0,1,3,4,117,space,7.148748300000079,None,0,1,1.258392400000048,None,space,3.3072054000003845,None,0,0,0,0,,,,,0,7,7,6,160.65379120000034,,,,,,,,,,,,,,,,,,,,,160.63837729999977,160.65379120000034,161.13735760000054,161.14276430000064,161.15937610000037,162.4211667999998,,,,,162.42139589999988,162.43591629999992,162.63646750000044,162.6201941999998,161.15937610000037,,,,,,,,0,1,1.258392400000048,None,,,,,,,,845,22,V,L,2026-02-18_12h13.01.659,VisualSearch_2526_3,,2025.2.4,2026-02-18 12h13.01.903636 +0100,
tilted.xlsx,The target is tilted.,117,8,0,1,1,1,1,1,1,1,1,1,0,0,0,0,0,7,8,117,space,7.148748300000079,None,0,0,0.4507263999994393,None,space,3.3072054000003845,None,0,0,0,0,,,,,1,0,8,1,162.63646750000044,,,,,,,,,,,,,,,,,,,,,162.62106070000027,162.63646750000044,163.1198804000005,163.1251628,163.14365460000045,163.60392320000028,,,,,163.6041853000006,163.6189488,163.8194422000006,163.80283360000067,163.14365460000045,,,,,,,,0,0,0.4507263999994393,None,,,,,,,,845,22,V,L,2026-02-18_12h13.01.659,VisualSearch_2526_3,,2025.2.4,2026-02-18 12h13.01.903636 +0100,
tilted.xlsx,The target is tilted.,117,9,1,1,0,0,0,0,0,0,0,0,0,0,0,0,1,1,1,117,space,7.148748300000079,None,0,1,0.6431043000002319,None,space,3.3072054000003845,None,0,0,0,0,,,,,1,1,9,7,163.8194422000006,,,,,,,,,,,,,,,,,,,,,163.8036729000005,163.8194422000006,164.30317699999978,164.30847040000026,164.32602640000005,164.9857302999999,,,,,164.98588070000005,165.00175930000023,165.20224430000053,165.18611580000015,164.32602640000005,,,,,,,,0,1,0.6431043000002319,None,,,,,,,,845,22,V,L,2026-02-18_12h13.01.659,VisualSearch_2526_3,,2025.2.4,2026-02-18 12h13.01.903636 +0100,
tilted.xlsx,The target is tilted.,117,10,2,1,0,1,1,1,1,1,1,1,0,0,0,0,1,7,8,117,space,7.148748300000079,None,0,1,2.9408315000000584,None,space,3.3072054000003845,None,0,0,0,0,,,,,1,2,10,5,165.20224430000053,,,,,,,,,,,,,,,,,,,,,165.18692929999997,165.20224430000053,165.68609079999987,165.69139710000036,165.70892730000014,168.65171670000018,,,,,168.65187070000047,168.66720309999982,168.86758310000005,168.85166240000035,165.70892730000014,,,,,,,,0,1,2.9408315000000584,None,,,,,,,,845,22,V,L,2026-02-18_12h13.01.659,VisualSearch_2526_3,,2025.2.4,2026-02-18 12h13.01.903636 +0100,
tilted.xlsx,The target is tilted.,117,11,3,1,0,1,1,1,1,1,1,1,1,1,1,1,1,11,12,117,space,7.148748300000079,None,1,0,1.8792143000000578,None,space,3.3072054000003845,None,0,0,0,0,,,,,1,3,11,4,168.86758310000005,,,,,,,,,,,,,,,,,,,,,168.8524594999999,168.86758310000005,169.35114040000008,169.3565249000003,169.37402660000043,171.26705219999985,,,,,171.26720579999983,171.2830294000005,171.48359590000018,171.46754820000024,169.37402660000043,,,,,,,,1,0,1.8792143000000578,None,,,,,,,,845,22,V,L,2026-02-18_12h13.01.659,VisualSearch_2526_3,,2025.2.4,2026-02-18 12h13.01.903636 +0100,
tilted.xlsx,The target is tilted.,117,12,4,1,1,1,1,1,0,0,0,0,0,0,0,0,0,3,4,117,space,7.148748300000079,None,0,0,3.571497900000395,None,space,3.3072054000003845,None,0,0,0,0,,,,,1,4,12,2,171.48359590000018,,,,,,,,,,,,,,,,,,,,,171.4683687000006,171.48359590000018,171.9669012000004,171.9722683,171.9907973999998,175.5660514000001,,,,,175.5662198,175.5816175,175.7821109000006,175.7660878000006,171.9907973999998,,,,,,,,0,0,3.571497900000395,None,,,,,,,,845,22,V,L,2026-02-18_12h13.01.659,VisualSearch_2526_3,,2025.2.4,2026-02-18 12h13.01.903636 +0100,
tilted.xlsx,The target is tilted.,117,13,5,1,1,0,0,0,0,0,0,0,0,0,0,0,0,0,1,117,space,7.148748300000079,None,0,0,7.130675300000803,None,space,3.3072054000003845,None,0,0,0,0,,,,,1,5,13,3,175.7821109000006,,,,,,,,,,,,,,,,,,,,,175.76689580000038,175.7821109000006,176.2659590000003,176.27124559999993,176.28899290000027,183.43022240000028,,,,,183.43037790000017,183.44564580000042,183.64619930000026,183.6300465000004,176.28899290000027,,,,,,,,0,0,7.130675300000803,None,,,,,,,,845,22,V,L,2026-02-18_12h13.01.659,VisualSearch_2526_3,,2025.2.4,2026-02-18 12h13.01.903636 +0100,
tilted.xlsx,The target is tilted.,117,14,6,1,0,1,1,1,0,0,0,0,0,0,0,0,1,3,4,117,space,7.148748300000079,None,0,1,1.9259189000003971,None,space,3.3072054000003845,None,0,0,0,0,,,,,1,6,14,6,183.64619930000026,,,,,,,,,,,,,,,,,,,,,183.6308595999999,183.64619930000026,184.12995540000065,184.13525620000019,184.15191779999986,186.07914919999985,,,,,186.07931980000012,186.09464209999987,186.29503960000056,186.27869400000054,184.15191779999986,,,,,,,,0,1,1.9259189000003971,None,,,,,,,,845,22,V,L,2026-02-18_12h13.01.659,VisualSearch_2526_3,,2025.2.4,2026-02-18 12h13.01.903636 +0100,
tilted.xlsx,The target is tilted.,117,15,7,1,1,1,1,1,1,1,1,1,1,1,1,1,0,11,12,117,space,7.148748300000079,None,1,1,5.169590900000003,None,space,3.3072054000003845,None,0,0,0,0,,,,,1,7,15,0,186.29503960000056,,,,,,,,,,,,,,,,,,,,,186.27944170000046,186.29503960000056,186.77905420000025,186.78443060000063,186.80150980000053,191.9780354000004,,,,,191.97827099999995,191.99278010000035,192.19316700000036,192.17703040000015,186.80150980000053,,,,,,,,1,1,5.169590900000003,None,,,,,,,,845,22,V,L,2026-02-18_12h13.01.659,VisualSearch_2526_3,,2025.2.4,2026-02-18 12h13.01.903636 +0100,
tilted.xlsx,The target is tilted.,117,16,0,2,0,1,1,1,0,0,0,0,0,0,0,0,1,3,4,117,space,7.148748300000079,None,0,1,8.53248209999947,None,space,3.3072054000003845,None,0,0,0,0,,,,,2,0,16,6,192.19316700000036,,,,,,,,,,,,,,,,,,,,,192.17786440000054,192.19316700000036,192.67727220000052,192.6825748000001,192.70067970000036,201.24082090000047,,,,,201.24095529999977,201.25642179999977,201.4568551000002,201.441014,192.70067970000036,,,,,,,,0,1,8.53248209999947,None,,,,,,,,845,22,V,L,2026-02-18_12h13.01.659,VisualSearch_2526_3,,2025.2.4,2026-02-18 12h13.01.903636 +0100,
tilted.xlsx,The target is tilted.,117,17,1,2,0,1,1,1,1,1,1,1,0,0,0,0,1,7,8,117,space,7.148748300000079,None,0,1,7.308768500000042,None,space,3.3072054000003845,None,0,0,0,0,,,,,2,1,17,5,201.4568551000002,,,,,,,,,,,,,,,,,,,,,201.4418642999999,201.4568551000002,201.94084079999993,201.94611840000016,201.9626932000001,209.2880212,,,,,209.2881851000002,209.30391670000063,209.50443739999992,209.4881363000004,201.9626932000001,,,,,,,,0,1,7.308768500000042,None,,,,,,,,845,22,V,L,2026-02-18_12h13.01.659,VisualSearch_2526_3,,2025.2.4,2026-02-18 12h13.01.903636 +0100,
tilted.xlsx,The target is tilted.,117,18,2,2,1,0,0,0,0,0,0,0,0,0,0,0,0,0,1,117,space,7.148748300000079,None,0,0,3.2386805999994976,None,space,3.3072054000003845,None,0,0,0,0,,,,,2,2,18,3,209.50443739999992,,,,,,,,,,,,,,,,,,,,,209.48896690000038,209.50443739999992,209.9882292000002,209.9934745999999,210.0118467000002,213.25407110000015,,,,,213.25431970000045,213.2693522999998,213.4697382000004,213.4537405000001,210.0118467000002,,,,,,,,0,0,3.2386805999994976,None,,,,,,,,845,22,V,L,2026-02-18_12h13.01.659,VisualSearch_2526_3,,2025.2.4,2026-02-18 12h13.01.903636 +0100,
tilted.xlsx,The target is tilted.,117,19,3,2,0,1,1,1,1,1,1,1,1,1,1,1,1,11,12,117,space,7.148748300000079,None,1,0,5.491621300000588,None,space,3.3072054000003845,None,0,0,0,0,,,,,2,3,19,4,213.4697382000004,,,,,,,,,,,,,,,,,,,,,213.45454430000063,213.4697382000004,213.95362280000063,213.95897270000023,213.97710000000006,219.48469300000033,,,,,219.48486860000048,219.50056480000057,219.70106870000018,219.68470190000062,213.97710000000006,,,,,,,,1,0,5.491621300000588,None,,,,,,,,845,22,V,L,2026-02-18_12h13.01.659,VisualSearch_2526_3,,2025.2.4,2026-02-18 12h13.01.903636 +0100,
tilted.xlsx,The target is tilted.,117,20,4,2,1,1,1,1,0,0,0,0,0,0,0,0,0,3,4,117,space,7.148748300000079,None,1,1,3.927002899999934,None,space,3.3072054000003845,None,0,0,0,0,,,,,2,4,20,2,219.70106870000018,,,,,,,,,,,,,,,,,,,,,219.6855243,219.70106870000018,220.1848584999998,220.1901667000002,220.20704019999994,224.15009530000043,,,,,224.15029779999986,224.16576580000037,224.36606850000044,224.3496614000005,220.20704019999994,,,,,,,,1,1,3.927002899999934,None,,,,,,,,845,22,V,L,2026-02-18_12h13.01.659,VisualSearch_2526_3,,2025.2.4,2026-02-18 12h13.01.903636 +0100,
tilted.xlsx,The target is tilted.,117,21,5,2,0,0,0,0,0,0,0,0,0,0,0,0,1,1,1,117,space,7.148748300000079,None,1,0,2.8336410000001706,None,space,3.3072054000003845,None,0,0,0,0,,,,,2,5,21,7,224.36606850000044,,,,,,,,,,,,,,,,,,,,,224.35010260000035,224.36606850000044,224.8497010000001,224.85507580000012,224.87359520000064,227.71640780000052,,,,,227.71664000000055,227.7312751999998,227.9317461999999,227.9156612000006,224.87359520000064,,,,,,,,1,0,2.8336410000001706,None,,,,,,,,845,22,V,L,2026-02-18_12h13.01.659,VisualSearch_2526_3,,2025.2.4,2026-02-18 12h13.01.903636 +0100,
tilted.xlsx,The target is tilted.,117,22,6,2,1,1,1,1,1,1,1,1,0,0,0,0,0,7,8,117,space,7.148748300000079,None,1,1,2.682141999999658,None,space,3.3072054000003845,None,0,0,0,0,,,,,2,6,22,1,227.9317461999999,,,,,,,,,,,,,,,,,,,,,227.91646430000037,227.9317461999999,228.4155596999999,228.42082819999996,228.43766159999996,231.13078450000012,,,,,231.13093590000062,231.14659829999982,231.34693400000015,231.33111970000027,228.43766159999996,,,,,,,,1,1,2.682141999999658,None,,,,,,,,845,22,V,L,2026-02-18_12h13.01.659,VisualSearch_2526_3,,2025.2.4,2026-02-18 12h13.01.903636 +0100,
tilted.xlsx,The target is tilted.,117,23,7,2,1,1,1,1,1,1,1,1,1,1,1,1,0,11,12,117,space,7.148748300000079,None,1,1,3.0986745999998675,None,space,3.3072054000003845,None,0,0,0,0,,,,,2,7,23,0,231.34693400000015,,,,,,,,,,,,,,,,,,,,,231.33192580000014,231.34693400000015,231.83111090000057,231.83635719999984,231.85512220000055,234.96389960000033,,,,,234.96416050000062,234.97893699999986,235.1793802000002,235.16335190000063,231.85512220000055,,,,,,,,1,1,3.0986745999998675,None,,,,,,,,845,22,V,L,2026-02-18_12h13.01.659,VisualSearch_2526_3,,2025.2.4,2026-02-18 12h13.01.903636 +0100,
tilted.xlsx,The target is tilted.,117,24,0,3,0,1,1,1,1,1,1,1,1,1,1,1,1,11,12,117,space,7.148748300000079,None,1,0,1.5697287000002689,None,space,3.3072054000003845,None,0,0,0,0,,,,,3,0,24,4,235.1793802000002,,,,,,,,,,,,,,,,,,,,,235.16418780000004,235.1793802000002,235.66314299999976,235.66858130000037,235.68377969999983,237.2622637000004,,,,,237.2623623999998,237.27784919999976,237.47849029999998,237.4623787999999,235.68377969999983,,,,,,,,1,0,1.5697287000002689,None,,,,,,,,845,22,V,L,2026-02-18_12h13.01.659,VisualSearch_2526_3,,2025.2.4,2026-02-18 12h13.01.903636 +0100,
tilted.xlsx,The target is tilted.,117,25,1,3,1,1,1,1,0,0,0,0,0,0,0,0,0,3,4,117,space,7.148748300000079,None,0,0,1.7793904000000111,None,space,3.3072054000003845,None,0,0,0,0,,,,,3,1,25,2,237.47849029999998,,,,,,,,,,,,,,,,,,,,,237.46322899999996,237.47849029999998,237.96236190000036,237.96771069999977,237.98468390000016,239.7781814,,,,,239.7783833000003,239.79383790000065,239.99443620000056,239.97837470000013,237.98468390000016,,,,,,,,0,0,1.7793904000000111,None,,,,,,,,845,22,V,L,2026-02-18_12h13.01.659,VisualSearch_2526_3,,2025.2.4,2026-02-18 12h13.01.903636 +0100,
tilted.xlsx,The target is tilted.,117,26,2,3,1,1,1,1,1,1,1,1,1,1,1,1,0,11,12,117,space,7.148748300000079,None,1,1,1.9385393000002296,None,space,3.3072054000003845,None,0,0,0,0,,,,,3,2,26,0,239.99443620000056,,,,,,,,,,,,,,,,,,,,,239.97921029999998,239.99443620000056,240.47803139999996,240.48324839999987,240.49987409999994,242.4441643,,,,,242.44430160000047,242.4595430999998,242.6602128000004,242.64418470000055,240.49987409999994,,,,,,,,1,1,1.9385393000002296,None,,,,,,,,845,22,V,L,2026-02-18_12h13.01.659,VisualSearch_2526_3,,2025.2.4,2026-02-18 12h13.01.903636 +0100,
tilted.xlsx,The target is tilted.,117,27,3,3,1,1,1,1,1,1,1,1,0,0,0,0,0,7,8,117,space,7.148748300000079,None,1,1,2.6091741999998703,None,space,3.3072054000003845,None,0,0,0,0,,,,,3,3,27,1,242.6602128000004,,,,,,,,,,,,,,,,,,,,,242.6450851999998,242.6602128000004,243.14406750000035,243.14934429999994,243.16528460000063,245.77724780000062,,,,,245.77742970000054,245.7919098000002,245.99220950000017,245.97641509999994,243.16528460000063,,,,,,,,1,1,2.6091741999998703,None,,,,,,,,845,22,V,L,2026-02-18_12h13.01.659,VisualSearch_2526_3,,2025.2.4,2026-02-18 12h13.01.903636 +0100,
tilted.xlsx,The target is tilted.,117,28,4,3,0,1,1,1,0,0,0,0,0,0,0,0,1,3,4,117,space,7.148748300000079,None,0,1,1.6030577999999878,None,space,3.3072054000003845,None,0,0,0,0,,,,,3,4,28,6,245.99220950000017,,,,,,,,,,,,,,,,,,,,,245.9772197000002,245.99220950000017,246.47631900000033,246.48162310000043,246.4993113999999,248.10894540000027,,,,,248.10909640000045,248.12443789999998,248.32474340000044,248.3088075000005,246.4993113999999,,,,,,,,0,1,1.6030577999999878,None,,,,,,,,845,22,V,L,2026-02-18_12h13.01.659,VisualSearch_2526_3,,2025.2.4,2026-02-18 12h13.01.903636 +0100,
tilted.xlsx,The target is tilted.,117,29,5,3,0,1,1,1,1,1,1,1,0,0,0,0,1,7,8,117,space,7.148748300000079,None,1,0,2.10655399999996,None,space,3.3072054000003845,None,0,0,0,0,,,,,3,5,29,5,248.32474340000044,,,,,,,,,,,,,,,,,,,,,248.3096413000003,248.32474340000044,248.80880330000036,248.81410120000055,248.83205689999977,250.94181800000024,,,,,250.9420025999998,250.95687090000047,251.15711720000036,251.1414308000003,248.83205689999977,,,,,,,,1,0,2.10655399999996,None,,,,,,,,845,22,V,L,2026-02-18_12h13.01.659,VisualSearch_2526_3,,2025.2.4,2026-02-18 12h13.01.903636 +0100,
tilted.xlsx,The target is tilted.,117,30,6,3,1,0,0,0,0,0,0,0,0,0,0,0,0,0,1,117,space,7.148748300000079,None,1,1,6.869169499999771,None,space,3.3072054000003845,None,0,0,0,0,,,,,3,6,30,3,251.15711720000036,,,,,,,,,,,,,,,,,,,,,251.1423418000004,251.15711720000036,251.64126670000041,251.64634879999994,251.65705500000058,258.5384997000001,,,,,258.5386554000006,258.55434030000015,258.7551134000005,258.7388675000002,251.65705500000058,,,,,,,,1,1,6.869169499999771,None,,,,,,,,845,22,V,L,2026-02-18_12h13.01.659,VisualSearch_2526_3,,2025.2.4,2026-02-18 12h13.01.903636 +0100,
tilted.xlsx,The target is tilted.,117,31,7,3,0,0,0,0,0,0,0,0,0,0,0,0,1,1,1,117,space,7.148748300000079,None,1,0,2.792959100000189,None,space,3.3072054000003845,None,0,0,0,0,,,,,3,7,31,7,258.7551134000005,,,,,,,,,,,,,,,,,,,,,258.7396957000001,258.7551134000005,259.2387039000005,259.24412140000004,259.2618467000002,262.07088209999984,,,,,262.07107240000005,262.0866934000005,262.2868636000003,262.27104190000045,259.2618467000002,,,,,,,,1,0,2.792959100000189,None,,,,,,,,845,22,V,L,2026-02-18_12h13.01.659,VisualSearch_2526_3,,2025.2.4,2026-02-18 12h13.01.903636 +0100,
tilted.xlsx,The target is tilted.,117,32,0,4,0,1,1,1,1,1,1,1,1,1,1,1,1,11,12,117,space,7.148748300000079,None,1,0,5.069028500000059,None,space,3.3072054000003845,None,0,0,0,0,,,,,4,0,32,4,262.2868636000003,,,,,,,,,,,,,,,,,,,,,262.2718511000003,262.2868636000003,262.77087240000037,262.77623649999987,262.7932434000004,267.8695722000002,,,,,267.8697772000005,267.88467519999995,268.08496210000067,268.06891799999994,262.7932434000004,,,,,,,,1,0,5.069028500000059,None,,,,,,,,845,22,V,L,2026-02-18_12h13.01.659,VisualSearch_2526_3,,2025.2.4,2026-02-18 12h13.01.903636 +0100,
tilted.xlsx,The target is tilted.,117,33,1,4,1,1,1,1,1,1,1,1,1,1,1,1,0,11,12,117,space,7.148748300000079,None,1,1,1.8586109000007127,None,space,3.3072054000003845,None,0,0,0,0,,,,,4,1,33,0,268.08496210000067,,,,,,,,,,,,,,,,,,,,,268.0697555000006,268.08496210000067,268.5685494999998,268.5718488000002,268.5849054999999,270.45237780000025,,,,,270.4526044000004,270.4672734000005,270.6676290000005,270.6515853000001,268.5849054999999,,,,,,,,1,1,1.8586109000007127,None,,,,,,,,845,22,V,L,2026-02-18_12h13.01.659,VisualSearch_2526_3,,2025.2.4,2026-02-18 12h13.01.903636 +0100,
tilted.xlsx,The target is tilted.,117,34,2,4,1,1,1,1,1,1,1,1,0,0,0,0,0,7,8,117,space,7.148748300000079,None,1,1,0.8944456999997783,None,space,3.3072054000003845,None,0,0,0,0,,,,,4,2,34,1,270.6676290000005,,,,,,,,,,,,,,,,,,,,,270.6524123999998,270.6676290000005,271.15150559999984,271.15682130000005,271.1750311000005,272.0842725000002,,,,,272.08445930000016,272.1000131999999,272.3005819,272.2841367000001,271.1750311000005,,,,,,,,1,1,0.8944456999997783,None,,,,,,,,845,22,V,L,2026-02-18_12h13.01.659,VisualSearch_2526_3,,2025.2.4,2026-02-18 12h13.01.903636 +0100,
tilted.xlsx,The target is tilted.,117,35,3,4,0,0,0,0,0,0,0,0,0,0,0,0,1,1,1,117,space,7.148748300000079,None,1,0,5.297583100000338,None,space,3.3072054000003845,None,0,0,0,0,,,,,4,3,35,7,272.3005819,,,,,,,,,,,,,,,,,,,,,272.2849470000001,272.3005819,272.7844190000005,272.7897376000001,272.80992890000016,278.11652289999984,,,,,278.11675280000054,278.1314898999999,278.3314697000005,278.3155033000003,272.80992890000016,,,,,,,,1,0,5.297583100000338,None,,,,,,,,845,22,V,L,2026-02-18_12h13.01.659,VisualSearch_2526_3,,2025.2.4,2026-02-18 12h13.01.903636 +0100,
tilted.xlsx,The target is tilted.,117,36,4,4,0,1,1,1,0,0,0,0,0,0,0,0,1,3,4,117,space,7.148748300000079,None,0,1,5.614021000000321,None,space,3.3072054000003845,None,0,0,0,0,,,,,4,4,36,6,278.3314697000005,,,,,,,,,,,,,,,,,,,,,278.3163405000005,278.3314697000005,278.8156905000005,278.82097220000014,278.83887400000003,284.4641952000002,,,,,284.46443009999984,284.4792742999998,284.67985990000034,284.66375570000037,278.83887400000003,,,,,,,,0,1,5.614021000000321,None,,,,,,,,845,22,V,L,2026-02-18_12h13.01.659,VisualSearch_2526_3,,2025.2.4,2026-02-18 12h13.01.903636 +0100,
tilted.xlsx,The target is tilted.,117,37,5,4,0,1,1,1,1,1,1,1,0,0,0,0,1,7,8,117,space,7.148748300000079,None,1,0,2.826447599999483,None,space,3.3072054000003845,None,0,0,0,0,,,,,4,5,37,5,284.67985990000034,,,,,,,,,,,,,,,,,,,,,284.6645545000001,284.67985990000034,285.1635487000003,285.1688386000005,285.1872091000005,288.02916540000024,,,,,288.02938730000005,288.04488310000033,288.2453260000002,288.2288696000005,285.1872091000005,,,,,,,,1,0,2.826447599999483,None,,,,,,,,845,22,V,L,2026-02-18_12h13.01.659,VisualSearch_2526_3,,2025.2.4,2026-02-18 12h13.01.903636 +0100,
tilted.xlsx,The target is tilted.,117,38,6,4,1,0,0,0,0,0,0,0,0,0,0,0,0,0,1,117,space,7.148748300000079,None,1,1,6.430752600000233,None,space,3.3072054000003845,None,0,0,0,0,,,,,4,6,38,3,288.2453260000002,,,,,,,,,,,,,,,,,,,,,288.22968200000014,288.2453260000002,288.72901080000065,288.7342754000001,288.7510471000005,295.19365670000025,,,,,295.1938895000003,295.2092405000003,295.40962450000006,295.39362679999977,288.7510471000005,,,,,,,,1,1,6.430752600000233,None,,,,,,,,845,22,V,L,2026-02-18_12h13.01.659,VisualSearch_2526_3,,2025.2.4,2026-02-18 12h13.01.903636 +0100,
tilted.xlsx,The target is tilted.,117,39,7,4,1,1,1,1,0,0,0,0,0,0,0,0,0,3,4,117,space,7.148748300000079,None,1,1,1.2662173999997322,None,space,3.3072054000003845,None,0,0,0,0,,,,,4,7,39,2,295.40962450000006,,,,,,,,,,,,,,,,,,,,,295.39455689999977,295.40962450000006,295.8934026000006,295.8987734000002,295.91727230000015,297.1927755000006,,,,,297.19292920000044,297.20839330000035,297.4089644000005,297.39296939999986,295.91727230000015,,,,,,,,1,1,1.2662173999997322,None,,,,,,,,845,22,V,L,2026-02-18_12h13.01.659,VisualSearch_2526_3,,2025.2.4,2026-02-18 12h13.01.903636 +0100,
tilted.xlsx,The target is tilted.,117,40,0,5,0,1,1,1,1,1,1,1,0,0,0,0,1,7,8,117,space,7.148748300000079,None,0,1,3.7634101000003284,None,space,3.3072054000003845,None,0,0,0,0,,,,,5,0,40,5,297.4089644000005,,,,,,,,,,,,,,,,,,,,,297.3938030999998,297.4089644000005,297.89275309999994,297.8980134000003,297.9154126000003,301.69129130000056,,,,,301.69151560000046,301.70707140000013,301.90693439999995,301.89034040000024,297.9154126000003,,,,,,,,0,1,3.7634101000003284,None,,,,,,,,845,22,V,L,2026-02-18_12h13.01.659,VisualSearch_2526_3,,2025.2.4,2026-02-18 12h13.01.903636 +0100,
tilted.xlsx,The target is tilted.,117,41,1,5,1,0,0,0,0,0,0,0,0,0,0,0,0,0,1,117,space,7.148748300000079,None,0,0,1.5683091000000786,None,space,3.3072054000003845,None,0,0,0,0,,,,,5,1,41,3,301.90693439999995,,,,,,,,,,,,,,,,,,,,,301.8906975,301.90693439999995,302.39084550000007,302.39612529999977,302.4123704000003,303.9901,,,,,303.99024670000017,304.00597540000035,,304.1904156999999,302.4123704000003,,,,,,,,0,0,1.5683091000000786,None,,,,,,,,845,22,V,L,2026-02-18_12h13.01.659,VisualSearch_2526_3,,2025.2.4,2026-02-18 12h13.01.903636 +0100,
tilted.xlsx,The target is tilted.,117,42,2,5,1,1,1,1,1,1,1,1,1,1,1,1,0,11,12,117,space,7.148748300000079,None,0,0,4.46662600000036,None,space,3.3072054000003845,None,0,0,0,0,,,,,5,2,42,0,304.2068041000002,,,,,,,,,,,,,,,,,,,,,304.1912726999999,304.2068041000002,304.69012120000025,304.69538980000016,304.7143581,309.18932740000037,,,,,309.1894706000003,309.2045007000006,309.4046379000001,309.3881204999998,304.7143581,,,,,,,,0,0,4.46662600000036,None,,,,,,,,845,22,V,L,2026-02-18_12h13.01.659,VisualSearch_2526_3,,2025.2.4,2026-02-18 12h13.01.903636 +0100,
tilted.xlsx,The target is tilted.,117,43,3,5,0,0,0,0,0,0,0,0,0,0,0,0,1,1,1,117,space,7.148748300000079,None,1,0,4.008188599999812,None,space,3.3072054000003845,None,0,0,0,0,,,,,5,3,43,7,309.4046379000001,,,,,,,,,,,,,,,,,,,,,309.3884557000001,309.4046379000001,309.88847369999985,309.8937341999999,309.9138352,313.9370546,,,,,313.9372063999999,313.9529394000001,314.1535264000004,314.1369764000001,309.9138352,,,,,,,,1,0,4.008188599999812,None,,,,,,,,845,22,V,L,2026-02-18_12h13.01.659,VisualSearch_2526_3,,2025.2.4,2026-02-18 12h13.01.903636 +0100,
tilted.xlsx,The target is tilted.,117,44,4,5,1,1,1,1,0,0,0,0,0,0,0,0,0,3,4,117,space,7.148748300000079,None,1,1,6.142750699999851,None,space,3.3072054000003845,None,0,0,0,0,,,,,5,4,44,2,314.1535264000004,,,,,,,,,,,,,,,,,,,,,314.13777759999994,314.1535264000004,314.63732320000054,314.6425594000002,314.66043420000005,320.8184105,,,,,320.8186233000006,320.83404190000056,321.0346003000004,321.0181842000002,314.66043420000005,,,,,,,,1,1,6.142750699999851,None,,,,,,,,845,22,V,L,2026-02-18_12h13.01.659,VisualSearch_2526_3,,2025.2.4,2026-02-18 12h13.01.903636 +0100,
tilted.xlsx,The target is tilted.,117,45,5,5,1,1,1,1,1,1,1,1,0,0,0,0,0,7,8,117,space,7.148748300000079,None,1,1,3.3040004000004046,None,space,3.3072054000003845,None,0,0,0,0,,,,,5,5,45,1,321.0346003000004,,,,,,,,,,,,,,,,,,,,,321.0190012000003,321.0346003000004,321.5180753000004,321.52336379999997,321.54085940000004,324.8509216000002,,,,,324.8511319999998,324.8661646999999,325.06655690000025,325.05044160000034,321.54085940000004,,,,,,,,1,1,3.3040004000004046,None,,,,,,,,845,22,V,L,2026-02-18_12h13.01.659,VisualSearch_2526_3,,2025.2.4,2026-02-18 12h13.01.903636 +0100,
tilted.xlsx,The target is tilted.,117,46,6,5,0,1,1,1,1,1,1,1,1,1,1,1,1,11,12,117,space,7.148748300000079,None,0,1,2.581751799999438,None,space,3.3072054000003845,None,0,0,0,0,,,,,5,6,46,4,325.06655690000025,,,,,,,,,,,,,,,,,,,,,325.0512597000006,325.06655690000025,325.54999060000046,325.5553110999999,325.5739872000004,328.1668172999998,,,,,328.16705920000004,328.18178570000055,328.38220490000003,328.3661443000001,325.5739872000004,,,,,,,,0,1,2.581751799999438,None,,,,,,,,845,22,V,L,2026-02-18_12h13.01.659,VisualSearch_2526_3,,2025.2.4,2026-02-18 12h13.01.903636 +0100,
tilted.xlsx,The target is tilted.,117,47,7,5,0,1,1,1,0,0,0,0,0,0,0,0,1,3,4,117,space,7.148748300000079,None,0,1,2.86918710000009,None,space,3.3072054000003845,None,0,0,0,0,,,,,5,7,47,6,328.38220490000003,,,,,,,,,,,,,,,,,,,,,328.36697880000065,328.38220490000003,328.86599540000043,328.871357,328.8888254000003,331.76564940000026,,,,,331.7658796000005,331.78063530000054,331.98090260000026,331.96458520000033,328.8888254000003,,,,,,,,0,1,2.86918710000009,None,,,,,,,,845,22,V,L,2026-02-18_12h13.01.659,VisualSearch_2526_3,,2025.2.4,2026-02-18 12h13.01.903636 +0100,
tilted.xlsx,The target is tilted.,117,48,0,6,1,1,1,1,0,0,0,0,0,0,0,0,0,3,4,117,space,7.148748300000079,None,0,0,1.0322594999997818,None,space,3.3072054000003845,None,0,0,0,0,,,,,6,0,48,2,331.98090260000026,,,,,,,,,,,,,,,,,,,,,331.96540540000024,331.98090260000026,332.46489569999994,332.47018389999994,332.48763860000054,333.53118650000033,,,,,333.53135199999997,333.54633100000046,333.7467876999999,333.7308727999998,332.48763860000054,,,,,,,,0,0,1.0322594999997818,None,,,,,,,,845,22,V,L,2026-02-18_12h13.01.659,VisualSearch_2526_3,,2025.2.4,2026-02-18 12h13.01.903636 +0100,
tilted.xlsx,The target is tilted.,117,49,1,6,0,1,1,1,1,1,1,1,1,1,1,1,1,11,12,117,space,7.148748300000079,None,1,0,2.658647799999926,None,space,3.3072054000003845,None,0,0,0,0,,,,,6,1,49,4,333.7467876999999,,,,,,,,,,,,,,,,,,,,,333.7317221000003,333.7467876999999,334.2308184000003,334.23716220000006,334.2532215000001,336.9138902000004,,,,,336.9142502000004,336.9286920000004,337.12930940000024,337.113257,334.2532215000001,,,,,,,,1,0,2.658647799999926,None,,,,,,,,845,22,V,L,2026-02-18_12h13.01.659,VisualSearch_2526_3,,2025.2.4,2026-02-18 12h13.01.903636 +0100,
tilted.xlsx,The target is tilted.,117,50,2,6,1,1,1,1,1,1,1,1,0,0,0,0,0,7,8,117,space,7.148748300000079,None,0,0,12.96730690000004,None,space,3.3072054000003845,None,0,0,0,0,,,,,6,2,50,1,337.12930940000024,,,,,,,,,,,,,,,,,,,,,337.1140626000006,337.12930940000024,337.6131255999999,337.61845040000026,337.63372530000015,350.6093625000003,,,,,350.6096296000005,350.62443930000063,350.82473240000036,350.80857560000004,337.63372530000015,,,,,,,,0,0,12.96730690000004,None,,,,,,,,845,22,V,L,2026-02-18_12h13.01.659,VisualSearch_2526_3,,2025.2.4,2026-02-18 12h13.01.903636 +0100,
tilted.xlsx,The target is tilted.,117,51,3,6,1,1,1,1,1,1,1,1,1,1,1,1,0,11,12,117,space,7.148748300000079,None,0,0,1.1527948000002652,None,space,3.3072054000003845,None,0,0,0,0,,,,,6,3,51,0,350.82473240000036,,,,,,,,,,,,,,,,,,,,,350.80940009999995,350.82473240000036,351.3085439000006,351.31402179999986,351.33122040000035,352.49158290000014,,,,,352.49173169999995,352.50690159999976,352.70744040000045,352.6914768000006,351.33122040000035,,,,,,,,0,0,1.1527948000002652,None,,,,,,,,845,22,V,L,2026-02-18_12h13.01.659,VisualSearch_2526_3,,2025.2.4,2026-02-18 12h13.01.903636 +0100,
tilted.xlsx,The target is tilted.,117,52,4,6,0,1,1,1,0,0,0,0,0,0,0,0,1,3,4,117,space,7.148748300000079,None,0,1,2.1605177999999796,None,space,3.3072054000003845,None,0,0,0,0,,,,,6,4,52,6,352.70744040000045,,,,,,,,,,,,,,,,,,,,,352.6922758999999,352.70744040000045,353.1913052,353.196594,353.2130375000006,355.3897934000006,,,,,355.3899011000003,355.4063580000002,355.6064879000005,355.59013200000027,353.2130375000006,,,,,,,,0,1,2.1605177999999796,None,,,,,,,,845,22,V,L,2026-02-18_12h13.01.659,VisualSearch_2526_3,,2025.2.4,2026-02-18 12h13.01.903636 +0100,
tilted.xlsx,The target is tilted.,117,53,5,6,0,1,1,1,1,1,1,1,0,0,0,0,1,7,8,117,space,7.148748300000079,None,1,0,2.807991500000753,None,space,3.3072054000003845,None,0,0,0,0,,,,,6,5,53,5,355.6064879000005,,,,,,,,,,,,,,,,,,,,,355.5909757999998,355.6064879000005,356.0901308000002,356.09549140000036,356.1124955000005,358.9228197000002,,,,,358.9229675000006,358.93812049999997,359.1382475999999,359.1229105000002,,,,,,,,,1,0,2.807991500000753,None,,,,,,,,845,22,V,L,2026-02-18_12h13.01.659,VisualSearch_2526_3,,2025.2.4,2026-02-18 12h13.01.903636 +0100,
tilted.xlsx,The target is tilted.,117,54,6,6,0,0,0,0,0,0,0,0,0,0,0,0,1,1,1,117,space,7.148748300000079,None,1,0,8.756988599999204,None,space,3.3072054000003845,None,0,0,0,0,,,,,6,6,54,7,359.1382475999999,,,,,,,,,,,,,,,,,,,,,359.1240776000004,359.1382475999999,359.6225549999999,359.62794960000065,359.64756020000004,368.41931790000035,,,,,368.41948390000016,368.4350903000004,368.6356470999999,368.61949559999994,359.64756020000004,,,,,,,,1,0,8.756988599999204,None,,,,,,,,845,22,V,L,2026-02-18_12h13.01.659,VisualSearch_2526_3,,2025.2.4,2026-02-18 12h13.01.903636 +0100,
tilted.xlsx,The target is tilted.,117,55,7,6,1,0,0,0,0,0,0,0,0,0,0,0,0,0,1,117,space,7.148748300000079,None,0,0,1.9261301000005915,None,space,3.3072054000003845,None,0,0,0,0,,,,,6,7,55,3,368.6356470999999,,,,,,,,,,,,,,,,,,,,,368.62037690000034,368.6356470999999,369.11932650000017,369.1246095000006,369.1433654000002,371.0852510000004,,,,,371.0854820000004,371.10093140000026,371.3013103000003,371.28519790000064,369.1433654000002,,,,,,,,0,0,1.9261301000005915,None,,,,,,,,845,22,V,L,2026-02-18_12h13.01.659,VisualSearch_2526_3,,2025.2.4,2026-02-18 12h13.01.903636 +0100,
tilted.xlsx,The target is tilted.,117,56,0,7,0,0,0,0,0,0,0,0,0,0,0,0,1,1,1,117,space,7.148748300000079,None,0,1,1.0886408999995183,None,space,3.3072054000003845,None,0,0,0,0,,,,,7,0,56,7,371.3013103000003,,,,,,,,,,,,,,,,,,,,,371.2861393000003,371.3013103000003,371.7852859000004,371.7901668000004,371.80104780000056,372.9020764000006,,,,,372.9023367,372.9172047000002,373.1172569999999,373.1014294000006,371.80104780000056,,,,,,,,0,1,1.0886408999995183,None,,,,,,,,845,22,V,L,2026-02-18_12h13.01.659,VisualSearch_2526_3,,2025.2.4,2026-02-18 12h13.01.903636 +0100,
tilted.xlsx,The target is tilted.,117,57,1,7,1,0,0,0,0,0,0,0,0,0,0,0,0,0,1,117,space,7.148748300000079,None,1,1,2.0716056000001117,None,space,3.3072054000003845,None,0,0,0,0,,,,,7,1,57,3,373.1172569999999,,,,,,,,,,,,,,,,,,,,,373.1022466000004,373.1172569999999,373.60135679999985,373.60681660000046,373.6229097000005,375.7010618000004,,,,,375.70130830000016,375.7161508999998,375.9165374000004,375.90056770000047,373.6229097000005,,,,,,,,1,1,2.0716056000001117,None,,,,,,,,845,22,V,L,2026-02-18_12h13.01.659,VisualSearch_2526_3,,2025.2.4,2026-02-18 12h13.01.903636 +0100,
tilted.xlsx,The target is tilted.,117,58,2,7,0,1,1,1,1,1,1,1,0,0,0,0,1,7,8,117,space,7.148748300000079,None,1,0,2.941022700000758,None,space,3.3072054000003845,None,0,0,0,0,,,,,7,2,58,5,375.9165374000004,,,,,,,,,,,,,,,,,,,,,375.9013739000002,375.9165374000004,376.40042360000007,376.4057231000006,376.42230389999986,379.3664484000001,,,,,379.3666512,379.38158040000053,379.5817820000002,379.56587130000025,376.42230389999986,,,,,,,,1,0,2.941022700000758,None,,,,,,,,845,22,V,L,2026-02-18_12h13.01.659,VisualSearch_2526_3,,2025.2.4,2026-02-18 12h13.01.903636 +0100,
tilted.xlsx,The target is tilted.,117,59,3,7,1,1,1,1,1,1,1,1,1,1,1,1,0,11,12,117,space,7.148748300000079,None,1,1,3.035387200000514,None,space,3.3072054000003845,None,0,0,0,0,,,,,7,3,59,0,379.5817820000002,,,,,,,,,,,,,,,,,,,,,379.5667428000006,379.5817820000002,380.0661178999999,380.0715589000001,380.0895208000002,383.1316931000001,,,,,383.1318903000001,383.14696809999987,383.3472311000005,383.33149159999994,380.0895208000002,,,,,,,,1,1,3.035387200000514,None,,,,,,,,845,22,V,L,2026-02-18_12h13.01.659,VisualSearch_2526_3,,2025.2.4,2026-02-18 12h13.01.903636 +0100,
tilted.xlsx,The target is tilted.,117,60,4,7,0,1,1,1,1,1,1,1,1,1,1,1,1,11,12,117,space,7.148748300000079,None,0,1,3.7405745999994906,None,space,3.3072054000003845,None,0,0,0,0,,,,,7,4,60,4,383.3472311000005,,,,,,,,,,,,,,,,,,,,,383.33231950000027,383.3472311000005,383.83133910000015,383.83666170000015,383.8558340999998,387.61354200000005,,,,,387.61378550000063,387.6288777,387.8292762000001,387.8133191000006,383.8558340999998,,,,,,,,0,1,3.7405745999994906,None,,,,,,,,845,22,V,L,2026-02-18_12h13.01.659,VisualSearch_2526_3,,2025.2.4,2026-02-18 12h13.01.903636 +0100,
tilted.xlsx,The target is tilted.,117,61,5,7,0,1,1,1,0,0,0,0,0,0,0,0,1,3,4,117,space,7.148748300000079,None,0,1,2.8076545000003534,None,space,3.3072054000003845,None,0,0,0,0,,,,,7,5,61,6,387.8292762000001,,,,,,,,,,,,,,,,,,,,,387.8141284000003,387.8292762000001,388.31313500000033,388.31881599999997,388.3355693000003,391.14618150000024,,,,,391.1464052000001,391.16115249999984,391.3614069000005,391.3453612000003,388.3355693000003,,,,,,,,0,1,2.8076545000003534,None,,,,,,,,845,22,V,L,2026-02-18_12h13.01.659,VisualSearch_2526_3,,2025.2.4,2026-02-18 12h13.01.903636 +0100,
tilted.xlsx,The target is tilted.,117,62,6,7,1,1,1,1,0,0,0,0,0,0,0,0,0,3,4,117,space,7.148748300000079,None,1,1,7.284401699999762,None,space,3.3072054000003845,None,0,0,0,0,,,,,7,6,62,2,391.3614069000005,,,,,,,,,,,,,,,,,,,,,391.34620410000025,391.3614069000005,391.8455119,391.8508634,391.8689486000003,399.15998370000034,,,,,399.1601866000001,399.1751721999999,399.37564590000056,399.35957730000064,391.8689486000003,,,,,,,,1,1,7.284401699999762,None,,,,,,,,845,22,V,L,2026-02-18_12h13.01.659,VisualSearch_2526_3,,2025.2.4,2026-02-18 12h13.01.903636 +0100,
tilted.xlsx,The target is tilted.,117,63,7,7,1,1,1,1,1,1,1,1,0,0,0,0,0,7,8,117,space,7.148748300000079,None,1,1,5.001317499999459,None,space,3.3072054000003845,None,0,0,0,0,,,,,7,7,63,1,399.37564590000056,,,,,,,,,,,,,,,,,,,,,399.36043510000036,399.37564590000056,399.85919680000006,399.86444889999984,399.88383090000025,404.89165480000065,,,,,404.89190940000026,404.9066532000006,405.1068984000003,405.09090470000046,399.88383090000025,,,,,,,,1,1,5.001317499999459,None,,,,,,,,845,22,V,L,2026-02-18_12h13.01.659,VisualSearch_2526_3,,2025.2.4,2026-02-18 12h13.01.903636 +0100,
tilted.xlsx,The target is tilted.,117,64,0,8,1,0,0,0,0,0,0,0,0,0,0,0,0,0,1,117,space,7.148748300000079,None,1,1,1.6962299999995594,None,space,3.3072054000003845,None,0,0,0,0,,,,,8,0,64,3,405.1068984000003,,,,,,,,,,,,,,,,,,,,,405.09172110000054,405.1068984000003,405.59036209999977,405.5937681000005,405.607986,407.3076455999999,,,,,407.3078685999999,407.32250010000007,407.5229078000002,407.5069408999998,405.607986,,,,,,,,1,1,1.6962299999995594,None,,,,,,,,845,22,V,L,2026-02-18_12h13.01.659,VisualSearch_2526_3,,2025.2.4,2026-02-18 12h13.01.903636 +0100,
tilted.xlsx,The target is tilted.,117,65,1,8,1,1,1,1,0,0,0,0,0,0,0,0,0,3,4,117,space,7.148748300000079,None,1,1,1.8327730000000884,None,space,3.3072054000003845,None,0,0,0,0,,,,,8,1,65,2,407.5229078000002,,,,,,,,,,,,,,,,,,,,,407.5077673000005,407.5229078000002,408.0067687999999,408.0120727000003,408.0281479000005,409.87309300000015,,,,,409.87331300000005,409.8883587999999,410.0886964000001,410.07274120000056,408.0281479000005,,,,,,,,1,1,1.8327730000000884,None,,,,,,,,845,22,V,L,2026-02-18_12h13.01.659,VisualSearch_2526_3,,2025.2.4,2026-02-18 12h13.01.903636 +0100,
tilted.xlsx,The target is tilted.,117,66,2,8,0,1,1,1,1,1,1,1,0,0,0,0,1,7,8,117,space,7.148748300000079,None,1,0,4.05173940000077,None,space,3.3072054000003845,None,0,0,0,0,,,,,8,2,66,5,410.0886964000001,,,,,,,,,,,,,,,,,,,,,410.0736377000003,410.0886964000001,410.57217610000043,410.57589970000026,410.5911679999999,414.65427700000055,,,,,414.65455720000045,414.66994500000055,414.87041469999986,414.8545313000004,410.5911679999999,,,,,,,,1,0,4.05173940000077,None,,,,,,,,845,22,V,L,2026-02-18_12h13.01.659,VisualSearch_2526_3,,2025.2.4,2026-02-18 12h13.01.903636 +0100,
tilted.xlsx,The target is tilted.,117,67,3,8,0,1,1,1,0,0,0,0,0,0,0,0,1,3,4,117,space,7.148748300000079,None,1,0,1.572308200000407,None,space,3.3072054000003845,None,0,0,0,0,,,,,8,3,67,6,414.87041469999986,,,,,,,,,,,,,,,,,,,,,414.8553576000004,414.87041469999986,415.35433920000014,415.3596843000005,415.3745964999998,416.95412730000044,,,,,416.9543309999999,416.9693502,417.1694621000006,417.1535150999998,415.3745964999998,,,,,,,,1,0,1.572308200000407,None,,,,,,,,845,22,V,L,2026-02-18_12h13.01.659,VisualSearch_2526_3,,2025.2.4,2026-02-18 12h13.01.903636 +0100,
tilted.xlsx,The target is tilted.,117,68,4,8,1,1,1,1,1,1,1,1,0,0,0,0,0,7,8,117,space,7.148748300000079,None,1,1,3.7955111999999644,None,space,3.3072054000003845,None,0,0,0,0,,,,,8,4,68,1,417.1694621000006,,,,,,,,,,,,,,,,,,,,,417.1544203000003,417.1694621000006,417.65358600000036,417.65879290000066,417.6772795000006,421.4858758999999,,,,,421.48613579999983,421.5012316000002,421.7016502000006,421.68555650000053,417.6772795000006,,,,,,,,1,1,3.7955111999999644,None,,,,,,,,845,22,V,L,2026-02-18_12h13.01.659,VisualSearch_2526_3,,2025.2.4,2026-02-18 12h13.01.903636 +0100,
tilted.xlsx,The target is tilted.,117,69,5,8,0,0,0,0,0,0,0,0,0,0,0,0,1,1,1,117,space,7.148748300000079,None,0,1,1.4073805999996694,None,space,3.3072054000003845,None,0,0,0,0,,,,,8,5,69,7,421.7016502000006,,,,,,,,,,,,,,,,,,,,,421.6863835000004,421.7016502000006,422.1854583000004,422.1906435000001,422.20822380000027,423.6184739,,,,,423.6186699,423.63373240000055,423.8342571000003,423.81805170000007,422.20822380000027,,,,,,,,0,1,1.4073805999996694,None,,,,,,,,845,22,V,L,2026-02-18_12h13.01.659,VisualSearch_2526_3,,2025.2.4,2026-02-18 12h13.01.903636 +0100,
tilted.xlsx,The target is tilted.,117,70,6,8,1,1,1,1,1,1,1,1,1,1,1,1,0,11,12,117,space,7.148748300000079,None,1,1,4.078229599999759,None,space,3.3072054000003845,None,0,0,0,0,,,,,8,6,70,0,423.8342571000003,,,,,,,,,,,,,,,,,,,,,423.8188811,423.8342571000003,424.31768920000013,424.3229687000003,424.33912109999983,428.4329916000006,,,,,428.43316830000003,428.4488170000004,428.6492626999998,428.6328542000001,424.33912109999983,,,,,,,,1,1,4.078229599999759,None,,,,,,,,845,22,V,L,2026-02-18_12h13.01.659,VisualSearch_2526_3,,2025.2.4,2026-02-18 12h13.01.903636 +0100,
tilted.xlsx,The target is tilted.,117,71,7,8,0,1,1,1,1,1,1,1,1,1,1,1,1,11,12,117,space,7.148748300000079,None,1,0,2.31736920000003,None,space,3.3072054000003845,None,0,0,0,0,,,,,8,7,71,4,428.6492626999998,,,,,,,,,,,,,,,,,,,,,428.6336734000006,428.6492626999998,429.1331469000006,429.1383528000006,429.15686020000066,431.48243640000055,,,,,431.4825947999998,431.49766510000063,431.6979018000002,431.6821998000005,429.15686020000066,,,,,,,,1,0,2.31736920000003,None,,,,,,,,845,22,V,L,2026-02-18_12h13.01.659,VisualSearch_2526_3,,2025.2.4,2026-02-18 12h13.01.903636 +0100,
tilted.xlsx,The target is tilted.,117,72,0,9,0,0,0,0,0,0,0,0,0,0,0,0,1,1,1,117,space,7.148748300000079,None,0,1,0.9800346000001809,None,space,3.3072054000003845,None,0,0,0,0,,,,,9,0,72,7,431.6979018000002,,,,,,,,,,,,,,,,,,,,,431.68301299999985,431.6979018000002,432.1820428000001,432.1873112000003,432.20306600000004,433.1978495000003,,,,,433.1979618000005,433.2142487000001,433.4144242000002,433.3982458999999,432.20306600000004,,,,,,,,0,1,0.9800346000001809,None,,,,,,,,845,22,V,L,2026-02-18_12h13.01.659,VisualSearch_2526_3,,2025.2.4,2026-02-18 12h13.01.903636 +0100,
tilted.xlsx,The target is tilted.,117,73,1,9,0,1,1,1,1,1,1,1,1,1,1,1,1,11,12,117,space,7.148748300000079,None,0,1,3.6354530999997223,None,space,3.3072054000003845,None,0,0,0,0,,,,,9,1,73,4,433.4144242000002,,,,,,,,,,,,,,,,,,,,,433.3990887,433.4144242000002,433.8980873999999,433.90335790000063,433.9208626999998,437.5642514000001,,,,,437.56450290000066,437.5792628999998,437.77959530000044,437.76344900000004,433.9208626999998,,,,,,,,0,1,3.6354530999997223,None,,,,,,,,845,22,V,L,2026-02-18_12h13.01.659,VisualSearch_2526_3,,2025.2.4,2026-02-18 12h13.01.903636 +0100,
tilted.xlsx,The target is tilted.,117,74,2,9,1,1,1,1,1,1,1,1,0,0,0,0,0,7,8,117,space,7.148748300000079,None,1,1,1.07323820000056,None,space,3.3072054000003845,None,0,0,0,0,,,,,9,2,74,1,437.77959530000044,,,,,,,,,,,,,,,,,,,,,437.7642643999998,437.77959530000044,438.26346580000063,438.26864100000057,438.2861403000006,439.3631935000003,,,,,439.3634069,439.378565,439.57909610000024,439.56306760000007,438.2861403000006,,,,,,,,1,1,1.07323820000056,None,,,,,,,,845,22,V,L,2026-02-18_12h13.01.659,VisualSearch_2526_3,,2025.2.4,2026-02-18 12h13.01.903636 +0100,
tilted.xlsx,The target is tilted.,117,75,3,9,1,0,0,0,0,0,0,0,0,0,0,0,0,0,1,117,space,7.148748300000079,None,0,0,1.0359060999999201,None,space,3.3072054000003845,None,0,0,0,0,,,,,9,3,75,3,439.57909610000024,,,,,,,,,,,,,,,,,,,,,439.56386790000033,439.57909610000024,440.0628969999998,440.0680458000006,440.0844345000005,441.12978230000044,,,,,441.13003019999996,441.1447738000006,441.34513229999993,441.32890300000054,440.0844345000005,,,,,,,,0,0,1.0359060999999201,None,,,,,,,,845,22,V,L,2026-02-18_12h13.01.659,VisualSearch_2526_3,,2025.2.4,2026-02-18 12h13.01.903636 +0100,
tilted.xlsx,The target is tilted.,117,76,4,9,1,1,1,1,0,0,0,0,0,0,0,0,0,3,4,117,space,7.148748300000079,None,1,1,3.670521899999585,None,space,3.3072054000003845,None,0,0,0,0,,,,,9,4,76,2,441.34513229999993,,,,,,,,,,,,,,,,,,,,,441.32972150000023,441.34513229999993,441.82895129999997,441.8341025,441.85145230000035,445.5273495000001,,,,,445.52746970000044,445.54325620000054,445.74372889999995,445.7273726000003,441.85145230000035,,,,,,,,1,1,3.670521899999585,None,,,,,,,,845,22,V,L,2026-02-18_12h13.01.659,VisualSearch_2526_3,,2025.2.4,2026-02-18 12h13.01.903636 +0100,
tilted.xlsx,The target is tilted.,117,77,5,9,0,1,1,1,0,0,0,0,0,0,0,0,1,3,4,117,space,7.148748300000079,None,0,1,1.7811264000001756,None,space,3.3072054000003845,None,0,0,0,0,,,,,9,5,77,6,445.74372889999995,,,,,,,,,,,,,,,,,,,,,445.72819720000007,445.74372889999995,446.2271547,446.23230670000066,446.2483071000006,448.04328500000065,,,,,448.0434896000006,448.0590712000003,448.25962640000034,448.24355360000027,446.2483071000006,,,,,,,,0,1,1.7811264000001756,None,,,,,,,,845,22,V,L,2026-02-18_12h13.01.659,VisualSearch_2526_3,,2025.2.4,2026-02-18 12h13.01.903636 +0100,
tilted.xlsx,The target is tilted.,117,78,6,9,0,1,1,1,1,1,1,1,0,0,0,0,1,7,8,117,space,7.148748300000079,None,1,0,2.8090349999993123,None,space,3.3072054000003845,None,0,0,0,0,,,,,9,6,78,5,448.25962640000034,,,,,,,,,,,,,,,,,,,,,448.24434699999983,448.25962640000034,448.74336630000016,448.74863860000005,448.7665127,451.5924952000005,,,,,451.5927148999999,451.6080259999999,451.8079664000006,451.79220179999993,448.7665127,,,,,,,,1,0,2.8090349999993123,None,,,,,,,,845,22,V,L,2026-02-18_12h13.01.659,VisualSearch_2526_3,,2025.2.4,2026-02-18 12h13.01.903636 +0100,
tilted.xlsx,The target is tilted.,117,79,7,9,1,1,1,1,1,1,1,1,1,1,1,1,0,11,12,117,space,7.148748300000079,None,1,1,1.7123627000000852,None,space,3.3072054000003845,None,0,0,0,0,,,,,9,7,79,0,451.8079664000006,,,,,,,,,,,,,,,,,,,,,451.79305040000054,451.8079664000006,452.2918445000005,452.2970608000005,452.31616060000033,454.04206820000036,,,,,454.0422625000001,454.05712290000065,454.2573589000003,454.2412075000002,452.31616060000033,,,,,,,,1,1,1.7123627000000852,None,,,,,,,,845,22,V,L,2026-02-18_12h13.01.659,VisualSearch_2526_3,,2025.2.4,2026-02-18 12h13.01.903636 +0100,
tilted.xlsx,The target is tilted.,117,80,0,10,0,1,1,1,1,1,1,1,0,0,0,0,1,7,8,117,space,7.148748300000079,None,1,0,1.8833171999995102,None,space,3.3072054000003845,None,0,0,0,0,,,,,10,0,80,5,454.2573589000003,,,,,,,,,,,,,,,,,,,,,454.2420487999998,454.2573589000003,454.74145620000036,454.74670719999995,454.7642224000001,456.6577379999999,,,,,456.657913,456.67300840000007,456.8734685999998,456.8574116,454.7642224000001,,,,,,,,1,0,1.8833171999995102,None,,,,,,,,845,22,V,L,2026-02-18_12h13.01.659,VisualSearch_2526_3,,2025.2.4,2026-02-18 12h13.01.903636 +0100,
tilted.xlsx,The target is tilted.,117,81,1,10,1,1,1,1,0,0,0,0,0,0,0,0,0,3,4,117,space,7.148748300000079,None,1,1,1.7499010000001363,None,space,3.3072054000003845,None,0,0,0,0,,,,,10,1,81,2,456.8734685999998,,,,,,,,,,,,,,,,,,,,,456.85821790000045,456.8734685999998,457.3571923999998,457.3624212000004,457.379782,459.1402207000001,,,,,459.1404192,459.15554260000044,459.35594050000054,459.33985480000047,457.379782,,,,,,,,1,1,1.7499010000001363,None,,,,,,,,845,22,V,L,2026-02-18_12h13.01.659,VisualSearch_2526_3,,2025.2.4,2026-02-18 12h13.01.903636 +0100,
tilted.xlsx,The target is tilted.,117,82,2,10,1,1,1,1,1,1,1,1,0,0,0,0,0,7,8,117,space,7.148748300000079,None,0,0,1.6420103000000381,None,space,3.3072054000003845,None,0,0,0,0,,,,,10,2,82,1,459.35594050000054,,,,,,,,,,,,,,,,,,,,,459.3408153999999,459.35594050000054,459.83972820000054,459.8449566999998,459.86123730000054,461.50642810000045,,,,,461.5066788000004,461.5214225999998,461.72144280000066,461.70567570000003,459.86123730000054,,,,,,,,0,0,1.6420103000000381,None,,,,,,,,845,22,V,L,2026-02-18_12h13.01.659,VisualSearch_2526_3,,2025.2.4,2026-02-18 12h13.01.903636 +0100,
tilted.xlsx,The target is tilted.,117,83,3,10,0,1,1,1,0,0,0,0,0,0,0,0,1,3,4,117,space,7.148748300000079,None,1,0,1.1271734000001743,None,space,3.3072054000003845,None,0,0,0,0,,,,,10,3,83,6,461.72144280000066,,,,,,,,,,,,,,,,,,,,,461.7065180999998,461.72144280000066,462.2057351000003,462.2107289000005,462.22144370000024,463.35581920000004,,,,,463.3560787000006,463.37081170000056,463.5713090999998,463.5551798000006,462.22144370000024,,,,,,,,1,0,1.1271734000001743,None,,,,,,,,845,22,V,L,2026-02-18_12h13.01.659,VisualSearch_2526_3,,2025.2.4,2026-02-18 12h13.01.903636 +0100,
tilted.xlsx,The target is tilted.,117,84,4,10,1,1,1,1,1,1,1,1,1,1,1,1,0,11,12,117,space,7.148748300000079,None,0,0,2.528977599999962,None,space,3.3072054000003845,None,0,0,0,0,,,,,10,4,84,0,463.5713090999998,,,,,,,,,,,,,,,,,,,,,463.55597190000026,463.5713090999998,464.0550910000002,464.0602090000002,464.0781848000006,466.62111670000013,,,,,466.6213142000006,466.6366943000003,466.83650990000024,466.8207745999998,464.0781848000006,,,,,,,,0,0,2.528977599999962,None,,,,,,,,845,22,V,L,2026-02-18_12h13.01.659,VisualSearch_2526_3,,2025.2.4,2026-02-18 12h13.01.903636 +0100,
tilted.xlsx,The target is tilted.,117,85,5,10,0,0,0,0,0,0,0,0,0,0,0,0,1,1,1,117,space,7.148748300000079,None,0,1,0.8782069999997475,None,space,3.3072054000003845,None,0,0,0,0,,,,,10,5,85,7,466.83650990000024,,,,,,,,,,,,,,,,,,,,,466.8215699000002,466.83650990000024,467.3205400000006,467.32571590000043,467.3434064000003,468.2369808000003,,,,,468.2371275000005,468.25289020000037,468.45291369999995,468.4369443000005,467.3434064000003,,,,,,,,0,1,0.8782069999997475,None,,,,,,,,845,22,V,L,2026-02-18_12h13.01.659,VisualSearch_2526_3,,2025.2.4,2026-02-18 12h13.01.903636 +0100,
tilted.xlsx,The target is tilted.,117,86,6,10,0,1,1,1,1,1,1,1,1,1,1,1,1,11,12,117,space,7.148748300000079,None,1,0,2.6087732000005417,None,space,3.3072054000003845,None,0,0,0,0,,,,,10,6,86,4,468.45291369999995,,,,,,,,,,,,,,,,,,,,,468.4377417000005,468.45291369999995,468.93678480000017,468.94194460000017,468.95801500000016,471.5689189000004,,,,,471.5691032000004,471.5852177000006,471.7853028999998,471.7693084000002,468.95801500000016,,,,,,,,1,0,2.6087732000005417,None,,,,,,,,845,22,V,L,2026-02-18_12h13.01.659,VisualSearch_2526_3,,2025.2.4,2026-02-18 12h13.01.903636 +0100,
tilted.xlsx,The target is tilted.,117,87,7,10,1,0,0,0,0,0,0,0,0,0,0,0,0,0,1,117,space,7.148748300000079,None,0,0,1.2239377000005334,None,space,3.3072054000003845,None,0,0,0,0,,,,,10,7,87,3,471.7853028999998,,,,,,,,,,,,,,,,,,,,,471.77040040000065,471.7853028999998,472.26894859999993,472.2742214,472.29187230000025,473.5188323000002,,,,,473.5190072000005,473.5346657,473.73447300000043,473.7183839999998,472.29187230000025,,,,,,,,0,0,1.2239377000005334,None,,,,,,,,845,22,V,L,2026-02-18_12h13.01.659,VisualSearch_2526_3,,2025.2.4,2026-02-18 12h13.01.903636 +0100,
tilted.xlsx,The target is tilted.,117,88,0,11,0,0,0,0,0,0,0,0,0,0,0,0,1,1,1,117,space,7.148748300000079,None,0,1,0.7479829999992944,None,space,3.3072054000003845,None,0,0,0,0,,,,,11,0,88,7,473.73447300000043,,,,,,,,,,,,,,,,,,,,,473.71921629999997,473.73447300000043,474.2177941,474.22293249999984,474.24134779999986,475.0017617000003,,,,,475.00196740000047,475.01743540000007,475.2171207000001,475.2013748999998,474.24134779999986,,,,,,,,0,1,0.7479829999992944,None,,,,,,,,845,22,V,L,2026-02-18_12h13.01.659,VisualSearch_2526_3,,2025.2.4,2026-02-18 12h13.01.903636 +0100,
tilted.xlsx,The target is tilted.,117,89,1,11,0,1,1,1,0,0,0,0,0,0,0,0,1,3,4,117,space,7.148748300000079,None,1,0,1.4359267999998337,None,space,3.3072054000003845,None,0,0,0,0,,,,,11,1,89,6,475.2171207000001,,,,,,,,,,,,,,,,,,,,,475.20217070000035,475.2171207000001,475.70122420000007,475.70641239999986,475.7241189000006,477.16791790000025,,,,,477.1681593000003,477.18314180000016,477.3831276000001,477.3673746000004,475.7241189000006,,,,,,,,1,0,1.4359267999998337,None,,,,,,,,845,22,V,L,2026-02-18_12h13.01.659,VisualSearch_2526_3,,2025.2.4,2026-02-18 12h13.01.903636 +0100,
tilted.xlsx,The target is tilted.,117,90,2,11,0,1,1,1,1,1,1,1,0,0,0,0,1,7,8,117,space,7.148748300000079,None,0,1,1.6053844999996727,None,space,3.3072054000003845,None,0,0,0,0,,,,,11,2,90,5,477.3831276000001,,,,,,,,,,,,,,,,,,,,,477.3683421000005,477.3831276000001,477.86721410000064,477.8723974000004,477.89089260000037,479.5003225999999,,,,,479.50054439999985,479.5157054000001,479.7159507000006,479.6999010999998,477.89089260000037,,,,,,,,0,1,1.6053844999996727,None,,,,,,,,845,22,V,L,2026-02-18_12h13.01.659,VisualSearch_2526_3,,2025.2.4,2026-02-18 12h13.01.903636 +0100,
tilted.xlsx,The target is tilted.,117,91,3,11,1,1,1,1,1,1,1,1,0,0,0,0,0,7,8,117,space,7.148748300000079,None,0,0,1.2256980000001931,None,space,3.3072054000003845,None,0,0,0,0,,,,,11,3,91,1,479.7159507000006,,,,,,,,,,,,,,,,,,,,,479.70069909999984,479.7159507000006,480.19974189999994,480.20490920000066,480.22200690000045,481.4499185000004,,,,,481.4501645999999,481.4651192000001,481.6653580000002,481.64906190000056,480.22200690000045,,,,,,,,0,0,1.2256980000001931,None,,,,,,,,845,22,V,L,2026-02-18_12h13.01.659,VisualSearch_2526_3,,2025.2.4,2026-02-18 12h13.01.903636 +0100,
tilted.xlsx,The target is tilted.,117,92,4,11,0,1,1,1,1,1,1,1,1,1,1,1,1,11,12,117,space,7.148748300000079,None,1,0,1.4036112000003413,None,space,3.3072054000003845,None,0,0,0,0,,,,,11,4,92,4,481.6653580000002,,,,,,,,,,,,,,,,,,,,,481.64988730000005,481.6653580000002,482.1489571000002,482.1540980999998,482.1708355999999,483.58168990000013,,,,,483.58181800000057,483.5977062000002,483.79784310000014,483.78185720000056,482.1708355999999,,,,,,,,1,0,1.4036112000003413,None,,,,,,,,845,22,V,L,2026-02-18_12h13.01.659,VisualSearch_2526_3,,2025.2.4,2026-02-18 12h13.01.903636 +0100,
tilted.xlsx,The target is tilted.,117,93,5,11,1,1,1,1,0,0,0,0,0,0,0,0,0,3,4,117,space,7.148748300000079,None,1,1,1.0130733999994845,None,space,3.3072054000003845,None,0,0,0,0,,,,,11,5,93,2,483.79784310000014,,,,,,,,,,,,,,,,,,,,,483.78265509999983,483.79784310000014,484.2816952000003,484.28692990000036,484.30460589999984,485.33137440000064,,,,,485.33152210000026,485.34741209999993,485.54715120000037,485.53136150000046,484.30460589999984,,,,,,,,1,1,1.0130733999994845,None,,,,,,,,845,22,V,L,2026-02-18_12h13.01.659,VisualSearch_2526_3,,2025.2.4,2026-02-18 12h13.01.903636 +0100,
tilted.xlsx,The target is tilted.,117,94,6,11,1,0,0,0,0,0,0,0,0,0,0,0,0,0,1,117,space,7.148748300000079,None,0,0,0.8920260999993843,None,space,3.3072054000003845,None,0,0,0,0,,,,,11,6,94,3,485.54715120000037,,,,,,,,,,,,,,,,,,,,,485.53215700000055,485.54715120000037,486.03117120000024,486.0367194999999,486.0531486,486.94737609999993,,,,,486.94754790000025,486.9631134000001,487.16352879999977,487.1474923000005,486.0531486,,,,,,,,0,0,0.8920260999993843,None,,,,,,,,845,22,V,L,2026-02-18_12h13.01.659,VisualSearch_2526_3,,2025.2.4,2026-02-18 12h13.01.903636 +0100,
tilted.xlsx,The target is tilted.,117,95,7,11,1,1,1,1,1,1,1,1,1,1,1,1,0,11,12,117,space,7.148748300000079,None,1,1,1.0603419000008216,None,space,3.3072054000003845,None,0,0,0,0,,,,,11,7,95,0,487.16352879999977,,,,,,,,,,,,,,,,,,,,,487.1484134000002,487.16352879999977,487.64731889999985,487.6524485,487.67062350000015,488.7475540000005,,,,,488.7477822999999,488.76304900000014,488.96280300000035,488.9465041000003,487.67062350000015,,,,,,,,1,1,1.0603419000008216,None,,,,,,,,845,22,V,L,2026-02-18_12h13.01.659,VisualSearch_2526_3,,2025.2.4,2026-02-18 12h13.01.903636 +0100,
tilted.xlsx,The target is tilted.,117,96,0,12,1,0,0,0,0,0,0,0,0,0,0,0,0,0,1,117,space,7.148748300000079,None,0,0,0.8010460999994393,None,space,3.3072054000003845,None,0,0,0,0,,,,,12,0,96,3,488.96280300000035,,,,,,,,,,,,,,,,,,,,,488.9473423999998,488.96280300000035,489.4466560000001,489.45176249999986,489.4677953999999,490.2799335999998,,,,,490.28011120000065,490.29585170000064,490.4956344000002,490.47966110000016,489.4677953999999,,,,,,,,0,0,0.8010460999994393,None,,,,,,,,845,22,V,L,2026-02-18_12h13.01.659,VisualSearch_2526_3,,2025.2.4,2026-02-18 12h13.01.903636 +0100,
tilted.xlsx,The target is tilted.,117,97,1,12,1,1,1,1,1,1,1,1,0,0,0,0,0,7,8,117,space,7.148748300000079,None,1,1,3.2479051999998774,None,space,3.3072054000003845,None,0,0,0,0,,,,,12,1,97,1,490.4956344000002,,,,,,,,,,,,,,,,,,,,,490.4804543,490.4956344000002,490.9795819000001,490.98481249999986,491.00088529999994,494.2618547000002,,,,,494.26201630000014,494.2774758000005,494.47766180000053,494.4609940999999,491.00088529999994,,,,,,,,1,1,3.2479051999998774,None,,,,,,,,845,22,V,L,2026-02-18_12h13.01.659,VisualSearch_2526_3,,2025.2.4,2026-02-18 12h13.01.903636 +0100,
tilted.xlsx,The target is tilted.,117,98,2,12,0,1,1,1,0,0,0,0,0,0,0,0,1,3,4,117,space,7.148748300000079,None,1,0,1.4142447999993237,None,space,3.3072054000003845,None,0,0,0,0,,,,,12,2,98,6,494.47766180000053,,,,,,,,,,,,,,,,,,,,,494.4618042000002,494.47766180000053,494.96157459999995,494.9666858999999,494.98463660000016,496.41221850000056,,,,,496.4124486999999,496.4267157000004,496.62694830000055,496.6110505000006,494.98463660000016,,,,,,,,1,0,1.4142447999993237,None,,,,,,,,845,22,V,L,2026-02-18_12h13.01.659,VisualSearch_2526_3,,2025.2.4,2026-02-18 12h13.01.903636 +0100,
tilted.xlsx,The target is tilted.,117,99,3,12,0,0,0,0,0,0,0,0,0,0,0,0,1,1,1,117,space,7.148748300000079,None,0,1,0.618199999999888,None,space,3.3072054000003845,None,0,0,0,0,,,,,12,3,99,7,496.62694830000055,,,,,,,,,,,,,,,,,,,,,496.61185100000057,496.62694830000055,497.11086870000054,497.11606350000056,497.1344822000001,497.7610414999999,,,,,497.7612366000003,497.77683979999983,497.9766620999999,497.9604052000004,497.1344822000001,,,,,,,,0,1,0.618199999999888,None,,,,,,,,845,22,V,L,2026-02-18_12h13.01.659,VisualSearch_2526_3,,2025.2.4,2026-02-18 12h13.01.903636 +0100,
tilted.xlsx,The target is tilted.,117,100,4,12,1,1,1,1,0,0,0,0,0,0,0,0,0,3,4,117,space,7.148748300000079,None,1,1,1.1250485999999,None,space,3.3072054000003845,None,0,0,0,0,,,,,12,4,100,2,497.9766620999999,,,,,,,,,,,,,,,,,,,,,497.9612181000002,497.9766620999999,498.4604616000006,498.4655751,498.4851778000002,499.62699410000005,,,,,499.6271899000003,499.6427056000002,499.8427390000006,499.8267228000004,498.4851778000002,,,,,,,,1,1,1.1250485999999,None,,,,,,,,845,22,V,L,2026-02-18_12h13.01.659,VisualSearch_2526_3,,2025.2.4,2026-02-18 12h13.01.903636 +0100,
tilted.xlsx,The target is tilted.,117,101,5,12,0,1,1,1,1,1,1,1,0,0,0,0,1,7,8,117,space,7.148748300000079,None,1,0,1.113411399999677,None,space,3.3072054000003845,None,0,0,0,0,,,,,12,5,101,5,499.8427390000006,,,,,,,,,,,,,,,,,,,,,499.82754399999976,499.8427390000006,500.3265497000002,500.33171440000024,500.3496396999999,501.4766610000006,,,,,501.4769173000004,501.4918329000002,501.6920932000003,501.6760559000004,500.3496396999999,,,,,,,,1,0,1.113411399999677,None,,,,,,,,845,22,V,L,2026-02-18_12h13.01.659,VisualSearch_2526_3,,2025.2.4,2026-02-18 12h13.01.903636 +0100,
tilted.xlsx,The target is tilted.,117,102,6,12,1,1,1,1,1,1,1,1,1,1,1,1,0,11,12,117,space,7.148748300000079,None,1,1,1.3713652000005823,None,space,3.3072054000003845,None,0,0,0,0,,,,,12,6,102,0,501.6920932000003,,,,,,,,,,,,,,,,,,,,,501.6768474999999,501.6920932000003,502.17581320000045,502.1809508000006,502.1978629000005,503.5750788000005,,,,,503.57522810000046,503.5912853,503.79139790000045,503.77527830000054,502.1978629000005,,,,,,,,1,1,1.3713652000005823,None,,,,,,,,845,22,V,L,2026-02-18_12h13.01.659,VisualSearch_2526_3,,2025.2.4,2026-02-18 12h13.01.903636 +0100,
tilted.xlsx,The target is tilted.,117,103,7,12,0,1,1,1,1,1,1,1,1,1,1,1,1,11,12,117,space,7.148748300000079,None,1,0,3.941260300000067,None,space,3.3072054000003845,None,0,0,0,0,,,,,12,7,103,4,503.79139790000045,,,,,,,,,,,,,,,,,,,,,503.7760779,503.79139790000045,504.27523890000066,504.2804750000005,504.2978844999998,508.2408531000001,,,,,508.2410282000001,508.2565351000003,508.45608730000004,508.44006290000016,504.2978844999998,,,,,,,,1,0,3.941260300000067,None,,,,,,,,845,22,V,L,2026-02-18_12h13.01.659,VisualSearch_2526_3,,2025.2.4,2026-02-18 12h13.01.903636 +0100,
tilted.xlsx,The target is tilted.,117,104,0,13,0,1,1,1,1,1,1,1,0,0,0,0,1,7,8,117,space,7.148748300000079,None,0,1,2.7564511999999013,None,space,3.3072054000003845,None,0,0,0,0,,,,,13,0,104,5,508.45608730000004,,,,,,,,,,,,,,,,,,,,,508.44086419999985,508.45608730000004,508.94037430000026,508.94554960000005,508.9635951999999,511.72347160000027,,,,,511.72369380000055,511.7387288,511.9386334999999,511.9226641000005,508.9635951999999,,,,,,,,0,1,2.7564511999999013,None,,,,,,,,845,22,V,L,2026-02-18_12h13.01.659,VisualSearch_2526_3,,2025.2.4,2026-02-18 12h13.01.903636 +0100,
tilted.xlsx,The target is tilted.,117,105,1,13,1,1,1,1,0,0,0,0,0,0,0,0,0,3,4,117,space,7.148748300000079,None,1,1,1.511826199999632,None,space,3.3072054000003845,None,0,0,0,0,,,,,13,1,105,2,511.9386334999999,,,,,,,,,,,,,,,,,,,,,511.92346820000057,511.9386334999999,512.4225664000005,512.4277237000006,512.4466281000005,513.9719755000006,,,,,513.9721239999999,513.9879363,514.1878587000001,514.1719500999998,512.4466281000005,,,,,,,,1,1,1.511826199999632,None,,,,,,,,845,22,V,L,2026-02-18_12h13.01.659,VisualSearch_2526_3,,2025.2.4,2026-02-18 12h13.01.903636 +0100,
tilted.xlsx,The target is tilted.,117,106,2,13,1,0,0,0,0,0,0,0,0,0,0,0,0,0,1,117,space,7.148748300000079,None,0,0,1.6978602999997747,None,space,3.3072054000003845,None,0,0,0,0,,,,,13,2,106,3,514.1878587000001,,,,,,,,,,,,,,,,,,,,,514.1727626000002,514.1878587000001,514.6712725000007,514.6758233,514.6876008999998,516.3881645000001,,,,,516.3883845,516.4038171000002,516.6038950000002,516.5870255999998,514.6876008999998,,,,,,,,0,0,1.6978602999997747,None,,,,,,,,845,22,V,L,2026-02-18_12h13.01.659,VisualSearch_2526_3,,2025.2.4,2026-02-18 12h13.01.903636 +0100,
tilted.xlsx,The target is tilted.,117,107,3,13,0,1,1,1,1,1,1,1,1,1,1,1,1,11,12,117,space,7.148748300000079,None,0,1,8.404271100000187,None,space,3.3072054000003845,None,0,0,0,0,,,,,13,3,107,4,516.6038950000002,,,,,,,,,,,,,,,,,,,,,516.5875203000005,516.6038950000002,517.0876325999998,517.0927760000004,517.1113546000006,525.5185299000004,,,,,525.5187554000004,525.5342760000003,525.7338262000003,525.7181847000002,517.1113546000006,,,,,,,,0,1,8.404271100000187,None,,,,,,,,845,22,V,L,2026-02-18_12h13.01.659,VisualSearch_2526_3,,2025.2.4,2026-02-18 12h13.01.903636 +0100,
tilted.xlsx,The target is tilted.,117,108,4,13,0,0,0,0,0,0,0,0,0,0,0,0,1,1,1,117,space,7.148748300000079,None,0,1,0.9933558000002449,None,space,3.3072054000003845,None,0,0,0,0,,,,,13,4,108,7,525.7338262000003,,,,,,,,,,,,,,,,,,,,,525.7189957,525.7338262000003,526.2176648000004,526.2228107000001,526.2402972,527.2516142000004,,,,,527.2518461999998,527.2668912999998,527.4667741000003,527.450898,526.2402972,,,,,,,,0,1,0.9933558000002449,None,,,,,,,,845,22,V,L,2026-02-18_12h13.01.659,VisualSearch_2526_3,,2025.2.4,2026-02-18 12h13.01.903636 +0100,
tilted.xlsx,The target is tilted.,117,109,5,13,1,1,1,1,1,1,1,1,1,1,1,1,0,11,12,117,space,7.148748300000079,None,1,1,4.0070888999998715,None,space,3.3072054000003845,None,0,0,0,0,,,,,13,5,109,0,527.4667741000003,,,,,,,,,,,,,,,,,,,,,527.4517031000005,527.4667741000003,527.9507715999998,527.9559630000003,527.9715781000004,531.9830603,,,,,531.9832783000002,531.9985203000006,532.1985368000005,532.1822083000006,527.9715781000004,,,,,,,,1,1,4.0070888999998715,None,,,,,,,,845,22,V,L,2026-02-18_12h13.01.659,VisualSearch_2526_3,,2025.2.4,2026-02-18 12h13.01.903636 +0100,
tilted.xlsx,The target is tilted.,117,110,6,13,1,1,1,1,1,1,1,1,0,0,0,0,0,7,8,117,space,7.148748300000079,None,0,0,2.8914173000002847,None,space,3.3072054000003845,None,0,0,0,0,,,,,13,6,110,1,532.1985368000005,,,,,,,,,,,,,,,,,,,,,532.1826901000004,532.1985368000005,532.6826011000003,532.6877684000001,532.7052051000001,535.5985959,,,,,535.5987886000003,535.6138146000003,535.8143027000006,535.7981306000001,532.7052051000001,,,,,,,,0,0,2.8914173000002847,None,,,,,,,,845,22,V,L,2026-02-18_12h13.01.659,VisualSearch_2526_3,,2025.2.4,2026-02-18 12h13.01.903636 +0100,
tilted.xlsx,The target is tilted.,117,111,7,13,0,1,1,1,0,0,0,0,0,0,0,0,1,3,4,117,space,7.148748300000079,None,1,0,1.7154246999998577,None,space,3.3072054000003845,None,0,0,0,0,,,,,13,7,111,6,535.8143027000006,,,,,,,,,,,,,,,,,,,,,535.7989278000005,535.8143027000006,536.2980186000004,536.3032510000003,536.3198032,538.0481789000005,,,,,538.0484007000005,538.0632038000003,538.2634460999998,538.2473113000005,536.3198032,,,,,,,,1,0,1.7154246999998577,None,,,,,,,,845,22,V,L,2026-02-18_12h13.01.659,VisualSearch_2526_3,,2025.2.4,2026-02-18 12h13.01.903636 +0100,
tilted.xlsx,The target is tilted.,117,112,0,14,1,0,0,0,0,0,0,0,0,0,0,0,0,0,1,117,space,7.148748300000079,None,0,0,2.6032576000006884,None,space,3.3072054000003845,None,0,0,0,0,,,,,14,0,112,3,538.2634460999998,,,,,,,,,,,,,,,,,,,,,538.2481181000003,538.2634460999998,538.7473226000002,538.7526537000003,538.7736019000004,541.3801547000003,,,,,541.3803836000006,541.3956453999999,541.5952070000003,541.5788097000004,538.7736019000004,,,,,,,,0,0,2.6032576000006884,None,,,,,,,,845,22,V,L,2026-02-18_12h13.01.659,VisualSearch_2526_3,,2025.2.4,2026-02-18 12h13.01.903636 +0100,
tilted.xlsx,The target is tilted.,117,113,1,14,0,0,0,0,0,0,0,0,0,0,0,0,1,1,1,117,space,7.148748300000079,None,0,1,1.6370852000000014,None,space,3.3072054000003845,None,0,0,0,0,,,,,14,1,113,7,541.5952070000003,,,,,,,,,,,,,,,,,,,,,541.5791882000003,541.5952070000003,542.0793908000005,542.0846288000002,542.1044344000002,543.7452794000001,,,,,543.7454541000006,543.7615974999999,543.9615854000003,543.9454685999999,542.1044344000002,,,,,,,,0,1,1.6370852000000014,None,,,,,,,,845,22,V,L,2026-02-18_12h13.01.659,VisualSearch_2526_3,,2025.2.4,2026-02-18 12h13.01.903636 +0100,
tilted.xlsx,The target is tilted.,117,114,2,14,1,1,1,1,0,0,0,0,0,0,0,0,0,3,4,117,space,7.148748300000079,None,1,1,2.904524599999604,None,space,3.3072054000003845,None,0,0,0,0,,,,,14,2,114,2,543.9615854000003,,,,,,,,,,,,,,,,,,,,,543.9462651000003,543.9615854000003,544.4454129000005,544.4506519000006,544.4685397000003,547.3777249000004,,,,,547.3779001000003,547.3937145999998,547.5937162999999,547.5773589999999,544.4685397000003,,,,,,,,1,1,2.904524599999604,None,,,,,,,,845,22,V,L,2026-02-18_12h13.01.659,VisualSearch_2526_3,,2025.2.4,2026-02-18 12h13.01.903636 +0100,
tilted.xlsx,The target is tilted.,117,115,3,14,0,1,1,1,0,0,0,0,0,0,0,0,1,3,4,117,space,7.148748300000079,None,0,1,1.4823977999994895,None,space,3.3072054000003845,None,0,0,0,0,,,,,14,3,115,6,547.5937162999999,,,,,,,,,,,,,,,,,,,,,547.5781658000005,547.5937162999999,548.0774308,548.0826975,548.0976287000003,549.5937717000006,,,,,549.5939202,549.6094351000002,549.8096868000002,549.7936815000003,548.0976287000003,,,,,,,,0,1,1.4823977999994895,None,,,,,,,,845,22,V,L,2026-02-18_12h13.01.659,VisualSearch_2526_3,,2025.2.4,2026-02-18 12h13.01.903636 +0100,
tilted.xlsx,The target is tilted.,117,116,4,14,1,1,1,1,1,1,1,1,0,0,0,0,0,7,8,117,space,7.148748300000079,None,1,1,6.462710000000698,None,space,3.3072054000003845,None,0,0,0,0,,,,,14,4,116,1,549.8096868000002,,,,,,,,,,,,,,,,,,,,,549.7945159999999,549.8096868000002,550.2935201,550.2989224000003,550.3140166000003,556.7918834000002,,,,,556.7922001000006,556.8069886000003,557.0069733,556.9911522000002,550.3140166000003,,,,,,,,1,1,6.462710000000698,None,,,,,,,,845,22,V,L,2026-02-18_12h13.01.659,VisualSearch_2526_3,,2025.2.4,2026-02-18 12h13.01.903636 +0100,
tilted.xlsx,The target is tilted.,117,117,5,14,0,1,1,1,1,1,1,1,0,0,0,0,1,7,8,117,space,7.148748300000079,None,1,0,4.088311499999691,None,space,3.3072054000003845,None,0,0,0,0,,,,,14,5,117,5,557.0069733,,,,,,,,,,,,,,,,,,,,,556.9919834000002,557.0069733,557.4911505999999,557.4964952999999,557.5153728000005,561.6071484000004,,,,,561.6073689000004,561.6223637000003,561.8224071000004,561.8061723000001,557.5153728000005,,,,,,,,1,0,4.088311499999691,None,,,,,,,,845,22,V,L,2026-02-18_12h13.01.659,VisualSearch_2526_3,,2025.2.4,2026-02-18 12h13.01.903636 +0100,
tilted.xlsx,The target is tilted.,117,118,6,14,1,1,1,1,1,1,1,1,1,1,1,1,0,11,12,117,space,7.148748300000079,None,1,1,1.043289499999446,None,space,3.3072054000003845,None,0,0,0,0,,,,,14,6,118,0,561.8224071000004,,,,,,,,,,,,,,,,,,,,,561.8069909000005,561.8224071000004,562.3061956000001,562.3112870000004,562.3288207000005,563.3898085000001,,,,,563.3900291,563.4049015999999,563.6051839000002,563.5887770999998,562.3288207000005,,,,,,,,1,1,1.043289499999446,None,,,,,,,,845,22,V,L,2026-02-18_12h13.01.659,VisualSearch_2526_3,,2025.2.4,2026-02-18 12h13.01.903636 +0100,
tilted.xlsx,The target is tilted.,117,119,7,14,0,1,1,1,1,1,1,1,1,1,1,1,1,11,12,117,space,7.148748300000079,None,1,0,2.4341629000000466,None,space,3.3072054000003845,None,0,0,0,0,,,,,14,7,119,4,563.6051839000002,,,,,,,,,,,,,,,,,,,,,563.5894354000002,563.6051839000002,564.0889336999999,564.0941088,564.1101933999998,566.5554689999999,,,,,566.5556913,566.5705269999999,566.7867329999999,566.7547358000002,564.1101933999998,,,,,,,,1,0,2.4341629000000466,None,,,,,,,,845,22,V,L,2026-02-18_12h13.01.659,VisualSearch_2526_3,,2025.2.4,2026-02-18 12h13.01.903636 +0100,
tilted.xlsx,The target is tilted.,117,0,0,0,,,,,,,,,,,,,,,,,space,7.148748300000079,None,,,,,space,3.3072054000003845,None,0,0,0,0,,,,,,,,,,,,,,,,,,,,,,,,,,,,,,,,,,,,,,,,,,,,,,,,,,,,,,,,,,,,,,,845,22,V,L,2026-02-18_12h13.01.659,VisualSearch_2526_3,,2025.2.4,2026-02-18 12h13.01.903636 +0100,
vertical.xlsx,The target is tilted.,135,0,0,0,0,0,0,0,0,0,0,0,0,0,0,0,1,1,1,135,space,10.490588599999683,None,0,1,1.2315729000001738,None,,,,0,1,1,1,0,0,0,7,,,,,577.3156948000005,,,,,,,,,,,,,,,566.7867329999999,566.7867329999999,566.7867329999999,space,10.490588599999683,None,577.3113573,577.3156948000005,577.8007332000006,577.8059721,577.8218906000002,579.0673335000001,0,1,1.2315729000001738,None,579.0674770000005,579.0831601999998,579.2834358,579.2674308000005,,,,,,,,,,,,,,,,,,,,845,22,V,L,2026-02-18_12h13.01.659,VisualSearch_2526_3,,2025.2.4,2026-02-18 12h13.01.903636 +0100,
vertical.xlsx,The target is tilted.,135,1,1,0,1,1,1,1,1,1,1,1,1,1,1,1,0,11,12,135,space,10.490588599999683,None,1,1,1.328747100000328,None,,,,0,1,1,1,0,1,1,0,,,,,579.2834358,,,,,,,,,,,,,,,,,,,,,579.2681978999999,579.2834358,579.7672038999999,579.7723723999998,579.7900353000005,581.133484,1,1,1.328747100000328,None,581.1336412999999,581.1492718,581.3494059000004,581.3333375000002,579.7900353000005,,,,,,,,,,,,,,,,,,,845,22,V,L,2026-02-18_12h13.01.659,VisualSearch_2526_3,,2025.2.4,2026-02-18 12h13.01.903636 +0100,
vertical.xlsx,The target is tilted.,135,2,2,0,0,1,1,1,1,1,1,1,0,0,0,0,1,7,8,135,space,10.490588599999683,None,0,1,4.6634569000007104,None,,,,0,1,1,1,0,2,2,5,,,,,581.3494059000004,,,,,,,,,,,,,,,,,,,,,581.3340717000001,581.3494059000004,581.8331443000006,581.8382802000006,581.8541945000006,586.5321843000002,0,1,4.6634569000007104,None,586.5324276000001,586.5473442000002,586.7474364,586.7314606999998,581.8541945000006,,,,,,,,,,,,,,,,,,,845,22,V,L,2026-02-18_12h13.01.659,VisualSearch_2526_3,,2025.2.4,2026-02-18 12h13.01.903636 +0100,
vertical.xlsx,The target is tilted.,135,3,3,0,1,1,1,1,0,0,0,0,0,0,0,0,0,3,4,135,space,10.490588599999683,None,1,1,2.8137322000002314,None,,,,0,1,1,1,0,3,3,2,,,,,586.7474364,,,,,,,,,,,,,,,,,,,,,586.7322220000005,586.7474364,587.2309512000002,587.2361036000002,587.2541907000004,590.0808514,1,1,2.8137322000002314,None,590.0810415000005,590.0964608000004,590.2959877000003,590.2805570999999,587.2541907000004,,,,,,,,,,,,,,,,,,,845,22,V,L,2026-02-18_12h13.01.659,VisualSearch_2526_3,,2025.2.4,2026-02-18 12h13.01.903636 +0100,
vertical.xlsx,The target is tilted.,135,4,4,0,0,1,1,1,0,0,0,0,0,0,0,0,1,3,4,135,space,10.490588599999683,None,0,1,1.101773599999433,None,,,,0,1,1,1,0,4,4,6,,,,,590.2959877000003,,,,,,,,,,,,,,,,,,,,,590.2815729000004,590.2959877000003,590.7802252000001,590.7853876999998,590.801931,591.9137006999999,0,1,1.101773599999433,None,591.9139308000003,591.9290606000004,592.1291695,592.1131028,590.801931,,,,,,,,,,,,,,,,,,,845,22,V,L,2026-02-18_12h13.01.659,VisualSearch_2526_3,,2025.2.4,2026-02-18 12h13.01.903636 +0100,
vertical.xlsx,The target is tilted.,135,5,5,0,1,1,1,1,1,1,1,1,0,0,0,0,0,7,8,135,space,10.490588599999683,None,1,1,1.2302786000000197,None,,,,0,1,1,1,0,5,5,1,,,,,592.1291695,,,,,,,,,,,,,,,,,,,,,592.1138399000001,592.1291695,592.6127531000002,592.6179507000006,592.6361037000006,593.8794586000004,1,1,1.2302786000000197,None,593.8796465000005,593.8948139000004,594.0952134999998,594.0790905000003,592.6361037000006,,,,,,,,,,,,,,,,,,,845,22,V,L,2026-02-18_12h13.01.659,VisualSearch_2526_3,,2025.2.4,2026-02-18 12h13.01.903636 +0100,
vertical.xlsx,The target is tilted.,135,6,6,0,0,1,1,1,1,1,1,1,1,1,1,1,1,11,12,135,space,10.490588599999683,None,0,1,3.157675299999937,None,,,,0,1,1,1,0,6,6,4,,,,,594.0952134999998,,,,,,,,,,,,,,,,,,,,,594.0798370000002,594.0952134999998,594.5788864000006,594.5841202000001,594.6003062,597.7609751,0,1,3.157675299999937,None,597.7610961,597.7770372000004,597.9770312,597.9610956000006,594.6003062,,,,,,,,,,,,,,,,,,,845,22,V,L,2026-02-18_12h13.01.659,VisualSearch_2526_3,,2025.2.4,2026-02-18 12h13.01.903636 +0100,
vertical.xlsx,The target is tilted.,135,7,7,0,1,0,0,0,0,0,0,0,0,0,0,0,0,0,1,135,space,10.490588599999683,None,1,1,1.2760459000000992,None,,,,0,1,1,1,0,7,7,3,,,,,597.9770312,,,,,,,,,,,,,,,,,,,,,597.9618844000006,597.9770312,598.4605921000002,598.4657987,598.4819347000002,599.7612853999999,1,1,1.2760459000000992,None,599.7614945000005,599.7765757000006,599.9765827000001,599.9604574000005,598.4819347000002,,,,,,,,,,,,,,,,,,,845,22,V,L,2026-02-18_12h13.01.659,VisualSearch_2526_3,,2025.2.4,2026-02-18 12h13.01.903636 +0100,
vertical.xlsx,The target is tilted.,135,0,0,0,0,1,1,1,0,0,0,0,0,0,0,0,1,3,4,135,space,10.490588599999683,None,0,1,2.612514100000226,None,space,3.3172734999998283,None,0,1,1,1,,,,,0,0,0,6,603.3418793000001,,,,,,,,,,,,,,,,,,,,,603.3379912,603.3418793000001,603.8257078000006,603.8310188000005,603.8487629000001,606.4750727999999,,,,,606.4752223000005,606.4910143000006,606.6907772000004,606.6744517000006,,599.9691443000002,599.9765827000001,599.9765827000001,603.3097145000002,space,3.3172734999998283,None,0,1,2.612514100000226,None,,,,,,,,845,22,V,L,2026-02-18_12h13.01.659,VisualSearch_2526_3,,2025.2.4,2026-02-18 12h13.01.903636 +0100,
vertical.xlsx,The target is tilted.,135,1,1,0,0,1,1,1,1,1,1,1,1,1,1,1,1,11,12,135,space,10.490588599999683,None,0,1,1.1721686000000773,None,space,3.3172734999998283,None,0,1,1,1,,,,,0,1,1,4,606.6907772000004,,,,,,,,,,,,,,,,,,,,,606.6752762000006,606.6907772000004,607.1748754999999,607.1801486000004,607.1992797000003,608.3747460000004,,,,,608.3749791999999,608.3901873000004,608.5903761999998,608.5741036999998,607.1992797000003,,,,,,,,0,1,1.1721686000000773,None,,,,,,,,845,22,V,L,2026-02-18_12h13.01.659,VisualSearch_2526_3,,2025.2.4,2026-02-18 12h13.01.903636 +0100,
vertical.xlsx,The target is tilted.,135,2,2,0,1,1,1,1,1,1,1,1,0,0,0,0,0,7,8,135,space,10.490588599999683,None,0,0,1.5738186999997197,None,space,3.3172734999998283,None,0,1,1,1,,,,,0,2,2,1,608.5903761999998,,,,,,,,,,,,,,,,,,,,,608.5748498000003,608.5903761999998,609.0742656000002,609.0794612,609.0971076000005,610.6741964000003,,,,,610.6743996000005,610.6897322000004,610.8896089999998,610.8735487000004,609.0971076000005,,,,,,,,0,0,1.5738186999997197,None,,,,,,,,845,22,V,L,2026-02-18_12h13.01.659,VisualSearch_2526_3,,2025.2.4,2026-02-18 12h13.01.903636 +0100,
vertical.xlsx,The target is tilted.,135,3,3,0,0,0,0,0,0,0,0,0,0,0,0,0,1,1,1,135,space,10.490588599999683,None,0,1,0.7246313999994527,None,space,3.3172734999998283,None,0,1,1,1,,,,,0,3,3,7,610.8896089999998,,,,,,,,,,,,,,,,,,,,,610.8743715999999,610.8896089999998,611.3730890000006,611.3783665000001,611.3974681999998,612.1237485000001,,,,,612.1239996000004,612.1391265000002,612.3391996,612.3232029999999,611.3974681999998,,,,,,,,0,1,0.7246313999994527,None,,,,,,,,845,22,V,L,2026-02-18_12h13.01.659,VisualSearch_2526_3,,2025.2.4,2026-02-18 12h13.01.903636 +0100,
vertical.xlsx,The target is tilted.,135,4,4,0,1,0,0,0,0,0,0,0,0,0,0,0,0,0,1,135,space,10.490588599999683,None,1,1,0.9242967999998655,None,space,3.3172734999998283,None,0,1,1,1,,,,,0,4,4,3,612.3391996,,,,,,,,,,,,,,,,,,,,,612.3240407000003,612.3391996,612.8225948999998,612.8277561000004,612.8425514,613.7729625000002,,,,,613.7731529000002,613.7887141000001,613.9886305,613.9726418999999,612.8425514,,,,,,,,1,1,0.9242967999998655,None,,,,,,,,845,22,V,L,2026-02-18_12h13.01.659,VisualSearch_2526_3,,2025.2.4,2026-02-18 12h13.01.903636 +0100,
vertical.xlsx,The target is tilted.,135,5,5,0,1,1,1,1,0,0,0,0,0,0,0,0,0,3,4,135,space,10.490588599999683,None,1,1,1.053413499999806,None,space,3.3172734999998283,None,0,1,1,1,,,,,0,5,5,2,613.9886305,,,,,,,,,,,,,,,,,,,,,613.9734403000002,613.9886305,614.4724016999999,614.4775864000003,614.4930284000002,615.5551955000001,,,,,615.5553110999999,615.5710790000003,615.7712650000003,615.7555859000004,614.4930284000002,,,,,,,,1,1,1.053413499999806,None,,,,,,,,845,22,V,L,2026-02-18_12h13.01.659,VisualSearch_2526_3,,2025.2.4,2026-02-18 12h13.01.903636 +0100,
vertical.xlsx,The target is tilted.,135,6,6,0,0,1,1,1,1,1,1,1,0,0,0,0,1,7,8,135,space,10.490588599999683,None,0,1,3.176285999999891,None,space,3.3172734999998283,None,0,1,1,1,,,,,0,6,6,5,615.7712650000003,,,,,,,,,,,,,,,,,,,,,615.7564487,615.7712650000003,616.2552132000001,616.2603761999999,616.2763515000006,619.4546325000001,,,,,619.4548730000006,619.4699638000002,619.6701791000005,619.6541032000005,616.2763515000006,,,,,,,,0,1,3.176285999999891,None,,,,,,,,845,22,V,L,2026-02-18_12h13.01.659,VisualSearch_2526_3,,2025.2.4,2026-02-18 12h13.01.903636 +0100,
vertical.xlsx,The target is tilted.,135,7,7,0,1,1,1,1,1,1,1,1,1,1,1,1,0,11,12,135,space,10.490588599999683,None,1,1,1.5652155999996467,None,space,3.3172734999998283,None,0,1,1,1,,,,,0,7,7,0,619.6701791000005,,,,,,,,,,,,,,,,,,,,,619.6550152999998,619.6701791000005,620.1538785000002,620.1590594999998,620.1780438000005,621.7527577000001,,,,,621.7529042000006,621.7685570000003,621.9687908000005,621.9526503000006,620.1780438000005,,,,,,,,1,1,1.5652155999996467,None,,,,,,,,845,22,V,L,2026-02-18_12h13.01.659,VisualSearch_2526_3,,2025.2.4,2026-02-18 12h13.01.903636 +0100,
vertical.xlsx,The target is tilted.,135,8,0,1,1,1,1,1,0,0,0,0,0,0,0,0,0,3,4,135,space,10.490588599999683,None,1,1,1.6057204999997339,None,space,3.3172734999998283,None,0,1,1,1,,,,,1,0,8,2,621.9687908000005,,,,,,,,,,,,,,,,,,,,,621.9535252000005,621.9687908000005,622.4532134000001,622.4584570000006,622.4758468,624.0862450000004,,,,,624.0864611000006,624.1014524000002,624.3016809000001,624.2857620000004,622.4758468,,,,,,,,1,1,1.6057204999997339,None,,,,,,,,845,22,V,L,2026-02-18_12h13.01.659,VisualSearch_2526_3,,2025.2.4,2026-02-18 12h13.01.903636 +0100,
vertical.xlsx,The target is tilted.,135,9,1,1,0,1,1,1,0,0,0,0,0,0,0,0,1,3,4,135,space,10.490588599999683,None,0,1,0.8612547999991875,None,space,3.3172734999998283,None,0,1,1,1,,,,,1,1,9,6,624.3016809000001,,,,,,,,,,,,,,,,,,,,,624.2865972,624.3016809000001,624.7857874000001,624.7909252,624.8070171999998,625.6852960000006,,,,,625.6854055000003,625.7012707000004,625.9014715000003,625.8854148999999,624.8070171999998,,,,,,,,0,1,0.8612547999991875,None,,,,,,,,845,22,V,L,2026-02-18_12h13.01.659,VisualSearch_2526_3,,2025.2.4,2026-02-18 12h13.01.903636 +0100,
vertical.xlsx,The target is tilted.,135,10,2,1,1,0,0,0,0,0,0,0,0,0,0,0,0,0,1,135,space,10.490588599999683,None,1,1,0.7054856000004293,None,space,3.3172734999998283,None,0,1,1,1,,,,,1,2,10,3,625.9014715000003,,,,,,,,,,,,,,,,,,,,,625.8862721000005,625.9014715000003,626.3852370000004,626.3904069,626.4081803999998,627.1185664000004,,,,,627.1187790000004,627.1340630000004,627.3343227000005,627.3182568000002,626.4081803999998,,,,,,,,1,1,0.7054856000004293,None,,,,,,,,845,22,V,L,2026-02-18_12h13.01.659,VisualSearch_2526_3,,2025.2.4,2026-02-18 12h13.01.903636 +0100,
vertical.xlsx,The target is tilted.,135,11,3,1,0,0,0,0,0,0,0,0,0,0,0,0,1,1,1,135,space,10.490588599999683,None,0,1,1.0646286999999575,None,space,3.3172734999998283,None,0,1,1,1,,,,,1,3,11,7,627.3343227000005,,,,,,,,,,,,,,,,,,,,,627.3190909000004,627.3343227000005,627.8177157,627.8238624000005,627.8395335000005,628.9181777000003,,,,,628.9184161000003,628.9334896,629.1337143999999,629.1174194000005,627.8395335000005,,,,,,,,0,1,1.0646286999999575,None,,,,,,,,845,22,V,L,2026-02-18_12h13.01.659,VisualSearch_2526_3,,2025.2.4,2026-02-18 12h13.01.903636 +0100,
vertical.xlsx,The target is tilted.,135,12,4,1,1,1,1,1,1,1,1,1,1,1,1,1,0,11,12,135,space,10.490588599999683,None,1,1,0.859090500000093,None,space,3.3172734999998283,None,0,1,1,1,,,,,1,4,12,0,629.1337143999999,,,,,,,,,,,,,,,,,,,,,629.1182832000004,629.1337143999999,629.6174921000002,629.6227411999998,629.6402345000006,630.5010941,,,,,630.5013618000003,630.5163541000002,630.7165853000006,630.7002796000006,629.6402345000006,,,,,,,,1,1,0.859090500000093,None,,,,,,,,845,22,V,L,2026-02-18_12h13.01.659,VisualSearch_2526_3,,2025.2.4,2026-02-18 12h13.01.903636 +0100,
vertical.xlsx,The target is tilted.,135,13,5,1,0,1,1,1,1,1,1,1,1,1,1,1,1,11,12,135,space,10.490588599999683,None,0,1,2.640236800000821,None,space,3.3172734999998283,None,0,1,1,1,,,,,1,5,13,4,630.7165853000006,,,,,,,,,,,,,,,,,,,,,630.7011653,630.7165853000006,631.2002338000002,631.2055002000006,631.2220914,633.8658905000002,,,,,633.8660232000002,633.881746,634.0817674,634.0658639000003,631.2220914,,,,,,,,0,1,2.640236800000821,None,,,,,,,,845,22,V,L,2026-02-18_12h13.01.659,VisualSearch_2526_3,,2025.2.4,2026-02-18 12h13.01.903636 +0100,
vertical.xlsx,The target is tilted.,135,14,6,1,0,1,1,1,1,1,1,1,0,0,0,0,1,7,8,135,space,10.490588599999683,None,0,1,1.26265389999935,None,space,3.3172734999998283,None,0,1,1,1,,,,,1,6,14,5,634.0817674,,,,,,,,,,,,,,,,,,,,,634.0666731000001,634.0817674,634.5654585000002,634.5689264000002,634.5832294000002,635.8491430000004,,,,,635.8493597000006,635.8647087999998,636.0648439000006,636.0486283999999,634.5832294000002,,,,,,,,0,1,1.26265389999935,None,,,,,,,,845,22,V,L,2026-02-18_12h13.01.659,VisualSearch_2526_3,,2025.2.4,2026-02-18 12h13.01.903636 +0100,
vertical.xlsx,The target is tilted.,135,15,7,1,1,1,1,1,1,1,1,1,0,0,0,0,0,7,8,135,space,10.490588599999683,None,1,1,1.447652200000448,None,space,3.3172734999998283,None,0,1,1,1,,,,,1,7,15,1,636.0648439000006,,,,,,,,,,,,,,,,,,,,,636.0494605000004,636.0648439000006,636.5482649000005,636.5533720000003,636.5643406999998,638.014932,,,,,638.0150844999998,638.0305478,638.2307740000006,638.2147012000005,636.5643406999998,,,,,,,,1,1,1.447652200000448,None,,,,,,,,845,22,V,L,2026-02-18_12h13.01.659,VisualSearch_2526_3,,2025.2.4,2026-02-18 12h13.01.903636 +0100,
vertical.xlsx,The target is tilted.,135,16,0,2,0,1,1,1,1,1,1,1,0,0,0,0,1,7,8,135,space,10.490588599999683,None,0,1,2.0480711000000156,None,space,3.3172734999998283,None,0,1,1,1,,,,,2,0,16,5,638.2307740000006,,,,,,,,,,,,,,,,,,,,,638.2155529000001,638.2307740000006,638.7145600000003,638.7197056000005,638.7385645000004,640.7978105000002,,,,,640.7980265000006,640.8132863999999,641.0131978999998,640.9969445000006,638.7385645000004,,,,,,,,0,1,2.0480711000000156,None,,,,,,,,845,22,V,L,2026-02-18_12h13.01.659,VisualSearch_2526_3,,2025.2.4,2026-02-18 12h13.01.903636 +0100,
vertical.xlsx,The target is tilted.,135,17,1,2,0,1,1,1,1,1,1,1,1,1,1,1,1,11,12,135,space,10.490588599999683,None,0,1,1.193948399999499,None,space,3.3172734999998283,None,0,1,1,1,,,,,2,1,17,4,641.0131978999998,,,,,,,,,,,,,,,,,,,,,640.9977432000005,641.0131978999998,641.4967433000002,641.5019324000004,641.5196683000004,642.7302859000001,,,,,642.7305579000003,642.7456399000002,642.9458435000006,642.9297881000002,641.5196683000004,,,,,,,,0,1,1.193948399999499,None,,,,,,,,845,22,V,L,2026-02-18_12h13.01.659,VisualSearch_2526_3,,2025.2.4,2026-02-18 12h13.01.903636 +0100,
vertical.xlsx,The target is tilted.,135,18,2,2,0,0,0,0,0,0,0,0,0,0,0,0,1,1,1,135,space,10.490588599999683,None,0,1,0.6367264999998952,None,space,3.3172734999998283,None,0,1,1,1,,,,,2,2,18,7,642.9458435000006,,,,,,,,,,,,,,,,,,,,,642.9306813000003,642.9458435000006,643.4292599,643.4344541,643.4517538999999,644.0962434000003,,,,,644.0964319000004,644.1117627000003,644.3121017000003,644.2959533000003,643.4517538999999,,,,,,,,0,1,0.6367264999998952,None,,,,,,,,845,22,V,L,2026-02-18_12h13.01.659,VisualSearch_2526_3,,2025.2.4,2026-02-18 12h13.01.903636 +0100,
vertical.xlsx,The target is tilted.,135,19,3,2,1,1,1,1,0,0,0,0,0,0,0,0,0,3,4,135,space,10.490588599999683,None,1,1,1.1044795999996495,None,space,3.3172734999998283,None,0,1,1,1,,,,,2,3,19,2,644.3121017000003,,,,,,,,,,,,,,,,,,,,,644.2967829999998,644.3121017000003,644.7958742999999,644.8010098000004,644.8186836000004,645.9289631000001,,,,,645.9291524999999,645.9449469000001,646.1448556000005,646.1285844000004,644.8186836000004,,,,,,,,1,1,1.1044795999996495,None,,,,,,,,845,22,V,L,2026-02-18_12h13.01.659,VisualSearch_2526_3,,2025.2.4,2026-02-18 12h13.01.903636 +0100,
vertical.xlsx,The target is tilted.,135,20,4,2,1,1,1,1,1,1,1,1,0,0,0,0,0,7,8,135,space,10.490588599999683,None,0,0,1.7162218000003122,None,space,3.3172734999998283,None,0,1,1,1,,,,,2,4,20,1,646.1448556000005,,,,,,,,,,,,,,,,,,,,,646.1294459999999,646.1448556000005,646.6285154000007,646.6337633000003,646.6507617000007,648.3781674000002,,,,,648.3783621000002,648.3939644000002,648.5939268000002,648.5775856,646.6507617000007,,,,,,,,0,0,1.7162218000003122,None,,,,,,,,845,22,V,L,2026-02-18_12h13.01.659,VisualSearch_2526_3,,2025.2.4,2026-02-18 12h13.01.903636 +0100,
vertical.xlsx,The target is tilted.,135,21,5,2,0,1,1,1,0,0,0,0,0,0,0,0,1,3,4,135,space,10.490588599999683,None,0,1,1.2851391000003787,None,space,3.3172734999998283,None,0,1,1,1,,,,,2,5,21,6,648.5939268000002,,,,,,,,,,,,,,,,,,,,,648.5783956000005,648.5939268000002,649.0775316999998,649.0828949000006,649.1009746,650.3944726,,,,,650.3947026000005,650.4099864,650.6100260000003,650.5938891000005,649.1009746,,,,,,,,0,1,1.2851391000003787,None,,,,,,,,845,22,V,L,2026-02-18_12h13.01.659,VisualSearch_2526_3,,2025.2.4,2026-02-18 12h13.01.903636 +0100,
vertical.xlsx,The target is tilted.,135,22,6,2,1,0,0,0,0,0,0,0,0,0,0,0,0,0,1,135,space,10.490588599999683,None,1,1,0.7201607000006334,None,space,3.3172734999998283,None,0,1,1,1,,,,,2,6,22,3,650.6100260000003,,,,,,,,,,,,,,,,,,,,,650.5948453000001,650.6100260000003,651.0938145,651.0990992000006,651.1175436000003,651.8435233,,,,,651.8436981000004,651.8595233000005,652.0592115,652.0434857,651.1175436000003,,,,,,,,1,1,0.7201607000006334,None,,,,,,,,845,22,V,L,2026-02-18_12h13.01.659,VisualSearch_2526_3,,2025.2.4,2026-02-18 12h13.01.903636 +0100,
vertical.xlsx,The target is tilted.,135,23,7,2,1,1,1,1,1,1,1,1,1,1,1,1,0,11,12,135,space,10.490588599999683,None,1,1,1.1507622999997693,None,space,3.3172734999998283,None,0,1,1,1,,,,,2,7,23,0,652.0592115,,,,,,,,,,,,,,,,,,,,,652.0442818000001,652.0592115,652.5433152000005,652.5486096000004,652.5661484000002,653.7267177000003,,,,,653.7269422999998,653.7420382,653.9422931999998,653.9262442999998,652.5661484000002,,,,,,,,1,1,1.1507622999997693,None,,,,,,,,845,22,V,L,2026-02-18_12h13.01.659,VisualSearch_2526_3,,2025.2.4,2026-02-18 12h13.01.903636 +0100,
vertical.xlsx,The target is tilted.,135,24,0,3,1,1,1,1,1,1,1,1,1,1,1,1,0,11,12,135,space,10.490588599999683,None,0,0,2.304110000000037,None,space,3.3172734999998283,None,0,1,1,1,,,,,3,0,24,0,653.9422931999998,,,,,,,,,,,,,,,,,,,,,653.9270972000004,653.9422931999998,654.4261047,654.4313929,654.4473297000004,656.7583492000003,,,,,656.7584809,656.7741305999998,656.9747406000006,656.9579825999999,654.4473297000004,,,,,,,,0,0,2.304110000000037,None,,,,,,,,845,22,V,L,2026-02-18_12h13.01.659,VisualSearch_2526_3,,2025.2.4,2026-02-18 12h13.01.903636 +0100,
vertical.xlsx,The target is tilted.,135,25,1,3,0,1,1,1,1,1,1,1,0,0,0,0,1,7,8,135,space,10.490588599999683,None,0,1,2.3528156000002127,None,space,3.3172734999998283,None,0,1,1,1,,,,,3,1,25,5,656.9747406000006,,,,,,,,,,,,,,,,,,,,,656.9588307000004,656.9747406000006,657.4582091000002,657.4635115000001,657.4809985000002,659.8408077000004,,,,,659.8409354000005,659.8567147000003,660.0568225000006,660.0408320000006,657.4809985000002,,,,,,,,0,1,2.3528156000002127,None,,,,,,,,845,22,V,L,2026-02-18_12h13.01.659,VisualSearch_2526_3,,2025.2.4,2026-02-18 12h13.01.903636 +0100,
vertical.xlsx,The target is tilted.,135,26,2,3,1,1,1,1,0,0,0,0,0,0,0,0,0,3,4,135,space,10.490588599999683,None,1,1,0.7507541000004494,None,space,3.3172734999998283,None,0,1,1,1,,,,,3,2,26,2,660.0568225000006,,,,,,,,,,,,,,,,,,,,,660.0416322000001,660.0568225000006,660.5408082000004,660.5438111000003,660.5566297000005,661.3234050000001,,,,,661.3235030000005,661.3394331999998,661.5397472000004,661.5237084,660.5566297000005,,,,,,,,1,1,0.7507541000004494,None,,,,,,,,845,22,V,L,2026-02-18_12h13.01.659,VisualSearch_2526_3,,2025.2.4,2026-02-18 12h13.01.903636 +0100,
vertical.xlsx,The target is tilted.,135,27,3,3,1,1,1,1,1,1,1,1,0,0,0,0,0,7,8,135,space,10.490588599999683,None,1,1,0.698261999999886,None,space,3.3172734999998283,None,0,1,1,1,,,,,3,3,27,1,661.5397472000004,,,,,,,,,,,,,,,,,,,,,661.5245253000003,661.5397472000004,662.0235944000005,662.028746,662.0470621000004,662.7568319000002,,,,,662.7570188999998,662.7727092000005,662.9726213000004,662.9561419000001,662.0470621000004,,,,,,,,1,1,0.698261999999886,None,,,,,,,,845,22,V,L,2026-02-18_12h13.01.659,VisualSearch_2526_3,,2025.2.4,2026-02-18 12h13.01.903636 +0100,
vertical.xlsx,The target is tilted.,135,28,4,3,0,1,1,1,1,1,1,1,1,1,1,1,1,11,12,135,space,10.490588599999683,None,0,1,2.7709813000001304,None,space,3.3172734999998283,None,0,1,1,1,,,,,3,4,28,4,662.9726213000004,,,,,,,,,,,,,,,,,,,,,662.9569726999998,662.9726213000004,663.4564153000001,663.4616878000006,663.4790535000002,666.2554163000004,,,,,666.2555526000006,666.2713259000002,666.4714915000004,666.4553984000004,663.4790535000002,,,,,,,,0,1,2.7709813000001304,None,,,,,,,,845,22,V,L,2026-02-18_12h13.01.659,VisualSearch_2526_3,,2025.2.4,2026-02-18 12h13.01.903636 +0100,
vertical.xlsx,The target is tilted.,135,29,5,3,0,1,1,1,0,0,0,0,0,0,0,0,1,3,4,135,space,10.490588599999683,None,0,1,0.6804351000000679,None,space,3.3172734999998283,None,0,1,1,1,,,,,3,5,29,6,666.4714915000004,,,,,,,,,,,,,,,,,,,,,666.4563493000005,666.4714915000004,666.9552917000001,666.9604459000002,666.9783446000001,667.6722847999999,,,,,667.6725352000003,667.6873583000006,667.8875400000006,667.8715900000007,666.9783446000001,,,,,,,,0,1,0.6804351000000679,None,,,,,,,,845,22,V,L,2026-02-18_12h13.01.659,VisualSearch_2526_3,,2025.2.4,2026-02-18 12h13.01.903636 +0100,
vertical.xlsx,The target is tilted.,135,30,6,3,1,0,0,0,0,0,0,0,0,0,0,0,0,0,1,135,space,10.490588599999683,None,1,1,0.6254906999993182,None,space,3.3172734999998283,None,0,1,1,1,,,,,3,6,30,3,667.8875400000006,,,,,,,,,,,,,,,,,,,,,667.8724116000003,667.8875400000006,668.3714631000003,668.3767888000002,668.3938789000003,669.0218008000002,,,,,669.0220391000003,669.0369890000002,669.2369224000004,669.2211549000003,668.3938789000003,,,,,,,,1,1,0.6254906999993182,None,,,,,,,,845,22,V,L,2026-02-18_12h13.01.659,VisualSearch_2526_3,,2025.2.4,2026-02-18 12h13.01.903636 +0100,
vertical.xlsx,The target is tilted.,135,31,7,3,0,0,0,0,0,0,0,0,0,0,0,0,1,1,1,135,space,10.490588599999683,None,0,1,0.7131742999999915,None,space,3.3172734999998283,None,0,1,1,1,,,,,3,7,31,7,669.2369224000004,,,,,,,,,,,,,,,,,,,,,669.2221069000007,669.2369224000004,669.7209751999999,669.7262176000004,669.7444457000001,670.5640993000006,,,,,670.5642363000006,670.5678056000006,670.7700942000001,670.7536246999998,669.7444457000001,,,,,,,,0,1,0.7131742999999915,None,,,,,,,,845,22,V,L,2026-02-18_12h13.01.659,VisualSearch_2526_3,,2025.2.4,2026-02-18 12h13.01.903636 +0100,
vertical.xlsx,The target is tilted.,135,32,0,4,0,1,1,1,1,1,1,1,0,0,0,0,1,7,8,135,space,10.490588599999683,None,1,0,0.878269800000453,None,space,3.3172734999998283,None,0,1,1,1,,,,,4,0,32,5,670.7700942000001,,,,,,,,,,,,,,,,,,,,,670.7544308000006,670.7700942000001,671.2538635000001,671.2590999000004,671.2761561000007,672.1701849000001,,,,,672.1703419000005,672.1856113000003,672.3862840000002,672.3700721000005,671.2761561000007,,,,,,,,1,0,0.878269800000453,None,,,,,,,,845,22,V,L,2026-02-18_12h13.01.659,VisualSearch_2526_3,,2025.2.4,2026-02-18 12h13.01.903636 +0100,
vertical.xlsx,The target is tilted.,135,33,1,4,0,0,0,0,0,0,0,0,0,0,0,0,1,1,1,135,space,10.490588599999683,None,0,1,1.548559299999397,None,space,3.3172734999998283,None,0,1,1,1,,,,,4,1,33,7,672.3862840000002,,,,,,,,,,,,,,,,,,,,,672.3708780000006,672.3862840000002,672.8700374999999,672.8748246000005,672.8859239000003,674.4366379000003,,,,,674.4368449000003,674.4521138999999,674.6521897000002,674.6361361999998,672.8859239000003,,,,,,,,0,1,1.548559299999397,None,,,,,,,,845,22,V,L,2026-02-18_12h13.01.659,VisualSearch_2526_3,,2025.2.4,2026-02-18 12h13.01.903636 +0100,
vertical.xlsx,The target is tilted.,135,34,2,4,1,1,1,1,0,0,0,0,0,0,0,0,0,3,4,135,space,10.490588599999683,None,1,1,1.3156082999994396,None,space,3.3172734999998283,None,0,1,1,1,,,,,4,2,34,2,674.6521897000002,,,,,,,,,,,,,,,,,,,,,674.6369898000003,674.6521897000002,675.1359461000002,675.1410589000006,675.1571562999998,676.4854487000002,,,,,676.4856116999999,676.5011541000003,676.7015382,676.6854498000002,675.1571562999998,,,,,,,,1,1,1.3156082999994396,None,,,,,,,,845,22,V,L,2026-02-18_12h13.01.659,VisualSearch_2526_3,,2025.2.4,2026-02-18 12h13.01.903636 +0100,
vertical.xlsx,The target is tilted.,135,35,3,4,1,0,0,0,0,0,0,0,0,0,0,0,0,0,1,135,space,10.490588599999683,None,1,1,0.6399258000001282,None,space,3.3172734999998283,None,0,1,1,1,,,,,4,3,35,3,676.7015382,,,,,,,,,,,,,,,,,,,,,676.6863787000002,676.7015382,677.1853034000005,677.1904494,677.2080847000007,677.8520128999999,,,,,677.8522253000001,677.8675597000001,678.0675311000005,678.0515001000003,677.2080847000007,,,,,,,,1,1,0.6399258000001282,None,,,,,,,,845,22,V,L,2026-02-18_12h13.01.659,VisualSearch_2526_3,,2025.2.4,2026-02-18 12h13.01.903636 +0100,
