file_name,block_instructions,target_example,thisN,thisTrialN,thisRepN,target_presence,opacity_1,opacity_2,opacity_3,opacity_4,opacity_5,opacity_6,opacity_7,opacity_8,opacity_9,opacity_10,opacity_11,opacity_12,n_distract,n_items,target_ori,key_resp_4.keys,key_resp_4.rt,key_resp_4.duration,key_resp.keys,key_resp.corr,key_resp.rt,key_resp.duration,key_resp_5.keys,key_resp_5.rt,key_resp_5.duration,blocks.thisRepN,blocks.thisTrialN,blocks.thisN,blocks.thisIndex,practice_trials.thisRepN,practice_trials.thisTrialN,practice_trials.thisN,practice_trials.thisIndex,trials.thisRepN,trials.thisTrialN,trials.thisN,trials.thisIndex,thisRow.t,notes,Welcome.started,WelcomeText.started,key_resp_2.started,Welcome.stopped,key_resp_2.keys,key_resp_2.rt,key_resp_2.duration,InformedConsent.started,text_4.started,InformedConsent.stopped,key_resp_6.keys,key_resp_6.rt,key_resp_6.duration,key_resp_4.started,example_target.started,text_3.started,blocks.key_resp_4.keys,blocks.key_resp_4.rt,blocks.key_resp_4.duration,FixCross.started,fixCross.started,FixCross.stopped,Stimulus.started,key_resp.started,Stimulus.stopped,practice_trials.key_resp.keys,practice_trials.key_resp.corr,practice_trials.key_resp.rt,practice_trials.key_resp.duration,BlankScreen.started,text.started,text.stopped,BlankScreen.stopped,fixCross.stopped,ExperimentStart.started,text_2.started,key_resp_5.started,ExperimentStart.stopped,blocks.key_resp_5.keys,blocks.key_resp_5.rt,blocks.key_resp_5.duration,trials.key_resp.keys,trials.key_resp.corr,trials.key_resp.rt,trials.key_resp.duration,Thanks.started,ThankYou.started,key_resp_3.started,Thanks.stopped,key_resp_3.keys,key_resp_3.rt,key_resp_3.duration,participant,leeftijd,gender,links/rechtshandig,date,expName,expVersion,psychopyVersion,expStart,
,,,,,,,,,,,,,,,,,,,,,,,,,,,,,,,,,,,,,,,,,,,,,,0.02309849999983271,0.05325459999949089,0.05325459999949089,21.498677799999314,space,21.426231200000075,None,,,,,,,,,,,,,,,,,,,,,,,,,,,,,,,,,,,,,,,,,,,,,,846,22,M,R,2026-02-18_12h28.14.253,VisualSearch_2526_3,,2025.2.4,2026-02-18 12h28.14.488269 +0100,
,,,,,,,,,,,,,,,,,,,,,,,,,,,,,,,,,,,,,,,,,,,,,,,,,,,,,21.498848799999905,21.50902649999989,32.844919399999526,y,11.339387200000601,None,,,,,,,,,,,,,,,,,,,,,,,,,,,,,,,,,,,,,,,,846,22,M,R,2026-02-18_12h28.14.253,VisualSearch_2526_3,,2025.2.4,2026-02-18 12h28.14.488269 +0100,
tilted.xlsx,The target is tilted.,117,0,0,0,0,1,1,1,1,1,1,1,1,1,1,1,1,11,12,117,space,7.8186273999999685,None,1,0,3.5871878999996625,None,,,,0,0,0,0,0,0,0,4,,,,,40.73973939999996,,,,,,,,,,,,,,,32.888111899999785,32.888111899999785,32.888111899999785,space,7.8186273999999685,None,40.73395849999997,40.73973939999996,41.224558899999465,41.23005229999944,41.24624979999953,44.84065699999974,1,0,3.5871878999996625,None,44.84085619999951,44.85631839999951,45.05623399999968,45.04018729999916,,,,,,,,,,,,,,,,,,,,846,22,M,R,2026-02-18_12h28.14.253,VisualSearch_2526_3,,2025.2.4,2026-02-18 12h28.14.488269 +0100,
tilted.xlsx,The target is tilted.,117,1,1,0,0,0,0,0,0,0,0,0,0,0,0,0,1,1,1,117,space,7.8186273999999685,None,1,0,0.6876365999996779,None,,,,0,0,0,0,0,1,1,7,,,,,45.05623399999968,,,,,,,,,,,,,,,,,,,,,45.0409312999991,45.05623399999968,45.54020329999912,45.54625599999963,45.5644429999993,46.256388399999196,1,0,0.6876365999996779,None,46.256560899999386,46.27247079999961,46.47219699999914,46.45640299999923,45.5644429999993,,,,,,,,,,,,,,,,,,,846,22,M,R,2026-02-18_12h28.14.253,VisualSearch_2526_3,,2025.2.4,2026-02-18 12h28.14.488269 +0100,
tilted.xlsx,The target is tilted.,117,2,2,0,1,1,1,1,0,0,0,0,0,0,0,0,0,3,4,117,space,7.8186273999999685,None,1,1,1.6473501999998916,None,,,,0,0,0,0,0,2,2,2,,,,,46.47219699999914,,,,,,,,,,,,,,,,,,,,,46.45713539999997,46.47219699999914,46.955235999999786,46.958453799999916,46.97219389999918,48.62298799999917,1,1,1.6473501999998916,None,48.62320849999924,48.63795559999926,48.83838979999928,48.82174369999939,46.97219389999918,,,,,,,,,,,,,,,,,,,846,22,M,R,2026-02-18_12h28.14.253,VisualSearch_2526_3,,2025.2.4,2026-02-18 12h28.14.488269 +0100,
tilted.xlsx,The target is tilted.,117,3,3,0,1,0,0,0,0,0,0,0,0,0,0,0,0,0,1,117,space,7.8186273999999685,None,1,1,0.8043996999995215,None,,,,0,0,0,0,0,3,3,3,,,,,48.83838979999928,,,,,,,,,,,,,,,,,,,,,48.8221812999991,48.83838979999928,49.32213619999948,49.3274365999996,49.34870839999985,50.155441699999756,1,1,0.8043996999995215,None,50.15563269999984,50.170776699999806,50.370893699999215,50.35489509999934,49.34870839999985,,,,,,,,,,,,,,,,,,,846,22,M,R,2026-02-18_12h28.14.253,VisualSearch_2526_3,,2025.2.4,2026-02-18 12h28.14.488269 +0100,
tilted.xlsx,The target is tilted.,117,4,4,0,0,1,1,1,1,1,1,1,0,0,0,0,1,7,8,117,space,7.8186273999999685,None,1,0,2.52144860000044,None,,,,0,0,0,0,0,4,4,5,,,,,50.370893699999215,,,,,,,,,,,,,,,,,,,,,50.35566049999943,50.370893699999215,50.85500839999986,50.860349999999926,50.880143499999576,53.4049744999993,1,0,2.52144860000044,None,53.4051901999992,53.41969859999972,53.62006389999988,53.60411549999935,50.880143499999576,,,,,,,,,,,,,,,,,,,846,22,M,R,2026-02-18_12h28.14.253,VisualSearch_2526_3,,2025.2.4,2026-02-18 12h28.14.488269 +0100,
tilted.xlsx,The target is tilted.,117,5,5,0,1,1,1,1,1,1,1,1,0,0,0,0,0,7,8,117,space,7.8186273999999685,None,1,1,1.0738994999992428,None,,,,0,0,0,0,0,5,5,1,,,,,53.62006389999988,,,,,,,,,,,,,,,,,,,,,53.604944499999874,53.62006389999988,54.10394669999914,54.10935399999926,54.12775599999986,55.20394759999999,1,1,1.0738994999992428,None,55.20414029999938,55.21909009999945,55.41954089999945,55.40345989999969,54.12775599999986,,,,,,,,,,,,,,,,,,,846,22,M,R,2026-02-18_12h28.14.253,VisualSearch_2526_3,,2025.2.4,2026-02-18 12h28.14.488269 +0100,
tilted.xlsx,The target is tilted.,117,6,6,0,0,1,1,1,0,0,0,0,0,0,0,0,1,3,4,117,space,7.8186273999999685,None,0,1,1.9198154999994586,None,,,,0,0,0,0,0,6,6,6,,,,,55.41954089999945,,,,,,,,,,,,,,,,,,,,,55.40419109999948,55.41954089999945,55.90333329999976,55.9087099999997,55.92645889999949,57.853198699999666,0,1,1.9198154999994586,None,57.8534267999994,57.86804239999947,58.068653899999845,58.05252569999993,55.92645889999949,,,,,,,,,,,,,,,,,,,846,22,M,R,2026-02-18_12h28.14.253,VisualSearch_2526_3,,2025.2.4,2026-02-18 12h28.14.488269 +0100,
tilted.xlsx,The target is tilted.,117,7,7,0,1,1,1,1,1,1,1,1,1,1,1,1,0,11,12,117,space,7.8186273999999685,None,1,1,1.1083009000003585,None,,,,0,0,0,0,0,7,7,0,,,,,58.068653899999845,,,,,,,,,,,,,,,,,,,,,58.053292199999305,58.068653899999845,58.552397599999495,58.556968799999595,58.568289599999844,59.68574409999928,1,1,1.1083009000003585,None,59.685938599999645,59.700888999999734,59.90116829999988,59.88541489999989,58.568289599999844,,,,,,,,,,,,,,,,,,,846,22,M,R,2026-02-18_12h28.14.253,VisualSearch_2526_3,,2025.2.4,2026-02-18 12h28.14.488269 +0100,
tilted.xlsx,The target is tilted.,117,0,0,0,0,1,1,1,1,1,1,1,0,0,0,0,1,7,8,117,space,7.8186273999999685,None,1,0,2.2497510000002876,None,space,2.2914047000003848,None,0,0,0,0,,,,,0,0,0,5,62.237892199999806,,,,,,,,,,,,,,,,,,,,,62.233537799999795,62.237892199999806,62.71750499999962,62.7229926,62.74193589999959,65.00013129999934,,,,,65.00027959999989,65.01558869999917,65.21618439999929,65.20026449999932,,59.89317149999988,59.90116829999988,59.90116829999988,62.20138139999926,space,2.2914047000003848,None,1,0,2.2497510000002876,None,,,,,,,,846,22,M,R,2026-02-18_12h28.14.253,VisualSearch_2526_3,,2025.2.4,2026-02-18 12h28.14.488269 +0100,
tilted.xlsx,The target is tilted.,117,1,1,0,1,1,1,1,1,1,1,1,1,1,1,1,0,11,12,117,space,7.8186273999999685,None,1,1,1.379406599999129,None,space,2.2914047000003848,None,0,0,0,0,,,,,0,1,1,0,65.21618439999929,,,,,,,,,,,,,,,,,,,,,65.2010980999994,65.21618439999929,65.70011749999958,65.70536899999934,65.72292549999929,67.11580119999962,,,,,67.11596029999964,67.13179969999965,67.33223289999933,67.31624649999958,65.72292549999929,,,,,,,,1,1,1.379406599999129,None,,,,,,,,846,22,M,R,2026-02-18_12h28.14.253,VisualSearch_2526_3,,2025.2.4,2026-02-18 12h28.14.488269 +0100,
tilted.xlsx,The target is tilted.,117,2,2,0,1,1,1,1,0,0,0,0,0,0,0,0,0,3,4,117,space,7.8186273999999685,None,1,1,1.5150913000006767,None,space,2.2914047000003848,None,0,0,0,0,,,,,0,2,2,2,67.33223289999933,,,,,,,,,,,,,,,,,,,,,67.31706849999955,67.33223289999933,67.81590199999937,67.82070009999916,67.83794079999916,69.36567039999954,,,,,69.36583439999959,69.38113199999952,69.58104289999937,69.56555389999994,67.83794079999916,,,,,,,,1,1,1.5150913000006767,None,,,,,,,,846,22,M,R,2026-02-18_12h28.14.253,VisualSearch_2526_3,,2025.2.4,2026-02-18 12h28.14.488269 +0100,
tilted.xlsx,The target is tilted.,117,3,3,0,1,0,0,0,0,0,0,0,0,0,0,0,0,0,1,117,space,7.8186273999999685,None,1,1,0.7551130000001649,None,space,2.2914047000003848,None,0,0,0,0,,,,,0,3,3,3,69.58104289999937,,,,,,,,,,,,,,,,,,,,,69.56647359999988,69.58104289999937,70.06533979999949,70.07073369999944,70.08838729999934,70.84785109999939,,,,,70.84800559999985,70.86375739999949,71.06411299999945,71.04835449999973,70.08838729999934,,,,,,,,1,1,0.7551130000001649,None,,,,,,,,846,22,M,R,2026-02-18_12h28.14.253,VisualSearch_2526_3,,2025.2.4,2026-02-18 12h28.14.488269 +0100,
tilted.xlsx,The target is tilted.,117,4,4,0,0,0,0,0,0,0,0,0,0,0,0,0,1,1,1,117,space,7.8186273999999685,None,1,0,0.7513280000002851,None,space,2.2914047000003848,None,0,0,0,0,,,,,0,4,4,7,71.06411299999945,,,,,,,,,,,,,,,,,,,,,71.04915539999911,71.06411299999945,71.54826479999974,71.55360249999922,71.57203909999953,72.33139999999912,,,,,72.33159819999946,72.34685179999997,72.5473435999993,72.53087989999949,71.57203909999953,,,,,,,,1,0,0.7513280000002851,None,,,,,,,,846,22,M,R,2026-02-18_12h28.14.253,VisualSearch_2526_3,,2025.2.4,2026-02-18 12h28.14.488269 +0100,
tilted.xlsx,The target is tilted.,117,5,5,0,0,1,1,1,0,0,0,0,0,0,0,0,1,3,4,117,space,7.8186273999999685,None,1,0,1.244058500000392,None,space,2.2914047000003848,None,0,0,0,0,,,,,0,5,5,6,72.5473435999993,,,,,,,,,,,,,,,,,,,,,72.53180799999973,72.5473435999993,73.03097539999999,73.03629789999923,73.05396439999913,74.31375759999992,,,,,74.31392529999994,74.32935049999924,74.52989159999925,74.51383109999915,73.05396439999913,,,,,,,,1,0,1.244058500000392,None,,,,,,,,846,22,M,R,2026-02-18_12h28.14.253,VisualSearch_2526_3,,2025.2.4,2026-02-18 12h28.14.488269 +0100,
tilted.xlsx,The target is tilted.,117,6,6,0,1,1,1,1,1,1,1,1,0,0,0,0,0,7,8,117,space,7.8186273999999685,None,1,1,2.5338823000001867,None,space,2.2914047000003848,None,0,0,0,0,,,,,0,6,6,1,74.52989159999925,,,,,,,,,,,,,,,,,,,,,74.51466349999919,74.52989159999925,75.01348429999962,75.01891239999986,75.03546869999991,77.58002519999991,,,,,77.58026239999981,77.59508929999993,77.79560339999989,77.7789989999992,75.03546869999991,,,,,,,,1,1,2.5338823000001867,None,,,,,,,,846,22,M,R,2026-02-18_12h28.14.253,VisualSearch_2526_3,,2025.2.4,2026-02-18 12h28.14.488269 +0100,
tilted.xlsx,The target is tilted.,117,7,7,0,0,1,1,1,1,1,1,1,1,1,1,1,1,11,12,117,space,7.8186273999999685,None,1,0,1.2187149000001227,None,space,2.2914047000003848,None,0,0,0,0,,,,,0,7,7,4,77.79560339999989,,,,,,,,,,,,,,,,,,,,,77.77980659999957,77.79560339999989,78.27938419999919,78.2849699999997,78.3029306999997,79.52896099999998,,,,,79.52911389999917,79.54432469999938,79.7448558999995,79.72874169999977,78.3029306999997,,,,,,,,1,0,1.2187149000001227,None,,,,,,,,846,22,M,R,2026-02-18_12h28.14.253,VisualSearch_2526_3,,2025.2.4,2026-02-18 12h28.14.488269 +0100,
tilted.xlsx,The target is tilted.,117,8,0,1,0,1,1,1,1,1,1,1,1,1,1,1,1,11,12,117,space,7.8186273999999685,None,1,0,0.9142683999998553,None,space,2.2914047000003848,None,0,0,0,0,,,,,1,0,8,4,79.7448558999995,,,,,,,,,,,,,,,,,,,,,79.7296611999991,79.7448558999995,80.2287553999995,80.23408549999931,80.25187209999967,81.17836979999993,,,,,81.17852429999948,81.19376489999922,81.39425949999986,81.37821739999981,80.25187209999967,,,,,,,,1,0,0.9142683999998553,None,,,,,,,,846,22,M,R,2026-02-18_12h28.14.253,VisualSearch_2526_3,,2025.2.4,2026-02-18 12h28.14.488269 +0100,
tilted.xlsx,The target is tilted.,117,9,1,1,0,1,1,1,0,0,0,0,0,0,0,0,1,3,4,117,space,7.8186273999999685,None,1,0,1.2872860999996192,None,space,2.2914047000003848,None,0,0,0,0,,,,,1,1,9,6,81.39425949999986,,,,,,,,,,,,,,,,,,,,,81.37910919999922,81.39425949999986,81.8777072999992,81.88275209999938,81.8935337999992,83.19420179999997,,,,,83.19441069999993,83.20995169999969,83.41036349999922,83.39430699999957,81.8935337999992,,,,,,,,1,0,1.2872860999996192,None,,,,,,,,846,22,M,R,2026-02-18_12h28.14.253,VisualSearch_2526_3,,2025.2.4,2026-02-18 12h28.14.488269 +0100,
tilted.xlsx,The target is tilted.,117,10,2,1,1,0,0,0,0,0,0,0,0,0,0,0,0,0,1,117,space,7.8186273999999685,None,0,0,1.3299808000001576,None,space,2.2914047000003848,None,0,0,0,0,,,,,1,2,10,3,83.41036349999922,,,,,,,,,,,,,,,,,,,,,83.39510989999962,83.41036349999922,83.89411299999938,83.89953909999986,83.91824329999963,85.25983309999992,,,,,85.2599827999993,85.27586219999921,85.47635739999987,85.46018789999926,83.91824329999963,,,,,,,,0,0,1.3299808000001576,None,,,,,,,,846,22,M,R,2026-02-18_12h28.14.253,VisualSearch_2526_3,,2025.2.4,2026-02-18 12h28.14.488269 +0100,
tilted.xlsx,The target is tilted.,117,11,3,1,1,1,1,1,1,1,1,1,0,0,0,0,0,7,8,117,space,7.8186273999999685,None,1,1,4.434587300000203,None,space,2.2914047000003848,None,0,0,0,0,,,,,1,3,11,1,85.47635739999987,,,,,,,,,,,,,,,,,,,,,85.46106129999953,85.47635739999987,85.95997869999974,85.9651617999998,85.9789325999991,90.42477699999927,,,,,90.42492839999977,90.44090389999928,,90.6250844999995,85.9789325999991,,,,,,,,1,1,4.434587300000203,None,,,,,,,,846,22,M,R,2026-02-18_12h28.14.253,VisualSearch_2526_3,,2025.2.4,2026-02-18 12h28.14.488269 +0100,
tilted.xlsx,The target is tilted.,117,12,4,1,1,1,1,1,1,1,1,1,1,1,1,1,0,11,12,117,space,7.8186273999999685,None,1,1,3.2761956999993345,None,space,2.2914047000003848,None,0,0,0,0,,,,,1,4,12,0,90.64123519999976,,,,,,,,,,,,,,,,,,,,,90.62599839999984,90.64123519999976,91.12515759999951,91.13062429999991,91.14805259999957,94.43996419999985,,,,,94.44008619999931,94.45669239999916,,94.64037989999997,91.14805259999957,,,,,,,,1,1,3.2761956999993345,None,,,,,,,,846,22,M,R,2026-02-18_12h28.14.253,VisualSearch_2526_3,,2025.2.4,2026-02-18 12h28.14.488269 +0100,
tilted.xlsx,The target is tilted.,117,13,5,1,1,1,1,1,0,0,0,0,0,0,0,0,0,3,4,117,space,7.8186273999999685,None,0,0,2.2263186000000132,None,space,2.2914047000003848,None,0,0,0,0,,,,,1,5,13,2,94.65670079999927,,,,,,,,,,,,,,,,,,,,,94.6413552999993,94.65670079999927,95.1402909999997,95.14572579999913,95.1651996999999,97.40635769999972,,,,,97.40661399999954,97.42186739999943,97.62228329999925,97.60593769999923,,,,,,,,,0,0,2.2263186000000132,None,,,,,,,,846,22,M,R,2026-02-18_12h28.14.253,VisualSearch_2526_3,,2025.2.4,2026-02-18 12h28.14.488269 +0100,
tilted.xlsx,The target is tilted.,117,14,6,1,0,0,0,0,0,0,0,0,0,0,0,0,1,1,1,117,space,7.8186273999999685,None,0,1,1.0097319000005882,None,space,2.2914047000003848,None,0,0,0,0,,,,,1,6,14,7,97.62228329999925,,,,,,,,,,,,,,,,,,,,,97.60674609999933,97.62228329999925,98.1059037999994,98.11121159999948,98.12696799999958,99.13954659999945,,,,,99.13975129999926,99.15463559999989,99.35514589999912,99.33914579999964,98.12696799999958,,,,,,,,0,1,1.0097319000005882,None,,,,,,,,846,22,M,R,2026-02-18_12h28.14.253,VisualSearch_2526_3,,2025.2.4,2026-02-18 12h28.14.488269 +0100,
tilted.xlsx,The target is tilted.,117,15,7,1,0,1,1,1,1,1,1,1,0,0,0,0,1,7,8,117,space,7.8186273999999685,None,1,0,2.7341002000002845,None,space,2.2914047000003848,None,0,0,0,0,,,,,1,7,15,5,99.35514589999912,,,,,,,,,,,,,,,,,,,,,99.33997929999987,99.35514589999912,99.83898489999956,99.84433349999927,99.86254029999964,102.60532639999929,,,,,102.60556919999999,102.62024419999943,102.82039939999959,102.80447999999978,99.86254029999964,,,,,,,,1,0,2.7341002000002845,None,,,,,,,,846,22,M,R,2026-02-18_12h28.14.253,VisualSearch_2526_3,,2025.2.4,2026-02-18 12h28.14.488269 +0100,
tilted.xlsx,The target is tilted.,117,16,0,2,1,1,1,1,1,1,1,1,0,0,0,0,0,7,8,117,space,7.8186273999999685,None,0,0,2.5714913000001616,None,space,2.2914047000003848,None,0,0,0,0,,,,,2,0,16,1,102.82039939999959,,,,,,,,,,,,,,,,,,,,,102.80531339999925,102.82039939999959,103.30452399999922,103.31012769999961,103.32675889999973,105.90348779999931,,,,,105.90362689999984,105.9190710999992,106.11951379999937,106.10349909999968,103.32675889999973,,,,,,,,0,0,2.5714913000001616,None,,,,,,,,846,22,M,R,2026-02-18_12h28.14.253,VisualSearch_2526_3,,2025.2.4,2026-02-18 12h28.14.488269 +0100,
tilted.xlsx,The target is tilted.,117,17,1,2,1,1,1,1,1,1,1,1,1,1,1,1,0,11,12,117,space,7.8186273999999685,None,1,1,4.1385580000005575,None,space,2.2914047000003848,None,0,0,0,0,,,,,2,1,17,0,106.11951379999937,,,,,,,,,,,,,,,,,,,,,106.10430389999965,106.11951379999937,106.60329619999993,106.60874429999967,106.62535529999968,110.76863159999994,,,,,110.76877679999961,110.78396519999933,110.98447069999929,110.96809499999927,106.62535529999968,,,,,,,,1,1,4.1385580000005575,None,,,,,,,,846,22,M,R,2026-02-18_12h28.14.253,VisualSearch_2526_3,,2025.2.4,2026-02-18 12h28.14.488269 +0100,
tilted.xlsx,The target is tilted.,117,18,2,2,1,1,1,1,0,0,0,0,0,0,0,0,0,3,4,117,space,7.8186273999999685,None,0,0,1.37065419999999,None,space,2.2914047000003848,None,0,0,0,0,,,,,2,2,18,2,110.98447069999929,,,,,,,,,,,,,,,,,,,,,110.96849049999946,110.98447069999929,111.46849679999923,111.47390839999935,111.49190129999988,112.8679001999999,,,,,112.86806419999994,112.88329609999982,113.08399089999966,113.06800449999992,111.49190129999988,,,,,,,,0,0,1.37065419999999,None,,,,,,,,846,22,M,R,2026-02-18_12h28.14.253,VisualSearch_2526_3,,2025.2.4,2026-02-18 12h28.14.488269 +0100,
tilted.xlsx,The target is tilted.,117,19,3,2,0,1,1,1,1,1,1,1,1,1,1,1,1,11,12,117,space,7.8186273999999685,None,1,0,2.0686187999999675,None,space,2.2914047000003848,None,0,0,0,0,,,,,2,3,19,4,113.08399089999966,,,,,,,,,,,,,,,,,,,,,113.06882369999948,113.08399089999966,113.56748819999939,113.57297109999945,113.59092949999922,115.66756939999959,,,,,115.66780599999947,115.68249169999945,115.88305839999975,115.86704049999935,113.59092949999922,,,,,,,,1,0,2.0686187999999675,None,,,,,,,,846,22,M,R,2026-02-18_12h28.14.253,VisualSearch_2526_3,,2025.2.4,2026-02-18 12h28.14.488269 +0100,
tilted.xlsx,The target is tilted.,117,20,4,2,1,0,0,0,0,0,0,0,0,0,0,0,0,0,1,117,space,7.8186273999999685,None,0,0,0.7935996000005616,None,space,2.2914047000003848,None,0,0,0,0,,,,,2,4,20,3,115.88305839999975,,,,,,,,,,,,,,,,,,,,,115.86784029999944,115.88305839999975,116.36690999999973,116.37226909999936,116.39094849999947,117.19912329999988,,,,,117.19923789999939,117.21581159999914,,117.39951389999987,116.39094849999947,,,,,,,,0,0,0.7935996000005616,None,,,,,,,,846,22,M,R,2026-02-18_12h28.14.253,VisualSearch_2526_3,,2025.2.4,2026-02-18 12h28.14.488269 +0100,
tilted.xlsx,The target is tilted.,117,21,5,2,0,1,1,1,1,1,1,1,0,0,0,0,1,7,8,117,space,7.8186273999999685,None,1,0,1.8511056000006647,None,space,2.2914047000003848,None,0,0,0,0,,,,,2,5,21,5,117.41576879999957,,,,,,,,,,,,,,,,,,,,,117.40039019999949,117.41576879999957,117.89935829999922,117.90479699999923,117.92240139999922,119.78253869999935,,,,,119.78273969999918,119.7978424999992,119.99814309999965,119.98225099999945,,,,,,,,,1,0,1.8511056000006647,None,,,,,,,,846,22,M,R,2026-02-18_12h28.14.253,VisualSearch_2526_3,,2025.2.4,2026-02-18 12h28.14.488269 +0100,
tilted.xlsx,The target is tilted.,117,22,6,2,0,0,0,0,0,0,0,0,0,0,0,0,1,1,1,117,space,7.8186273999999685,None,0,1,0.9534674999995332,None,space,2.2914047000003848,None,0,0,0,0,,,,,2,6,22,7,119.99814309999965,,,,,,,,,,,,,,,,,,,,,119.98305759999948,119.99814309999965,120.48213169999963,120.48747179999918,120.50472549999995,121.46581689999948,,,,,121.46604129999923,121.48062459999983,121.68108049999955,121.66503319999993,120.50472549999995,,,,,,,,0,1,0.9534674999995332,None,,,,,,,,846,22,M,R,2026-02-18_12h28.14.253,VisualSearch_2526_3,,2025.2.4,2026-02-18 12h28.14.488269 +0100,
tilted.xlsx,The target is tilted.,117,23,7,2,0,1,1,1,0,0,0,0,0,0,0,0,1,3,4,117,space,7.8186273999999685,None,1,0,1.08400359999996,None,space,2.2914047000003848,None,0,0,0,0,,,,,2,7,23,6,121.68108049999955,,,,,,,,,,,,,,,,,,,,,121.6658454999997,121.68108049999955,122.16500989999986,122.1703220999998,122.18790189999982,123.2815557999993,,,,,123.28178049999951,123.29689469999994,123.49682779999966,123.48080889999983,122.18790189999982,,,,,,,,1,0,1.08400359999996,None,,,,,,,,846,22,M,R,2026-02-18_12h28.14.253,VisualSearch_2526_3,,2025.2.4,2026-02-18 12h28.14.488269 +0100,
tilted.xlsx,The target is tilted.,117,24,0,3,0,1,1,1,1,1,1,1,0,0,0,0,1,7,8,117,space,7.8186273999999685,None,1,0,1.5660155000005034,None,space,2.2914047000003848,None,0,0,0,0,,,,,3,0,24,5,123.49682779999966,,,,,,,,,,,,,,,,,,,,,123.48162869999942,123.49682779999966,123.98042609999993,123.98225029999958,123.99669779999931,125.56419879999976,,,,,125.56440269999985,125.5794262999998,125.77989479999997,125.7637992,123.99669779999931,,,,,,,,1,0,1.5660155000005034,None,,,,,,,,846,22,M,R,2026-02-18_12h28.14.253,VisualSearch_2526_3,,2025.2.4,2026-02-18 12h28.14.488269 +0100,
tilted.xlsx,The target is tilted.,117,25,1,3,0,1,1,1,1,1,1,1,1,1,1,1,1,11,12,117,space,7.8186273999999685,None,1,0,1.7747087999996438,None,space,2.2914047000003848,None,0,0,0,0,,,,,3,1,25,4,125.77989479999997,,,,,,,,,,,,,,,,,,,,,125.76465569999982,125.77989479999997,126.26365119999991,126.26909999999953,126.28565849999995,128.06364809999923,,,,,128.06387779999932,128.07865929999934,128.27903369999967,128.26289909999923,126.28565849999995,,,,,,,,1,0,1.7747087999996438,None,,,,,,,,846,22,M,R,2026-02-18_12h28.14.253,VisualSearch_2526_3,,2025.2.4,2026-02-18 12h28.14.488269 +0100,
tilted.xlsx,The target is tilted.,117,26,2,3,1,1,1,1,1,1,1,1,1,1,1,1,0,11,12,117,space,7.8186273999999685,None,1,1,2.659501199999795,None,space,2.2914047000003848,None,0,0,0,0,,,,,3,2,26,0,128.27903369999967,,,,,,,,,,,,,,,,,,,,,128.26370319999933,128.27903369999967,128.7627885999991,128.7680810999991,128.78645359999973,131.46138989999963,,,,,131.46154109999952,131.4774039999993,131.67786179999985,131.6616699999995,128.78645359999973,,,,,,,,1,1,2.659501199999795,None,,,,,,,,846,22,M,R,2026-02-18_12h28.14.253,VisualSearch_2526_3,,2025.2.4,2026-02-18 12h28.14.488269 +0100,
tilted.xlsx,The target is tilted.,117,27,3,3,1,1,1,1,1,1,1,1,0,0,0,0,0,7,8,117,space,7.8186273999999685,None,1,1,1.9896452000002682,None,space,2.2914047000003848,None,0,0,0,0,,,,,3,3,27,1,131.67786179999985,,,,,,,,,,,,,,,,,,,,,131.66255959999944,131.67786179999985,132.1613600999999,132.16671199999928,132.18568369999957,134.1782358999999,,,,,134.1785059999993,134.1932711999998,134.39370279999912,134.37769809999918,132.18568369999957,,,,,,,,1,1,1.9896452000002682,None,,,,,,,,846,22,M,R,2026-02-18_12h28.14.253,VisualSearch_2526_3,,2025.2.4,2026-02-18 12h28.14.488269 +0100,
tilted.xlsx,The target is tilted.,117,28,4,3,1,1,1,1,0,0,0,0,0,0,0,0,0,3,4,117,space,7.8186273999999685,None,0,0,2.044027800000549,None,space,2.2914047000003848,None,0,0,0,0,,,,,3,4,28,2,134.39370279999912,,,,,,,,,,,,,,,,,,,,,134.3785197999996,134.39370279999912,134.87746069999957,134.88274339999953,134.9008946999993,136.96022099999936,,,,,136.9604477999992,136.97560839999915,137.17611139999917,137.16005189999942,134.9008946999993,,,,,,,,0,0,2.044027800000549,None,,,,,,,,846,22,M,R,2026-02-18_12h28.14.253,VisualSearch_2526_3,,2025.2.4,2026-02-18 12h28.14.488269 +0100,
tilted.xlsx,The target is tilted.,117,29,5,3,1,0,0,0,0,0,0,0,0,0,0,0,0,0,1,117,space,7.8186273999999685,None,0,0,0.9478800999995656,None,space,2.2914047000003848,None,0,0,0,0,,,,,3,5,29,3,137.17611139999917,,,,,,,,,,,,,,,,,,,,,137.16084799999953,137.17611139999917,137.6599225,137.66531999999916,137.6842777999991,138.6431402999997,,,,,138.6433363999995,138.65839069999947,138.85860689999936,138.8426931999993,137.6842777999991,,,,,,,,0,0,0.9478800999995656,None,,,,,,,,846,22,M,R,2026-02-18_12h28.14.253,VisualSearch_2526_3,,2025.2.4,2026-02-18 12h28.14.488269 +0100,
tilted.xlsx,The target is tilted.,117,30,6,3,0,0,0,0,0,0,0,0,0,0,0,0,1,1,1,117,space,7.8186273999999685,None,1,0,0.8135853000003408,None,space,2.2914047000003848,None,0,0,0,0,,,,,3,6,30,7,138.85860689999936,,,,,,,,,,,,,,,,,,,,,138.84358399999928,138.85860689999936,139.34265949999917,139.34802129999935,139.36492829999952,140.1918328999991,,,,,140.19200609999916,140.2082234999998,140.40805079999973,140.39227429999937,139.36492829999952,,,,,,,,1,0,0.8135853000003408,None,,,,,,,,846,22,M,R,2026-02-18_12h28.14.253,VisualSearch_2526_3,,2025.2.4,2026-02-18 12h28.14.488269 +0100,
tilted.xlsx,The target is tilted.,117,31,7,3,0,1,1,1,0,0,0,0,0,0,0,0,1,3,4,117,space,7.8186273999999685,None,1,0,1.3999851000007766,None,space,2.2914047000003848,None,0,0,0,0,,,,,3,7,31,6,140.40805079999973,,,,,,,,,,,,,,,,,,,,,140.39315169999918,140.40805079999973,140.89209269999992,140.89744319999954,140.91466079999918,142.32563459999983,,,,,142.3258651999995,142.34057699999994,142.5409940999998,142.52490989999933,140.91466079999918,,,,,,,,1,0,1.3999851000007766,None,,,,,,,,846,22,M,R,2026-02-18_12h28.14.253,VisualSearch_2526_3,,2025.2.4,2026-02-18 12h28.14.488269 +0100,
tilted.xlsx,The target is tilted.,117,32,0,4,1,1,1,1,1,1,1,1,1,1,1,1,0,11,12,117,space,7.8186273999999685,None,1,1,0.8564311999998608,None,space,2.2914047000003848,None,0,0,0,0,,,,,4,0,32,0,142.5409940999998,,,,,,,,,,,,,,,,,,,,,142.52579559999958,142.5409940999998,143.02478519999931,143.03020779999952,143.04854009999963,143.9079815999994,,,,,143.90813189999972,143.92330909999964,144.1238313999993,144.10744849999992,143.04854009999963,,,,,,,,1,1,0.8564311999998608,None,,,,,,,,846,22,M,R,2026-02-18_12h28.14.253,VisualSearch_2526_3,,2025.2.4,2026-02-18 12h28.14.488269 +0100,
tilted.xlsx,The target is tilted.,117,33,1,4,1,0,0,0,0,0,0,0,0,0,0,0,0,0,1,117,space,7.8186273999999685,None,0,0,1.4232646000000386,None,space,2.2914047000003848,None,0,0,0,0,,,,,4,1,33,3,144.1238313999993,,,,,,,,,,,,,,,,,,,,,144.1083796999992,144.1238313999993,144.607309,144.61267249999946,144.6311700999995,146.05781809999917,,,,,146.0580403999993,146.07271409999976,146.27313369999956,146.25713759999962,144.6311700999995,,,,,,,,0,0,1.4232646000000386,None,,,,,,,,846,22,M,R,2026-02-18_12h28.14.253,VisualSearch_2526_3,,2025.2.4,2026-02-18 12h28.14.488269 +0100,
tilted.xlsx,The target is tilted.,117,34,2,4,0,1,1,1,0,0,0,0,0,0,0,0,1,3,4,117,space,7.8186273999999685,None,1,0,1.0182039000001168,None,space,2.2914047000003848,None,0,0,0,0,,,,,4,2,34,6,146.27313369999956,,,,,,,,,,,,,,,,,,,,,146.25795469999957,146.27313369999956,146.75694609999937,146.76311649999934,146.78150239999923,147.80718399999932,,,,,147.80741099999977,147.82215129999986,148.0224759999992,148.0064139999995,146.78150239999923,,,,,,,,1,0,1.0182039000001168,None,,,,,,,,846,22,M,R,2026-02-18_12h28.14.253,VisualSearch_2526_3,,2025.2.4,2026-02-18 12h28.14.488269 +0100,
tilted.xlsx,The target is tilted.,117,35,3,4,1,1,1,1,1,1,1,1,0,0,0,0,0,7,8,117,space,7.8186273999999685,None,1,1,1.6247476000007737,None,space,2.2914047000003848,None,0,0,0,0,,,,,4,3,35,1,148.0224759999992,,,,,,,,,,,,,,,,,,,,,148.00721759999942,148.0224759999992,148.50614289999976,148.51148549999925,148.52902599999925,150.15639139999985,,,,,150.15663059999952,150.17137449999973,150.37147109999933,150.3557895999993,148.52902599999925,,,,,,,,1,1,1.6247476000007737,None,,,,,,,,846,22,M,R,2026-02-18_12h28.14.253,VisualSearch_2526_3,,2025.2.4,2026-02-18 12h28.14.488269 +0100,
tilted.xlsx,The target is tilted.,117,36,4,4,0,1,1,1,1,1,1,1,1,1,1,1,1,11,12,117,space,7.8186273999999685,None,1,0,0.9408905000000232,None,space,2.2914047000003848,None,0,0,0,0,,,,,4,4,36,4,150.37147109999933,,,,,,,,,,,,,,,,,,,,,150.35672299999987,150.37147109999933,150.85553599999912,150.86099529999956,150.87674959999913,151.82158039999922,,,,,151.82173039999998,151.83739099999912,152.03794409999955,152.02168159999928,150.87674959999913,,,,,,,,1,0,0.9408905000000232,None,,,,,,,,846,22,M,R,2026-02-18_12h28.14.253,VisualSearch_2526_3,,2025.2.4,2026-02-18 12h28.14.488269 +0100,
tilted.xlsx,The target is tilted.,117,37,5,4,0,0,0,0,0,0,0,0,0,0,0,0,1,1,1,117,space,7.8186273999999685,None,1,0,0.5858502000000954,None,space,2.2914047000003848,None,0,0,0,0,,,,,4,5,37,7,152.03794409999955,,,,,,,,,,,,,,,,,,,,,152.02252449999924,152.03794409999955,152.5216275999992,152.52703689999998,152.54442539999945,153.1386810999993,,,,,153.13893629999984,153.15366209999956,153.3541636,153.33808249999947,152.54442539999945,,,,,,,,1,0,0.5858502000000954,None,,,,,,,,846,22,M,R,2026-02-18_12h28.14.253,VisualSearch_2526_3,,2025.2.4,2026-02-18 12h28.14.488269 +0100,
tilted.xlsx,The target is tilted.,117,38,6,4,1,1,1,1,0,0,0,0,0,0,0,0,0,3,4,117,space,7.8186273999999685,None,0,0,1.5173641999999745,None,space,2.2914047000003848,None,0,0,0,0,,,,,4,6,38,2,153.3541636,,,,,,,,,,,,,,,,,,,,,153.3388785999996,153.3541636,153.8379361999996,153.84330249999948,153.86096629999975,155.3874262999998,,,,,155.38757999999962,155.40275589999965,155.6033136999995,155.58735559999968,153.86096629999975,,,,,,,,0,0,1.5173641999999745,None,,,,,,,,846,22,M,R,2026-02-18_12h28.14.253,VisualSearch_2526_3,,2025.2.4,2026-02-18 12h28.14.488269 +0100,
tilted.xlsx,The target is tilted.,117,39,7,4,0,1,1,1,1,1,1,1,0,0,0,0,1,7,8,117,space,7.8186273999999685,None,1,0,0.9006899999994857,None,space,2.2914047000003848,None,0,0,0,0,,,,,4,7,39,5,155.6033136999995,,,,,,,,,,,,,,,,,,,,,155.58822249999957,155.6033136999995,156.08721219999916,156.09262619999936,156.11052819999986,157.02079089999916,,,,,157.0210481999993,157.03578299999936,157.2362020999999,157.2201757999992,156.11052819999986,,,,,,,,1,0,0.9006899999994857,None,,,,,,,,846,22,M,R,2026-02-18_12h28.14.253,VisualSearch_2526_3,,2025.2.4,2026-02-18 12h28.14.488269 +0100,
tilted.xlsx,The target is tilted.,117,40,0,5,1,0,0,0,0,0,0,0,0,0,0,0,0,0,1,117,space,7.8186273999999685,None,0,0,0.7413939000007304,None,space,2.2914047000003848,None,0,0,0,0,,,,,5,0,40,3,157.2362020999999,,,,,,,,,,,,,,,,,,,,,157.22109679999994,157.2362020999999,157.7199826999995,157.72587799999928,157.74551039999915,158.50211899999977,,,,,158.5022169999993,158.51873299999988,,158.70264249999946,157.74551039999915,,,,,,,,0,0,0.7413939000007304,None,,,,,,,,846,22,M,R,2026-02-18_12h28.14.253,VisualSearch_2526_3,,2025.2.4,2026-02-18 12h28.14.488269 +0100,
tilted.xlsx,The target is tilted.,117,41,1,5,0,1,1,1,1,1,1,1,0,0,0,0,1,7,8,117,space,7.8186273999999685,None,1,0,1.034693900000093,None,space,2.2914047000003848,None,0,0,0,0,,,,,5,1,41,5,158.7191241999999,,,,,,,,,,,,,,,,,,,,,158.70348179999928,158.7191241999999,159.20255159999942,159.2080217999992,159.22532519999913,160.26931289999993,,,,,160.2694904,160.28463869999996,160.48519059999944,160.4691314999991,,,,,,,,,1,0,1.034693900000093,None,,,,,,,,846,22,M,R,2026-02-18_12h28.14.253,VisualSearch_2526_3,,2025.2.4,2026-02-18 12h28.14.488269 +0100,
tilted.xlsx,The target is tilted.,117,42,2,5,1,1,1,1,1,1,1,1,1,1,1,1,0,11,12,117,space,7.8186273999999685,None,0,0,2.9352710000002844,None,space,2.2914047000003848,None,0,0,0,0,,,,,5,2,42,0,160.48519059999944,,,,,,,,,,,,,,,,,,,,,160.46996469999976,160.48519059999944,160.96893739999996,160.9742781999994,160.9884850999997,163.9346502999997,,,,,163.93479839999964,163.9498862999999,164.1503406999991,164.13450809999995,160.9884850999997,,,,,,,,0,0,2.9352710000002844,None,,,,,,,,846,22,M,R,2026-02-18_12h28.14.253,VisualSearch_2526_3,,2025.2.4,2026-02-18 12h28.14.488269 +0100,
tilted.xlsx,The target is tilted.,117,43,3,5,1,1,1,1,1,1,1,1,0,0,0,0,0,7,8,117,space,7.8186273999999685,None,1,1,0.9861582000003182,None,space,2.2914047000003848,None,0,0,0,0,,,,,5,3,43,1,164.1503406999991,,,,,,,,,,,,,,,,,,,,,164.1353152999991,164.1503406999991,164.63440159999936,164.63971599999968,164.65578689999984,165.65062539999963,,,,,165.65076559999943,165.66615599999932,165.86659099999997,165.8502402999993,164.65578689999984,,,,,,,,1,1,0.9861582000003182,None,,,,,,,,846,22,M,R,2026-02-18_12h28.14.253,VisualSearch_2526_3,,2025.2.4,2026-02-18 12h28.14.488269 +0100,
tilted.xlsx,The target is tilted.,117,44,4,5,0,1,1,1,0,0,0,0,0,0,0,0,1,3,4,117,space,7.8186273999999685,None,1,0,1.1101315000005343,None,space,2.2914047000003848,None,0,0,0,0,,,,,5,4,44,6,165.86659099999997,,,,,,,,,,,,,,,,,,,,,165.85104589999992,165.86659099999997,166.35055919999922,166.35585589999937,166.37335069999972,167.49984689999928,,,,,167.50000349999937,167.51561989999936,167.71610979999969,167.70008509999934,166.37335069999972,,,,,,,,1,0,1.1101315000005343,None,,,,,,,,846,22,M,R,2026-02-18_12h28.14.253,VisualSearch_2526_3,,2025.2.4,2026-02-18 12h28.14.488269 +0100,
tilted.xlsx,The target is tilted.,117,45,5,5,0,1,1,1,1,1,1,1,1,1,1,1,1,11,12,117,space,7.8186273999999685,None,1,0,0.9610093000001143,None,space,2.2914047000003848,None,0,0,0,0,,,,,5,5,45,4,167.71610979999969,,,,,,,,,,,,,,,,,,,,,167.70088309999937,167.71610979999969,168.19924149999952,168.20454579999932,168.22270059999937,169.1990434999998,,,,,169.19917219999934,169.21498409999913,169.41554109999925,169.39949389999947,168.22270059999937,,,,,,,,1,0,0.9610093000001143,None,,,,,,,,846,22,M,R,2026-02-18_12h28.14.253,VisualSearch_2526_3,,2025.2.4,2026-02-18 12h28.14.488269 +0100,
tilted.xlsx,The target is tilted.,117,46,6,5,1,1,1,1,0,0,0,0,0,0,0,0,0,3,4,117,space,7.8186273999999685,None,0,0,1.345416699999987,None,space,2.2914047000003848,None,0,0,0,0,,,,,5,6,46,2,169.41554109999925,,,,,,,,,,,,,,,,,,,,,169.40038689999983,169.41554109999925,169.89938539999912,169.9053019999992,169.9229906999999,171.28123379999943,,,,,171.2813471999998,171.2980280999991,,171.48171449999973,169.9229906999999,,,,,,,,0,0,1.345416699999987,None,,,,,,,,846,22,M,R,2026-02-18_12h28.14.253,VisualSearch_2526_3,,2025.2.4,2026-02-18 12h28.14.488269 +0100,
tilted.xlsx,The target is tilted.,117,47,7,5,0,0,0,0,0,0,0,0,0,0,0,0,1,1,1,117,space,7.8186273999999685,None,1,0,0.8083741000000373,None,space,2.2914047000003848,None,0,0,0,0,,,,,5,7,47,7,171.49820329999966,,,,,,,,,,,,,,,,,,,,,171.4825497999991,171.49820329999966,171.98138239999935,171.9837764999993,171.99778379999952,172.81566339999972,,,,,172.81589469999926,172.83054459999948,173.0310260999995,173.01496249999946,171.99778379999952,,,,,,,,1,0,0.8083741000000373,None,,,,,,,,846,22,M,R,2026-02-18_12h28.14.253,VisualSearch_2526_3,,2025.2.4,2026-02-18 12h28.14.488269 +0100,
tilted.xlsx,The target is tilted.,117,48,0,6,1,1,1,1,1,1,1,1,1,1,1,1,0,11,12,117,space,7.8186273999999685,None,1,1,1.20615910000015,None,space,2.2914047000003848,None,0,0,0,0,,,,,6,0,48,0,173.0310260999995,,,,,,,,,,,,,,,,,,,,,173.01578279999922,173.0310260999995,173.51485239999965,173.52010019999943,173.53811439999936,174.74737929999992,,,,,174.7475328999999,174.7631909999991,174.96343739999975,174.94715889999952,173.53811439999936,,,,,,,,1,1,1.20615910000015,None,,,,,,,,846,22,M,R,2026-02-18_12h28.14.253,VisualSearch_2526_3,,2025.2.4,2026-02-18 12h28.14.488269 +0100,
tilted.xlsx,The target is tilted.,117,49,1,6,1,1,1,1,1,1,1,1,0,0,0,0,0,7,8,117,space,7.8186273999999685,None,1,1,1.3163336999996318,None,space,2.2914047000003848,None,0,0,0,0,,,,,6,1,49,1,174.96343739999975,,,,,,,,,,,,,,,,,,,,,174.94777049999993,174.96343739999975,175.44755259999965,175.4528440999993,175.46782579999945,176.79647139999997,,,,,176.7966222999994,176.8125390999994,177.01280279999992,176.9963031999996,175.46782579999945,,,,,,,,1,1,1.3163336999996318,None,,,,,,,,846,22,M,R,2026-02-18_12h28.14.253,VisualSearch_2526_3,,2025.2.4,2026-02-18 12h28.14.488269 +0100,
tilted.xlsx,The target is tilted.,117,50,2,6,1,0,0,0,0,0,0,0,0,0,0,0,0,0,1,117,space,7.8186273999999685,None,0,0,0.8527147000004334,None,space,2.2914047000003848,None,0,0,0,0,,,,,6,2,50,3,177.01280279999992,,,,,,,,,,,,,,,,,,,,,176.99690269999974,177.01280279999992,177.49689399999988,177.50228249999964,177.5174251999997,178.3802595999996,,,,,178.3803997999994,178.39534019999974,178.5959200999996,178.57986999999957,177.5174251999997,,,,,,,,0,0,0.8527147000004334,None,,,,,,,,846,22,M,R,2026-02-18_12h28.14.253,VisualSearch_2526_3,,2025.2.4,2026-02-18 12h28.14.488269 +0100,
tilted.xlsx,The target is tilted.,117,51,3,6,0,0,0,0,0,0,0,0,0,0,0,0,1,1,1,117,space,7.8186273999999685,None,0,1,0.683734799999911,None,space,2.2914047000003848,None,0,0,0,0,,,,,6,3,51,7,178.5959200999996,,,,,,,,,,,,,,,,,,,,,178.58082259999992,178.5959200999996,179.07975119999992,179.08507399999962,179.10259589999987,179.79540839999936,,,,,179.79549379999935,179.8112543999996,,179.99568999999974,179.10259589999987,,,,,,,,0,1,0.683734799999911,None,,,,,,,,846,22,M,R,2026-02-18_12h28.14.253,VisualSearch_2526_3,,2025.2.4,2026-02-18 12h28.14.488269 +0100,
tilted.xlsx,The target is tilted.,117,52,4,6,0,1,1,1,1,1,1,1,1,1,1,1,1,11,12,117,space,7.8186273999999685,None,1,0,2.8263920999997936,None,space,2.2914047000003848,None,0,0,0,0,,,,,6,4,52,4,180.01198959999965,,,,,,,,,,,,,,,,,,,,,179.99654999999984,180.01198959999965,180.4956284,180.50111129999914,180.51674249999996,183.34514619999936,,,,,183.34534359999998,183.3605106999994,183.56056719999924,183.54486409999936,,,,,,,,,1,0,2.8263920999997936,None,,,,,,,,846,22,M,R,2026-02-18_12h28.14.253,VisualSearch_2526_3,,2025.2.4,2026-02-18 12h28.14.488269 +0100,
tilted.xlsx,The target is tilted.,117,53,5,6,0,1,1,1,0,0,0,0,0,0,0,0,1,3,4,117,space,7.8186273999999685,None,0,1,2.3505882999997993,None,space,2.2914047000003848,None,0,0,0,0,,,,,6,5,53,6,183.56056719999924,,,,,,,,,,,,,,,,,,,,,183.54567279999992,183.56056719999924,184.04476219999924,184.05027399999926,184.0677500999991,186.4275233999997,,,,,186.42771829999947,186.44278779999968,186.64318659999935,186.62729519999993,184.0677500999991,,,,,,,,0,1,2.3505882999997993,None,,,,,,,,846,22,M,R,2026-02-18_12h28.14.253,VisualSearch_2526_3,,2025.2.4,2026-02-18 12h28.14.488269 +0100,
tilted.xlsx,The target is tilted.,117,54,6,6,1,1,1,1,0,0,0,0,0,0,0,0,0,3,4,117,space,7.8186273999999685,None,0,0,1.5642736999998306,None,space,2.2914047000003848,None,0,0,0,0,,,,,6,6,54,2,186.64318659999935,,,,,,,,,,,,,,,,,,,,,186.62811659999988,186.64318659999935,187.1270818999992,187.13248849999945,187.14978039999914,188.72645959999954,,,,,188.72668779999913,188.74206109999977,188.94247429999996,188.9264194999996,187.14978039999914,,,,,,,,0,0,1.5642736999998306,None,,,,,,,,846,22,M,R,2026-02-18_12h28.14.253,VisualSearch_2526_3,,2025.2.4,2026-02-18 12h28.14.488269 +0100,
tilted.xlsx,The target is tilted.,117,55,7,6,0,1,1,1,1,1,1,1,0,0,0,0,1,7,8,117,space,7.8186273999999685,None,1,0,2.699655299999904,None,space,2.2914047000003848,None,0,0,0,0,,,,,6,7,55,5,188.94247429999996,,,,,,,,,,,,,,,,,,,,,188.9272160999999,188.94247429999996,189.42625299999963,189.43216669999947,189.44992589999947,192.1593183999994,,,,,192.15955439999925,192.17435999999998,192.37467809999998,192.35868729999947,189.44992589999947,,,,,,,,1,0,2.699655299999904,None,,,,,,,,846,22,M,R,2026-02-18_12h28.14.253,VisualSearch_2526_3,,2025.2.4,2026-02-18 12h28.14.488269 +0100,
tilted.xlsx,The target is tilted.,117,56,0,7,1,1,1,1,0,0,0,0,0,0,0,0,0,3,4,117,space,7.8186273999999685,None,0,0,1.3107890000001134,None,space,2.2914047000003848,None,0,0,0,0,,,,,7,0,56,2,192.37467809999998,,,,,,,,,,,,,,,,,,,,,192.35953469999913,192.37467809999998,192.85816779999914,192.86350569999922,192.88177909999922,194.20747539999957,,,,,194.20761719999973,194.2234798999998,194.42406109999956,194.40799189999962,192.88177909999922,,,,,,,,0,0,1.3107890000001134,None,,,,,,,,846,22,M,R,2026-02-18_12h28.14.253,VisualSearch_2526_3,,2025.2.4,2026-02-18 12h28.14.488269 +0100,
tilted.xlsx,The target is tilted.,117,57,1,7,0,0,0,0,0,0,0,0,0,0,0,0,1,1,1,117,space,7.8186273999999685,None,1,0,0.737528900000143,None,space,2.2914047000003848,None,0,0,0,0,,,,,7,1,57,7,194.42406109999956,,,,,,,,,,,,,,,,,,,,,194.4087959999997,194.42406109999956,194.90705699999944,194.91016539999964,194.92342719999942,195.6738592999991,,,,,195.6739734999992,195.68950799999948,195.8900167999991,195.87416959999973,194.92342719999942,,,,,,,,1,0,0.737528900000143,None,,,,,,,,846,22,M,R,2026-02-18_12h28.14.253,VisualSearch_2526_3,,2025.2.4,2026-02-18 12h28.14.488269 +0100,
tilted.xlsx,The target is tilted.,117,58,2,7,1,1,1,1,1,1,1,1,1,1,1,1,0,11,12,117,space,7.8186273999999685,None,1,1,1.189194800000223,None,space,2.2914047000003848,None,0,0,0,0,,,,,7,2,58,0,195.8900167999991,,,,,,,,,,,,,,,,,,,,,195.8749790999991,195.8900167999991,196.3740457999993,196.37937199999942,196.3959277999993,197.5908841999999,,,,,197.59111249999933,197.60584859999926,197.8062807999995,197.7901970999992,196.3959277999993,,,,,,,,1,1,1.189194800000223,None,,,,,,,,846,22,M,R,2026-02-18_12h28.14.253,VisualSearch_2526_3,,2025.2.4,2026-02-18 12h28.14.488269 +0100,
tilted.xlsx,The target is tilted.,117,59,3,7,0,1,1,1,1,1,1,1,0,0,0,0,1,7,8,117,space,7.8186273999999685,None,1,0,1.2181862999996156,None,space,2.2914047000003848,None,0,0,0,0,,,,,7,3,59,5,197.8062807999995,,,,,,,,,,,,,,,,,,,,,197.79099049999968,197.8062807999995,198.28974639999979,198.29507449999983,198.3147773999999,199.53958169999987,,,,,199.53975939999964,199.55510349999986,199.75566469999922,199.73959689999992,198.3147773999999,,,,,,,,1,0,1.2181862999996156,None,,,,,,,,846,22,M,R,2026-02-18_12h28.14.253,VisualSearch_2526_3,,2025.2.4,2026-02-18 12h28.14.488269 +0100,
tilted.xlsx,The target is tilted.,117,60,4,7,0,1,1,1,1,1,1,1,1,1,1,1,1,11,12,117,space,7.8186273999999685,None,1,0,0.7671291000006022,None,space,2.2914047000003848,None,0,0,0,0,,,,,7,4,60,4,199.75566469999922,,,,,,,,,,,,,,,,,,,,,199.74040709999917,199.75566469999922,200.23902779999935,200.24438519999967,200.26301449999937,201.03947069999958,,,,,201.0396901999993,201.05471569999918,201.25513129999945,201.23910669999987,200.26301449999937,,,,,,,,1,0,0.7671291000006022,None,,,,,,,,846,22,M,R,2026-02-18_12h28.14.253,VisualSearch_2526_3,,2025.2.4,2026-02-18 12h28.14.488269 +0100,
tilted.xlsx,The target is tilted.,117,61,5,7,0,1,1,1,0,0,0,0,0,0,0,0,1,3,4,117,space,7.8186273999999685,None,1,0,1.2873070999994525,None,space,2.2914047000003848,None,0,0,0,0,,,,,7,5,61,6,201.25513129999945,,,,,,,,,,,,,,,,,,,,,201.2399259999993,201.25513129999945,201.7389089999997,201.74514869999985,201.76097539999955,203.05571469999995,,,,,203.05597359999956,203.0706068999998,203.27097979999962,203.25512919999983,201.76097539999955,,,,,,,,1,0,1.2873070999994525,None,,,,,,,,846,22,M,R,2026-02-18_12h28.14.253,VisualSearch_2526_3,,2025.2.4,2026-02-18 12h28.14.488269 +0100,
tilted.xlsx,The target is tilted.,117,62,6,7,1,1,1,1,1,1,1,1,0,0,0,0,0,7,8,117,space,7.8186273999999685,None,1,1,0.9689678000004278,None,space,2.2914047000003848,None,0,0,0,0,,,,,7,6,62,1,203.27097979999962,,,,,,,,,,,,,,,,,,,,,203.25596739999946,203.27097979999962,203.7547330999996,203.76003599999967,203.77619459999914,204.75520419999975,,,,,204.75542789999963,204.7701348999999,204.97016509999958,204.9542234999999,203.77619459999914,,,,,,,,1,1,0.9689678000004278,None,,,,,,,,846,22,M,R,2026-02-18_12h28.14.253,VisualSearch_2526_3,,2025.2.4,2026-02-18 12h28.14.488269 +0100,
tilted.xlsx,The target is tilted.,117,63,7,7,1,0,0,0,0,0,0,0,0,0,0,0,0,0,1,117,space,7.8186273999999685,None,0,0,0.716539200000625,None,space,2.2914047000003848,None,0,0,0,0,,,,,7,7,63,3,204.97016509999958,,,,,,,,,,,,,,,,,,,,,204.95504429999983,204.97016509999958,205.45422299999973,205.45968399999947,205.4768484999995,206.2047391999995,,,,,206.2049632999997,206.21964939999998,206.42003009999917,206.40395419999913,205.4768484999995,,,,,,,,0,0,0.716539200000625,None,,,,,,,,846,22,M,R,2026-02-18_12h28.14.253,VisualSearch_2526_3,,2025.2.4,2026-02-18 12h28.14.488269 +0100,
tilted.xlsx,The target is tilted.,117,64,0,8,1,1,1,1,0,0,0,0,0,0,0,0,0,3,4,117,space,7.8186273999999685,None,0,0,1.1362411999998585,None,space,2.2914047000003848,None,0,0,0,0,,,,,8,0,64,2,206.42003009999917,,,,,,,,,,,,,,,,,,,,,206.4047557999993,206.42003009999917,206.90355719999934,206.9088217999997,206.92520159999913,208.0704915999995,,,,,208.07068749999962,208.08562539999912,208.28583439999966,208.2697632999998,206.92520159999913,,,,,,,,0,0,1.1362411999998585,None,,,,,,,,846,22,M,R,2026-02-18_12h28.14.253,VisualSearch_2526_3,,2025.2.4,2026-02-18 12h28.14.488269 +0100,
tilted.xlsx,The target is tilted.,117,65,1,8,1,1,1,1,1,1,1,1,0,0,0,0,0,7,8,117,space,7.8186273999999685,None,1,1,1.7324218000003384,None,space,2.2914047000003848,None,0,0,0,0,,,,,8,1,65,1,208.28583439999966,,,,,,,,,,,,,,,,,,,,,208.27058189999934,208.28583439999966,208.76998449999974,208.77527409999948,208.79283309999937,210.53629469999942,,,,,210.53648969999995,210.55156219999935,210.7519760999994,210.7354265999993,208.79283309999937,,,,,,,,1,1,1.7324218000003384,None,,,,,,,,846,22,M,R,2026-02-18_12h28.14.253,VisualSearch_2526_3,,2025.2.4,2026-02-18 12h28.14.488269 +0100,
tilted.xlsx,The target is tilted.,117,66,2,8,0,0,0,0,0,0,0,0,0,0,0,0,1,1,1,117,space,7.8186273999999685,None,1,0,0.6990539999997054,None,space,2.2914047000003848,None,0,0,0,0,,,,,8,2,66,7,210.7519760999994,,,,,,,,,,,,,,,,,,,,,210.73624689999997,210.7519760999994,211.23579149999932,211.24104679999982,211.2568371999996,211.96864349999942,,,,,211.96877779999977,211.9842039999994,212.1848747999993,212.1686168999995,211.2568371999996,,,,,,,,1,0,0.6990539999997054,None,,,,,,,,846,22,M,R,2026-02-18_12h28.14.253,VisualSearch_2526_3,,2025.2.4,2026-02-18 12h28.14.488269 +0100,
tilted.xlsx,The target is tilted.,117,67,3,8,0,1,1,1,1,1,1,1,1,1,1,1,1,11,12,117,space,7.8186273999999685,None,1,0,2.0268049000005703,None,space,2.2914047000003848,None,0,0,0,0,,,,,8,3,67,4,212.1848747999993,,,,,,,,,,,,,,,,,,,,,212.16951489999974,212.1848747999993,212.66867939999975,212.67373869999938,212.68442389999927,214.7183540999995,,,,,214.71857719999934,214.7335977999992,214.93382639999982,214.91793869999947,212.68442389999927,,,,,,,,1,0,2.0268049000005703,None,,,,,,,,846,22,M,R,2026-02-18_12h28.14.253,VisualSearch_2526_3,,2025.2.4,2026-02-18 12h28.14.488269 +0100,
tilted.xlsx,The target is tilted.,117,68,4,8,0,1,1,1,0,0,0,0,0,0,0,0,1,3,4,117,space,7.8186273999999685,None,1,0,1.3059659999998985,None,space,2.2914047000003848,None,0,0,0,0,,,,,8,4,68,6,214.93382639999982,,,,,,,,,,,,,,,,,,,,,214.9187353999996,214.93382639999982,215.4178112999998,215.42374349999955,215.44104979999975,216.75097339999957,,,,,216.7511990999992,216.76632559999962,216.96605459999955,216.95031329999983,215.44104979999975,,,,,,,,1,0,1.3059659999998985,None,,,,,,,,846,22,M,R,2026-02-18_12h28.14.253,VisualSearch_2526_3,,2025.2.4,2026-02-18 12h28.14.488269 +0100,
tilted.xlsx,The target is tilted.,117,69,5,8,1,0,0,0,0,0,0,0,0,0,0,0,0,0,1,117,space,7.8186273999999685,None,0,0,0.7583233000004839,None,space,2.2914047000003848,None,0,0,0,0,,,,,8,5,69,3,216.96605459999955,,,,,,,,,,,,,,,,,,,,,216.95120709999992,216.96605459999955,217.45047579999937,217.45571599999948,217.47332929999993,218.23384729999998,,,,,218.23404269999992,218.2490930999993,218.44954889999917,218.43335489999936,217.47332929999993,,,,,,,,0,0,0.7583233000004839,None,,,,,,,,846,22,M,R,2026-02-18_12h28.14.253,VisualSearch_2526_3,,2025.2.4,2026-02-18 12h28.14.488269 +0100,
tilted.xlsx,The target is tilted.,117,70,6,8,0,1,1,1,1,1,1,1,0,0,0,0,1,7,8,117,space,7.8186273999999685,None,1,0,1.4942503000002034,None,space,2.2914047000003848,None,0,0,0,0,,,,,8,6,70,5,218.44954889999917,,,,,,,,,,,,,,,,,,,,,218.43415149999964,218.44954889999917,218.9332771999998,218.93862969999918,218.95253819999925,220.44980769999984,,,,,220.45002719999957,220.46503959999973,220.66548059999968,220.64943229999972,218.95253819999925,,,,,,,,1,0,1.4942503000002034,None,,,,,,,,846,22,M,R,2026-02-18_12h28.14.253,VisualSearch_2526_3,,2025.2.4,2026-02-18 12h28.14.488269 +0100,
tilted.xlsx,The target is tilted.,117,71,7,8,1,1,1,1,1,1,1,1,1,1,1,1,0,11,12,117,space,7.8186273999999685,None,1,1,1.6750143999997817,None,space,2.2914047000003848,None,0,0,0,0,,,,,8,7,71,0,220.66548059999968,,,,,,,,,,,,,,,,,,,,,220.65028279999933,220.66548059999968,221.14928509999936,221.1548705999994,221.1721936999993,222.84892519999994,,,,,222.84912039999926,222.86426989999927,223.06470369999988,223.04862979999962,221.1721936999993,,,,,,,,1,1,1.6750143999997817,None,,,,,,,,846,22,M,R,2026-02-18_12h28.14.253,VisualSearch_2526_3,,2025.2.4,2026-02-18 12h28.14.488269 +0100,
tilted.xlsx,The target is tilted.,117,72,0,9,1,1,1,1,1,1,1,1,0,0,0,0,0,7,8,117,space,7.8186273999999685,None,1,1,1.2067078999998557,None,space,2.2914047000003848,None,0,0,0,0,,,,,9,0,72,1,223.06470369999988,,,,,,,,,,,,,,,,,,,,,223.04942669999946,223.06470369999988,223.54850439999973,223.55386109999927,223.57151349999913,224.78164469999956,,,,,224.78178909999951,224.7966839999999,224.99743879999914,224.9809435999996,223.57151349999913,,,,,,,,1,1,1.2067078999998557,None,,,,,,,,846,22,M,R,2026-02-18_12h28.14.253,VisualSearch_2526_3,,2025.2.4,2026-02-18 12h28.14.488269 +0100,
tilted.xlsx,The target is tilted.,117,73,1,9,0,1,1,1,1,1,1,1,0,0,0,0,1,7,8,117,space,7.8186273999999685,None,1,0,0.9508803999997326,None,space,2.2914047000003848,None,0,0,0,0,,,,,9,1,73,5,224.99743879999914,,,,,,,,,,,,,,,,,,,,,224.98175019999962,224.99743879999914,225.48080729999947,225.4857409999995,225.49695089999932,226.4643944999998,,,,,226.4646346999998,226.47969789999934,226.6801975999997,226.66408329999922,225.49695089999932,,,,,,,,1,0,0.9508803999997326,None,,,,,,,,846,22,M,R,2026-02-18_12h28.14.253,VisualSearch_2526_3,,2025.2.4,2026-02-18 12h28.14.488269 +0100,
tilted.xlsx,The target is tilted.,117,74,2,9,0,1,1,1,1,1,1,1,1,1,1,1,1,11,12,117,space,7.8186273999999685,None,1,0,1.4985448999996152,None,space,2.2914047000003848,None,0,0,0,0,,,,,9,2,74,4,226.6801975999997,,,,,,,,,,,,,,,,,,,,,226.66487659999984,226.6801975999997,227.16363869999986,227.16823269999986,227.18375419999938,228.6963255999999,,,,,228.69647339999938,228.71214189999955,228.9127499999995,228.89639579999948,227.18375419999938,,,,,,,,1,0,1.4985448999996152,None,,,,,,,,846,22,M,R,2026-02-18_12h28.14.253,VisualSearch_2526_3,,2025.2.4,2026-02-18 12h28.14.488269 +0100,
tilted.xlsx,The target is tilted.,117,75,3,9,0,0,0,0,0,0,0,0,0,0,0,0,1,1,1,117,space,7.8186273999999685,None,1,0,0.606864499999574,None,space,2.2914047000003848,None,0,0,0,0,,,,,9,3,75,7,228.9127499999995,,,,,,,,,,,,,,,,,,,,,228.89721009999994,228.9127499999995,229.39654189999965,229.40188109999963,229.41935039999953,230.0293748999993,,,,,230.02952919999916,230.0451261999997,230.24563219999982,230.2295820999998,229.41935039999953,,,,,,,,1,0,0.606864499999574,None,,,,,,,,846,22,M,R,2026-02-18_12h28.14.253,VisualSearch_2526_3,,2025.2.4,2026-02-18 12h28.14.488269 +0100,
tilted.xlsx,The target is tilted.,117,76,4,9,1,1,1,1,0,0,0,0,0,0,0,0,0,3,4,117,space,7.8186273999999685,None,0,0,1.4949870000000374,None,space,2.2914047000003848,None,0,0,0,0,,,,,9,4,76,2,230.24563219999982,,,,,,,,,,,,,,,,,,,,,230.2303990999999,230.24563219999982,230.72909699999946,230.7343351999998,230.75070679999953,232.26127009999982,,,,,232.26138739999988,232.2780598999998,,232.46186409999973,230.75070679999953,,,,,,,,0,0,1.4949870000000374,None,,,,,,,,846,22,M,R,2026-02-18_12h28.14.253,VisualSearch_2526_3,,2025.2.4,2026-02-18 12h28.14.488269 +0100,
tilted.xlsx,The target is tilted.,117,77,5,9,1,1,1,1,1,1,1,1,1,1,1,1,0,11,12,117,space,7.8186273999999685,None,1,1,1.8965502000000924,None,space,2.2914047000003848,None,0,0,0,0,,,,,9,5,77,0,232.4782527999996,,,,,,,,,,,,,,,,,,,,,232.46279689999938,232.4782527999996,232.96133069999996,232.9631675999999,232.97783789999994,234.8789659999993,,,,,234.87918699999955,234.8935621999999,235.09400209999967,235.07763549999981,232.97783789999994,,,,,,,,1,1,1.8965502000000924,None,,,,,,,,846,22,M,R,2026-02-18_12h28.14.253,VisualSearch_2526_3,,2025.2.4,2026-02-18 12h28.14.488269 +0100,
tilted.xlsx,The target is tilted.,117,78,6,9,1,0,0,0,0,0,0,0,0,0,0,0,0,0,1,117,space,7.8186273999999685,None,0,0,0.7820003999995606,None,space,2.2914047000003848,None,0,0,0,0,,,,,9,6,78,3,235.09400209999967,,,,,,,,,,,,,,,,,,,,,235.07822619999934,235.09400209999967,235.57790059999934,235.5834316999999,235.60080929999913,236.3943090999992,,,,,236.39453029999913,236.40973829999984,236.61020159999953,236.59407269999974,235.60080929999913,,,,,,,,0,0,0.7820003999995606,None,,,,,,,,846,22,M,R,2026-02-18_12h28.14.253,VisualSearch_2526_3,,2025.2.4,2026-02-18 12h28.14.488269 +0100,
tilted.xlsx,The target is tilted.,117,79,7,9,0,1,1,1,0,0,0,0,0,0,0,0,1,3,4,117,space,7.8186273999999685,None,1,0,1.2079336000006151,None,space,2.2914047000003848,None,0,0,0,0,,,,,9,7,79,6,236.61020159999953,,,,,,,,,,,,,,,,,,,,,236.59488629999942,236.61020159999953,237.09402069999942,237.09923079999953,237.11606959999972,238.3270432999998,,,,,238.32719049999923,238.34224969999923,238.54288369999995,238.52682669999922,237.11606959999972,,,,,,,,1,0,1.2079336000006151,None,,,,,,,,846,22,M,R,2026-02-18_12h28.14.253,VisualSearch_2526_3,,2025.2.4,2026-02-18 12h28.14.488269 +0100,
tilted.xlsx,The target is tilted.,117,80,0,10,0,1,1,1,1,1,1,1,0,0,0,0,1,7,8,117,space,7.8186273999999685,None,1,0,0.8262412999993103,None,space,2.2914047000003848,None,0,0,0,0,,,,,10,0,80,5,238.54288369999995,,,,,,,,,,,,,,,,,,,,,238.52773819999948,238.54288369999995,239.0266388,239.03199359999962,239.05043939999996,239.89230449999923,,,,,239.89241759999913,239.90875549999964,,240.09271059999992,239.05043939999996,,,,,,,,1,0,0.8262412999993103,None,,,,,,,,846,22,M,R,2026-02-18_12h28.14.253,VisualSearch_2526_3,,2025.2.4,2026-02-18 12h28.14.488269 +0100,
tilted.xlsx,The target is tilted.,117,81,1,10,1,0,0,0,0,0,0,0,0,0,0,0,0,0,1,117,space,7.8186273999999685,None,0,0,0.7955222999999023,None,space,2.2914047000003848,None,0,0,0,0,,,,,10,1,81,3,240.10905299999922,,,,,,,,,,,,,,,,,,,,,240.09355139999934,240.10905299999922,240.5925641999993,240.59799889999977,240.6132648999992,241.42563709999922,,,,,241.42582669999956,241.44139949999953,241.64179849999982,241.62590089999958,,,,,,,,,0,0,0.7955222999999023,None,,,,,,,,846,22,M,R,2026-02-18_12h28.14.253,VisualSearch_2526_3,,2025.2.4,2026-02-18 12h28.14.488269 +0100,
tilted.xlsx,The target is tilted.,117,82,2,10,1,1,1,1,1,1,1,1,1,1,1,1,0,11,12,117,space,7.8186273999999685,None,0,0,3.4180246000005354,None,space,2.2914047000003848,None,0,0,0,0,,,,,10,2,82,0,241.64179849999982,,,,,,,,,,,,,,,,,,,,,241.62673599999926,241.64179849999982,242.12568379999993,242.13093059999937,242.14873699999953,245.57474619999994,,,,,245.5750382999995,245.59012279999934,245.79030779999994,245.7744088999998,242.14873699999953,,,,,,,,0,0,3.4180246000005354,None,,,,,,,,846,22,M,R,2026-02-18_12h28.14.253,VisualSearch_2526_3,,2025.2.4,2026-02-18 12h28.14.488269 +0100,
tilted.xlsx,The target is tilted.,117,83,3,10,0,0,0,0,0,0,0,0,0,0,0,0,1,1,1,117,space,7.8186273999999685,None,1,0,0.6833427999999913,None,space,2.2914047000003848,None,0,0,0,0,,,,,10,3,83,7,245.79030779999994,,,,,,,,,,,,,,,,,,,,,245.7752144999995,245.79030779999994,246.27427819999957,246.27949399999943,246.29766729999938,246.9904889999998,,,,,246.99063189999924,247.0060197999992,247.20662449999963,247.19024229999923,246.29766729999938,,,,,,,,1,0,0.6833427999999913,None,,,,,,,,846,22,M,R,2026-02-18_12h28.14.253,VisualSearch_2526_3,,2025.2.4,2026-02-18 12h28.14.488269 +0100,
tilted.xlsx,The target is tilted.,117,84,4,10,0,1,1,1,0,0,0,0,0,0,0,0,1,3,4,117,space,7.8186273999999685,None,1,0,1.1999807000001965,None,space,2.2914047000003848,None,0,0,0,0,,,,,10,4,84,6,247.20662449999963,,,,,,,,,,,,,,,,,,,,,247.1910272999994,247.20662449999963,247.69058479999967,247.69593759999952,247.71387109999978,248.92392029999974,,,,,248.9241540999992,248.9392541999996,249.1395021999997,249.12328069999967,247.71387109999978,,,,,,,,1,0,1.1999807000001965,None,,,,,,,,846,22,M,R,2026-02-18_12h28.14.253,VisualSearch_2526_3,,2025.2.4,2026-02-18 12h28.14.488269 +0100,
tilted.xlsx,The target is tilted.,117,85,5,10,1,1,1,1,1,1,1,1,0,0,0,0,0,7,8,117,space,7.8186273999999685,None,1,1,0.7281000000002678,None,space,2.2914047000003848,None,0,0,0,0,,,,,10,5,85,1,249.1395021999997,,,,,,,,,,,,,,,,,,,,,249.12410089999958,249.1395021999997,249.62307019999935,249.62829509999938,249.6457621999998,250.38985179999963,,,,,250.39002549999987,250.40530579999995,250.6056813999994,250.58960639999987,249.6457621999998,,,,,,,,1,1,0.7281000000002678,None,,,,,,,,846,22,M,R,2026-02-18_12h28.14.253,VisualSearch_2526_3,,2025.2.4,2026-02-18 12h28.14.488269 +0100,
tilted.xlsx,The target is tilted.,117,86,6,10,1,1,1,1,0,0,0,0,0,0,0,0,0,3,4,117,space,7.8186273999999685,None,0,0,1.4475819999997839,None,space,2.2914047000003848,None,0,0,0,0,,,,,10,6,86,2,250.6056813999994,,,,,,,,,,,,,,,,,,,,,250.59045939999942,250.6056813999994,251.0894101999993,251.09467609999956,251.1102151999994,252.57170549999955,,,,,252.57181329999912,252.58777739999914,252.78824519999944,252.77217699999983,251.1102151999994,,,,,,,,0,0,1.4475819999997839,None,,,,,,,,846,22,M,R,2026-02-18_12h28.14.253,VisualSearch_2526_3,,2025.2.4,2026-02-18 12h28.14.488269 +0100,
tilted.xlsx,The target is tilted.,117,87,7,10,0,1,1,1,1,1,1,1,1,1,1,1,1,11,12,117,space,7.8186273999999685,None,1,0,1.8268814000002749,None,space,2.2914047000003848,None,0,0,0,0,,,,,10,7,87,4,252.78824519999944,,,,,,,,,,,,,,,,,,,,,252.77306379999936,252.78824519999944,253.27197279999928,253.27719689999958,253.29468909999923,255.13871009999912,,,,,255.1389337999999,255.15398839999943,255.3537710999999,255.33799099999942,253.29468909999923,,,,,,,,1,0,1.8268814000002749,None,,,,,,,,846,22,M,R,2026-02-18_12h28.14.253,VisualSearch_2526_3,,2025.2.4,2026-02-18 12h28.14.488269 +0100,
tilted.xlsx,The target is tilted.,117,88,0,11,0,1,1,1,0,0,0,0,0,0,0,0,1,3,4,117,space,7.8186273999999685,None,1,0,1.3328506999996534,None,space,2.2914047000003848,None,0,0,0,0,,,,,11,0,88,6,255.3537710999999,,,,,,,,,,,,,,,,,,,,,255.33879289999913,255.3537710999999,255.83791839999958,255.84317669999928,255.86053559999982,257.2043776999999,,,,,257.20455499999935,257.22018729999945,257.4201045,257.40381549999984,255.86053559999982,,,,,,,,1,0,1.3328506999996534,None,,,,,,,,846,22,M,R,2026-02-18_12h28.14.253,VisualSearch_2526_3,,2025.2.4,2026-02-18 12h28.14.488269 +0100,
tilted.xlsx,The target is tilted.,117,89,1,11,0,1,1,1,1,1,1,1,0,0,0,0,1,7,8,117,space,7.8186273999999685,None,1,0,1.2619081999991977,None,space,2.2914047000003848,None,0,0,0,0,,,,,11,1,89,5,257.4201045,,,,,,,,,,,,,,,,,,,,,257.40463329999966,257.4201045,257.9038974999994,257.9091907999991,257.9255314999991,259.20314469999994,,,,,259.2032453999991,259.2192465999997,259.41942109999945,259.40321929999936,257.9255314999991,,,,,,,,1,0,1.2619081999991977,None,,,,,,,,846,22,M,R,2026-02-18_12h28.14.253,VisualSearch_2526_3,,2025.2.4,2026-02-18 12h28.14.488269 +0100,
tilted.xlsx,The target is tilted.,117,90,2,11,0,1,1,1,1,1,1,1,1,1,1,1,1,11,12,117,space,7.8186273999999685,None,1,0,1.4329398999998375,None,space,2.2914047000003848,None,0,0,0,0,,,,,11,2,90,4,259.41942109999945,,,,,,,,,,,,,,,,,,,,,259.40404559999934,259.41942109999945,259.9028226999999,259.9096037999998,259.92513339999914,261.36907209999936,,,,,261.36920779999946,261.38528359999964,261.5854283999997,261.56937369999923,259.92513339999914,,,,,,,,1,0,1.4329398999998375,None,,,,,,,,846,22,M,R,2026-02-18_12h28.14.253,VisualSearch_2526_3,,2025.2.4,2026-02-18 12h28.14.488269 +0100,
tilted.xlsx,The target is tilted.,117,91,3,11,1,1,1,1,1,1,1,1,1,1,1,1,0,11,12,117,space,7.8186273999999685,None,1,1,1.7805718999998135,None,space,2.2914047000003848,None,0,0,0,0,,,,,11,3,91,0,261.5854283999997,,,,,,,,,,,,,,,,,,,,,261.5702032999998,261.5854283999997,262.0692199999994,262.0745376999994,262.09222429999954,263.8858115999992,,,,,263.8860846999996,263.90139349999936,264.1011129999997,264.0851836999991,262.09222429999954,,,,,,,,1,1,1.7805718999998135,None,,,,,,,,846,22,M,R,2026-02-18_12h28.14.253,VisualSearch_2526_3,,2025.2.4,2026-02-18 12h28.14.488269 +0100,
tilted.xlsx,The target is tilted.,117,92,4,11,1,1,1,1,1,1,1,1,0,0,0,0,0,7,8,117,space,7.8186273999999685,None,0,0,2.691785300000447,None,space,2.2914047000003848,None,0,0,0,0,,,,,11,4,92,1,264.1011129999997,,,,,,,,,,,,,,,,,,,,,264.0860952999992,264.1011129999997,264.5849746999993,264.5903167999995,264.6063226999995,267.3015128999996,,,,,267.3017325999999,267.31668009999976,267.5167898999998,267.50073239999983,264.6063226999995,,,,,,,,0,0,2.691785300000447,None,,,,,,,,846,22,M,R,2026-02-18_12h28.14.253,VisualSearch_2526_3,,2025.2.4,2026-02-18 12h28.14.488269 +0100,
tilted.xlsx,The target is tilted.,117,93,5,11,0,0,0,0,0,0,0,0,0,0,0,0,1,1,1,117,space,7.8186273999999685,None,1,0,0.9852396000005683,None,space,2.2914047000003848,None,0,0,0,0,,,,,11,5,93,7,267.5167898999998,,,,,,,,,,,,,,,,,,,,,267.50164029999996,267.5167898999998,268.00013989999934,268.0035300999998,268.01756249999926,269.0168442999993,,,,,269.0169715999991,269.03276189999997,269.2323951999997,269.2165110999995,268.01756249999926,,,,,,,,1,0,0.9852396000005683,None,,,,,,,,846,22,M,R,2026-02-18_12h28.14.253,VisualSearch_2526_3,,2025.2.4,2026-02-18 12h28.14.488269 +0100,
tilted.xlsx,The target is tilted.,117,94,6,11,1,0,0,0,0,0,0,0,0,0,0,0,0,0,1,117,space,7.8186273999999685,None,0,0,0.736670100000083,None,space,2.2914047000003848,None,0,0,0,0,,,,,11,6,94,3,269.2323951999997,,,,,,,,,,,,,,,,,,,,,269.21732489999977,269.2323951999997,269.7166585999994,269.72191999999995,269.7371432,270.48317379999935,,,,,270.4833314999996,270.4990263999998,270.6990950999998,270.6829294999998,269.7371432,,,,,,,,0,0,0.736670100000083,None,,,,,,,,846,22,M,R,2026-02-18_12h28.14.253,VisualSearch_2526_3,,2025.2.4,2026-02-18 12h28.14.488269 +0100,
tilted.xlsx,The target is tilted.,117,95,7,11,1,1,1,1,0,0,0,0,0,0,0,0,0,3,4,117,space,7.8186273999999685,None,0,0,1.820904000000155,None,space,2.2914047000003848,None,0,0,0,0,,,,,11,7,95,2,270.6990950999998,,,,,,,,,,,,,,,,,,,,,270.6837498999994,270.6990950999998,271.18283449999944,271.1880022999994,271.20474899999954,273.03275419999954,,,,,273.0330017999995,273.04787639999995,273.2482018999999,273.2319895999999,271.20474899999954,,,,,,,,0,0,1.820904000000155,None,,,,,,,,846,22,M,R,2026-02-18_12h28.14.253,VisualSearch_2526_3,,2025.2.4,2026-02-18 12h28.14.488269 +0100,
tilted.xlsx,The target is tilted.,117,96,0,12,0,1,1,1,1,1,1,1,0,0,0,0,1,7,8,117,space,7.8186273999999685,None,0,1,1.5950451999997313,None,space,2.2914047000003848,None,0,0,0,0,,,,,12,0,96,5,273.2482018999999,,,,,,,,,,,,,,,,,,,,,273.2327011999996,273.2482018999999,273.73185039999953,273.7370300999992,273.75450159999946,275.3644998,,,,,275.3646878999998,275.3806849999992,275.5804791999999,275.56475389999923,273.75450159999946,,,,,,,,0,1,1.5950451999997313,None,,,,,,,,846,22,M,R,2026-02-18_12h28.14.253,VisualSearch_2526_3,,2025.2.4,2026-02-18 12h28.14.488269 +0100,
tilted.xlsx,The target is tilted.,117,97,1,12,0,0,0,0,0,0,0,0,0,0,0,0,1,1,1,117,space,7.8186273999999685,None,0,1,0.6319806999999855,None,space,2.2914047000003848,None,0,0,0,0,,,,,12,1,97,7,275.5804791999999,,,,,,,,,,,,,,,,,,,,,275.5655466999997,275.5804791999999,276.0644582999994,276.0696604999994,276.0852258999994,276.7315306999999,,,,,276.73176179999973,276.74677839999913,276.9470057999997,276.93079489999946,276.0852258999994,,,,,,,,0,1,0.6319806999999855,None,,,,,,,,846,22,M,R,2026-02-18_12h28.14.253,VisualSearch_2526_3,,2025.2.4,2026-02-18 12h28.14.488269 +0100,
tilted.xlsx,The target is tilted.,117,98,2,12,1,1,1,1,1,1,1,1,0,0,0,0,0,7,8,117,space,7.8186273999999685,None,1,1,1.2041276999998445,None,space,2.2914047000003848,None,0,0,0,0,,,,,12,2,98,1,276.9470057999997,,,,,,,,,,,,,,,,,,,,,276.9315921999996,276.9470057999997,277.4305394999992,277.4357046999994,277.4527017999999,278.66317249999975,,,,,278.66325489999963,278.67921279999973,278.87976569999955,278.8635628999991,277.4527017999999,,,,,,,,1,1,1.2041276999998445,None,,,,,,,,846,22,M,R,2026-02-18_12h28.14.253,VisualSearch_2526_3,,2025.2.4,2026-02-18 12h28.14.488269 +0100,
tilted.xlsx,The target is tilted.,117,99,3,12,0,1,1,1,1,1,1,1,1,1,1,1,1,11,12,117,space,7.8186273999999685,None,1,0,1.0954664999999295,None,space,2.2914047000003848,None,0,0,0,0,,,,,12,3,99,4,278.87976569999955,,,,,,,,,,,,,,,,,,,,,278.8643792999992,278.87976569999955,279.3633140999991,279.3686824999995,279.38518079999994,280.4967025999995,,,,,280.4968773999999,280.51248529999975,280.7121124999994,280.69624159999967,279.38518079999994,,,,,,,,1,0,1.0954664999999295,None,,,,,,,,846,22,M,R,2026-02-18_12h28.14.253,VisualSearch_2526_3,,2025.2.4,2026-02-18 12h28.14.488269 +0100,
tilted.xlsx,The target is tilted.,117,100,4,12,0,1,1,1,0,0,0,0,0,0,0,0,1,3,4,117,space,7.8186273999999685,None,1,0,1.0271520999995118,None,space,2.2914047000003848,None,0,0,0,0,,,,,12,4,100,6,280.7121124999994,,,,,,,,,,,,,,,,,,,,,280.6970672999996,280.7121124999994,281.1958319999994,281.20115149999947,281.21777329999986,282.24584159999995,,,,,282.2459898999996,282.26176439999927,282.4614511,282.44543669999985,281.21777329999986,,,,,,,,1,0,1.0271520999995118,None,,,,,,,,846,22,M,R,2026-02-18_12h28.14.253,VisualSearch_2526_3,,2025.2.4,2026-02-18 12h28.14.488269 +0100,
tilted.xlsx,The target is tilted.,117,101,5,12,1,0,0,0,0,0,0,0,0,0,0,0,0,0,1,117,space,7.8186273999999685,None,0,0,0.7324972999995225,None,space,2.2914047000003848,None,0,0,0,0,,,,,12,5,101,3,282.4614511,,,,,,,,,,,,,,,,,,,,,282.44629539999914,282.4614511,282.94562079999923,282.95094959999915,282.9615688999993,283.69513409999945,,,,,283.6952399999991,283.71100299999944,283.91137139999955,283.8953901999994,282.9615688999993,,,,,,,,0,0,0.7324972999995225,None,,,,,,,,846,22,M,R,2026-02-18_12h28.14.253,VisualSearch_2526_3,,2025.2.4,2026-02-18 12h28.14.488269 +0100,
tilted.xlsx,The target is tilted.,117,102,6,12,1,1,1,1,1,1,1,1,1,1,1,1,0,11,12,117,space,7.8186273999999685,None,1,1,1.597900099999606,None,space,2.2914047000003848,None,0,0,0,0,,,,,12,6,102,0,283.91137139999955,,,,,,,,,,,,,,,,,,,,,283.89618959999916,283.91137139999955,284.39522789999955,284.40051069999936,284.41791549999925,286.02865309999925,,,,,286.0288738999998,286.04365099999995,286.2438618999995,286.2277241999991,284.41791549999925,,,,,,,,1,1,1.597900099999606,None,,,,,,,,846,22,M,R,2026-02-18_12h28.14.253,VisualSearch_2526_3,,2025.2.4,2026-02-18 12h28.14.488269 +0100,
tilted.xlsx,The target is tilted.,117,103,7,12,1,1,1,1,0,0,0,0,0,0,0,0,0,3,4,117,space,7.8186273999999685,None,0,0,1.7509866999998849,None,space,2.2914047000003848,None,0,0,0,0,,,,,12,7,103,2,286.2438618999995,,,,,,,,,,,,,,,,,,,,,286.22852879999937,286.2438618999995,286.7277482999998,286.7330005999993,286.7514470999995,288.51002869999957,,,,,288.5101219999997,288.5262389999998,288.7264951999996,288.7104783999994,286.7514470999995,,,,,,,,0,0,1.7509866999998849,None,,,,,,,,846,22,M,R,2026-02-18_12h28.14.253,VisualSearch_2526_3,,2025.2.4,2026-02-18 12h28.14.488269 +0100,
tilted.xlsx,The target is tilted.,117,104,0,13,0,1,1,1,0,0,0,0,0,0,0,0,1,3,4,117,space,7.8186273999999685,None,1,0,1.0342588000003161,None,space,2.2914047000003848,None,0,0,0,0,,,,,13,0,104,6,288.7264951999996,,,,,,,,,,,,,,,,,,,,,288.7113295999998,288.7264951999996,289.21026559999973,289.2154787999998,289.23305249999976,290.2771737999992,,,,,290.2774236999994,290.2925845,290.492483,290.47649529999944,289.23305249999976,,,,,,,,1,0,1.0342588000003161,None,,,,,,,,846,22,M,R,2026-02-18_12h28.14.253,VisualSearch_2526_3,,2025.2.4,2026-02-18 12h28.14.488269 +0100,
tilted.xlsx,The target is tilted.,117,105,1,13,1,1,1,1,0,0,0,0,0,0,0,0,0,3,4,117,space,7.8186273999999685,None,0,0,2.130754899999374,None,space,2.2914047000003848,None,0,0,0,0,,,,,13,1,105,2,290.492483,,,,,,,,,,,,,,,,,,,,,290.4772858999995,290.492483,290.97545639999953,290.9783416999999,290.992166,293.1262102999999,,,,,293.12645689999954,293.1415675999997,293.34159309999995,293.32563299999947,290.992166,,,,,,,,0,0,2.130754899999374,None,,,,,,,,846,22,M,R,2026-02-18_12h28.14.253,VisualSearch_2526_3,,2025.2.4,2026-02-18 12h28.14.488269 +0100,
tilted.xlsx,The target is tilted.,117,106,2,13,0,1,1,1,1,1,1,1,0,0,0,0,1,7,8,117,space,7.8186273999999685,None,1,0,2.1070902000001297,None,space,2.2914047000003848,None,0,0,0,0,,,,,13,2,106,5,293.34159309999995,,,,,,,,,,,,,,,,,,,,,293.32647239999915,293.34159309999995,293.8255004999992,293.8306808999996,293.8465976999996,295.9574800999999,,,,,295.9575931999998,295.97375639999973,,296.1577456999994,293.8465976999996,,,,,,,,1,0,2.1070902000001297,None,,,,,,,,846,22,M,R,2026-02-18_12h28.14.253,VisualSearch_2526_3,,2025.2.4,2026-02-18 12h28.14.488269 +0100,
tilted.xlsx,The target is tilted.,117,107,3,13,1,1,1,1,1,1,1,1,1,1,1,1,0,11,12,117,space,7.8186273999999685,None,1,1,1.2496203000000605,None,space,2.2914047000003848,None,0,0,0,0,,,,,13,3,107,0,296.17408649999925,,,,,,,,,,,,,,,,,,,,,296.15860019999946,296.17408649999925,296.6578946999998,296.6631635999993,296.67991919999986,297.94074959999944,,,,,297.94089539999914,297.9563986999992,298.15652819999923,298.1404733999998,296.67991919999986,,,,,,,,1,1,1.2496203000000605,None,,,,,,,,846,22,M,R,2026-02-18_12h28.14.253,VisualSearch_2526_3,,2025.2.4,2026-02-18 12h28.14.488269 +0100,
tilted.xlsx,The target is tilted.,117,108,4,13,0,0,0,0,0,0,0,0,0,0,0,0,1,1,1,117,space,7.8186273999999685,None,1,0,0.7624065999998493,None,space,2.2914047000003848,None,0,0,0,0,,,,,13,4,108,7,298.15652819999923,,,,,,,,,,,,,,,,,,,,,298.14130849999947,298.15652819999923,298.6401756999994,298.64533519999986,298.6626013999994,299.44044739999936,,,,,299.44062009999925,299.4561802999997,299.6562712999994,299.6397672999992,298.6626013999994,,,,,,,,1,0,0.7624065999998493,None,,,,,,,,846,22,M,R,2026-02-18_12h28.14.253,VisualSearch_2526_3,,2025.2.4,2026-02-18 12h28.14.488269 +0100,
tilted.xlsx,The target is tilted.,117,109,5,13,0,1,1,1,1,1,1,1,1,1,1,1,1,11,12,117,space,7.8186273999999685,None,1,0,1.3721820000000662,None,space,2.2914047000003848,None,0,0,0,0,,,,,13,5,109,4,299.6562712999994,,,,,,,,,,,,,,,,,,,,,299.64057199999934,299.6562712999994,300.1400827999996,300.1452954999995,300.16275529999984,301.54013849999956,,,,,301.5403333999993,301.55547599999954,301.7556122999995,301.7392837999996,300.16275529999984,,,,,,,,1,0,1.3721820000000662,None,,,,,,,,846,22,M,R,2026-02-18_12h28.14.253,VisualSearch_2526_3,,2025.2.4,2026-02-18 12h28.14.488269 +0100,
tilted.xlsx,The target is tilted.,117,110,6,13,1,1,1,1,1,1,1,1,0,0,0,0,0,7,8,117,space,7.8186273999999685,None,1,1,1.2808081000002858,None,space,2.2914047000003848,None,0,0,0,0,,,,,13,6,110,1,301.7556122999995,,,,,,,,,,,,,,,,,,,,,301.7401169999994,301.7556122999995,302.2393809999994,302.24469079999926,302.2620516999996,303.5559536999999,,,,,303.5561485999997,303.5714561999994,303.7714243999999,303.7553734999992,302.2620516999996,,,,,,,,1,1,1.2808081000002858,None,,,,,,,,846,22,M,R,2026-02-18_12h28.14.253,VisualSearch_2526_3,,2025.2.4,2026-02-18 12h28.14.488269 +0100,
tilted.xlsx,The target is tilted.,117,111,7,13,1,0,0,0,0,0,0,0,0,0,0,0,0,0,1,117,space,7.8186273999999685,None,0,0,0.7319486000005782,None,space,2.2914047000003848,None,0,0,0,0,,,,,13,7,111,3,303.7714243999999,,,,,,,,,,,,,,,,,,,,,303.7561986999999,303.7714243999999,304.2552855999993,304.26049969999985,304.2770344999999,305.02221949999966,,,,,305.02243479999925,305.0377149999995,305.2378116,305.22169999999915,304.2770344999999,,,,,,,,0,0,0.7319486000005782,None,,,,,,,,846,22,M,R,2026-02-18_12h28.14.253,VisualSearch_2526_3,,2025.2.4,2026-02-18 12h28.14.488269 +0100,
tilted.xlsx,The target is tilted.,117,112,0,14,0,0,0,0,0,0,0,0,0,0,0,0,1,1,1,117,space,7.8186273999999685,None,1,0,0.6796574999998484,None,space,2.2914047000003848,None,0,0,0,0,,,,,14,0,112,7,305.2378116,,,,,,,,,,,,,,,,,,,,,305.2224908999997,305.2378116,305.7212400999997,305.7265663999997,305.74237709999943,306.4386599999998,,,,,306.43888269999934,306.45370659999935,306.6538819999996,306.6379756999995,305.74237709999943,,,,,,,,1,0,0.6796574999998484,None,,,,,,,,846,22,M,R,2026-02-18_12h28.14.253,VisualSearch_2526_3,,2025.2.4,2026-02-18 12h28.14.488269 +0100,
tilted.xlsx,The target is tilted.,117,113,1,14,1,0,0,0,0,0,0,0,0,0,0,0,0,0,1,117,space,7.8186273999999685,None,0,0,1.2938838999998552,None,space,2.2914047000003848,None,0,0,0,0,,,,,14,1,113,3,306.6538819999996,,,,,,,,,,,,,,,,,,,,,306.63879889999953,306.6538819999996,307.1378015999999,307.1430709999995,307.16129699999965,308.4712049999998,,,,,308.4714378999997,308.4865458999993,308.68667039999946,308.6706144,307.16129699999965,,,,,,,,0,0,1.2938838999998552,None,,,,,,,,846,22,M,R,2026-02-18_12h28.14.253,VisualSearch_2526_3,,2025.2.4,2026-02-18 12h28.14.488269 +0100,
tilted.xlsx,The target is tilted.,117,114,2,14,0,1,1,1,0,0,0,0,0,0,0,0,1,3,4,117,space,7.8186273999999685,None,1,0,0.8310004000004483,None,space,2.2914047000003848,None,0,0,0,0,,,,,14,2,114,6,308.68667039999946,,,,,,,,,,,,,,,,,,,,,308.6714306999993,308.68667039999946,309.18576569999914,309.1891960999992,309.20234959999925,310.0364148999997,,,,,310.0365605999996,310.0526770999995,310.2526876999991,310.2367031999993,,,,,,,,,1,0,0.8310004000004483,None,,,,,,,,846,22,M,R,2026-02-18_12h28.14.253,VisualSearch_2526_3,,2025.2.4,2026-02-18 12h28.14.488269 +0100,
tilted.xlsx,The target is tilted.,117,115,3,14,1,1,1,1,0,0,0,0,0,0,0,0,0,3,4,117,space,7.8186273999999685,None,0,0,1.6974622999996427,None,space,2.2914047000003848,None,0,0,0,0,,,,,14,3,115,2,310.2526876999991,,,,,,,,,,,,,,,,,,,,,310.2374912999994,310.2526876999991,310.7365564999991,310.7417792999995,310.7581474999997,312.4690897999999,,,,,312.4692389999991,312.48509079999985,312.6853508999993,312.6693048999996,310.7581474999997,,,,,,,,0,0,1.6974622999996427,None,,,,,,,,846,22,M,R,2026-02-18_12h28.14.253,VisualSearch_2526_3,,2025.2.4,2026-02-18 12h28.14.488269 +0100,
tilted.xlsx,The target is tilted.,117,116,4,14,0,1,1,1,1,1,1,1,1,1,1,1,1,11,12,117,space,7.8186273999999685,None,1,0,1.2573534999992262,None,space,2.2914047000003848,None,0,0,0,0,,,,,14,4,116,4,312.6853508999993,,,,,,,,,,,,,,,,,,,,,312.6701392999994,312.6853508999993,313.16912479999974,313.17427999999927,313.19217729999946,314.45259149999947,,,,,314.4528401999996,314.4679682999995,314.66804629999933,314.65173119999963,313.19217729999946,,,,,,,,1,0,1.2573534999992262,None,,,,,,,,846,22,M,R,2026-02-18_12h28.14.253,VisualSearch_2526_3,,2025.2.4,2026-02-18 12h28.14.488269 +0100,
tilted.xlsx,The target is tilted.,117,117,5,14,1,1,1,1,1,1,1,1,1,1,1,1,0,11,12,117,space,7.8186273999999685,None,0,0,2.3632747999999992,None,space,2.2914047000003848,None,0,0,0,0,,,,,14,5,117,0,314.66804629999933,,,,,,,,,,,,,,,,,,,,,314.65259739999965,314.66804629999933,315.1514789999992,315.1560116999999,315.1689703999991,317.53434669999933,,,,,317.53449079999973,317.5500784999995,317.7502111999993,317.7342641999994,315.1689703999991,,,,,,,,0,0,2.3632747999999992,None,,,,,,,,846,22,M,R,2026-02-18_12h28.14.253,VisualSearch_2526_3,,2025.2.4,2026-02-18 12h28.14.488269 +0100,
tilted.xlsx,The target is tilted.,117,118,6,14,0,1,1,1,1,1,1,1,0,0,0,0,1,7,8,117,space,7.8186273999999685,None,1,0,1.1669163999995362,None,space,2.2914047000003848,None,0,0,0,0,,,,,14,6,118,5,317.7502111999993,,,,,,,,,,,,,,,,,,,,,317.7350592999992,317.7502111999993,318.2341472999997,318.23933379999926,318.2558767999999,319.43408889999955,,,,,319.43428439999934,319.44975259999956,319.6493118999997,319.6336444999997,318.2558767999999,,,,,,,,1,0,1.1669163999995362,None,,,,,,,,846,22,M,R,2026-02-18_12h28.14.253,VisualSearch_2526_3,,2025.2.4,2026-02-18 12h28.14.488269 +0100,
tilted.xlsx,The target is tilted.,117,119,7,14,1,1,1,1,1,1,1,1,0,0,0,0,0,7,8,117,space,7.8186273999999685,None,1,1,1.5634768999998414,None,space,2.2914047000003848,None,0,0,0,0,,,,,14,7,119,1,319.6493118999997,,,,,,,,,,,,,,,,,,,,,319.6344474999996,319.6493118999997,320.13340159999916,320.13855839999997,320.1552370999998,321.73331139999937,,,,,321.7335074999992,321.7490016999991,321.9678905999999,321.93288549999943,320.1552370999998,,,,,,,,1,1,1.5634768999998414,None,,,,,,,,846,22,M,R,2026-02-18_12h28.14.253,VisualSearch_2526_3,,2025.2.4,2026-02-18 12h28.14.488269 +0100,
tilted.xlsx,The target is tilted.,117,0,0,0,,,,,,,,,,,,,,,,,space,7.8186273999999685,None,,,,,space,2.2914047000003848,None,0,0,0,0,,,,,,,,,,,,,,,,,,,,,,,,,,,,,,,,,,,,,,,,,,,,,,,,,,,,,,,,,,,,,,,846,22,M,R,2026-02-18_12h28.14.253,VisualSearch_2526_3,,2025.2.4,2026-02-18 12h28.14.488269 +0100,
vertical.xlsx,The target is tilted.,135,0,0,0,1,1,1,1,1,1,1,1,0,0,0,0,0,7,8,135,space,4.814497299999857,None,1,1,0.7351286000002801,None,,,,0,1,1,1,0,0,0,1,,,,,326.82469449999917,,,,,,,,,,,,,,,321.9678905999999,321.9678905999999,321.9678905999999,space,4.814497299999857,None,326.82094939999934,326.82469449999917,327.31393019999996,327.3193085999992,327.3349217999994,328.08041459999913,1,1,0.7351286000002801,None,328.08054449999963,328.09619679999923,328.29662429999917,328.2806499999997,,,,,,,,,,,,,,,,,,,,846,22,M,R,2026-02-18_12h28.14.253,VisualSearch_2526_3,,2025.2.4,2026-02-18 12h28.14.488269 +0100,
vertical.xlsx,The target is tilted.,135,1,1,0,0,0,0,0,0,0,0,0,0,0,0,0,1,1,1,135,space,4.814497299999857,None,0,1,0.5546254999999292,None,,,,0,1,1,1,0,1,1,7,,,,,328.29662429999917,,,,,,,,,,,,,,,,,,,,,328.28138689999923,328.29662429999917,328.78072599999996,328.7860936999996,328.80391529999997,329.3637598999994,0,1,0.5546254999999292,None,329.3639127999995,329.37971709999965,329.5797565999992,329.5637551,328.80391529999997,,,,,,,,,,,,,,,,,,,846,22,M,R,2026-02-18_12h28.14.253,VisualSearch_2526_3,,2025.2.4,2026-02-18 12h28.14.488269 +0100,
vertical.xlsx,The target is tilted.,135,2,2,0,1,1,1,1,1,1,1,1,1,1,1,1,0,11,12,135,space,4.814497299999857,None,1,1,0.6539130999999543,None,,,,0,1,1,1,0,2,2,0,,,,,329.5797565999992,,,,,,,,,,,,,,,,,,,,,329.5644926999994,329.5797565999992,330.0636265999992,330.0688335999994,330.0880072,330.7469502999993,1,1,0.6539130999999543,None,330.7471382999993,330.7625808999992,330.9626440999991,330.9462203999992,330.0880072,,,,,,,,,,,,,,,,,,,846,22,M,R,2026-02-18_12h28.14.253,VisualSearch_2526_3,,2025.2.4,2026-02-18 12h28.14.488269 +0100,
vertical.xlsx,The target is tilted.,135,3,3,0,1,0,0,0,0,0,0,0,0,0,0,0,0,0,1,135,space,4.814497299999857,None,1,1,0.623182899999847,None,,,,0,1,1,1,0,3,3,3,,,,,330.9626440999991,,,,,,,,,,,,,,,,,,,,,330.94701149999946,330.9626440999991,331.4464371999993,331.4516232999995,331.46654559999934,332.09683199999927,1,1,0.623182899999847,None,332.09705979999944,332.1119955999993,332.31222119999984,332.2961923999992,331.46654559999934,,,,,,,,,,,,,,,,,,,846,22,M,R,2026-02-18_12h28.14.253,VisualSearch_2526_3,,2025.2.4,2026-02-18 12h28.14.488269 +0100,
vertical.xlsx,The target is tilted.,135,4,4,0,1,1,1,1,0,0,0,0,0,0,0,0,0,3,4,135,space,4.814497299999857,None,1,1,0.6774265000003652,None,,,,0,1,1,1,0,4,4,2,,,,,332.31222119999984,,,,,,,,,,,,,,,,,,,,,332.2969293999995,332.31222119999984,332.7959263999992,332.8010885999993,332.8185426,333.51207929999964,1,1,0.6774265000003652,None,333.5121683999996,333.5282682999996,333.7284151999993,333.7123724999992,332.8185426,,,,,,,,,,,,,,,,,,,846,22,M,R,2026-02-18_12h28.14.253,VisualSearch_2526_3,,2025.2.4,2026-02-18 12h28.14.488269 +0100,
vertical.xlsx,The target is tilted.,135,5,5,0,0,1,1,1,1,1,1,1,0,0,0,0,1,7,8,135,space,4.814497299999857,None,0,1,1.603191400000469,None,,,,0,1,1,1,0,5,5,5,,,,,333.7284151999993,,,,,,,,,,,,,,,,,,,,,333.71310529999937,333.7284151999993,334.21213069999976,334.2172981999993,334.2367454999994,335.8453462999996,0,1,1.603191400000469,None,335.84552859999985,335.8607902999993,336.06092909999916,336.04485959999965,334.2367454999994,,,,,,,,,,,,,,,,,,,846,22,M,R,2026-02-18_12h28.14.253,VisualSearch_2526_3,,2025.2.4,2026-02-18 12h28.14.488269 +0100,
vertical.xlsx,The target is tilted.,135,6,6,0,0,1,1,1,1,1,1,1,1,1,1,1,1,11,12,135,space,4.814497299999857,None,0,1,2.055111100000431,None,,,,0,1,1,1,0,6,6,4,,,,,336.06092909999916,,,,,,,,,,,,,,,,,,,,,336.0456852999996,336.06092909999916,336.5447568999998,336.55001879999963,336.5696193999993,338.62815449999925,0,1,2.055111100000431,None,338.62836609999977,338.6434810999999,338.84332919999997,338.8272086999996,336.5696193999993,,,,,,,,,,,,,,,,,,,846,22,M,R,2026-02-18_12h28.14.253,VisualSearch_2526_3,,2025.2.4,2026-02-18 12h28.14.488269 +0100,
vertical.xlsx,The target is tilted.,135,7,7,0,0,1,1,1,0,0,0,0,0,0,0,0,1,3,4,135,space,4.814497299999857,None,0,1,0.824905100000251,None,,,,0,1,1,1,0,7,7,6,,,,,338.84332919999997,,,,,,,,,,,,,,,,,,,,,338.82794469999953,338.84332919999997,339.3270625999994,339.33223739999994,339.3490695999999,340.1771439999993,0,1,0.824905100000251,None,340.17731149999963,340.1929092999999,340.39296189999914,340.37691669999913,339.3490695999999,,,,,,,,,,,,,,,,,,,846,22,M,R,2026-02-18_12h28.14.253,VisualSearch_2526_3,,2025.2.4,2026-02-18 12h28.14.488269 +0100,
vertical.xlsx,The target is tilted.,135,0,0,0,0,1,1,1,0,0,0,0,0,0,0,0,1,3,4,135,space,4.814497299999857,None,0,1,1.0766936999998507,None,space,1.0324324999992314,None,0,1,1,1,,,,,0,0,0,6,341.46331999999984,,,,,,,,,,,,,,,,,,,,,341.4585253999994,341.46331999999984,341.9426319999993,341.94791199999963,341.9605376999998,343.04281679999985,,,,,343.0430129999995,343.0586319999993,343.25856789999943,343.2424964999991,,340.3845771999995,340.39296189999914,340.39296189999914,341.4269059999997,space,1.0324324999992314,None,0,1,1.0766936999998507,None,,,,,,,,846,22,M,R,2026-02-18_12h28.14.253,VisualSearch_2526_3,,2025.2.4,2026-02-18 12h28.14.488269 +0100,
vertical.xlsx,The target is tilted.,135,1,1,0,0,1,1,1,1,1,1,1,0,0,0,0,1,7,8,135,space,4.814497299999857,None,0,1,1.5849876999991466,None,space,1.0324324999992314,None,0,1,1,1,,,,,0,1,1,5,343.25856789999943,,,,,,,,,,,,,,,,,,,,,343.2433025999999,343.25856789999943,343.7422724999997,343.7474128999993,343.76505669999915,345.3588772999992,,,,,345.35907249999946,345.37463319999915,345.5740571999995,345.5573151999997,343.76505669999915,,,,,,,,0,1,1.5849876999991466,None,,,,,,,,846,22,M,R,2026-02-18_12h28.14.253,VisualSearch_2526_3,,2025.2.4,2026-02-18 12h28.14.488269 +0100,
vertical.xlsx,The target is tilted.,135,2,2,0,0,1,1,1,1,1,1,1,1,1,1,1,1,11,12,135,space,4.814497299999857,None,0,1,1.6661092000003919,None,space,1.0324324999992314,None,0,1,1,1,,,,,0,2,2,4,345.5740571999995,,,,,,,,,,,,,,,,,,,,,345.5576938999993,345.5740571999995,346.05839489999926,346.0636463999999,346.08152399999926,347.7579595999996,,,,,347.75817709999956,347.7736742999996,347.97361099999944,347.95767049999995,346.08152399999926,,,,,,,,0,1,1.6661092000003919,None,,,,,,,,846,22,M,R,2026-02-18_12h28.14.253,VisualSearch_2526_3,,2025.2.4,2026-02-18 12h28.14.488269 +0100,
vertical.xlsx,The target is tilted.,135,3,3,0,1,0,0,0,0,0,0,0,0,0,0,0,0,0,1,135,space,4.814497299999857,None,1,1,0.6007136999996874,None,space,1.0324324999992314,None,0,1,1,1,,,,,0,3,3,3,347.97361099999944,,,,,,,,,,,,,,,,,,,,,347.95849569999973,347.97361099999944,348.4576158,348.46276319999924,348.48097509999934,349.0913396999995,,,,,349.0915497999995,349.1064262,349.3065310999991,349.2904697999993,348.48097509999934,,,,,,,,1,1,0.6007136999996874,None,,,,,,,,846,22,M,R,2026-02-18_12h28.14.253,VisualSearch_2526_3,,2025.2.4,2026-02-18 12h28.14.488269 +0100,
vertical.xlsx,The target is tilted.,135,4,4,0,1,1,1,1,1,1,1,1,0,0,0,0,0,7,8,135,space,4.814497299999857,None,1,1,0.7874713999999585,None,space,1.0324324999992314,None,0,1,1,1,,,,,0,4,4,1,349.3065310999991,,,,,,,,,,,,,,,,,,,,,349.29127809999954,349.3065310999991,349.79041919999963,349.7956097999995,349.81301639999947,350.60739849999936,,,,,350.6076502999995,350.62289039999996,350.82272919999923,350.80641709999963,349.81301639999947,,,,,,,,1,1,0.7874713999999585,None,,,,,,,,846,22,M,R,2026-02-18_12h28.14.253,VisualSearch_2526_3,,2025.2.4,2026-02-18 12h28.14.488269 +0100,
vertical.xlsx,The target is tilted.,135,5,5,0,1,1,1,1,0,0,0,0,0,0,0,0,0,3,4,135,space,4.814497299999857,None,1,1,0.506552300000294,None,space,1.0324324999992314,None,0,1,1,1,,,,,0,5,5,2,350.82272919999923,,,,,,,,,,,,,,,,,,,,,350.8072289999991,350.82272919999923,351.3066766999991,351.31183019999935,351.33039239999925,351.84011739999914,,,,,351.8402908999997,351.8557512999996,352.0557880999995,352.03976389999934,351.33039239999925,,,,,,,,1,1,0.506552300000294,None,,,,,,,,846,22,M,R,2026-02-18_12h28.14.253,VisualSearch_2526_3,,2025.2.4,2026-02-18 12h28.14.488269 +0100,
vertical.xlsx,The target is tilted.,135,6,6,0,1,1,1,1,1,1,1,1,1,1,1,1,0,11,12,135,space,4.814497299999857,None,1,1,0.5661198999996486,None,space,1.0324324999992314,None,0,1,1,1,,,,,0,6,6,0,352.0557880999995,,,,,,,,,,,,,,,,,,,,,352.04070729999967,352.0557880999995,352.5394667999999,352.54467679999925,352.56062629999997,353.1396481999991,,,,,353.1398408999994,353.1553333999991,353.35531659999924,353.3392955999998,352.56062629999997,,,,,,,,1,1,0.5661198999996486,None,,,,,,,,846,22,M,R,2026-02-18_12h28.14.253,VisualSearch_2526_3,,2025.2.4,2026-02-18 12h28.14.488269 +0100,
vertical.xlsx,The target is tilted.,135,7,7,0,0,0,0,0,0,0,0,0,0,0,0,0,1,1,1,135,space,4.814497299999857,None,0,1,1.1913728000008632,None,space,1.0324324999992314,None,0,1,1,1,,,,,0,7,7,7,353.35531659999924,,,,,,,,,,,,,,,,,,,,,353.34008449999965,353.35531659999924,353.8388520999997,353.84409739999955,353.86087939999925,355.05554999999913,,,,,355.05574869999964,355.07094569999936,355.2712528999991,355.25527519999923,353.86087939999925,,,,,,,,0,1,1.1913728000008632,None,,,,,,,,846,22,M,R,2026-02-18_12h28.14.253,VisualSearch_2526_3,,2025.2.4,2026-02-18 12h28.14.488269 +0100,
vertical.xlsx,The target is tilted.,135,8,0,1,1,1,1,1,1,1,1,1,1,1,1,1,0,11,12,135,space,4.814497299999857,None,1,1,0.8016502000000401,None,space,1.0324324999992314,None,0,1,1,1,,,,,1,0,8,0,355.2712528999991,,,,,,,,,,,,,,,,,,,,,355.25607519999994,355.2712528999991,355.75516889999926,355.7605124999991,355.77642079999987,356.58878919999916,,,,,356.5890387999998,356.6039693999992,356.80424439999933,356.78814799999964,355.77642079999987,,,,,,,,1,1,0.8016502000000401,None,,,,,,,,846,22,M,R,2026-02-18_12h28.14.253,VisualSearch_2526_3,,2025.2.4,2026-02-18 12h28.14.488269 +0100,
vertical.xlsx,The target is tilted.,135,9,1,1,0,0,0,0,0,0,0,0,0,0,0,0,1,1,1,135,space,4.814497299999857,None,0,1,0.7066766999996617,None,space,1.0324324999992314,None,0,1,1,1,,,,,1,1,9,7,356.80424439999933,,,,,,,,,,,,,,,,,,,,,356.7889723999997,356.80424439999933,357.2879473999992,357.29323419999946,357.31145129999913,358.0211997999995,,,,,358.0213569999996,358.0370783999997,358.23708089999946,358.2208363,357.31145129999913,,,,,,,,0,1,0.7066766999996617,None,,,,,,,,846,22,M,R,2026-02-18_12h28.14.253,VisualSearch_2526_3,,2025.2.4,2026-02-18 12h28.14.488269 +0100,
vertical.xlsx,The target is tilted.,135,10,2,1,1,1,1,1,0,0,0,0,0,0,0,0,0,3,4,135,space,4.814497299999857,None,1,1,0.574549200000547,None,space,1.0324324999992314,None,0,1,1,1,,,,,1,2,10,2,358.23708089999946,,,,,,,,,,,,,,,,,,,,,358.2216454999998,358.23708089999946,358.72086219999983,358.7260295999995,358.74360439999964,359.3211905999997,,,,,359.3214107999993,359.3366600999998,359.5365022999995,359.51995629999965,358.74360439999964,,,,,,,,1,1,0.574549200000547,None,,,,,,,,846,22,M,R,2026-02-18_12h28.14.253,VisualSearch_2526_3,,2025.2.4,2026-02-18 12h28.14.488269 +0100,
vertical.xlsx,The target is tilted.,135,11,3,1,1,1,1,1,1,1,1,1,0,0,0,0,0,7,8,135,space,4.814497299999857,None,1,1,0.8883642999999211,None,space,1.0324324999992314,None,0,1,1,1,,,,,1,3,11,1,359.5365022999995,,,,,,,,,,,,,,,,,,,,,359.52041009999994,359.5365022999995,360.0203828999993,360.0255766999999,360.04295139999977,360.93616029999976,,,,,360.9363233999993,360.9520563999995,361.1525923999998,361.1359681999993,360.04295139999977,,,,,,,,1,1,0.8883642999999211,None,,,,,,,,846,22,M,R,2026-02-18_12h28.14.253,VisualSearch_2526_3,,2025.2.4,2026-02-18 12h28.14.488269 +0100,
vertical.xlsx,The target is tilted.,135,12,4,1,0,1,1,1,1,1,1,1,0,0,0,0,1,7,8,135,space,4.814497299999857,None,0,1,1.8337522000001627,None,space,1.0324324999992314,None,0,1,1,1,,,,,1,4,12,5,361.1525923999998,,,,,,,,,,,,,,,,,,,,,361.1364718999994,361.1525923999998,361.6365625999997,361.64186509999945,361.6596312999991,363.50325239999984,,,,,363.50347019999936,363.51851869999973,363.7186535999999,363.7021943,361.6596312999991,,,,,,,,0,1,1.8337522000001627,None,,,,,,,,846,22,M,R,2026-02-18_12h28.14.253,VisualSearch_2526_3,,2025.2.4,2026-02-18 12h28.14.488269 +0100,
vertical.xlsx,The target is tilted.,135,13,5,1,0,1,1,1,1,1,1,1,1,1,1,1,1,11,12,135,space,4.814497299999857,None,0,1,1.6157811000002766,None,space,1.0324324999992314,None,0,1,1,1,,,,,1,5,13,4,363.7186535999999,,,,,,,,,,,,,,,,,,,,,363.7029911999998,363.7186535999999,364.20223499999975,364.2076464999991,364.2247637999999,365.8521418999999,,,,,365.85233419999986,365.8678508999992,366.0678055999997,366.0514246999992,364.2247637999999,,,,,,,,0,1,1.6157811000002766,None,,,,,,,,846,22,M,R,2026-02-18_12h28.14.253,VisualSearch_2526_3,,2025.2.4,2026-02-18 12h28.14.488269 +0100,
vertical.xlsx,The target is tilted.,135,14,6,1,0,1,1,1,0,0,0,0,0,0,0,0,1,3,4,135,space,4.814497299999857,None,0,1,0.6352063999993334,None,space,1.0324324999992314,None,0,1,1,1,,,,,1,6,14,6,366.0678055999997,,,,,,,,,,,,,,,,,,,,,366.05232239999987,366.0678055999997,366.5513078999993,366.55654549999963,366.57427089999965,367.2187447999995,,,,,367.2189628999995,367.23380819999966,367.4341055999994,367.4180501999999,366.57427089999965,,,,,,,,0,1,0.6352063999993334,None,,,,,,,,846,22,M,R,2026-02-18_12h28.14.253,VisualSearch_2526_3,,2025.2.4,2026-02-18 12h28.14.488269 +0100,
vertical.xlsx,The target is tilted.,135,15,7,1,1,0,0,0,0,0,0,0,0,0,0,0,0,0,1,135,space,4.814497299999857,None,1,1,0.6484142999997857,None,space,1.0324324999992314,None,0,1,1,1,,,,,1,7,15,3,367.4341055999994,,,,,,,,,,,,,,,,,,,,,367.4188757999991,367.4341055999994,367.9178506999997,367.9230007999995,367.93911579999985,368.6014473999994,,,,,368.60170429999926,368.616994,368.81655449999926,368.80072499999915,367.93911579999985,,,,,,,,1,1,0.6484142999997857,None,,,,,,,,846,22,M,R,2026-02-18_12h28.14.253,VisualSearch_2526_3,,2025.2.4,2026-02-18 12h28.14.488269 +0100,
vertical.xlsx,The target is tilted.,135,16,0,2,0,1,1,1,1,1,1,1,0,0,0,0,1,7,8,135,space,4.814497299999857,None,0,1,1.8897311000000627,None,space,1.0324324999992314,None,0,1,1,1,,,,,2,0,16,5,368.81655449999926,,,,,,,,,,,,,,,,,,,,,368.8015104999995,368.81655449999926,369.3007157999991,369.30591359999926,369.3237046999993,371.2170643999998,,,,,371.2172800999997,371.23261469999943,371.43265919999976,371.4163418999997,369.3237046999993,,,,,,,,0,1,1.8897311000000627,None,,,,,,,,846,22,M,R,2026-02-18_12h28.14.253,VisualSearch_2526_3,,2025.2.4,2026-02-18 12h28.14.488269 +0100,
vertical.xlsx,The target is tilted.,135,17,1,2,0,1,1,1,0,0,0,0,0,0,0,0,1,3,4,135,space,4.814497299999857,None,0,1,0.7519528000002538,None,space,1.0324324999992314,None,0,1,1,1,,,,,2,1,17,6,371.43265919999976,,,,,,,,,,,,,,,,,,,,,371.4171422999998,371.43265919999976,371.9165303,371.9218581999994,371.9374923999994,372.7002324999994,,,,,372.7004472999997,372.7157408999992,372.9155944999993,372.899461,371.9374923999994,,,,,,,,0,1,0.7519528000002538,None,,,,,,,,846,22,M,R,2026-02-18_12h28.14.253,VisualSearch_2526_3,,2025.2.4,2026-02-18 12h28.14.488269 +0100,
vertical.xlsx,The target is tilted.,135,18,2,2,1,1,1,1,1,1,1,1,1,1,1,1,0,11,12,135,space,4.814497299999857,None,1,1,0.6864316999999573,None,space,1.0324324999992314,None,0,1,1,1,,,,,2,2,18,0,372.9155944999993,,,,,,,,,,,,,,,,,,,,,372.90028529999927,372.9155944999993,373.3994269999994,373.4047116999991,373.42203599999993,374.1164070999994,,,,,374.11664199999996,374.13160509999943,374.3317692999999,374.3157401999997,373.42203599999993,,,,,,,,1,1,0.6864316999999573,None,,,,,,,,846,22,M,R,2026-02-18_12h28.14.253,VisualSearch_2526_3,,2025.2.4,2026-02-18 12h28.14.488269 +0100,
vertical.xlsx,The target is tilted.,135,19,3,2,0,1,1,1,1,1,1,1,1,1,1,1,1,11,12,135,space,4.814497299999857,None,0,1,1.4999834000000192,None,space,1.0324324999992314,None,0,1,1,1,,,,,2,3,19,4,374.3317692999999,,,,,,,,,,,,,,,,,,,,,374.31656439999915,374.3317692999999,374.8148319999991,374.8166003999995,374.83116399999926,376.34871229999953,,,,,376.3489325999999,376.3643366999995,376.56440249999923,376.54840559999957,374.83116399999926,,,,,,,,0,1,1.4999834000000192,None,,,,,,,,846,22,M,R,2026-02-18_12h28.14.253,VisualSearch_2526_3,,2025.2.4,2026-02-18 12h28.14.488269 +0100,
vertical.xlsx,The target is tilted.,135,20,4,2,0,0,0,0,0,0,0,0,0,0,0,0,1,1,1,135,space,4.814497299999857,None,0,1,0.7762166000002253,None,space,1.0324324999992314,None,0,1,1,1,,,,,2,4,20,7,376.56440249999923,,,,,,,,,,,,,,,,,,,,,376.549352,376.56440249999923,377.0482237999995,377.0534455999996,377.0713447999997,377.8642115999992,,,,,377.86429469999985,377.8799646999996,378.08028019999983,378.06454549999944,377.0713447999997,,,,,,,,0,1,0.7762166000002253,None,,,,,,,,846,22,M,R,2026-02-18_12h28.14.253,VisualSearch_2526_3,,2025.2.4,2026-02-18 12h28.14.488269 +0100,
vertical.xlsx,The target is tilted.,135,21,5,2,1,1,1,1,0,0,0,0,0,0,0,0,0,3,4,135,space,4.814497299999857,None,1,1,0.7635663999999451,None,space,1.0324324999992314,None,0,1,1,1,,,,,2,5,21,2,378.08028019999983,,,,,,,,,,,,,,,,,,,,,378.06540249999944,378.08028019999983,378.56439239999963,378.5697075999997,378.5847316999998,379.3650229999994,,,,,379.36524369999916,379.3799986999993,379.5799328999992,379.5639551999993,378.5847316999998,,,,,,,,1,1,0.7635663999999451,None,,,,,,,,846,22,M,R,2026-02-18_12h28.14.253,VisualSearch_2526_3,,2025.2.4,2026-02-18 12h28.14.488269 +0100,
vertical.xlsx,The target is tilted.,135,22,6,2,1,1,1,1,1,1,1,1,0,0,0,0,0,7,8,135,space,4.814497299999857,None,1,1,1.4241059999994832,None,space,1.0324324999992314,None,0,1,1,1,,,,,2,6,22,1,379.5799328999992,,,,,,,,,,,,,,,,,,,,,379.5647594999991,379.5799328999992,380.0638993999992,380.06923709999955,380.08560429999943,381.5136941999999,,,,,381.5139098999998,381.5289952999992,381.72931619999963,381.7129832999999,380.08560429999943,,,,,,,,1,1,1.4241059999994832,None,,,,,,,,846,22,M,R,2026-02-18_12h28.14.253,VisualSearch_2526_3,,2025.2.4,2026-02-18 12h28.14.488269 +0100,
vertical.xlsx,The target is tilted.,135,23,7,2,1,0,0,0,0,0,0,0,0,0,0,0,0,0,1,135,space,4.814497299999857,None,1,1,0.45195370000055846,None,space,1.0324324999992314,None,0,1,1,1,,,,,2,7,23,3,381.72931619999963,,,,,,,,,,,,,,,,,,,,,381.71394639999926,381.72931619999963,382.2131376999996,382.2184293999999,382.23618609999994,382.6969259999996,,,,,382.6971668999995,382.71220339999945,382.9120946999992,382.89554619999944,382.23618609999994,,,,,,,,1,1,0.45195370000055846,None,,,,,,,,846,22,M,R,2026-02-18_12h28.14.253,VisualSearch_2526_3,,2025.2.4,2026-02-18 12h28.14.488269 +0100,
vertical.xlsx,The target is tilted.,135,24,0,3,1,0,0,0,0,0,0,0,0,0,0,0,0,0,1,135,space,4.814497299999857,None,1,1,0.4481818000003841,None,space,1.0324324999992314,None,0,1,1,1,,,,,3,0,24,3,382.9120946999992,,,,,,,,,,,,,,,,,,,,,382.8960320999995,382.9120946999992,383.39602379999997,383.4012243999996,383.4168852999992,383.8792844999998,,,,,383.8794306,383.8947146999999,384.09526409999944,384.0790029,383.4168852999992,,,,,,,,1,1,0.4481818000003841,None,,,,,,,,846,22,M,R,2026-02-18_12h28.14.253,VisualSearch_2526_3,,2025.2.4,2026-02-18 12h28.14.488269 +0100,
vertical.xlsx,The target is tilted.,135,25,1,3,0,1,1,1,0,0,0,0,0,0,0,0,1,3,4,135,space,4.814497299999857,None,0,1,0.6859857999997985,None,space,1.0324324999992314,None,0,1,1,1,,,,,3,1,25,6,384.09526409999944,,,,,,,,,,,,,,,,,,,,,384.0798245999995,384.09526409999944,384.5790913999999,384.5841412,384.5949409999994,385.29612689999976,,,,,385.29634329999953,385.3114065,385.5114675999994,385.49515989999963,384.5949409999994,,,,,,,,0,1,0.6859857999997985,None,,,,,,,,846,22,M,R,2026-02-18_12h28.14.253,VisualSearch_2526_3,,2025.2.4,2026-02-18 12h28.14.488269 +0100,
vertical.xlsx,The target is tilted.,135,26,2,3,0,1,1,1,1,1,1,1,0,0,0,0,1,7,8,135,space,4.814497299999857,None,0,1,1.4493639000002077,None,space,1.0324324999992314,None,0,1,1,1,,,,,3,2,26,5,385.5114675999994,,,,,,,,,,,,,,,,,,,,,385.49599769999986,385.5114675999994,385.99449449999975,385.9971866999995,386.0108965999998,387.4614041999994,,,,,387.4615376999991,387.4772073999993,387.6773893999998,387.66103099999964,386.0108965999998,,,,,,,,0,1,1.4493639000002077,None,,,,,,,,846,22,M,R,2026-02-18_12h28.14.253,VisualSearch_2526_3,,2025.2.4,2026-02-18 12h28.14.488269 +0100,
vertical.xlsx,The target is tilted.,135,27,3,3,1,1,1,1,0,0,0,0,0,0,0,0,0,3,4,135,space,4.814497299999857,None,1,1,0.5086795999995957,None,space,1.0324324999992314,None,0,1,1,1,,,,,3,3,27,2,387.6773893999998,,,,,,,,,,,,,,,,,,,,,387.6618402999993,387.6773893999998,388.1609125999994,388.16708629999994,388.1853610999997,388.71080989999973,,,,,388.7109830999998,388.72693269999945,388.92702739999913,388.9107908999995,388.1853610999997,,,,,,,,1,1,0.5086795999995957,None,,,,,,,,846,22,M,R,2026-02-18_12h28.14.253,VisualSearch_2526_3,,2025.2.4,2026-02-18 12h28.14.488269 +0100,
vertical.xlsx,The target is tilted.,135,28,4,3,0,0,0,0,0,0,0,0,0,0,0,0,1,1,1,135,space,4.814497299999857,None,0,1,0.6442264999996041,None,space,1.0324324999992314,None,0,1,1,1,,,,,3,4,28,7,388.92702739999913,,,,,,,,,,,,,,,,,,,,,388.91167699999914,388.92702739999913,389.4107209999993,389.4158992999992,389.43251319999945,390.09454089999963,,,,,390.0947583999996,390.10995529999946,390.3099506999997,390.2938460999994,389.43251319999945,,,,,,,,0,1,0.6442264999996041,None,,,,,,,,846,22,M,R,2026-02-18_12h28.14.253,VisualSearch_2526_3,,2025.2.4,2026-02-18 12h28.14.488269 +0100,
vertical.xlsx,The target is tilted.,135,29,5,3,1,1,1,1,1,1,1,1,0,0,0,0,0,7,8,135,space,4.814497299999857,None,1,1,0.5265512999994826,None,space,1.0324324999992314,None,0,1,1,1,,,,,3,5,29,1,390.3099506999997,,,,,,,,,,,,,,,,,,,,,390.29463869999927,390.3099506999997,390.7934987999997,390.7988018999995,390.8149614999993,391.3438735999998,,,,,391.3440796999994,391.35931679999976,391.5594710999994,391.5433675999993,390.8149614999993,,,,,,,,1,1,0.5265512999994826,None,,,,,,,,846,22,M,R,2026-02-18_12h28.14.253,VisualSearch_2526_3,,2025.2.4,2026-02-18 12h28.14.488269 +0100,
vertical.xlsx,The target is tilted.,135,30,6,3,1,1,1,1,1,1,1,1,1,1,1,1,0,11,12,135,space,4.814497299999857,None,1,1,1.5454669999999169,None,space,1.0324324999992314,None,0,1,1,1,,,,,3,6,30,0,391.5594710999994,,,,,,,,,,,,,,,,,,,,,391.5441675999991,391.5594710999994,392.0432736999992,392.0483859999995,392.06505019999986,393.62609559999964,,,,,393.6262428,393.6420107999993,393.8419721999999,393.82599299999947,392.06505019999986,,,,,,,,1,1,1.5454669999999169,None,,,,,,,,846,22,M,R,2026-02-18_12h28.14.253,VisualSearch_2526_3,,2025.2.4,2026-02-18 12h28.14.488269 +0100,
vertical.xlsx,The target is tilted.,135,31,7,3,0,1,1,1,1,1,1,1,1,1,1,1,1,11,12,135,space,4.814497299999857,None,0,1,1.5226681000003737,None,space,1.0324324999992314,None,0,1,1,1,,,,,3,7,31,4,393.8419721999999,,,,,,,,,,,,,,,,,,,,,393.82679299999927,393.8419721999999,394.3258924999991,394.3310778999994,394.34695659999943,395.87540459999946,,,,,395.8756007999991,395.8912572999998,396.0913015999995,396.07528919999913,394.34695659999943,,,,,,,,0,1,1.5226681000003737,None,,,,,,,,846,22,M,R,2026-02-18_12h28.14.253,VisualSearch_2526_3,,2025.2.4,2026-02-18 12h28.14.488269 +0100,
vertical.xlsx,The target is tilted.,135,32,0,4,0,1,1,1,1,1,1,1,0,0,0,0,1,7,8,135,space,4.814497299999857,None,0,1,1.4930263000005652,None,space,1.0324324999992314,None,0,1,1,1,,,,,4,0,32,5,396.0913015999995,,,,,,,,,,,,,,,,,,,,,396.07607649999954,396.0913015999995,396.57517049999933,396.5803513999999,396.5990056999999,398.10819899999933,,,,,398.1083893999994,398.1237029999993,398.32395259999976,398.3079680999999,396.5990056999999,,,,,,,,0,1,1.4930263000005652,None,,,,,,,,846,22,M,R,2026-02-18_12h28.14.253,VisualSearch_2526_3,,2025.2.4,2026-02-18 12h28.14.488269 +0100,
vertical.xlsx,The target is tilted.,135,33,1,4,0,1,1,1,1,1,1,1,1,1,1,1,1,11,12,135,space,4.814497299999857,None,0,1,1.8464038000001892,None,space,1.0324324999992314,None,0,1,1,1,,,,,4,1,33,4,398.32395259999976,,,,,,,,,,,,,,,,,,,,,398.3087808999999,398.32395259999976,398.80772349999916,398.81368759999987,398.83088039999984,400.69112719999976,,,,,400.6913494999999,400.70633909999924,400.90639779999947,400.8904028999996,398.83088039999984,,,,,,,,0,1,1.8464038000001892,None,,,,,,,,846,22,M,R,2026-02-18_12h28.14.253,VisualSearch_2526_3,,2025.2.4,2026-02-18 12h28.14.488269 +0100,
