file_name,block_instructions,target_example,thisN,thisTrialN,thisRepN,target_presence,opacity_1,opacity_2,opacity_3,opacity_4,opacity_5,opacity_6,opacity_7,opacity_8,opacity_9,opacity_10,opacity_11,opacity_12,n_distract,n_items,target_ori,key_resp_4.keys,key_resp_4.rt,key_resp_4.duration,key_resp.keys,key_resp.corr,key_resp.rt,key_resp.duration,key_resp_5.keys,key_resp_5.rt,key_resp_5.duration,blocks.thisRepN,blocks.thisTrialN,blocks.thisN,blocks.thisIndex,practice_trials.thisRepN,practice_trials.thisTrialN,practice_trials.thisN,practice_trials.thisIndex,trials.thisRepN,trials.thisTrialN,trials.thisN,trials.thisIndex,thisRow.t,notes,Welcome.started,WelcomeText.started,key_resp_2.started,Welcome.stopped,key_resp_2.keys,key_resp_2.rt,key_resp_2.duration,InformedConsent.started,text_4.started,InformedConsent.stopped,key_resp_6.keys,key_resp_6.rt,key_resp_6.duration,key_resp_4.started,example_target.started,text_3.started,blocks.key_resp_4.keys,blocks.key_resp_4.rt,blocks.key_resp_4.duration,FixCross.started,fixCross.started,FixCross.stopped,Stimulus.started,key_resp.started,Stimulus.stopped,practice_trials.key_resp.keys,practice_trials.key_resp.corr,practice_trials.key_resp.rt,practice_trials.key_resp.duration,BlankScreen.started,text.started,text.stopped,BlankScreen.stopped,fixCross.stopped,ExperimentStart.started,text_2.started,key_resp_5.started,ExperimentStart.stopped,blocks.key_resp_5.keys,blocks.key_resp_5.rt,blocks.key_resp_5.duration,trials.key_resp.keys,trials.key_resp.corr,trials.key_resp.rt,trials.key_resp.duration,Thanks.started,ThankYou.started,key_resp_3.started,Thanks.stopped,key_resp_3.keys,key_resp_3.rt,key_resp_3.duration,participant,leeftijd,gender,links/rechtshandig,date,expName,expVersion,psychopyVersion,expStart,
,,,,,,,,,,,,,,,,,,,,,,,,,,,,,,,,,,,,,,,,,,,,,,0.03157240000018646,0.04517690000011498,0.04517690000011498,38.630387500000325,space,38.55356070000016,None,,,,,,,,,,,,,,,,,,,,,,,,,,,,,,,,,,,,,,,,,,,,,,847,20,M,R,2026-02-18_12h38.36.085,VisualSearch_2526_3,,2025.2.4,2026-02-18 12h38.36.322744 +0100,
,,,,,,,,,,,,,,,,,,,,,,,,,,,,,,,,,,,,,,,,,,,,,,,,,,,,,38.630497500000274,38.63805880000018,41.26271850000012,y,2.6242175999996107,None,,,,,,,,,,,,,,,,,,,,,,,,,,,,,,,,,,,,,,,,847,20,M,R,2026-02-18_12h38.36.085,VisualSearch_2526_3,,2025.2.4,2026-02-18 12h38.36.322744 +0100,
tilted.xlsx,The target is tilted.,117,0,0,0,0,0,0,0,0,0,0,0,0,0,0,0,1,1,1,117,space,4.413873700000295,None,1,0,0.6471761000002516,None,,,,0,0,0,0,0,0,0,7,,,,,45.74529890000031,,,,,,,,,,,,,,,41.302508200000375,41.302508200000375,41.302508200000375,space,4.413873700000295,None,45.73991269999988,45.74529890000031,46.226571900000636,46.23237260000042,46.24614930000007,46.90992180000012,1,0,0.6471761000002516,None,46.910056600000644,46.9258118000007,47.12593130000005,47.109901400000126,,,,,,,,,,,,,,,,,,,,847,20,M,R,2026-02-18_12h38.36.085,VisualSearch_2526_3,,2025.2.4,2026-02-18 12h38.36.322744 +0100,
tilted.xlsx,The target is tilted.,117,1,1,0,1,1,1,1,1,1,1,1,0,0,0,0,0,7,8,117,space,4.413873700000295,None,1,1,2.293384199999309,None,,,,0,0,0,0,0,1,1,1,,,,,47.12593130000005,,,,,,,,,,,,,,,,,,,,,47.11072450000029,47.12593130000005,47.609709000000294,47.61525960000017,47.63104560000011,49.926317700000254,1,1,2.293384199999309,None,49.92653900000005,49.94153880000067,50.14110710000023,50.125512399999934,47.63104560000011,,,,,,,,,,,,,,,,,,,847,20,M,R,2026-02-18_12h38.36.085,VisualSearch_2526_3,,2025.2.4,2026-02-18 12h38.36.322744 +0100,
tilted.xlsx,The target is tilted.,117,2,2,0,1,1,1,1,1,1,1,1,1,1,1,1,0,11,12,117,space,4.413873700000295,None,1,1,2.734841100000267,None,,,,0,0,0,0,0,2,2,0,,,,,50.14110710000023,,,,,,,,,,,,,,,,,,,,,50.126330600000074,50.14110710000023,50.625122000000374,50.63054170000032,50.646365000000515,53.39181640000061,1,1,2.734841100000267,None,53.3920035000001,53.40679460000047,53.60714050000024,53.59104550000029,50.646365000000515,,,,,,,,,,,,,,,,,,,847,20,M,R,2026-02-18_12h38.36.085,VisualSearch_2526_3,,2025.2.4,2026-02-18 12h38.36.322744 +0100,
tilted.xlsx,The target is tilted.,117,3,3,0,0,1,1,1,1,1,1,1,1,1,1,1,1,11,12,117,space,4.413873700000295,None,1,0,2.043592400000307,None,,,,0,0,0,0,0,3,3,4,,,,,53.60714050000024,,,,,,,,,,,,,,,,,,,,,53.5918429000003,53.60714050000024,54.09051619999991,54.0959926000005,54.1127032000004,56.15757519999988,1,0,2.043592400000307,None,56.15780910000012,56.1725864,56.37295489999997,56.35680890000003,54.1127032000004,,,,,,,,,,,,,,,,,,,847,20,M,R,2026-02-18_12h38.36.085,VisualSearch_2526_3,,2025.2.4,2026-02-18 12h38.36.322744 +0100,
tilted.xlsx,The target is tilted.,117,4,4,0,1,0,0,0,0,0,0,0,0,0,0,0,0,0,1,117,space,4.413873700000295,None,0,0,1.578094499999679,None,,,,0,0,0,0,0,4,4,3,,,,,56.37295489999997,,,,,,,,,,,,,,,,,,,,,56.357539600000564,56.37295489999997,56.856636600000456,56.86224500000026,56.878064800000175,58.47264700000051,0,0,1.578094499999679,None,58.472861000000194,58.488315100000364,58.68893240000034,58.67271930000061,56.878064800000175,,,,,,,,,,,,,,,,,,,847,20,M,R,2026-02-18_12h38.36.085,VisualSearch_2526_3,,2025.2.4,2026-02-18 12h38.36.322744 +0100,
tilted.xlsx,The target is tilted.,117,5,5,0,1,1,1,1,0,0,0,0,0,0,0,0,0,3,4,117,space,4.413873700000295,None,0,0,1.9095368999996936,None,,,,0,0,0,0,0,5,5,2,,,,,58.68893240000034,,,,,,,,,,,,,,,,,,,,,58.67350859999988,58.68893240000034,59.172388500000125,59.177072400000725,59.194664900000134,61.10564770000019,0,0,1.9095368999996936,None,61.10592330000054,61.1208701000005,61.32136770000034,61.30490710000049,59.194664900000134,,,,,,,,,,,,,,,,,,,847,20,M,R,2026-02-18_12h38.36.085,VisualSearch_2526_3,,2025.2.4,2026-02-18 12h38.36.322744 +0100,
tilted.xlsx,The target is tilted.,117,6,6,0,0,1,1,1,1,1,1,1,0,0,0,0,1,7,8,117,space,4.413873700000295,None,1,0,1.3643193999996583,None,,,,0,0,0,0,0,6,6,5,,,,,61.32136770000034,,,,,,,,,,,,,,,,,,,,,61.30569950000063,61.32136770000034,61.804786600000625,61.81031230000008,61.825219400000606,63.20467540000027,1,0,1.3643193999996583,None,63.20489210000051,63.22016520000034,63.42065080000066,63.40461240000059,61.825219400000606,,,,,,,,,,,,,,,,,,,847,20,M,R,2026-02-18_12h38.36.085,VisualSearch_2526_3,,2025.2.4,2026-02-18 12h38.36.322744 +0100,
tilted.xlsx,The target is tilted.,117,7,7,0,0,1,1,1,0,0,0,0,0,0,0,0,1,3,4,117,space,4.413873700000295,None,0,1,0.9186196000000564,None,,,,0,0,0,0,0,7,7,6,,,,,63.42065080000066,,,,,,,,,,,,,,,,,,,,,63.405373300000065,63.42065080000066,63.904478800000106,63.90994460000002,63.92579879999994,64.8541052999999,0,1,0.9186196000000564,None,64.85424980000062,64.86946760000046,65.06950099999995,65.05406940000012,63.92579879999994,,,,,,,,,,,,,,,,,,,847,20,M,R,2026-02-18_12h38.36.085,VisualSearch_2526_3,,2025.2.4,2026-02-18 12h38.36.322744 +0100,
tilted.xlsx,The target is tilted.,117,0,0,0,1,1,1,1,1,1,1,1,1,1,1,1,0,11,12,117,space,4.413873700000295,None,1,1,2.8989000999999917,None,space,3.4925043000002916,None,0,0,0,0,,,,,0,0,0,0,68.59915189999992,,,,,,,,,,,,,,,,,,,,,68.59532459999991,68.59915189999992,69.08560020000004,69.09111399999983,69.1058739,72.0179435,,,,,72.01811210000051,72.03392320000057,72.23430410000037,72.21791829999984,,65.06277230000069,65.06950099999995,65.06950099999995,68.56992570000057,space,3.4925043000002916,None,1,1,2.8989000999999917,None,,,,,,,,847,20,M,R,2026-02-18_12h38.36.085,VisualSearch_2526_3,,2025.2.4,2026-02-18 12h38.36.322744 +0100,
tilted.xlsx,The target is tilted.,117,1,1,0,0,1,1,1,1,1,1,1,1,1,1,1,1,11,12,117,space,4.413873700000295,None,1,0,1.975107800000842,None,space,3.4925043000002916,None,0,0,0,0,,,,,0,1,1,4,72.23430410000037,,,,,,,,,,,,,,,,,,,,,72.2187455000003,72.23430410000037,72.71824230000038,72.7237567000002,72.73778410000068,74.71735330000047,,,,,74.71752760000072,74.73289110000042,74.93346490000022,74.91759960000036,72.73778410000068,,,,,,,,1,0,1.975107800000842,None,,,,,,,,847,20,M,R,2026-02-18_12h38.36.085,VisualSearch_2526_3,,2025.2.4,2026-02-18 12h38.36.322744 +0100,
tilted.xlsx,The target is tilted.,117,2,2,0,0,0,0,0,0,0,0,0,0,0,0,0,1,1,1,117,space,4.413873700000295,None,0,1,1.0587194999998246,None,space,3.4925043000002916,None,0,0,0,0,,,,,0,2,2,7,74.93346490000022,,,,,,,,,,,,,,,,,,,,,74.91845400000057,74.93346490000022,75.41739540000071,75.42223079999985,75.43285670000023,76.50032340000052,,,,,76.50047260000065,76.51573749999989,76.71597689999999,76.70025270000042,75.43285670000023,,,,,,,,0,1,1.0587194999998246,None,,,,,,,,847,20,M,R,2026-02-18_12h38.36.085,VisualSearch_2526_3,,2025.2.4,2026-02-18 12h38.36.322744 +0100,
tilted.xlsx,The target is tilted.,117,3,3,0,1,1,1,1,1,1,1,1,0,0,0,0,0,7,8,117,space,4.413873700000295,None,1,1,1.2299006000002919,None,space,3.4925043000002916,None,0,0,0,0,,,,,0,3,3,1,76.71597689999999,,,,,,,,,,,,,,,,,,,,,76.70108049999999,76.71597689999999,77.20012730000053,77.20552260000022,77.22107810000034,78.46614810000028,,,,,78.46636380000018,78.4817664000002,78.68237279999994,78.66632879999997,77.22107810000034,,,,,,,,1,1,1.2299006000002919,None,,,,,,,,847,20,M,R,2026-02-18_12h38.36.085,VisualSearch_2526_3,,2025.2.4,2026-02-18 12h38.36.322744 +0100,
tilted.xlsx,The target is tilted.,117,4,4,0,1,1,1,1,0,0,0,0,0,0,0,0,0,3,4,117,space,4.413873700000295,None,0,0,1.5654963999995744,None,space,3.4925043000002916,None,0,0,0,0,,,,,0,4,4,2,78.68237279999994,,,,,,,,,,,,,,,,,,,,,78.66716180000003,78.68237279999994,79.16542570000001,79.1688653000001,79.1838901000001,80.76503380000031,,,,,80.76522699999987,80.78101539999989,80.98156070000005,80.96510180000041,79.1838901000001,,,,,,,,0,0,1.5654963999995744,None,,,,,,,,847,20,M,R,2026-02-18_12h38.36.085,VisualSearch_2526_3,,2025.2.4,2026-02-18 12h38.36.322744 +0100,
tilted.xlsx,The target is tilted.,117,5,5,0,0,1,1,1,0,0,0,0,0,0,0,0,1,3,4,117,space,4.413873700000295,None,1,0,0.9732756999992489,None,space,3.4925043000002916,None,0,0,0,0,,,,,0,5,5,6,80.98156070000005,,,,,,,,,,,,,,,,,,,,,80.9659173,80.98156070000005,81.46495649999997,81.47036560000015,81.48629160000019,82.46475450000071,,,,,82.46491320000041,82.48050880000028,82.68106270000044,82.66476130000046,81.48629160000019,,,,,,,,1,0,0.9732756999992489,None,,,,,,,,847,20,M,R,2026-02-18_12h38.36.085,VisualSearch_2526_3,,2025.2.4,2026-02-18 12h38.36.322744 +0100,
tilted.xlsx,The target is tilted.,117,6,6,0,0,1,1,1,1,1,1,1,0,0,0,0,1,7,8,117,space,4.413873700000295,None,0,1,2.7667579999997542,None,space,3.4925043000002916,None,0,0,0,0,,,,,0,6,6,5,82.68106270000044,,,,,,,,,,,,,,,,,,,,,82.6656780000003,82.68106270000044,83.16431850000026,83.1675679,83.18107680000048,85.96398370000043,,,,,85.96422200000052,85.97929920000024,86.17962500000067,86.16352610000013,83.18107680000048,,,,,,,,0,1,2.7667579999997542,None,,,,,,,,847,20,M,R,2026-02-18_12h38.36.085,VisualSearch_2526_3,,2025.2.4,2026-02-18 12h38.36.322744 +0100,
tilted.xlsx,The target is tilted.,117,7,7,0,1,0,0,0,0,0,0,0,0,0,0,0,0,0,1,117,space,4.413873700000295,None,0,0,1.8650850999993054,None,space,3.4925043000002916,None,0,0,0,0,,,,,0,7,7,3,86.17962500000067,,,,,,,,,,,,,,,,,,,,,86.1644752000002,86.17962500000067,86.66371609999987,86.66920860000027,86.68496289999985,88.56318240000019,,,,,88.56337919999987,88.57846849999987,88.77903900000001,88.76294850000068,86.68496289999985,,,,,,,,0,0,1.8650850999993054,None,,,,,,,,847,20,M,R,2026-02-18_12h38.36.085,VisualSearch_2526_3,,2025.2.4,2026-02-18 12h38.36.322744 +0100,
tilted.xlsx,The target is tilted.,117,8,0,1,0,1,1,1,1,1,1,1,0,0,0,0,1,7,8,117,space,4.413873700000295,None,0,1,1.808691600000202,None,space,3.4925043000002916,None,0,0,0,0,,,,,1,0,8,5,88.77903900000001,,,,,,,,,,,,,,,,,,,,,88.76376230000005,88.77903900000001,89.26229169999988,89.26488640000025,89.27872939999997,91.0959268000006,,,,,91.09610870000051,91.1109993,91.31156770000052,91.2955133000005,89.27872939999997,,,,,,,,0,1,1.808691600000202,None,,,,,,,,847,20,M,R,2026-02-18_12h38.36.085,VisualSearch_2526_3,,2025.2.4,2026-02-18 12h38.36.322744 +0100,
tilted.xlsx,The target is tilted.,117,9,1,1,1,1,1,1,1,1,1,1,0,0,0,0,0,7,8,117,space,4.413873700000295,None,1,1,2.314197499999864,None,space,3.4925043000002916,None,0,0,0,0,,,,,1,1,9,1,91.31156770000052,,,,,,,,,,,,,,,,,,,,,91.29633999999987,91.31156770000052,91.79497300000003,91.8004363,91.81622630000038,94.14354559999992,,,,,94.14368009999998,94.16037930000039,,94.34414280000055,91.81622630000038,,,,,,,,1,1,2.314197499999864,None,,,,,,,,847,20,M,R,2026-02-18_12h38.36.085,VisualSearch_2526_3,,2025.2.4,2026-02-18 12h38.36.322744 +0100,
tilted.xlsx,The target is tilted.,117,10,2,1,0,1,1,1,1,1,1,1,1,1,1,1,1,11,12,117,space,4.413873700000295,None,1,0,1.4440287999996144,None,space,3.4925043000002916,None,0,0,0,0,,,,,1,2,10,4,94.36039729999993,,,,,,,,,,,,,,,,,,,,,94.3450128000004,94.36039729999993,94.84388730000046,94.84931880000022,94.86520770000061,96.3108001999999,,,,,96.3110583000007,96.32621700000072,96.52647070000057,96.5106566000004,94.86520770000061,,,,,,,,1,0,1.4440287999996144,None,,,,,,,,847,20,M,R,2026-02-18_12h38.36.085,VisualSearch_2526_3,,2025.2.4,2026-02-18 12h38.36.322744 +0100,
tilted.xlsx,The target is tilted.,117,11,3,1,0,0,0,0,0,0,0,0,0,0,0,0,1,1,1,117,space,4.413873700000295,None,1,0,0.8632747999999992,None,space,3.4925043000002916,None,0,0,0,0,,,,,1,3,11,7,96.52647070000057,,,,,,,,,,,,,,,,,,,,,96.511485,96.52647070000057,97.00989710000067,97.01543730000049,97.03161720000026,97.90987050000058,,,,,97.9100797000001,97.9254131000007,98.12590790000013,98.1099477000007,97.03161720000026,,,,,,,,1,0,0.8632747999999992,None,,,,,,,,847,20,M,R,2026-02-18_12h38.36.085,VisualSearch_2526_3,,2025.2.4,2026-02-18 12h38.36.322744 +0100,
tilted.xlsx,The target is tilted.,117,12,4,1,1,0,0,0,0,0,0,0,0,0,0,0,0,0,1,117,space,4.413873700000295,None,0,0,0.997088299999632,None,space,3.4925043000002916,None,0,0,0,0,,,,,1,4,12,3,98.12590790000013,,,,,,,,,,,,,,,,,,,,,98.11078580000049,98.12590790000013,98.60975250000047,98.61528429999998,98.63090840000041,99.64278509999986,,,,,99.64300520000052,99.65814620000037,99.85866540000006,99.84268890000021,98.63090840000041,,,,,,,,0,0,0.997088299999632,None,,,,,,,,847,20,M,R,2026-02-18_12h38.36.085,VisualSearch_2526_3,,2025.2.4,2026-02-18 12h38.36.322744 +0100,
tilted.xlsx,The target is tilted.,117,13,5,1,1,1,1,1,1,1,1,1,1,1,1,1,0,11,12,117,space,4.413873700000295,None,0,0,2.4764331999995193,None,space,3.4925043000002916,None,0,0,0,0,,,,,1,5,13,0,99.85866540000006,,,,,,,,,,,,,,,,,,,,,99.84350040000027,99.85866540000006,100.34250760000032,100.34780170000067,100.36604620000071,102.85822869999993,,,,,102.85843690000002,102.87376210000002,103.07405150000068,103.05826310000066,100.36604620000071,,,,,,,,0,0,2.4764331999995193,None,,,,,,,,847,20,M,R,2026-02-18_12h38.36.085,VisualSearch_2526_3,,2025.2.4,2026-02-18 12h38.36.322744 +0100,
tilted.xlsx,The target is tilted.,117,14,6,1,1,1,1,1,0,0,0,0,0,0,0,0,0,3,4,117,space,4.413873700000295,None,0,0,1.0839022999998633,None,space,3.4925043000002916,None,0,0,0,0,,,,,1,6,14,2,103.07405150000068,,,,,,,,,,,,,,,,,,,,,103.05905090000033,103.07405150000068,103.55792620000011,103.56348310000067,103.5801164000004,104.67476260000058,,,,,104.67496280000069,104.68985340000017,104.8903749000001,104.87426830000004,103.5801164000004,,,,,,,,0,0,1.0839022999998633,None,,,,,,,,847,20,M,R,2026-02-18_12h38.36.085,VisualSearch_2526_3,,2025.2.4,2026-02-18 12h38.36.322744 +0100,
tilted.xlsx,The target is tilted.,117,15,7,1,0,1,1,1,0,0,0,0,0,0,0,0,1,3,4,117,space,4.413873700000295,None,0,1,0.990475399999923,None,space,3.4925043000002916,None,0,0,0,0,,,,,1,7,15,6,104.8903749000001,,,,,,,,,,,,,,,,,,,,,104.87508849999995,104.8903749000001,105.37399749999986,105.37941010000031,105.39552240000012,106.39062939999985,,,,,106.39083660000051,106.40596730000016,106.60604839999996,106.59058200000072,105.39552240000012,,,,,,,,0,1,0.990475399999923,None,,,,,,,,847,20,M,R,2026-02-18_12h38.36.085,VisualSearch_2526_3,,2025.2.4,2026-02-18 12h38.36.322744 +0100,
tilted.xlsx,The target is tilted.,117,16,0,2,1,1,1,1,1,1,1,1,0,0,0,0,0,7,8,117,space,4.413873700000295,None,1,1,1.1544324999995297,None,space,3.4925043000002916,None,0,0,0,0,,,,,2,0,16,1,106.60604839999996,,,,,,,,,,,,,,,,,,,,,106.59141340000042,106.60604839999996,107.09031310000046,107.0957425000006,107.11184680000042,108.2729530000006,,,,,108.2731334,108.28869960000065,108.4892475000006,108.4731311000005,107.11184680000042,,,,,,,,1,1,1.1544324999995297,None,,,,,,,,847,20,M,R,2026-02-18_12h38.36.085,VisualSearch_2526_3,,2025.2.4,2026-02-18 12h38.36.322744 +0100,
tilted.xlsx,The target is tilted.,117,17,1,2,0,1,1,1,1,1,1,1,1,1,1,1,1,11,12,117,space,4.413873700000295,None,1,0,1.2704712000004292,None,space,3.4925043000002916,None,0,0,0,0,,,,,2,1,17,4,108.4892475000006,,,,,,,,,,,,,,,,,,,,,108.47394789999998,108.4892475000006,108.97248470000068,108.97488729999986,108.9888716000005,110.27296209999986,,,,,110.27315980000003,110.28811490000044,110.4884589000003,110.4722741000005,108.9888716000005,,,,,,,,1,0,1.2704712000004292,None,,,,,,,,847,20,M,R,2026-02-18_12h38.36.085,VisualSearch_2526_3,,2025.2.4,2026-02-18 12h38.36.322744 +0100,
tilted.xlsx,The target is tilted.,117,18,2,2,0,0,0,0,0,0,0,0,0,0,0,0,1,1,1,117,space,4.413873700000295,None,1,0,0.8056946999995489,None,space,3.4925043000002916,None,0,0,0,0,,,,,2,2,18,7,110.4884589000003,,,,,,,,,,,,,,,,,,,,,110.47313209999993,110.4884589000003,110.97239549999995,110.97776840000006,110.99238520000017,111.8057273000004,,,,,111.80594770000062,111.82082030000038,112.0209832999999,112.00491099999999,110.99238520000017,,,,,,,,1,0,0.8056946999995489,None,,,,,,,,847,20,M,R,2026-02-18_12h38.36.085,VisualSearch_2526_3,,2025.2.4,2026-02-18 12h38.36.322744 +0100,
tilted.xlsx,The target is tilted.,117,19,3,2,1,1,1,1,1,1,1,1,1,1,1,1,0,11,12,117,space,4.413873700000295,None,1,1,1.9645878999999695,None,space,3.4925043000002916,None,0,0,0,0,,,,,2,3,19,0,112.0209832999999,,,,,,,,,,,,,,,,,,,,,112.00572569999986,112.0209832999999,112.50497480000013,112.51034320000053,112.5279588000003,114.50463130000026,,,,,114.5047940000004,114.52009100000032,114.72053880000021,114.70402950000062,112.5279588000003,,,,,,,,1,1,1.9645878999999695,None,,,,,,,,847,20,M,R,2026-02-18_12h38.36.085,VisualSearch_2526_3,,2025.2.4,2026-02-18 12h38.36.322744 +0100,
tilted.xlsx,The target is tilted.,117,20,4,2,1,0,0,0,0,0,0,0,0,0,0,0,0,0,1,117,space,4.413873700000295,None,0,0,0.9737546999995175,None,space,3.4925043000002916,None,0,0,0,0,,,,,2,4,20,3,114.72053880000021,,,,,,,,,,,,,,,,,,,,,114.70484829999987,114.72053880000021,115.20440400000007,115.20936470000015,115.2201414000001,116.20423300000039,,,,,116.20441230000051,116.21945980000055,116.41970880000008,116.40394449999985,115.2201414000001,,,,,,,,0,0,0.9737546999995175,None,,,,,,,,847,20,M,R,2026-02-18_12h38.36.085,VisualSearch_2526_3,,2025.2.4,2026-02-18 12h38.36.322744 +0100,
tilted.xlsx,The target is tilted.,117,21,5,2,1,1,1,1,0,0,0,0,0,0,0,0,0,3,4,117,space,4.413873700000295,None,0,0,2.0354341000002023,None,space,3.4925043000002916,None,0,0,0,0,,,,,2,5,21,2,116.41970880000008,,,,,,,,,,,,,,,,,,,,,116.40479200000027,116.41970880000008,116.90374410000004,116.90920640000058,116.92499250000037,118.97016560000066,,,,,118.9703042000001,118.98518140000033,119.18572850000055,119.16961270000047,116.92499250000037,,,,,,,,0,0,2.0354341000002023,None,,,,,,,,847,20,M,R,2026-02-18_12h38.36.085,VisualSearch_2526_3,,2025.2.4,2026-02-18 12h38.36.322744 +0100,
tilted.xlsx,The target is tilted.,117,22,6,2,0,1,1,1,1,1,1,1,0,0,0,0,1,7,8,117,space,4.413873700000295,None,1,0,1.9476019000003362,None,space,3.4925043000002916,None,0,0,0,0,,,,,2,6,22,5,119.18572850000055,,,,,,,,,,,,,,,,,,,,,119.17049060000045,119.18572850000055,119.66953720000038,119.6751506999999,119.69105870000021,121.65250150000065,,,,,121.65263289999984,121.66772800000035,121.86811600000055,121.85219790000065,119.69105870000021,,,,,,,,1,0,1.9476019000003362,None,,,,,,,,847,20,M,R,2026-02-18_12h38.36.085,VisualSearch_2526_3,,2025.2.4,2026-02-18 12h38.36.322744 +0100,
tilted.xlsx,The target is tilted.,117,23,7,2,0,1,1,1,0,0,0,0,0,0,0,0,1,3,4,117,space,4.413873700000295,None,0,1,1.0680004000005283,None,space,3.4925043000002916,None,0,0,0,0,,,,,2,7,23,6,121.86811600000055,,,,,,,,,,,,,,,,,,,,,121.85300009999992,121.86811600000055,122.35191470000063,122.35734550000052,122.37368530000003,123.45232040000064,,,,,123.45254790000035,123.46714500000053,123.66717659999995,123.65132470000026,122.37368530000003,,,,,,,,0,1,1.0680004000005283,None,,,,,,,,847,20,M,R,2026-02-18_12h38.36.085,VisualSearch_2526_3,,2025.2.4,2026-02-18 12h38.36.322744 +0100,
tilted.xlsx,The target is tilted.,117,24,0,3,1,0,0,0,0,0,0,0,0,0,0,0,0,0,1,117,space,4.413873700000295,None,0,0,0.9279998000001797,None,space,3.4925043000002916,None,0,0,0,0,,,,,3,0,24,3,123.66717659999995,,,,,,,,,,,,,,,,,,,,,123.65222420000009,123.66717659999995,124.15079260000039,124.1531943,124.16721640000014,125.10061570000016,,,,,125.10072240000045,125.11646019999989,125.31700580000052,125.30103910000071,124.16721640000014,,,,,,,,0,0,0.9279998000001797,None,,,,,,,,847,20,M,R,2026-02-18_12h38.36.085,VisualSearch_2526_3,,2025.2.4,2026-02-18 12h38.36.322744 +0100,
tilted.xlsx,The target is tilted.,117,25,1,3,0,1,1,1,1,1,1,1,0,0,0,0,1,7,8,117,space,4.413873700000295,None,1,0,1.1747774999994363,None,space,3.4925043000002916,None,0,0,0,0,,,,,3,1,25,5,125.31700580000052,,,,,,,,,,,,,,,,,,,,,125.30186409999988,125.31700580000052,125.80068730000039,125.80607760000021,125.82129650000024,127.00067470000067,,,,,127.00149409999995,127.01579120000042,127.21628680000049,127.20024900000044,125.82129650000024,,,,,,,,1,0,1.1747774999994363,None,,,,,,,,847,20,M,R,2026-02-18_12h38.36.085,VisualSearch_2526_3,,2025.2.4,2026-02-18 12h38.36.322744 +0100,
tilted.xlsx,The target is tilted.,117,26,2,3,1,1,1,1,0,0,0,0,0,0,0,0,0,3,4,117,space,4.413873700000295,None,0,0,0.8059854000002815,None,space,3.4925043000002916,None,0,0,0,0,,,,,3,2,26,2,127.21628680000049,,,,,,,,,,,,,,,,,,,,,127.20107820000067,127.21628680000049,127.70024250000006,127.70558620000065,127.72137079999993,128.5336051000004,,,,,128.53380460000062,128.54874550000022,128.7492409000006,128.7332116000007,127.72137079999993,,,,,,,,0,0,0.8059854000002815,None,,,,,,,,847,20,M,R,2026-02-18_12h38.36.085,VisualSearch_2526_3,,2025.2.4,2026-02-18 12h38.36.322744 +0100,
tilted.xlsx,The target is tilted.,117,27,3,3,0,1,1,1,1,1,1,1,1,1,1,1,1,11,12,117,space,4.413873700000295,None,1,0,1.282604199999696,None,space,3.4925043000002916,None,0,0,0,0,,,,,3,3,27,4,128.7492409000006,,,,,,,,,,,,,,,,,,,,,128.73405140000068,128.7492409000006,129.23304150000058,129.2384617000007,129.2548400000005,130.5498690000004,,,,,130.55012910000005,130.56486200000018,130.76517109999986,130.74916370000028,129.2548400000005,,,,,,,,1,0,1.282604199999696,None,,,,,,,,847,20,M,R,2026-02-18_12h38.36.085,VisualSearch_2526_3,,2025.2.4,2026-02-18 12h38.36.322744 +0100,
tilted.xlsx,The target is tilted.,117,28,4,3,1,1,1,1,1,1,1,1,0,0,0,0,0,7,8,117,space,4.413873700000295,None,1,1,2.037154300000111,None,space,3.4925043000002916,None,0,0,0,0,,,,,3,4,28,1,130.76517109999986,,,,,,,,,,,,,,,,,,,,,130.7501213000005,130.76517109999986,131.24907919999987,131.25461890000042,131.27033810000012,133.31538450000062,,,,,133.31560910000007,133.33056570000008,133.53098070000033,133.51456790000066,131.27033810000012,,,,,,,,1,1,2.037154300000111,None,,,,,,,,847,20,M,R,2026-02-18_12h38.36.085,VisualSearch_2526_3,,2025.2.4,2026-02-18 12h38.36.322744 +0100,
tilted.xlsx,The target is tilted.,117,29,5,3,0,1,1,1,0,0,0,0,0,0,0,0,1,3,4,117,space,4.413873700000295,None,0,1,0.9545688999996855,None,space,3.4925043000002916,None,0,0,0,0,,,,,3,5,29,6,133.53098070000033,,,,,,,,,,,,,,,,,,,,,133.5153923000007,133.53098070000033,134.0148151000003,134.0203833000005,134.0359767,134.99843109999983,,,,,134.99867410000024,135.01338230000056,135.2138326000004,135.1976136000003,134.0359767,,,,,,,,0,1,0.9545688999996855,None,,,,,,,,847,20,M,R,2026-02-18_12h38.36.085,VisualSearch_2526_3,,2025.2.4,2026-02-18 12h38.36.322744 +0100,
tilted.xlsx,The target is tilted.,117,30,6,3,0,0,0,0,0,0,0,0,0,0,0,0,1,1,1,117,space,4.413873700000295,None,1,0,1.2435820999999123,None,space,3.4925043000002916,None,0,0,0,0,,,,,3,6,30,7,135.2138326000004,,,,,,,,,,,,,,,,,,,,,135.19847600000048,135.2138326000004,135.69759260000046,135.70303270000022,135.71730460000072,136.96386669999993,,,,,136.9640173000007,136.97933280000052,137.17962840000018,137.16303890000017,135.71730460000072,,,,,,,,1,0,1.2435820999999123,None,,,,,,,,847,20,M,R,2026-02-18_12h38.36.085,VisualSearch_2526_3,,2025.2.4,2026-02-18 12h38.36.322744 +0100,
tilted.xlsx,The target is tilted.,117,31,7,3,1,1,1,1,1,1,1,1,1,1,1,1,0,11,12,117,space,4.413873700000295,None,1,1,2.7447765000006257,None,space,3.4925043000002916,None,0,0,0,0,,,,,3,7,31,0,137.17962840000018,,,,,,,,,,,,,,,,,,,,,137.16346950000025,137.17962840000018,137.66369699999996,137.6687365000007,137.67945090000012,140.4292886000003,,,,,140.42944110000008,140.44486600000073,140.64497130000018,140.6292567999999,137.67945090000012,,,,,,,,1,1,2.7447765000006257,None,,,,,,,,847,20,M,R,2026-02-18_12h38.36.085,VisualSearch_2526_3,,2025.2.4,2026-02-18 12h38.36.322744 +0100,
tilted.xlsx,The target is tilted.,117,32,0,4,1,0,0,0,0,0,0,0,0,0,0,0,0,0,1,117,space,4.413873700000295,None,0,0,0.7561570999996547,None,space,3.4925043000002916,None,0,0,0,0,,,,,4,0,32,3,140.64497130000018,,,,,,,,,,,,,,,,,,,,,140.6300793999999,140.64497130000018,141.12917730000026,141.13482639999984,141.15091550000034,141.9127554000006,,,,,141.91300460000002,141.92783210000016,142.12816010000006,142.11211989999993,141.15091550000034,,,,,,,,0,0,0.7561570999996547,None,,,,,,,,847,20,M,R,2026-02-18_12h38.36.085,VisualSearch_2526_3,,2025.2.4,2026-02-18 12h38.36.322744 +0100,
tilted.xlsx,The target is tilted.,117,33,1,4,1,1,1,1,1,1,1,1,1,1,1,1,0,11,12,117,space,4.413873700000295,None,1,1,1.714157399999749,None,space,3.4925043000002916,None,0,0,0,0,,,,,4,1,33,0,142.12816010000006,,,,,,,,,,,,,,,,,,,,,142.11304430000018,142.12816010000006,142.61202810000032,142.6173942000005,142.63150570000016,144.36082810000062,,,,,144.3609806000004,144.3768682,144.57727990000058,144.5607912000005,142.63150570000016,,,,,,,,1,1,1.714157399999749,None,,,,,,,,847,20,M,R,2026-02-18_12h38.36.085,VisualSearch_2526_3,,2025.2.4,2026-02-18 12h38.36.322744 +0100,
tilted.xlsx,The target is tilted.,117,34,2,4,0,1,1,1,1,1,1,1,0,0,0,0,1,7,8,117,space,4.413873700000295,None,1,0,1.3417276999998649,None,space,3.4925043000002916,None,0,0,0,0,,,,,4,2,34,5,144.57727990000058,,,,,,,,,,,,,,,,,,,,,144.56162850000055,144.57727990000058,145.06128720000015,145.06670880000001,145.08202510000046,146.42776980000053,,,,,146.4279970000007,146.44295150000016,146.64339440000003,146.62728049999987,145.08202510000046,,,,,,,,1,0,1.3417276999998649,None,,,,,,,,847,20,M,R,2026-02-18_12h38.36.085,VisualSearch_2526_3,,2025.2.4,2026-02-18 12h38.36.322744 +0100,
tilted.xlsx,The target is tilted.,117,35,3,4,1,1,1,1,0,0,0,0,0,0,0,0,0,3,4,117,space,4.413873700000295,None,0,0,1.2442821999993612,None,space,3.4925043000002916,None,0,0,0,0,,,,,4,3,35,2,146.64339440000003,,,,,,,,,,,,,,,,,,,,,146.62812209999993,146.64339440000003,147.12739180000062,147.13220309999997,147.14300989999992,148.393325,,,,,148.39346470000055,148.40863570000056,148.60904699999992,148.59334450000006,147.14300989999992,,,,,,,,0,0,1.2442821999993612,None,,,,,,,,847,20,M,R,2026-02-18_12h38.36.085,VisualSearch_2526_3,,2025.2.4,2026-02-18 12h38.36.322744 +0100,
tilted.xlsx,The target is tilted.,117,36,4,4,1,1,1,1,1,1,1,1,0,0,0,0,0,7,8,117,space,4.413873700000295,None,1,1,2.5373681999999462,None,space,3.4925043000002916,None,0,0,0,0,,,,,4,4,36,1,148.60904699999992,,,,,,,,,,,,,,,,,,,,,148.5942816000006,148.60904699999992,149.09328450000066,149.0986270000003,149.1143473000002,151.6586428999999,,,,,151.65872690000015,151.67426380000052,151.87491020000016,151.85886680000021,149.1143473000002,,,,,,,,1,1,2.5373681999999462,None,,,,,,,,847,20,M,R,2026-02-18_12h38.36.085,VisualSearch_2526_3,,2025.2.4,2026-02-18 12h38.36.322744 +0100,
tilted.xlsx,The target is tilted.,117,37,5,4,0,1,1,1,1,1,1,1,1,1,1,1,1,11,12,117,space,4.413873700000295,None,1,0,1.2479769999999917,None,space,3.4925043000002916,None,0,0,0,0,,,,,4,5,37,4,151.87491020000016,,,,,,,,,,,,,,,,,,,,,151.85968520000006,151.87491020000016,152.35878440000033,152.36423939999986,152.38102849999996,153.64159400000062,,,,,153.6417922999999,153.6571244000006,153.85767690000011,153.84177750000072,152.38102849999996,,,,,,,,1,0,1.2479769999999917,None,,,,,,,,847,20,M,R,2026-02-18_12h38.36.085,VisualSearch_2526_3,,2025.2.4,2026-02-18 12h38.36.322744 +0100,
tilted.xlsx,The target is tilted.,117,38,6,4,0,1,1,1,0,0,0,0,0,0,0,0,1,3,4,117,space,4.413873700000295,None,1,0,1.8784163000000262,None,space,3.4925043000002916,None,0,0,0,0,,,,,4,6,38,6,153.85767690000011,,,,,,,,,,,,,,,,,,,,,153.8426141,153.85767690000011,154.34139120000054,154.3468012000003,154.36104830000022,156.24144740000065,,,,,156.24179800000002,156.25644629999988,156.45678300000054,156.4407471000004,154.36104830000022,,,,,,,,1,0,1.8784163000000262,None,,,,,,,,847,20,M,R,2026-02-18_12h38.36.085,VisualSearch_2526_3,,2025.2.4,2026-02-18 12h38.36.322744 +0100,
tilted.xlsx,The target is tilted.,117,39,7,4,0,0,0,0,0,0,0,0,0,0,0,0,1,1,1,117,space,4.413873700000295,None,1,0,0.989477999999508,None,space,3.4925043000002916,None,0,0,0,0,,,,,4,7,39,7,156.45678300000054,,,,,,,,,,,,,,,,,,,,,156.44159050000053,156.45678300000054,156.94057870000051,156.9460506000005,156.96003420000034,157.95742710000013,,,,,157.9576809,157.9724455000005,158.17282010000054,158.15643590000036,156.96003420000034,,,,,,,,1,0,0.989477999999508,None,,,,,,,,847,20,M,R,2026-02-18_12h38.36.085,VisualSearch_2526_3,,2025.2.4,2026-02-18 12h38.36.322744 +0100,
tilted.xlsx,The target is tilted.,117,40,0,5,1,1,1,1,1,1,1,1,0,0,0,0,0,7,8,117,space,4.413873700000295,None,1,1,1.2931290999995326,None,space,3.4925043000002916,None,0,0,0,0,,,,,5,0,40,1,158.17282010000054,,,,,,,,,,,,,,,,,,,,,158.1569872,158.17282010000054,158.65665850000005,158.66207620000023,158.67563400000017,159.97274800000014,,,,,159.9729440000001,159.98844680000002,160.18897280000056,160.1728619000005,158.67563400000017,,,,,,,,1,1,1.2931290999995326,None,,,,,,,,847,20,M,R,2026-02-18_12h38.36.085,VisualSearch_2526_3,,2025.2.4,2026-02-18 12h38.36.322744 +0100,
tilted.xlsx,The target is tilted.,117,41,1,5,0,0,0,0,0,0,0,0,0,0,0,0,1,1,1,117,space,4.413873700000295,None,1,0,0.7760726999995313,None,space,3.4925043000002916,None,0,0,0,0,,,,,5,1,41,7,160.18897280000056,,,,,,,,,,,,,,,,,,,,,160.17366949999996,160.18897280000056,160.67277580000064,160.67821559999993,160.6919280000002,161.47213170000032,,,,,161.47228640000048,161.4879574000006,161.68827940000028,161.67219950000072,160.6919280000002,,,,,,,,1,0,0.7760726999995313,None,,,,,,,,847,20,M,R,2026-02-18_12h38.36.085,VisualSearch_2526_3,,2025.2.4,2026-02-18 12h38.36.322744 +0100,
tilted.xlsx,The target is tilted.,117,42,2,5,1,1,1,1,0,0,0,0,0,0,0,0,0,3,4,117,space,4.413873700000295,None,0,0,1.2364943000002313,None,space,3.4925043000002916,None,0,0,0,0,,,,,5,2,42,2,161.68827940000028,,,,,,,,,,,,,,,,,,,,,161.67316440000013,161.68827940000028,162.17201320000004,162.17691540000033,162.19469690000005,163.43872509999983,,,,,163.43890590000046,163.45404420000068,163.6543399000002,163.63847160000023,162.19469690000005,,,,,,,,0,0,1.2364943000002313,None,,,,,,,,847,20,M,R,2026-02-18_12h38.36.085,VisualSearch_2526_3,,2025.2.4,2026-02-18 12h38.36.322744 +0100,
tilted.xlsx,The target is tilted.,117,43,3,5,0,1,1,1,1,1,1,1,0,0,0,0,1,7,8,117,space,4.413873700000295,None,1,0,2.5812662999996974,None,space,3.4925043000002916,None,0,0,0,0,,,,,5,3,43,5,163.6543399000002,,,,,,,,,,,,,,,,,,,,,163.63928660000056,163.6543399000002,164.13831310000023,164.14371710000069,164.15880470000047,166.75343710000016,,,,,166.75358719999986,166.76951180000015,,166.95376170000054,164.15880470000047,,,,,,,,1,0,2.5812662999996974,None,,,,,,,,847,20,M,R,2026-02-18_12h38.36.085,VisualSearch_2526_3,,2025.2.4,2026-02-18 12h38.36.322744 +0100,
tilted.xlsx,The target is tilted.,117,44,4,5,1,1,1,1,1,1,1,1,1,1,1,1,0,11,12,117,space,4.413873700000295,None,1,1,1.1996149999995396,None,space,3.4925043000002916,None,0,0,0,0,,,,,5,4,44,0,166.9700511000001,,,,,,,,,,,,,,,,,,,,,166.95475500000066,166.9700511000001,167.4538665,167.45925420000003,167.47506669999984,168.68734490000043,,,,,168.68760530000054,168.70235779999985,168.90247799999997,168.88636210000004,167.47506669999984,,,,,,,,1,1,1.1996149999995396,None,,,,,,,,847,20,M,R,2026-02-18_12h38.36.085,VisualSearch_2526_3,,2025.2.4,2026-02-18 12h38.36.322744 +0100,
tilted.xlsx,The target is tilted.,117,45,5,5,0,1,1,1,1,1,1,1,1,1,1,1,1,11,12,117,space,4.413873700000295,None,1,0,4.562679900000148,None,space,3.4925043000002916,None,0,0,0,0,,,,,5,5,45,4,168.90247799999997,,,,,,,,,,,,,,,,,,,,,168.8872147000002,168.90247799999997,169.38654709999992,169.3920218000003,169.40724090000003,173.98518120000062,,,,,173.98540560000038,174.0005052000006,174.20089830000052,174.18472350000047,169.40724090000003,,,,,,,,1,0,4.562679900000148,None,,,,,,,,847,20,M,R,2026-02-18_12h38.36.085,VisualSearch_2526_3,,2025.2.4,2026-02-18 12h38.36.322744 +0100,
tilted.xlsx,The target is tilted.,117,46,6,5,1,0,0,0,0,0,0,0,0,0,0,0,0,0,1,117,space,4.413873700000295,None,0,0,1.019669399999657,None,space,3.4925043000002916,None,0,0,0,0,,,,,5,6,46,3,174.20089830000052,,,,,,,,,,,,,,,,,,,,,174.18569690000004,174.20089830000052,174.68488669999988,174.69033450000006,174.7059847999999,175.7344321999999,,,,,175.73457099999996,175.74994250000054,175.95051460000013,175.93422890000056,174.7059847999999,,,,,,,,0,0,1.019669399999657,None,,,,,,,,847,20,M,R,2026-02-18_12h38.36.085,VisualSearch_2526_3,,2025.2.4,2026-02-18 12h38.36.322744 +0100,
tilted.xlsx,The target is tilted.,117,47,7,5,0,1,1,1,0,0,0,0,0,0,0,0,1,3,4,117,space,4.413873700000295,None,0,1,1.8502364999994825,None,space,3.4925043000002916,None,0,0,0,0,,,,,5,7,47,6,175.95051460000013,,,,,,,,,,,,,,,,,,,,,175.93511209999997,175.95051460000013,176.43426309999995,176.43964920000053,176.4542934000001,178.3175553000001,,,,,178.3178179000006,178.33257159999994,178.5329730000003,178.5168179000002,176.4542934000001,,,,,,,,0,1,1.8502364999994825,None,,,,,,,,847,20,M,R,2026-02-18_12h38.36.085,VisualSearch_2526_3,,2025.2.4,2026-02-18 12h38.36.322744 +0100,
tilted.xlsx,The target is tilted.,117,48,0,6,0,1,1,1,1,1,1,1,1,1,1,1,1,11,12,117,space,4.413873700000295,None,1,0,3.3690590000005614,None,space,3.4925043000002916,None,0,0,0,0,,,,,6,0,48,4,178.5329730000003,,,,,,,,,,,,,,,,,,,,,178.51764040000035,178.5329730000003,179.01676570000018,179.0221277999999,179.03772560000016,182.4156251000004,,,,,182.41581589999987,182.4311897000007,182.63157520000004,182.6154277000005,179.03772560000016,,,,,,,,1,0,3.3690590000005614,None,,,,,,,,847,20,M,R,2026-02-18_12h38.36.085,VisualSearch_2526_3,,2025.2.4,2026-02-18 12h38.36.322744 +0100,
tilted.xlsx,The target is tilted.,117,49,1,6,0,1,1,1,1,1,1,1,0,0,0,0,1,7,8,117,space,4.413873700000295,None,1,0,2.0037050999999337,None,space,3.4925043000002916,None,0,0,0,0,,,,,6,1,49,5,182.63157520000004,,,,,,,,,,,,,,,,,,,,,182.61635269999988,182.63157520000004,183.11500930000057,183.1204219000001,183.13641330000064,185.1480744999999,,,,,185.14816990000054,185.16332340000008,185.36401090000072,185.34795699999995,183.13641330000064,,,,,,,,1,0,2.0037050999999337,None,,,,,,,,847,20,M,R,2026-02-18_12h38.36.085,VisualSearch_2526_3,,2025.2.4,2026-02-18 12h38.36.322744 +0100,
tilted.xlsx,The target is tilted.,117,50,2,6,0,1,1,1,0,0,0,0,0,0,0,0,1,3,4,117,space,4.413873700000295,None,1,0,2.476687100000163,None,space,3.4925043000002916,None,0,0,0,0,,,,,6,2,50,6,185.36401090000072,,,,,,,,,,,,,,,,,,,,,185.34877830000005,185.36401090000072,185.8477079000004,185.85321879999992,185.867432,188.34698190000017,,,,,188.34713460000057,188.3625075,188.56268210000053,188.5469460000004,185.867432,,,,,,,,1,0,2.476687100000163,None,,,,,,,,847,20,M,R,2026-02-18_12h38.36.085,VisualSearch_2526_3,,2025.2.4,2026-02-18 12h38.36.322744 +0100,
tilted.xlsx,The target is tilted.,117,51,3,6,0,0,0,0,0,0,0,0,0,0,0,0,1,1,1,117,space,4.413873700000295,None,1,0,0.8537767000007079,None,space,3.4925043000002916,None,0,0,0,0,,,,,6,3,51,7,188.56268210000053,,,,,,,,,,,,,,,,,,,,,188.54774980000002,188.56268210000053,189.04671270000017,189.0521816999999,189.06699019999996,189.93023950000043,,,,,189.93044370000007,189.9453323000007,190.14550599999984,190.1297543999999,189.06699019999996,,,,,,,,1,0,0.8537767000007079,None,,,,,,,,847,20,M,R,2026-02-18_12h38.36.085,VisualSearch_2526_3,,2025.2.4,2026-02-18 12h38.36.322744 +0100,
tilted.xlsx,The target is tilted.,117,52,4,6,1,0,0,0,0,0,0,0,0,0,0,0,0,0,1,117,space,4.413873700000295,None,0,0,0.7270608999997421,None,space,3.4925043000002916,None,0,0,0,0,,,,,6,4,52,3,190.14550599999984,,,,,,,,,,,,,,,,,,,,,190.13061150000067,190.14550599999984,190.62918790000003,190.63462140000047,190.64806339999996,191.37898980000045,,,,,191.37913879999996,191.39481370000067,191.59503829999994,191.5787936000006,190.64806339999996,,,,,,,,0,0,0.7270608999997421,None,,,,,,,,847,20,M,R,2026-02-18_12h38.36.085,VisualSearch_2526_3,,2025.2.4,2026-02-18 12h38.36.322744 +0100,
tilted.xlsx,The target is tilted.,117,53,5,6,1,1,1,1,0,0,0,0,0,0,0,0,0,3,4,117,space,4.413873700000295,None,0,0,2.2983045999999376,None,space,3.4925043000002916,None,0,0,0,0,,,,,6,5,53,2,191.59503829999994,,,,,,,,,,,,,,,,,,,,,191.57961740000064,191.59503829999994,192.07912170000054,192.08450410000023,192.10166010000012,194.41144359999998,,,,,194.4116057000001,194.42717670000002,194.62773819999984,194.61167530000057,192.10166010000012,,,,,,,,0,0,2.2983045999999376,None,,,,,,,,847,20,M,R,2026-02-18_12h38.36.085,VisualSearch_2526_3,,2025.2.4,2026-02-18 12h38.36.322744 +0100,
tilted.xlsx,The target is tilted.,117,54,6,6,1,1,1,1,1,1,1,1,0,0,0,0,0,7,8,117,space,4.413873700000295,None,0,0,3.429810599999655,None,space,3.4925043000002916,None,0,0,0,0,,,,,6,6,54,1,194.62773819999984,,,,,,,,,,,,,,,,,,,,,194.61259060000066,194.62773819999984,195.11145250000027,195.11692180000045,195.1310968000007,198.5763020000004,,,,,198.5764235000006,198.59291780000058,198.79295850000017,198.7767668000006,195.1310968000007,,,,,,,,0,0,3.429810599999655,None,,,,,,,,847,20,M,R,2026-02-18_12h38.36.085,VisualSearch_2526_3,,2025.2.4,2026-02-18 12h38.36.322744 +0100,
tilted.xlsx,The target is tilted.,117,55,7,6,1,1,1,1,1,1,1,1,1,1,1,1,0,11,12,117,space,4.413873700000295,None,0,0,2.995267799999965,None,space,3.4925043000002916,None,0,0,0,0,,,,,6,7,55,0,198.79295850000017,,,,,,,,,,,,,,,,,,,,,198.77764860000025,198.79295850000017,199.27636090000033,199.2823930000004,199.2971352000004,202.30827200000022,,,,,202.3084342000002,202.32485260000067,,202.50868189999983,199.2971352000004,,,,,,,,0,0,2.995267799999965,None,,,,,,,,847,20,M,R,2026-02-18_12h38.36.085,VisualSearch_2526_3,,2025.2.4,2026-02-18 12h38.36.322744 +0100,
tilted.xlsx,The target is tilted.,117,56,0,7,0,1,1,1,1,1,1,1,0,0,0,0,1,7,8,117,space,4.413873700000295,None,1,0,1.814919800000098,None,space,3.4925043000002916,None,0,0,0,0,,,,,7,0,56,5,202.5249057000001,,,,,,,,,,,,,,,,,,,,,202.50952330000018,202.5249057000001,203.0086110000002,203.01424529999986,203.02734659999987,204.85832149999987,,,,,204.8585434000006,204.87379640000017,205.07407750000039,205.0581673000006,,,,,,,,,1,0,1.814919800000098,None,,,,,,,,847,20,M,R,2026-02-18_12h38.36.085,VisualSearch_2526_3,,2025.2.4,2026-02-18 12h38.36.322744 +0100,
tilted.xlsx,The target is tilted.,117,57,1,7,0,1,1,1,1,1,1,1,1,1,1,1,1,11,12,117,space,4.413873700000295,None,1,0,1.3891893999998501,None,space,3.4925043000002916,None,0,0,0,0,,,,,7,1,57,4,205.07407750000039,,,,,,,,,,,,,,,,,,,,,205.05906070000037,205.07407750000039,205.55810290000045,205.56363730000066,205.5797689000001,206.97370450000017,,,,,206.9738186000004,206.9896789000004,207.19009770000048,207.17372729999988,205.5797689000001,,,,,,,,1,0,1.3891893999998501,None,,,,,,,,847,20,M,R,2026-02-18_12h38.36.085,VisualSearch_2526_3,,2025.2.4,2026-02-18 12h38.36.322744 +0100,
tilted.xlsx,The target is tilted.,117,58,2,7,1,0,0,0,0,0,0,0,0,0,0,0,0,0,1,117,space,4.413873700000295,None,0,0,0.8814966999998433,None,space,3.4925043000002916,None,0,0,0,0,,,,,7,2,58,3,207.19009770000048,,,,,,,,,,,,,,,,,,,,,207.17431470000065,207.19009770000048,207.67407570000069,207.6794761000001,207.6961265,208.59097939999992,,,,,208.59133930000007,208.6058851000007,208.8063305000005,208.79030570000032,207.6961265,,,,,,,,0,0,0.8814966999998433,None,,,,,,,,847,20,M,R,2026-02-18_12h38.36.085,VisualSearch_2526_3,,2025.2.4,2026-02-18 12h38.36.322744 +0100,
tilted.xlsx,The target is tilted.,117,59,3,7,1,1,1,1,1,1,1,1,1,1,1,1,0,11,12,117,space,4.413873700000295,None,1,1,2.838630700000067,None,space,3.4925043000002916,None,0,0,0,0,,,,,7,3,59,0,208.8063305000005,,,,,,,,,,,,,,,,,,,,,208.7911027,208.8063305000005,209.29017449999992,209.29554030000054,209.31161210000027,212.1563584000005,,,,,212.15660790000038,212.17122270000073,212.37187520000043,212.35557860000063,209.31161210000027,,,,,,,,1,1,2.838630700000067,None,,,,,,,,847,20,M,R,2026-02-18_12h38.36.085,VisualSearch_2526_3,,2025.2.4,2026-02-18 12h38.36.322744 +0100,
tilted.xlsx,The target is tilted.,117,60,4,7,0,1,1,1,0,0,0,0,0,0,0,0,1,3,4,117,space,4.413873700000295,None,0,1,1.6942174000005252,None,space,3.4925043000002916,None,0,0,0,0,,,,,7,4,60,6,212.37187520000043,,,,,,,,,,,,,,,,,,,,,212.3564264000006,212.37187520000043,212.85563410000032,212.86111380000057,212.87556589999986,214.57226710000032,,,,,214.57251189999988,214.58737420000034,214.78728600000068,214.77130190000025,212.87556589999986,,,,,,,,0,1,1.6942174000005252,None,,,,,,,,847,20,M,R,2026-02-18_12h38.36.085,VisualSearch_2526_3,,2025.2.4,2026-02-18 12h38.36.322744 +0100,
tilted.xlsx,The target is tilted.,117,61,5,7,0,0,0,0,0,0,0,0,0,0,0,0,1,1,1,117,space,4.413873700000295,None,1,0,1.2597531000001254,None,space,3.4925043000002916,None,0,0,0,0,,,,,7,5,61,7,214.78728600000068,,,,,,,,,,,,,,,,,,,,,214.7721220000003,214.78728600000068,215.27153910000015,215.27694640000027,215.29102750000038,216.55466640000031,,,,,216.55488530000002,216.56999129999986,216.7704001000002,216.7543871000007,215.29102750000038,,,,,,,,1,0,1.2597531000001254,None,,,,,,,,847,20,M,R,2026-02-18_12h38.36.085,VisualSearch_2526_3,,2025.2.4,2026-02-18 12h38.36.322744 +0100,
tilted.xlsx,The target is tilted.,117,62,6,7,1,1,1,1,1,1,1,1,0,0,0,0,0,7,8,117,space,4.413873700000295,None,0,0,3.9600456999996823,None,space,3.4925043000002916,None,0,0,0,0,,,,,7,6,62,1,216.7704001000002,,,,,,,,,,,,,,,,,,,,,216.75520099999994,216.7704001000002,217.25412910000068,217.25952980000056,217.27608810000038,221.25320230000034,,,,,221.25335050000012,221.26839139999993,221.46865190000062,221.45284619999984,217.27608810000038,,,,,,,,0,0,3.9600456999996823,None,,,,,,,,847,20,M,R,2026-02-18_12h38.36.085,VisualSearch_2526_3,,2025.2.4,2026-02-18 12h38.36.322744 +0100,
tilted.xlsx,The target is tilted.,117,63,7,7,1,1,1,1,0,0,0,0,0,0,0,0,0,3,4,117,space,4.413873700000295,None,0,0,0.7772332000004099,None,space,3.4925043000002916,None,0,0,0,0,,,,,7,7,63,2,221.46865190000062,,,,,,,,,,,,,,,,,,,,,221.45366420000028,221.46865190000062,221.95270690000052,221.95814530000007,221.9751928000005,222.7691779000006,,,,,222.76939760000005,222.784627,222.98469900000055,222.96891140000025,221.9751928000005,,,,,,,,0,0,0.7772332000004099,None,,,,,,,,847,20,M,R,2026-02-18_12h38.36.085,VisualSearch_2526_3,,2025.2.4,2026-02-18 12h38.36.322744 +0100,
tilted.xlsx,The target is tilted.,117,64,0,8,0,1,1,1,1,1,1,1,1,1,1,1,1,11,12,117,space,4.413873700000295,None,1,0,1.0791871000001265,None,space,3.4925043000002916,None,0,0,0,0,,,,,8,0,64,4,222.98469900000055,,,,,,,,,,,,,,,,,,,,,222.96975810000004,222.98469900000055,223.4688673999999,223.47436000000016,223.48798690000058,224.56911020000007,,,,,224.56937610000023,224.58405649999986,224.78428950000034,224.76835000000028,223.48798690000058,,,,,,,,1,0,1.0791871000001265,None,,,,,,,,847,20,M,R,2026-02-18_12h38.36.085,VisualSearch_2526_3,,2025.2.4,2026-02-18 12h38.36.322744 +0100,
tilted.xlsx,The target is tilted.,117,65,1,8,0,1,1,1,1,1,1,1,0,0,0,0,1,7,8,117,space,4.413873700000295,None,1,0,2.029360600000473,None,space,3.4925043000002916,None,0,0,0,0,,,,,8,1,65,5,224.78428950000034,,,,,,,,,,,,,,,,,,,,,224.76916950000032,224.78428950000034,225.26812580000023,225.27358710000044,225.2873042000001,227.3181112000002,,,,,227.31835440000032,227.33315010000024,227.53360239999984,227.51733240000067,225.2873042000001,,,,,,,,1,0,2.029360600000473,None,,,,,,,,847,20,M,R,2026-02-18_12h38.36.085,VisualSearch_2526_3,,2025.2.4,2026-02-18 12h38.36.322744 +0100,
tilted.xlsx,The target is tilted.,117,66,2,8,1,1,1,1,0,0,0,0,0,0,0,0,0,3,4,117,space,4.413873700000295,None,0,0,0.9707534999997733,None,space,3.4925043000002916,None,0,0,0,0,,,,,8,2,66,2,227.53360239999984,,,,,,,,,,,,,,,,,,,,,227.51824600000054,227.53360239999984,228.01729630000045,228.02273839999998,228.0377294,229.0168162,,,,,229.0169547000005,229.0324596999999,229.23284860000058,229.21676990000014,228.0377294,,,,,,,,0,0,0.9707534999997733,None,,,,,,,,847,20,M,R,2026-02-18_12h38.36.085,VisualSearch_2526_3,,2025.2.4,2026-02-18 12h38.36.322744 +0100,
tilted.xlsx,The target is tilted.,117,67,3,8,1,1,1,1,1,1,1,1,1,1,1,1,0,11,12,117,space,4.413873700000295,None,0,0,2.073042400000304,None,space,3.4925043000002916,None,0,0,0,0,,,,,8,3,67,0,229.23284860000058,,,,,,,,,,,,,,,,,,,,,229.21762200000012,229.23284860000058,229.71687030000066,229.7222980000006,229.7362935000001,231.81613340000058,,,,,231.81628170000022,231.83164880000004,232.03216630000043,232.0160132000001,229.7362935000001,,,,,,,,0,0,2.073042400000304,None,,,,,,,,847,20,M,R,2026-02-18_12h38.36.085,VisualSearch_2526_3,,2025.2.4,2026-02-18 12h38.36.322744 +0100,
tilted.xlsx,The target is tilted.,117,68,4,8,1,1,1,1,1,1,1,1,0,0,0,0,0,7,8,117,space,4.413873700000295,None,1,1,0.9345284999999421,None,space,3.4925043000002916,None,0,0,0,0,,,,,8,4,68,1,232.03216630000043,,,,,,,,,,,,,,,,,,,,,232.01682470000014,232.03216630000043,232.51542240000072,232.51987350000036,232.53188730000056,233.4819311000001,,,,,233.48213889999988,233.49779970000054,233.6982052000003,233.68223820000003,232.53188730000056,,,,,,,,1,1,0.9345284999999421,None,,,,,,,,847,20,M,R,2026-02-18_12h38.36.085,VisualSearch_2526_3,,2025.2.4,2026-02-18 12h38.36.322744 +0100,
tilted.xlsx,The target is tilted.,117,69,5,8,0,0,0,0,0,0,0,0,0,0,0,0,1,1,1,117,space,4.413873700000295,None,1,0,0.8768967999994857,None,space,3.4925043000002916,None,0,0,0,0,,,,,8,5,69,7,233.6982052000003,,,,,,,,,,,,,,,,,,,,,233.68308960000013,233.6982052000003,234.18191019999995,234.18688569999995,234.1978852000002,235.0824480000001,,,,,235.0826657000007,235.09725549999985,235.2977064000006,235.28163089999998,234.1978852000002,,,,,,,,1,0,0.8768967999994857,None,,,,,,,,847,20,M,R,2026-02-18_12h38.36.085,VisualSearch_2526_3,,2025.2.4,2026-02-18 12h38.36.322744 +0100,
tilted.xlsx,The target is tilted.,117,70,6,8,0,1,1,1,0,0,0,0,0,0,0,0,1,3,4,117,space,4.413873700000295,None,1,0,1.3972905000000537,None,space,3.4925043000002916,None,0,0,0,0,,,,,8,6,70,6,235.2977064000006,,,,,,,,,,,,,,,,,,,,,235.28245479999987,235.2977064000006,235.78142070000013,235.78671600000052,235.80333419999988,237.21433330000036,,,,,237.2144599000003,237.22971420000067,237.43031840000003,237.41416320000008,235.80333419999988,,,,,,,,1,0,1.3972905000000537,None,,,,,,,,847,20,M,R,2026-02-18_12h38.36.085,VisualSearch_2526_3,,2025.2.4,2026-02-18 12h38.36.322744 +0100,
tilted.xlsx,The target is tilted.,117,71,7,8,1,0,0,0,0,0,0,0,0,0,0,0,0,0,1,117,space,4.413873700000295,None,0,0,0.8211369999999079,None,space,3.4925043000002916,None,0,0,0,0,,,,,8,7,71,3,237.43031840000003,,,,,,,,,,,,,,,,,,,,,237.41499440000007,237.43031840000003,237.91406619999998,237.9193482999999,237.93579649999992,238.76360680000016,,,,,238.76373839999997,238.7792631000002,238.9797521999999,238.9634141000006,237.93579649999992,,,,,,,,0,0,0.8211369999999079,None,,,,,,,,847,20,M,R,2026-02-18_12h38.36.085,VisualSearch_2526_3,,2025.2.4,2026-02-18 12h38.36.322744 +0100,
tilted.xlsx,The target is tilted.,117,72,0,9,0,1,1,1,1,1,1,1,0,0,0,0,1,7,8,117,space,4.413873700000295,None,0,1,2.464204200000495,None,space,3.4925043000002916,None,0,0,0,0,,,,,9,0,72,5,238.9797521999999,,,,,,,,,,,,,,,,,,,,,238.9642416000006,238.9797521999999,239.46363250000013,239.46891080000023,239.48500570000033,241.96259290000035,,,,,241.96281950000048,241.97833940000055,242.17879470000025,242.16274390000035,239.48500570000033,,,,,,,,0,1,2.464204200000495,None,,,,,,,,847,20,M,R,2026-02-18_12h38.36.085,VisualSearch_2526_3,,2025.2.4,2026-02-18 12h38.36.322744 +0100,
tilted.xlsx,The target is tilted.,117,73,1,9,1,1,1,1,1,1,1,1,1,1,1,1,0,11,12,117,space,4.413873700000295,None,1,1,4.032099900000503,None,space,3.4925043000002916,None,0,0,0,0,,,,,9,1,73,0,242.17879470000025,,,,,,,,,,,,,,,,,,,,,242.1636449000007,242.17879470000025,242.66222470000048,242.66758149999987,242.68184500000007,246.7274320000006,,,,,246.72757750000073,246.74337950000063,246.94401720000042,246.92781970000033,242.68184500000007,,,,,,,,1,1,4.032099900000503,None,,,,,,,,847,20,M,R,2026-02-18_12h38.36.085,VisualSearch_2526_3,,2025.2.4,2026-02-18 12h38.36.322744 +0100,
tilted.xlsx,The target is tilted.,117,74,2,9,1,1,1,1,1,1,1,1,0,0,0,0,0,7,8,117,space,4.413873700000295,None,1,1,0.935569399999622,None,space,3.4925043000002916,None,0,0,0,0,,,,,9,2,74,1,246.94401720000042,,,,,,,,,,,,,,,,,,,,,246.92863149999994,246.94401720000042,247.4276608,247.43309210000007,247.44710190000023,248.39379410000038,,,,,248.39393070000006,248.40937639999993,248.60996280000018,248.59387490000063,247.44710190000023,,,,,,,,1,1,0.935569399999622,None,,,,,,,,847,20,M,R,2026-02-18_12h38.36.085,VisualSearch_2526_3,,2025.2.4,2026-02-18 12h38.36.322744 +0100,
tilted.xlsx,The target is tilted.,117,75,3,9,0,1,1,1,0,0,0,0,0,0,0,0,1,3,4,117,space,4.413873700000295,None,1,0,1.1889095999995334,None,space,3.4925043000002916,None,0,0,0,0,,,,,9,3,75,6,248.60996280000018,,,,,,,,,,,,,,,,,,,,,248.59467600000062,248.60996280000018,249.09385810000003,249.09916000000067,249.11566990000028,250.3105856000002,,,,,250.31080980000024,250.3255933999999,250.52575119999983,250.51007480000044,249.11566990000028,,,,,,,,1,0,1.1889095999995334,None,,,,,,,,847,20,M,R,2026-02-18_12h38.36.085,VisualSearch_2526_3,,2025.2.4,2026-02-18 12h38.36.322744 +0100,
tilted.xlsx,The target is tilted.,117,76,4,9,0,1,1,1,1,1,1,1,1,1,1,1,1,11,12,117,space,4.413873700000295,None,1,0,1.2650987000006353,None,space,3.4925043000002916,None,0,0,0,0,,,,,9,4,76,4,250.52575119999983,,,,,,,,,,,,,,,,,,,,,250.51092419999986,250.52575119999983,251.00979700000062,251.0152181000003,251.0309481000004,252.3096688000005,,,,,252.30988660000003,252.32488550000016,252.5252190000001,252.5093526999999,251.0309481000004,,,,,,,,1,0,1.2650987000006353,None,,,,,,,,847,20,M,R,2026-02-18_12h38.36.085,VisualSearch_2526_3,,2025.2.4,2026-02-18 12h38.36.322744 +0100,
tilted.xlsx,The target is tilted.,117,77,5,9,0,0,0,0,0,0,0,0,0,0,0,0,1,1,1,117,space,4.413873700000295,None,1,0,0.651331900000514,None,space,3.4925043000002916,None,0,0,0,0,,,,,9,5,77,7,252.5252190000001,,,,,,,,,,,,,,,,,,,,,252.5101783,252.5252190000001,253.00923440000042,253.01458830000047,253.02755230000002,253.6923869000002,,,,,253.69260320000012,253.70771800000057,253.90829630000007,253.89222419999987,253.02755230000002,,,,,,,,1,0,0.651331900000514,None,,,,,,,,847,20,M,R,2026-02-18_12h38.36.085,VisualSearch_2526_3,,2025.2.4,2026-02-18 12h38.36.322744 +0100,
tilted.xlsx,The target is tilted.,117,78,6,9,1,1,1,1,0,0,0,0,0,0,0,0,0,3,4,117,space,4.413873700000295,None,0,0,1.230802500000209,None,space,3.4925043000002916,None,0,0,0,0,,,,,9,6,78,2,253.90829630000007,,,,,,,,,,,,,,,,,,,,,253.89313760000005,253.90829630000007,254.39205270000002,254.39732970000023,254.41129679999995,255.65748350000013,,,,,255.65758319999986,255.67396800000006,255.8741417000001,255.8578465999999,254.41129679999995,,,,,,,,0,0,1.230802500000209,None,,,,,,,,847,20,M,R,2026-02-18_12h38.36.085,VisualSearch_2526_3,,2025.2.4,2026-02-18 12h38.36.322744 +0100,
tilted.xlsx,The target is tilted.,117,79,7,9,1,0,0,0,0,0,0,0,0,0,0,0,0,0,1,117,space,4.413873700000295,None,0,0,0.8977810000005775,None,space,3.4925043000002916,None,0,0,0,0,,,,,9,7,79,3,255.8741417000001,,,,,,,,,,,,,,,,,,,,,255.8586688000005,255.8741417000001,256.35779100000036,256.36337170000024,256.3801856,257.2913417999998,,,,,257.29151660000025,257.3066469000005,257.5070237,257.4910096000003,,,,,,,,,0,0,0.8977810000005775,None,,,,,,,,847,20,M,R,2026-02-18_12h38.36.085,VisualSearch_2526_3,,2025.2.4,2026-02-18 12h38.36.322744 +0100,
tilted.xlsx,The target is tilted.,117,80,0,10,1,0,0,0,0,0,0,0,0,0,0,0,0,0,1,117,space,4.413873700000295,None,0,0,0.9288070000002335,None,space,3.4925043000002916,None,0,0,0,0,,,,,10,0,80,3,257.5070237,,,,,,,,,,,,,,,,,,,,,257.49183600000015,257.5070237,257.9908438000002,257.99619020000046,258.01123860000007,258.9571011000007,,,,,258.95729220000067,258.9727079000004,259.1728212000007,259.15676390000044,258.01123860000007,,,,,,,,0,0,0.9288070000002335,None,,,,,,,,847,20,M,R,2026-02-18_12h38.36.085,VisualSearch_2526_3,,2025.2.4,2026-02-18 12h38.36.322744 +0100,
tilted.xlsx,The target is tilted.,117,81,1,10,0,1,1,1,1,1,1,1,0,0,0,0,1,7,8,117,space,4.413873700000295,None,1,0,1.3735931000001074,None,space,3.4925043000002916,None,0,0,0,0,,,,,10,1,81,5,259.1728212000007,,,,,,,,,,,,,,,,,,,,,259.1575763999999,259.1728212000007,259.6566649000006,259.6620143,259.6802167000005,261.05677319999995,,,,,261.05694330000006,261.07209390000025,261.27220450000004,261.25632720000067,259.6802167000005,,,,,,,,1,0,1.3735931000001074,None,,,,,,,,847,20,M,R,2026-02-18_12h38.36.085,VisualSearch_2526_3,,2025.2.4,2026-02-18 12h38.36.322744 +0100,
tilted.xlsx,The target is tilted.,117,82,2,10,0,1,1,1,1,1,1,1,1,1,1,1,1,11,12,117,space,4.413873700000295,None,1,0,1.8282200000003286,None,space,3.4925043000002916,None,0,0,0,0,,,,,10,2,82,4,261.27220450000004,,,,,,,,,,,,,,,,,,,,,261.25719560000016,261.27220450000004,261.7562667000002,261.7611502,261.77215330000035,263.60501269999986,,,,,263.6051098000007,263.62104439999985,,263.8052909000007,261.77215330000035,,,,,,,,1,0,1.8282200000003286,None,,,,,,,,847,20,M,R,2026-02-18_12h38.36.085,VisualSearch_2526_3,,2025.2.4,2026-02-18 12h38.36.322744 +0100,
tilted.xlsx,The target is tilted.,117,83,3,10,1,1,1,1,1,1,1,1,0,0,0,0,0,7,8,117,space,4.413873700000295,None,0,0,2.055526500000269,None,space,3.4925043000002916,None,0,0,0,0,,,,,10,3,83,1,263.8216613000004,,,,,,,,,,,,,,,,,,,,,263.8061437000006,263.8216613000004,264.3051226000007,264.3105540000006,264.3258886000003,266.38807010000073,,,,,266.38821350000035,266.40338450000036,266.6037401000003,266.5879945000006,264.3258886000003,,,,,,,,0,0,2.055526500000269,None,,,,,,,,847,20,M,R,2026-02-18_12h38.36.085,VisualSearch_2526_3,,2025.2.4,2026-02-18 12h38.36.322744 +0100,
tilted.xlsx,The target is tilted.,117,84,4,10,0,1,1,1,0,0,0,0,0,0,0,0,1,3,4,117,space,4.413873700000295,None,1,0,0.9390576999994664,None,space,3.4925043000002916,None,0,0,0,0,,,,,10,4,84,6,266.6037401000003,,,,,,,,,,,,,,,,,,,,,266.5888021999999,266.6037401000003,267.08787720000055,267.0932487,267.11021600000004,268.0548367000001,,,,,268.05508590000045,268.07007690000046,268.27024990000064,268.2542263000005,267.11021600000004,,,,,,,,1,0,0.9390576999994664,None,,,,,,,,847,20,M,R,2026-02-18_12h38.36.085,VisualSearch_2526_3,,2025.2.4,2026-02-18 12h38.36.322744 +0100,
tilted.xlsx,The target is tilted.,117,85,5,10,1,1,1,1,1,1,1,1,1,1,1,1,0,11,12,117,space,4.413873700000295,None,1,1,1.094233499999973,None,space,3.4925043000002916,None,0,0,0,0,,,,,10,5,85,0,268.27024990000064,,,,,,,,,,,,,,,,,,,,,268.25502529999994,268.27024990000064,268.7540618000003,268.759497,268.77351160000035,269.87067280000065,,,,,269.8708450000004,269.88596550000057,270.08610060000046,270.07026529999985,268.77351160000035,,,,,,,,1,1,1.094233499999973,None,,,,,,,,847,20,M,R,2026-02-18_12h38.36.085,VisualSearch_2526_3,,2025.2.4,2026-02-18 12h38.36.322744 +0100,
tilted.xlsx,The target is tilted.,117,86,6,10,1,1,1,1,0,0,0,0,0,0,0,0,0,3,4,117,space,4.413873700000295,None,0,0,1.092439099999865,None,space,3.4925043000002916,None,0,0,0,0,,,,,10,6,86,2,270.08610060000046,,,,,,,,,,,,,,,,,,,,,270.0710912000004,270.08610060000046,270.5700590000006,270.57553610000014,270.58882040000026,271.68695430000025,,,,,271.68719930000043,271.70242860000053,271.9020509000002,271.88597130000016,270.58882040000026,,,,,,,,0,0,1.092439099999865,None,,,,,,,,847,20,M,R,2026-02-18_12h38.36.085,VisualSearch_2526_3,,2025.2.4,2026-02-18 12h38.36.322744 +0100,
tilted.xlsx,The target is tilted.,117,87,7,10,0,0,0,0,0,0,0,0,0,0,0,0,1,1,1,117,space,4.413873700000295,None,1,0,0.6293110999995406,None,space,3.4925043000002916,None,0,0,0,0,,,,,10,7,87,7,271.9020509000002,,,,,,,,,,,,,,,,,,,,,271.8867962000004,271.9020509000002,272.3860689000003,272.39149129999987,272.40777490000073,273.0525889999999,,,,,273.0527507000006,273.0681168000001,273.26862210000036,273.2520865000006,272.40777490000073,,,,,,,,1,0,0.6293110999995406,None,,,,,,,,847,20,M,R,2026-02-18_12h38.36.085,VisualSearch_2526_3,,2025.2.4,2026-02-18 12h38.36.322744 +0100,
tilted.xlsx,The target is tilted.,117,88,0,11,1,1,1,1,1,1,1,1,0,0,0,0,0,7,8,117,space,4.413873700000295,None,1,1,1.2280685999994603,None,space,3.4925043000002916,None,0,0,0,0,,,,,11,0,88,1,273.26862210000036,,,,,,,,,,,,,,,,,,,,,273.2528677,273.26862210000036,273.7525101000001,273.75778700000046,273.7717638000004,275.0020847000005,,,,,275.00222889999986,275.0178999,275.21795980000024,275.2015105999999,273.7717638000004,,,,,,,,1,1,1.2280685999994603,None,,,,,,,,847,20,M,R,2026-02-18_12h38.36.085,VisualSearch_2526_3,,2025.2.4,2026-02-18 12h38.36.322744 +0100,
tilted.xlsx,The target is tilted.,117,89,1,11,0,0,0,0,0,0,0,0,0,0,0,0,1,1,1,117,space,4.413873700000295,None,1,0,0.4983329999995476,None,space,3.4925043000002916,None,0,0,0,0,,,,,11,1,89,7,275.21795980000024,,,,,,,,,,,,,,,,,,,,,275.20229970000037,275.21795980000024,275.70169540000006,275.70702710000023,275.72111810000024,276.23549210000056,,,,,276.23573940000006,276.25082139999995,276.45095219999985,276.43479650000063,275.72111810000024,,,,,,,,1,0,0.4983329999995476,None,,,,,,,,847,20,M,R,2026-02-18_12h38.36.085,VisualSearch_2526_3,,2025.2.4,2026-02-18 12h38.36.322744 +0100,
tilted.xlsx,The target is tilted.,117,90,2,11,1,1,1,1,0,0,0,0,0,0,0,0,0,3,4,117,space,4.413873700000295,None,0,0,1.1868136000002778,None,space,3.4925043000002916,None,0,0,0,0,,,,,11,2,90,2,276.45095219999985,,,,,,,,,,,,,,,,,,,,,276.435606,276.45095219999985,276.9346346000002,276.93996490000063,276.95486130000063,278.1506390000004,,,,,278.15074340000047,278.1667496,278.36656740000035,278.35065790000044,276.95486130000063,,,,,,,,0,0,1.1868136000002778,None,,,,,,,,847,20,M,R,2026-02-18_12h38.36.085,VisualSearch_2526_3,,2025.2.4,2026-02-18 12h38.36.322744 +0100,
tilted.xlsx,The target is tilted.,117,91,3,11,1,1,1,1,1,1,1,1,1,1,1,1,0,11,12,117,space,4.413873700000295,None,1,1,1.1986039000003075,None,space,3.4925043000002916,None,0,0,0,0,,,,,11,3,91,0,278.36656740000035,,,,,,,,,,,,,,,,,,,,,278.3514634000003,278.36656740000035,278.8507447000002,278.8562010000005,278.8720155000001,280.08425669999997,,,,,280.08450020000055,280.0991029000006,280.29956630000015,280.2835666000001,278.8720155000001,,,,,,,,1,1,1.1986039000003075,None,,,,,,,,847,20,M,R,2026-02-18_12h38.36.085,VisualSearch_2526_3,,2025.2.4,2026-02-18 12h38.36.322744 +0100,
tilted.xlsx,The target is tilted.,117,92,4,11,0,1,1,1,0,0,0,0,0,0,0,0,1,3,4,117,space,4.413873700000295,None,1,0,0.7978781000001618,None,space,3.4925043000002916,None,0,0,0,0,,,,,11,4,92,6,280.29956630000015,,,,,,,,,,,,,,,,,,,,,280.2843937000007,280.29956630000015,280.7834578000002,280.78890130000036,280.80446420000044,281.6166008,,,,,281.6167451000001,281.6322628000007,281.8323565999999,281.8160637000001,280.80446420000044,,,,,,,,1,0,0.7978781000001618,None,,,,,,,,847,20,M,R,2026-02-18_12h38.36.085,VisualSearch_2526_3,,2025.2.4,2026-02-18 12h38.36.322744 +0100,
tilted.xlsx,The target is tilted.,117,93,5,11,1,0,0,0,0,0,0,0,0,0,0,0,0,0,1,117,space,4.413873700000295,None,0,0,0.7624617000001308,None,space,3.4925043000002916,None,0,0,0,0,,,,,11,5,93,3,281.8323565999999,,,,,,,,,,,,,,,,,,,,,281.81690010000057,281.8323565999999,282.3160471000001,282.3213667,282.3364601000003,283.11569320000035,,,,,283.11578350000036,283.1314060000004,283.33204470000055,283.31574030000047,282.3364601000003,,,,,,,,0,0,0.7624617000001308,None,,,,,,,,847,20,M,R,2026-02-18_12h38.36.085,VisualSearch_2526_3,,2025.2.4,2026-02-18 12h38.36.322744 +0100,
tilted.xlsx,The target is tilted.,117,94,6,11,0,1,1,1,1,1,1,1,1,1,1,1,1,11,12,117,space,4.413873700000295,None,1,0,1.261427399999775,None,space,3.4925043000002916,None,0,0,0,0,,,,,11,6,94,4,283.33204470000055,,,,,,,,,,,,,,,,,,,,,283.3165734000004,283.33204470000055,283.8155491000007,283.82083430000057,283.8345186000006,285.09924130000036,,,,,285.09947420000026,285.11444310000024,285.31424530000004,285.2984430000006,283.8345186000006,,,,,,,,1,0,1.261427399999775,None,,,,,,,,847,20,M,R,2026-02-18_12h38.36.085,VisualSearch_2526_3,,2025.2.4,2026-02-18 12h38.36.322744 +0100,
tilted.xlsx,The target is tilted.,117,95,7,11,0,1,1,1,1,1,1,1,0,0,0,0,1,7,8,117,space,4.413873700000295,None,1,0,2.4469201000001704,None,space,3.4925043000002916,None,0,0,0,0,,,,,11,7,95,5,285.31424530000004,,,,,,,,,,,,,,,,,,,,,285.2993210000004,285.31424530000004,285.7983672999999,285.8037017000006,285.81935560000056,288.28140520000034,,,,,288.28154750000067,288.29686820000006,288.4969822000003,288.48098480000044,285.81935560000056,,,,,,,,1,0,2.4469201000001704,None,,,,,,,,847,20,M,R,2026-02-18_12h38.36.085,VisualSearch_2526_3,,2025.2.4,2026-02-18 12h38.36.322744 +0100,
tilted.xlsx,The target is tilted.,117,96,0,12,1,0,0,0,0,0,0,0,0,0,0,0,0,0,1,117,space,4.413873700000295,None,0,0,0.8034713999995802,None,space,3.4925043000002916,None,0,0,0,0,,,,,12,0,96,3,288.4969822000003,,,,,,,,,,,,,,,,,,,,,288.48181380000005,288.4969822000003,288.9807408000006,288.98611320000055,289.0027331000001,289.81380790000003,,,,,289.8139516000001,289.82972830000017,290.02980579999985,290.0137147000005,289.0027331000001,,,,,,,,0,0,0.8034713999995802,None,,,,,,,,847,20,M,R,2026-02-18_12h38.36.085,VisualSearch_2526_3,,2025.2.4,2026-02-18 12h38.36.322744 +0100,
tilted.xlsx,The target is tilted.,117,97,1,12,1,1,1,1,1,1,1,1,0,0,0,0,0,7,8,117,space,4.413873700000295,None,1,1,2.7971203000006426,None,space,3.4925043000002916,None,0,0,0,0,,,,,12,1,97,1,290.02980579999985,,,,,,,,,,,,,,,,,,,,,290.0145204999999,290.02980579999985,290.51355090000015,290.51878920000036,290.5347765000006,293.3464610000001,,,,,293.346681,293.3615574000005,293.56196590000036,293.54579100000046,290.5347765000006,,,,,,,,1,1,2.7971203000006426,None,,,,,,,,847,20,M,R,2026-02-18_12h38.36.085,VisualSearch_2526_3,,2025.2.4,2026-02-18 12h38.36.322744 +0100,
tilted.xlsx,The target is tilted.,117,98,2,12,1,1,1,1,0,0,0,0,0,0,0,0,0,3,4,117,space,4.413873700000295,None,0,0,3.793487699999787,None,space,3.4925043000002916,None,0,0,0,0,,,,,12,2,98,2,293.56196590000036,,,,,,,,,,,,,,,,,,,,,293.5466200999999,293.56196590000036,294.04560010000023,294.0508692000003,294.065208,297.8618236000002,,,,,297.86204350000025,297.8767830000006,298.07713349999995,298.06123280000065,294.065208,,,,,,,,0,0,3.793487699999787,None,,,,,,,,847,20,M,R,2026-02-18_12h38.36.085,VisualSearch_2526_3,,2025.2.4,2026-02-18 12h38.36.322744 +0100,
tilted.xlsx,The target is tilted.,117,99,3,12,0,1,1,1,0,0,0,0,0,0,0,0,1,3,4,117,space,4.413873700000295,None,1,0,1.2032908000001044,None,space,3.4925043000002916,None,0,0,0,0,,,,,12,3,99,6,298.07713349999995,,,,,,,,,,,,,,,,,,,,,298.06205709999995,298.07713349999995,298.56094910000047,298.56641219999983,298.58031480000045,299.7941203999999,,,,,299.7942926000005,299.8098484000002,300.00953000000027,299.9934219000006,298.58031480000045,,,,,,,,1,0,1.2032908000001044,None,,,,,,,,847,20,M,R,2026-02-18_12h38.36.085,VisualSearch_2526_3,,2025.2.4,2026-02-18 12h38.36.322744 +0100,
tilted.xlsx,The target is tilted.,117,100,4,12,0,1,1,1,1,1,1,1,0,0,0,0,1,7,8,117,space,4.413873700000295,None,1,0,1.2448941000002378,None,space,3.4925043000002916,None,0,0,0,0,,,,,12,4,100,5,300.00953000000027,,,,,,,,,,,,,,,,,,,,,299.99428309999985,300.00953000000027,300.4936422999999,300.49894610000047,300.5158351,301.77617499999997,,,,,301.7762551000005,301.7923156000006,301.99220719999994,301.97644690000016,300.5158351,,,,,,,,1,0,1.2448941000002378,None,,,,,,,,847,20,M,R,2026-02-18_12h38.36.085,VisualSearch_2526_3,,2025.2.4,2026-02-18 12h38.36.322744 +0100,
tilted.xlsx,The target is tilted.,117,101,5,12,0,0,0,0,0,0,0,0,0,0,0,0,1,1,1,117,space,4.413873700000295,None,1,0,0.6968416999998226,None,space,3.4925043000002916,None,0,0,0,0,,,,,12,5,101,7,301.99220719999994,,,,,,,,,,,,,,,,,,,,,301.9772761000004,301.99220719999994,302.47617739999987,302.48152740000023,302.4971475000002,303.20926920000056,,,,,303.20940750000045,303.2251922000005,303.4250226000004,303.4092330000003,302.4971475000002,,,,,,,,1,0,0.6968416999998226,None,,,,,,,,847,20,M,R,2026-02-18_12h38.36.085,VisualSearch_2526_3,,2025.2.4,2026-02-18 12h38.36.322744 +0100,
tilted.xlsx,The target is tilted.,117,102,6,12,0,1,1,1,1,1,1,1,1,1,1,1,1,11,12,117,space,4.413873700000295,None,1,0,0.7945995000000039,None,space,3.4925043000002916,None,0,0,0,0,,,,,12,6,102,4,303.4250226000004,,,,,,,,,,,,,,,,,,,,,303.4100616000005,303.4250226000004,303.9088926000004,303.91409810000005,303.9294189000002,304.7253315000007,,,,,304.72548860000006,304.74135600000045,304.9415523000007,304.9251567000001,303.9294189000002,,,,,,,,1,0,0.7945995000000039,None,,,,,,,,847,20,M,R,2026-02-18_12h38.36.085,VisualSearch_2526_3,,2025.2.4,2026-02-18 12h38.36.322744 +0100,
tilted.xlsx,The target is tilted.,117,103,7,12,1,1,1,1,1,1,1,1,1,1,1,1,0,11,12,117,space,4.413873700000295,None,1,1,1.2913613999999143,None,space,3.4925043000002916,None,0,0,0,0,,,,,12,7,103,0,304.9415523000007,,,,,,,,,,,,,,,,,,,,,304.92605210000056,304.9415523000007,305.42496389999997,305.4302754,305.44529169999987,306.7420595000003,,,,,306.74230220000027,306.7574620000005,306.9575362000005,306.9415282,305.44529169999987,,,,,,,,1,1,1.2913613999999143,None,,,,,,,,847,20,M,R,2026-02-18_12h38.36.085,VisualSearch_2526_3,,2025.2.4,2026-02-18 12h38.36.322744 +0100,
tilted.xlsx,The target is tilted.,117,104,0,13,1,0,0,0,0,0,0,0,0,0,0,0,0,0,1,117,space,4.413873700000295,None,0,0,1.2113251999999193,None,space,3.4925043000002916,None,0,0,0,0,,,,,13,0,104,3,306.9575362000005,,,,,,,,,,,,,,,,,,,,,306.94233020000047,306.9575362000005,307.4413761000005,307.44683740000073,307.45965310000065,308.67456740000034,,,,,308.67478050000045,308.69005370000013,308.8899336000004,308.8742817000002,307.45965310000065,,,,,,,,0,0,1.2113251999999193,None,,,,,,,,847,20,M,R,2026-02-18_12h38.36.085,VisualSearch_2526_3,,2025.2.4,2026-02-18 12h38.36.322744 +0100,
tilted.xlsx,The target is tilted.,117,105,1,13,0,1,1,1,1,1,1,1,1,1,1,1,1,11,12,117,space,4.413873700000295,None,1,0,1.3298647000001438,None,space,3.4925043000002916,None,0,0,0,0,,,,,13,1,105,4,308.8899336000004,,,,,,,,,,,,,,,,,,,,,308.87507020000066,308.8899336000004,309.37400310000066,309.3789910000005,309.38991330000044,310.7229775000005,,,,,310.7230620999999,310.7394769000002,,310.9232714999998,309.38991330000044,,,,,,,,1,0,1.3298647000001438,None,,,,,,,,847,20,M,R,2026-02-18_12h38.36.085,VisualSearch_2526_3,,2025.2.4,2026-02-18 12h38.36.322744 +0100,
tilted.xlsx,The target is tilted.,117,106,2,13,0,1,1,1,1,1,1,1,0,0,0,0,1,7,8,117,space,4.413873700000295,None,1,0,1.2720432999994955,None,space,3.4925043000002916,None,0,0,0,0,,,,,13,2,106,5,310.9396744000005,,,,,,,,,,,,,,,,,,,,,310.9242647000001,310.9396744000005,311.4231275000002,311.4284029999999,311.4416262000004,312.72349380000014,,,,,312.7237008000002,312.738558,312.9389663000002,312.9228836000002,311.4416262000004,,,,,,,,1,0,1.2720432999994955,None,,,,,,,,847,20,M,R,2026-02-18_12h38.36.085,VisualSearch_2526_3,,2025.2.4,2026-02-18 12h38.36.322744 +0100,
tilted.xlsx,The target is tilted.,117,107,3,13,1,1,1,1,1,1,1,1,0,0,0,0,0,7,8,117,space,4.413873700000295,None,0,0,2.06706640000084,None,space,3.4925043000002916,None,0,0,0,0,,,,,13,3,107,1,312.9389663000002,,,,,,,,,,,,,,,,,,,,,312.9236942000007,312.9389663000002,313.42267360000005,313.4279419000004,313.44186230000014,315.5220331999999,,,,,315.5221779000003,315.5379288000004,315.7377083000001,315.72167230000014,313.44186230000014,,,,,,,,0,0,2.06706640000084,None,,,,,,,,847,20,M,R,2026-02-18_12h38.36.085,VisualSearch_2526_3,,2025.2.4,2026-02-18 12h38.36.322744 +0100,
tilted.xlsx,The target is tilted.,117,108,4,13,0,0,0,0,0,0,0,0,0,0,0,0,1,1,1,117,space,4.413873700000295,None,1,0,0.7163467999998829,None,space,3.4925043000002916,None,0,0,0,0,,,,,13,4,108,7,315.7377083000001,,,,,,,,,,,,,,,,,,,,,315.72257590000027,315.7377083000001,316.2218907000006,316.2271817000001,316.2438253999999,316.9721952,,,,,316.9724280999999,316.9872126,317.18746030000057,317.1707943000001,316.2438253999999,,,,,,,,1,0,0.7163467999998829,None,,,,,,,,847,20,M,R,2026-02-18_12h38.36.085,VisualSearch_2526_3,,2025.2.4,2026-02-18 12h38.36.322744 +0100,
tilted.xlsx,The target is tilted.,117,109,5,13,0,1,1,1,0,0,0,0,0,0,0,0,1,3,4,117,space,4.413873700000295,None,1,0,1.491949399999612,None,space,3.4925043000002916,None,0,0,0,0,,,,,13,5,109,6,317.18746030000057,,,,,,,,,,,,,,,,,,,,,317.17140560000007,317.18746030000057,317.67139080000015,317.67681230000017,317.6923168000003,319.1878295000006,,,,,319.1880478000003,319.2033962000005,319.4035362000004,319.3873942,317.6923168000003,,,,,,,,1,0,1.491949399999612,None,,,,,,,,847,20,M,R,2026-02-18_12h38.36.085,VisualSearch_2526_3,,2025.2.4,2026-02-18 12h38.36.322744 +0100,
tilted.xlsx,The target is tilted.,117,110,6,13,1,1,1,1,0,0,0,0,0,0,0,0,0,3,4,117,space,4.413873700000295,None,0,0,0.9235615999996298,None,space,3.4925043000002916,None,0,0,0,0,,,,,13,6,110,2,319.4035362000004,,,,,,,,,,,,,,,,,,,,,319.3883639000005,319.4035362000004,319.8872250000004,319.8926412999999,319.9084266,320.8375154000005,,,,,320.8377637000003,320.8525984000007,321.0528821000007,321.0368272000005,319.9084266,,,,,,,,0,0,0.9235615999996298,None,,,,,,,,847,20,M,R,2026-02-18_12h38.36.085,VisualSearch_2526_3,,2025.2.4,2026-02-18 12h38.36.322744 +0100,
tilted.xlsx,The target is tilted.,117,111,7,13,1,1,1,1,1,1,1,1,1,1,1,1,0,11,12,117,space,4.413873700000295,None,1,1,2.9624854000003324,None,space,3.4925043000002916,None,0,0,0,0,,,,,13,7,111,0,321.0528821000007,,,,,,,,,,,,,,,,,,,,,321.0376419000004,321.0528821000007,321.53682650000064,321.54205170000023,321.5624770000004,324.5355866,,,,,324.5357522000004,324.55165040000065,324.7517453999999,324.7355342999999,321.5624770000004,,,,,,,,1,1,2.9624854000003324,None,,,,,,,,847,20,M,R,2026-02-18_12h38.36.085,VisualSearch_2526_3,,2025.2.4,2026-02-18 12h38.36.322744 +0100,
tilted.xlsx,The target is tilted.,117,112,0,14,0,1,1,1,1,1,1,1,0,0,0,0,1,7,8,117,space,4.413873700000295,None,1,0,1.2623469000000114,None,space,3.4925043000002916,None,0,0,0,0,,,,,14,0,112,5,324.7517453999999,,,,,,,,,,,,,,,,,,,,,324.73640350000005,324.7517453999999,325.23512590000064,325.24043280000024,325.25587300000007,326.53505159999986,,,,,326.53518690000055,326.55110779999995,326.7509899000006,326.73480670000026,325.25587300000007,,,,,,,,1,0,1.2623469000000114,None,,,,,,,,847,20,M,R,2026-02-18_12h38.36.085,VisualSearch_2526_3,,2025.2.4,2026-02-18 12h38.36.322744 +0100,
tilted.xlsx,The target is tilted.,117,113,1,14,1,1,1,1,0,0,0,0,0,0,0,0,0,3,4,117,space,4.413873700000295,None,0,0,1.1420602999996845,None,space,3.4925043000002916,None,0,0,0,0,,,,,14,1,113,2,326.7509899000006,,,,,,,,,,,,,,,,,,,,,326.7357529000001,326.7509899000006,327.2347199000005,327.2400258000007,327.25659859999996,328.40193380000073,,,,,328.4021489000006,328.41717849999986,328.61713169999985,328.60096180000073,327.25659859999996,,,,,,,,0,0,1.1420602999996845,None,,,,,,,,847,20,M,R,2026-02-18_12h38.36.085,VisualSearch_2526_3,,2025.2.4,2026-02-18 12h38.36.322744 +0100,
tilted.xlsx,The target is tilted.,117,114,2,14,0,0,0,0,0,0,0,0,0,0,0,0,1,1,1,117,space,4.413873700000295,None,1,0,0.719272500000443,None,space,3.4925043000002916,None,0,0,0,0,,,,,14,2,114,7,328.61713169999985,,,,,,,,,,,,,,,,,,,,,328.6018125999999,328.61713169999985,329.1008793000001,329.10623660000056,329.1212605999999,329.8506879000006,,,,,329.8508528000002,329.8665361000003,330.0666417000002,330.0506309000002,329.1212605999999,,,,,,,,1,0,0.719272500000443,None,,,,,,,,847,20,M,R,2026-02-18_12h38.36.085,VisualSearch_2526_3,,2025.2.4,2026-02-18 12h38.36.322744 +0100,
tilted.xlsx,The target is tilted.,117,115,3,14,0,1,1,1,0,0,0,0,0,0,0,0,1,3,4,117,space,4.413873700000295,None,1,0,2.5533323999998174,None,space,3.4925043000002916,None,0,0,0,0,,,,,14,3,115,6,330.0666417000002,,,,,,,,,,,,,,,,,,,,,330.0514598,330.0666417000002,330.55042589999994,330.5557053000002,330.57168189999993,333.13275330000033,,,,,333.13285110000015,333.1484500000006,333.34890690000066,333.3327040000004,330.57168189999993,,,,,,,,1,0,2.5533323999998174,None,,,,,,,,847,20,M,R,2026-02-18_12h38.36.085,VisualSearch_2526_3,,2025.2.4,2026-02-18 12h38.36.322744 +0100,
tilted.xlsx,The target is tilted.,117,116,4,14,0,1,1,1,1,1,1,1,1,1,1,1,1,11,12,117,space,4.413873700000295,None,1,0,1.3943515000000843,None,space,3.4925043000002916,None,0,0,0,0,,,,,14,4,116,4,333.34890690000066,,,,,,,,,,,,,,,,,,,,,333.3336265000007,333.34890690000066,333.83231239999986,333.83785960000023,333.85170760000074,335.2492755000003,,,,,335.2494663000007,335.2644700000001,335.46457850000024,335.44883260000006,333.85170760000074,,,,,,,,1,0,1.3943515000000843,None,,,,,,,,847,20,M,R,2026-02-18_12h38.36.085,VisualSearch_2526_3,,2025.2.4,2026-02-18 12h38.36.322744 +0100,
tilted.xlsx,The target is tilted.,117,117,5,14,1,1,1,1,1,1,1,1,1,1,1,1,0,11,12,117,space,4.413873700000295,None,1,1,3.2586677999997846,None,space,3.4925043000002916,None,0,0,0,0,,,,,14,5,117,0,335.46457850000024,,,,,,,,,,,,,,,,,,,,,335.44963890000054,335.46457850000024,335.94878120000067,335.9541427000004,335.9700780000003,339.2315908999999,,,,,339.2318178000005,339.24685860000045,339.44690059999994,339.43082500000037,335.9700780000003,,,,,,,,1,1,3.2586677999997846,None,,,,,,,,847,20,M,R,2026-02-18_12h38.36.085,VisualSearch_2526_3,,2025.2.4,2026-02-18 12h38.36.322744 +0100,
tilted.xlsx,The target is tilted.,117,118,6,14,1,1,1,1,1,1,1,1,0,0,0,0,0,7,8,117,space,4.413873700000295,None,0,0,1.4899767999995674,None,space,3.4925043000002916,None,0,0,0,0,,,,,14,6,118,1,339.44690059999994,,,,,,,,,,,,,,,,,,,,,339.43165469999985,339.44690059999994,339.9303305000003,339.9357420000006,339.94861050000054,341.44683690000056,,,,,341.44698419999986,341.4627085000002,341.6628447000003,341.6467351000001,339.94861050000054,,,,,,,,0,0,1.4899767999995674,None,,,,,,,,847,20,M,R,2026-02-18_12h38.36.085,VisualSearch_2526_3,,2025.2.4,2026-02-18 12h38.36.322744 +0100,
tilted.xlsx,The target is tilted.,117,119,7,14,1,0,0,0,0,0,0,0,0,0,0,0,0,0,1,117,space,4.413873700000295,None,0,0,1.1080461999999898,None,space,3.4925043000002916,None,0,0,0,0,,,,,14,7,119,3,341.6628447000003,,,,,,,,,,,,,,,,,,,,,341.64759270000013,341.6628447000003,342.14600299999984,342.14795950000007,342.16248200000064,343.27956970000014,,,,,343.2797295999999,343.2956606000007,343.5084966000004,343.47955230000025,342.16248200000064,,,,,,,,0,0,1.1080461999999898,None,,,,,,,,847,20,M,R,2026-02-18_12h38.36.085,VisualSearch_2526_3,,2025.2.4,2026-02-18 12h38.36.322744 +0100,
tilted.xlsx,The target is tilted.,117,0,0,0,,,,,,,,,,,,,,,,,space,4.413873700000295,None,,,,,space,3.4925043000002916,None,0,0,0,0,,,,,,,,,,,,,,,,,,,,,,,,,,,,,,,,,,,,,,,,,,,,,,,,,,,,,,,,,,,,,,,847,20,M,R,2026-02-18_12h38.36.085,VisualSearch_2526_3,,2025.2.4,2026-02-18 12h38.36.322744 +0100,
vertical.xlsx,The target is tilted.,135,0,0,0,1,1,1,1,1,1,1,1,0,0,0,0,0,7,8,135,space,4.445243099999971,None,1,1,0.7193646999994598,None,,,,0,1,1,1,0,0,0,1,,,,,347.98802930000056,,,,,,,,,,,,,,,343.5084966000004,343.5084966000004,343.5084966000004,space,4.445243099999971,None,347.9840569000007,347.98802930000056,348.47767720000047,348.48325550000027,348.4972883999999,349.22709720000057,1,1,0.7193646999994598,None,349.2272333000001,349.2429830000001,349.4432175000002,349.4272596999999,,,,,,,,,,,,,,,,,,,,847,20,M,R,2026-02-18_12h38.36.085,VisualSearch_2526_3,,2025.2.4,2026-02-18 12h38.36.322744 +0100,
vertical.xlsx,The target is tilted.,135,1,1,0,1,1,1,1,0,0,0,0,0,0,0,0,0,3,4,135,space,4.445243099999971,None,1,1,0.5715043000000151,None,,,,0,1,1,1,0,1,1,2,,,,,349.4432175000002,,,,,,,,,,,,,,,,,,,,,349.4280438000005,349.4432175000002,349.9274230000001,349.93281560000014,349.9472155000003,350.5271947000001,1,1,0.5715043000000151,None,350.5273857000002,350.5430720000004,350.74322570000004,350.72718500000065,349.9472155000003,,,,,,,,,,,,,,,,,,,847,20,M,R,2026-02-18_12h38.36.085,VisualSearch_2526_3,,2025.2.4,2026-02-18 12h38.36.322744 +0100,
vertical.xlsx,The target is tilted.,135,2,2,0,0,1,1,1,1,1,1,1,1,1,1,1,1,11,12,135,space,4.445243099999971,None,0,1,2.0917841999998927,None,,,,0,1,1,1,0,2,2,4,,,,,350.74322570000004,,,,,,,,,,,,,,,,,,,,,350.7279219000002,350.74322570000004,351.2270094000005,351.2322948000001,351.24614759999986,353.3434723999999,0,1,2.0917841999998927,None,353.34370260000014,353.3590021,353.55900290000045,353.5429528000004,351.24614759999986,,,,,,,,,,,,,,,,,,,847,20,M,R,2026-02-18_12h38.36.085,VisualSearch_2526_3,,2025.2.4,2026-02-18 12h38.36.322744 +0100,
vertical.xlsx,The target is tilted.,135,3,3,0,0,1,1,1,1,1,1,1,0,0,0,0,1,7,8,135,space,4.445243099999971,None,0,1,0.9995659999995041,None,,,,0,1,1,1,0,3,3,5,,,,,353.55900290000045,,,,,,,,,,,,,,,,,,,,,353.54368460000023,353.55900290000045,354.0427027000005,354.0479802,354.06476360000033,355.07639800000015,0,1,0.9995659999995041,None,355.0766100000001,355.0913870000004,355.2917662,355.2753145000006,354.06476360000033,,,,,,,,,,,,,,,,,,,847,20,M,R,2026-02-18_12h38.36.085,VisualSearch_2526_3,,2025.2.4,2026-02-18 12h38.36.322744 +0100,
vertical.xlsx,The target is tilted.,135,4,4,0,0,0,0,0,0,0,0,0,0,0,0,0,1,1,1,135,space,4.445243099999971,None,0,1,0.6823986999997942,None,,,,0,1,1,1,0,4,4,7,,,,,355.2917662,,,,,,,,,,,,,,,,,,,,,355.2760541000007,355.2917662,355.7751745000005,355.7805504000007,355.79476909999994,356.4920520000005,0,1,0.6823986999997942,None,356.4922507000001,356.50771950000035,356.70793719999983,356.6919054,355.79476909999994,,,,,,,,,,,,,,,,,,,847,20,M,R,2026-02-18_12h38.36.085,VisualSearch_2526_3,,2025.2.4,2026-02-18 12h38.36.322744 +0100,
vertical.xlsx,The target is tilted.,135,5,5,0,1,0,0,0,0,0,0,0,0,0,0,0,0,0,1,135,space,4.445243099999971,None,1,1,0.7028833999993367,None,,,,0,1,1,1,0,5,5,3,,,,,356.70793719999983,,,,,,,,,,,,,,,,,,,,,356.6926632000004,356.70793719999983,357.19189520000054,357.19719540000006,357.2138353999999,357.9248062000006,1,1,0.7028833999993367,None,357.92493230000036,357.94086400000015,358.1408306000003,358.1248319000006,357.2138353999999,,,,,,,,,,,,,,,,,,,847,20,M,R,2026-02-18_12h38.36.085,VisualSearch_2526_3,,2025.2.4,2026-02-18 12h38.36.322744 +0100,
vertical.xlsx,The target is tilted.,135,6,6,0,0,1,1,1,0,0,0,0,0,0,0,0,1,3,4,135,space,4.445243099999971,None,0,1,0.7267609000000448,None,,,,0,1,1,1,0,6,6,6,,,,,358.1408306000003,,,,,,,,,,,,,,,,,,,,,358.12602100000004,358.1408306000003,358.62473020000016,358.6300338000001,358.64561800000047,359.373971,0,1,0.7267609000000448,None,359.3741209,359.3902957,359.5903590000007,359.5741644,358.64561800000047,,,,,,,,,,,,,,,,,,,847,20,M,R,2026-02-18_12h38.36.085,VisualSearch_2526_3,,2025.2.4,2026-02-18 12h38.36.322744 +0100,
vertical.xlsx,The target is tilted.,135,7,7,0,1,1,1,1,1,1,1,1,1,1,1,1,0,11,12,135,space,4.445243099999971,None,1,1,0.9384552000001349,None,,,,0,1,1,1,0,7,7,0,,,,,359.5903590000007,,,,,,,,,,,,,,,,,,,,,359.57491329999993,359.5903590000007,360.07409820000066,360.0793594000006,360.0945259,361.0408786000007,1,1,0.9384552000001349,None,361.04106540000066,361.0564901000007,361.25627820000045,361.2403591000002,360.0945259,,,,,,,,,,,,,,,,,,,847,20,M,R,2026-02-18_12h38.36.085,VisualSearch_2526_3,,2025.2.4,2026-02-18 12h38.36.322744 +0100,
vertical.xlsx,The target is tilted.,135,0,0,0,1,1,1,1,0,0,0,0,0,0,0,0,0,3,4,135,space,4.445243099999971,None,1,1,0.87491990000035,None,space,1.4960934000000634,None,0,1,1,1,,,,,0,0,0,2,362.78460859999996,,,,,,,,,,,,,,,,,,,,,362.7806897999999,362.78460859999996,363.2727951000006,363.2782664000006,363.29479340000034,364.1726638,,,,,364.1728234000002,364.18876100000034,364.38847369999985,364.3726049000006,,361.2480540000006,361.25627820000045,361.25627820000045,362.7565493000002,space,1.4960934000000634,None,1,1,0.87491990000035,None,,,,,,,,847,20,M,R,2026-02-18_12h38.36.085,VisualSearch_2526_3,,2025.2.4,2026-02-18 12h38.36.322744 +0100,
vertical.xlsx,The target is tilted.,135,1,1,0,1,1,1,1,1,1,1,1,0,0,0,0,0,7,8,135,space,4.445243099999971,None,1,1,0.752892299999985,None,space,1.4960934000000634,None,0,1,1,1,,,,,0,1,1,1,364.38847369999985,,,,,,,,,,,,,,,,,,,,,364.3734353,364.38847369999985,364.8725964000005,364.8778832000007,364.8957450000007,365.65624730000036,,,,,365.6564865,365.6712744000006,365.8716484000006,365.8555452999999,364.8957450000007,,,,,,,,1,1,0.752892299999985,None,,,,,,,,847,20,M,R,2026-02-18_12h38.36.085,VisualSearch_2526_3,,2025.2.4,2026-02-18 12h38.36.322744 +0100,
vertical.xlsx,The target is tilted.,135,2,2,0,0,1,1,1,1,1,1,1,0,0,0,0,1,7,8,135,space,4.445243099999971,None,1,0,0.6201904999998078,None,space,1.4960934000000634,None,0,1,1,1,,,,,0,2,2,5,365.8716484000006,,,,,,,,,,,,,,,,,,,,,365.8564434,365.8716484000006,366.3550088000002,366.36028970000007,366.37545000000046,367.00460060000023,,,,,367.0047080000004,367.0210311999999,367.22069939999983,367.20475650000026,366.37545000000046,,,,,,,,1,0,0.6201904999998078,None,,,,,,,,847,20,M,R,2026-02-18_12h38.36.085,VisualSearch_2526_3,,2025.2.4,2026-02-18 12h38.36.322744 +0100,
vertical.xlsx,The target is tilted.,135,3,3,0,0,0,0,0,0,0,0,0,0,0,0,0,1,1,1,135,space,4.445243099999971,None,0,1,0.8748384999998962,None,space,1.4960934000000634,None,0,1,1,1,,,,,0,3,3,7,367.22069939999983,,,,,,,,,,,,,,,,,,,,,367.2055728000005,367.22069939999983,367.7048727000001,367.7098842000005,367.7209161999999,368.60534820000066,,,,,368.60556220000035,368.6202911999999,368.82067150000057,368.80458799999997,367.7209161999999,,,,,,,,0,1,0.8748384999998962,None,,,,,,,,847,20,M,R,2026-02-18_12h38.36.085,VisualSearch_2526_3,,2025.2.4,2026-02-18 12h38.36.322744 +0100,
vertical.xlsx,The target is tilted.,135,4,4,0,0,1,1,1,1,1,1,1,1,1,1,1,1,11,12,135,space,4.445243099999971,None,0,1,1.0995739999998477,None,space,1.4960934000000634,None,0,1,1,1,,,,,0,4,4,4,368.82067150000057,,,,,,,,,,,,,,,,,,,,,368.8053823,368.82067150000057,369.3044092,369.3096953000004,369.32471609999993,370.4373985000002,,,,,370.4375415000004,370.4532749,370.65297100000043,370.6367641000006,369.32471609999993,,,,,,,,0,1,1.0995739999998477,None,,,,,,,,847,20,M,R,2026-02-18_12h38.36.085,VisualSearch_2526_3,,2025.2.4,2026-02-18 12h38.36.322744 +0100,
vertical.xlsx,The target is tilted.,135,5,5,0,1,0,0,0,0,0,0,0,0,0,0,0,0,0,1,135,space,4.445243099999971,None,1,1,0.759294399999817,None,space,1.4960934000000634,None,0,1,1,1,,,,,0,5,5,3,370.65297100000043,,,,,,,,,,,,,,,,,,,,,370.6375938000001,370.65297100000043,371.1366828,371.1385368000001,371.15283570000065,371.9208524000005,,,,,371.92110500000035,371.9362977999999,372.1361229000004,372.12016219999987,371.15283570000065,,,,,,,,1,1,0.759294399999817,None,,,,,,,,847,20,M,R,2026-02-18_12h38.36.085,VisualSearch_2526_3,,2025.2.4,2026-02-18 12h38.36.322744 +0100,
vertical.xlsx,The target is tilted.,135,6,6,0,1,1,1,1,1,1,1,1,1,1,1,1,0,11,12,135,space,4.445243099999971,None,1,1,0.8601411999998163,None,space,1.4960934000000634,None,0,1,1,1,,,,,0,6,6,0,372.1361229000004,,,,,,,,,,,,,,,,,,,,,372.1209985000005,372.1361229000004,372.6199409000001,372.6248327000003,372.6353945999999,373.5036399999999,,,,,373.50388999999996,373.51882170000044,373.7192025000004,373.7030771,372.6353945999999,,,,,,,,1,1,0.8601411999998163,None,,,,,,,,847,20,M,R,2026-02-18_12h38.36.085,VisualSearch_2526_3,,2025.2.4,2026-02-18 12h38.36.322744 +0100,
vertical.xlsx,The target is tilted.,135,7,7,0,0,1,1,1,0,0,0,0,0,0,0,0,1,3,4,135,space,4.445243099999971,None,0,1,0.7648105999996915,None,space,1.4960934000000634,None,0,1,1,1,,,,,0,7,7,6,373.7192025000004,,,,,,,,,,,,,,,,,,,,,373.7039027999999,373.7192025000004,374.2027003000003,374.2080547000005,374.22577100000035,375.00323240000034,,,,,375.00347839999995,375.01848359999985,375.21855440000036,375.20252080000046,374.22577100000035,,,,,,,,0,1,0.7648105999996915,None,,,,,,,,847,20,M,R,2026-02-18_12h38.36.085,VisualSearch_2526_3,,2025.2.4,2026-02-18 12h38.36.322744 +0100,
vertical.xlsx,The target is tilted.,135,8,0,1,0,1,1,1,1,1,1,1,0,0,0,0,1,7,8,135,space,4.445243099999971,None,0,1,1.0144443999997748,None,space,1.4960934000000634,None,0,1,1,1,,,,,1,0,8,5,375.21855440000036,,,,,,,,,,,,,,,,,,,,,375.2033330000004,375.21855440000036,375.7023792,375.7076388000005,375.7241246000003,376.7522342000002,,,,,376.7524486000002,376.7676699000003,376.9676894000004,376.9520035000005,375.7241246000003,,,,,,,,0,1,1.0144443999997748,None,,,,,,,,847,20,M,R,2026-02-18_12h38.36.085,VisualSearch_2526_3,,2025.2.4,2026-02-18 12h38.36.322744 +0100,
vertical.xlsx,The target is tilted.,135,9,1,1,1,1,1,1,1,1,1,1,0,0,0,0,0,7,8,135,space,4.445243099999971,None,0,0,0.7992096999996647,None,space,1.4960934000000634,None,0,1,1,1,,,,,1,1,9,1,376.9676894000004,,,,,,,,,,,,,,,,,,,,,376.9528435000002,376.9676894000004,377.4518121000001,377.4571822000007,377.4721040000004,378.28470330000073,,,,,378.28483719999986,378.3004894000005,378.5008452000002,378.48447100000067,377.4721040000004,,,,,,,,0,0,0.7992096999996647,None,,,,,,,,847,20,M,R,2026-02-18_12h38.36.085,VisualSearch_2526_3,,2025.2.4,2026-02-18 12h38.36.322744 +0100,
vertical.xlsx,The target is tilted.,135,10,2,1,0,1,1,1,0,0,0,0,0,0,0,0,1,3,4,135,space,4.445243099999971,None,0,1,0.5449681999998575,None,space,1.4960934000000634,None,0,1,1,1,,,,,1,2,10,6,378.5008452000002,,,,,,,,,,,,,,,,,,,,,378.4853069999999,378.5008452000002,378.9846062000006,378.98989150000034,379.00551989999985,379.5515383000002,,,,,379.5517088000006,379.5670585000007,379.7668958000004,379.7512284000004,379.00551989999985,,,,,,,,0,1,0.5449681999998575,None,,,,,,,,847,20,M,R,2026-02-18_12h38.36.085,VisualSearch_2526_3,,2025.2.4,2026-02-18 12h38.36.322744 +0100,
vertical.xlsx,The target is tilted.,135,11,3,1,0,0,0,0,0,0,0,0,0,0,0,0,1,1,1,135,space,4.445243099999971,None,0,1,0.5893550999999206,None,space,1.4960934000000634,None,0,1,1,1,,,,,1,3,11,7,379.7668958000004,,,,,,,,,,,,,,,,,,,,,379.75202660000014,379.7668958000004,380.25095090000013,380.2564005000004,380.2714009000001,380.8675727,,,,,380.8677869000003,380.8832071000006,381.0833482000007,381.0672832999999,380.2714009000001,,,,,,,,0,1,0.5893550999999206,None,,,,,,,,847,20,M,R,2026-02-18_12h38.36.085,VisualSearch_2526_3,,2025.2.4,2026-02-18 12h38.36.322744 +0100,
vertical.xlsx,The target is tilted.,135,12,4,1,1,0,0,0,0,0,0,0,0,0,0,0,0,0,1,135,space,4.445243099999971,None,0,0,0.4042088000005606,None,space,1.4960934000000634,None,0,1,1,1,,,,,1,4,12,3,381.0833482000007,,,,,,,,,,,,,,,,,,,,,381.06818920000023,381.0833482000007,381.566922,381.5723506000004,381.5878652000001,382.0006252000003,,,,,382.0008026000005,382.01603479999994,382.2161818000004,382.2000314000006,381.5878652000001,,,,,,,,0,0,0.4042088000005606,None,,,,,,,,847,20,M,R,2026-02-18_12h38.36.085,VisualSearch_2526_3,,2025.2.4,2026-02-18 12h38.36.322744 +0100,
vertical.xlsx,The target is tilted.,135,13,5,1,1,1,1,1,1,1,1,1,1,1,1,1,0,11,12,135,space,4.445243099999971,None,1,1,0.8801067000003968,None,space,1.4960934000000634,None,0,1,1,1,,,,,1,5,13,0,382.2161818000004,,,,,,,,,,,,,,,,,,,,,382.20085460000064,382.2161818000004,382.7000530000005,382.70535440000003,382.72367889999987,383.61696910000046,,,,,383.6172135000006,383.6324349000006,383.8323446000004,383.8161123,382.72367889999987,,,,,,,,1,1,0.8801067000003968,None,,,,,,,,847,20,M,R,2026-02-18_12h38.36.085,VisualSearch_2526_3,,2025.2.4,2026-02-18 12h38.36.322744 +0100,
vertical.xlsx,The target is tilted.,135,14,6,1,0,1,1,1,1,1,1,1,1,1,1,1,1,11,12,135,space,4.445243099999971,None,0,1,1.5967896000001929,None,space,1.4960934000000634,None,0,1,1,1,,,,,1,6,14,4,383.8323446000004,,,,,,,,,,,,,,,,,,,,,383.8169533,383.8323446000004,384.3161263000002,384.31994360000044,384.33212450000065,385.93165170000066,,,,,385.9317353000006,385.9480134000005,,386.1320585000003,384.33212450000065,,,,,,,,0,1,1.5967896000001929,None,,,,,,,,847,20,M,R,2026-02-18_12h38.36.085,VisualSearch_2526_3,,2025.2.4,2026-02-18 12h38.36.322744 +0100,
vertical.xlsx,The target is tilted.,135,15,7,1,1,1,1,1,0,0,0,0,0,0,0,0,0,3,4,135,space,4.445243099999971,None,1,1,0.8125586999994994,None,space,1.4960934000000634,None,0,1,1,1,,,,,1,7,15,2,386.14826919999996,,,,,,,,,,,,,,,,,,,,,386.13303129999986,386.14826919999996,386.63187689999995,386.6372977000001,386.6536130000004,387.4818746000001,,,,,387.48202219999985,387.49746850000065,387.6977082000003,387.6816245,,,,,,,,,1,1,0.8125586999994994,None,,,,,,,,847,20,M,R,2026-02-18_12h38.36.085,VisualSearch_2526_3,,2025.2.4,2026-02-18 12h38.36.322744 +0100,
vertical.xlsx,The target is tilted.,135,16,0,2,1,1,1,1,0,0,0,0,0,0,0,0,0,3,4,135,space,4.445243099999971,None,1,1,0.6141931000001932,None,space,1.4960934000000634,None,0,1,1,1,,,,,2,0,16,2,387.6977082000003,,,,,,,,,,,,,,,,,,,,,387.6824996000005,387.6977082000003,388.1816935000006,388.1884034000004,388.20436900000004,388.83135200000015,,,,,388.83151200000066,388.84731379999994,389.04743210000015,389.0309848000006,388.20436900000004,,,,,,,,1,1,0.6141931000001932,None,,,,,,,,847,20,M,R,2026-02-18_12h38.36.085,VisualSearch_2526_3,,2025.2.4,2026-02-18 12h38.36.322744 +0100,
vertical.xlsx,The target is tilted.,135,17,1,2,1,1,1,1,1,1,1,1,1,1,1,1,0,11,12,135,space,4.445243099999971,None,0,0,1.2709844999999405,None,space,1.4960934000000634,None,0,1,1,1,,,,,2,1,17,0,389.04743210000015,,,,,,,,,,,,,,,,,,,,,389.0318132000002,389.04743210000015,389.5311478000003,389.53639509999994,389.55260480000015,390.8313382000006,,,,,390.83158040000035,390.8464227000004,391.0466655,391.03066750000016,389.55260480000015,,,,,,,,0,0,1.2709844999999405,None,,,,,,,,847,20,M,R,2026-02-18_12h38.36.085,VisualSearch_2526_3,,2025.2.4,2026-02-18 12h38.36.322744 +0100,
vertical.xlsx,The target is tilted.,135,18,2,2,0,1,1,1,1,1,1,1,1,1,1,1,1,11,12,135,space,4.445243099999971,None,0,1,1.4930051000001185,None,space,1.4960934000000634,None,0,1,1,1,,,,,2,2,18,4,391.0466655,,,,,,,,,,,,,,,,,,,,,391.0314934000007,391.0466655,391.53056800000013,391.5359613999999,391.550835,393.04712460000064,,,,,393.04731400000037,393.06259300000056,393.26251260000026,393.24623950000023,391.550835,,,,,,,,0,1,1.4930051000001185,None,,,,,,,,847,20,M,R,2026-02-18_12h38.36.085,VisualSearch_2526_3,,2025.2.4,2026-02-18 12h38.36.322744 +0100,
vertical.xlsx,The target is tilted.,135,19,3,2,1,0,0,0,0,0,0,0,0,0,0,0,0,0,1,135,space,4.445243099999971,None,1,1,0.8266219999995883,None,space,1.4960934000000634,None,0,1,1,1,,,,,2,3,19,3,393.26251260000026,,,,,,,,,,,,,,,,,,,,,393.2470927000004,393.26251260000026,393.74642740000036,393.7516949999999,393.76757630000066,394.59605270000066,,,,,394.59617700000035,394.6121404000005,394.8119015000002,394.79587230000016,393.76757630000066,,,,,,,,1,1,0.8266219999995883,None,,,,,,,,847,20,M,R,2026-02-18_12h38.36.085,VisualSearch_2526_3,,2025.2.4,2026-02-18 12h38.36.322744 +0100,
vertical.xlsx,The target is tilted.,135,20,4,2,0,1,1,1,1,1,1,1,0,0,0,0,1,7,8,135,space,4.445243099999971,None,0,1,0.7188054000007469,None,space,1.4960934000000634,None,0,1,1,1,,,,,2,4,20,5,394.8119015000002,,,,,,,,,,,,,,,,,,,,,394.7967414000004,394.8119015000002,395.29586370000015,395.30123840000033,395.3154418000004,396.0455415000006,,,,,396.0456922000003,396.06156960000044,396.2616824000006,396.24540400000024,395.3154418000004,,,,,,,,0,1,0.7188054000007469,None,,,,,,,,847,20,M,R,2026-02-18_12h38.36.085,VisualSearch_2526_3,,2025.2.4,2026-02-18 12h38.36.322744 +0100,
vertical.xlsx,The target is tilted.,135,21,5,2,1,1,1,1,1,1,1,1,0,0,0,0,0,7,8,135,space,4.445243099999971,None,0,0,0.8576622000000498,None,space,1.4960934000000634,None,0,1,1,1,,,,,2,5,21,1,396.2616824000006,,,,,,,,,,,,,,,,,,,,,396.2463413000005,396.2616824000006,396.74542120000024,396.7507006000005,396.7672624000006,397.6288125000001,,,,,397.6290275000001,397.6443466999999,397.84430860000066,397.8284472000005,396.7672624000006,,,,,,,,0,0,0.8576622000000498,None,,,,,,,,847,20,M,R,2026-02-18_12h38.36.085,VisualSearch_2526_3,,2025.2.4,2026-02-18 12h38.36.322744 +0100,
vertical.xlsx,The target is tilted.,135,22,6,2,0,1,1,1,0,0,0,0,0,0,0,0,1,3,4,135,space,4.445243099999971,None,0,1,0.7152169999999387,None,space,1.4960934000000634,None,0,1,1,1,,,,,2,6,22,6,397.84430860000066,,,,,,,,,,,,,,,,,,,,,397.8293472000005,397.84430860000066,398.3282579000006,398.33356730000014,398.34947640000064,399.0784973,,,,,399.0787420000006,399.0936835000002,399.29398630000014,399.27752730000066,398.34947640000064,,,,,,,,0,1,0.7152169999999387,None,,,,,,,,847,20,M,R,2026-02-18_12h38.36.085,VisualSearch_2526_3,,2025.2.4,2026-02-18 12h38.36.322744 +0100,
vertical.xlsx,The target is tilted.,135,23,7,2,0,0,0,0,0,0,0,0,0,0,0,0,1,1,1,135,space,4.445243099999971,None,0,1,0.5993979000004401,None,space,1.4960934000000634,None,0,1,1,1,,,,,2,7,23,7,399.29398630000014,,,,,,,,,,,,,,,,,,,,,399.2783384000004,399.29398630000014,399.77778620000026,399.7831513000001,399.7995281000003,400.4108978000004,,,,,400.4110318000003,400.4268993000005,400.62653469999987,400.61030780000056,399.7995281000003,,,,,,,,0,1,0.5993979000004401,None,,,,,,,,847,20,M,R,2026-02-18_12h38.36.085,VisualSearch_2526_3,,2025.2.4,2026-02-18 12h38.36.322744 +0100,
vertical.xlsx,The target is tilted.,135,24,0,3,0,0,0,0,0,0,0,0,0,0,0,0,1,1,1,135,space,4.445243099999971,None,0,1,0.5193282999998701,None,space,1.4960934000000634,None,0,1,1,1,,,,,3,0,24,7,400.62653469999987,,,,,,,,,,,,,,,,,,,,,400.6111679000005,400.62653469999987,401.1107619000004,401.1161882000006,401.13125279999986,401.66046319999987,,,,,401.6605941000007,401.6764812000001,401.87612380000064,401.8604015000001,401.13125279999986,,,,,,,,0,1,0.5193282999998701,None,,,,,,,,847,20,M,R,2026-02-18_12h38.36.085,VisualSearch_2526_3,,2025.2.4,2026-02-18 12h38.36.322744 +0100,
vertical.xlsx,The target is tilted.,135,25,1,3,0,1,1,1,1,1,1,1,0,0,0,0,1,7,8,135,space,4.445243099999971,None,0,1,1.0485803000001397,None,space,1.4960934000000634,None,0,1,1,1,,,,,3,1,25,5,401.87612380000064,,,,,,,,,,,,,,,,,,,,,401.8612141000003,401.87612380000064,402.3603069999999,402.3657991,402.3796209000002,403.4430732000001,,,,,403.4432884000007,403.4590885000007,403.65888129999985,403.64320990000033,402.3796209000002,,,,,,,,0,1,1.0485803000001397,None,,,,,,,,847,20,M,R,2026-02-18_12h38.36.085,VisualSearch_2526_3,,2025.2.4,2026-02-18 12h38.36.322744 +0100,
vertical.xlsx,The target is tilted.,135,26,2,3,0,1,1,1,1,1,1,1,1,1,1,1,1,11,12,135,space,4.445243099999971,None,0,1,0.962391199999729,None,space,1.4960934000000634,None,0,1,1,1,,,,,3,2,26,4,403.65888129999985,,,,,,,,,,,,,,,,,,,,,403.6440214000004,403.65888129999985,404.14249540000037,404.1447349,404.1588360000005,405.1256250000006,,,,,405.1257676000005,405.14188360000026,405.3420810000007,405.32593520000046,404.1588360000005,,,,,,,,0,1,0.962391199999729,None,,,,,,,,847,20,M,R,2026-02-18_12h38.36.085,VisualSearch_2526_3,,2025.2.4,2026-02-18 12h38.36.322744 +0100,
vertical.xlsx,The target is tilted.,135,27,3,3,1,1,1,1,0,0,0,0,0,0,0,0,0,3,4,135,space,4.445243099999971,None,1,1,0.7339420999996946,None,space,1.4960934000000634,None,0,1,1,1,,,,,3,3,27,2,405.3420810000007,,,,,,,,,,,,,,,,,,,,,405.32675350000045,405.3420810000007,405.82557840000027,405.8308815999999,405.84689060000073,406.5928586,,,,,406.59308930000043,406.6082802000001,406.80824660000053,406.7921905000003,405.84689060000073,,,,,,,,1,1,0.7339420999996946,None,,,,,,,,847,20,M,R,2026-02-18_12h38.36.085,VisualSearch_2526_3,,2025.2.4,2026-02-18 12h38.36.322744 +0100,
vertical.xlsx,The target is tilted.,135,28,4,3,1,1,1,1,1,1,1,1,0,0,0,0,0,7,8,135,space,4.445243099999971,None,1,1,0.8427179999998771,None,space,1.4960934000000634,None,0,1,1,1,,,,,3,4,28,1,406.80824660000053,,,,,,,,,,,,,,,,,,,,,406.79298930000004,406.80824660000053,407.2920595000005,407.2973344000002,407.31296400000065,408.1590868000003,,,,,408.15929940000024,408.1743569999999,408.3741946,408.35797249999996,407.31296400000065,,,,,,,,1,1,0.8427179999998771,None,,,,,,,,847,20,M,R,2026-02-18_12h38.36.085,VisualSearch_2526_3,,2025.2.4,2026-02-18 12h38.36.322744 +0100,
vertical.xlsx,The target is tilted.,135,29,5,3,1,0,0,0,0,0,0,0,0,0,0,0,0,0,1,135,space,4.445243099999971,None,1,1,0.4655289000002085,None,space,1.4960934000000634,None,0,1,1,1,,,,,3,5,29,3,408.3741946,,,,,,,,,,,,,,,,,,,,,408.35881190000055,408.3741946,408.8581875,408.86353529999997,408.8775470999999,409.35862129999987,,,,,409.35885620000045,409.37364680000064,409.5738760000004,409.55761970000003,408.8775470999999,,,,,,,,1,1,0.4655289000002085,None,,,,,,,,847,20,M,R,2026-02-18_12h38.36.085,VisualSearch_2526_3,,2025.2.4,2026-02-18 12h38.36.322744 +0100,
vertical.xlsx,The target is tilted.,135,30,6,3,0,1,1,1,0,0,0,0,0,0,0,0,1,3,4,135,space,4.445243099999971,None,1,0,0.5817453999998179,None,space,1.4960934000000634,None,0,1,1,1,,,,,3,6,30,6,409.5738760000004,,,,,,,,,,,,,,,,,,,,,409.5584585000006,409.5738760000004,410.0577849000001,410.06316550000065,410.0773429000001,410.67464759999984,,,,,410.67484740000054,410.68999110000004,410.8902470000003,410.87414460000036,410.0773429000001,,,,,,,,1,0,0.5817453999998179,None,,,,,,,,847,20,M,R,2026-02-18_12h38.36.085,VisualSearch_2526_3,,2025.2.4,2026-02-18 12h38.36.322744 +0100,
vertical.xlsx,The target is tilted.,135,31,7,3,1,1,1,1,1,1,1,1,1,1,1,1,0,11,12,135,space,4.445243099999971,None,1,1,0.9909035999999105,None,space,1.4960934000000634,None,0,1,1,1,,,,,3,7,31,0,410.8902470000003,,,,,,,,,,,,,,,,,,,,,410.87495840000065,410.8902470000003,411.3739699000007,411.3792100999999,411.3951844000003,412.39055570000073,,,,,412.3907685000004,412.4063079000007,412.6062913000005,412.58985180000036,411.3951844000003,,,,,,,,1,1,0.9909035999999105,None,,,,,,,,847,20,M,R,2026-02-18_12h38.36.085,VisualSearch_2526_3,,2025.2.4,2026-02-18 12h38.36.322744 +0100,
vertical.xlsx,The target is tilted.,135,32,0,4,1,1,1,1,0,0,0,0,0,0,0,0,0,3,4,135,space,4.445243099999971,None,1,1,0.7683981000000131,None,space,1.4960934000000634,None,0,1,1,1,,,,,4,0,32,2,412.6062913000005,,,,,,,,,,,,,,,,,,,,,412.59067099999993,412.6062913000005,413.08988490000047,413.0952655000001,413.1094397000006,413.89007370000036,,,,,413.89024380000046,413.9053438000001,414.1057571000001,414.0896818000001,413.1094397000006,,,,,,,,1,1,0.7683981000000131,None,,,,,,,,847,20,M,R,2026-02-18_12h38.36.085,VisualSearch_2526_3,,2025.2.4,2026-02-18 12h38.36.322744 +0100,
vertical.xlsx,The target is tilted.,135,33,1,4,1,1,1,1,1,1,1,1,1,1,1,1,0,11,12,135,space,4.445243099999971,None,1,1,1.1481665999999677,None,space,1.4960934000000634,None,0,1,1,1,,,,,4,1,33,0,414.1057571000001,,,,,,,,,,,,,,,,,,,,,414.0905284999999,414.1057571000001,414.5896306000004,414.5950229,414.61102329999994,415.77317550000043,,,,,415.77342150000004,415.7884296000002,415.9885776000001,415.9721094000006,414.61102329999994,,,,,,,,1,1,1.1481665999999677,None,,,,,,,,847,20,M,R,2026-02-18_12h38.36.085,VisualSearch_2526_3,,2025.2.4,2026-02-18 12h38.36.322744 +0100,
vertical.xlsx,The target is tilted.,135,34,2,4,1,1,1,1,1,1,1,1,0,0,0,0,0,7,8,135,space,4.445243099999971,None,1,1,1.0938836000004812,None,space,1.4960934000000634,None,0,1,1,1,,,,,4,2,34,1,415.9885776000001,,,,,,,,,,,,,,,,,,,,,415.97296800000004,415.9885776000001,416.47218500000054,416.4774436000007,416.49133560000064,417.58827930000007,,,,,417.58842640000057,417.60413530000005,417.8042783000001,417.7885335000001,416.49133560000064,,,,,,,,1,1,1.0938836000004812,None,,,,,,,,847,20,M,R,2026-02-18_12h38.36.085,VisualSearch_2526_3,,2025.2.4,2026-02-18 12h38.36.322744 +0100,
