file_name,block_instructions,target_example,thisN,thisTrialN,thisRepN,target_presence,opacity_1,opacity_2,opacity_3,opacity_4,opacity_5,opacity_6,opacity_7,opacity_8,opacity_9,opacity_10,opacity_11,opacity_12,n_distract,n_items,target_ori,key_resp_4.keys,key_resp_4.rt,key_resp_4.duration,key_resp.keys,key_resp.corr,key_resp.rt,key_resp.duration,key_resp_5.keys,key_resp_5.rt,key_resp_5.duration,blocks.thisRepN,blocks.thisTrialN,blocks.thisN,blocks.thisIndex,practice_trials.thisRepN,practice_trials.thisTrialN,practice_trials.thisN,practice_trials.thisIndex,trials.thisRepN,trials.thisTrialN,trials.thisN,trials.thisIndex,thisRow.t,notes,Welcome.started,WelcomeText.started,key_resp_2.started,Welcome.stopped,key_resp_2.keys,key_resp_2.rt,key_resp_2.duration,InformedConsent.started,text_4.started,InformedConsent.stopped,key_resp_6.keys,key_resp_6.rt,key_resp_6.duration,key_resp_4.started,example_target.started,text_3.started,blocks.key_resp_4.keys,blocks.key_resp_4.rt,blocks.key_resp_4.duration,FixCross.started,fixCross.started,FixCross.stopped,Stimulus.started,key_resp.started,Stimulus.stopped,practice_trials.key_resp.keys,practice_trials.key_resp.corr,practice_trials.key_resp.rt,practice_trials.key_resp.duration,BlankScreen.started,text.started,BlankScreen.stopped,fixCross.stopped,text.stopped,ExperimentStart.started,text_2.started,key_resp_5.started,ExperimentStart.stopped,blocks.key_resp_5.keys,blocks.key_resp_5.rt,blocks.key_resp_5.duration,trials.key_resp.keys,trials.key_resp.corr,trials.key_resp.rt,trials.key_resp.duration,Thanks.started,ThankYou.started,key_resp_3.started,Thanks.stopped,key_resp_3.keys,key_resp_3.rt,key_resp_3.duration,participant,leeftijd,gender,links/rechtshandig,date,expName,expVersion,psychopyVersion,expStart,
,,,,,,,,,,,,,,,,,,,,,,,,,,,,,,,,,,,,,,,,,,,,,,0.028834899999992558,0.061622999999940475,0.061622999999940475,50.300286099999994,space,50.08181300000001,None,,,,,,,,,,,,,,,,,,,,,,,,,,,,,,,,,,,,,,,,,,,,,,848,20,V,R,2026-02-23_11h10.01.418,VisualSearch_2526_3,,2025.2.4,2026-02-23 11h10.02.030999 +0100,
,,,,,,,,,,,,,,,,,,,,,,,,,,,,,,,,,,,,,,,,,,,,,,,,,,,,,50.30033990000004,50.305578200000014,54.82428909999999,y,4.509248500000012,None,,,,,,,,,,,,,,,,,,,,,,,,,,,,,,,,,,,,,,,,848,20,V,R,2026-02-23_11h10.01.418,VisualSearch_2526_3,,2025.2.4,2026-02-23 11h10.02.030999 +0100,
vertical.xlsx,The target is tilted.,135,0,0,0,0,1,1,1,1,1,1,1,1,1,1,1,1,11,12,135,space,9.17307310000001,None,0,1,2.5516481000000795,None,,,,0,0,0,1,0,0,0,4,,,,,64.16263449999997,,,,,,,,,,,,,,,54.922261100000014,54.922261100000014,54.922261100000014,space,9.17307310000001,None,64.1576781,64.16263449999997,64.62044630000003,64.62555520000001,64.63908930000002,67.20289930000001,0,1,2.5516481000000795,None,67.20301069999994,67.21897419999993,67.40326630000004,,,,,,,,,,,,,,,,,,,,,848,20,V,R,2026-02-23_11h10.01.418,VisualSearch_2526_3,,2025.2.4,2026-02-23 11h10.02.030999 +0100,
vertical.xlsx,The target is tilted.,135,1,1,0,1,0,0,0,0,0,0,0,0,0,0,0,0,0,1,135,space,9.17307310000001,None,1,1,0.7522946999999931,None,,,,0,0,0,1,0,1,1,3,,,,,67.41920989999994,,,,,,,,,,,,,,,,,,,,,67.40415399999995,67.41920989999994,67.90301190000002,67.90825469999993,67.9231651,68.68615390000002,1,1,0.7522946999999931,None,68.68629769999995,68.70162849999997,68.88600810000003,67.9231651,68.90210479999996,,,,,,,,,,,,,,,,,,,848,20,V,R,2026-02-23_11h10.01.418,VisualSearch_2526_3,,2025.2.4,2026-02-23 11h10.02.030999 +0100,
vertical.xlsx,The target is tilted.,135,2,2,0,0,1,1,1,0,0,0,0,0,0,0,0,1,3,4,135,space,9.17307310000001,None,0,1,1.2155774999999949,None,,,,0,0,0,1,0,2,2,6,,,,,68.90210479999996,,,,,,,,,,,,,,,,,,,,,68.8867616,68.90210479999996,69.38586239999995,69.39104959999997,69.40151579999997,70.61972259999993,0,1,1.2155774999999949,None,70.61994429999993,70.63465559999997,70.81811040000002,69.40151579999997,70.83468619999996,,,,,,,,,,,,,,,,,,,848,20,V,R,2026-02-23_11h10.01.418,VisualSearch_2526_3,,2025.2.4,2026-02-23 11h10.02.030999 +0100,
vertical.xlsx,The target is tilted.,135,3,3,0,0,1,1,1,1,1,1,1,0,0,0,0,1,7,8,135,space,9.17307310000001,None,0,1,2.193537200000037,None,,,,0,0,0,1,0,3,3,5,,,,,70.83468619999996,,,,,,,,,,,,,,,,,,,,,70.8184589,70.83468619999996,71.31895120000001,71.32434279999995,71.34160739999993,73.55076329999997,0,1,2.193537200000037,None,73.55085780000002,73.56705799999997,73.75069289999999,71.34160739999993,73.76698729999998,,,,,,,,,,,,,,,,,,,848,20,V,R,2026-02-23_11h10.01.418,VisualSearch_2526_3,,2025.2.4,2026-02-23 11h10.02.030999 +0100,
vertical.xlsx,The target is tilted.,135,4,4,0,1,1,1,1,1,1,1,1,1,1,1,1,0,11,12,135,space,9.17307310000001,None,1,1,1.6473106999999345,None,,,,0,0,0,1,0,4,4,0,,,,,73.76698729999998,,,,,,,,,,,,,,,,,,,,,73.75119010000003,73.76698729999998,74.25061729999993,74.25396609999996,74.26783760000001,75.91715420000003,1,1,1.6473106999999345,None,75.91728739999996,75.93296629999998,76.11695139999995,74.26783760000001,76.13318470000002,,,,,,,,,,,,,,,,,,,848,20,V,R,2026-02-23_11h10.01.418,VisualSearch_2526_3,,2025.2.4,2026-02-23 11h10.02.030999 +0100,
vertical.xlsx,The target is tilted.,135,5,5,0,1,1,1,1,1,1,1,1,0,0,0,0,0,7,8,135,space,9.17307310000001,None,1,1,0.6853903999999602,None,,,,0,0,0,1,0,5,5,1,,,,,76.13318470000002,,,,,,,,,,,,,,,,,,,,,76.11772689999998,76.13318470000002,76.61692540000001,76.62222829999996,76.63794389999998,77.33402560000002,1,1,0.6853903999999602,None,77.33426199999997,77.34920369999998,77.53322609999998,76.63794389999998,77.5492825,,,,,,,,,,,,,,,,,,,848,20,V,R,2026-02-23_11h10.01.418,VisualSearch_2526_3,,2025.2.4,2026-02-23 11h10.02.030999 +0100,
vertical.xlsx,The target is tilted.,135,6,6,0,1,1,1,1,0,0,0,0,0,0,0,0,0,3,4,135,space,9.17307310000001,None,1,1,0.9946724000000131,None,,,,0,0,0,1,0,6,6,2,,,,,77.5492825,,,,,,,,,,,,,,,,,,,,,77.53395990000001,77.5492825,78.033051,78.03837290000001,78.0567658,79.06677979999995,1,1,0.9946724000000131,None,79.06699660000004,79.08207819999996,79.26606789999994,78.0567658,79.28185269999994,,,,,,,,,,,,,,,,,,,848,20,V,R,2026-02-23_11h10.01.418,VisualSearch_2526_3,,2025.2.4,2026-02-23 11h10.02.030999 +0100,
vertical.xlsx,The target is tilted.,135,7,7,0,0,0,0,0,0,0,0,0,0,0,0,0,1,1,1,135,space,9.17307310000001,None,0,1,0.8074585000000525,None,,,,0,0,0,1,0,7,7,7,,,,,79.28185269999994,,,,,,,,,,,,,,,,,,,,,79.26682570000003,79.28185269999994,79.76547859999994,79.76893280000002,79.7815713,80.59911839999995,0,1,0.8074585000000525,None,80.59922740000002,80.61463749999996,80.79853019999996,79.7815713,80.81507309999995,,,,,,,,,,,,,,,,,,,848,20,V,R,2026-02-23_11h10.01.418,VisualSearch_2526_3,,2025.2.4,2026-02-23 11h10.02.030999 +0100,
vertical.xlsx,The target is tilted.,135,0,0,0,1,1,1,1,0,0,0,0,0,0,0,0,0,3,4,135,space,9.17307310000001,None,1,1,0.9651761000000079,None,space,3.276862900000083,None,0,0,0,1,,,,,0,0,0,2,84.12127199999998,,,,,,,,,,,,,,,,,,,,,84.11755110000001,84.12127199999998,84.61419119999994,84.62052749999998,84.63412119999998,85.61366469999996,,,,,85.6137721,85.62971240000002,85.81396749999999,,85.82965519999993,80.80738789999998,80.81507309999995,80.81507309999995,84.09779070000002,space,3.276862900000083,None,1,1,0.9651761000000079,None,,,,,,,,848,20,V,R,2026-02-23_11h10.01.418,VisualSearch_2526_3,,2025.2.4,2026-02-23 11h10.02.030999 +0100,
vertical.xlsx,The target is tilted.,135,1,1,0,0,1,1,1,1,1,1,1,0,0,0,0,1,7,8,135,space,9.17307310000001,None,0,1,1.7782865000000356,None,space,3.276862900000083,None,0,0,0,1,,,,,0,1,1,5,85.82965519999993,,,,,,,,,,,,,,,,,,,,,85.81495110000003,85.82965519999993,86.31409659999997,86.3202397,86.33976810000001,88.12964160000001,,,,,88.12973779999993,88.14536829999997,88.32908569999995,86.33976810000001,88.34538950000001,,,,,,,,0,1,1.7782865000000356,None,,,,,,,,848,20,V,R,2026-02-23_11h10.01.418,VisualSearch_2526_3,,2025.2.4,2026-02-23 11h10.02.030999 +0100,
vertical.xlsx,The target is tilted.,135,2,2,0,1,1,1,1,1,1,1,1,1,1,1,1,0,11,12,135,space,9.17307310000001,None,1,1,1.1747914000000037,None,space,3.276862900000083,None,0,0,0,1,,,,,0,2,2,0,88.34538950000001,,,,,,,,,,,,,,,,,,,,,88.32949269999995,88.34538950000001,88.82919719999995,88.83304759999999,88.8478189,90.02916099999993,,,,,90.02927769999997,90.04473229999996,90.22877979999998,88.8478189,90.24495939999997,,,,,,,,1,1,1.1747914000000037,None,,,,,,,,848,20,V,R,2026-02-23_11h10.01.418,VisualSearch_2526_3,,2025.2.4,2026-02-23 11h10.02.030999 +0100,
vertical.xlsx,The target is tilted.,135,3,3,0,1,1,1,1,1,1,1,1,0,0,0,0,0,7,8,135,space,9.17307310000001,None,1,1,1.5686706999999842,None,space,3.276862900000083,None,0,0,0,1,,,,,0,3,3,1,90.24495939999997,,,,,,,,,,,,,,,,,,,,,90.22940210000002,90.24495939999997,90.7285961,90.73237219999999,90.74464260000002,92.3281614,,,,,92.32825539999999,92.34393299999999,92.52807669999993,90.74464260000002,92.5440218,,,,,,,,1,1,1.5686706999999842,None,,,,,,,,848,20,V,R,2026-02-23_11h10.01.418,VisualSearch_2526_3,,2025.2.4,2026-02-23 11h10.02.030999 +0100,
vertical.xlsx,The target is tilted.,135,4,4,0,1,0,0,0,0,0,0,0,0,0,0,0,0,0,1,135,space,9.17307310000001,None,1,1,0.6183608999999706,None,space,3.276862900000083,None,0,0,0,1,,,,,0,4,4,3,92.5440218,,,,,,,,,,,,,,,,,,,,,92.52892080000004,92.5440218,93.02847889999998,93.03459959999998,93.05354269999998,93.67892640000002,,,,,93.67917999999997,93.69382970000004,93.87831979999999,93.05354269999998,93.89436249999994,,,,,,,,1,1,0.6183608999999706,None,,,,,,,,848,20,V,R,2026-02-23_11h10.01.418,VisualSearch_2526_3,,2025.2.4,2026-02-23 11h10.02.030999 +0100,
vertical.xlsx,The target is tilted.,135,5,5,0,0,1,1,1,1,1,1,1,1,1,1,1,1,11,12,135,space,9.17307310000001,None,0,1,2.13539209999999,None,space,3.276862900000083,None,0,0,0,1,,,,,0,5,5,4,93.89436249999994,,,,,,,,,,,,,,,,,,,,,93.87914999999998,93.89436249999994,94.37772849999999,94.38300259999994,94.4019002,96.54385649999995,,,,,96.54400529999998,96.55933149999998,96.74409749999995,94.4019002,96.75963779999995,,,,,,,,0,1,2.13539209999999,None,,,,,,,,848,20,V,R,2026-02-23_11h10.01.418,VisualSearch_2526_3,,2025.2.4,2026-02-23 11h10.02.030999 +0100,
vertical.xlsx,The target is tilted.,135,6,6,0,0,1,1,1,0,0,0,0,0,0,0,0,1,3,4,135,space,9.17307310000001,None,0,1,1.0201335000000427,None,space,3.276862900000083,None,0,0,0,1,,,,,0,6,6,6,96.75963779999995,,,,,,,,,,,,,,,,,,,,,96.7449474,96.75963779999995,97.24374109999997,97.24974309999993,97.26586450000002,98.29385249999996,,,,,98.29402749999997,98.30901419999998,98.49280299999998,97.26586450000002,98.50910739999995,,,,,,,,0,1,1.0201335000000427,None,,,,,,,,848,20,V,R,2026-02-23_11h10.01.418,VisualSearch_2526_3,,2025.2.4,2026-02-23 11h10.02.030999 +0100,
vertical.xlsx,The target is tilted.,135,7,7,0,0,0,0,0,0,0,0,0,0,0,0,0,1,1,1,135,space,9.17307310000001,None,0,1,0.7049650999999812,None,space,3.276862900000083,None,0,0,0,1,,,,,0,7,7,7,98.50910739999995,,,,,,,,,,,,,,,,,,,,,98.49341800000002,98.50910739999995,98.99341849999996,98.9987916,99.01435159999994,99.72670849999997,,,,,99.72692619999998,99.74200169999995,99.92591759999993,99.01435159999994,99.94184399999995,,,,,,,,0,1,0.7049650999999812,None,,,,,,,,848,20,V,R,2026-02-23_11h10.01.418,VisualSearch_2526_3,,2025.2.4,2026-02-23 11h10.02.030999 +0100,
vertical.xlsx,The target is tilted.,135,8,0,1,0,0,0,0,0,0,0,0,0,0,0,0,1,1,1,135,space,9.17307310000001,None,0,1,0.656984800000032,None,space,3.276862900000083,None,0,0,0,1,,,,,1,0,8,7,99.94184399999995,,,,,,,,,,,,,,,,,,,,,99.92673849999994,99.94184399999995,100.42575669999997,100.4311457,100.44678529999999,101.10953529999995,,,,,101.1097522,101.12492859999998,101.30900180000003,100.44678529999999,101.32501449999995,,,,,,,,0,1,0.656984800000032,None,,,,,,,,848,20,V,R,2026-02-23_11h10.01.418,VisualSearch_2526_3,,2025.2.4,2026-02-23 11h10.02.030999 +0100,
vertical.xlsx,The target is tilted.,135,9,1,1,1,1,1,1,1,1,1,1,1,1,1,1,0,11,12,135,space,9.17307310000001,None,1,1,1.1057217000000037,None,space,3.276862900000083,None,0,0,0,1,,,,,1,1,9,0,101.32501449999995,,,,,,,,,,,,,,,,,,,,,101.31002860000001,101.32501449999995,101.80900059999999,101.81444750000003,101.8290571,102.94264320000002,,,,,102.94287629999997,102.95746199999996,103.1419234,101.8290571,103.15795089999995,,,,,,,,1,1,1.1057217000000037,None,,,,,,,,848,20,V,R,2026-02-23_11h10.01.418,VisualSearch_2526_3,,2025.2.4,2026-02-23 11h10.02.030999 +0100,
vertical.xlsx,The target is tilted.,135,10,2,1,1,1,1,1,0,0,0,0,0,0,0,0,0,3,4,135,space,9.17307310000001,None,1,1,0.8011789000000817,None,space,3.276862900000083,None,0,0,0,1,,,,,1,2,10,2,103.15795089999995,,,,,,,,,,,,,,,,,,,,,103.14274879999994,103.15795089999995,103.6415581,103.6471325,103.66295830000001,104.47430439999994,,,,,104.47442109999997,104.49017589999994,104.67394439999998,103.66295830000001,104.69016529999999,,,,,,,,1,1,0.8011789000000817,None,,,,,,,,848,20,V,R,2026-02-23_11h10.01.418,VisualSearch_2526_3,,2025.2.4,2026-02-23 11h10.02.030999 +0100,
vertical.xlsx,The target is tilted.,135,11,3,1,0,1,1,1,1,1,1,1,1,1,1,1,1,11,12,135,space,9.17307310000001,None,0,1,2.284909999999968,None,space,3.276862900000083,None,0,0,0,1,,,,,1,3,11,4,104.69016529999999,,,,,,,,,,,,,,,,,,,,,104.67430569999999,104.69016529999999,105.17372360000002,105.17598120000002,105.19018689999996,107.48989429999995,,,,,107.48999000000003,107.50568350000003,107.689439,105.19018689999996,107.70588199999997,,,,,,,,0,1,2.284909999999968,None,,,,,,,,848,20,V,R,2026-02-23_11h10.01.418,VisualSearch_2526_3,,2025.2.4,2026-02-23 11h10.02.030999 +0100,
vertical.xlsx,The target is tilted.,135,12,4,1,1,1,1,1,1,1,1,1,0,0,0,0,0,7,8,135,space,9.17307310000001,None,1,1,0.9097684999999274,None,space,3.276862900000083,None,0,0,0,1,,,,,1,4,12,1,107.70588199999997,,,,,,,,,,,,,,,,,,,,,107.68989209999995,107.70588199999997,108.18957239999997,108.19216829999993,108.20580599999994,109.1224353,,,,,109.12253090000002,109.13860169999998,109.32282229999998,108.20580599999994,109.33893639999997,,,,,,,,1,1,0.9097684999999274,None,,,,,,,,848,20,V,R,2026-02-23_11h10.01.418,VisualSearch_2526_3,,2025.2.4,2026-02-23 11h10.02.030999 +0100,
vertical.xlsx,The target is tilted.,135,13,5,1,0,1,1,1,1,1,1,1,0,0,0,0,1,7,8,135,space,9.17307310000001,None,0,1,1.6025247999999692,None,space,3.276862900000083,None,0,0,0,1,,,,,1,5,13,5,109.33893639999997,,,,,,,,,,,,,,,,,,,,,109.32367729999999,109.33893639999997,109.82224569999994,109.82510100000002,109.83837389999997,111.45500129999994,,,,,111.45509049999998,111.47112279999999,111.65534919999993,109.83837389999997,,,,,,,,,0,1,1.6025247999999692,None,,,,,,,,848,20,V,R,2026-02-23_11h10.01.418,VisualSearch_2526_3,,2025.2.4,2026-02-23 11h10.02.030999 +0100,
vertical.xlsx,The target is tilted.,135,14,6,1,0,1,1,1,0,0,0,0,0,0,0,0,1,3,4,135,space,9.17307310000001,None,0,1,1.0141641000000163,None,space,3.276862900000083,None,0,0,0,1,,,,,1,6,14,6,111.6715921,,,,,,,,,,,,,,,,,,,,,111.65627110000003,111.6715921,112.15484719999995,112.15707559999998,112.17125920000001,113.18850889999999,,,,,113.18868169999996,113.20414199999993,113.38852109999993,112.17125920000001,113.40469010000004,,,,,,,,0,1,1.0141641000000163,None,,,,,,,,848,20,V,R,2026-02-23_11h10.01.418,VisualSearch_2526_3,,2025.2.4,2026-02-23 11h10.02.030999 +0100,
vertical.xlsx,The target is tilted.,135,15,7,1,1,0,0,0,0,0,0,0,0,0,0,0,0,0,1,135,space,9.17307310000001,None,1,1,0.8032459999999446,None,space,3.276862900000083,None,0,0,0,1,,,,,1,7,15,3,113.40469010000004,,,,,,,,,,,,,,,,,,,,,113.38934640000002,113.40469010000004,113.88834569999995,113.89383090000001,113.9080007,114.72110499999997,,,,,114.72125140000003,114.73690309999995,114.92111269999998,113.9080007,114.9371324,,,,,,,,1,1,0.8032459999999446,None,,,,,,,,848,20,V,R,2026-02-23_11h10.01.418,VisualSearch_2526_3,,2025.2.4,2026-02-23 11h10.02.030999 +0100,
vertical.xlsx,The target is tilted.,135,16,0,2,0,0,0,0,0,0,0,0,0,0,0,0,1,1,1,135,space,9.17307310000001,None,0,1,0.6132063000000016,None,space,3.276862900000083,None,0,0,0,1,,,,,2,0,16,7,114.9371324,,,,,,,,,,,,,,,,,,,,,114.9219392,114.9371324,115.42089680000004,115.42625599999997,115.44264409999994,116.07115160000001,,,,,116.07139059999997,116.08671029999994,116.27098460000002,115.44264409999994,116.28690259999996,,,,,,,,0,1,0.6132063000000016,None,,,,,,,,848,20,V,R,2026-02-23_11h10.01.418,VisualSearch_2526_3,,2025.2.4,2026-02-23 11h10.02.030999 +0100,
vertical.xlsx,The target is tilted.,135,17,1,2,0,1,1,1,0,0,0,0,0,0,0,0,1,3,4,135,space,9.17307310000001,None,0,1,0.8661090000000513,None,space,3.276862900000083,None,0,0,0,1,,,,,2,1,17,6,116.28690259999996,,,,,,,,,,,,,,,,,,,,,116.27178789999994,116.28690259999996,116.77044979999994,116.77584019999995,116.79170599999998,117.67014140000003,,,,,117.67028800000003,117.68583820000003,117.8700086,116.79170599999998,117.88610729999994,,,,,,,,0,1,0.8661090000000513,None,,,,,,,,848,20,V,R,2026-02-23_11h10.01.418,VisualSearch_2526_3,,2025.2.4,2026-02-23 11h10.02.030999 +0100,
vertical.xlsx,The target is tilted.,135,18,2,2,1,1,1,1,0,0,0,0,0,0,0,0,0,3,4,135,space,9.17307310000001,None,1,1,0.6121394000000464,None,space,3.276862900000083,None,0,0,0,1,,,,,2,2,18,2,117.88610729999994,,,,,,,,,,,,,,,,,,,,,117.87081079999996,117.88610729999994,118.3692691,118.37154539999995,118.38564109999993,119.00367879999999,,,,,119.003874,119.01897729999996,119.20296150000001,118.38564109999993,119.21919539999999,,,,,,,,1,1,0.6121394000000464,None,,,,,,,,848,20,V,R,2026-02-23_11h10.01.418,VisualSearch_2526_3,,2025.2.4,2026-02-23 11h10.02.030999 +0100,
vertical.xlsx,The target is tilted.,135,19,3,2,0,1,1,1,1,1,1,1,1,1,1,1,1,11,12,135,space,9.17307310000001,None,0,1,2.4390587000000323,None,space,3.276862900000083,None,0,0,0,1,,,,,2,3,19,4,119.21919539999999,,,,,,,,,,,,,,,,,,,,,119.20369849999997,119.21919539999999,119.70285530000001,119.70814870000004,119.72637269999996,122.16820089999999,,,,,122.16829110000003,122.18438389999994,122.3678476,119.72637269999996,122.38425689999997,,,,,,,,0,1,2.4390587000000323,None,,,,,,,,848,20,V,R,2026-02-23_11h10.01.418,VisualSearch_2526_3,,2025.2.4,2026-02-23 11h10.02.030999 +0100,
vertical.xlsx,The target is tilted.,135,20,4,2,1,1,1,1,1,1,1,1,0,0,0,0,0,7,8,135,space,9.17307310000001,None,1,1,1.3609241999999995,None,space,3.276862900000083,None,0,0,0,1,,,,,2,4,20,1,122.38425689999997,,,,,,,,,,,,,,,,,,,,,122.36823040000002,122.38425689999997,122.86810689999993,122.87069199999996,122.88449730000002,124.25115259999995,,,,,124.25124719999997,124.26690439999993,124.45089389999998,122.88449730000002,124.4670145,,,,,,,,1,1,1.3609241999999995,None,,,,,,,,848,20,V,R,2026-02-23_11h10.01.418,VisualSearch_2526_3,,2025.2.4,2026-02-23 11h10.02.030999 +0100,
vertical.xlsx,The target is tilted.,135,21,5,2,1,1,1,1,1,1,1,1,1,1,1,1,0,11,12,135,space,9.17307310000001,None,1,1,1.8071476999999732,None,space,3.276862900000083,None,0,0,0,1,,,,,2,5,21,0,124.4670145,,,,,,,,,,,,,,,,,,,,,124.45140349999997,124.4670145,124.95209030000001,124.95754850000003,124.97295550000001,126.78383210000004,,,,,126.78398329999993,126.79967529999999,126.98376659999997,124.97295550000001,126.9995877,,,,,,,,1,1,1.8071476999999732,None,,,,,,,,848,20,V,R,2026-02-23_11h10.01.418,VisualSearch_2526_3,,2025.2.4,2026-02-23 11h10.02.030999 +0100,
vertical.xlsx,The target is tilted.,135,22,6,2,1,0,0,0,0,0,0,0,0,0,0,0,0,0,1,135,space,9.17307310000001,None,1,1,0.5790015000000039,None,space,3.276862900000083,None,0,0,0,1,,,,,2,6,22,3,126.9995877,,,,,,,,,,,,,,,,,,,,,126.98458019999998,126.9995877,127.48351779999996,127.48706879999997,127.49961929999995,128.08378570000002,,,,,128.0839466,128.09924590000003,128.2833988,127.49961929999995,128.29982169999994,,,,,,,,1,1,0.5790015000000039,None,,,,,,,,848,20,V,R,2026-02-23_11h10.01.418,VisualSearch_2526_3,,2025.2.4,2026-02-23 11h10.02.030999 +0100,
vertical.xlsx,The target is tilted.,135,23,7,2,0,1,1,1,1,1,1,1,0,0,0,0,1,7,8,135,space,9.17307310000001,None,0,1,1.385713899999928,None,space,3.276862900000083,None,0,0,0,1,,,,,2,7,23,5,128.29982169999994,,,,,,,,,,,,,,,,,,,,,128.2842594,128.29982169999994,128.78329280000003,128.78880359999994,128.8079318,130.2001553,,,,,130.2003515,130.21537690000002,130.39936190000003,128.8079318,130.41556349999996,,,,,,,,0,1,1.385713899999928,None,,,,,,,,848,20,V,R,2026-02-23_11h10.01.418,VisualSearch_2526_3,,2025.2.4,2026-02-23 11h10.02.030999 +0100,
vertical.xlsx,The target is tilted.,135,24,0,3,1,1,1,1,0,0,0,0,0,0,0,0,0,3,4,135,space,9.17307310000001,None,1,1,1.1649280000000317,None,space,3.276862900000083,None,0,0,0,1,,,,,3,0,24,2,130.41556349999996,,,,,,,,,,,,,,,,,,,,,130.40018409999993,130.41556349999996,130.89926389999994,130.90475800000002,130.92172979999998,132.098744,,,,,132.09889279999993,132.11482779999994,132.29910459999996,130.92172979999998,132.31514159999995,,,,,,,,1,1,1.1649280000000317,None,,,,,,,,848,20,V,R,2026-02-23_11h10.01.418,VisualSearch_2526_3,,2025.2.4,2026-02-23 11h10.02.030999 +0100,
vertical.xlsx,The target is tilted.,135,25,1,3,1,1,1,1,1,1,1,1,1,1,1,1,0,11,12,135,space,9.17307310000001,None,1,1,1.4225145999999995,None,space,3.276862900000083,None,0,0,0,1,,,,,3,1,25,0,132.31514159999995,,,,,,,,,,,,,,,,,,,,,132.29991010000003,132.31514159999995,132.79874210000003,132.80356829999994,132.82024720000004,134.2481371,,,,,134.24830109999994,134.2639229,134.44828959999995,132.82024720000004,134.4644826,,,,,,,,1,1,1.4225145999999995,None,,,,,,,,848,20,V,R,2026-02-23_11h10.01.418,VisualSearch_2526_3,,2025.2.4,2026-02-23 11h10.02.030999 +0100,
vertical.xlsx,The target is tilted.,135,26,2,3,1,1,1,1,1,1,1,1,0,0,0,0,0,7,8,135,space,9.17307310000001,None,1,1,1.0361912000000757,None,space,3.276862900000083,None,0,0,0,1,,,,,3,2,26,1,134.4644826,,,,,,,,,,,,,,,,,,,,,134.44912779999993,134.4644826,134.94799420000004,134.95313049999993,134.9661565,136.01487669999995,,,,,136.0150526,136.03008139999997,136.21453840000004,134.9661565,136.23054719999993,,,,,,,,1,1,1.0361912000000757,None,,,,,,,,848,20,V,R,2026-02-23_11h10.01.418,VisualSearch_2526_3,,2025.2.4,2026-02-23 11h10.02.030999 +0100,
vertical.xlsx,The target is tilted.,135,27,3,3,0,1,1,1,1,1,1,1,1,1,1,1,1,11,12,135,space,9.17307310000001,None,0,1,2.3460157000000663,None,space,3.276862900000083,None,0,0,0,1,,,,,3,3,27,4,136.23054719999993,,,,,,,,,,,,,,,,,,,,,136.21534180000003,136.23054719999993,136.7136812,136.71778040000004,136.73127599999998,139.0806149,,,,,139.08083769999996,139.09584459999996,139.2792303,136.73127599999998,139.29563210000003,,,,,,,,0,1,2.3460157000000663,None,,,,,,,,848,20,V,R,2026-02-23_11h10.01.418,VisualSearch_2526_3,,2025.2.4,2026-02-23 11h10.02.030999 +0100,
vertical.xlsx,The target is tilted.,135,28,4,3,0,1,1,1,1,1,1,1,0,0,0,0,1,7,8,135,space,9.17307310000001,None,0,1,2.0802303000000393,None,space,3.276862900000083,None,0,0,0,1,,,,,3,4,28,5,139.29563210000003,,,,,,,,,,,,,,,,,,,,,139.27961589999995,139.29563210000003,139.77994119999994,139.7853169,139.80147369999997,141.89608429999998,,,,,141.89630079999995,141.91169560000003,142.09585700000002,139.80147369999997,142.11200180000003,,,,,,,,0,1,2.0802303000000393,None,,,,,,,,848,20,V,R,2026-02-23_11h10.01.418,VisualSearch_2526_3,,2025.2.4,2026-02-23 11h10.02.030999 +0100,
vertical.xlsx,The target is tilted.,135,29,5,3,1,0,0,0,0,0,0,0,0,0,0,0,0,0,1,135,space,9.17307310000001,None,1,1,0.5359767000001057,None,space,3.276862900000083,None,0,0,0,1,,,,,3,5,29,3,142.11200180000003,,,,,,,,,,,,,,,,,,,,,142.0967005,142.11200180000003,142.59529250000003,142.60058089999995,142.61755470000003,143.16184409999994,,,,,143.16195649999997,143.17747780000002,143.36123539999994,142.61755470000003,143.37768319999998,,,,,,,,1,1,0.5359767000001057,None,,,,,,,,848,20,V,R,2026-02-23_11h10.01.418,VisualSearch_2526_3,,2025.2.4,2026-02-23 11h10.02.030999 +0100,
vertical.xlsx,The target is tilted.,135,30,6,3,0,0,0,0,0,0,0,0,0,0,0,0,1,1,1,135,space,9.17307310000001,None,0,1,0.6916942999999947,None,space,3.276862900000083,None,0,0,0,1,,,,,3,6,30,7,143.37768319999998,,,,,,,,,,,,,,,,,,,,,143.36166179999998,143.37768319999998,143.86115359999997,143.86317480000002,143.87782830000003,144.57824419999997,,,,,144.57839560000002,144.59372889999997,144.77797079999993,143.87782830000003,144.79445839999994,,,,,,,,0,1,0.6916942999999947,None,,,,,,,,848,20,V,R,2026-02-23_11h10.01.418,VisualSearch_2526_3,,2025.2.4,2026-02-23 11h10.02.030999 +0100,
vertical.xlsx,The target is tilted.,135,31,7,3,0,1,1,1,0,0,0,0,0,0,0,0,1,3,4,135,space,9.17307310000001,None,0,1,1.493226400000026,None,space,3.276862900000083,None,0,0,0,1,,,,,3,7,31,6,144.79445839999994,,,,,,,,,,,,,,,,,,,,,144.77870770000004,144.79445839999994,145.2775133,145.28039339999998,145.29386339999996,146.7945052,,,,,146.79470159999994,146.81000159999996,146.9941017,145.29386339999996,147.01006640000003,,,,,,,,0,1,1.493226400000026,None,,,,,,,,848,20,V,R,2026-02-23_11h10.01.418,VisualSearch_2526_3,,2025.2.4,2026-02-23 11h10.02.030999 +0100,
vertical.xlsx,The target is tilted.,135,32,0,4,1,1,1,1,1,1,1,1,1,1,1,1,0,11,12,135,space,9.17307310000001,None,1,1,1.1632251999999426,None,space,3.276862900000083,None,0,0,0,1,,,,,4,0,32,0,147.01006640000003,,,,,,,,,,,,,,,,,,,,,146.9950536,147.01006640000003,147.49380869999993,147.49913419999996,147.5171878,148.69355099999996,,,,,148.6937454,148.70939639999995,148.8937489,147.5171878,148.90942489999998,,,,,,,,1,1,1.1632251999999426,None,,,,,,,,848,20,V,R,2026-02-23_11h10.01.418,VisualSearch_2526_3,,2025.2.4,2026-02-23 11h10.02.030999 +0100,
vertical.xlsx,The target is tilted.,135,33,1,4,0,1,1,1,1,1,1,1,1,1,1,1,1,11,12,135,space,9.17307310000001,None,0,1,2.513781300000005,None,space,3.276862900000083,None,0,0,0,1,,,,,4,1,33,4,148.90942489999998,,,,,,,,,,,,,,,,,,,,,148.89454420000004,148.90942489999998,149.3929475,149.396474,149.40887429999998,151.92644410000003,,,,,151.9266626,151.94155709999995,152.1260638,149.40887429999998,152.1421279,,,,,,,,0,1,2.513781300000005,None,,,,,,,,848,20,V,R,2026-02-23_11h10.01.418,VisualSearch_2526_3,,2025.2.4,2026-02-23 11h10.02.030999 +0100,
vertical.xlsx,The target is tilted.,135,34,2,4,1,1,1,1,1,1,1,1,0,0,0,0,0,7,8,135,space,9.17307310000001,None,1,1,1.3074082000000544,None,space,3.276862900000083,None,0,0,0,1,,,,,4,2,34,1,152.1421279,,,,,,,,,,,,,,,,,,,,,152.1268612,152.1421279,152.62555599999996,152.63093589999994,152.647109,153.95845699999995,,,,,153.95864359999996,153.9742764,154.15801199999999,152.647109,154.17439460000003,,,,,,,,1,1,1.3074082000000544,None,,,,,,,,848,20,V,R,2026-02-23_11h10.01.418,VisualSearch_2526_3,,2025.2.4,2026-02-23 11h10.02.030999 +0100,
vertical.xlsx,The target is tilted.,135,35,3,4,0,1,1,1,1,1,1,1,0,0,0,0,1,7,8,135,space,9.17307310000001,None,0,1,1.821103600000015,None,space,3.276862900000083,None,0,0,0,1,,,,,4,3,35,5,154.17439460000003,,,,,,,,,,,,,,,,,,,,,154.15853400000003,154.17439460000003,154.65830219999998,154.66363920000003,154.67868829999998,156.50855330000002,,,,,156.50881029999994,156.52352380000002,156.70723220000002,154.67868829999998,156.72328529999993,,,,,,,,0,1,1.821103600000015,None,,,,,,,,848,20,V,R,2026-02-23_11h10.01.418,VisualSearch_2526_3,,2025.2.4,2026-02-23 11h10.02.030999 +0100,
vertical.xlsx,The target is tilted.,135,36,4,4,1,1,1,1,0,0,0,0,0,0,0,0,0,3,4,135,space,9.17307310000001,None,1,1,0.8979408999999805,None,space,3.276862900000083,None,0,0,0,1,,,,,4,4,36,2,156.72328529999993,,,,,,,,,,,,,,,,,,,,,156.70778719999998,156.72328529999993,157.20701910000002,157.21017889999996,157.22370190000004,158.12339659999998,,,,,158.1234905,158.13939749999997,158.32374259999995,157.22370190000004,158.33969809999996,,,,,,,,1,1,0.8979408999999805,None,,,,,,,,848,20,V,R,2026-02-23_11h10.01.418,VisualSearch_2526_3,,2025.2.4,2026-02-23 11h10.02.030999 +0100,
vertical.xlsx,The target is tilted.,135,37,5,4,0,0,0,0,0,0,0,0,0,0,0,0,1,1,1,135,space,9.17307310000001,None,0,1,0.8552144999999882,None,space,3.276862900000083,None,0,0,0,1,,,,,4,5,37,7,158.33969809999996,,,,,,,,,,,,,,,,,,,,,158.32457799999997,158.33969809999996,158.8229384,158.82556820000002,158.83942330000002,159.70715369999994,,,,,159.7072994,159.7223586,159.90642460000004,158.83942330000002,159.9225278,,,,,,,,0,1,0.8552144999999882,None,,,,,,,,848,20,V,R,2026-02-23_11h10.01.418,VisualSearch_2526_3,,2025.2.4,2026-02-23 11h10.02.030999 +0100,
vertical.xlsx,The target is tilted.,135,38,6,4,1,0,0,0,0,0,0,0,0,0,0,0,0,0,1,135,space,9.17307310000001,None,1,1,0.5772056999999222,None,space,3.276862900000083,None,0,0,0,1,,,,,4,6,38,3,159.9225278,,,,,,,,,,,,,,,,,,,,,159.90723389999994,159.9225278,160.40577050000002,160.4085291,160.42209739999998,161.00665530000003,,,,,161.0068314,161.02198509999994,161.20554489999995,160.42209739999998,161.2219705,,,,,,,,1,1,0.5772056999999222,None,,,,,,,,848,20,V,R,2026-02-23_11h10.01.418,VisualSearch_2526_3,,2025.2.4,2026-02-23 11h10.02.030999 +0100,
vertical.xlsx,The target is tilted.,135,39,7,4,0,1,1,1,0,0,0,0,0,0,0,0,1,3,4,135,space,9.17307310000001,None,0,1,0.9192014999999856,None,space,3.276862900000083,None,0,0,0,1,,,,,4,7,39,6,161.2219705,,,,,,,,,,,,,,,,,,,,,161.20594849999998,161.2219705,161.70626229999993,161.711181,161.72207249999997,162.65611669999998,,,,,162.65627529999995,162.67143729999998,162.85513990000004,161.72207249999997,162.8714344,,,,,,,,0,1,0.9192014999999856,None,,,,,,,,848,20,V,R,2026-02-23_11h10.01.418,VisualSearch_2526_3,,2025.2.4,2026-02-23 11h10.02.030999 +0100,
vertical.xlsx,The target is tilted.,135,40,0,5,0,1,1,1,1,1,1,1,1,1,1,1,1,11,12,135,space,9.17307310000001,None,0,1,2.0068678999999747,None,space,3.276862900000083,None,0,0,0,1,,,,,5,0,40,4,162.8714344,,,,,,,,,,,,,,,,,,,,,162.85555679999993,162.8714344,163.35498080000002,163.35683729999994,163.37155989999997,165.38772829999994,,,,,165.3878148,165.4036016,165.58711089999997,163.37155989999997,165.60366639999995,,,,,,,,0,1,2.0068678999999747,None,,,,,,,,848,20,V,R,2026-02-23_11h10.01.418,VisualSearch_2526_3,,2025.2.4,2026-02-23 11h10.02.030999 +0100,
vertical.xlsx,The target is tilted.,135,41,1,5,1,0,0,0,0,0,0,0,0,0,0,0,0,0,1,135,space,9.17307310000001,None,1,1,0.6396054000000504,None,space,3.276862900000083,None,0,0,0,1,,,,,5,1,41,3,165.60366639999995,,,,,,,,,,,,,,,,,,,,,165.58744839999997,165.60366639999995,166.08715949999998,166.08938049999995,166.10344880000002,166.75387950000004,,,,,166.75397639999994,166.76988370000004,166.95336350000002,166.10344880000002,166.96985899999993,,,,,,,,1,1,0.6396054000000504,None,,,,,,,,848,20,V,R,2026-02-23_11h10.01.418,VisualSearch_2526_3,,2025.2.4,2026-02-23 11h10.02.030999 +0100,
vertical.xlsx,The target is tilted.,135,42,2,5,1,1,1,1,0,0,0,0,0,0,0,0,0,3,4,135,space,9.17307310000001,None,1,1,0.5996827000000167,None,space,3.276862900000083,None,0,0,0,1,,,,,5,2,42,2,166.96985899999993,,,,,,,,,,,,,,,,,,,,,166.95370760000003,166.96985899999993,167.45312419999993,167.4547721,167.46997469999997,168.07055949999994,,,,,168.07070780000004,168.0862773,168.2704245,167.46997469999997,168.28677119999998,,,,,,,,1,1,0.5996827000000167,None,,,,,,,,848,20,V,R,2026-02-23_11h10.01.418,VisualSearch_2526_3,,2025.2.4,2026-02-23 11h10.02.030999 +0100,
vertical.xlsx,The target is tilted.,135,43,3,5,1,1,1,1,1,1,1,1,0,0,0,0,0,7,8,135,space,9.17307310000001,None,1,1,1.4606165000000146,None,space,3.276862900000083,None,0,0,0,1,,,,,5,3,43,1,168.28677119999998,,,,,,,,,,,,,,,,,,,,,168.2712507,168.28677119999998,168.77023359999998,168.77564099999995,168.79215599999998,170.26951229999997,,,,,170.26962059999994,170.28547159999994,170.46969060000004,168.79215599999998,170.48575849999997,,,,,,,,1,1,1.4606165000000146,None,,,,,,,,848,20,V,R,2026-02-23_11h10.01.418,VisualSearch_2526_3,,2025.2.4,2026-02-23 11h10.02.030999 +0100,
vertical.xlsx,The target is tilted.,135,44,4,5,1,1,1,1,1,1,1,1,1,1,1,1,0,11,12,135,space,9.17307310000001,None,1,1,1.369308100000012,None,space,3.276862900000083,None,0,0,0,1,,,,,5,4,44,0,170.48575849999997,,,,,,,,,,,,,,,,,,,,,170.4705063,170.48575849999997,170.96954589999996,170.97503670000003,170.99156879999998,172.36920339999995,,,,,172.36937639999996,172.38477449999993,172.5692884,170.99156879999998,172.5854011,,,,,,,,1,1,1.369308100000012,None,,,,,,,,848,20,V,R,2026-02-23_11h10.01.418,VisualSearch_2526_3,,2025.2.4,2026-02-23 11h10.02.030999 +0100,
vertical.xlsx,The target is tilted.,135,45,5,5,0,1,1,1,1,1,1,1,0,0,0,0,1,7,8,135,space,9.17307310000001,None,0,1,2.065567299999998,None,space,3.276862900000083,None,0,0,0,1,,,,,5,5,45,5,172.5854011,,,,,,,,,,,,,,,,,,,,,172.57013259999997,172.5854011,173.06896059999997,173.07458789999998,173.09350269999993,175.1684914,,,,,175.16867149999996,175.1842626,175.36804949999998,173.09350269999993,175.3842661,,,,,,,,0,1,2.065567299999998,None,,,,,,,,848,20,V,R,2026-02-23_11h10.01.418,VisualSearch_2526_3,,2025.2.4,2026-02-23 11h10.02.030999 +0100,
vertical.xlsx,The target is tilted.,135,46,6,5,0,1,1,1,0,0,0,0,0,0,0,0,1,3,4,135,space,9.17307310000001,None,0,1,1.277946199999974,None,space,3.276862900000083,None,0,0,0,1,,,,,5,6,46,6,175.3842661,,,,,,,,,,,,,,,,,,,,,175.36871099999996,175.3842661,175.8680008,175.87361569999996,175.88756179999996,177.1672466,,,,,177.16734459999998,177.18311189999997,177.36683140000002,175.88756179999996,177.38326389999997,,,,,,,,0,1,1.277946199999974,None,,,,,,,,848,20,V,R,2026-02-23_11h10.01.418,VisualSearch_2526_3,,2025.2.4,2026-02-23 11h10.02.030999 +0100,
vertical.xlsx,The target is tilted.,135,47,7,5,0,0,0,0,0,0,0,0,0,0,0,0,1,1,1,135,space,9.17307310000001,None,0,1,0.606903299999999,None,space,3.276862900000083,None,0,0,0,1,,,,,5,7,47,7,177.38326389999997,,,,,,,,,,,,,,,,,,,,,177.36723859999995,177.38326389999997,177.8665965,177.8686288,177.8828588,178.49992269999996,,,,,178.5000136,178.51602860000003,178.69962099999998,177.8828588,178.7159901,,,,,,,,0,1,0.606903299999999,None,,,,,,,,848,20,V,R,2026-02-23_11h10.01.418,VisualSearch_2526_3,,2025.2.4,2026-02-23 11h10.02.030999 +0100,
vertical.xlsx,The target is tilted.,135,48,0,6,1,0,0,0,0,0,0,0,0,0,0,0,0,0,1,135,space,9.17307310000001,None,1,1,0.5348203000000922,None,space,3.276862900000083,None,0,0,0,1,,,,,6,0,48,3,178.7159901,,,,,,,,,,,,,,,,,,,,,178.69998399999997,178.7159901,179.1994105,179.20167649999996,179.21583539999995,179.7663751,,,,,179.76647049999997,179.78242060000002,179.96581779999997,179.21583539999995,179.9822762,,,,,,,,1,1,0.5348203000000922,None,,,,,,,,848,20,V,R,2026-02-23_11h10.01.418,VisualSearch_2526_3,,2025.2.4,2026-02-23 11h10.02.030999 +0100,
vertical.xlsx,The target is tilted.,135,49,1,6,0,1,1,1,0,0,0,0,0,0,0,0,1,3,4,135,space,9.17307310000001,None,0,1,1.0711145999999871,None,space,3.276862900000083,None,0,0,0,1,,,,,6,1,49,6,179.9822762,,,,,,,,,,,,,,,,,,,,,179.9661903,179.9822762,180.46578249999993,180.46792340000002,180.4821614,181.56563770000002,,,,,181.56573849999995,181.58173379999994,181.76523129999998,180.4821614,181.78160949999995,,,,,,,,0,1,1.0711145999999871,None,,,,,,,,848,20,V,R,2026-02-23_11h10.01.418,VisualSearch_2526_3,,2025.2.4,2026-02-23 11h10.02.030999 +0100,
vertical.xlsx,The target is tilted.,135,50,2,6,1,1,1,1,0,0,0,0,0,0,0,0,0,3,4,135,space,9.17307310000001,None,1,1,0.791528900000003,None,space,3.276862900000083,None,0,0,0,1,,,,,6,2,50,2,181.78160949999995,,,,,,,,,,,,,,,,,,,,,181.76559880000002,181.78160949999995,182.26514580000003,182.26749870000003,182.28158410000003,183.08197389999998,,,,,183.08207149999998,183.0979476,183.28154229999996,182.28158410000003,183.29790849999995,,,,,,,,1,1,0.791528900000003,None,,,,,,,,848,20,V,R,2026-02-23_11h10.01.418,VisualSearch_2526_3,,2025.2.4,2026-02-23 11h10.02.030999 +0100,
vertical.xlsx,The target is tilted.,135,51,3,6,0,1,1,1,1,1,1,1,0,0,0,0,1,7,8,135,space,9.17307310000001,None,0,1,1.7366868999999951,None,space,3.276862900000083,None,0,0,0,1,,,,,6,3,51,5,183.29790849999995,,,,,,,,,,,,,,,,,,,,,183.28191070000003,183.29790849999995,183.78119589999994,183.78305039999998,183.79773699999998,185.54805720000002,,,,,185.54816959999994,185.56376369999998,185.74771599999997,183.79773699999998,185.76394889999995,,,,,,,,0,1,1.7366868999999951,None,,,,,,,,848,20,V,R,2026-02-23_11h10.01.418,VisualSearch_2526_3,,2025.2.4,2026-02-23 11h10.02.030999 +0100,
vertical.xlsx,The target is tilted.,135,52,4,6,0,0,0,0,0,0,0,0,0,0,0,0,1,1,1,135,space,9.17307310000001,None,0,1,1.0401650000000018,None,space,3.276862900000083,None,0,0,0,1,,,,,6,4,52,7,185.76394889999995,,,,,,,,,,,,,,,,,,,,,185.74830380000003,185.76394889999995,186.24736729999995,186.24962329999994,186.26390289999995,187.31453279999994,,,,,187.3147212,187.3301424,187.51465180000002,186.26390289999995,187.53022880000003,,,,,,,,0,1,1.0401650000000018,None,,,,,,,,848,20,V,R,2026-02-23_11h10.01.418,VisualSearch_2526_3,,2025.2.4,2026-02-23 11h10.02.030999 +0100,
vertical.xlsx,The target is tilted.,135,53,5,6,1,1,1,1,1,1,1,1,0,0,0,0,0,7,8,135,space,9.17307310000001,None,1,1,0.9571540000000596,None,space,3.276862900000083,None,0,0,0,1,,,,,6,5,53,1,187.53022880000003,,,,,,,,,,,,,,,,,,,,,187.5154804,187.53022880000003,188.0140149,188.0188776,188.03171829999997,188.9967507,,,,,188.99720059999993,189.01267129999997,189.19692869999994,188.03171829999997,189.21304409999993,,,,,,,,1,1,0.9571540000000596,None,,,,,,,,848,20,V,R,2026-02-23_11h10.01.418,VisualSearch_2526_3,,2025.2.4,2026-02-23 11h10.02.030999 +0100,
vertical.xlsx,The target is tilted.,135,54,6,6,0,1,1,1,1,1,1,1,1,1,1,1,1,11,12,135,space,9.17307310000001,None,0,1,2.101807000000008,None,space,3.276862900000083,None,0,0,0,1,,,,,6,6,54,4,189.21304409999993,,,,,,,,,,,,,,,,,,,,,189.19776319999994,189.21304409999993,189.69685170000002,189.7019467,189.71480310000004,191.8292447,,,,,191.82933430000003,191.84495300000003,192.02880119999998,189.71480310000004,192.0451167,,,,,,,,0,1,2.101807000000008,None,,,,,,,,848,20,V,R,2026-02-23_11h10.01.418,VisualSearch_2526_3,,2025.2.4,2026-02-23 11h10.02.030999 +0100,
vertical.xlsx,The target is tilted.,135,55,7,6,1,1,1,1,1,1,1,1,1,1,1,1,0,11,12,135,space,9.17307310000001,None,1,1,1.2245767999999089,None,space,3.276862900000083,None,0,0,0,1,,,,,6,7,55,0,192.0451167,,,,,,,,,,,,,,,,,,,,,192.02923469999996,192.0451167,192.52916849999997,192.53274090000002,192.54502130000003,193.7788021,,,,,193.77892350000002,193.79466409999998,193.97809589999997,192.54502130000003,193.99465929999997,,,,,,,,1,1,1.2245767999999089,None,,,,,,,,848,20,V,R,2026-02-23_11h10.01.418,VisualSearch_2526_3,,2025.2.4,2026-02-23 11h10.02.030999 +0100,
vertical.xlsx,The target is tilted.,135,56,0,7,0,1,1,1,0,0,0,0,0,0,0,0,1,3,4,135,space,9.17307310000001,None,0,1,0.8643135999999458,None,space,3.276862900000083,None,0,0,0,1,,,,,7,0,56,6,193.99465929999997,,,,,,,,,,,,,,,,,,,,,193.97847209999998,193.99465929999997,194.4788261,194.4843773,194.5016316,195.37844959999995,,,,,195.37857969999993,195.39389419999998,195.57784719999995,194.5016316,195.59424230000002,,,,,,,,0,1,0.8643135999999458,None,,,,,,,,848,20,V,R,2026-02-23_11h10.01.418,VisualSearch_2526_3,,2025.2.4,2026-02-23 11h10.02.030999 +0100,
vertical.xlsx,The target is tilted.,135,57,1,7,1,1,1,1,1,1,1,1,1,1,1,1,0,11,12,135,space,9.17307310000001,None,1,1,0.9771226999999953,None,space,3.276862900000083,None,0,0,0,1,,,,,7,1,57,0,195.59424230000002,,,,,,,,,,,,,,,,,,,,,195.57834130000003,195.59424230000002,196.07811989999993,196.08357190000004,196.10042220000003,197.09412369999995,,,,,197.0942361,197.11011150000002,197.29429949999997,196.10042220000003,197.31031280000002,,,,,,,,1,1,0.9771226999999953,None,,,,,,,,848,20,V,R,2026-02-23_11h10.01.418,VisualSearch_2526_3,,2025.2.4,2026-02-23 11h10.02.030999 +0100,
vertical.xlsx,The target is tilted.,135,58,2,7,0,1,1,1,1,1,1,1,0,0,0,0,1,7,8,135,space,9.17307310000001,None,0,1,2.883072600000105,None,space,3.276862900000083,None,0,0,0,1,,,,,7,2,58,5,197.31031280000002,,,,,,,,,,,,,,,,,,,,,197.2951041,197.31031280000002,197.79390109999997,197.79732409999997,197.81190070000002,200.70988899999998,,,,,200.71000789999994,200.7257399,200.90943719999996,197.81190070000002,200.92565909999996,,,,,,,,0,1,2.883072600000105,None,,,,,,,,848,20,V,R,2026-02-23_11h10.01.418,VisualSearch_2526_3,,2025.2.4,2026-02-23 11h10.02.030999 +0100,
vertical.xlsx,The target is tilted.,135,59,3,7,0,0,0,0,0,0,0,0,0,0,0,0,1,1,1,135,space,9.17307310000001,None,0,1,0.6655752000000348,None,space,3.276862900000083,None,0,0,0,1,,,,,7,3,59,7,200.92565909999996,,,,,,,,,,,,,,,,,,,,,200.90984319999995,200.92565909999996,201.40984909999997,201.41550870000003,201.43257389999997,202.11054279999996,,,,,202.1107601,202.12534559999995,202.30871330000002,201.43257389999997,202.32507939999994,,,,,,,,0,1,0.6655752000000348,None,,,,,,,,848,20,V,R,2026-02-23_11h10.01.418,VisualSearch_2526_3,,2025.2.4,2026-02-23 11h10.02.030999 +0100,
vertical.xlsx,The target is tilted.,135,60,4,7,1,1,1,1,1,1,1,1,0,0,0,0,0,7,8,135,space,9.17307310000001,None,1,1,1.6785928000000467,None,space,3.276862900000083,None,0,0,0,1,,,,,7,4,60,1,202.32507939999994,,,,,,,,,,,,,,,,,,,,,202.30910199999994,202.32507939999994,202.80966009999997,202.81505900000002,202.83322250000003,204.52476739999997,,,,,204.52487580000002,204.54083409999998,204.72440670000003,202.83322250000003,204.74089549999997,,,,,,,,1,1,1.6785928000000467,None,,,,,,,,848,20,V,R,2026-02-23_11h10.01.418,VisualSearch_2526_3,,2025.2.4,2026-02-23 11h10.02.030999 +0100,
vertical.xlsx,The target is tilted.,135,61,5,7,1,1,1,1,0,0,0,0,0,0,0,0,0,3,4,135,space,9.17307310000001,None,1,1,0.6340216000000964,None,space,3.276862900000083,None,0,0,0,1,,,,,7,5,61,2,204.74089549999997,,,,,,,,,,,,,,,,,,,,,204.724744,204.74089549999997,205.22527879999996,205.23163049999994,205.2454672,205.89109080000003,,,,,205.89119070000004,205.9072284,206.0914732,205.2454672,,,,,,,,,1,1,0.6340216000000964,None,,,,,,,,848,20,V,R,2026-02-23_11h10.01.418,VisualSearch_2526_3,,2025.2.4,2026-02-23 11h10.02.030999 +0100,
vertical.xlsx,The target is tilted.,135,62,6,7,0,1,1,1,1,1,1,1,1,1,1,1,1,11,12,135,space,9.17307310000001,None,0,1,2.9429759000000786,None,space,3.276862900000083,None,0,0,0,1,,,,,7,6,62,4,206.10761630000002,,,,,,,,,,,,,,,,,,,,,206.09243809999998,206.10761630000002,206.59140909999996,206.5969285,206.6137847,209.57343119999996,,,,,209.57355610000002,209.5898902,209.7730302,,209.78946139999994,,,,,,,,0,1,2.9429759000000786,None,,,,,,,,848,20,V,R,2026-02-23_11h10.01.418,VisualSearch_2526_3,,2025.2.4,2026-02-23 11h10.02.030999 +0100,
vertical.xlsx,The target is tilted.,135,63,7,7,1,0,0,0,0,0,0,0,0,0,0,0,0,0,1,135,space,9.17307310000001,None,1,1,0.5759047999999893,None,space,3.276862900000083,None,0,0,0,1,,,,,7,7,63,3,209.78946139999994,,,,,,,,,,,,,,,,,,,,,209.77342639999995,209.78946139999994,210.27358449999997,210.2789368,210.29307570000003,210.8738952,,,,,210.87411539999994,210.88923650000004,211.07361789999993,210.29307570000003,211.08924590000004,,,,,,,,1,1,0.5759047999999893,None,,,,,,,,848,20,V,R,2026-02-23_11h10.01.418,VisualSearch_2526_3,,2025.2.4,2026-02-23 11h10.02.030999 +0100,
vertical.xlsx,The target is tilted.,135,64,0,8,0,1,1,1,1,1,1,1,0,0,0,0,1,7,8,135,space,9.17307310000001,None,0,1,2.9583125000000337,None,space,3.276862900000083,None,0,0,0,1,,,,,8,0,64,5,211.08924590000004,,,,,,,,,,,,,,,,,,,,,211.07444050000004,211.08924590000004,211.5730132,211.57818339999994,211.59615869999993,214.5562182,,,,,214.55643650000002,214.57145719999994,214.75511529999994,211.59615869999993,214.77167109999993,,,,,,,,0,1,2.9583125000000337,None,,,,,,,,848,20,V,R,2026-02-23_11h10.01.418,VisualSearch_2526_3,,2025.2.4,2026-02-23 11h10.02.030999 +0100,
vertical.xlsx,The target is tilted.,135,65,1,8,0,1,1,1,1,1,1,1,1,1,1,1,1,11,12,135,space,9.17307310000001,None,0,1,3.168565199999989,None,space,3.276862900000083,None,0,0,0,1,,,,,8,1,65,4,214.77167109999993,,,,,,,,,,,,,,,,,,,,,214.75580209999998,214.77167109999993,215.25569410000003,215.26026490000004,215.27134739999997,218.45414889999995,,,,,218.45427570000004,218.4698297,218.6536708,215.27134739999997,218.6700624,,,,,,,,0,1,3.168565199999989,None,,,,,,,,848,20,V,R,2026-02-23_11h10.01.418,VisualSearch_2526_3,,2025.2.4,2026-02-23 11h10.02.030999 +0100,
vertical.xlsx,The target is tilted.,135,66,2,8,1,0,0,0,0,0,0,0,0,0,0,0,0,0,1,135,space,9.17307310000001,None,1,1,0.5125979999999117,None,space,3.276862900000083,None,0,0,0,1,,,,,8,2,66,3,218.6700624,,,,,,,,,,,,,,,,,,,,,218.65407900000002,218.6700624,219.15390530000002,219.15915369999993,219.17742529999998,219.70429549999994,,,,,219.70449139999994,219.7196781,219.9037025,219.17742529999998,219.91967509999995,,,,,,,,1,1,0.5125979999999117,None,,,,,,,,848,20,V,R,2026-02-23_11h10.01.418,VisualSearch_2526_3,,2025.2.4,2026-02-23 11h10.02.030999 +0100,
vertical.xlsx,The target is tilted.,135,67,3,8,0,0,0,0,0,0,0,0,0,0,0,0,1,1,1,135,space,9.17307310000001,None,0,1,0.6440942000000405,None,space,3.276862900000083,None,0,0,0,1,,,,,8,3,67,7,219.91967509999995,,,,,,,,,,,,,,,,,,,,,219.90452319999997,219.91967509999995,220.40345790000003,220.40877950000004,220.4247977,221.07081819999996,,,,,221.07106579999993,221.08597580000003,221.2702944,220.4247977,221.28612439999995,,,,,,,,0,1,0.6440942000000405,None,,,,,,,,848,20,V,R,2026-02-23_11h10.01.418,VisualSearch_2526_3,,2025.2.4,2026-02-23 11h10.02.030999 +0100,
vertical.xlsx,The target is tilted.,135,68,4,8,1,1,1,1,1,1,1,1,1,1,1,1,0,11,12,135,space,9.17307310000001,None,1,1,0.9974680000000262,None,space,3.276862900000083,None,0,0,0,1,,,,,8,4,68,0,221.28612439999995,,,,,,,,,,,,,,,,,,,,,221.2711921,221.28612439999995,221.76969410000004,221.77452989999995,221.78537629999994,222.7858764,,,,,222.78598650000004,222.80180159999998,222.98538150000002,221.78537629999994,223.00180090000003,,,,,,,,1,1,0.9974680000000262,None,,,,,,,,848,20,V,R,2026-02-23_11h10.01.418,VisualSearch_2526_3,,2025.2.4,2026-02-23 11h10.02.030999 +0100,
vertical.xlsx,The target is tilted.,135,69,5,8,1,1,1,1,0,0,0,0,0,0,0,0,0,3,4,135,space,9.17307310000001,None,1,1,0.6046718000000055,None,space,3.276862900000083,None,0,0,0,1,,,,,8,5,69,2,223.00180090000003,,,,,,,,,,,,,,,,,,,,,222.98576019999996,223.00180090000003,223.485411,223.48878079999997,223.50208829999997,224.1185686,,,,,224.11868479999998,224.1346625,224.31894239999997,223.50208829999997,224.33497149999994,,,,,,,,1,1,0.6046718000000055,None,,,,,,,,848,20,V,R,2026-02-23_11h10.01.418,VisualSearch_2526_3,,2025.2.4,2026-02-23 11h10.02.030999 +0100,
vertical.xlsx,The target is tilted.,135,70,6,8,0,1,1,1,0,0,0,0,0,0,0,0,1,3,4,135,space,9.17307310000001,None,0,1,1.0099703000000773,None,space,3.276862900000083,None,0,0,0,1,,,,,8,6,70,6,224.33497149999994,,,,,,,,,,,,,,,,,,,,,224.31977940000002,224.33497149999994,224.81858479999994,224.82380060000003,224.84031370000002,225.8520707,,,,,225.8522256,225.8677358,226.05189840000003,224.84031370000002,226.06775489999995,,,,,,,,0,1,1.0099703000000773,None,,,,,,,,848,20,V,R,2026-02-23_11h10.01.418,VisualSearch_2526_3,,2025.2.4,2026-02-23 11h10.02.030999 +0100,
vertical.xlsx,The target is tilted.,135,71,7,8,1,1,1,1,1,1,1,1,0,0,0,0,0,7,8,135,space,9.17307310000001,None,1,1,2.1770569999999907,None,space,3.276862900000083,None,0,0,0,1,,,,,8,7,71,1,226.06775489999995,,,,,,,,,,,,,,,,,,,,,226.0527429,226.06775489999995,226.55198699999994,226.5573362,226.5737395,228.76719760000003,,,,,228.76730350000003,228.78314950000004,228.9669953,226.5737395,228.98331059999998,,,,,,,,1,1,2.1770569999999907,None,,,,,,,,848,20,V,R,2026-02-23_11h10.01.418,VisualSearch_2526_3,,2025.2.4,2026-02-23 11h10.02.030999 +0100,
vertical.xlsx,The target is tilted.,135,72,0,9,0,1,1,1,0,0,0,0,0,0,0,0,1,3,4,135,space,9.17307310000001,None,0,1,1.962651600000072,None,space,3.276862900000083,None,0,0,0,1,,,,,9,0,72,6,228.98331059999998,,,,,,,,,,,,,,,,,,,,,228.96752530000003,228.98331059999998,229.46716630000003,229.47244260000002,229.4862213,231.45075869999994,,,,,231.45100590000004,231.4659742,231.65025860000003,229.4862213,231.66615130000002,,,,,,,,0,1,1.962651600000072,None,,,,,,,,848,20,V,R,2026-02-23_11h10.01.418,VisualSearch_2526_3,,2025.2.4,2026-02-23 11h10.02.030999 +0100,
vertical.xlsx,The target is tilted.,135,73,1,9,1,1,1,1,0,0,0,0,0,0,0,0,0,3,4,135,space,9.17307310000001,None,1,1,1.3095998000000009,None,space,3.276862900000083,None,0,0,0,1,,,,,9,1,73,2,231.66615130000002,,,,,,,,,,,,,,,,,,,,,231.65106809999997,231.66615130000002,232.14970289999997,232.15495750000002,232.171199,233.482351,,,,,233.48244879999993,233.49818500000003,233.68252180000002,232.171199,233.69821549999995,,,,,,,,1,1,1.3095998000000009,None,,,,,,,,848,20,V,R,2026-02-23_11h10.01.418,VisualSearch_2526_3,,2025.2.4,2026-02-23 11h10.02.030999 +0100,
vertical.xlsx,The target is tilted.,135,74,2,9,1,0,0,0,0,0,0,0,0,0,0,0,0,0,1,135,space,9.17307310000001,None,1,1,0.5606042000000571,None,space,3.276862900000083,None,0,0,0,1,,,,,9,2,74,3,233.69821549999995,,,,,,,,,,,,,,,,,,,,,233.68333340000004,233.69821549999995,234.18178239999997,234.183939,234.19830049999996,234.76582299999995,,,,,234.76600989999997,234.78125969999996,234.9654044,234.19830049999996,234.98141429999998,,,,,,,,1,1,0.5606042000000571,None,,,,,,,,848,20,V,R,2026-02-23_11h10.01.418,VisualSearch_2526_3,,2025.2.4,2026-02-23 11h10.02.030999 +0100,
vertical.xlsx,The target is tilted.,135,75,3,9,1,1,1,1,1,1,1,1,0,0,0,0,0,7,8,135,space,9.17307310000001,None,1,1,1.114191099999971,None,space,3.276862900000083,None,0,0,0,1,,,,,9,3,75,1,234.98141429999998,,,,,,,,,,,,,,,,,,,,,234.96621770000002,234.98141429999998,235.46526640000002,235.47055209999996,235.4863699,236.6142923,,,,,236.6143902,236.6305357,236.8149846,235.4863699,,,,,,,,,1,1,1.114191099999971,None,,,,,,,,848,20,V,R,2026-02-23_11h10.01.418,VisualSearch_2526_3,,2025.2.4,2026-02-23 11h10.02.030999 +0100,
vertical.xlsx,The target is tilted.,135,76,4,9,0,1,1,1,1,1,1,1,1,1,1,1,1,11,12,135,space,9.17307310000001,None,0,1,3.0021417000000383,None,space,3.276862900000083,None,0,0,0,1,,,,,9,4,76,4,236.83132239999998,,,,,,,,,,,,,,,,,,,,,236.81599929999993,236.83132239999998,237.31486010000003,237.32173709999995,237.3371121,240.34663869999997,,,,,240.3467316,240.36263580000002,240.54693880000002,,240.56304320000004,,,,,,,,0,1,3.0021417000000383,None,,,,,,,,848,20,V,R,2026-02-23_11h10.01.418,VisualSearch_2526_3,,2025.2.4,2026-02-23 11h10.02.030999 +0100,
vertical.xlsx,The target is tilted.,135,77,5,9,0,1,1,1,1,1,1,1,0,0,0,0,1,7,8,135,space,9.17307310000001,None,0,1,2.1700517000000445,None,space,3.276862900000083,None,0,0,0,1,,,,,9,5,77,5,240.56304320000004,,,,,,,,,,,,,,,,,,,,,240.54776949999996,240.56304320000004,241.04617469999994,241.04841320000003,241.0627551,243.24584519999996,,,,,243.24595450000004,243.26175009999997,243.44632249999995,241.0627551,,,,,,,,,0,1,2.1700517000000445,None,,,,,,,,848,20,V,R,2026-02-23_11h10.01.418,VisualSearch_2526_3,,2025.2.4,2026-02-23 11h10.02.030999 +0100,
vertical.xlsx,The target is tilted.,135,78,6,9,0,0,0,0,0,0,0,0,0,0,0,0,1,1,1,135,space,9.17307310000001,None,0,1,0.5882100000000037,None,space,3.276862900000083,None,0,0,0,1,,,,,9,6,78,7,243.46197519999998,,,,,,,,,,,,,,,,,,,,,243.44716170000004,243.46197519999998,243.94628969999997,243.9515675,243.9647417,244.56202669999993,,,,,244.56212619999997,244.57785909999996,244.7615144,243.9647417,244.7780285,,,,,,,,0,1,0.5882100000000037,None,,,,,,,,848,20,V,R,2026-02-23_11h10.01.418,VisualSearch_2526_3,,2025.2.4,2026-02-23 11h10.02.030999 +0100,
vertical.xlsx,The target is tilted.,135,79,7,9,1,1,1,1,1,1,1,1,1,1,1,1,0,11,12,135,space,9.17307310000001,None,1,1,0.8391209999999774,None,space,3.276862900000083,None,0,0,0,1,,,,,9,7,79,0,244.7780285,,,,,,,,,,,,,,,,,,,,,244.76193649999993,244.7780285,245.2615025,245.26363359999993,245.27776129999995,246.12832170000001,,,,,246.12843079999993,246.14419680000003,246.3285373,245.27776129999995,246.34425020000003,,,,,,,,1,1,0.8391209999999774,None,,,,,,,,848,20,V,R,2026-02-23_11h10.01.418,VisualSearch_2526_3,,2025.2.4,2026-02-23 11h10.02.030999 +0100,
vertical.xlsx,The target is tilted.,135,80,0,10,0,1,1,1,1,1,1,1,0,0,0,0,1,7,8,135,space,9.17307310000001,None,0,1,1.8738101999999799,None,space,3.276862900000083,None,0,0,0,1,,,,,10,0,80,5,246.34425020000003,,,,,,,,,,,,,,,,,,,,,246.3291279,246.34425020000003,246.8285297,246.83476799999994,246.84926529999996,248.72726060000002,,,,,248.7273593,248.74327540000002,248.92761319999988,246.84926529999996,248.9433803999999,,,,,,,,0,1,1.8738101999999799,None,,,,,,,,848,20,V,R,2026-02-23_11h10.01.418,VisualSearch_2526_3,,2025.2.4,2026-02-23 11h10.02.030999 +0100,
vertical.xlsx,The target is tilted.,135,81,1,10,1,1,1,1,0,0,0,0,0,0,0,0,0,3,4,135,space,9.17307310000001,None,1,1,0.8157906999999796,None,space,3.276862900000083,None,0,0,0,1,,,,,10,1,81,2,248.9433803999999,,,,,,,,,,,,,,,,,,,,,248.92842959999996,248.9433803999999,249.42684199999997,249.42906499999992,249.44342799999993,250.2612261999999,,,,,250.26136830000007,250.27624600000001,250.46046439999998,249.44342799999993,250.4764054000001,,,,,,,,1,1,0.8157906999999796,None,,,,,,,,848,20,V,R,2026-02-23_11h10.01.418,VisualSearch_2526_3,,2025.2.4,2026-02-23 11h10.02.030999 +0100,
vertical.xlsx,The target is tilted.,135,82,2,10,1,1,1,1,1,1,1,1,1,1,1,1,0,11,12,135,space,9.17307310000001,None,1,1,0.8439547999998922,None,space,3.276862900000083,None,0,0,0,1,,,,,10,2,82,0,250.4764054000001,,,,,,,,,,,,,,,,,,,,,250.46129430000008,250.4764054000001,250.96062900000004,250.9662158,250.97979750000002,251.82644859999994,,,,,251.82654609999997,251.8422127,252.0259413,250.97979750000002,252.04235970000002,,,,,,,,1,1,0.8439547999998922,None,,,,,,,,848,20,V,R,2026-02-23_11h10.01.418,VisualSearch_2526_3,,2025.2.4,2026-02-23 11h10.02.030999 +0100,
vertical.xlsx,The target is tilted.,135,83,3,10,1,0,0,0,0,0,0,0,0,0,0,0,0,0,1,135,space,9.17307310000001,None,1,1,0.5620446000000356,None,space,3.276862900000083,None,0,0,0,1,,,,,10,3,83,3,252.04235970000002,,,,,,,,,,,,,,,,,,,,,252.02633819999994,252.04235970000002,252.52577869999993,252.5281710999999,252.54223710000008,253.11019649999992,,,,,253.110411,253.1255683999999,253.30955800000004,252.54223710000008,253.32570909999993,,,,,,,,1,1,0.5620446000000356,None,,,,,,,,848,20,V,R,2026-02-23_11h10.01.418,VisualSearch_2526_3,,2025.2.4,2026-02-23 11h10.02.030999 +0100,
vertical.xlsx,The target is tilted.,135,84,4,10,0,1,1,1,0,0,0,0,0,0,0,0,1,3,4,135,space,9.17307310000001,None,0,1,1.3971685999999863,None,space,3.276862900000083,None,0,0,0,1,,,,,10,4,84,6,253.32570909999993,,,,,,,,,,,,,,,,,,,,,253.3103817,253.32570909999993,253.80932930000006,253.81460329999993,253.831681,255.24191370000005,,,,,255.2420272999999,255.25784250000004,255.44205939999995,253.831681,255.45813209999994,,,,,,,,0,1,1.3971685999999863,None,,,,,,,,848,20,V,R,2026-02-23_11h10.01.418,VisualSearch_2526_3,,2025.2.4,2026-02-23 11h10.02.030999 +0100,
vertical.xlsx,The target is tilted.,135,85,5,10,0,1,1,1,1,1,1,1,1,1,1,1,1,11,12,135,space,9.17307310000001,None,0,1,3.1926402999999937,None,space,3.276862900000083,None,0,0,0,1,,,,,10,5,85,4,255.45813209999994,,,,,,,,,,,,,,,,,,,,,255.44294939999997,255.45813209999994,255.94201510000005,255.94720689999997,255.9639375999999,259.1575027,,,,,259.1575979999999,259.1734095999999,259.3575847999999,255.9639375999999,259.3732265,,,,,,,,0,1,3.1926402999999937,None,,,,,,,,848,20,V,R,2026-02-23_11h10.01.418,VisualSearch_2526_3,,2025.2.4,2026-02-23 11h10.02.030999 +0100,
vertical.xlsx,The target is tilted.,135,86,6,10,0,0,0,0,0,0,0,0,0,0,0,0,1,1,1,135,space,9.17307310000001,None,0,1,0.5826185000000805,None,space,3.276862900000083,None,0,0,0,1,,,,,10,6,86,7,259.3732265,,,,,,,,,,,,,,,,,,,,,259.3584150999999,259.3732265,259.85743820000005,259.8611079000001,259.8733813,260.45793420000007,,,,,260.45816550000006,260.47322369999995,260.6574486999999,259.8733813,260.67317979999996,,,,,,,,0,1,0.5826185000000805,None,,,,,,,,848,20,V,R,2026-02-23_11h10.01.418,VisualSearch_2526_3,,2025.2.4,2026-02-23 11h10.02.030999 +0100,
vertical.xlsx,The target is tilted.,135,87,7,10,1,1,1,1,1,1,1,1,0,0,0,0,0,7,8,135,space,9.17307310000001,None,1,1,0.7354808000000048,None,space,3.276862900000083,None,0,0,0,1,,,,,10,7,87,1,260.67317979999996,,,,,,,,,,,,,,,,,,,,,260.65827260000003,260.67317979999996,261.15734370000007,261.16186759999994,261.17267200000003,261.9241905,,,,,261.92441199999996,261.9392425,262.12375110000005,261.17267200000003,262.13970370000004,,,,,,,,1,1,0.7354808000000048,None,,,,,,,,848,20,V,R,2026-02-23_11h10.01.418,VisualSearch_2526_3,,2025.2.4,2026-02-23 11h10.02.030999 +0100,
vertical.xlsx,The target is tilted.,135,88,0,11,1,1,1,1,1,1,1,1,1,1,1,1,0,11,12,135,space,9.17307310000001,None,1,1,1.030841200000168,None,space,3.276862900000083,None,0,0,0,1,,,,,11,0,88,0,262.13970370000004,,,,,,,,,,,,,,,,,,,,,262.12460010000007,262.13970370000004,262.6231515999999,262.6285039999999,262.6464496,263.6893570000001,,,,,263.68945629999996,263.7053551,263.8887900000001,262.6464496,263.9051937999999,,,,,,,,1,1,1.030841200000168,None,,,,,,,,848,20,V,R,2026-02-23_11h10.01.418,VisualSearch_2526_3,,2025.2.4,2026-02-23 11h10.02.030999 +0100,
vertical.xlsx,The target is tilted.,135,89,1,11,0,0,0,0,0,0,0,0,0,0,0,0,1,1,1,135,space,9.17307310000001,None,0,1,0.5651798999999755,None,space,3.276862900000083,None,0,0,0,1,,,,,11,1,89,7,263.9051937999999,,,,,,,,,,,,,,,,,,,,,263.8891499,263.9051937999999,264.3888413000001,264.3913438000001,264.4054786999999,264.9728550000001,,,,,264.9730693,264.9883624,265.172336,264.4054786999999,265.18829429999994,,,,,,,,0,1,0.5651798999999755,None,,,,,,,,848,20,V,R,2026-02-23_11h10.01.418,VisualSearch_2526_3,,2025.2.4,2026-02-23 11h10.02.030999 +0100,
vertical.xlsx,The target is tilted.,135,90,2,11,1,0,0,0,0,0,0,0,0,0,0,0,0,0,1,135,space,9.17307310000001,None,1,1,0.7458566999998766,None,space,3.276862900000083,None,0,0,0,1,,,,,11,2,90,3,265.18829429999994,,,,,,,,,,,,,,,,,,,,,265.1731632,265.18829429999994,265.67185770000003,265.6753135,265.6878114,266.4391778999999,,,,,266.4393937000001,266.4548249999999,266.6379092000001,265.6878114,266.654322,,,,,,,,1,1,0.7458566999998766,None,,,,,,,,848,20,V,R,2026-02-23_11h10.01.418,VisualSearch_2526_3,,2025.2.4,2026-02-23 11h10.02.030999 +0100,
vertical.xlsx,The target is tilted.,135,91,3,11,1,1,1,1,1,1,1,1,0,0,0,0,0,7,8,135,space,9.17307310000001,None,1,1,0.7160398999999416,None,space,3.276862900000083,None,0,0,0,1,,,,,11,3,91,1,266.654322,,,,,,,,,,,,,,,,,,,,,266.6383603999999,266.654322,267.13816729999996,267.1422698,267.1581345999999,267.8888676,,,,,267.8890846999999,267.9041268,268.088036,267.1581345999999,268.1044705999999,,,,,,,,1,1,0.7160398999999416,None,,,,,,,,848,20,V,R,2026-02-23_11h10.01.418,VisualSearch_2526_3,,2025.2.4,2026-02-23 11h10.02.030999 +0100,
vertical.xlsx,The target is tilted.,135,92,4,11,1,1,1,1,0,0,0,0,0,0,0,0,0,3,4,135,space,9.17307310000001,None,1,1,0.7779467000000295,None,space,3.276862900000083,None,0,0,0,1,,,,,11,4,92,2,268.1044705999999,,,,,,,,,,,,,,,,,,,,,268.0886955,268.1044705999999,268.58805799999993,268.59339209999996,268.61154939999994,269.40432380000004,,,,,269.4044685,269.4201058,269.60405679999997,268.61154939999994,269.62015140000005,,,,,,,,1,1,0.7779467000000295,None,,,,,,,,848,20,V,R,2026-02-23_11h10.01.418,VisualSearch_2526_3,,2025.2.4,2026-02-23 11h10.02.030999 +0100,
vertical.xlsx,The target is tilted.,135,93,5,11,0,1,1,1,1,1,1,1,1,1,1,1,1,11,12,135,space,9.17307310000001,None,0,1,4.133685800000194,None,space,3.276862900000083,None,0,0,0,1,,,,,11,5,93,4,269.62015140000005,,,,,,,,,,,,,,,,,,,,,269.6049058,269.62015140000005,270.103516,270.10603159999994,270.1198705999999,274.2692157,,,,,274.2693154,274.2852816000001,274.4688583000001,270.1198705999999,274.48516529999995,,,,,,,,0,1,4.133685800000194,None,,,,,,,,848,20,V,R,2026-02-23_11h10.01.418,VisualSearch_2526_3,,2025.2.4,2026-02-23 11h10.02.030999 +0100,
vertical.xlsx,The target is tilted.,135,94,6,11,0,1,1,1,1,1,1,1,0,0,0,0,1,7,8,135,space,9.17307310000001,None,0,1,2.1140596999998706,None,space,3.276862900000083,None,0,0,0,1,,,,,11,6,94,5,274.48516529999995,,,,,,,,,,,,,,,,,,,,,274.46939469999995,274.48516529999995,274.96844,274.9710105999999,274.98474410000006,277.10152329999994,,,,,277.1016094999999,277.11758799999996,277.3011051,274.98474410000006,277.3174594999999,,,,,,,,0,1,2.1140596999998706,None,,,,,,,,848,20,V,R,2026-02-23_11h10.01.418,VisualSearch_2526_3,,2025.2.4,2026-02-23 11h10.02.030999 +0100,
vertical.xlsx,The target is tilted.,135,95,7,11,0,1,1,1,0,0,0,0,0,0,0,0,1,3,4,135,space,9.17307310000001,None,0,1,1.155594100000144,None,space,3.276862900000083,None,0,0,0,1,,,,,11,7,95,6,277.3174594999999,,,,,,,,,,,,,,,,,,,,,277.30148399999996,277.3174594999999,277.80113489999997,277.8032901,277.8175195,278.9845612999999,,,,,278.9847017000001,279.0007391999999,279.1840598,277.8175195,279.200375,,,,,,,,0,1,1.155594100000144,None,,,,,,,,848,20,V,R,2026-02-23_11h10.01.418,VisualSearch_2526_3,,2025.2.4,2026-02-23 11h10.02.030999 +0100,
vertical.xlsx,The target is tilted.,135,96,0,12,1,1,1,1,1,1,1,1,0,0,0,0,0,7,8,135,space,9.17307310000001,None,1,1,0.6117381999999907,None,space,3.276862900000083,None,0,0,0,1,,,,,12,0,96,1,279.200375,,,,,,,,,,,,,,,,,,,,,279.18449079999994,279.200375,279.6841307000001,279.6883354999999,279.7030160999999,280.31770889999996,,,,,280.3178411,280.3333712,280.5170013999999,279.7030160999999,280.53317720000007,,,,,,,,1,1,0.6117381999999907,None,,,,,,,,848,20,V,R,2026-02-23_11h10.01.418,VisualSearch_2526_3,,2025.2.4,2026-02-23 11h10.02.030999 +0100,
vertical.xlsx,The target is tilted.,135,97,1,12,0,0,0,0,0,0,0,0,0,0,0,0,1,1,1,135,space,9.17307310000001,None,0,1,0.7066073999999389,None,space,3.276862900000083,None,0,0,0,1,,,,,12,1,97,7,280.53317720000007,,,,,,,,,,,,,,,,,,,,,280.5175247000001,280.53317720000007,281.01651849999996,281.0187646999999,281.03303040000003,281.75134089999995,,,,,281.7515562,281.76633400000003,281.95026399999995,281.03303040000003,281.9663346000001,,,,,,,,0,1,0.7066073999999389,None,,,,,,,,848,20,V,R,2026-02-23_11h10.01.418,VisualSearch_2526_3,,2025.2.4,2026-02-23 11h10.02.030999 +0100,
vertical.xlsx,The target is tilted.,135,98,2,12,0,1,1,1,1,1,1,1,1,1,1,1,1,11,12,135,space,9.17307310000001,None,0,1,2.08851750000008,None,space,3.276862900000083,None,0,0,0,1,,,,,12,2,98,4,281.9663346000001,,,,,,,,,,,,,,,,,,,,,281.9511068999999,281.9663346000001,282.4503698,282.45569680000006,282.47354129999997,284.56663889999993,,,,,284.56685260000006,284.58239100000003,284.7659734,282.47354129999997,284.7822184999999,,,,,,,,0,1,2.08851750000008,None,,,,,,,,848,20,V,R,2026-02-23_11h10.01.418,VisualSearch_2526_3,,2025.2.4,2026-02-23 11h10.02.030999 +0100,
vertical.xlsx,The target is tilted.,135,99,3,12,1,1,1,1,0,0,0,0,0,0,0,0,0,3,4,135,space,9.17307310000001,None,1,1,0.7915993999999955,None,space,3.276862900000083,None,0,0,0,1,,,,,12,3,99,2,284.7822184999999,,,,,,,,,,,,,,,,,,,,,284.7667961000001,284.7822184999999,285.26623589999997,285.2715339,285.28525389999993,286.0819006999999,,,,,286.0820173999999,286.09802049999996,286.28206020000005,285.28525389999993,286.29811589999997,,,,,,,,1,1,0.7915993999999955,None,,,,,,,,848,20,V,R,2026-02-23_11h10.01.418,VisualSearch_2526_3,,2025.2.4,2026-02-23 11h10.02.030999 +0100,
vertical.xlsx,The target is tilted.,135,100,4,12,1,1,1,1,1,1,1,1,1,1,1,1,0,11,12,135,space,9.17307310000001,None,1,1,0.7247505999998793,None,space,3.276862900000083,None,0,0,0,1,,,,,12,4,100,0,286.29811589999997,,,,,,,,,,,,,,,,,,,,,286.28299690000006,286.29811589999997,286.78196130000003,286.7874472,286.8024893999999,287.5314294000001,,,,,287.5315144,287.5475333999999,287.73167090000004,286.8024893999999,287.74769609999987,,,,,,,,1,1,0.7247505999998793,None,,,,,,,,848,20,V,R,2026-02-23_11h10.01.418,VisualSearch_2526_3,,2025.2.4,2026-02-23 11h10.02.030999 +0100,
vertical.xlsx,The target is tilted.,135,101,5,12,0,1,1,1,1,1,1,1,0,0,0,0,1,7,8,135,space,9.17307310000001,None,0,1,2.10842219999995,None,space,3.276862900000083,None,0,0,0,1,,,,,12,5,101,5,287.74769609999987,,,,,,,,,,,,,,,,,,,,,287.7324906,287.74769609999987,288.23098029999994,288.23415220000004,288.24862500000006,290.3639904999999,,,,,290.3641125999999,290.3798198999999,290.5640064999999,288.24862500000006,290.5801189,,,,,,,,0,1,2.10842219999995,None,,,,,,,,848,20,V,R,2026-02-23_11h10.01.418,VisualSearch_2526_3,,2025.2.4,2026-02-23 11h10.02.030999 +0100,
vertical.xlsx,The target is tilted.,135,102,6,12,0,1,1,1,0,0,0,0,0,0,0,0,1,3,4,135,space,9.17307310000001,None,0,1,1.0972337000000607,None,space,3.276862900000083,None,0,0,0,1,,,,,12,6,102,6,290.5801189,,,,,,,,,,,,,,,,,,,,,290.5648235,290.5801189,291.0639216999999,291.0691542999999,291.085958,292.1974907,,,,,292.1977051,292.2128830999999,292.3967813999999,291.085958,292.4131349999999,,,,,,,,0,1,1.0972337000000607,None,,,,,,,,848,20,V,R,2026-02-23_11h10.01.418,VisualSearch_2526_3,,2025.2.4,2026-02-23 11h10.02.030999 +0100,
vertical.xlsx,The target is tilted.,135,103,7,12,1,0,0,0,0,0,0,0,0,0,0,0,0,0,1,135,space,9.17307310000001,None,1,1,0.5659196999999949,None,space,3.276862900000083,None,0,0,0,1,,,,,12,7,103,3,292.4131349999999,,,,,,,,,,,,,,,,,,,,,292.3975993999999,292.4131349999999,292.89685810000003,292.9021285,292.9192099999999,293.4962561000001,,,,,293.49635909999995,293.5122407,293.6959264999999,292.9192099999999,293.7120773999999,,,,,,,,1,1,0.5659196999999949,None,,,,,,,,848,20,V,R,2026-02-23_11h10.01.418,VisualSearch_2526_3,,2025.2.4,2026-02-23 11h10.02.030999 +0100,
vertical.xlsx,The target is tilted.,135,104,0,13,0,0,0,0,0,0,0,0,0,0,0,0,1,1,1,135,space,9.17307310000001,None,0,1,0.592482999999902,None,space,3.276862900000083,None,0,0,0,1,,,,,13,0,104,7,293.7120773999999,,,,,,,,,,,,,,,,,,,,,293.6963677,293.7120773999999,294.19625830000007,294.20146869999996,294.21599249999997,294.8131236999999,,,,,294.8132664000001,294.82830709999996,295.0129581,294.21599249999997,295.02863119999995,,,,,,,,0,1,0.592482999999902,None,,,,,,,,848,20,V,R,2026-02-23_11h10.01.418,VisualSearch_2526_3,,2025.2.4,2026-02-23 11h10.02.030999 +0100,
vertical.xlsx,The target is tilted.,135,105,1,13,1,0,0,0,0,0,0,0,0,0,0,0,0,0,1,135,space,9.17307310000001,None,1,1,0.6678216000000248,None,space,3.276862900000083,None,0,0,0,1,,,,,13,1,105,3,295.02863119999995,,,,,,,,,,,,,,,,,,,,,295.01389200000006,295.02863119999995,295.51252420000003,295.5177789999999,295.53331190000006,296.21219080000003,,,,,296.2123255,296.2279976000001,296.4126035999999,295.53331190000006,296.4281754,,,,,,,,1,1,0.6678216000000248,None,,,,,,,,848,20,V,R,2026-02-23_11h10.01.418,VisualSearch_2526_3,,2025.2.4,2026-02-23 11h10.02.030999 +0100,
vertical.xlsx,The target is tilted.,135,106,2,13,1,1,1,1,0,0,0,0,0,0,0,0,0,3,4,135,space,9.17307310000001,None,1,1,0.8805661999999757,None,space,3.276862900000083,None,0,0,0,1,,,,,13,2,106,2,296.4281754,,,,,,,,,,,,,,,,,,,,,296.4134700000001,296.4281754,296.91197,296.9171170000001,296.9327225999999,297.82809800000007,,,,,297.82818409999993,297.84398580000004,298.0274742999999,296.9327225999999,298.0438917,,,,,,,,1,1,0.8805661999999757,None,,,,,,,,848,20,V,R,2026-02-23_11h10.01.418,VisualSearch_2526_3,,2025.2.4,2026-02-23 11h10.02.030999 +0100,
vertical.xlsx,The target is tilted.,135,107,3,13,0,1,1,1,0,0,0,0,0,0,0,0,1,3,4,135,space,9.17307310000001,None,0,1,0.9016705000001366,None,space,3.276862900000083,None,0,0,0,1,,,,,13,3,107,6,298.0438917,,,,,,,,,,,,,,,,,,,,,298.0278064999999,298.0438917,298.5281681,298.53342540000006,298.5483762,299.4609810999999,,,,,299.46109590000003,299.4768287999999,299.6610746,298.5483762,299.67711539999993,,,,,,,,0,1,0.9016705000001366,None,,,,,,,,848,20,V,R,2026-02-23_11h10.01.418,VisualSearch_2526_3,,2025.2.4,2026-02-23 11h10.02.030999 +0100,
vertical.xlsx,The target is tilted.,135,108,4,13,1,1,1,1,1,1,1,1,0,0,0,0,0,7,8,135,space,9.17307310000001,None,1,1,0.9162384000001111,None,space,3.276862900000083,None,0,0,0,1,,,,,13,4,108,1,299.67711539999993,,,,,,,,,,,,,,,,,,,,,299.66187690000004,299.67711539999993,300.1608904000001,300.16609959999994,300.1813105,301.1103747000001,,,,,301.1104824999999,301.12636080000004,301.3105293,300.1813105,301.3265745,,,,,,,,1,1,0.9162384000001111,None,,,,,,,,848,20,V,R,2026-02-23_11h10.01.418,VisualSearch_2526_3,,2025.2.4,2026-02-23 11h10.02.030999 +0100,
vertical.xlsx,The target is tilted.,135,109,5,13,0,1,1,1,1,1,1,1,0,0,0,0,1,7,8,135,space,9.17307310000001,None,0,1,3.090613600000097,None,space,3.276862900000083,None,0,0,0,1,,,,,13,5,109,5,301.3265745,,,,,,,,,,,,,,,,,,,,,301.3113589000001,301.3265745,301.8102044000001,301.81533709999997,301.8298748000001,304.92577719999997,,,,,304.9258873,304.9417946,305.12589160000005,301.8298748000001,305.14182760000006,,,,,,,,0,1,3.090613600000097,None,,,,,,,,848,20,V,R,2026-02-23_11h10.01.418,VisualSearch_2526_3,,2025.2.4,2026-02-23 11h10.02.030999 +0100,
vertical.xlsx,The target is tilted.,135,110,6,13,1,1,1,1,1,1,1,1,1,1,1,1,0,11,12,135,space,9.17307310000001,None,1,1,0.6499124999998003,None,space,3.276862900000083,None,0,0,0,1,,,,,13,6,110,0,305.14182760000006,,,,,,,,,,,,,,,,,,,,,305.1266995,305.14182760000006,305.6250292000001,305.6270246999999,305.6414581,306.2924445,,,,,306.2925936999999,306.3080778,306.49245959999996,305.6414581,306.5084819,,,,,,,,1,1,0.6499124999998003,None,,,,,,,,848,20,V,R,2026-02-23_11h10.01.418,VisualSearch_2526_3,,2025.2.4,2026-02-23 11h10.02.030999 +0100,
vertical.xlsx,The target is tilted.,135,111,7,13,0,1,1,1,1,1,1,1,1,1,1,1,1,11,12,135,space,9.17307310000001,None,0,1,2.2998873000001367,None,space,3.276862900000083,None,0,0,0,1,,,,,13,7,111,4,306.5084819,,,,,,,,,,,,,,,,,,,,,306.4934173999999,306.5084819,306.9913912999999,306.99339610000004,307.0077769999999,309.32441830000005,,,,,309.32453169999997,309.3402912,309.52493059999995,307.0077769999999,309.54061880000006,,,,,,,,0,1,2.2998873000001367,None,,,,,,,,848,20,V,R,2026-02-23_11h10.01.418,VisualSearch_2526_3,,2025.2.4,2026-02-23 11h10.02.030999 +0100,
vertical.xlsx,The target is tilted.,135,112,0,14,1,1,1,1,0,0,0,0,0,0,0,0,0,3,4,135,space,9.17307310000001,None,1,1,0.8058598999998594,None,space,3.276862900000083,None,0,0,0,1,,,,,14,0,112,2,309.54061880000006,,,,,,,,,,,,,,,,,,,,,309.5259431999999,309.54061880000006,310.0244621999999,310.0297512000001,310.04644500000006,310.8571883999999,,,,,310.8572809000001,310.87341030000005,311.0574149,310.04644500000006,311.07343230000004,,,,,,,,1,1,0.8058598999998594,None,,,,,,,,848,20,V,R,2026-02-23_11h10.01.418,VisualSearch_2526_3,,2025.2.4,2026-02-23 11h10.02.030999 +0100,
vertical.xlsx,The target is tilted.,135,113,1,14,1,1,1,1,1,1,1,1,1,1,1,1,0,11,12,135,space,9.17307310000001,None,1,1,1.4841202000000067,None,space,3.276862900000083,None,0,0,0,1,,,,,14,1,113,0,311.07343230000004,,,,,,,,,,,,,,,,,,,,,311.0582344999999,311.07343230000004,311.55677690000005,311.5598916,311.57326520000004,313.07336470000007,,,,,313.07350299999996,313.0891631999999,313.2737229999999,311.57326520000004,313.2898071999999,,,,,,,,1,1,1.4841202000000067,None,,,,,,,,848,20,V,R,2026-02-23_11h10.01.418,VisualSearch_2526_3,,2025.2.4,2026-02-23 11h10.02.030999 +0100,
vertical.xlsx,The target is tilted.,135,114,2,14,0,1,1,1,1,1,1,1,1,1,1,1,1,11,12,135,space,9.17307310000001,None,0,1,2.1475262999999813,None,space,3.276862900000083,None,0,0,0,1,,,,,14,2,114,4,313.2898071999999,,,,,,,,,,,,,,,,,,,,,313.27458450000006,313.2898071999999,313.7731385000001,313.7783155000001,313.7944134999999,315.95546920000004,,,,,315.9555718999999,315.97199799999987,316.15534360000004,313.7944134999999,316.17181089999997,,,,,,,,0,1,2.1475262999999813,None,,,,,,,,848,20,V,R,2026-02-23_11h10.01.418,VisualSearch_2526_3,,2025.2.4,2026-02-23 11h10.02.030999 +0100,
vertical.xlsx,The target is tilted.,135,115,3,14,1,1,1,1,1,1,1,1,0,0,0,0,0,7,8,135,space,9.17307310000001,None,1,1,0.7427295999998478,None,space,3.276862900000083,None,0,0,0,1,,,,,14,3,115,1,316.17181089999997,,,,,,,,,,,,,,,,,,,,,316.1558314,316.17181089999997,316.65556389999995,316.6608669000001,316.674758,317.4219047999999,,,,,317.4220511,317.4377177,317.6219032999999,316.674758,317.6378999,,,,,,,,1,1,0.7427295999998478,None,,,,,,,,848,20,V,R,2026-02-23_11h10.01.418,VisualSearch_2526_3,,2025.2.4,2026-02-23 11h10.02.030999 +0100,
vertical.xlsx,The target is tilted.,135,116,4,14,0,0,0,0,0,0,0,0,0,0,0,0,1,1,1,135,space,9.17307310000001,None,0,1,0.5357062000000496,None,space,3.276862900000083,None,0,0,0,1,,,,,14,4,116,7,317.6378999,,,,,,,,,,,,,,,,,,,,,317.6226983,317.6378999,318.1216330000001,318.1268206000001,318.1438449000001,318.6880705,,,,,318.6881792999999,318.7045282999999,318.88805489999993,318.1438449000001,318.90417379999997,,,,,,,,0,1,0.5357062000000496,None,,,,,,,,848,20,V,R,2026-02-23_11h10.01.418,VisualSearch_2526_3,,2025.2.4,2026-02-23 11h10.02.030999 +0100,
vertical.xlsx,The target is tilted.,135,117,5,14,0,1,1,1,0,0,0,0,0,0,0,0,1,3,4,135,space,9.17307310000001,None,0,1,0.8357700999999906,None,space,3.276862900000083,None,0,0,0,1,,,,,14,5,117,6,318.90417379999997,,,,,,,,,,,,,,,,,,,,,318.8887773,318.90417379999997,319.388147,319.3932945999999,319.41156910000007,320.2539733,,,,,320.2540648999999,320.27004840000006,320.45432029999995,319.41156910000007,320.47032219999994,,,,,,,,0,1,0.8357700999999906,None,,,,,,,,848,20,V,R,2026-02-23_11h10.01.418,VisualSearch_2526_3,,2025.2.4,2026-02-23 11h10.02.030999 +0100,
vertical.xlsx,The target is tilted.,135,118,6,14,1,0,0,0,0,0,0,0,0,0,0,0,0,0,1,135,space,9.17307310000001,None,1,1,0.6982660999999553,None,space,3.276862900000083,None,0,0,0,1,,,,,14,6,118,3,320.47032219999994,,,,,,,,,,,,,,,,,,,,,320.4551124000001,320.47032219999994,320.9541413999999,320.95936530000006,320.97705439999993,321.6869046999999,,,,,321.68700709999996,321.7030498999999,321.88713240000004,320.97705439999993,,,,,,,,,1,1,0.6982660999999553,None,,,,,,,,848,20,V,R,2026-02-23_11h10.01.418,VisualSearch_2526_3,,2025.2.4,2026-02-23 11h10.02.030999 +0100,
vertical.xlsx,The target is tilted.,135,119,7,14,0,1,1,1,1,1,1,1,0,0,0,0,1,7,8,135,space,9.17307310000001,None,0,1,1.4832532000000356,None,space,3.276862900000083,None,0,0,0,1,,,,,14,7,119,5,321.9035554000001,,,,,,,,,,,,,,,,,,,,,321.8879753,321.9035554000001,322.3870037999999,322.39225139999996,322.4049475999999,323.9043000999999,,,,,323.9045127999999,323.9196954,324.10318730000006,322.4049475999999,324.13352580000003,,,,,,,,0,1,1.4832532000000356,None,,,,,,,,848,20,V,R,2026-02-23_11h10.01.418,VisualSearch_2526_3,,2025.2.4,2026-02-23 11h10.02.030999 +0100,
vertical.xlsx,The target is tilted.,135,0,0,0,,,,,,,,,,,,,,,,,space,9.17307310000001,None,,,,,space,3.276862900000083,None,0,0,0,1,,,,,,,,,,,,,,,,,,,,,,,,,,,,,,,,,,,,,,,,,,,,,,,,,,,,,,,,,,,,,,,848,20,V,R,2026-02-23_11h10.01.418,VisualSearch_2526_3,,2025.2.4,2026-02-23 11h10.02.030999 +0100,
tilted.xlsx,The target is tilted.,117,0,0,0,0,1,1,1,1,1,1,1,1,1,1,1,1,11,12,117,space,11.146922399999994,None,1,0,6.618259200000011,None,,,,0,1,1,0,0,0,0,4,,,,,335.3390527999999,,,,,,,,,,,,,,,324.13352580000003,324.13352580000003,324.13352580000003,space,11.146922399999994,None,335.3351873999999,335.3390527999999,335.7988208999999,335.80207269999994,335.81530140000007,342.4472264,1,0,6.618259200000011,None,342.44736449999994,342.4630392,342.64716450000003,,342.6633049999999,,,,,,,,,,,,,,,,,,,848,20,V,R,2026-02-23_11h10.01.418,VisualSearch_2526_3,,2025.2.4,2026-02-23 11h10.02.030999 +0100,
tilted.xlsx,The target is tilted.,117,1,1,0,0,0,0,0,0,0,0,0,0,0,0,0,1,1,1,117,space,11.146922399999994,None,0,1,4.097618300000022,None,,,,0,1,1,0,0,1,1,7,,,,,342.6633049999999,,,,,,,,,,,,,,,,,,,,,342.64791649999995,342.6633049999999,343.14693180000006,343.1520566999999,343.1691976999999,347.2799415999999,0,1,4.097618300000022,None,347.28018280000003,347.2950439,347.4791936999999,343.1691976999999,347.4952975,,,,,,,,,,,,,,,,,,,848,20,V,R,2026-02-23_11h10.01.418,VisualSearch_2526_3,,2025.2.4,2026-02-23 11h10.02.030999 +0100,
tilted.xlsx,The target is tilted.,117,2,2,0,1,1,1,1,1,1,1,1,0,0,0,0,0,7,8,117,space,11.146922399999994,None,1,1,1.7400157000001855,None,,,,0,1,1,0,0,2,2,1,,,,,347.4952975,,,,,,,,,,,,,,,,,,,,,347.4799440999999,347.4952975,347.97920480000005,347.9844655999999,348.0010642000001,349.7450373999999,1,1,1.7400157000001855,None,349.74524099999996,349.7610922,349.9444835999999,348.0010642000001,349.96083680000004,,,,,,,,,,,,,,,,,,,848,20,V,R,2026-02-23_11h10.01.418,VisualSearch_2526_3,,2025.2.4,2026-02-23 11h10.02.030999 +0100,
tilted.xlsx,The target is tilted.,117,3,3,0,1,1,1,1,1,1,1,1,1,1,1,1,0,11,12,117,space,11.146922399999994,None,1,1,1.0676608000001124,None,,,,0,1,1,0,0,3,3,0,,,,,349.96083680000004,,,,,,,,,,,,,,,,,,,,,349.94498699999997,349.96083680000004,350.4448993,350.4501074000001,350.4658092000001,351.5441488,1,1,1.0676608000001124,None,351.54423800000006,351.5602310999999,351.7435606999999,350.4658092000001,351.75982869999996,,,,,,,,,,,,,,,,,,,848,20,V,R,2026-02-23_11h10.01.418,VisualSearch_2526_3,,2025.2.4,2026-02-23 11h10.02.030999 +0100,
tilted.xlsx,The target is tilted.,117,4,4,0,1,1,1,1,0,0,0,0,0,0,0,0,0,3,4,117,space,11.146922399999994,None,1,1,1.41055439999991,None,,,,0,1,1,0,0,4,4,2,,,,,351.75982869999996,,,,,,,,,,,,,,,,,,,,,351.74398699999995,351.75982869999996,352.24350059999995,352.24564369999996,352.26001759999997,353.6767847,1,1,1.41055439999991,None,353.67691520000005,353.69256329999996,353.87678889999995,352.26001759999997,353.89290900000003,,,,,,,,,,,,,,,,,,,848,20,V,R,2026-02-23_11h10.01.418,VisualSearch_2526_3,,2025.2.4,2026-02-23 11h10.02.030999 +0100,
tilted.xlsx,The target is tilted.,117,5,5,0,1,0,0,0,0,0,0,0,0,0,0,0,0,0,1,117,space,11.146922399999994,None,1,1,0.6785002999999961,None,,,,0,1,1,0,0,5,5,3,,,,,353.89290900000003,,,,,,,,,,,,,,,,,,,,,353.87754559999996,353.89290900000003,354.3758704999999,354.37806809999995,354.3922733999999,355.0769016999999,1,1,0.6785002999999961,None,355.07704550000005,355.0921488,355.2763555,354.3922733999999,355.2923489000001,,,,,,,,,,,,,,,,,,,848,20,V,R,2026-02-23_11h10.01.418,VisualSearch_2526_3,,2025.2.4,2026-02-23 11h10.02.030999 +0100,
tilted.xlsx,The target is tilted.,117,6,6,0,0,1,1,1,0,0,0,0,0,0,0,0,1,3,4,117,space,11.146922399999994,None,0,1,2.320593800000097,None,,,,0,1,1,0,0,6,6,6,,,,,355.2923489000001,,,,,,,,,,,,,,,,,,,,,355.27709859999993,355.2923489000001,355.7762443999999,355.7814681000001,355.7973146999999,358.1254519999999,0,1,2.320593800000097,None,358.1255895999999,358.1413429999999,358.32535199999995,355.7973146999999,358.3414114000001,,,,,,,,,,,,,,,,,,,848,20,V,R,2026-02-23_11h10.01.418,VisualSearch_2526_3,,2025.2.4,2026-02-23 11h10.02.030999 +0100,
tilted.xlsx,The target is tilted.,117,7,7,0,0,1,1,1,1,1,1,1,0,0,0,0,1,7,8,117,space,11.146922399999994,None,1,0,2.7279283000000305,None,,,,0,1,1,0,0,7,7,5,,,,,358.3414114000001,,,,,,,,,,,,,,,,,,,,,358.3261105,358.3414114000001,358.8251964,358.8303485,358.8475024999999,361.5907248,1,0,2.7279283000000305,None,361.5908286,361.60663020000004,361.7909991999999,358.8475024999999,,,,,,,,,,,,,,,,,,,,848,20,V,R,2026-02-23_11h10.01.418,VisualSearch_2526_3,,2025.2.4,2026-02-23 11h10.02.030999 +0100,
tilted.xlsx,The target is tilted.,117,0,0,0,1,1,1,1,1,1,1,1,1,1,1,1,0,11,12,117,space,11.146922399999994,None,1,1,0.9870608999999604,None,space,5.8820402999999715,None,0,1,1,0,,,,,0,0,0,0,367.7335121,,,,,,,,,,,,,,,,,,,,,367.72989010000003,367.7335121,368.22150150000004,368.2242737999999,368.237931,369.2385917999999,,,,,369.2387505999999,369.2545541999999,369.4380161999999,,369.4542187999999,361.79889790000004,361.80732539999997,361.80732539999997,367.70617230000005,space,5.8820402999999715,None,1,1,0.9870608999999604,None,,,,,,,,848,20,V,R,2026-02-23_11h10.01.418,VisualSearch_2526_3,,2025.2.4,2026-02-23 11h10.02.030999 +0100,
tilted.xlsx,The target is tilted.,117,1,1,0,0,0,0,0,0,0,0,0,0,0,0,0,1,1,1,117,space,11.146922399999994,None,0,1,0.6161204999998517,None,space,5.8820402999999715,None,0,1,1,0,,,,,0,1,1,7,369.4542187999999,,,,,,,,,,,,,,,,,,,,,369.43854410000006,369.4542187999999,369.9378938000001,369.94051939999997,369.9542643000001,370.58781809999994,,,,,370.5879165,370.6039052,370.7875826999999,369.9542643000001,370.8036965,,,,,,,,0,1,0.6161204999998517,None,,,,,,,,848,20,V,R,2026-02-23_11h10.01.418,VisualSearch_2526_3,,2025.2.4,2026-02-23 11h10.02.030999 +0100,
tilted.xlsx,The target is tilted.,117,2,2,0,1,0,0,0,0,0,0,0,0,0,0,0,0,0,1,117,space,11.146922399999994,None,1,1,0.834277400000019,None,space,5.8820402999999715,None,0,1,1,0,,,,,0,2,2,3,370.8036965,,,,,,,,,,,,,,,,,,,,,370.7881179,370.8036965,371.2878474999999,371.2932588,371.3061647999999,372.1539733000001,,,,,372.1540885999999,372.1699649000001,372.3535957,371.3061647999999,372.36988099999996,,,,,,,,1,1,0.834277400000019,None,,,,,,,,848,20,V,R,2026-02-23_11h10.01.418,VisualSearch_2526_3,,2025.2.4,2026-02-23 11h10.02.030999 +0100,
tilted.xlsx,The target is tilted.,117,3,3,0,0,1,1,1,0,0,0,0,0,0,0,0,1,3,4,117,space,11.146922399999994,None,0,1,1.707071600000063,None,space,5.8820402999999715,None,0,1,1,0,,,,,0,3,3,6,372.36988099999996,,,,,,,,,,,,,,,,,,,,,372.3540414999999,372.36988099999996,372.85409319999997,372.8586799000001,372.86980260000007,374.5872204000001,,,,,374.5874218,374.6027324999999,374.7868843,372.86980260000007,374.8031204,,,,,,,,0,1,1.707071600000063,None,,,,,,,,848,20,V,R,2026-02-23_11h10.01.418,VisualSearch_2526_3,,2025.2.4,2026-02-23 11h10.02.030999 +0100,
tilted.xlsx,The target is tilted.,117,4,4,0,1,1,1,1,1,1,1,1,0,0,0,0,0,7,8,117,space,11.146922399999994,None,1,1,1.9663095000000794,None,space,5.8820402999999715,None,0,1,1,0,,,,,0,4,4,1,374.8031204,,,,,,,,,,,,,,,,,,,,,374.7877333,374.8031204,375.2866783999999,375.2921596,375.3081341000001,377.28569789999995,,,,,377.2857995999999,377.3020782,377.4852468,375.3081341000001,377.5016758999999,,,,,,,,1,1,1.9663095000000794,None,,,,,,,,848,20,V,R,2026-02-23_11h10.01.418,VisualSearch_2526_3,,2025.2.4,2026-02-23 11h10.02.030999 +0100,
tilted.xlsx,The target is tilted.,117,5,5,0,0,1,1,1,1,1,1,1,1,1,1,1,1,11,12,117,space,11.146922399999994,None,0,1,5.1576728,None,space,5.8820402999999715,None,0,1,1,0,,,,,0,5,5,4,377.5016758999999,,,,,,,,,,,,,,,,,,,,,377.4856695,377.5016758999999,377.9851881999999,377.98766319999993,378.0015591,383.1670267999999,,,,,383.1671167999999,383.1829967,383.36729589999993,378.0015591,383.383152,,,,,,,,0,1,5.1576728,None,,,,,,,,848,20,V,R,2026-02-23_11h10.01.418,VisualSearch_2526_3,,2025.2.4,2026-02-23 11h10.02.030999 +0100,
tilted.xlsx,The target is tilted.,117,6,6,0,1,1,1,1,0,0,0,0,0,0,0,0,0,3,4,117,space,11.146922399999994,None,0,0,1.6297879999999623,None,space,5.8820402999999715,None,0,1,1,0,,,,,0,6,6,2,383.383152,,,,,,,,,,,,,,,,,,,,,383.3681104000001,383.383152,383.86693249999996,383.8702910999999,383.88417560000005,385.51724649999994,,,,,385.51743769999996,385.5324569999999,385.7164887,383.88417560000005,385.7327245,,,,,,,,0,0,1.6297879999999623,None,,,,,,,,848,20,V,R,2026-02-23_11h10.01.418,VisualSearch_2526_3,,2025.2.4,2026-02-23 11h10.02.030999 +0100,
tilted.xlsx,The target is tilted.,117,7,7,0,0,1,1,1,1,1,1,1,0,0,0,0,1,7,8,117,space,11.146922399999994,None,0,1,2.665721500000018,None,space,5.8820402999999715,None,0,1,1,0,,,,,0,7,7,5,385.7327245,,,,,,,,,,,,,,,,,,,,,385.7173569999999,385.7327245,386.21676990000003,386.2221022,386.2389216999999,388.9163414000001,,,,,388.91657580000003,388.93156379999994,389.1156178,386.2389216999999,389.1317863999999,,,,,,,,0,1,2.665721500000018,None,,,,,,,,848,20,V,R,2026-02-23_11h10.01.418,VisualSearch_2526_3,,2025.2.4,2026-02-23 11h10.02.030999 +0100,
tilted.xlsx,The target is tilted.,117,8,0,1,0,0,0,0,0,0,0,0,0,0,0,0,1,1,1,117,space,11.146922399999994,None,0,1,1.0041710000000421,None,space,5.8820402999999715,None,0,1,1,0,,,,,1,0,8,7,389.1317863999999,,,,,,,,,,,,,,,,,,,,,389.11644020000006,389.1317863999999,389.6155261,389.62076250000007,389.6365612000001,390.6481258,,,,,390.6482413,390.6639142999999,390.848572,389.6365612000001,390.8642014999999,,,,,,,,0,1,1.0041710000000421,None,,,,,,,,848,20,V,R,2026-02-23_11h10.01.418,VisualSearch_2526_3,,2025.2.4,2026-02-23 11h10.02.030999 +0100,
tilted.xlsx,The target is tilted.,117,9,1,1,0,1,1,1,0,0,0,0,0,0,0,0,1,3,4,117,space,11.146922399999994,None,0,1,1.557198499999913,None,space,5.8820402999999715,None,0,1,1,0,,,,,1,1,9,6,390.8642014999999,,,,,,,,,,,,,,,,,,,,,390.84937060000004,390.8642014999999,391.34816280000007,391.3535481,391.3688650999999,392.9314154,,,,,392.93163160000006,392.9467943000001,393.13119169999993,391.3688650999999,393.14705119999996,,,,,,,,0,1,1.557198499999913,None,,,,,,,,848,20,V,R,2026-02-23_11h10.01.418,VisualSearch_2526_3,,2025.2.4,2026-02-23 11h10.02.030999 +0100,
tilted.xlsx,The target is tilted.,117,10,2,1,1,1,1,1,1,1,1,1,1,1,1,1,0,11,12,117,space,11.146922399999994,None,1,1,3.126171500000055,None,space,5.8820402999999715,None,0,1,1,0,,,,,1,2,10,0,393.14705119999996,,,,,,,,,,,,,,,,,,,,,393.13205230000005,393.14705119999996,393.63062419999994,393.63586569999995,393.65092429999993,396.78006949999997,,,,,396.78024199999993,396.7958064999999,396.97891229999993,393.65092429999993,396.9954541999999,,,,,,,,1,1,3.126171500000055,None,,,,,,,,848,20,V,R,2026-02-23_11h10.01.418,VisualSearch_2526_3,,2025.2.4,2026-02-23 11h10.02.030999 +0100,
tilted.xlsx,The target is tilted.,117,11,3,1,0,1,1,1,1,1,1,1,0,0,0,0,1,7,8,117,space,11.146922399999994,None,1,0,3.5146824000000834,None,space,5.8820402999999715,None,0,1,1,0,,,,,1,3,11,5,396.9954541999999,,,,,,,,,,,,,,,,,,,,,396.97928850000005,396.9954541999999,397.47883850000005,397.4819318000001,397.4950760999999,401.01150199999995,,,,,401.0116380999999,401.02741230000004,401.21097700000007,397.4950760999999,401.22727139999995,,,,,,,,1,0,3.5146824000000834,None,,,,,,,,848,20,V,R,2026-02-23_11h10.01.418,VisualSearch_2526_3,,2025.2.4,2026-02-23 11h10.02.030999 +0100,
tilted.xlsx,The target is tilted.,117,12,4,1,1,1,1,1,0,0,0,0,0,0,0,0,0,3,4,117,space,11.146922399999994,None,1,1,1.210118500000135,None,space,5.8820402999999715,None,0,1,1,0,,,,,1,4,12,2,401.22727139999995,,,,,,,,,,,,,,,,,,,,,401.2115092999999,401.22727139999995,401.7113447999999,401.71722809999994,401.73620859999994,402.9609518000001,,,,,402.9610962999999,402.9767513999999,403.16090640000004,401.73620859999994,403.1768473000001,,,,,,,,1,1,1.210118500000135,None,,,,,,,,848,20,V,R,2026-02-23_11h10.01.418,VisualSearch_2526_3,,2025.2.4,2026-02-23 11h10.02.030999 +0100,
tilted.xlsx,The target is tilted.,117,13,5,1,0,1,1,1,1,1,1,1,1,1,1,1,1,11,12,117,space,11.146922399999994,None,0,1,5.6506813000000875,None,space,5.8820402999999715,None,0,1,1,0,,,,,1,5,13,4,403.1768473000001,,,,,,,,,,,,,,,,,,,,,403.16173089999995,403.1768473000001,403.66069200000004,403.6659366,403.6805989999999,409.3422173,,,,,409.34236339999995,409.3578735,409.54216669999994,403.6805989999999,409.5581665000001,,,,,,,,0,1,5.6506813000000875,None,,,,,,,,848,20,V,R,2026-02-23_11h10.01.418,VisualSearch_2526_3,,2025.2.4,2026-02-23 11h10.02.030999 +0100,
tilted.xlsx,The target is tilted.,117,14,6,1,1,1,1,1,1,1,1,1,0,0,0,0,0,7,8,117,space,11.146922399999994,None,1,1,2.413798300000053,None,space,5.8820402999999715,None,0,1,1,0,,,,,1,6,14,1,409.5581665000001,,,,,,,,,,,,,,,,,,,,,409.54299260000005,409.5581665000001,410.0421677999999,410.04823120000003,410.0618593999999,412.49221879999993,,,,,412.49243620000004,412.5075346,412.69072629999994,410.0618593999999,412.7071388999999,,,,,,,,1,1,2.413798300000053,None,,,,,,,,848,20,V,R,2026-02-23_11h10.01.418,VisualSearch_2526_3,,2025.2.4,2026-02-23 11h10.02.030999 +0100,
tilted.xlsx,The target is tilted.,117,15,7,1,1,0,0,0,0,0,0,0,0,0,0,0,0,0,1,117,space,11.146922399999994,None,1,1,0.7089969999999539,None,space,5.8820402999999715,None,0,1,1,0,,,,,1,7,15,3,412.7071388999999,,,,,,,,,,,,,,,,,,,,,412.6913177,412.7071388999999,413.1908589000001,413.19614409999997,413.2127764999999,413.9247449999999,,,,,413.9249644999999,413.94010590000005,414.1240947,413.2127764999999,414.14041050000003,,,,,,,,1,1,0.7089969999999539,None,,,,,,,,848,20,V,R,2026-02-23_11h10.01.418,VisualSearch_2526_3,,2025.2.4,2026-02-23 11h10.02.030999 +0100,
tilted.xlsx,The target is tilted.,117,16,0,2,1,1,1,1,1,1,1,1,0,0,0,0,0,7,8,117,space,11.146922399999994,None,1,1,1.1608919000000242,None,space,5.8820402999999715,None,0,1,1,0,,,,,2,0,16,1,414.14041050000003,,,,,,,,,,,,,,,,,,,,,414.1249157000001,414.14041050000003,414.6237505,414.6289524,414.64400020000005,415.8066597999999,,,,,415.8067554999999,415.82252600000004,416.0062472999999,414.64400020000005,416.0225663,,,,,,,,1,1,1.1608919000000242,None,,,,,,,,848,20,V,R,2026-02-23_11h10.01.418,VisualSearch_2526_3,,2025.2.4,2026-02-23 11h10.02.030999 +0100,
tilted.xlsx,The target is tilted.,117,17,1,2,1,1,1,1,1,1,1,1,1,1,1,1,0,11,12,117,space,11.146922399999994,None,1,1,6.754170299999942,None,space,5.8820402999999715,None,0,1,1,0,,,,,2,1,17,0,416.0225663,,,,,,,,,,,,,,,,,,,,,416.0067892999999,416.0225663,416.5057278999999,416.5071984,416.5226504000001,423.2887543999999,,,,,423.2889729,423.30363019999993,423.48781799999995,416.5226504000001,423.50406009999995,,,,,,,,1,1,6.754170299999942,None,,,,,,,,848,20,V,R,2026-02-23_11h10.01.418,VisualSearch_2526_3,,2025.2.4,2026-02-23 11h10.02.030999 +0100,
tilted.xlsx,The target is tilted.,117,18,2,2,1,0,0,0,0,0,0,0,0,0,0,0,0,0,1,117,space,11.146922399999994,None,1,1,0.6596640000000207,None,space,5.8820402999999715,None,0,1,1,0,,,,,2,2,18,3,423.50406009999995,,,,,,,,,,,,,,,,,,,,,423.48862969999993,423.50406009999995,423.98778189999996,423.99304870000003,424.0082300999999,424.6712477,,,,,424.6714604,424.6865357999999,424.87084160000006,424.0082300999999,424.88685150000003,,,,,,,,1,1,0.6596640000000207,None,,,,,,,,848,20,V,R,2026-02-23_11h10.01.418,VisualSearch_2526_3,,2025.2.4,2026-02-23 11h10.02.030999 +0100,
tilted.xlsx,The target is tilted.,117,19,3,2,0,0,0,0,0,0,0,0,0,0,0,0,1,1,1,117,space,11.146922399999994,None,0,1,0.7645244000000275,None,space,5.8820402999999715,None,0,1,1,0,,,,,2,3,19,7,424.88685150000003,,,,,,,,,,,,,,,,,,,,,424.8716702999999,424.88685150000003,425.3696034000001,425.3717382000001,425.3860493000001,426.1535614999999,,,,,426.15371700000003,426.1692184,426.35334509999996,425.3860493000001,426.36936419999995,,,,,,,,0,1,0.7645244000000275,None,,,,,,,,848,20,V,R,2026-02-23_11h10.01.418,VisualSearch_2526_3,,2025.2.4,2026-02-23 11h10.02.030999 +0100,
tilted.xlsx,The target is tilted.,117,20,4,2,1,1,1,1,0,0,0,0,0,0,0,0,0,3,4,117,space,11.146922399999994,None,1,1,1.7999092000000019,None,space,5.8820402999999715,None,0,1,1,0,,,,,2,4,20,2,426.36936419999995,,,,,,,,,,,,,,,,,,,,,426.3542174999999,426.36936419999995,426.8532022999999,426.8579762999999,426.8687885999999,428.6864452000001,,,,,428.6866673999999,428.70186490000003,428.8857875,426.8687885999999,428.9019514999999,,,,,,,,1,1,1.7999092000000019,None,,,,,,,,848,20,V,R,2026-02-23_11h10.01.418,VisualSearch_2526_3,,2025.2.4,2026-02-23 11h10.02.030999 +0100,
tilted.xlsx,The target is tilted.,117,21,5,2,0,1,1,1,1,1,1,1,1,1,1,1,1,11,12,117,space,11.146922399999994,None,0,1,6.079390799999828,None,space,5.8820402999999715,None,0,1,1,0,,,,,2,5,21,4,428.9019514999999,,,,,,,,,,,,,,,,,,,,,428.8865964999999,428.9019514999999,429.38568580000003,429.39090079999994,429.40592129999993,435.500774,,,,,435.50094879999995,435.51637489999996,435.70003140000006,429.40592129999993,435.71632779999993,,,,,,,,0,1,6.079390799999828,None,,,,,,,,848,20,V,R,2026-02-23_11h10.01.418,VisualSearch_2526_3,,2025.2.4,2026-02-23 11h10.02.030999 +0100,
tilted.xlsx,The target is tilted.,117,22,6,2,0,1,1,1,0,0,0,0,0,0,0,0,1,3,4,117,space,11.146922399999994,None,0,1,1.587187300000096,None,space,5.8820402999999715,None,0,1,1,0,,,,,2,6,22,6,435.71632779999993,,,,,,,,,,,,,,,,,,,,,435.7004461,435.71632779999993,436.2005263,436.20493120000003,436.2161213999999,437.8162521999999,,,,,437.8163684,437.83232080000005,438.0158163,436.2161213999999,438.03211049999993,,,,,,,,0,1,1.587187300000096,None,,,,,,,,848,20,V,R,2026-02-23_11h10.01.418,VisualSearch_2526_3,,2025.2.4,2026-02-23 11h10.02.030999 +0100,
tilted.xlsx,The target is tilted.,117,23,7,2,0,1,1,1,1,1,1,1,0,0,0,0,1,7,8,117,space,11.146922399999994,None,0,1,2.168930299999829,None,space,5.8820402999999715,None,0,1,1,0,,,,,2,7,23,5,438.03211049999993,,,,,,,,,,,,,,,,,,,,,438.01635479999993,438.03211049999993,438.5156636999999,438.5179932,438.53197839999996,440.71513360000006,,,,,440.71524710000006,440.7310848000001,440.91530950000003,438.53197839999996,440.93127749999996,,,,,,,,0,1,2.168930299999829,None,,,,,,,,848,20,V,R,2026-02-23_11h10.01.418,VisualSearch_2526_3,,2025.2.4,2026-02-23 11h10.02.030999 +0100,
tilted.xlsx,The target is tilted.,117,24,0,3,1,1,1,1,0,0,0,0,0,0,0,0,0,3,4,117,space,11.146922399999994,None,1,1,1.931743600000118,None,space,5.8820402999999715,None,0,1,1,0,,,,,3,0,24,2,440.93127749999996,,,,,,,,,,,,,,,,,,,,,440.9161384,440.93127749999996,441.4151415,441.42033449999997,441.4380110999999,443.38101730000005,,,,,443.3811265999999,443.3968165,443.5809370999999,441.4380110999999,443.59705569999994,,,,,,,,1,1,1.931743600000118,None,,,,,,,,848,20,V,R,2026-02-23_11h10.01.418,VisualSearch_2526_3,,2025.2.4,2026-02-23 11h10.02.030999 +0100,
tilted.xlsx,The target is tilted.,117,25,1,3,0,1,1,1,1,1,1,1,1,1,1,1,1,11,12,117,space,11.146922399999994,None,0,1,6.094820500000196,None,space,5.8820402999999715,None,0,1,1,0,,,,,3,1,25,4,443.59705569999994,,,,,,,,,,,,,,,,,,,,,443.5817601,443.59705569999994,444.08070179999993,444.0861357,444.10320880000006,450.2133706999999,,,,,450.2136093999999,450.22833219999995,450.4125161999999,444.10320880000006,450.42856070000005,,,,,,,,0,1,6.094820500000196,None,,,,,,,,848,20,V,R,2026-02-23_11h10.01.418,VisualSearch_2526_3,,2025.2.4,2026-02-23 11h10.02.030999 +0100,
tilted.xlsx,The target is tilted.,117,26,2,3,0,1,1,1,0,0,0,0,0,0,0,0,1,3,4,117,space,11.146922399999994,None,0,1,1.5473575000000892,None,space,5.8820402999999715,None,0,1,1,0,,,,,3,2,26,6,450.42856070000005,,,,,,,,,,,,,,,,,,,,,450.4134175999999,450.42856070000005,450.91220710000005,450.9162531999999,450.93231520000006,452.4943935,,,,,452.49447440000006,452.5104163,452.6947999999999,450.93231520000006,452.7107635000001,,,,,,,,0,1,1.5473575000000892,None,,,,,,,,848,20,V,R,2026-02-23_11h10.01.418,VisualSearch_2526_3,,2025.2.4,2026-02-23 11h10.02.030999 +0100,
tilted.xlsx,The target is tilted.,117,27,3,3,1,0,0,0,0,0,0,0,0,0,0,0,0,0,1,117,space,11.146922399999994,None,1,1,0.8068470000000616,None,space,5.8820402999999715,None,0,1,1,0,,,,,3,3,27,3,452.7107635000001,,,,,,,,,,,,,,,,,,,,,452.6956311,452.7107635000001,453.1945912,453.1998858999999,453.21578399999987,454.02723320000007,,,,,454.0273355999999,454.0433712,454.2275977999999,453.21578399999987,,,,,,,,,1,1,0.8068470000000616,None,,,,,,,,848,20,V,R,2026-02-23_11h10.01.418,VisualSearch_2526_3,,2025.2.4,2026-02-23 11h10.02.030999 +0100,
tilted.xlsx,The target is tilted.,117,28,4,3,1,1,1,1,1,1,1,1,1,1,1,1,0,11,12,117,space,11.146922399999994,None,1,1,2.6825781000000006,None,space,5.8820402999999715,None,0,1,1,0,,,,,3,4,28,0,454.2440481,,,,,,,,,,,,,,,,,,,,,454.2284848999999,454.2440481,454.7274971999999,454.7329211,454.74703220000004,457.4429437,,,,,457.4430561999999,457.4589116000001,457.64341189999993,454.74703220000004,457.6593102999999,,,,,,,,1,1,2.6825781000000006,None,,,,,,,,848,20,V,R,2026-02-23_11h10.01.418,VisualSearch_2526_3,,2025.2.4,2026-02-23 11h10.02.030999 +0100,
tilted.xlsx,The target is tilted.,117,29,5,3,1,1,1,1,1,1,1,1,0,0,0,0,0,7,8,117,space,11.146922399999994,None,1,1,1.2898803999999018,None,space,5.8820402999999715,None,0,1,1,0,,,,,3,5,29,1,457.6593102999999,,,,,,,,,,,,,,,,,,,,,457.6443561,457.6593102999999,458.14270440000007,458.14657109999996,458.1591116999999,459.45948869999995,,,,,459.4596562999999,459.47493369999995,459.65968280000004,458.1591116999999,459.6754995,,,,,,,,1,1,1.2898803999999018,None,,,,,,,,848,20,V,R,2026-02-23_11h10.01.418,VisualSearch_2526_3,,2025.2.4,2026-02-23 11h10.02.030999 +0100,
tilted.xlsx,The target is tilted.,117,30,6,3,0,1,1,1,1,1,1,1,0,0,0,0,1,7,8,117,space,11.146922399999994,None,0,1,3.33548020000012,None,space,5.8820402999999715,None,0,1,1,0,,,,,3,6,30,5,459.6754995,,,,,,,,,,,,,,,,,,,,,459.6607473,459.6754995,460.1592987999999,460.16431079999995,460.17706910000004,463.52453,,,,,463.52464799999996,463.54082759999994,463.72383090000005,460.17706910000004,463.7404491000001,,,,,,,,0,1,3.33548020000012,None,,,,,,,,848,20,V,R,2026-02-23_11h10.01.418,VisualSearch_2526_3,,2025.2.4,2026-02-23 11h10.02.030999 +0100,
tilted.xlsx,The target is tilted.,117,31,7,3,0,0,0,0,0,0,0,0,0,0,0,0,1,1,1,117,space,11.146922399999994,None,0,1,0.8512602000000697,None,space,5.8820402999999715,None,0,1,1,0,,,,,3,7,31,7,463.7404491000001,,,,,,,,,,,,,,,,,,,,,463.72426170000006,463.7404491000001,464.22384569999997,464.22660099999996,464.24032520000003,465.10738490000006,,,,,465.1075027999999,465.1231733999999,465.3076949,464.24032520000003,465.32311429999993,,,,,,,,0,1,0.8512602000000697,None,,,,,,,,848,20,V,R,2026-02-23_11h10.01.418,VisualSearch_2526_3,,2025.2.4,2026-02-23 11h10.02.030999 +0100,
tilted.xlsx,The target is tilted.,117,32,0,4,0,0,0,0,0,0,0,0,0,0,0,0,1,1,1,117,space,11.146922399999994,None,0,1,0.6088308000000779,None,space,5.8820402999999715,None,0,1,1,0,,,,,4,0,32,7,465.32311429999993,,,,,,,,,,,,,,,,,,,,,465.3087841999999,465.32311429999993,465.80778939999993,465.81450430000007,465.82932330000006,466.4407037,,,,,466.44084310000005,466.4564624000001,466.6396916,465.82932330000006,466.6560002,,,,,,,,0,1,0.6088308000000779,None,,,,,,,,848,20,V,R,2026-02-23_11h10.01.418,VisualSearch_2526_3,,2025.2.4,2026-02-23 11h10.02.030999 +0100,
tilted.xlsx,The target is tilted.,117,33,1,4,0,1,1,1,1,1,1,1,1,1,1,1,1,11,12,117,space,11.146922399999994,None,0,1,5.653973399999813,None,space,5.8820402999999715,None,0,1,1,0,,,,,4,1,33,4,466.6560002,,,,,,,,,,,,,,,,,,,,,466.6401660999999,466.6560002,467.1401890000001,467.14653020000003,467.1648744999999,472.8212402999999,,,,,472.8213307,472.8371840000001,473.0209197999999,467.1648744999999,473.0370862000001,,,,,,,,0,1,5.653973399999813,None,,,,,,,,848,20,V,R,2026-02-23_11h10.01.418,VisualSearch_2526_3,,2025.2.4,2026-02-23 11h10.02.030999 +0100,
tilted.xlsx,The target is tilted.,117,34,2,4,1,1,1,1,1,1,1,1,1,1,1,1,0,11,12,117,space,11.146922399999994,None,1,1,1.5375538000000688,None,space,5.8820402999999715,None,0,1,1,0,,,,,4,2,34,0,473.0370862000001,,,,,,,,,,,,,,,,,,,,,473.0213093000001,473.0370862000001,473.5217374,473.5284410999999,473.5496709999999,475.10421269999995,,,,,475.10437020000006,475.12019539999994,475.30471109999996,473.5496709999999,475.32032190000007,,,,,,,,1,1,1.5375538000000688,None,,,,,,,,848,20,V,R,2026-02-23_11h10.01.418,VisualSearch_2526_3,,2025.2.4,2026-02-23 11h10.02.030999 +0100,
tilted.xlsx,The target is tilted.,117,35,3,4,1,1,1,1,0,0,0,0,0,0,0,0,0,3,4,117,space,11.146922399999994,None,1,1,0.8141026999999212,None,space,5.8820402999999715,None,0,1,1,0,,,,,4,3,35,2,475.32032190000007,,,,,,,,,,,,,,,,,,,,,475.3056700000001,475.32032190000007,475.8041747000001,475.8108490000001,475.8307189000001,476.6542578,,,,,476.6545262000001,476.6695917999999,476.8539202999999,475.8307189000001,476.86941979999995,,,,,,,,1,1,0.8141026999999212,None,,,,,,,,848,20,V,R,2026-02-23_11h10.01.418,VisualSearch_2526_3,,2025.2.4,2026-02-23 11h10.02.030999 +0100,
tilted.xlsx,The target is tilted.,117,36,4,4,1,1,1,1,1,1,1,1,0,0,0,0,0,7,8,117,space,11.146922399999994,None,1,1,2.316802999999936,None,space,5.8820402999999715,None,0,1,1,0,,,,,4,4,36,1,476.86941979999995,,,,,,,,,,,,,,,,,,,,,476.8549976999999,476.86941979999995,477.3532902999999,477.3574692000001,477.3712497,479.70230200000003,,,,,479.70239389999995,479.7182575999999,479.9025470999999,477.3712497,,,,,,,,,1,1,2.316802999999936,None,,,,,,,,848,20,V,R,2026-02-23_11h10.01.418,VisualSearch_2526_3,,2025.2.4,2026-02-23 11h10.02.030999 +0100,
tilted.xlsx,The target is tilted.,117,37,5,4,1,0,0,0,0,0,0,0,0,0,0,0,0,0,1,117,space,11.146922399999994,None,1,1,0.7118115000000671,None,space,5.8820402999999715,None,0,1,1,0,,,,,4,5,37,3,479.9188917,,,,,,,,,,,,,,,,,,,,,479.90362560000005,479.9188917,480.40171169999996,480.40363719999993,480.41810709999993,481.13596100000007,,,,,481.1361174,481.15170350000005,481.33490560000007,480.41810709999993,481.35147870000003,,,,,,,,1,1,0.7118115000000671,None,,,,,,,,848,20,V,R,2026-02-23_11h10.01.418,VisualSearch_2526_3,,2025.2.4,2026-02-23 11h10.02.030999 +0100,
