file_name,block_instructions,target_example,thisN,thisTrialN,thisRepN,target_presence,opacity_1,opacity_2,opacity_3,opacity_4,opacity_5,opacity_6,opacity_7,opacity_8,opacity_9,opacity_10,opacity_11,opacity_12,n_distract,n_items,target_ori,key_resp_4.keys,key_resp_4.rt,key_resp_4.duration,key_resp.keys,key_resp.corr,key_resp.rt,key_resp.duration,key_resp_5.keys,key_resp_5.rt,key_resp_5.duration,blocks.thisRepN,blocks.thisTrialN,blocks.thisN,blocks.thisIndex,practice_trials.thisRepN,practice_trials.thisTrialN,practice_trials.thisN,practice_trials.thisIndex,trials.thisRepN,trials.thisTrialN,trials.thisN,trials.thisIndex,thisRow.t,notes,Welcome.started,WelcomeText.started,key_resp_2.started,Welcome.stopped,key_resp_2.keys,key_resp_2.rt,key_resp_2.duration,InformedConsent.started,text_4.started,InformedConsent.stopped,key_resp_6.keys,key_resp_6.rt,key_resp_6.duration,key_resp_4.started,example_target.started,text_3.started,blocks.key_resp_4.keys,blocks.key_resp_4.rt,blocks.key_resp_4.duration,FixCross.started,fixCross.started,FixCross.stopped,Stimulus.started,key_resp.started,Stimulus.stopped,practice_trials.key_resp.keys,practice_trials.key_resp.corr,practice_trials.key_resp.rt,practice_trials.key_resp.duration,BlankScreen.started,text.started,text.stopped,BlankScreen.stopped,fixCross.stopped,ExperimentStart.started,text_2.started,key_resp_5.started,ExperimentStart.stopped,blocks.key_resp_5.keys,blocks.key_resp_5.rt,blocks.key_resp_5.duration,trials.key_resp.keys,trials.key_resp.corr,trials.key_resp.rt,trials.key_resp.duration,Thanks.started,ThankYou.started,key_resp_3.started,Thanks.stopped,key_resp_3.keys,key_resp_3.rt,key_resp_3.duration,participant,leeftijd,gender,links/rechtshandig,date,expName,expVersion,psychopyVersion,expStart,
,,,,,,,,,,,,,,,,,,,,,,,,,,,,,,,,,,,,,,,,,,,,,,0.0189765999998599,0.04865689999996903,0.04865689999996903,21.695215299999973,space,21.613930399999845,None,,,,,,,,,,,,,,,,,,,,,,,,,,,,,,,,,,,,,,,,,,,,,,849,23,V,L,2026-02-23_11h27.40.138,VisualSearch_2526_3,,2025.2.4,2026-02-23 11h27.40.369075 +0100,
,,,,,,,,,,,,,,,,,,,,,,,,,,,,,,,,,,,,,,,,,,,,,,,,,,,,,21.695380699999987,21.704585299999962,32.35699959999988,y,10.649744800000008,None,,,,,,,,,,,,,,,,,,,,,,,,,,,,,,,,,,,,,,,,849,23,V,L,2026-02-23_11h27.40.138,VisualSearch_2526_3,,2025.2.4,2026-02-23 11h27.40.369075 +0100,
vertical.xlsx,The target is tilted.,135,0,0,0,0,1,1,1,1,1,1,1,1,1,1,1,1,11,12,135,space,8.904733999999962,None,0,1,3.586009600000125,None,,,,0,0,0,1,0,0,0,4,,,,,41.33736399999998,,,,,,,,,,,,,,,32.38610999999992,32.38610999999992,32.38610999999992,space,8.904733999999962,None,41.33147299999996,41.33736399999998,41.82058519999987,41.82600309999998,41.84325209999997,45.436929499999906,0,1,3.586009600000125,None,45.43715550000002,45.45236920000002,45.652507900000046,45.63629059999994,,,,,,,,,,,,,,,,,,,,849,23,V,L,2026-02-23_11h27.40.138,VisualSearch_2526_3,,2025.2.4,2026-02-23 11h27.40.369075 +0100,
vertical.xlsx,The target is tilted.,135,1,1,0,0,0,0,0,0,0,0,0,0,0,0,0,1,1,1,135,space,8.904733999999962,None,0,1,1.6807518000000528,None,,,,0,0,0,1,0,1,1,7,,,,,45.652507900000046,,,,,,,,,,,,,,,,,,,,,45.637058300000035,45.652507900000046,46.13629930000002,46.14150440000003,46.159035899999935,47.85264929999994,0,1,1.6807518000000528,None,47.853215999999975,47.867425899999944,48.06772799999999,48.05142359999991,46.159035899999935,,,,,,,,,,,,,,,,,,,849,23,V,L,2026-02-23_11h27.40.138,VisualSearch_2526_3,,2025.2.4,2026-02-23 11h27.40.369075 +0100,
vertical.xlsx,The target is tilted.,135,2,2,0,1,0,0,0,0,0,0,0,0,0,0,0,0,0,1,135,space,8.904733999999962,None,1,1,0.8317681000000903,None,,,,0,0,0,1,0,2,2,3,,,,,48.06772799999999,,,,,,,,,,,,,,,,,,,,,48.05178230000001,48.06772799999999,48.55194310000002,48.557264900000064,48.573969900000066,49.41790930000002,1,1,0.8317681000000903,None,49.41805309999995,49.433749199999966,49.634323300000005,49.61840869999992,48.573969900000066,,,,,,,,,,,,,,,,,,,849,23,V,L,2026-02-23_11h27.40.138,VisualSearch_2526_3,,2025.2.4,2026-02-23 11h27.40.369075 +0100,
vertical.xlsx,The target is tilted.,135,3,3,0,0,1,1,1,0,0,0,0,0,0,0,0,1,3,4,135,space,8.904733999999962,None,0,1,0.9456673999998202,None,,,,0,0,0,1,0,3,3,6,,,,,49.634323300000005,,,,,,,,,,,,,,,,,,,,,49.619127199999866,49.634323300000005,50.11828330000003,50.1235208999999,50.14157339999997,51.10126439999999,0,1,0.9456673999998202,None,51.10137450000002,51.1166103999999,51.317019200000004,51.301189999999906,50.14157339999997,,,,,,,,,,,,,,,,,,,849,23,V,L,2026-02-23_11h27.40.138,VisualSearch_2526_3,,2025.2.4,2026-02-23 11h27.40.369075 +0100,
vertical.xlsx,The target is tilted.,135,4,4,0,1,1,1,1,1,1,1,1,1,1,1,1,0,11,12,135,space,8.904733999999962,None,0,0,2.38962319999996,None,,,,0,0,0,1,0,4,4,0,,,,,51.317019200000004,,,,,,,,,,,,,,,,,,,,,51.30191799999989,51.317019200000004,51.80088439999986,51.806120100000044,51.8231495,54.216944099999864,0,0,2.38962319999996,None,54.21708489999992,54.23230179999996,54.43293659999995,54.41686219999997,51.8231495,,,,,,,,,,,,,,,,,,,849,23,V,L,2026-02-23_11h27.40.138,VisualSearch_2526_3,,2025.2.4,2026-02-23 11h27.40.369075 +0100,
vertical.xlsx,The target is tilted.,135,5,5,0,1,1,1,1,0,0,0,0,0,0,0,0,0,3,4,135,space,8.904733999999962,None,1,1,1.0158424999999625,None,,,,0,0,0,1,0,5,5,2,,,,,54.43293659999995,,,,,,,,,,,,,,,,,,,,,54.41758359999994,54.43293659999995,54.91668949999985,54.92189179999991,54.94003569999995,55.966544200000044,1,1,1.0158424999999625,None,55.96669989999987,55.98180359999992,56.18233250000003,56.16632329999993,54.94003569999995,,,,,,,,,,,,,,,,,,,849,23,V,L,2026-02-23_11h27.40.138,VisualSearch_2526_3,,2025.2.4,2026-02-23 11h27.40.369075 +0100,
vertical.xlsx,The target is tilted.,135,6,6,0,1,1,1,1,1,1,1,1,0,0,0,0,0,7,8,135,space,8.904733999999962,None,1,1,1.3725984000000153,None,,,,0,0,0,1,0,6,6,1,,,,,56.18233250000003,,,,,,,,,,,,,,,,,,,,,56.16704559999994,56.18233250000003,56.66593549999993,56.67119219999995,56.689828600000055,58.06590200000005,1,1,1.3725984000000153,None,58.066096000000016,58.08111629999985,58.28161690000002,58.265635400000065,56.689828600000055,,,,,,,,,,,,,,,,,,,849,23,V,L,2026-02-23_11h27.40.138,VisualSearch_2526_3,,2025.2.4,2026-02-23 11h27.40.369075 +0100,
vertical.xlsx,The target is tilted.,135,7,7,0,0,1,1,1,1,1,1,1,0,0,0,0,1,7,8,135,space,8.904733999999962,None,0,1,1.1915835999998308,None,,,,0,0,0,1,0,7,7,5,,,,,58.28161690000002,,,,,,,,,,,,,,,,,,,,,58.26638980000007,58.28161690000002,58.76544399999989,58.770709500000066,58.78857100000005,59.98227350000002,0,1,1.1915835999998308,None,59.9825151,59.99716749999993,60.197992200000044,60.18162940000002,58.78857100000005,,,,,,,,,,,,,,,,,,,849,23,V,L,2026-02-23_11h27.40.138,VisualSearch_2526_3,,2025.2.4,2026-02-23 11h27.40.369075 +0100,
vertical.xlsx,The target is tilted.,135,0,0,0,0,0,0,0,0,0,0,0,0,0,0,0,1,1,1,135,space,8.904733999999962,None,0,1,0.7517972999999074,None,space,3.5872847999999067,None,0,0,0,1,,,,,0,0,0,7,63.831273999999894,,,,,,,,,,,,,,,,,,,,,63.82673490000002,63.831273999999894,64.31341079999993,64.31873150000001,64.33768689999988,65.0973864,,,,,65.09763759999987,65.1121776,65.31241399999999,65.29670910000004,,60.190028199999915,60.197992200000044,60.197992200000044,63.797501799999964,space,3.5872847999999067,None,0,1,0.7517972999999074,None,,,,,,,,849,23,V,L,2026-02-23_11h27.40.138,VisualSearch_2526_3,,2025.2.4,2026-02-23 11h27.40.369075 +0100,
vertical.xlsx,The target is tilted.,135,1,1,0,1,1,1,1,1,1,1,1,1,1,1,1,0,11,12,135,space,8.904733999999962,None,1,1,2.6100603999998384,None,space,3.5872847999999067,None,0,0,0,1,,,,,0,1,1,0,65.31241399999999,,,,,,,,,,,,,,,,,,,,,65.29753149999988,65.31241399999999,65.79651100000001,65.80174080000006,65.81937979999998,68.44503399999985,,,,,68.44516640000006,68.46100230000002,,68.64529119999997,65.81937979999998,,,,,,,,1,1,2.6100603999998384,None,,,,,,,,849,23,V,L,2026-02-23_11h27.40.138,VisualSearch_2526_3,,2025.2.4,2026-02-23 11h27.40.369075 +0100,
vertical.xlsx,The target is tilted.,135,2,2,0,0,1,1,1,0,0,0,0,0,0,0,0,1,3,4,135,space,8.904733999999962,None,0,1,0.9927880999998706,None,space,3.5872847999999067,None,0,0,0,1,,,,,0,2,2,6,68.6616363999999,,,,,,,,,,,,,,,,,,,,,68.64614149999989,68.6616363999999,69.14537150000001,69.15095369999995,69.1660010999999,70.16210369999999,,,,,70.16232979999995,70.17692519999991,70.3772492999999,70.36156959999994,69.1660010999999,,,,,,,,0,1,0.9927880999998706,None,,,,,,,,849,23,V,L,2026-02-23_11h27.40.138,VisualSearch_2526_3,,2025.2.4,2026-02-23 11h27.40.369075 +0100,
vertical.xlsx,The target is tilted.,135,3,3,0,1,0,0,0,0,0,0,0,0,0,0,0,0,0,1,135,space,8.904733999999962,None,1,1,0.678324400000065,None,space,3.5872847999999067,None,0,0,0,1,,,,,0,3,3,3,70.3772492999999,,,,,,,,,,,,,,,,,,,,,70.36237899999992,70.3772492999999,70.86149090000004,70.86679939999999,70.88234399999988,71.56188270000007,,,,,71.56212800000003,71.57676990000004,71.7773307,71.76115819999995,70.88234399999988,,,,,,,,1,1,0.678324400000065,None,,,,,,,,849,23,V,L,2026-02-23_11h27.40.138,VisualSearch_2526_3,,2025.2.4,2026-02-23 11h27.40.369075 +0100,
vertical.xlsx,The target is tilted.,135,4,4,0,1,1,1,1,1,1,1,1,0,0,0,0,0,7,8,135,space,8.904733999999962,None,1,1,1.042239699999982,None,space,3.5872847999999067,None,0,0,0,1,,,,,0,4,4,1,71.7773307,,,,,,,,,,,,,,,,,,,,,71.76195669999993,71.7773307,72.26100359999987,72.2661994,72.28499899999997,73.34406289999993,,,,,73.34429090000003,73.35934249999991,73.55995469999993,73.54392910000001,72.28499899999997,,,,,,,,1,1,1.042239699999982,None,,,,,,,,849,23,V,L,2026-02-23_11h27.40.138,VisualSearch_2526_3,,2025.2.4,2026-02-23 11h27.40.369075 +0100,
vertical.xlsx,The target is tilted.,135,5,5,0,1,1,1,1,0,0,0,0,0,0,0,0,0,3,4,135,space,8.904733999999962,None,1,1,0.9599976000001789,None,space,3.5872847999999067,None,0,0,0,1,,,,,0,5,5,2,73.55995469999993,,,,,,,,,,,,,,,,,,,,,73.54472770000007,73.55995469999993,74.04390009999997,74.0491371999999,74.06699979999985,75.04330400000003,,,,,75.04354309999985,75.05885749999993,75.25947509999992,75.2434530999999,74.06699979999985,,,,,,,,1,1,0.9599976000001789,None,,,,,,,,849,23,V,L,2026-02-23_11h27.40.138,VisualSearch_2526_3,,2025.2.4,2026-02-23 11h27.40.369075 +0100,
vertical.xlsx,The target is tilted.,135,6,6,0,0,1,1,1,1,1,1,1,0,0,0,0,1,7,8,135,space,8.904733999999962,None,0,1,1.8880973999998787,None,space,3.5872847999999067,None,0,0,0,1,,,,,0,6,6,5,75.25947509999992,,,,,,,,,,,,,,,,,,,,,75.24429880000002,75.25947509999992,75.74307490000001,75.74834220000002,75.76460640000005,77.65929469999992,,,,,77.65944539999987,77.67469619999997,77.87522119999994,77.85927599999991,75.76460640000005,,,,,,,,0,1,1.8880973999998787,None,,,,,,,,849,23,V,L,2026-02-23_11h27.40.138,VisualSearch_2526_3,,2025.2.4,2026-02-23 11h27.40.369075 +0100,
vertical.xlsx,The target is tilted.,135,7,7,0,0,1,1,1,1,1,1,1,1,1,1,1,1,11,12,135,space,8.904733999999962,None,0,1,2.4103778000001057,None,space,3.5872847999999067,None,0,0,0,1,,,,,0,7,7,4,77.87522119999994,,,,,,,,,,,,,,,,,,,,,77.86007339999992,77.87522119999994,78.35907249999991,78.36428649999993,78.38145029999987,80.80768450000005,,,,,80.80783640000004,80.82359109999993,81.02399479999985,81.00797269999998,78.38145029999987,,,,,,,,0,1,2.4103778000001057,None,,,,,,,,849,23,V,L,2026-02-23_11h27.40.138,VisualSearch_2526_3,,2025.2.4,2026-02-23 11h27.40.369075 +0100,
vertical.xlsx,The target is tilted.,135,8,0,1,1,1,1,1,1,1,1,1,1,1,1,1,0,11,12,135,space,8.904733999999962,None,1,1,1.4269535000000815,None,space,3.5872847999999067,None,0,0,0,1,,,,,1,0,8,0,81.02399479999985,,,,,,,,,,,,,,,,,,,,,81.00864690000003,81.02399479999985,81.50802240000007,81.51323260000004,81.5310093999999,82.97407789999988,,,,,82.97428360000004,82.98952229999986,83.18994099999986,83.17418380000004,81.5310093999999,,,,,,,,1,1,1.4269535000000815,None,,,,,,,,849,23,V,L,2026-02-23_11h27.40.138,VisualSearch_2526_3,,2025.2.4,2026-02-23 11h27.40.369075 +0100,
vertical.xlsx,The target is tilted.,135,9,1,1,0,1,1,1,0,0,0,0,0,0,0,0,1,3,4,135,space,8.904733999999962,None,0,1,0.946242699999857,None,space,3.5872847999999067,None,0,0,0,1,,,,,1,1,9,6,83.18994099999986,,,,,,,,,,,,,,,,,,,,,83.17497589999994,83.18994099999986,83.67368369999986,83.67893879999997,83.69842679999988,84.65684850000002,,,,,84.6570729,84.6724643,84.87294410000004,84.85715329999994,83.69842679999988,,,,,,,,0,1,0.946242699999857,None,,,,,,,,849,23,V,L,2026-02-23_11h27.40.138,VisualSearch_2526_3,,2025.2.4,2026-02-23 11h27.40.369075 +0100,
vertical.xlsx,The target is tilted.,135,10,2,1,1,1,1,1,0,0,0,0,0,0,0,0,0,3,4,135,space,8.904733999999962,None,1,1,1.0772354000000632,None,space,3.5872847999999067,None,0,0,0,1,,,,,1,2,10,2,84.87294410000004,,,,,,,,,,,,,,,,,,,,,84.85796089999985,84.87294410000004,85.35686559999999,85.36204079999993,85.37973699999998,86.473162,,,,,86.47339020000004,86.4886199,86.68874589999996,86.67290520000006,85.37973699999998,,,,,,,,1,1,1.0772354000000632,None,,,,,,,,849,23,V,L,2026-02-23_11h27.40.138,VisualSearch_2526_3,,2025.2.4,2026-02-23 11h27.40.369075 +0100,
vertical.xlsx,The target is tilted.,135,11,3,1,0,1,1,1,1,1,1,1,0,0,0,0,1,7,8,135,space,8.904733999999962,None,0,1,1.5868107000001146,None,space,3.5872847999999067,None,0,0,0,1,,,,,1,3,11,5,86.68874589999996,,,,,,,,,,,,,,,,,,,,,86.67372879999994,86.68874589999996,87.17230769999992,87.17752939999991,87.19418410000003,88.78902119999998,,,,,88.78917239999987,88.8044660999999,89.00507440000001,88.98902010000006,87.19418410000003,,,,,,,,0,1,1.5868107000001146,None,,,,,,,,849,23,V,L,2026-02-23_11h27.40.138,VisualSearch_2526_3,,2025.2.4,2026-02-23 11h27.40.369075 +0100,
vertical.xlsx,The target is tilted.,135,12,4,1,0,1,1,1,1,1,1,1,1,1,1,1,1,11,12,135,space,8.904733999999962,None,0,1,1.832085300000017,None,space,3.5872847999999067,None,0,0,0,1,,,,,1,4,12,4,89.00507440000001,,,,,,,,,,,,,,,,,,,,,88.98986049999985,89.00507440000001,89.48840670000004,89.49359099999992,89.51174960000003,91.35517409999989,,,,,91.35539859999994,91.37045089999992,91.57056420000004,91.55485849999991,89.51174960000003,,,,,,,,0,1,1.832085300000017,None,,,,,,,,849,23,V,L,2026-02-23_11h27.40.138,VisualSearch_2526_3,,2025.2.4,2026-02-23 11h27.40.369075 +0100,
vertical.xlsx,The target is tilted.,135,13,5,1,1,0,0,0,0,0,0,0,0,0,0,0,0,0,1,135,space,8.904733999999962,None,1,1,0.5480413999998746,None,space,3.5872847999999067,None,0,0,0,1,,,,,1,5,13,3,91.57056420000004,,,,,,,,,,,,,,,,,,,,,91.55568919999996,91.57056420000004,92.05464729999994,92.05990229999998,92.07764629999997,92.63728339999989,,,,,92.63743580000005,92.65304300000003,92.85374619999993,92.83774519999997,92.07764629999997,,,,,,,,1,1,0.5480413999998746,None,,,,,,,,849,23,V,L,2026-02-23_11h27.40.138,VisualSearch_2526_3,,2025.2.4,2026-02-23 11h27.40.369075 +0100,
vertical.xlsx,The target is tilted.,135,14,6,1,0,0,0,0,0,0,0,0,0,0,0,0,1,1,1,135,space,8.904733999999962,None,0,1,0.5894313000001148,None,space,3.5872847999999067,None,0,0,0,1,,,,,1,6,14,7,92.85374619999993,,,,,,,,,,,,,,,,,,,,,92.83853739999995,92.85374619999993,93.33750110000005,93.34271899999999,93.3590173,93.95449129999997,,,,,93.9547207999999,93.9695064,94.16988509999987,94.15387559999999,93.3590173,,,,,,,,0,1,0.5894313000001148,None,,,,,,,,849,23,V,L,2026-02-23_11h27.40.138,VisualSearch_2526_3,,2025.2.4,2026-02-23 11h27.40.369075 +0100,
vertical.xlsx,The target is tilted.,135,15,7,1,1,1,1,1,1,1,1,1,0,0,0,0,0,7,8,135,space,8.904733999999962,None,0,0,0.818474599999945,None,space,3.5872847999999067,None,0,0,0,1,,,,,1,7,15,1,94.16988509999987,,,,,,,,,,,,,,,,,,,,,94.15469289999987,94.16988509999987,94.65363699999989,94.65878040000007,94.6748614999999,95.50370759999987,,,,,95.50388629999998,95.51889849999998,95.7191891,95.70350459999986,94.6748614999999,,,,,,,,0,0,0.818474599999945,None,,,,,,,,849,23,V,L,2026-02-23_11h27.40.138,VisualSearch_2526_3,,2025.2.4,2026-02-23 11h27.40.369075 +0100,
vertical.xlsx,The target is tilted.,135,16,0,2,0,1,1,1,0,0,0,0,0,0,0,0,1,3,4,135,space,8.904733999999962,None,0,1,0.6934656000000814,None,space,3.5872847999999067,None,0,0,0,1,,,,,2,0,16,6,95.7191891,,,,,,,,,,,,,,,,,,,,,95.70431839999992,95.7191891,96.20322599999986,96.20848359999991,96.22653839999998,96.93633049999994,,,,,96.93655620000004,96.95187169999986,97.15238759999988,97.13630769999986,96.22653839999998,,,,,,,,0,1,0.6934656000000814,None,,,,,,,,849,23,V,L,2026-02-23_11h27.40.138,VisualSearch_2526_3,,2025.2.4,2026-02-23 11h27.40.369075 +0100,
vertical.xlsx,The target is tilted.,135,17,1,2,0,1,1,1,1,1,1,1,0,0,0,0,1,7,8,135,space,8.904733999999962,None,0,1,1.5370448999999553,None,space,3.5872847999999067,None,0,0,0,1,,,,,2,1,17,5,97.15238759999988,,,,,,,,,,,,,,,,,,,,,97.13711790000002,97.15238759999988,97.63620019999985,97.64155519999986,97.65924670000004,99.20259549999992,,,,,99.20281109999996,99.2176766,99.41832920000002,99.40225409999994,97.65924670000004,,,,,,,,0,1,1.5370448999999553,None,,,,,,,,849,23,V,L,2026-02-23_11h27.40.138,VisualSearch_2526_3,,2025.2.4,2026-02-23 11h27.40.369075 +0100,
vertical.xlsx,The target is tilted.,135,18,2,2,1,0,0,0,0,0,0,0,0,0,0,0,0,0,1,135,space,8.904733999999962,None,1,1,0.728937900000119,None,space,3.5872847999999067,None,0,0,0,1,,,,,2,2,18,3,99.41832920000002,,,,,,,,,,,,,,,,,,,,,99.40305130000002,99.41832920000002,99.90200409999989,99.90717999999993,99.92447590000006,100.6681701,,,,,100.66840679999996,100.68381490000002,100.88410019999992,100.86833899999988,99.92447590000006,,,,,,,,1,1,0.728937900000119,None,,,,,,,,849,23,V,L,2026-02-23_11h27.40.138,VisualSearch_2526_3,,2025.2.4,2026-02-23 11h27.40.369075 +0100,
vertical.xlsx,The target is tilted.,135,19,3,2,1,1,1,1,0,0,0,0,0,0,0,0,0,3,4,135,space,8.904733999999962,None,1,1,0.7815932000000885,None,space,3.5872847999999067,None,0,0,0,1,,,,,2,3,19,2,100.88410019999992,,,,,,,,,,,,,,,,,,,,,100.8691432999999,100.88410019999992,101.36822860000007,101.37341889999993,101.39121049999994,102.18425350000007,,,,,102.18438590000005,102.19991770000001,102.40038249999998,102.38456739999992,101.39121049999994,,,,,,,,1,1,0.7815932000000885,None,,,,,,,,849,23,V,L,2026-02-23_11h27.40.138,VisualSearch_2526_3,,2025.2.4,2026-02-23 11h27.40.369075 +0100,
vertical.xlsx,The target is tilted.,135,20,4,2,0,1,1,1,1,1,1,1,1,1,1,1,1,11,12,135,space,8.904733999999962,None,0,1,2.8447782999999163,None,space,3.5872847999999067,None,0,0,0,1,,,,,2,4,20,4,102.40038249999998,,,,,,,,,,,,,,,,,,,,,102.38536099999988,102.40038249999998,102.88442129999999,102.88976149999985,102.90736719999995,105.76629679999996,,,,,105.76643799999988,105.78232079999998,105.98280290000002,105.96678959999986,102.90736719999995,,,,,,,,0,1,2.8447782999999163,None,,,,,,,,849,23,V,L,2026-02-23_11h27.40.138,VisualSearch_2526_3,,2025.2.4,2026-02-23 11h27.40.369075 +0100,
vertical.xlsx,The target is tilted.,135,21,5,2,0,0,0,0,0,0,0,0,0,0,0,0,1,1,1,135,space,8.904733999999962,None,0,1,0.7672178000000258,None,space,3.5872847999999067,None,0,0,0,1,,,,,2,5,21,7,105.98280290000002,,,,,,,,,,,,,,,,,,,,,105.96758249999993,105.98280290000002,106.46666890000006,106.47191610000004,106.48979499999996,107.26646110000001,,,,,107.26661330000002,107.28165719999993,107.4820757,107.46594209999989,106.48979499999996,,,,,,,,0,1,0.7672178000000258,None,,,,,,,,849,23,V,L,2026-02-23_11h27.40.138,VisualSearch_2526_3,,2025.2.4,2026-02-23 11h27.40.369075 +0100,
vertical.xlsx,The target is tilted.,135,22,6,2,1,1,1,1,1,1,1,1,0,0,0,0,0,7,8,135,space,8.904733999999962,None,0,0,2.3193216999998185,None,space,3.5872847999999067,None,0,0,0,1,,,,,2,6,22,1,107.4820757,,,,,,,,,,,,,,,,,,,,,107.46674340000004,107.4820757,107.9662335999999,107.97123519999991,107.98195119999991,110.31540169999994,,,,,110.31563549999987,110.3306740999999,110.53126709999992,110.51524470000004,107.98195119999991,,,,,,,,0,0,2.3193216999998185,None,,,,,,,,849,23,V,L,2026-02-23_11h27.40.138,VisualSearch_2526_3,,2025.2.4,2026-02-23 11h27.40.369075 +0100,
vertical.xlsx,The target is tilted.,135,23,7,2,1,1,1,1,1,1,1,1,1,1,1,1,0,11,12,135,space,8.904733999999962,None,1,1,1.931064200000037,None,space,3.5872847999999067,None,0,0,0,1,,,,,2,7,23,0,110.53126709999992,,,,,,,,,,,,,,,,,,,,,110.51604099999986,110.53126709999992,111.01430260000006,111.01661360000003,111.03081829999996,112.96518650000007,,,,,112.96534279999992,112.97979910000004,113.18034859999989,113.16448719999994,111.03081829999996,,,,,,,,1,1,1.931064200000037,None,,,,,,,,849,23,V,L,2026-02-23_11h27.40.138,VisualSearch_2526_3,,2025.2.4,2026-02-23 11h27.40.369075 +0100,
vertical.xlsx,The target is tilted.,135,24,0,3,1,1,1,1,0,0,0,0,0,0,0,0,0,3,4,135,space,8.904733999999962,None,1,1,0.7134192000000894,None,space,3.5872847999999067,None,0,0,0,1,,,,,3,0,24,2,113.18034859999989,,,,,,,,,,,,,,,,,,,,,113.16535899999985,113.18034859999989,113.66390359999991,113.66921639999987,113.68657979999989,114.41333659999987,,,,,114.41347670000005,114.429304,,114.61375240000007,113.68657979999989,,,,,,,,1,1,0.7134192000000894,None,,,,,,,,849,23,V,L,2026-02-23_11h27.40.138,VisualSearch_2526_3,,2025.2.4,2026-02-23 11h27.40.369075 +0100,
vertical.xlsx,The target is tilted.,135,25,1,3,0,1,1,1,1,1,1,1,1,1,1,1,1,11,12,135,space,8.904733999999962,None,0,1,1.769597900000008,None,space,3.5872847999999067,None,0,0,0,1,,,,,3,1,25,4,114.62997019999989,,,,,,,,,,,,,,,,,,,,,114.6146271,114.62997019999989,115.11381489999985,115.11905989999991,115.13721209999994,116.9134853999999,,,,,116.91371520000007,116.92885230000002,117.12895419999995,117.11322210000003,115.13721209999994,,,,,,,,0,1,1.769597900000008,None,,,,,,,,849,23,V,L,2026-02-23_11h27.40.138,VisualSearch_2526_3,,2025.2.4,2026-02-23 11h27.40.369075 +0100,
vertical.xlsx,The target is tilted.,135,26,2,3,1,1,1,1,1,1,1,1,1,1,1,1,0,11,12,135,space,8.904733999999962,None,0,0,1.674823399999923,None,space,3.5872847999999067,None,0,0,0,1,,,,,3,2,26,0,117.12895419999995,,,,,,,,,,,,,,,,,,,,,117.11407220000001,117.12895419999995,117.61302580000006,117.61834750000003,117.63458259999993,119.31243549999999,,,,,119.31258619999994,119.32789490000005,119.52850480000006,119.51224739999998,117.63458259999993,,,,,,,,0,0,1.674823399999923,None,,,,,,,,849,23,V,L,2026-02-23_11h27.40.138,VisualSearch_2526_3,,2025.2.4,2026-02-23 11h27.40.369075 +0100,
vertical.xlsx,The target is tilted.,135,27,3,3,0,1,1,1,0,0,0,0,0,0,0,0,1,3,4,135,space,8.904733999999962,None,0,1,1.4083944999999858,None,space,3.5872847999999067,None,0,0,0,1,,,,,3,3,27,6,119.52850480000006,,,,,,,,,,,,,,,,,,,,,119.51307299999985,119.52850480000006,120.01217479999991,120.01758989999985,120.0339669,121.44513009999991,,,,,121.4452839999999,121.46048219999989,121.66107680000005,121.64498909999998,120.0339669,,,,,,,,0,1,1.4083944999999858,None,,,,,,,,849,23,V,L,2026-02-23_11h27.40.138,VisualSearch_2526_3,,2025.2.4,2026-02-23 11h27.40.369075 +0100,
vertical.xlsx,The target is tilted.,135,28,4,3,0,0,0,0,0,0,0,0,0,0,0,0,1,1,1,135,space,8.904733999999962,None,0,1,0.7715629000001627,None,space,3.5872847999999067,None,0,0,0,1,,,,,3,4,28,7,121.66107680000005,,,,,,,,,,,,,,,,,,,,,121.64578649999999,121.66107680000005,122.144499,122.14986359999989,122.16907760000004,122.94493399999988,,,,,122.94516039999985,122.95984520000002,123.16059380000002,123.1446335999999,122.16907760000004,,,,,,,,0,1,0.7715629000001627,None,,,,,,,,849,23,V,L,2026-02-23_11h27.40.138,VisualSearch_2526_3,,2025.2.4,2026-02-23 11h27.40.369075 +0100,
vertical.xlsx,The target is tilted.,135,29,5,3,1,1,1,1,1,1,1,1,0,0,0,0,0,7,8,135,space,8.904733999999962,None,1,1,1.1110829000001559,None,space,3.5872847999999067,None,0,0,0,1,,,,,3,5,29,1,123.16059380000002,,,,,,,,,,,,,,,,,,,,,123.14545440000006,123.16059380000002,123.6443953999999,123.64980330000003,123.66804660000003,124.79371620000006,,,,,124.7939257999999,124.8093131999999,125.00972739999997,124.99394740000002,123.66804660000003,,,,,,,,1,1,1.1110829000001559,None,,,,,,,,849,23,V,L,2026-02-23_11h27.40.138,VisualSearch_2526_3,,2025.2.4,2026-02-23 11h27.40.369075 +0100,
vertical.xlsx,The target is tilted.,135,30,6,3,1,0,0,0,0,0,0,0,0,0,0,0,0,0,1,135,space,8.904733999999962,None,1,1,0.7444222999999965,None,space,3.5872847999999067,None,0,0,0,1,,,,,3,6,30,3,125.00972739999997,,,,,,,,,,,,,,,,,,,,,124.99474349999991,125.00972739999997,125.4937625,125.49896749999994,125.51509469999996,126.27614419999986,,,,,126.27628679999998,126.29252799999995,126.49283609999998,126.47634010000002,125.51509469999996,,,,,,,,1,1,0.7444222999999965,None,,,,,,,,849,23,V,L,2026-02-23_11h27.40.138,VisualSearch_2526_3,,2025.2.4,2026-02-23 11h27.40.369075 +0100,
vertical.xlsx,The target is tilted.,135,31,7,3,0,1,1,1,1,1,1,1,0,0,0,0,1,7,8,135,space,8.904733999999962,None,0,1,1.1884950000001027,None,space,3.5872847999999067,None,0,0,0,1,,,,,3,7,31,5,126.49283609999998,,,,,,,,,,,,,,,,,,,,,126.47713909999993,126.49283609999998,126.97640980000006,126.98102619999986,126.99252950000005,128.19313850000003,,,,,128.19336539999995,128.20854570000006,128.40871079999988,128.39279469999997,,,,,,,,,0,1,1.1884950000001027,None,,,,,,,,849,23,V,L,2026-02-23_11h27.40.138,VisualSearch_2526_3,,2025.2.4,2026-02-23 11h27.40.369075 +0100,
vertical.xlsx,The target is tilted.,135,32,0,4,1,1,1,1,0,0,0,0,0,0,0,0,0,3,4,135,space,8.904733999999962,None,0,0,1.0379133000001275,None,space,3.5872847999999067,None,0,0,0,1,,,,,4,0,32,2,128.40871079999988,,,,,,,,,,,,,,,,,,,,,128.3935859999999,128.40871079999988,128.89271409999992,128.89803669999992,128.91959640000005,129.95919750000007,,,,,129.95939999999996,129.97447899999997,130.17498769999997,130.15858460000004,128.91959640000005,,,,,,,,0,0,1.0379133000001275,None,,,,,,,,849,23,V,L,2026-02-23_11h27.40.138,VisualSearch_2526_3,,2025.2.4,2026-02-23 11h27.40.369075 +0100,
vertical.xlsx,The target is tilted.,135,33,1,4,0,1,1,1,0,0,0,0,0,0,0,0,1,3,4,135,space,8.904733999999962,None,0,1,2.2840777999999773,None,space,3.5872847999999067,None,0,0,0,1,,,,,4,1,33,6,130.17498769999997,,,,,,,,,,,,,,,,,,,,,130.15942259999997,130.17498769999997,130.6587525,130.6638097,130.67458299999998,132.97470629999998,,,,,132.97493770000005,132.99006039999995,133.19034970000007,133.17461279999998,130.67458299999998,,,,,,,,0,1,2.2840777999999773,None,,,,,,,,849,23,V,L,2026-02-23_11h27.40.138,VisualSearch_2526_3,,2025.2.4,2026-02-23 11h27.40.369075 +0100,
vertical.xlsx,The target is tilted.,135,34,2,4,1,0,0,0,0,0,0,0,0,0,0,0,0,0,1,135,space,8.904733999999962,None,1,1,0.6933142000000316,None,space,3.5872847999999067,None,0,0,0,1,,,,,4,2,34,3,133.19034970000007,,,,,,,,,,,,,,,,,,,,,133.1754128,133.19034970000007,133.6741351999999,133.6793565999999,133.69741529999988,134.40707969999994,,,,,134.40723349999985,134.42284219999988,134.6236065999999,134.60744120000004,133.69741529999988,,,,,,,,1,1,0.6933142000000316,None,,,,,,,,849,23,V,L,2026-02-23_11h27.40.138,VisualSearch_2526_3,,2025.2.4,2026-02-23 11h27.40.369075 +0100,
vertical.xlsx,The target is tilted.,135,35,3,4,0,1,1,1,1,1,1,1,1,1,1,1,1,11,12,135,space,8.904733999999962,None,0,1,2.1105744999999843,None,space,3.5872847999999067,None,0,0,0,1,,,,,4,3,35,4,134.6236065999999,,,,,,,,,,,,,,,,,,,,,134.60826380000003,134.6236065999999,135.10740429999987,135.1134138,135.1313078999999,137.25604320000002,,,,,137.25619789999996,137.27239989999998,137.47265429999993,137.45648110000002,135.1313078999999,,,,,,,,0,1,2.1105744999999843,None,,,,,,,,849,23,V,L,2026-02-23_11h27.40.138,VisualSearch_2526_3,,2025.2.4,2026-02-23 11h27.40.369075 +0100,
vertical.xlsx,The target is tilted.,135,36,4,4,0,0,0,0,0,0,0,0,0,0,0,0,1,1,1,135,space,8.904733999999962,None,0,1,0.7605352000000494,None,space,3.5872847999999067,None,0,0,0,1,,,,,4,4,36,7,137.47265429999993,,,,,,,,,,,,,,,,,,,,,137.45728229999986,137.47265429999993,137.95640060000005,137.9615678,137.97924779999994,138.75582099999997,,,,,138.7560438999999,138.7714825999999,138.97214629999985,138.95610450000004,137.97924779999994,,,,,,,,0,1,0.7605352000000494,None,,,,,,,,849,23,V,L,2026-02-23_11h27.40.138,VisualSearch_2526_3,,2025.2.4,2026-02-23 11h27.40.369075 +0100,
vertical.xlsx,The target is tilted.,135,37,5,4,0,1,1,1,1,1,1,1,0,0,0,0,1,7,8,135,space,8.904733999999962,None,0,1,1.2177227999998195,None,space,3.5872847999999067,None,0,0,0,1,,,,,4,5,37,5,138.97214629999985,,,,,,,,,,,,,,,,,,,,,138.95691209999995,138.97214629999985,139.45560439999986,139.4609671999999,139.47945579999987,140.70563849999985,,,,,140.70582139999988,140.72067889999994,140.9215001,140.90539220000005,139.47945579999987,,,,,,,,0,1,1.2177227999998195,None,,,,,,,,849,23,V,L,2026-02-23_11h27.40.138,VisualSearch_2526_3,,2025.2.4,2026-02-23 11h27.40.369075 +0100,
vertical.xlsx,The target is tilted.,135,38,6,4,1,1,1,1,1,1,1,1,0,0,0,0,0,7,8,135,space,8.904733999999962,None,0,0,1.1045702999999776,None,space,3.5872847999999067,None,0,0,0,1,,,,,4,6,38,1,140.9215001,,,,,,,,,,,,,,,,,,,,,140.90619130000005,140.9215001,141.40534869999988,141.41070450000007,141.42594659999986,142.53869910000003,,,,,142.53893259999995,142.55383159999997,142.7542636999999,142.7382373999999,141.42594659999986,,,,,,,,0,0,1.1045702999999776,None,,,,,,,,849,23,V,L,2026-02-23_11h27.40.138,VisualSearch_2526_3,,2025.2.4,2026-02-23 11h27.40.369075 +0100,
vertical.xlsx,The target is tilted.,135,39,7,4,1,1,1,1,1,1,1,1,1,1,1,1,0,11,12,135,space,8.904733999999962,None,1,1,1.4826854000000367,None,space,3.5872847999999067,None,0,0,0,1,,,,,4,7,39,0,142.7542636999999,,,,,,,,,,,,,,,,,,,,,142.73907009999994,142.7542636999999,143.2380619999999,143.24325720000002,143.26089739999998,144.75531869999986,,,,,144.7555551999999,144.76966149999998,144.97008979999987,144.95413869999993,143.26089739999998,,,,,,,,1,1,1.4826854000000367,None,,,,,,,,849,23,V,L,2026-02-23_11h27.40.138,VisualSearch_2526_3,,2025.2.4,2026-02-23 11h27.40.369075 +0100,
vertical.xlsx,The target is tilted.,135,40,0,5,0,1,1,1,0,0,0,0,0,0,0,0,1,3,4,135,space,8.904733999999962,None,0,1,0.9585985999999593,None,space,3.5872847999999067,None,0,0,0,1,,,,,5,0,40,6,144.97008979999987,,,,,,,,,,,,,,,,,,,,,144.95498829999997,144.97008979999987,145.45398479999994,145.45938490000003,145.47691489999988,146.43761470000004,,,,,146.43784200000005,146.4524750999999,146.65255039999988,146.6366097,145.47691489999988,,,,,,,,0,1,0.9585985999999593,None,,,,,,,,849,23,V,L,2026-02-23_11h27.40.138,VisualSearch_2526_3,,2025.2.4,2026-02-23 11h27.40.369075 +0100,
vertical.xlsx,The target is tilted.,135,41,1,5,1,1,1,1,0,0,0,0,0,0,0,0,0,3,4,135,space,8.904733999999962,None,1,1,0.6401717999999619,None,space,3.5872847999999067,None,0,0,0,1,,,,,5,1,41,2,146.65255039999988,,,,,,,,,,,,,,,,,,,,,146.63742019999995,146.65255039999988,147.13681359999987,147.1420556999999,147.16020230000004,147.8036184,,,,,147.80381910000006,147.81867109999985,148.01887409999995,148.00312699999995,147.16020230000004,,,,,,,,1,1,0.6401717999999619,None,,,,,,,,849,23,V,L,2026-02-23_11h27.40.138,VisualSearch_2526_3,,2025.2.4,2026-02-23 11h27.40.369075 +0100,
vertical.xlsx,The target is tilted.,135,42,2,5,0,1,1,1,1,1,1,1,1,1,1,1,1,11,12,135,space,8.904733999999962,None,0,1,1.5729804000000058,None,space,3.5872847999999067,None,0,0,0,1,,,,,5,2,42,4,148.01887409999995,,,,,,,,,,,,,,,,,,,,,148.00395679999997,148.01887409999995,148.50284549999992,148.50802410000006,148.52445119999993,150.10223859999996,,,,,150.1024218,150.117974,150.31862060000003,150.30240950000007,148.52445119999993,,,,,,,,0,1,1.5729804000000058,None,,,,,,,,849,23,V,L,2026-02-23_11h27.40.138,VisualSearch_2526_3,,2025.2.4,2026-02-23 11h27.40.369075 +0100,
vertical.xlsx,The target is tilted.,135,43,3,5,0,1,1,1,1,1,1,1,0,0,0,0,1,7,8,135,space,8.904733999999962,None,0,1,1.0463836999999785,None,space,3.5872847999999067,None,0,0,0,1,,,,,5,3,43,5,150.31862060000003,,,,,,,,,,,,,,,,,,,,,150.3031985,150.31862060000003,150.80223950000004,150.8074199,150.82338499999992,151.88461979999988,,,,,151.88477169999987,151.90042240000002,152.1011922,152.0851447,150.82338499999992,,,,,,,,0,1,1.0463836999999785,None,,,,,,,,849,23,V,L,2026-02-23_11h27.40.138,VisualSearch_2526_3,,2025.2.4,2026-02-23 11h27.40.369075 +0100,
vertical.xlsx,The target is tilted.,135,44,4,5,0,0,0,0,0,0,0,0,0,0,0,0,1,1,1,135,space,8.904733999999962,None,0,1,1.039624700000104,None,space,3.5872847999999067,None,0,0,0,1,,,,,5,4,44,7,152.1011922,,,,,,,,,,,,,,,,,,,,,152.08604590000004,152.1011922,152.58490689999985,152.59016619999989,152.60803529999998,153.6516193,,,,,153.65184599999998,153.66656969999985,153.8672942999999,153.85129370000004,152.60803529999998,,,,,,,,0,1,1.039624700000104,None,,,,,,,,849,23,V,L,2026-02-23_11h27.40.138,VisualSearch_2526_3,,2025.2.4,2026-02-23 11h27.40.369075 +0100,
vertical.xlsx,The target is tilted.,135,45,5,5,1,1,1,1,1,1,1,1,1,1,1,1,0,11,12,135,space,8.904733999999962,None,1,1,1.2654258000000027,None,space,3.5872847999999067,None,0,0,0,1,,,,,5,5,45,0,153.8672942999999,,,,,,,,,,,,,,,,,,,,,153.85208999999986,153.8672942999999,154.35097629999996,154.3563841,154.37404779999997,155.65101409999988,,,,,155.65121769999996,155.66612050000003,155.86622869999997,155.85049460000005,154.37404779999997,,,,,,,,1,1,1.2654258000000027,None,,,,,,,,849,23,V,L,2026-02-23_11h27.40.138,VisualSearch_2526_3,,2025.2.4,2026-02-23 11h27.40.369075 +0100,
vertical.xlsx,The target is tilted.,135,46,6,5,1,1,1,1,1,1,1,1,0,0,0,0,0,7,8,135,space,8.904733999999962,None,1,1,1.378910899999937,None,space,3.5872847999999067,None,0,0,0,1,,,,,5,6,46,1,155.86622869999997,,,,,,,,,,,,,,,,,,,,,155.85131189999993,155.86622869999997,156.35041739999997,156.35561749999988,156.3732571999999,157.7666468,,,,,157.766885,157.78195319999986,157.98256960000003,157.9665568999999,156.3732571999999,,,,,,,,1,1,1.378910899999937,None,,,,,,,,849,23,V,L,2026-02-23_11h27.40.138,VisualSearch_2526_3,,2025.2.4,2026-02-23 11h27.40.369075 +0100,
vertical.xlsx,The target is tilted.,135,47,7,5,1,0,0,0,0,0,0,0,0,0,0,0,0,0,1,135,space,8.904733999999962,None,1,1,0.5536149999998088,None,space,3.5872847999999067,None,0,0,0,1,,,,,5,7,47,3,157.98256960000003,,,,,,,,,,,,,,,,,,,,,157.96734479999986,157.98256960000003,158.46631000000002,158.4715185,158.48898409999993,159.04987899999992,,,,,159.05010429999993,159.06501439999988,159.26560930000005,159.24925299999995,158.48898409999993,,,,,,,,1,1,0.5536149999998088,None,,,,,,,,849,23,V,L,2026-02-23_11h27.40.138,VisualSearch_2526_3,,2025.2.4,2026-02-23 11h27.40.369075 +0100,
vertical.xlsx,The target is tilted.,135,48,0,6,1,1,1,1,0,0,0,0,0,0,0,0,0,3,4,135,space,8.904733999999962,None,0,0,1.1023574000000735,None,space,3.5872847999999067,None,0,0,0,1,,,,,6,0,48,2,159.26560930000005,,,,,,,,,,,,,,,,,,,,,159.25007949999986,159.26560930000005,159.74933459999988,159.75467349999985,159.77239829999985,160.8824193999999,,,,,160.88255839999988,160.89764760000003,161.0979640999999,161.08223079999993,159.77239829999985,,,,,,,,0,0,1.1023574000000735,None,,,,,,,,849,23,V,L,2026-02-23_11h27.40.138,VisualSearch_2526_3,,2025.2.4,2026-02-23 11h27.40.369075 +0100,
vertical.xlsx,The target is tilted.,135,49,1,6,0,1,1,1,1,1,1,1,0,0,0,0,1,7,8,135,space,8.904733999999962,None,0,1,1.6144228000000567,None,space,3.5872847999999067,None,0,0,0,1,,,,,6,1,49,5,161.0979640999999,,,,,,,,,,,,,,,,,,,,,161.08302909999998,161.0979640999999,161.5820698,161.5872614,161.60402780000004,163.2311803,,,,,163.23132280000004,163.24692290000007,163.44753449999985,163.4313170999999,161.60402780000004,,,,,,,,0,1,1.6144228000000567,None,,,,,,,,849,23,V,L,2026-02-23_11h27.40.138,VisualSearch_2526_3,,2025.2.4,2026-02-23 11h27.40.369075 +0100,
vertical.xlsx,The target is tilted.,135,50,2,6,0,1,1,1,1,1,1,1,1,1,1,1,1,11,12,135,space,8.904733999999962,None,0,1,2.481650300000183,None,space,3.5872847999999067,None,0,0,0,1,,,,,6,2,50,4,163.44753449999985,,,,,,,,,,,,,,,,,,,,,163.43214829999988,163.44753449999985,163.93116570000007,163.93646130000002,163.9525968999999,166.44665009999994,,,,,166.44680619999986,166.462493,166.66314539999985,166.64695200000006,163.9525968999999,,,,,,,,0,1,2.481650300000183,None,,,,,,,,849,23,V,L,2026-02-23_11h27.40.138,VisualSearch_2526_3,,2025.2.4,2026-02-23 11h27.40.369075 +0100,
vertical.xlsx,The target is tilted.,135,51,3,6,1,1,1,1,1,1,1,1,1,1,1,1,0,11,12,135,space,8.904733999999962,None,0,0,2.0977241000000504,None,space,3.5872847999999067,None,0,0,0,1,,,,,6,3,51,0,166.66314539999985,,,,,,,,,,,,,,,,,,,,,166.6478591,166.66314539999985,167.1468261,167.15201750000006,167.16944149999995,169.2795501999999,,,,,169.27978039999994,169.29496769999992,169.4954891,169.47919890000003,167.16944149999995,,,,,,,,0,0,2.0977241000000504,None,,,,,,,,849,23,V,L,2026-02-23_11h27.40.138,VisualSearch_2526_3,,2025.2.4,2026-02-23 11h27.40.369075 +0100,
vertical.xlsx,The target is tilted.,135,52,4,6,0,1,1,1,0,0,0,0,0,0,0,0,1,3,4,135,space,8.904733999999962,None,0,1,1.6470818999998755,None,space,3.5872847999999067,None,0,0,0,1,,,,,6,4,52,6,169.4954891,,,,,,,,,,,,,,,,,,,,,169.48004850000007,169.4954891,169.97923259999993,169.9844389,170.00182519999998,171.6618489,,,,,171.66205569999988,171.67750320000005,171.87804119999987,171.86206990000005,170.00182519999998,,,,,,,,0,1,1.6470818999998755,None,,,,,,,,849,23,V,L,2026-02-23_11h27.40.138,VisualSearch_2526_3,,2025.2.4,2026-02-23 11h27.40.369075 +0100,
vertical.xlsx,The target is tilted.,135,53,5,6,0,0,0,0,0,0,0,0,0,0,0,0,1,1,1,135,space,8.904733999999962,None,0,1,0.8748929000000771,None,space,3.5872847999999067,None,0,0,0,1,,,,,6,5,53,7,171.87804119999987,,,,,,,,,,,,,,,,,,,,,171.86287029999994,171.87804119999987,172.36191919999987,172.36744249999992,172.38677570000004,173.2778214,,,,,173.2779736,173.29357319999986,173.49417040000003,173.4782318,172.38677570000004,,,,,,,,0,1,0.8748929000000771,None,,,,,,,,849,23,V,L,2026-02-23_11h27.40.138,VisualSearch_2526_3,,2025.2.4,2026-02-23 11h27.40.369075 +0100,
vertical.xlsx,The target is tilted.,135,54,6,6,1,1,1,1,1,1,1,1,0,0,0,0,0,7,8,135,space,8.904733999999962,None,1,1,1.1118124000001899,None,space,3.5872847999999067,None,0,0,0,1,,,,,6,6,54,1,173.49417040000003,,,,,,,,,,,,,,,,,,,,,173.47904889999995,173.49417040000003,173.97801819999995,173.98319949999996,174.00151729999993,175.12758800000006,,,,,175.12778690000005,175.14319669999986,175.34362190000002,175.32754969999996,174.00151729999993,,,,,,,,1,1,1.1118124000001899,None,,,,,,,,849,23,V,L,2026-02-23_11h27.40.138,VisualSearch_2526_3,,2025.2.4,2026-02-23 11h27.40.369075 +0100,
vertical.xlsx,The target is tilted.,135,55,7,6,1,0,0,0,0,0,0,0,0,0,0,0,0,0,1,135,space,8.904733999999962,None,1,1,0.6690980000000764,None,space,3.5872847999999067,None,0,0,0,1,,,,,6,7,55,3,175.34362190000002,,,,,,,,,,,,,,,,,,,,,175.3283406999999,175.34362190000002,175.82744649999995,175.83277049999992,175.85106399999995,176.5271694999999,,,,,176.52731040000003,176.5427072,176.74314060000006,176.72711129999993,175.85106399999995,,,,,,,,1,1,0.6690980000000764,None,,,,,,,,849,23,V,L,2026-02-23_11h27.40.138,VisualSearch_2526_3,,2025.2.4,2026-02-23 11h27.40.369075 +0100,
vertical.xlsx,The target is tilted.,135,56,0,7,1,1,1,1,1,1,1,1,0,0,0,0,0,7,8,135,space,8.904733999999962,None,1,1,1.3129910999998629,None,space,3.5872847999999067,None,0,0,0,1,,,,,7,0,56,1,176.74314060000006,,,,,,,,,,,,,,,,,,,,,176.7279137999999,176.74314060000006,177.22683770000003,177.23198479999996,177.24936209999987,178.57598499999995,,,,,178.57612670000003,178.59237299999995,178.7924645999999,178.77628959999993,177.24936209999987,,,,,,,,1,1,1.3129910999998629,None,,,,,,,,849,23,V,L,2026-02-23_11h27.40.138,VisualSearch_2526_3,,2025.2.4,2026-02-23 11h27.40.369075 +0100,
vertical.xlsx,The target is tilted.,135,57,1,7,1,0,0,0,0,0,0,0,0,0,0,0,0,0,1,135,space,8.904733999999962,None,1,1,0.7392297999999755,None,space,3.5872847999999067,None,0,0,0,1,,,,,7,1,57,3,178.7924645999999,,,,,,,,,,,,,,,,,,,,,178.77711049999994,178.7924645999999,179.27609710000002,179.28134669999986,179.299123,180.0430108999999,,,,,180.04323750000003,180.0582033999999,180.2587363,180.24258489999988,179.299123,,,,,,,,1,1,0.7392297999999755,None,,,,,,,,849,23,V,L,2026-02-23_11h27.40.138,VisualSearch_2526_3,,2025.2.4,2026-02-23 11h27.40.369075 +0100,
vertical.xlsx,The target is tilted.,135,58,2,7,0,1,1,1,1,1,1,1,1,1,1,1,1,11,12,135,space,8.904733999999962,None,0,1,2.6153984999998556,None,space,3.5872847999999067,None,0,0,0,1,,,,,7,2,58,4,180.2587363,,,,,,,,,,,,,,,,,,,,,180.24339340000006,180.2587363,180.74246019999987,180.74769579999997,180.76414509999995,183.39165950000006,,,,,183.3918271,183.40711280000005,183.60767650000003,183.59149969999999,180.76414509999995,,,,,,,,0,1,2.6153984999998556,None,,,,,,,,849,23,V,L,2026-02-23_11h27.40.138,VisualSearch_2526_3,,2025.2.4,2026-02-23 11h27.40.369075 +0100,
vertical.xlsx,The target is tilted.,135,59,3,7,0,1,1,1,0,0,0,0,0,0,0,0,1,3,4,135,space,8.904733999999962,None,0,1,0.8247060000001056,None,space,3.5872847999999067,None,0,0,0,1,,,,,7,3,59,6,183.60767650000003,,,,,,,,,,,,,,,,,,,,,183.592308,183.60767650000003,184.09142999999995,184.09672030000002,184.11364179999987,184.9418103999999,,,,,184.94203229999994,184.95660320000002,185.15714950000006,185.14094290000003,184.11364179999987,,,,,,,,0,1,0.8247060000001056,None,,,,,,,,849,23,V,L,2026-02-23_11h27.40.138,VisualSearch_2526_3,,2025.2.4,2026-02-23 11h27.40.369075 +0100,
vertical.xlsx,The target is tilted.,135,60,4,7,0,0,0,0,0,0,0,0,0,0,0,0,1,1,1,135,space,8.904733999999962,None,0,1,0.5677192000000559,None,space,3.5872847999999067,None,0,0,0,1,,,,,7,4,60,7,185.15714950000006,,,,,,,,,,,,,,,,,,,,,185.1417684999999,185.15714950000006,185.6407638999999,185.64597759999992,185.66280319999987,186.24120360000006,,,,,186.24146969999993,186.25618379999992,186.45672949999994,186.4404995,185.66280319999987,,,,,,,,0,1,0.5677192000000559,None,,,,,,,,849,23,V,L,2026-02-23_11h27.40.138,VisualSearch_2526_3,,2025.2.4,2026-02-23 11h27.40.369075 +0100,
vertical.xlsx,The target is tilted.,135,61,5,7,1,1,1,1,1,1,1,1,1,1,1,1,0,11,12,135,space,8.904733999999962,None,0,0,1.9573392999998305,None,space,3.5872847999999067,None,0,0,0,1,,,,,7,5,61,0,186.45672949999994,,,,,,,,,,,,,,,,,,,,,186.44135230000006,186.45672949999994,186.9404371999999,186.94578460000002,186.96287719999987,188.92301479999992,,,,,188.92317179999986,188.93856849999997,189.13885249999998,189.1229604,186.96287719999987,,,,,,,,0,0,1.9573392999998305,None,,,,,,,,849,23,V,L,2026-02-23_11h27.40.138,VisualSearch_2526_3,,2025.2.4,2026-02-23 11h27.40.369075 +0100,
vertical.xlsx,The target is tilted.,135,62,6,7,0,1,1,1,1,1,1,1,0,0,0,0,1,7,8,135,space,8.904733999999962,None,0,1,1.3831230999999207,None,space,3.5872847999999067,None,0,0,0,1,,,,,7,6,62,5,189.13885249999998,,,,,,,,,,,,,,,,,,,,,189.12375380000003,189.13885249999998,189.62299319999988,189.62832379999986,189.64658059999988,191.0398063,,,,,191.04003149999994,191.0545428999999,191.25515180000002,191.23917039999992,189.64658059999988,,,,,,,,0,1,1.3831230999999207,None,,,,,,,,849,23,V,L,2026-02-23_11h27.40.138,VisualSearch_2526_3,,2025.2.4,2026-02-23 11h27.40.369075 +0100,
vertical.xlsx,The target is tilted.,135,63,7,7,1,1,1,1,0,0,0,0,0,0,0,0,0,3,4,135,space,8.904733999999962,None,1,1,1.0736354000000574,None,space,3.5872847999999067,None,0,0,0,1,,,,,7,7,63,2,191.25515180000002,,,,,,,,,,,,,,,,,,,,,191.24000230000001,191.25515180000002,191.73862289999988,191.7438565,191.761031,192.83830839999996,,,,,192.83848050000006,192.85404010000002,193.05440999999996,193.03814569999986,191.761031,,,,,,,,1,1,1.0736354000000574,None,,,,,,,,849,23,V,L,2026-02-23_11h27.40.138,VisualSearch_2526_3,,2025.2.4,2026-02-23 11h27.40.369075 +0100,
vertical.xlsx,The target is tilted.,135,64,0,8,0,0,0,0,0,0,0,0,0,0,0,0,1,1,1,135,space,8.904733999999962,None,0,1,1.205420199999935,None,space,3.5872847999999067,None,0,0,0,1,,,,,8,0,64,7,193.05440999999996,,,,,,,,,,,,,,,,,,,,,193.03862800000002,193.05440999999996,193.5384004,193.54358439999987,193.56121630000007,194.77189069999986,,,,,194.77213570000004,194.78668429999993,194.9872820999999,194.9708857999999,193.56121630000007,,,,,,,,0,1,1.205420199999935,None,,,,,,,,849,23,V,L,2026-02-23_11h27.40.138,VisualSearch_2526_3,,2025.2.4,2026-02-23 11h27.40.369075 +0100,
vertical.xlsx,The target is tilted.,135,65,1,8,1,1,1,1,1,1,1,1,1,1,1,1,0,11,12,135,space,8.904733999999962,None,1,1,1.6066239000001588,None,space,3.5872847999999067,None,0,0,0,1,,,,,8,1,65,0,194.9872820999999,,,,,,,,,,,,,,,,,,,,,194.97170299999993,194.9872820999999,195.47097680000002,195.47615059999998,195.49455850000004,197.10458360000007,,,,,197.1047363,197.11923359999992,197.3195771999999,197.3034103,195.49455850000004,,,,,,,,1,1,1.6066239000001588,None,,,,,,,,849,23,V,L,2026-02-23_11h27.40.138,VisualSearch_2526_3,,2025.2.4,2026-02-23 11h27.40.369075 +0100,
vertical.xlsx,The target is tilted.,135,66,2,8,1,0,0,0,0,0,0,0,0,0,0,0,0,0,1,135,space,8.904733999999962,None,1,1,0.6776022999999896,None,space,3.5872847999999067,None,0,0,0,1,,,,,8,2,66,3,197.3195771999999,,,,,,,,,,,,,,,,,,,,,197.3042264999999,197.3195771999999,197.80348320000007,197.8082374999999,197.81942219999996,198.5040004,,,,,198.50426670000002,198.51889140000003,198.7192496,198.70335780000005,197.81942219999996,,,,,,,,1,1,0.6776022999999896,None,,,,,,,,849,23,V,L,2026-02-23_11h27.40.138,VisualSearch_2526_3,,2025.2.4,2026-02-23 11h27.40.369075 +0100,
vertical.xlsx,The target is tilted.,135,67,3,8,0,1,1,1,0,0,0,0,0,0,0,0,1,3,4,135,space,8.904733999999962,None,0,1,1.0375380000000405,None,space,3.5872847999999067,None,0,0,0,1,,,,,8,3,67,6,198.7192496,,,,,,,,,,,,,,,,,,,,,198.7042245,198.7192496,199.2031953999999,199.20847989999993,199.22717399999988,200.27007490000005,,,,,200.2703351,200.28488990000005,200.48556740000004,200.46928209999987,199.22717399999988,,,,,,,,0,1,1.0375380000000405,None,,,,,,,,849,23,V,L,2026-02-23_11h27.40.138,VisualSearch_2526_3,,2025.2.4,2026-02-23 11h27.40.369075 +0100,
vertical.xlsx,The target is tilted.,135,68,4,8,0,1,1,1,1,1,1,1,0,0,0,0,1,7,8,135,space,8.904733999999962,None,0,1,2.0018784000001233,None,space,3.5872847999999067,None,0,0,0,1,,,,,8,4,68,5,200.48556740000004,,,,,,,,,,,,,,,,,,,,,200.4700757999999,200.48556740000004,200.9692794,200.97444180000002,200.99203549999993,203.0021428,,,,,203.00222959999996,203.017161,203.21800069999995,203.20206340000004,200.99203549999993,,,,,,,,0,1,2.0018784000001233,None,,,,,,,,849,23,V,L,2026-02-23_11h27.40.138,VisualSearch_2526_3,,2025.2.4,2026-02-23 11h27.40.369075 +0100,
vertical.xlsx,The target is tilted.,135,69,5,8,1,1,1,1,0,0,0,0,0,0,0,0,0,3,4,135,space,8.904733999999962,None,1,1,0.6788263000000825,None,space,3.5872847999999067,None,0,0,0,1,,,,,8,5,69,2,203.21800069999995,,,,,,,,,,,,,,,,,,,,,203.20291539999994,203.21800069999995,203.70157470000004,203.70681650000006,203.7236172999999,204.41716709999992,,,,,204.41729450000003,204.43354750000003,,204.61784680000005,203.7236172999999,,,,,,,,1,1,0.6788263000000825,None,,,,,,,,849,23,V,L,2026-02-23_11h27.40.138,VisualSearch_2526_3,,2025.2.4,2026-02-23 11h27.40.369075 +0100,
vertical.xlsx,The target is tilted.,135,70,6,8,0,1,1,1,1,1,1,1,1,1,1,1,1,11,12,135,space,8.904733999999962,None,0,1,1.987958400000025,None,space,3.5872847999999067,None,0,0,0,1,,,,,8,6,70,4,204.63420389999987,,,,,,,,,,,,,,,,,,,,,204.6187379999999,204.63420389999987,205.1177378,205.12298970000006,205.14076729999988,207.13388340000006,,,,,207.13403419999986,207.1491785999999,207.34969950000004,207.33371680000005,,,,,,,,,0,1,1.987958400000025,None,,,,,,,,849,23,V,L,2026-02-23_11h27.40.138,VisualSearch_2526_3,,2025.2.4,2026-02-23 11h27.40.369075 +0100,
vertical.xlsx,The target is tilted.,135,71,7,8,1,1,1,1,1,1,1,1,0,0,0,0,0,7,8,135,space,8.904733999999962,None,0,0,1.6890941000001476,None,space,3.5872847999999067,None,0,0,0,1,,,,,8,7,71,1,207.34969950000004,,,,,,,,,,,,,,,,,,,,,207.3345099999999,207.34969950000004,207.83377470000005,207.83888019999995,207.8567504,209.54983560000005,,,,,209.55001070000003,209.56528439999988,209.76577139999995,209.7494380999999,207.8567504,,,,,,,,0,0,1.6890941000001476,None,,,,,,,,849,23,V,L,2026-02-23_11h27.40.138,VisualSearch_2526_3,,2025.2.4,2026-02-23 11h27.40.369075 +0100,
vertical.xlsx,The target is tilted.,135,72,0,9,0,0,0,0,0,0,0,0,0,0,0,0,1,1,1,135,space,8.904733999999962,None,0,1,1.0719441999999617,None,space,3.5872847999999067,None,0,0,0,1,,,,,9,0,72,7,209.76577139999995,,,,,,,,,,,,,,,,,,,,,209.75024009999993,209.76577139999995,210.24927520000006,210.25439619999997,210.27142389999995,211.34895749999987,,,,,211.34907079999994,211.36432969999987,211.56509329999994,211.5490261,210.27142389999995,,,,,,,,0,1,1.0719441999999617,None,,,,,,,,849,23,V,L,2026-02-23_11h27.40.138,VisualSearch_2526_3,,2025.2.4,2026-02-23 11h27.40.369075 +0100,
vertical.xlsx,The target is tilted.,135,73,1,9,1,1,1,1,1,1,1,1,1,1,1,1,0,11,12,135,space,8.904733999999962,None,0,0,2.6388844999999037,None,space,3.5872847999999067,None,0,0,0,1,,,,,9,1,73,0,211.56509329999994,,,,,,,,,,,,,,,,,,,,,211.54981470000007,211.56509329999994,212.04906170000004,212.05416289999994,212.07054599999992,214.71541420000017,,,,,214.7156610999998,214.7302557999999,214.93071329999998,214.91473900000005,212.07054599999992,,,,,,,,0,0,2.6388844999999037,None,,,,,,,,849,23,V,L,2026-02-23_11h27.40.138,VisualSearch_2526_3,,2025.2.4,2026-02-23 11h27.40.369075 +0100,
vertical.xlsx,The target is tilted.,135,74,2,9,0,1,1,1,1,1,1,1,1,1,1,1,1,11,12,135,space,8.904733999999962,None,0,1,2.0947917000003144,None,space,3.5872847999999067,None,0,0,0,1,,,,,9,2,74,4,214.93071329999998,,,,,,,,,,,,,,,,,,,,,214.91555630000016,214.93071329999998,215.4146171,215.41986500000007,215.43794249999996,217.54720699999984,,,,,217.54743219999978,217.562631,217.7630670000001,217.74690780000014,215.43794249999996,,,,,,,,0,1,2.0947917000003144,None,,,,,,,,849,23,V,L,2026-02-23_11h27.40.138,VisualSearch_2526_3,,2025.2.4,2026-02-23 11h27.40.369075 +0100,
vertical.xlsx,The target is tilted.,135,75,3,9,1,0,0,0,0,0,0,0,0,0,0,0,0,0,1,135,space,8.904733999999962,None,1,1,1.314364100000148,None,space,3.5872847999999067,None,0,0,0,1,,,,,9,3,75,3,217.7630670000001,,,,,,,,,,,,,,,,,,,,,217.7477320999999,217.7630670000001,218.24703569999997,218.2521460999999,218.2697224000001,219.59718679999992,,,,,219.5974205,219.61202930000013,219.8125908999998,219.79641509999988,218.2697224000001,,,,,,,,1,1,1.314364100000148,None,,,,,,,,849,23,V,L,2026-02-23_11h27.40.138,VisualSearch_2526_3,,2025.2.4,2026-02-23 11h27.40.369075 +0100,
vertical.xlsx,The target is tilted.,135,76,4,9,0,1,1,1,1,1,1,1,0,0,0,0,1,7,8,135,space,8.904733999999962,None,0,1,1.9733681999996406,None,space,3.5872847999999067,None,0,0,0,1,,,,,9,4,76,5,219.8125908999998,,,,,,,,,,,,,,,,,,,,,219.7972173999999,219.8125908999998,220.29636659999983,220.30142739999997,220.3190004999999,222.29592479999997,,,,,222.29614659999993,222.3112782999999,222.5117213000001,222.49562469999978,220.3190004999999,,,,,,,,0,1,1.9733681999996406,None,,,,,,,,849,23,V,L,2026-02-23_11h27.40.138,VisualSearch_2526_3,,2025.2.4,2026-02-23 11h27.40.369075 +0100,
vertical.xlsx,The target is tilted.,135,77,5,9,1,1,1,1,0,0,0,0,0,0,0,0,0,3,4,135,space,8.904733999999962,None,1,1,1.2549513000003572,None,space,3.5872847999999067,None,0,0,0,1,,,,,9,5,77,2,222.5117213000001,,,,,,,,,,,,,,,,,,,,,222.49656359999994,222.5117213000001,222.99545890000013,223.00071000000003,223.01096429999984,224.2783735999999,,,,,224.27852229999985,224.29381350000017,224.49427159999982,224.47796940000012,223.01096429999984,,,,,,,,1,1,1.2549513000003572,None,,,,,,,,849,23,V,L,2026-02-23_11h27.40.138,VisualSearch_2526_3,,2025.2.4,2026-02-23 11h27.40.369075 +0100,
vertical.xlsx,The target is tilted.,135,78,6,9,0,1,1,1,0,0,0,0,0,0,0,0,1,3,4,135,space,8.904733999999962,None,0,1,1.2953591000000415,None,space,3.5872847999999067,None,0,0,0,1,,,,,9,6,78,6,224.49427159999982,,,,,,,,,,,,,,,,,,,,,224.47876680000013,224.49427159999982,224.97831359999986,224.98345660000018,225.00102349999975,226.31105890000003,,,,,226.31119849999982,226.32644589999995,226.52706120000016,226.5108499999999,225.00102349999975,,,,,,,,0,1,1.2953591000000415,None,,,,,,,,849,23,V,L,2026-02-23_11h27.40.138,VisualSearch_2526_3,,2025.2.4,2026-02-23 11h27.40.369075 +0100,
vertical.xlsx,The target is tilted.,135,79,7,9,1,1,1,1,1,1,1,1,0,0,0,0,0,7,8,135,space,8.904733999999962,None,1,1,0.7538462000002255,None,space,3.5872847999999067,None,0,0,0,1,,,,,9,7,79,1,226.52706120000016,,,,,,,,,,,,,,,,,,,,,226.51168930000017,226.52706120000016,227.01082669999982,227.0159489,227.0331131999999,227.79384809999988,,,,,227.79400740000005,227.80930969999986,228.0099345000001,227.99386040000013,227.0331131999999,,,,,,,,1,1,0.7538462000002255,None,,,,,,,,849,23,V,L,2026-02-23_11h27.40.138,VisualSearch_2526_3,,2025.2.4,2026-02-23 11h27.40.369075 +0100,
vertical.xlsx,The target is tilted.,135,80,0,10,1,1,1,1,1,1,1,1,1,1,1,1,0,11,12,135,space,8.904733999999962,None,1,1,2.1098243999999795,None,space,3.5872847999999067,None,0,0,0,1,,,,,10,0,80,0,228.0099345000001,,,,,,,,,,,,,,,,,,,,,227.99464539999985,228.0099345000001,228.49370699999986,228.49891129999992,228.51499519999993,230.62630669999976,,,,,230.62645659999976,230.6417869999998,230.84232499999985,230.8265632,228.51499519999993,,,,,,,,1,1,2.1098243999999795,None,,,,,,,,849,23,V,L,2026-02-23_11h27.40.138,VisualSearch_2526_3,,2025.2.4,2026-02-23 11h27.40.369075 +0100,
vertical.xlsx,The target is tilted.,135,81,1,10,0,1,1,1,1,1,1,1,1,1,1,1,1,11,12,135,space,8.904733999999962,None,0,1,2.442802699999902,None,space,3.5872847999999067,None,0,0,0,1,,,,,10,1,81,4,230.84232499999985,,,,,,,,,,,,,,,,,,,,,230.82735079999998,230.84232499999985,231.3261359999999,231.33122919999983,231.34733029999984,233.79253409999978,,,,,233.79280649999987,233.8070621999998,234.00794440000004,233.99175020000007,231.34733029999984,,,,,,,,0,1,2.442802699999902,None,,,,,,,,849,23,V,L,2026-02-23_11h27.40.138,VisualSearch_2526_3,,2025.2.4,2026-02-23 11h27.40.369075 +0100,
vertical.xlsx,The target is tilted.,135,82,2,10,0,1,1,1,0,0,0,0,0,0,0,0,1,3,4,135,space,8.904733999999962,None,0,1,1.0679756999998062,None,space,3.5872847999999067,None,0,0,0,1,,,,,10,2,82,6,234.00794440000004,,,,,,,,,,,,,,,,,,,,,233.9925952000001,234.00794440000004,234.49140809999994,234.49662130000002,234.5130588999998,235.59081020000008,,,,,235.59094690000006,235.60729149999975,235.8074248999999,235.79095889999985,234.5130588999998,,,,,,,,0,1,1.0679756999998062,None,,,,,,,,849,23,V,L,2026-02-23_11h27.40.138,VisualSearch_2526_3,,2025.2.4,2026-02-23 11h27.40.369075 +0100,
vertical.xlsx,The target is tilted.,135,83,3,10,0,0,0,0,0,0,0,0,0,0,0,0,1,1,1,135,space,8.904733999999962,None,0,1,0.6784865999998146,None,space,3.5872847999999067,None,0,0,0,1,,,,,10,3,83,7,235.8074248999999,,,,,,,,,,,,,,,,,,,,,235.7917691,235.8074248999999,236.29113369999982,236.2964042000001,236.31245430000013,237.00772600000005,,,,,237.0079462000001,237.02333900000008,237.2233208,237.20757919999983,236.31245430000013,,,,,,,,0,1,0.6784865999998146,None,,,,,,,,849,23,V,L,2026-02-23_11h27.40.138,VisualSearch_2526_3,,2025.2.4,2026-02-23 11h27.40.369075 +0100,
vertical.xlsx,The target is tilted.,135,84,4,10,1,1,1,1,1,1,1,1,0,0,0,0,0,7,8,135,space,8.904733999999962,None,1,1,0.5215643999999884,None,space,3.5872847999999067,None,0,0,0,1,,,,,10,4,84,1,237.2233208,,,,,,,,,,,,,,,,,,,,,237.20837289999986,237.2233208,237.7074184999999,237.71246099999985,237.72317739999994,238.25769139999989,,,,,238.2579207000001,238.27320069999973,238.47293689999992,238.45736770000008,237.72317739999994,,,,,,,,1,1,0.5215643999999884,None,,,,,,,,849,23,V,L,2026-02-23_11h27.40.138,VisualSearch_2526_3,,2025.2.4,2026-02-23 11h27.40.369075 +0100,
vertical.xlsx,The target is tilted.,135,85,5,10,1,0,0,0,0,0,0,0,0,0,0,0,0,0,1,135,space,8.904733999999962,None,1,1,0.5023381000000882,None,space,3.5872847999999067,None,0,0,0,1,,,,,10,5,85,3,238.47293689999992,,,,,,,,,,,,,,,,,,,,,238.45820500000013,238.47293689999992,238.95677820000014,238.9618969999999,238.97922459999995,239.49038489999998,,,,,239.49057579999976,239.5060474999998,239.70611970000004,239.6899095000001,238.97922459999995,,,,,,,,1,1,0.5023381000000882,None,,,,,,,,849,23,V,L,2026-02-23_11h27.40.138,VisualSearch_2526_3,,2025.2.4,2026-02-23 11h27.40.369075 +0100,
vertical.xlsx,The target is tilted.,135,86,6,10,0,1,1,1,1,1,1,1,0,0,0,0,1,7,8,135,space,8.904733999999962,None,0,1,1.3761241000001974,None,space,3.5872847999999067,None,0,0,0,1,,,,,10,6,86,5,239.70611970000004,,,,,,,,,,,,,,,,,,,,,239.69073479999975,239.70611970000004,240.18989350000015,240.19503400000008,240.2127183,241.6063654000002,,,,,241.6065431999998,241.6221054,241.8219870999999,241.80585080000014,240.2127183,,,,,,,,0,1,1.3761241000001974,None,,,,,,,,849,23,V,L,2026-02-23_11h27.40.138,VisualSearch_2526_3,,2025.2.4,2026-02-23 11h27.40.369075 +0100,
vertical.xlsx,The target is tilted.,135,87,7,10,1,1,1,1,0,0,0,0,0,0,0,0,0,3,4,135,space,8.904733999999962,None,0,0,0.6858096000000842,None,space,3.5872847999999067,None,0,0,0,1,,,,,10,7,87,2,241.8219870999999,,,,,,,,,,,,,,,,,,,,,241.8066526,241.8219870999999,242.3058699999999,242.31099819999986,242.32858060000012,243.02230209999993,,,,,243.02245169999992,243.0382379,243.2383425999999,243.22227970000017,242.32858060000012,,,,,,,,0,0,0.6858096000000842,None,,,,,,,,849,23,V,L,2026-02-23_11h27.40.138,VisualSearch_2526_3,,2025.2.4,2026-02-23 11h27.40.369075 +0100,
vertical.xlsx,The target is tilted.,135,88,0,11,1,1,1,1,1,1,1,1,1,1,1,1,0,11,12,135,space,8.904733999999962,None,0,0,1.4105564999999842,None,space,3.5872847999999067,None,0,0,0,1,,,,,11,0,88,0,243.2383425999999,,,,,,,,,,,,,,,,,,,,,243.22306980000008,243.2383425999999,243.72207219999996,243.72717790000002,243.74484770000004,245.17233980000015,,,,,245.17257730000006,245.1873548000001,245.38763929999982,245.3713667999998,243.74484770000004,,,,,,,,0,0,1.4105564999999842,None,,,,,,,,849,23,V,L,2026-02-23_11h27.40.138,VisualSearch_2526_3,,2025.2.4,2026-02-23 11h27.40.369075 +0100,
vertical.xlsx,The target is tilted.,135,89,1,11,1,1,1,1,1,1,1,1,0,0,0,0,0,7,8,135,space,8.904733999999962,None,1,1,0.6196515999999974,None,space,3.5872847999999067,None,0,0,0,1,,,,,11,1,89,1,245.38763929999982,,,,,,,,,,,,,,,,,,,,,245.37222439999982,245.38763929999982,245.87133089999975,245.87662739999973,245.89445439999986,246.52173979999975,,,,,246.52199760000008,246.5368403,246.73715819999984,246.72099719999983,245.89445439999986,,,,,,,,1,1,0.6196515999999974,None,,,,,,,,849,23,V,L,2026-02-23_11h27.40.138,VisualSearch_2526_3,,2025.2.4,2026-02-23 11h27.40.369075 +0100,
vertical.xlsx,The target is tilted.,135,90,2,11,1,1,1,1,0,0,0,0,0,0,0,0,0,3,4,135,space,8.904733999999962,None,1,1,0.8631113999999798,None,space,3.5872847999999067,None,0,0,0,1,,,,,11,2,90,2,246.73715819999984,,,,,,,,,,,,,,,,,,,,,246.7218046999999,246.73715819999984,247.22086409999997,247.22594400000003,247.24284030000013,248.12118910000004,,,,,248.12144599999988,248.13637829999993,248.33659039999998,248.32041109999977,247.24284030000013,,,,,,,,1,1,0.8631113999999798,None,,,,,,,,849,23,V,L,2026-02-23_11h27.40.138,VisualSearch_2526_3,,2025.2.4,2026-02-23 11h27.40.369075 +0100,
vertical.xlsx,The target is tilted.,135,91,3,11,1,0,0,0,0,0,0,0,0,0,0,0,0,0,1,135,space,8.904733999999962,None,1,1,0.5486596999999165,None,space,3.5872847999999067,None,0,0,0,1,,,,,11,3,91,3,248.33659039999998,,,,,,,,,,,,,,,,,,,,,248.3212071999999,248.33659039999998,248.8202534999998,248.8253876000001,248.8423553,249.40415749999988,,,,,249.40440269999976,249.41947929999992,249.61941920000004,249.60330480000016,248.8423553,,,,,,,,1,1,0.5486596999999165,None,,,,,,,,849,23,V,L,2026-02-23_11h27.40.138,VisualSearch_2526_3,,2025.2.4,2026-02-23 11h27.40.369075 +0100,
vertical.xlsx,The target is tilted.,135,92,4,11,0,1,1,1,0,0,0,0,0,0,0,0,1,3,4,135,space,8.904733999999962,None,0,1,0.7129172999998445,None,space,3.5872847999999067,None,0,0,0,1,,,,,11,4,92,6,249.61941920000004,,,,,,,,,,,,,,,,,,,,,249.60411790000012,249.61941920000004,250.10340819999988,250.10859499999992,250.12617859999978,250.85326439999994,,,,,250.8534401999998,250.86883469999998,251.06905260000008,251.05266559999995,250.12617859999978,,,,,,,,0,1,0.7129172999998445,None,,,,,,,,849,23,V,L,2026-02-23_11h27.40.138,VisualSearch_2526_3,,2025.2.4,2026-02-23 11h27.40.369075 +0100,
vertical.xlsx,The target is tilted.,135,93,5,11,0,1,1,1,1,1,1,1,1,1,1,1,1,11,12,135,space,8.904733999999962,None,0,1,1.3749510999996346,None,space,3.5872847999999067,None,0,0,0,1,,,,,11,5,93,4,251.06905260000008,,,,,,,,,,,,,,,,,,,,,251.05316549999975,251.06905260000008,251.55289060000018,251.55796559999976,251.57608679999998,252.95300629999997,,,,,252.95324879999976,252.96801600000003,253.1681286999999,253.1522394000001,251.57608679999998,,,,,,,,0,1,1.3749510999996346,None,,,,,,,,849,23,V,L,2026-02-23_11h27.40.138,VisualSearch_2526_3,,2025.2.4,2026-02-23 11h27.40.369075 +0100,
vertical.xlsx,The target is tilted.,135,94,6,11,0,0,0,0,0,0,0,0,0,0,0,0,1,1,1,135,space,8.904733999999962,None,0,1,0.9046258000003036,None,space,3.5872847999999067,None,0,0,0,1,,,,,11,6,94,7,253.1681286999999,,,,,,,,,,,,,,,,,,,,,253.1530494000001,253.1681286999999,253.65204819999985,253.65716229999975,253.67413469999997,254.5855398000001,,,,,254.5857367000001,254.60108749999995,254.80119609999997,254.78513420000013,253.67413469999997,,,,,,,,0,1,0.9046258000003036,None,,,,,,,,849,23,V,L,2026-02-23_11h27.40.138,VisualSearch_2526_3,,2025.2.4,2026-02-23 11h27.40.369075 +0100,
vertical.xlsx,The target is tilted.,135,95,7,11,0,1,1,1,1,1,1,1,0,0,0,0,1,7,8,135,space,8.904733999999962,None,0,1,1.47757109999975,None,space,3.5872847999999067,None,0,0,0,1,,,,,11,7,95,5,254.80119609999997,,,,,,,,,,,,,,,,,,,,,254.78592449999974,254.80119609999997,255.28500550000012,255.29028549999998,255.30815770000004,256.8011055999998,,,,,256.8012852999998,256.8171842999998,257.01714179999976,257.0008515000002,255.30815770000004,,,,,,,,0,1,1.47757109999975,None,,,,,,,,849,23,V,L,2026-02-23_11h27.40.138,VisualSearch_2526_3,,2025.2.4,2026-02-23 11h27.40.369075 +0100,
vertical.xlsx,The target is tilted.,135,96,0,12,1,0,0,0,0,0,0,0,0,0,0,0,0,0,1,135,space,8.904733999999962,None,1,1,0.6070238000002064,None,space,3.5872847999999067,None,0,0,0,1,,,,,12,0,96,3,257.01714179999976,,,,,,,,,,,,,,,,,,,,,257.00172610000004,257.01714179999976,257.5008915000001,257.5060836,257.52297350000003,258.13439749999975,,,,,258.1346212000001,258.1501848999999,258.3500001,258.3340344999999,257.52297350000003,,,,,,,,1,1,0.6070238000002064,None,,,,,,,,849,23,V,L,2026-02-23_11h27.40.138,VisualSearch_2526_3,,2025.2.4,2026-02-23 11h27.40.369075 +0100,
vertical.xlsx,The target is tilted.,135,97,1,12,0,1,1,1,1,1,1,1,1,1,1,1,1,11,12,135,space,8.904733999999962,None,0,1,2.817532999999912,None,space,3.5872847999999067,None,0,0,0,1,,,,,12,1,97,4,258.3500001,,,,,,,,,,,,,,,,,,,,,258.3348204000001,258.3500001,258.83384219999994,258.8389365999999,258.8570714,261.6832124,,,,,261.6834084999998,261.6985791999998,261.89874559999976,261.8828774000001,258.8570714,,,,,,,,0,1,2.817532999999912,None,,,,,,,,849,23,V,L,2026-02-23_11h27.40.138,VisualSearch_2526_3,,2025.2.4,2026-02-23 11h27.40.369075 +0100,
vertical.xlsx,The target is tilted.,135,98,2,12,1,1,1,1,1,1,1,1,1,1,1,1,0,11,12,135,space,8.904733999999962,None,0,0,1.8385502999999517,None,space,3.5872847999999067,None,0,0,0,1,,,,,12,2,98,0,261.89874559999976,,,,,,,,,,,,,,,,,,,,,261.8836794000001,261.89874559999976,262.3826324999998,262.3877307999999,262.4053958000002,264.24918550000007,,,,,264.24943819999976,264.26447140000005,264.46471039999983,264.44868710000014,262.4053958000002,,,,,,,,0,0,1.8385502999999517,None,,,,,,,,849,23,V,L,2026-02-23_11h27.40.138,VisualSearch_2526_3,,2025.2.4,2026-02-23 11h27.40.369075 +0100,
vertical.xlsx,The target is tilted.,135,99,3,12,1,1,1,1,0,0,0,0,0,0,0,0,0,3,4,135,space,8.904733999999962,None,1,1,0.7458902000003036,None,space,3.5872847999999067,None,0,0,0,1,,,,,12,3,99,2,264.46471039999983,,,,,,,,,,,,,,,,,,,,,264.44947709999974,264.46471039999983,264.9486601000001,264.9538448999999,264.9698694000001,265.73165689999973,,,,,265.73179589999995,265.7474315000002,265.94750420000014,265.9314612999999,264.9698694000001,,,,,,,,1,1,0.7458902000003036,None,,,,,,,,849,23,V,L,2026-02-23_11h27.40.138,VisualSearch_2526_3,,2025.2.4,2026-02-23 11h27.40.369075 +0100,
vertical.xlsx,The target is tilted.,135,100,4,12,0,1,1,1,0,0,0,0,0,0,0,0,1,3,4,135,space,8.904733999999962,None,0,1,0.7284930999999233,None,space,3.5872847999999067,None,0,0,0,1,,,,,12,4,100,6,265.94750420000014,,,,,,,,,,,,,,,,,,,,,265.93225400000006,265.94750420000014,266.43098780000014,266.43614090000005,266.45324349999987,267.19779140000014,,,,,267.19793890000005,267.2138262000001,267.4137502000001,267.3976948000002,266.45324349999987,,,,,,,,0,1,0.7284930999999233,None,,,,,,,,849,23,V,L,2026-02-23_11h27.40.138,VisualSearch_2526_3,,2025.2.4,2026-02-23 11h27.40.369075 +0100,
vertical.xlsx,The target is tilted.,135,101,5,12,1,1,1,1,1,1,1,1,0,0,0,0,0,7,8,135,space,8.904733999999962,None,0,0,1.0496628000000783,None,space,3.5872847999999067,None,0,0,0,1,,,,,12,5,101,1,267.4137502000001,,,,,,,,,,,,,,,,,,,,,267.3984764999998,267.4137502000001,267.8975266,267.90261080000005,267.92025739999985,268.9804611000002,,,,,268.98059910000006,268.9964514999999,269.1965010000001,269.1803060999998,267.92025739999985,,,,,,,,0,0,1.0496628000000783,None,,,,,,,,849,23,V,L,2026-02-23_11h27.40.138,VisualSearch_2526_3,,2025.2.4,2026-02-23 11h27.40.369075 +0100,
vertical.xlsx,The target is tilted.,135,102,6,12,0,0,0,0,0,0,0,0,0,0,0,0,1,1,1,135,space,8.904733999999962,None,0,1,0.7722069000001284,None,space,3.5872847999999067,None,0,0,0,1,,,,,12,6,102,7,269.1965010000001,,,,,,,,,,,,,,,,,,,,,269.18112140000017,269.1965010000001,269.6801693,269.6853488999998,269.7024663999998,270.4803285999999,,,,,270.48054190000016,270.4961181000001,270.6960464000001,270.6799232000001,269.7024663999998,,,,,,,,0,1,0.7722069000001284,None,,,,,,,,849,23,V,L,2026-02-23_11h27.40.138,VisualSearch_2526_3,,2025.2.4,2026-02-23 11h27.40.369075 +0100,
vertical.xlsx,The target is tilted.,135,103,7,12,0,1,1,1,1,1,1,1,0,0,0,0,1,7,8,135,space,8.904733999999962,None,0,1,0.9341983999997865,None,space,3.5872847999999067,None,0,0,0,1,,,,,12,7,103,5,270.6960464000001,,,,,,,,,,,,,,,,,,,,,270.6807145,270.6960464000001,271.17950210000004,271.18464990000007,271.2007726999998,272.14665739999987,,,,,272.1468741000001,272.1621561999998,272.36218099999974,272.3461190999999,271.2007726999998,,,,,,,,0,1,0.9341983999997865,None,,,,,,,,849,23,V,L,2026-02-23_11h27.40.138,VisualSearch_2526_3,,2025.2.4,2026-02-23 11h27.40.369075 +0100,
vertical.xlsx,The target is tilted.,135,104,0,13,1,1,1,1,0,0,0,0,0,0,0,0,0,3,4,135,space,8.904733999999962,None,1,1,0.7494128000003002,None,space,3.5872847999999067,None,0,0,0,1,,,,,13,0,104,2,272.36218099999974,,,,,,,,,,,,,,,,,,,,,272.3469094999998,272.36218099999974,272.84578750000014,272.8509185999999,272.8692918999998,273.62967189999995,,,,,273.6298912,273.64453530000014,273.8449142000002,273.8290089999998,272.8692918999998,,,,,,,,1,1,0.7494128000003002,None,,,,,,,,849,23,V,L,2026-02-23_11h27.40.138,VisualSearch_2526_3,,2025.2.4,2026-02-23 11h27.40.369075 +0100,
vertical.xlsx,The target is tilted.,135,105,1,13,0,1,1,1,1,1,1,1,0,0,0,0,1,7,8,135,space,8.904733999999962,None,0,1,1.862811800000145,None,space,3.5872847999999067,None,0,0,0,1,,,,,13,1,105,5,273.8449142000002,,,,,,,,,,,,,,,,,,,,,273.82980459999976,273.8449142000002,274.32841699999994,274.3335381999998,274.3516775999999,276.2281900999999,,,,,276.2283377000001,276.24393440000017,276.44411239999977,276.42777249999995,274.3516775999999,,,,,,,,0,1,1.862811800000145,None,,,,,,,,849,23,V,L,2026-02-23_11h27.40.138,VisualSearch_2526_3,,2025.2.4,2026-02-23 11h27.40.369075 +0100,
vertical.xlsx,The target is tilted.,135,106,2,13,0,1,1,1,1,1,1,1,1,1,1,1,1,11,12,135,space,8.904733999999962,None,0,1,2.164223199999924,None,space,3.5872847999999067,None,0,0,0,1,,,,,13,2,106,4,276.44411239999977,,,,,,,,,,,,,,,,,,,,,276.4285760999999,276.44411239999977,276.9279810999999,276.9333414,276.9509218999999,279.12763040000004,,,,,279.12782839999977,279.1431660999999,279.34312639999985,279.3267715999998,276.9509218999999,,,,,,,,0,1,2.164223199999924,None,,,,,,,,849,23,V,L,2026-02-23_11h27.40.138,VisualSearch_2526_3,,2025.2.4,2026-02-23 11h27.40.369075 +0100,
vertical.xlsx,The target is tilted.,135,107,3,13,1,1,1,1,1,1,1,1,0,0,0,0,0,7,8,135,space,8.904733999999962,None,1,1,1.3660569999997279,None,space,3.5872847999999067,None,0,0,0,1,,,,,13,3,107,1,279.34312639999985,,,,,,,,,,,,,,,,,,,,,279.32762339999977,279.34312639999985,279.8270402999999,279.8321825999999,279.8501073,281.2272695999998,,,,,281.22748739999975,281.24240350000014,281.4425923000001,281.4265051,279.8501073,,,,,,,,1,1,1.3660569999997279,None,,,,,,,,849,23,V,L,2026-02-23_11h27.40.138,VisualSearch_2526_3,,2025.2.4,2026-02-23 11h27.40.369075 +0100,
vertical.xlsx,The target is tilted.,135,108,4,13,0,0,0,0,0,0,0,0,0,0,0,0,1,1,1,135,space,8.904733999999962,None,0,1,0.8978234999999586,None,space,3.5872847999999067,None,0,0,0,1,,,,,13,4,108,7,281.4425923000001,,,,,,,,,,,,,,,,,,,,,281.4272988,281.4425923000001,281.92636500000003,281.93145720000007,281.9464698999998,282.8600091999999,,,,,282.86023199999977,282.8753334999999,283.0751232,283.0590654,281.9464698999998,,,,,,,,0,1,0.8978234999999586,None,,,,,,,,849,23,V,L,2026-02-23_11h27.40.138,VisualSearch_2526_3,,2025.2.4,2026-02-23 11h27.40.369075 +0100,
vertical.xlsx,The target is tilted.,135,109,5,13,1,0,0,0,0,0,0,0,0,0,0,0,0,0,1,135,space,8.904733999999962,None,1,1,0.6853144000001521,None,space,3.5872847999999067,None,0,0,0,1,,,,,13,5,109,3,283.0751232,,,,,,,,,,,,,,,,,,,,,283.0597970000001,283.0751232,283.55925490000004,283.5643815000001,283.5837878,284.27593120000006,,,,,284.2761503999998,284.2912453000001,284.49145889999977,284.47541720000004,283.5837878,,,,,,,,1,1,0.6853144000001521,None,,,,,,,,849,23,V,L,2026-02-23_11h27.40.138,VisualSearch_2526_3,,2025.2.4,2026-02-23 11h27.40.369075 +0100,
vertical.xlsx,The target is tilted.,135,110,6,13,1,1,1,1,1,1,1,1,1,1,1,1,0,11,12,135,space,8.904733999999962,None,1,1,1.5869283000001815,None,space,3.5872847999999067,None,0,0,0,1,,,,,13,6,110,0,284.49145889999977,,,,,,,,,,,,,,,,,,,,,284.47631750000005,284.49145889999977,284.9754095999999,284.9804775,284.99816940000005,286.59201770000004,,,,,286.59226609999973,286.6073809000002,286.8072694,286.7914186999999,284.99816940000005,,,,,,,,1,1,1.5869283000001815,None,,,,,,,,849,23,V,L,2026-02-23_11h27.40.138,VisualSearch_2526_3,,2025.2.4,2026-02-23 11h27.40.369075 +0100,
vertical.xlsx,The target is tilted.,135,111,7,13,0,1,1,1,0,0,0,0,0,0,0,0,1,3,4,135,space,8.904733999999962,None,0,1,1.0436227000000144,None,space,3.5872847999999067,None,0,0,0,1,,,,,13,7,111,6,286.8072694,,,,,,,,,,,,,,,,,,,,,286.7922037999999,286.8072694,287.2912451999998,287.29647769999997,287.31238529999996,288.35756019999985,,,,,288.35770769999976,288.3733067999999,288.57327139999984,288.55735130000016,287.31238529999996,,,,,,,,0,1,1.0436227000000144,None,,,,,,,,849,23,V,L,2026-02-23_11h27.40.138,VisualSearch_2526_3,,2025.2.4,2026-02-23 11h27.40.369075 +0100,
vertical.xlsx,The target is tilted.,135,112,0,14,1,1,1,1,0,0,0,0,0,0,0,0,0,3,4,135,space,8.904733999999962,None,1,1,1.0440840999999637,None,space,3.5872847999999067,None,0,0,0,1,,,,,14,0,112,2,288.57327139999984,,,,,,,,,,,,,,,,,,,,,288.5581573000002,288.57327139999984,289.0573237000001,289.0624691999999,289.0804704999998,290.14064470000017,,,,,290.1408650999999,290.1562464000001,290.35595290000015,290.3403762999999,289.0804704999998,,,,,,,,1,1,1.0440840999999637,None,,,,,,,,849,23,V,L,2026-02-23_11h27.40.138,VisualSearch_2526_3,,2025.2.4,2026-02-23 11h27.40.369075 +0100,
vertical.xlsx,The target is tilted.,135,113,1,14,1,1,1,1,1,1,1,1,1,1,1,1,0,11,12,135,space,8.904733999999962,None,0,0,1.6950148000000809,None,space,3.5872847999999067,None,0,0,0,1,,,,,14,1,113,0,290.35595290000015,,,,,,,,,,,,,,,,,,,,,290.34116070000005,290.35595290000015,290.84001520000015,290.8451440000001,290.8637465999998,292.57355159999975,,,,,292.5737765000001,292.58849970000006,292.78874930000006,292.77270889999977,290.8637465999998,,,,,,,,0,0,1.6950148000000809,None,,,,,,,,849,23,V,L,2026-02-23_11h27.40.138,VisualSearch_2526_3,,2025.2.4,2026-02-23 11h27.40.369075 +0100,
vertical.xlsx,The target is tilted.,135,114,2,14,0,0,0,0,0,0,0,0,0,0,0,0,1,1,1,135,space,8.904733999999962,None,0,1,0.9358793000001242,None,space,3.5872847999999067,None,0,0,0,1,,,,,14,2,114,7,292.78874930000006,,,,,,,,,,,,,,,,,,,,,292.77350169999977,292.78874930000006,293.27261799999974,293.2776938999998,293.29271600000015,294.2395604000001,,,,,294.2398093999998,294.2549308,294.45507010000006,294.43899110000007,293.29271600000015,,,,,,,,0,1,0.9358793000001242,None,,,,,,,,849,23,V,L,2026-02-23_11h27.40.138,VisualSearch_2526_3,,2025.2.4,2026-02-23 11h27.40.369075 +0100,
vertical.xlsx,The target is tilted.,135,115,3,14,0,1,1,1,0,0,0,0,0,0,0,0,1,3,4,135,space,8.904733999999962,None,0,1,1.0491547999999966,None,space,3.5872847999999067,None,0,0,0,1,,,,,14,3,115,6,294.45507010000006,,,,,,,,,,,,,,,,,,,,,294.4398128,294.45507010000006,294.93883930000015,294.9439635000001,294.96198359999994,296.0220563999999,,,,,296.02224980000005,296.0376825000001,296.23769100000004,296.2213613000001,294.96198359999994,,,,,,,,0,1,1.0491547999999966,None,,,,,,,,849,23,V,L,2026-02-23_11h27.40.138,VisualSearch_2526_3,,2025.2.4,2026-02-23 11h27.40.369075 +0100,
vertical.xlsx,The target is tilted.,135,116,4,14,1,0,0,0,0,0,0,0,0,0,0,0,0,0,1,135,space,8.904733999999962,None,1,1,0.6838791000000128,None,space,3.5872847999999067,None,0,0,0,1,,,,,14,4,116,3,296.23769100000004,,,,,,,,,,,,,,,,,,,,,296.2221966999998,296.23769100000004,296.7214845000001,296.7266514999999,296.7428674,297.43795650000015,,,,,297.43810389999976,297.45389580000005,297.65363120000006,297.63799140000015,296.7428674,,,,,,,,1,1,0.6838791000000128,None,,,,,,,,849,23,V,L,2026-02-23_11h27.40.138,VisualSearch_2526_3,,2025.2.4,2026-02-23 11h27.40.369075 +0100,
vertical.xlsx,The target is tilted.,135,117,5,14,0,1,1,1,1,1,1,1,1,1,1,1,1,11,12,135,space,8.904733999999962,None,0,1,2.932543099999748,None,space,3.5872847999999067,None,0,0,0,1,,,,,14,5,117,4,297.65363120000006,,,,,,,,,,,,,,,,,,,,,297.63875919999987,297.65363120000006,298.13781689999973,298.1428795999998,298.1626755,301.1046918999998,,,,,301.1049402000001,301.1193740000001,301.3192824999999,301.3033118000001,298.1626755,,,,,,,,0,1,2.932543099999748,None,,,,,,,,849,23,V,L,2026-02-23_11h27.40.138,VisualSearch_2526_3,,2025.2.4,2026-02-23 11h27.40.369075 +0100,
vertical.xlsx,The target is tilted.,135,118,6,14,0,1,1,1,1,1,1,1,0,0,0,0,1,7,8,135,space,8.904733999999962,None,0,1,1.3933231999999407,None,space,3.5872847999999067,None,0,0,0,1,,,,,14,6,118,5,301.3192824999999,,,,,,,,,,,,,,,,,,,,,301.30410689999985,301.3192824999999,301.80285630000003,301.8079730000002,301.8242197000002,303.21959409999977,,,,,303.2197060000001,303.23506680000014,303.4354796,303.41920479999976,301.8242197000002,,,,,,,,0,1,1.3933231999999407,None,,,,,,,,849,23,V,L,2026-02-23_11h27.40.138,VisualSearch_2526_3,,2025.2.4,2026-02-23 11h27.40.369075 +0100,
vertical.xlsx,The target is tilted.,135,119,7,14,1,1,1,1,1,1,1,1,0,0,0,0,0,7,8,135,space,8.904733999999962,None,1,1,2.400459100000262,None,space,3.5872847999999067,None,0,0,0,1,,,,,14,7,119,1,303.4354796,,,,,,,,,,,,,,,,,,,,,303.42005760000006,303.4354796,303.9189478999999,303.92402030000017,303.9412811999998,306.35206570000014,,,,,306.3522856000002,306.36754259999975,306.5843478999998,306.5516485999999,303.9412811999998,,,,,,,,1,1,2.400459100000262,None,,,,,,,,849,23,V,L,2026-02-23_11h27.40.138,VisualSearch_2526_3,,2025.2.4,2026-02-23 11h27.40.369075 +0100,
vertical.xlsx,The target is tilted.,135,0,0,0,,,,,,,,,,,,,,,,,space,8.904733999999962,None,,,,,space,3.5872847999999067,None,0,0,0,1,,,,,,,,,,,,,,,,,,,,,,,,,,,,,,,,,,,,,,,,,,,,,,,,,,,,,,,,,,,,,,,849,23,V,L,2026-02-23_11h27.40.138,VisualSearch_2526_3,,2025.2.4,2026-02-23 11h27.40.369075 +0100,
tilted.xlsx,The target is tilted.,117,0,0,0,0,1,1,1,1,1,1,1,1,1,1,1,1,11,12,117,space,5.193956699999944,None,1,0,2.9288774999999987,None,,,,0,1,1,0,0,0,0,4,,,,,311.81315029999973,,,,,,,,,,,,,,,306.5843478999998,306.5843478999998,306.5843478999998,space,5.193956699999944,None,311.80890399999976,311.81315029999973,312.2990923,312.3042788999999,312.32139649999976,315.265357,1,0,2.9288774999999987,None,315.2655397000001,315.28098339999974,315.4813634999998,315.46460490000004,,,,,,,,,,,,,,,,,,,,849,23,V,L,2026-02-23_11h27.40.138,VisualSearch_2526_3,,2025.2.4,2026-02-23 11h27.40.369075 +0100,
tilted.xlsx,The target is tilted.,117,1,1,0,1,0,0,0,0,0,0,0,0,0,0,0,0,0,1,117,space,5.193956699999944,None,1,1,0.9797939999998562,None,,,,0,1,1,0,0,1,1,3,,,,,315.4813634999998,,,,,,,,,,,,,,,,,,,,,315.46508400000016,315.4813634999998,315.9652502000001,315.97035630000005,315.9892809999999,316.9822311999999,1,1,0.9797939999998562,None,316.9824623000002,316.99759040000004,317.1975976000001,317.18175399999996,315.9892809999999,,,,,,,,,,,,,,,,,,,849,23,V,L,2026-02-23_11h27.40.138,VisualSearch_2526_3,,2025.2.4,2026-02-23 11h27.40.369075 +0100,
tilted.xlsx,The target is tilted.,117,2,2,0,1,1,1,1,1,1,1,1,0,0,0,0,0,7,8,117,space,5.193956699999944,None,1,1,1.3395988000002035,None,,,,0,1,1,0,0,2,2,1,,,,,317.1975976000001,,,,,,,,,,,,,,,,,,,,,317.1824932000002,317.1975976000001,317.68103300000007,317.6863034999999,317.70642220000013,319.0476216999998,1,1,1.3395988000002035,None,319.04776620000007,319.06353669999976,319.2635552999998,319.24754640000015,317.70642220000013,,,,,,,,,,,,,,,,,,,849,23,V,L,2026-02-23_11h27.40.138,VisualSearch_2526_3,,2025.2.4,2026-02-23 11h27.40.369075 +0100,
tilted.xlsx,The target is tilted.,117,3,3,0,0,1,1,1,0,0,0,0,0,0,0,0,1,3,4,117,space,5.193956699999944,None,0,1,1.495806999999786,None,,,,0,1,1,0,0,3,3,6,,,,,319.2635552999998,,,,,,,,,,,,,,,,,,,,,319.2482849999999,319.2635552999998,319.7474030000001,319.75247179999974,319.7631964999998,321.26432950000003,0,1,1.495806999999786,None,321.2645178,321.2792517999999,321.4794079999999,321.46353829999975,319.7631964999998,,,,,,,,,,,,,,,,,,,849,23,V,L,2026-02-23_11h27.40.138,VisualSearch_2526_3,,2025.2.4,2026-02-23 11h27.40.369075 +0100,
tilted.xlsx,The target is tilted.,117,4,4,0,1,1,1,1,0,0,0,0,0,0,0,0,0,3,4,117,space,5.193956699999944,None,1,1,0.8737115999997513,None,,,,0,1,1,0,0,4,4,2,,,,,321.4794079999999,,,,,,,,,,,,,,,,,,,,,321.46427259999996,321.4794079999999,321.9633554999998,321.96845469999994,321.9846025999998,322.8633302999999,1,1,0.8737115999997513,None,322.8635148999999,322.87877649999996,323.0789105000001,323.06279819999986,321.9846025999998,,,,,,,,,,,,,,,,,,,849,23,V,L,2026-02-23_11h27.40.138,VisualSearch_2526_3,,2025.2.4,2026-02-23 11h27.40.369075 +0100,
tilted.xlsx,The target is tilted.,117,5,5,0,1,1,1,1,1,1,1,1,1,1,1,1,0,11,12,117,space,5.193956699999944,None,1,1,1.0982428000002074,None,,,,0,1,1,0,0,5,5,0,,,,,323.0789105000001,,,,,,,,,,,,,,,,,,,,,323.0635476,323.0789105000001,323.56234370000016,323.56733929999996,323.5783533000001,324.6796345,1,1,1.0982428000002074,None,324.6798597999998,324.69504089999987,324.89515819999974,324.8790529999999,323.5783533000001,,,,,,,,,,,,,,,,,,,849,23,V,L,2026-02-23_11h27.40.138,VisualSearch_2526_3,,2025.2.4,2026-02-23 11h27.40.369075 +0100,
tilted.xlsx,The target is tilted.,117,6,6,0,0,1,1,1,1,1,1,1,0,0,0,0,1,7,8,117,space,5.193956699999944,None,1,0,1.6026151000000937,None,,,,0,1,1,0,0,6,6,5,,,,,324.89515819999974,,,,,,,,,,,,,,,,,,,,,324.87980779999975,324.89515819999974,325.3789055999998,325.3839897999999,325.40376059999994,327.01187860000005,1,0,1.6026151000000937,None,327.012066,327.0278317,327.22738939999977,327.2116334,325.40376059999994,,,,,,,,,,,,,,,,,,,849,23,V,L,2026-02-23_11h27.40.138,VisualSearch_2526_3,,2025.2.4,2026-02-23 11h27.40.369075 +0100,
tilted.xlsx,The target is tilted.,117,7,7,0,0,0,0,0,0,0,0,0,0,0,0,0,1,1,1,117,space,5.193956699999944,None,0,1,0.970179299999927,None,,,,0,1,1,0,0,7,7,7,,,,,327.22738939999977,,,,,,,,,,,,,,,,,,,,,327.2123645999998,327.22738939999977,327.7111499,327.71631390000016,327.73503030000006,328.71071400000005,0,1,0.970179299999927,None,328.71080700000016,328.72690420000004,328.92714279999996,328.91098020000004,327.73503030000006,,,,,,,,,,,,,,,,,,,849,23,V,L,2026-02-23_11h27.40.138,VisualSearch_2526_3,,2025.2.4,2026-02-23 11h27.40.369075 +0100,
tilted.xlsx,The target is tilted.,117,0,0,0,0,1,1,1,1,1,1,1,0,0,0,0,1,7,8,117,space,5.193956699999944,None,1,0,1.022897599999851,None,space,1.4358342000000448,None,0,1,1,0,,,,,0,0,0,5,330.4124306000001,,,,,,,,,,,,,,,,,,,,,330.40805190000015,330.4124306000001,330.8934845000001,330.8986821000001,330.9140246999998,331.9439721000001,,,,,331.94422999999983,331.95933630000013,332.15941910000015,332.1431783999999,,328.9186923,328.92714279999996,328.92714279999996,330.3777587000002,space,1.4358342000000448,None,1,0,1.022897599999851,None,,,,,,,,849,23,V,L,2026-02-23_11h27.40.138,VisualSearch_2526_3,,2025.2.4,2026-02-23 11h27.40.369075 +0100,
tilted.xlsx,The target is tilted.,117,1,1,0,0,1,1,1,1,1,1,1,1,1,1,1,1,11,12,117,space,5.193956699999944,None,1,0,2.252879600000142,None,space,1.4358342000000448,None,0,1,1,0,,,,,0,1,1,4,332.15941910000015,,,,,,,,,,,,,,,,,,,,,332.14399930000013,332.15941910000015,332.6431534999999,332.64825210000004,332.6659398999998,334.9257869999999,,,,,334.9259335999998,334.94170009999993,335.1417119,335.12574889999973,332.6659398999998,,,,,,,,1,0,2.252879600000142,None,,,,,,,,849,23,V,L,2026-02-23_11h27.40.138,VisualSearch_2526_3,,2025.2.4,2026-02-23 11h27.40.369075 +0100,
tilted.xlsx,The target is tilted.,117,2,2,0,1,1,1,1,1,1,1,1,1,1,1,1,0,11,12,117,space,5.193956699999944,None,1,1,1.0325244999999086,None,space,1.4358342000000448,None,0,1,1,0,,,,,0,2,2,0,335.1417119,,,,,,,,,,,,,,,,,,,,,335.1265393000001,335.1417119,335.6255792999998,335.6307436999998,335.64863809999974,336.69235360000016,,,,,336.6925887,336.7077630000001,336.90792239999996,336.8918193000002,335.64863809999974,,,,,,,,1,1,1.0325244999999086,None,,,,,,,,849,23,V,L,2026-02-23_11h27.40.138,VisualSearch_2526_3,,2025.2.4,2026-02-23 11h27.40.369075 +0100,
tilted.xlsx,The target is tilted.,117,3,3,0,0,1,1,1,0,0,0,0,0,0,0,0,1,3,4,117,space,5.193956699999944,None,0,1,2.147831700000097,None,space,1.4358342000000448,None,0,1,1,0,,,,,0,3,3,6,336.90792239999996,,,,,,,,,,,,,,,,,,,,,336.89260979999995,336.90792239999996,337.39168319999976,337.3968868999998,337.4135740999998,339.57492209999987,,,,,339.57514490000017,339.58981430000017,339.7902474,339.77420099999995,337.4135740999998,,,,,,,,0,1,2.147831700000097,None,,,,,,,,849,23,V,L,2026-02-23_11h27.40.138,VisualSearch_2526_3,,2025.2.4,2026-02-23 11h27.40.369075 +0100,
tilted.xlsx,The target is tilted.,117,4,4,0,0,0,0,0,0,0,0,0,0,0,0,0,1,1,1,117,space,5.193956699999944,None,0,1,0.9319559000000481,None,space,1.4358342000000448,None,0,1,1,0,,,,,0,4,4,7,339.7902474,,,,,,,,,,,,,,,,,,,,,339.77499520000015,339.7902474,340.2741635,340.2793116999999,340.29843730000016,341.24099880000017,,,,,341.24125519999984,341.25589590000004,341.4564305000001,341.44019060000005,340.29843730000016,,,,,,,,0,1,0.9319559000000481,None,,,,,,,,849,23,V,L,2026-02-23_11h27.40.138,VisualSearch_2526_3,,2025.2.4,2026-02-23 11h27.40.369075 +0100,
tilted.xlsx,The target is tilted.,117,5,5,0,1,1,1,1,1,1,1,1,0,0,0,0,0,7,8,117,space,5.193956699999944,None,1,1,1.1826316000001498,None,space,1.4358342000000448,None,0,1,1,0,,,,,0,5,5,1,341.4564305000001,,,,,,,,,,,,,,,,,,,,,341.4409847999998,341.4564305000001,341.93981659999986,341.9447011999998,341.95600309999986,343.14020349999987,,,,,343.1404245000001,343.15574660000016,343.35571700000014,343.3394003000001,341.95600309999986,,,,,,,,1,1,1.1826316000001498,None,,,,,,,,849,23,V,L,2026-02-23_11h27.40.138,VisualSearch_2526_3,,2025.2.4,2026-02-23 11h27.40.369075 +0100,
tilted.xlsx,The target is tilted.,117,6,6,0,1,1,1,1,0,0,0,0,0,0,0,0,0,3,4,117,space,5.193956699999944,None,1,1,0.6925430000001143,None,space,1.4358342000000448,None,0,1,1,0,,,,,0,6,6,2,343.35571700000014,,,,,,,,,,,,,,,,,,,,,343.34020639999994,343.35571700000014,343.8393042,343.84437920000005,343.8605291000001,344.55646950000005,,,,,344.5567104999998,344.5717717,344.77195629999983,344.7559537999998,343.8605291000001,,,,,,,,1,1,0.6925430000001143,None,,,,,,,,849,23,V,L,2026-02-23_11h27.40.138,VisualSearch_2526_3,,2025.2.4,2026-02-23 11h27.40.369075 +0100,
tilted.xlsx,The target is tilted.,117,7,7,0,1,0,0,0,0,0,0,0,0,0,0,0,0,0,1,117,space,5.193956699999944,None,1,1,0.6573250000001281,None,space,1.4358342000000448,None,0,1,1,0,,,,,0,7,7,3,344.77195629999983,,,,,,,,,,,,,,,,,,,,,344.75678730000004,344.77195629999983,345.255805,345.2610253999999,345.27850109999986,345.9392135999999,,,,,345.9394442,345.95499760000007,346.1547601999998,346.1388374999999,345.27850109999986,,,,,,,,1,1,0.6573250000001281,None,,,,,,,,849,23,V,L,2026-02-23_11h27.40.138,VisualSearch_2526_3,,2025.2.4,2026-02-23 11h27.40.369075 +0100,
tilted.xlsx,The target is tilted.,117,8,0,1,1,1,1,1,1,1,1,1,0,0,0,0,0,7,8,117,space,5.193956699999944,None,1,1,1.0944657000000007,None,space,1.4358342000000448,None,0,1,1,0,,,,,1,0,8,1,346.1547601999998,,,,,,,,,,,,,,,,,,,,,346.13962190000007,346.1547601999998,346.63866219999977,346.64377279999985,346.66176100000007,347.7719187,,,,,347.77211569999986,347.7876256000002,347.98733519999973,347.9715484000001,346.66176100000007,,,,,,,,1,1,1.0944657000000007,None,,,,,,,,849,23,V,L,2026-02-23_11h27.40.138,VisualSearch_2526_3,,2025.2.4,2026-02-23 11h27.40.369075 +0100,
tilted.xlsx,The target is tilted.,117,9,1,1,0,0,0,0,0,0,0,0,0,0,0,0,1,1,1,117,space,5.193956699999944,None,0,1,0.8470237000001362,None,space,1.4358342000000448,None,0,1,1,0,,,,,1,1,9,7,347.98733519999973,,,,,,,,,,,,,,,,,,,,,347.9723409999999,347.98733519999973,348.47124610000014,348.47636320000015,348.4930910999999,349.35460769999986,,,,,349.35476889999995,349.3704832000001,349.57043369999997,349.5540518999999,348.4930910999999,,,,,,,,0,1,0.8470237000001362,None,,,,,,,,849,23,V,L,2026-02-23_11h27.40.138,VisualSearch_2526_3,,2025.2.4,2026-02-23 11h27.40.369075 +0100,
tilted.xlsx,The target is tilted.,117,10,2,1,0,1,1,1,1,1,1,1,0,0,0,0,1,7,8,117,space,5.193956699999944,None,1,0,0.7470935000001191,None,space,1.4358342000000448,None,0,1,1,0,,,,,1,2,10,5,349.57043369999997,,,,,,,,,,,,,,,,,,,,,349.5548603,349.57043369999997,350.0540305000002,350.0585622000001,350.0735324,350.83757919999994,,,,,350.83777320000013,350.8532796000002,351.0531942,351.0372568999999,350.0735324,,,,,,,,1,0,0.7470935000001191,None,,,,,,,,849,23,V,L,2026-02-23_11h27.40.138,VisualSearch_2526_3,,2025.2.4,2026-02-23 11h27.40.369075 +0100,
tilted.xlsx,The target is tilted.,117,11,3,1,1,0,0,0,0,0,0,0,0,0,0,0,0,0,1,117,space,5.193956699999944,None,1,1,0.6974006000000372,None,space,1.4358342000000448,None,0,1,1,0,,,,,1,3,11,3,351.0531942,,,,,,,,,,,,,,,,,,,,,351.03804430000014,351.0531942,351.53667089999976,351.54179659999977,351.5601663,352.2699713999998,,,,,352.27014699999995,352.28610809999986,352.48619129999975,352.4699223,351.5601663,,,,,,,,1,1,0.6974006000000372,None,,,,,,,,849,23,V,L,2026-02-23_11h27.40.138,VisualSearch_2526_3,,2025.2.4,2026-02-23 11h27.40.369075 +0100,
tilted.xlsx,The target is tilted.,117,12,4,1,1,1,1,1,1,1,1,1,1,1,1,1,0,11,12,117,space,5.193956699999944,None,1,1,0.9985179999998763,None,space,1.4358342000000448,None,0,1,1,0,,,,,1,4,12,0,352.48619129999975,,,,,,,,,,,,,,,,,,,,,352.4707953999998,352.48619129999975,352.96961579999993,352.97473860000014,352.99143279999976,354.0034242999998,,,,,354.0036415000002,354.0187727,354.2185235999998,354.2027126999999,352.99143279999976,,,,,,,,1,1,0.9985179999998763,None,,,,,,,,849,23,V,L,2026-02-23_11h27.40.138,VisualSearch_2526_3,,2025.2.4,2026-02-23 11h27.40.369075 +0100,
tilted.xlsx,The target is tilted.,117,13,5,1,0,1,1,1,1,1,1,1,1,1,1,1,1,11,12,117,space,5.193956699999944,None,1,0,0.5321541000002981,None,space,1.4358342000000448,None,0,1,1,0,,,,,1,5,13,4,354.2185235999998,,,,,,,,,,,,,,,,,,,,,354.20350600000006,354.2185235999998,354.7025537000002,354.70771690000015,354.72364170000014,355.2696595,,,,,355.26991699999985,355.2850968,355.48527820000004,355.46924980000017,354.72364170000014,,,,,,,,1,0,0.5321541000002981,None,,,,,,,,849,23,V,L,2026-02-23_11h27.40.138,VisualSearch_2526_3,,2025.2.4,2026-02-23 11h27.40.369075 +0100,
tilted.xlsx,The target is tilted.,117,14,6,1,0,1,1,1,0,0,0,0,0,0,0,0,1,3,4,117,space,5.193956699999944,None,1,0,1.1637487999996665,None,space,1.4358342000000448,None,0,1,1,0,,,,,1,6,14,6,355.48527820000004,,,,,,,,,,,,,,,,,,,,,355.47007199999985,355.48527820000004,355.96915520000016,355.97426889999974,355.9903542999998,357.1685599,,,,,357.16869729999985,357.18435479999994,357.3845094999999,357.3684532,355.9903542999998,,,,,,,,1,0,1.1637487999996665,None,,,,,,,,849,23,V,L,2026-02-23_11h27.40.138,VisualSearch_2526_3,,2025.2.4,2026-02-23 11h27.40.369075 +0100,
tilted.xlsx,The target is tilted.,117,15,7,1,1,1,1,1,0,0,0,0,0,0,0,0,0,3,4,117,space,5.193956699999944,None,1,1,0.8552128999999695,None,space,1.4358342000000448,None,0,1,1,0,,,,,1,7,15,2,357.3845094999999,,,,,,,,,,,,,,,,,,,,,357.36925229999974,357.3845094999999,357.8683502000001,357.8734271000001,357.89081199999987,358.75165170000014,,,,,358.75187059999985,358.7673830000001,358.967433,358.9513387999998,357.89081199999987,,,,,,,,1,1,0.8552128999999695,None,,,,,,,,849,23,V,L,2026-02-23_11h27.40.138,VisualSearch_2526_3,,2025.2.4,2026-02-23 11h27.40.369075 +0100,
tilted.xlsx,The target is tilted.,117,16,0,2,0,0,0,0,0,0,0,0,0,0,0,0,1,1,1,117,space,5.193956699999944,None,0,1,0.9246328999997786,None,space,1.4358342000000448,None,0,1,1,0,,,,,2,0,16,7,358.967433,,,,,,,,,,,,,,,,,,,,,358.95211940000013,358.967433,359.4510975999999,359.45621929999993,359.47304580000014,360.4005666999999,,,,,360.40067829999975,360.41660369999977,360.6168709000001,360.6006587999998,359.47304580000014,,,,,,,,0,1,0.9246328999997786,None,,,,,,,,849,23,V,L,2026-02-23_11h27.40.138,VisualSearch_2526_3,,2025.2.4,2026-02-23 11h27.40.369075 +0100,
tilted.xlsx,The target is tilted.,117,17,1,2,0,1,1,1,1,1,1,1,0,0,0,0,1,7,8,117,space,5.193956699999944,None,1,0,1.1385861000003388,None,space,1.4358342000000448,None,0,1,1,0,,,,,2,1,17,5,360.6168709000001,,,,,,,,,,,,,,,,,,,,,360.6014670000002,360.6168709000001,361.10056999999983,361.10571879999975,361.1227800999998,362.2672839999998,,,,,362.26747880000016,362.2828154000001,362.4825297,362.4668709,361.1227800999998,,,,,,,,1,0,1.1385861000003388,None,,,,,,,,849,23,V,L,2026-02-23_11h27.40.138,VisualSearch_2526_3,,2025.2.4,2026-02-23 11h27.40.369075 +0100,
tilted.xlsx,The target is tilted.,117,18,2,2,1,1,1,1,0,0,0,0,0,0,0,0,0,3,4,117,space,5.193956699999944,None,1,1,0.927847699999802,None,space,1.4358342000000448,None,0,1,1,0,,,,,2,2,18,2,362.4825297,,,,,,,,,,,,,,,,,,,,,362.467664,362.4825297,362.9666976000001,362.97177910000005,362.9897174,363.9330050000001,,,,,363.9331805999998,363.94880390000003,364.1487494999999,364.13294029999975,362.9897174,,,,,,,,1,1,0.927847699999802,None,,,,,,,,849,23,V,L,2026-02-23_11h27.40.138,VisualSearch_2526_3,,2025.2.4,2026-02-23 11h27.40.369075 +0100,
tilted.xlsx,The target is tilted.,117,19,3,2,0,1,1,1,1,1,1,1,1,1,1,1,1,11,12,117,space,5.193956699999944,None,1,0,1.7128481999998257,None,space,1.4358342000000448,None,0,1,1,0,,,,,2,3,19,4,364.1487494999999,,,,,,,,,,,,,,,,,,,,,364.1337532,364.1487494999999,364.6324376,364.6376708,364.6563130000002,366.3828645000001,,,,,366.3831017,366.3979195999998,366.5980255000002,366.5821156999998,364.6563130000002,,,,,,,,1,0,1.7128481999998257,None,,,,,,,,849,23,V,L,2026-02-23_11h27.40.138,VisualSearch_2526_3,,2025.2.4,2026-02-23 11h27.40.369075 +0100,
tilted.xlsx,The target is tilted.,117,20,4,2,0,1,1,1,0,0,0,0,0,0,0,0,1,3,4,117,space,5.193956699999944,None,0,1,1.3846559999997226,None,space,1.4358342000000448,None,0,1,1,0,,,,,2,4,20,6,366.5980255000002,,,,,,,,,,,,,,,,,,,,,366.5829461000001,366.5980255000002,367.0819908000001,367.0871596999998,367.1048588000001,368.4985875,,,,,368.4988058000001,368.5142155000001,368.7142646,368.69814470000006,367.1048588000001,,,,,,,,0,1,1.3846559999997226,None,,,,,,,,849,23,V,L,2026-02-23_11h27.40.138,VisualSearch_2526_3,,2025.2.4,2026-02-23 11h27.40.369075 +0100,
tilted.xlsx,The target is tilted.,117,21,5,2,1,0,0,0,0,0,0,0,0,0,0,0,0,0,1,117,space,5.193956699999944,None,1,1,0.8017554000002747,None,space,1.4358342000000448,None,0,1,1,0,,,,,2,5,21,3,368.7142646,,,,,,,,,,,,,,,,,,,,,368.6989580000002,368.7142646,369.19807060000016,369.20341159999975,369.2211871000002,370.030751,,,,,370.03084030000014,370.0466680000002,370.2470823000001,370.23092410000004,369.2211871000002,,,,,,,,1,1,0.8017554000002747,None,,,,,,,,849,23,V,L,2026-02-23_11h27.40.138,VisualSearch_2526_3,,2025.2.4,2026-02-23 11h27.40.369075 +0100,
tilted.xlsx,The target is tilted.,117,22,6,2,1,1,1,1,1,1,1,1,0,0,0,0,0,7,8,117,space,5.193956699999944,None,1,1,0.9284794000000147,None,space,1.4358342000000448,None,0,1,1,0,,,,,2,6,22,1,370.2470823000001,,,,,,,,,,,,,,,,,,,,,370.2317403999998,370.2470823000001,370.73080189999996,370.7359379000002,370.75232900000015,371.6979189000001,,,,,371.69815489999996,371.71296719999987,371.9131909,371.8970493999998,370.75232900000015,,,,,,,,1,1,0.9284794000000147,None,,,,,,,,849,23,V,L,2026-02-23_11h27.40.138,VisualSearch_2526_3,,2025.2.4,2026-02-23 11h27.40.369075 +0100,
tilted.xlsx,The target is tilted.,117,23,7,2,1,1,1,1,1,1,1,1,1,1,1,1,0,11,12,117,space,5.193956699999944,None,1,1,0.9359979000000749,None,space,1.4358342000000448,None,0,1,1,0,,,,,2,7,23,0,371.9131909,,,,,,,,,,,,,,,,,,,,,371.8978829,371.9131909,372.3969647000001,372.4021313999999,372.42028129999994,373.3630165000002,,,,,373.3631628999999,373.3791749999998,373.5789975,373.56308220000005,372.42028129999994,,,,,,,,1,1,0.9359979000000749,None,,,,,,,,849,23,V,L,2026-02-23_11h27.40.138,VisualSearch_2526_3,,2025.2.4,2026-02-23 11h27.40.369075 +0100,
tilted.xlsx,The target is tilted.,117,24,0,3,0,1,1,1,1,1,1,1,0,0,0,0,1,7,8,117,space,5.193956699999944,None,0,1,1.8604787999997825,None,space,1.4358342000000448,None,0,1,1,0,,,,,3,0,24,5,373.5789975,,,,,,,,,,,,,,,,,,,,,373.56389250000007,373.5789975,374.0619300999999,374.0647465999998,374.07831740000006,375.9476573999998,,,,,375.9478763999998,375.9617304000001,376.16184020000014,376.14575720000016,374.07831740000006,,,,,,,,0,1,1.8604787999997825,None,,,,,,,,849,23,V,L,2026-02-23_11h27.40.138,VisualSearch_2526_3,,2025.2.4,2026-02-23 11h27.40.369075 +0100,
tilted.xlsx,The target is tilted.,117,25,1,3,0,0,0,0,0,0,0,0,0,0,0,0,1,1,1,117,space,5.193956699999944,None,1,0,0.7309893000001466,None,space,1.4358342000000448,None,0,1,1,0,,,,,3,1,25,7,376.16184020000014,,,,,,,,,,,,,,,,,,,,,376.14655019999987,376.16184020000014,376.64559440000016,376.65078419999986,376.6667227999999,377.4120108999998,,,,,377.4121588999999,377.4278711999998,377.62769509999976,377.6117548999998,376.6667227999999,,,,,,,,1,0,0.7309893000001466,None,,,,,,,,849,23,V,L,2026-02-23_11h27.40.138,VisualSearch_2526_3,,2025.2.4,2026-02-23 11h27.40.369075 +0100,
tilted.xlsx,The target is tilted.,117,26,2,3,1,1,1,1,0,0,0,0,0,0,0,0,0,3,4,117,space,5.193956699999944,None,1,1,2.0266387000001487,None,space,1.4358342000000448,None,0,1,1,0,,,,,3,2,26,2,377.62769509999976,,,,,,,,,,,,,,,,,,,,,377.61256990000015,377.62769509999976,378.110594,378.11190439999996,378.12764219999985,380.1613826999999,,,,,380.1615774999998,380.17701969999985,380.37708099999986,380.36097029999996,378.12764219999985,,,,,,,,1,1,2.0266387000001487,None,,,,,,,,849,23,V,L,2026-02-23_11h27.40.138,VisualSearch_2526_3,,2025.2.4,2026-02-23 11h27.40.369075 +0100,
tilted.xlsx,The target is tilted.,117,27,3,3,0,1,1,1,1,1,1,1,1,1,1,1,1,11,12,117,space,5.193956699999944,None,1,0,2.2653661999997894,None,space,1.4358342000000448,None,0,1,1,0,,,,,3,3,27,4,380.37708099999986,,,,,,,,,,,,,,,,,,,,,380.3617744999999,380.37708099999986,380.86085739999976,380.86611549999975,380.88368669999977,383.1606183000001,,,,,383.1608524999999,383.17580939999993,383.3761422,383.35993759999997,380.88368669999977,,,,,,,,1,0,2.2653661999997894,None,,,,,,,,849,23,V,L,2026-02-23_11h27.40.138,VisualSearch_2526_3,,2025.2.4,2026-02-23 11h27.40.369075 +0100,
tilted.xlsx,The target is tilted.,117,28,4,3,0,1,1,1,0,0,0,0,0,0,0,0,1,3,4,117,space,5.193956699999944,None,0,1,2.1049803999999313,None,space,1.4358342000000448,None,0,1,1,0,,,,,3,4,28,6,383.3761422,,,,,,,,,,,,,,,,,,,,,383.36078569999995,383.3761422,383.8595753000002,383.8647128,383.88235899999995,385.9931264999998,,,,,385.9933748000001,386.0082043,386.2085423000001,386.1924118999998,383.88235899999995,,,,,,,,0,1,2.1049803999999313,None,,,,,,,,849,23,V,L,2026-02-23_11h27.40.138,VisualSearch_2526_3,,2025.2.4,2026-02-23 11h27.40.369075 +0100,
tilted.xlsx,The target is tilted.,117,29,5,3,1,1,1,1,1,1,1,1,0,0,0,0,0,7,8,117,space,5.193956699999944,None,1,1,0.8342706000003091,None,space,1.4358342000000448,None,0,1,1,0,,,,,3,5,29,1,386.2085423000001,,,,,,,,,,,,,,,,,,,,,386.19321460000015,386.2085423000001,386.6923454,386.6974453,386.717124,387.5590444000002,,,,,387.5592204000002,387.5745905000001,387.7744046999999,387.7587136999998,386.717124,,,,,,,,1,1,0.8342706000003091,None,,,,,,,,849,23,V,L,2026-02-23_11h27.40.138,VisualSearch_2526_3,,2025.2.4,2026-02-23 11h27.40.369075 +0100,
tilted.xlsx,The target is tilted.,117,30,6,3,1,0,0,0,0,0,0,0,0,0,0,0,0,0,1,117,space,5.193956699999944,None,1,1,0.732645500000217,None,space,1.4358342000000448,None,0,1,1,0,,,,,3,6,30,3,387.7744046999999,,,,,,,,,,,,,,,,,,,,,387.7595576000001,387.7744046999999,388.2585249000001,388.2635850999998,388.27985980000017,389.02458809999985,,,,,389.024682,389.04070549999983,389.2405971999999,389.22457800000007,388.27985980000017,,,,,,,,1,1,0.732645500000217,None,,,,,,,,849,23,V,L,2026-02-23_11h27.40.138,VisualSearch_2526_3,,2025.2.4,2026-02-23 11h27.40.369075 +0100,
tilted.xlsx,The target is tilted.,117,31,7,3,1,1,1,1,1,1,1,1,1,1,1,1,0,11,12,117,space,5.193956699999944,None,1,1,1.0101406000003408,None,space,1.4358342000000448,None,0,1,1,0,,,,,3,7,31,0,389.2405971999999,,,,,,,,,,,,,,,,,,,,,389.2253988,389.2405971999999,389.72461339999995,389.72974679999993,389.7454574000001,390.75805639999976,,,,,390.75829469999985,390.7733065,390.9736365000001,390.9576248000001,389.7454574000001,,,,,,,,1,1,1.0101406000003408,None,,,,,,,,849,23,V,L,2026-02-23_11h27.40.138,VisualSearch_2526_3,,2025.2.4,2026-02-23 11h27.40.369075 +0100,
tilted.xlsx,The target is tilted.,117,32,0,4,1,0,0,0,0,0,0,0,0,0,0,0,0,0,1,117,space,5.193956699999944,None,1,1,0.6280241999997997,None,space,1.4358342000000448,None,0,1,1,0,,,,,4,0,32,3,390.9736365000001,,,,,,,,,,,,,,,,,,,,,390.9584176999999,390.9736365000001,391.4574418999998,391.46258049999983,391.48017460000005,392.12437449999993,,,,,392.124603,392.1397958,392.33978619999993,392.32379060000017,391.48017460000005,,,,,,,,1,1,0.6280241999997997,None,,,,,,,,849,23,V,L,2026-02-23_11h27.40.138,VisualSearch_2526_3,,2025.2.4,2026-02-23 11h27.40.369075 +0100,
tilted.xlsx,The target is tilted.,117,33,1,4,1,1,1,1,0,0,0,0,0,0,0,0,0,3,4,117,space,5.193956699999944,None,0,0,1.0008655999999974,None,space,1.4358342000000448,None,0,1,1,0,,,,,4,1,33,2,392.33978619999993,,,,,,,,,,,,,,,,,,,,,392.3245942000001,392.33978619999993,392.8237511,392.8288349000002,392.8437975999998,393.85732840000014,,,,,393.8575533999999,393.8726976999999,394.07235939999987,394.05662069999994,392.8437975999998,,,,,,,,0,0,1.0008655999999974,None,,,,,,,,849,23,V,L,2026-02-23_11h27.40.138,VisualSearch_2526_3,,2025.2.4,2026-02-23 11h27.40.369075 +0100,
tilted.xlsx,The target is tilted.,117,34,2,4,0,1,1,1,1,1,1,1,1,1,1,1,1,11,12,117,space,5.193956699999944,None,1,0,1.2254178000002867,None,space,1.4358342000000448,None,0,1,1,0,,,,,4,2,34,4,394.07235939999987,,,,,,,,,,,,,,,,,,,,,394.0574165999999,394.07235939999987,394.55644610000013,394.5635856000001,394.58085259999984,395.82314840000004,,,,,395.82335369999987,395.8388164999999,396.0384830999999,396.02213879999977,394.58085259999984,,,,,,,,1,0,1.2254178000002867,None,,,,,,,,849,23,V,L,2026-02-23_11h27.40.138,VisualSearch_2526_3,,2025.2.4,2026-02-23 11h27.40.369075 +0100,
