file_name,block_instructions,target_example,thisN,thisTrialN,thisRepN,target_presence,opacity_1,opacity_2,opacity_3,opacity_4,opacity_5,opacity_6,opacity_7,opacity_8,opacity_9,opacity_10,opacity_11,opacity_12,n_distract,n_items,target_ori,key_resp_4.keys,key_resp_4.rt,key_resp_4.duration,key_resp.keys,key_resp.corr,key_resp.rt,key_resp.duration,key_resp_5.keys,key_resp_5.rt,key_resp_5.duration,blocks.thisRepN,blocks.thisTrialN,blocks.thisN,blocks.thisIndex,practice_trials.thisRepN,practice_trials.thisTrialN,practice_trials.thisN,practice_trials.thisIndex,trials.thisRepN,trials.thisTrialN,trials.thisN,trials.thisIndex,thisRow.t,notes,Welcome.started,WelcomeText.started,key_resp_2.started,Welcome.stopped,key_resp_2.keys,key_resp_2.rt,key_resp_2.duration,InformedConsent.started,text_4.started,InformedConsent.stopped,key_resp_6.keys,key_resp_6.rt,key_resp_6.duration,key_resp_4.started,example_target.started,text_3.started,blocks.key_resp_4.keys,blocks.key_resp_4.rt,blocks.key_resp_4.duration,FixCross.started,fixCross.started,fixCross.stopped,FixCross.stopped,Stimulus.started,key_resp.started,Stimulus.stopped,practice_trials.key_resp.keys,practice_trials.key_resp.corr,practice_trials.key_resp.rt,practice_trials.key_resp.duration,BlankScreen.started,text.started,text.stopped,BlankScreen.stopped,ExperimentStart.started,text_2.started,key_resp_5.started,ExperimentStart.stopped,blocks.key_resp_5.keys,blocks.key_resp_5.rt,blocks.key_resp_5.duration,trials.key_resp.keys,trials.key_resp.corr,trials.key_resp.rt,trials.key_resp.duration,Thanks.started,ThankYou.started,key_resp_3.started,Thanks.stopped,key_resp_3.keys,key_resp_3.rt,key_resp_3.duration,participant,leeftijd,gender,links/rechtshandig,date,expName,expVersion,psychopyVersion,expStart,
,,,,,,,,,,,,,,,,,,,,,,,,,,,,,,,,,,,,,,,,,,,,,,0.028860000000349828,0.057539599999927304,0.057539599999927304,22.591338500000347,space,22.527397500000006,None,,,,,,,,,,,,,,,,,,,,,,,,,,,,,,,,,,,,,,,,,,,,,, 850,22,M,R,2026-02-23_11h44.26.720,VisualSearch_2526_3,,2025.2.4,2026-02-23 11h44.26.977705 +0100,
,,,,,,,,,,,,,,,,,,,,,,,,,,,,,,,,,,,,,,,,,,,,,,,,,,,,,22.59139230000028,22.602044600000227,30.2504813999999,y,7.652378099999623,None,,,,,,,,,,,,,,,,,,,,,,,,,,,,,,,,,,,,,,,, 850,22,M,R,2026-02-23_11h44.26.720,VisualSearch_2526_3,,2025.2.4,2026-02-23 11h44.26.977705 +0100,
tilted.xlsx,The target is tilted.,117,0,0,0,1,1,1,1,0,0,0,0,0,0,0,0,0,3,4,117,space,8.443015800000012,None,1,1,1.6637619999996787,None,,,,0,0,0,0,0,0,0,2,,,,,38.74663640000017,,,,,,,,,,,,,,,30.27933380000013,30.27933380000013,30.27933380000013,space,8.443015800000012,None,38.74175409999998,38.74663640000017,39.24611610000011,39.22967480000034,39.231643200000235,39.24611610000011,40.91288510000004,1,1,1.6637619999996787,None,40.91296800000009,40.928949699999976,41.12912320000032,41.113115500000276,,,,,,,,,,,,,,,,,,, 850,22,M,R,2026-02-23_11h44.26.720,VisualSearch_2526_3,,2025.2.4,2026-02-23 11h44.26.977705 +0100,
tilted.xlsx,The target is tilted.,117,1,1,0,0,1,1,1,1,1,1,1,1,1,1,1,1,11,12,117,space,8.443015800000012,None,1,0,1.3819663999997829,None,,,,0,0,0,0,0,1,1,4,,,,,41.12912320000032,,,,,,,,,,,,,,,,,,,,,41.11383990000013,41.12912320000032,41.6287470000002,41.61223770000015,41.614233499999955,41.6287470000002,43.01217919999999,1,0,1.3819663999997829,None,43.01226570000017,43.028248200000235,43.228123100000175,43.21171660000027,,,,,,,,,,,,,,,,,,, 850,22,M,R,2026-02-23_11h44.26.720,VisualSearch_2526_3,,2025.2.4,2026-02-23 11h44.26.977705 +0100,
tilted.xlsx,The target is tilted.,117,2,2,0,0,0,0,0,0,0,0,0,0,0,0,0,1,1,1,117,space,8.443015800000012,None,0,1,1.1616786999998112,None,,,,0,0,0,0,0,2,2,7,,,,,43.228123100000175,,,,,,,,,,,,,,,,,,,,,43.21203420000029,43.228123100000175,43.72807520000015,43.71158510000032,43.7135016000002,43.72807520000015,44.895039200000156,0,1,1.1616786999998112,None,44.895120600000155,44.910932799999955,45.110914200000025,45.09451100000024,,,,,,,,,,,,,,,,,,, 850,22,M,R,2026-02-23_11h44.26.720,VisualSearch_2526_3,,2025.2.4,2026-02-23 11h44.26.977705 +0100,
tilted.xlsx,The target is tilted.,117,3,3,0,1,1,1,1,1,1,1,1,0,0,0,0,0,7,8,117,space,8.443015800000012,None,1,1,2.6489197000000786,None,,,,0,0,0,0,0,3,3,1,,,,,45.110914200000025,,,,,,,,,,,,,,,,,,,,,45.094873700000335,45.110914200000025,45.61072899999999,45.594332699999995,45.59623950000014,45.61072899999999,48.26035750000028,1,1,2.6489197000000786,None,48.2604395000003,48.27647630000001,48.47646729999997,48.46008830000028,,,,,,,,,,,,,,,,,,, 850,22,M,R,2026-02-23_11h44.26.720,VisualSearch_2526_3,,2025.2.4,2026-02-23 11h44.26.977705 +0100,
tilted.xlsx,The target is tilted.,117,4,4,0,0,1,1,1,1,1,1,1,0,0,0,0,1,7,8,117,space,8.443015800000012,None,1,0,3.1629158000000643,None,,,,0,0,0,0,0,4,4,5,,,,,48.47646729999997,,,,,,,,,,,,,,,,,,,,,48.46042549999993,48.47646729999997,48.97632920000024,48.95988870000019,48.96182940000017,48.97632920000024,52.14356120000002,1,0,3.1629158000000643,None,52.14377790000026,52.158987100000104,52.35859570000002,52.34203000000025,,,,,,,,,,,,,,,,,,, 850,22,M,R,2026-02-23_11h44.26.720,VisualSearch_2526_3,,2025.2.4,2026-02-23 11h44.26.977705 +0100,
tilted.xlsx,The target is tilted.,117,5,5,0,1,0,0,0,0,0,0,0,0,0,0,0,0,0,1,117,space,8.443015800000012,None,1,1,2.8222215000000688,None,,,,0,0,0,0,0,5,5,3,,,,,52.35859570000002,,,,,,,,,,,,,,,,,,,,,52.34234790000028,52.35859570000002,52.85839940000005,52.84192230000008,52.84392930000013,52.85839940000005,55.69134299999996,1,1,2.8222215000000688,None,55.69142409999995,55.7074462999999,55.9073499000001,55.890929400000005,,,,,,,,,,,,,,,,,,, 850,22,M,R,2026-02-23_11h44.26.720,VisualSearch_2526_3,,2025.2.4,2026-02-23 11h44.26.977705 +0100,
tilted.xlsx,The target is tilted.,117,6,6,0,0,1,1,1,0,0,0,0,0,0,0,0,1,3,4,117,space,8.443015800000012,None,0,1,2.1718756000000212,None,,,,0,0,0,0,0,6,6,6,,,,,55.9073499000001,,,,,,,,,,,,,,,,,,,,,55.89122279999992,55.9073499000001,56.40723969999999,56.390734800000246,56.3926862000003,56.40723969999999,58.590356000000156,0,1,2.1718756000000212,None,58.5904445000001,58.60646420000012,58.80643989999999,58.789939400000094,,,,,,,,,,,,,,,,,,, 850,22,M,R,2026-02-23_11h44.26.720,VisualSearch_2526_3,,2025.2.4,2026-02-23 11h44.26.977705 +0100,
tilted.xlsx,The target is tilted.,117,7,7,0,1,1,1,1,1,1,1,1,1,1,1,1,0,11,12,117,space,8.443015800000012,None,1,1,5.8350062999998045,None,,,,0,0,0,0,0,7,7,0,,,,,58.80643989999999,,,,,,,,,,,,,,,,,,,,,58.79025989999991,58.80643989999999,59.30628690000003,59.289788099999896,59.29172229999995,59.30628690000003,65.15489849999994,1,1,5.8350062999998045,None,65.15498630000002,65.17098900000019,65.37106949999998,65.35448870000027,,,,,,,,,,,,,,,,,,, 850,22,M,R,2026-02-23_11h44.26.720,VisualSearch_2526_3,,2025.2.4,2026-02-23 11h44.26.977705 +0100,
tilted.xlsx,The target is tilted.,117,0,0,0,1,1,1,1,0,0,0,0,0,0,0,0,0,3,4,117,space,8.443015800000012,None,1,1,0.9813886999995702,None,space,5.043337000000065,None,0,0,0,0,,,,,0,0,0,2,70.43590769999992,,,,,,,,,,,,,,,,,,,,,70.43197430000009,70.43590769999992,70.9436267000001,70.92001230000005,70.92473220000011,70.9436267000001,71.93603260000009,,,,,71.93613050000022,71.95215000000007,72.15204369999992,72.1356450000003,65.35725739999998,65.37106949999998,65.37106949999998,70.41970420000007,space,5.043337000000065,None,1,1,0.9813886999995702,None,,,,,,,, 850,22,M,R,2026-02-23_11h44.26.720,VisualSearch_2526_3,,2025.2.4,2026-02-23 11h44.26.977705 +0100,
tilted.xlsx,The target is tilted.,117,1,1,0,0,1,1,1,1,1,1,1,1,1,1,1,1,11,12,117,space,8.443015800000012,None,0,1,5.495886000000155,None,space,5.043337000000065,None,0,0,0,0,,,,,0,1,1,4,72.15204369999992,,,,,,,,,,,,,,,,,,,,,72.13600580000002,72.15204369999992,72.65199040000016,72.63550440000017,72.63746600000013,72.65199040000016,78.15078949999997,,,,,78.15088250000008,78.16679019999992,78.36673420000034,78.3502867000002,,,,,,,,0,1,5.495886000000155,None,,,,,,,, 850,22,M,R,2026-02-23_11h44.26.720,VisualSearch_2526_3,,2025.2.4,2026-02-23 11h44.26.977705 +0100,
tilted.xlsx,The target is tilted.,117,2,2,0,0,1,1,1,0,0,0,0,0,0,0,0,1,3,4,117,space,8.443015800000012,None,0,1,2.7858037000000877,None,space,5.043337000000065,None,0,0,0,0,,,,,0,2,2,6,78.36673420000034,,,,,,,,,,,,,,,,,,,,,78.35065900000018,78.36673420000034,78.86664340000016,78.85014510000019,78.85208600000033,78.86664340000016,81.66625770000019,,,,,81.66635059999999,81.68231779999996,,81.86650899999995,,,,,,,,0,1,2.7858037000000877,None,,,,,,,, 850,22,M,R,2026-02-23_11h44.26.720,VisualSearch_2526_3,,2025.2.4,2026-02-23 11h44.26.977705 +0100,
tilted.xlsx,The target is tilted.,117,3,3,0,0,1,1,1,1,1,1,1,0,0,0,0,1,7,8,117,space,8.443015800000012,None,1,0,2.998780700000225,None,space,5.043337000000065,None,0,0,0,0,,,,,0,3,3,5,81.88273190000018,,,,,,,,,,,,,,,,,,,,,81.86734660000002,81.88273190000018,82.38212969999995,82.36565999999993,82.36760820000018,82.38212969999995,85.38174040000013,,,,,85.38183430000026,85.39781650000032,85.59774599999992,85.58128750000014,,,,,,,,1,0,2.998780700000225,None,,,,,,,, 850,22,M,R,2026-02-23_11h44.26.720,VisualSearch_2526_3,,2025.2.4,2026-02-23 11h44.26.977705 +0100,
tilted.xlsx,The target is tilted.,117,4,4,0,1,1,1,1,1,1,1,1,1,1,1,1,0,11,12,117,space,8.443015800000012,None,1,1,1.853208800000175,None,space,5.043337000000065,None,0,0,0,0,,,,,0,4,4,0,85.59774599999992,,,,,,,,,,,,,,,,,,,,,85.58164430000033,85.59774599999992,86.09760290000031,86.0811506,86.08311920000006,86.09760290000031,87.9641431,,,,,87.9642372000003,87.98024579999992,88.18024100000002,88.16381140000021,,,,,,,,1,1,1.853208800000175,None,,,,,,,, 850,22,M,R,2026-02-23_11h44.26.720,VisualSearch_2526_3,,2025.2.4,2026-02-23 11h44.26.977705 +0100,
tilted.xlsx,The target is tilted.,117,5,5,0,1,1,1,1,1,1,1,1,0,0,0,0,0,7,8,117,space,8.443015800000012,None,1,1,3.6534707999999227,None,space,5.043337000000065,None,0,0,0,0,,,,,0,5,5,1,88.18024100000002,,,,,,,,,,,,,,,,,,,,,88.16416260000005,88.18024100000002,88.68012399999998,88.66357599999992,88.66549220000024,88.68012399999998,92.34607270000015,,,,,92.34616390000019,92.3621720000001,92.56210850000025,92.54571400000032,,,,,,,,1,1,3.6534707999999227,None,,,,,,,, 850,22,M,R,2026-02-23_11h44.26.720,VisualSearch_2526_3,,2025.2.4,2026-02-23 11h44.26.977705 +0100,
tilted.xlsx,The target is tilted.,117,6,6,0,0,0,0,0,0,0,0,0,0,0,0,0,1,1,1,117,space,8.443015800000012,None,0,1,1.791460200000074,None,space,5.043337000000065,None,0,0,0,0,,,,,0,6,6,7,92.56210850000025,,,,,,,,,,,,,,,,,,,,,92.54604629999994,92.56210850000025,93.06196180000006,93.04552100000001,93.04751960000021,93.06196180000006,94.86195510000016,,,,,94.86204530000032,94.87800100000004,95.07800799999995,95.06153900000027,,,,,,,,0,1,1.791460200000074,None,,,,,,,, 850,22,M,R,2026-02-23_11h44.26.720,VisualSearch_2526_3,,2025.2.4,2026-02-23 11h44.26.977705 +0100,
tilted.xlsx,The target is tilted.,117,7,7,0,1,0,0,0,0,0,0,0,0,0,0,0,0,0,1,117,space,8.443015800000012,None,1,1,0.875792900000306,None,space,5.043337000000065,None,0,0,0,0,,,,,0,7,7,3,95.07800799999995,,,,,,,,,,,,,,,,,,,,,95.0618929000002,95.07800799999995,95.5778851,95.56145540000034,95.56341930000008,95.5778851,96.46146859999999,,,,,96.4615646000002,96.47752029999992,96.67746380000017,96.66106050000008,,,,,,,,1,1,0.875792900000306,None,,,,,,,, 850,22,M,R,2026-02-23_11h44.26.720,VisualSearch_2526_3,,2025.2.4,2026-02-23 11h44.26.977705 +0100,
tilted.xlsx,The target is tilted.,117,8,0,1,0,1,1,1,0,0,0,0,0,0,0,0,1,3,4,117,space,8.443015800000012,None,0,1,2.847486300000128,None,space,5.043337000000065,None,0,0,0,0,,,,,1,0,8,6,96.67746380000017,,,,,,,,,,,,,,,,,,,,,96.66140600000017,96.67746380000017,97.17736150000019,97.16087430000016,97.16285040000002,97.17736150000019,100.02698809999993,,,,,100.02707710000004,100.04304930000035,100.24298480000016,100.2265382999999,,,,,,,,0,1,2.847486300000128,None,,,,,,,, 850,22,M,R,2026-02-23_11h44.26.720,VisualSearch_2526_3,,2025.2.4,2026-02-23 11h44.26.977705 +0100,
tilted.xlsx,The target is tilted.,117,9,1,1,1,1,1,1,1,1,1,1,1,1,1,1,0,11,12,117,space,8.443015800000012,None,1,1,2.079654499999833,None,space,5.043337000000065,None,0,0,0,0,,,,,1,1,9,0,100.24298480000016,,,,,,,,,,,,,,,,,,,,,100.22689459999992,100.24298480000016,100.74283790000027,100.72641580000027,100.72838980000006,100.74283790000027,102.82603390000031,,,,,102.8261293999999,102.84210600000006,103.04206750000003,103.02564389999998,,,,,,,,1,1,2.079654499999833,None,,,,,,,, 850,22,M,R,2026-02-23_11h44.26.720,VisualSearch_2526_3,,2025.2.4,2026-02-23 11h44.26.977705 +0100,
tilted.xlsx,The target is tilted.,117,10,2,1,0,0,0,0,0,0,0,0,0,0,0,0,1,1,1,117,space,8.443015800000012,None,0,1,0.9340841000002911,None,space,5.043337000000065,None,0,0,0,0,,,,,1,2,10,7,103.04206750000003,,,,,,,,,,,,,,,,,,,,,103.02596250000033,103.04206750000003,103.54197180000028,103.52547630000026,103.52734529999998,103.54197180000028,104.49219100000028,,,,,104.4922848000001,104.50822280000011,104.70821010000009,104.6917671000001,,,,,,,,0,1,0.9340841000002911,None,,,,,,,, 850,22,M,R,2026-02-23_11h44.26.720,VisualSearch_2526_3,,2025.2.4,2026-02-23 11h44.26.977705 +0100,
tilted.xlsx,The target is tilted.,117,11,3,1,0,1,1,1,1,1,1,1,1,1,1,1,1,11,12,117,space,8.443015800000012,None,1,0,6.437471100000039,None,space,5.043337000000065,None,0,0,0,0,,,,,1,3,11,4,104.70821010000009,,,,,,,,,,,,,,,,,,,,,104.69212340000013,104.70821010000009,105.20807869999999,105.1915554000002,105.19349790000024,105.20807869999999,111.6564641,,,,,111.65655130000005,111.67257890000019,111.87251980000019,111.85609180000029,,,,,,,,1,0,6.437471100000039,None,,,,,,,, 850,22,M,R,2026-02-23_11h44.26.720,VisualSearch_2526_3,,2025.2.4,2026-02-23 11h44.26.977705 +0100,
tilted.xlsx,The target is tilted.,117,12,4,1,1,1,1,1,1,1,1,1,0,0,0,0,0,7,8,117,space,8.443015800000012,None,1,1,4.935002700000041,None,space,5.043337000000065,None,0,0,0,0,,,,,1,4,12,1,111.87251980000019,,,,,,,,,,,,,,,,,,,,,111.85643990000017,111.87251980000019,112.37242379999998,112.3559806000003,112.35799100000031,112.37242379999998,117.32131479999998,,,,,117.32141010000032,117.33743050000021,117.53777690000015,117.52172770000016,,,,,,,,1,1,4.935002700000041,None,,,,,,,, 850,22,M,R,2026-02-23_11h44.26.720,VisualSearch_2526_3,,2025.2.4,2026-02-23 11h44.26.977705 +0100,
tilted.xlsx,The target is tilted.,117,13,5,1,1,0,0,0,0,0,0,0,0,0,0,0,0,0,1,117,space,8.443015800000012,None,1,1,0.7676771999999801,None,space,5.043337000000065,None,0,0,0,0,,,,,1,5,13,3,117.53777690000015,,,,,,,,,,,,,,,,,,,,,117.52255390000028,117.53777690000015,118.03730410000026,118.02162560000033,118.02690040000016,118.03730410000026,118.82112069999994,,,,,118.82121210000014,118.83694640000022,119.0368426,119.02048080000031,,,,,,,,1,1,0.7676771999999801,None,,,,,,,, 850,22,M,R,2026-02-23_11h44.26.720,VisualSearch_2526_3,,2025.2.4,2026-02-23 11h44.26.977705 +0100,
tilted.xlsx,The target is tilted.,117,14,6,1,1,1,1,1,0,0,0,0,0,0,0,0,0,3,4,117,space,8.443015800000012,None,1,1,2.199008799999774,None,space,5.043337000000065,None,0,0,0,0,,,,,1,6,14,2,119.0368426,,,,,,,,,,,,,,,,,,,,,119.02084890000015,119.0368426,119.53677800000014,119.52027050000015,119.5222348000002,119.53677800000014,121.73659840000028,,,,,121.73669150000023,121.75263070000028,121.95260460000009,121.93617650000033,,,,,,,,1,1,2.199008799999774,None,,,,,,,, 850,22,M,R,2026-02-23_11h44.26.720,VisualSearch_2526_3,,2025.2.4,2026-02-23 11h44.26.977705 +0100,
tilted.xlsx,The target is tilted.,117,15,7,1,0,1,1,1,1,1,1,1,0,0,0,0,1,7,8,117,space,8.443015800000012,None,0,1,7.4012314000001425,None,space,5.043337000000065,None,0,0,0,0,,,,,1,7,15,5,121.95260460000009,,,,,,,,,,,,,,,,,,,,,121.93653500000028,121.95260460000009,122.45251580000013,122.43598380000003,122.43801770000027,122.45251580000013,129.86720920000016,,,,,129.86729220000007,129.88337450000017,130.0832432000002,130.06702500000029,,,,,,,,0,1,7.4012314000001425,None,,,,,,,, 850,22,M,R,2026-02-23_11h44.26.720,VisualSearch_2526_3,,2025.2.4,2026-02-23 11h44.26.977705 +0100,
tilted.xlsx,The target is tilted.,117,16,0,2,1,1,1,1,1,1,1,1,0,0,0,0,0,7,8,117,space,8.443015800000012,None,1,1,3.434810799999923,None,space,5.043337000000065,None,0,0,0,0,,,,,2,0,16,1,130.0832432000002,,,,,,,,,,,,,,,,,,,,,130.0675451000002,130.0832432000002,130.5831978000001,130.56672060000028,130.56866160000027,130.5831978000001,134.0326,,,,,134.03268879999996,134.04866230000016,134.24862840000014,134.23215290000007,,,,,,,,1,1,3.434810799999923,None,,,,,,,, 850,22,M,R,2026-02-23_11h44.26.720,VisualSearch_2526_3,,2025.2.4,2026-02-23 11h44.26.977705 +0100,
tilted.xlsx,The target is tilted.,117,17,1,2,1,1,1,1,1,1,1,1,1,1,1,1,0,11,12,117,space,8.443015800000012,None,1,1,3.1700332000000344,None,space,5.043337000000065,None,0,0,0,0,,,,,2,1,17,0,134.24862840000014,,,,,,,,,,,,,,,,,,,,,134.23251759999994,134.24862840000014,134.74850860000015,134.73201020000033,134.7339664000001,134.74850860000015,137.93126410000013,,,,,137.93136270000014,137.94737740000028,138.14777410000033,138.13170340000033,,,,,,,,1,1,3.1700332000000344,None,,,,,,,, 850,22,M,R,2026-02-23_11h44.26.720,VisualSearch_2526_3,,2025.2.4,2026-02-23 11h44.26.977705 +0100,
tilted.xlsx,The target is tilted.,117,18,2,2,0,0,0,0,0,0,0,0,0,0,0,0,1,1,1,117,space,8.443015800000012,None,0,1,0.8282779000001028,None,space,5.043337000000065,None,0,0,0,0,,,,,2,2,18,7,138.14777410000033,,,,,,,,,,,,,,,,,,,,,138.13251010000022,138.14777410000033,138.64720579999994,138.63072580000016,138.63267029999997,138.64720579999994,139.48083429999997,,,,,139.48092270000006,139.4968216000002,139.6968428,139.68039210000006,,,,,,,,0,1,0.8282779000001028,None,,,,,,,, 850,22,M,R,2026-02-23_11h44.26.720,VisualSearch_2526_3,,2025.2.4,2026-02-23 11h44.26.977705 +0100,
tilted.xlsx,The target is tilted.,117,19,3,2,0,1,1,1,1,1,1,1,1,1,1,1,1,11,12,117,space,8.443015800000012,None,0,1,7.1652555000000575,None,space,5.043337000000065,None,0,0,0,0,,,,,2,3,19,4,139.6968428,,,,,,,,,,,,,,,,,,,,,139.68074730000035,139.6968428,140.19668860000002,140.18022960000008,140.18220040000006,140.19668860000002,147.3785227000003,,,,,147.3786743999999,147.39433839999992,147.5942957000002,147.57781290000003,,,,,,,,0,1,7.1652555000000575,None,,,,,,,, 850,22,M,R,2026-02-23_11h44.26.720,VisualSearch_2526_3,,2025.2.4,2026-02-23 11h44.26.977705 +0100,
tilted.xlsx,The target is tilted.,117,20,4,2,1,1,1,1,0,0,0,0,0,0,0,0,0,3,4,117,space,8.443015800000012,None,1,1,1.1873490000002676,None,space,5.043337000000065,None,0,0,0,0,,,,,2,4,20,2,147.5942957000002,,,,,,,,,,,,,,,,,,,,,147.57817720000003,147.5942957000002,148.09416370000008,148.07771950000006,148.07992980000017,148.09416370000008,149.29423910000014,,,,,149.29432910000014,149.31033090000028,149.51029689999996,149.49383690000013,,,,,,,,1,1,1.1873490000002676,None,,,,,,,, 850,22,M,R,2026-02-23_11h44.26.720,VisualSearch_2526_3,,2025.2.4,2026-02-23 11h44.26.977705 +0100,
tilted.xlsx,The target is tilted.,117,21,5,2,1,0,0,0,0,0,0,0,0,0,0,0,0,0,1,117,space,8.443015800000012,None,1,1,0.7587456999999631,None,space,5.043337000000065,None,0,0,0,0,,,,,2,5,21,3,149.51029689999996,,,,,,,,,,,,,,,,,,,,,149.49416400000018,149.51029689999996,150.01018190000013,149.99369830000023,149.99569250000013,150.01018190000013,150.77713010000025,,,,,150.7772215,150.79320210000014,150.99318459999995,150.97673410000016,,,,,,,,1,1,0.7587456999999631,None,,,,,,,, 850,22,M,R,2026-02-23_11h44.26.720,VisualSearch_2526_3,,2025.2.4,2026-02-23 11h44.26.977705 +0100,
tilted.xlsx,The target is tilted.,117,22,6,2,0,1,1,1,1,1,1,1,0,0,0,0,1,7,8,117,space,8.443015800000012,None,0,1,4.741423599999962,None,space,5.043337000000065,None,0,0,0,0,,,,,2,6,22,5,150.99318459999995,,,,,,,,,,,,,,,,,,,,,150.97708730000022,150.99318459999995,151.4930972000002,151.4766239999999,151.4785366000001,151.4930972000002,156.24206800000002,,,,,156.2421650000001,156.25813210000024,156.45804260000023,156.44168470000022,,,,,,,,0,1,4.741423599999962,None,,,,,,,, 850,22,M,R,2026-02-23_11h44.26.720,VisualSearch_2526_3,,2025.2.4,2026-02-23 11h44.26.977705 +0100,
tilted.xlsx,The target is tilted.,117,23,7,2,0,1,1,1,0,0,0,0,0,0,0,0,1,3,4,117,space,8.443015800000012,None,0,1,2.387693399999989,None,space,5.043337000000065,None,0,0,0,0,,,,,2,7,23,6,156.45804260000023,,,,,,,,,,,,,,,,,,,,,156.44203629999993,156.45804260000023,156.95793129999993,156.94148600000017,156.94341520000035,156.95793129999993,159.3577137000002,,,,,159.35781309999993,159.37376190000032,159.57374440000012,159.55727260000003,,,,,,,,0,1,2.387693399999989,None,,,,,,,, 850,22,M,R,2026-02-23_11h44.26.720,VisualSearch_2526_3,,2025.2.4,2026-02-23 11h44.26.977705 +0100,
tilted.xlsx,The target is tilted.,117,24,0,3,1,1,1,1,1,1,1,1,1,1,1,1,0,11,12,117,space,8.443015800000012,None,1,1,3.50343120000025,None,space,5.043337000000065,None,0,0,0,0,,,,,3,0,24,0,159.57374440000012,,,,,,,,,,,,,,,,,,,,,159.55763449999995,159.57374440000012,160.07367860000022,160.05715720000035,160.05920270000024,160.07367860000022,163.5896998000003,,,,,163.58978960000013,163.60579430000007,163.80584750000025,163.79005439999992,,,,,,,,1,1,3.50343120000025,None,,,,,,,, 850,22,M,R,2026-02-23_11h44.26.720,VisualSearch_2526_3,,2025.2.4,2026-02-23 11h44.26.977705 +0100,
tilted.xlsx,The target is tilted.,117,25,1,3,0,1,1,1,1,1,1,1,0,0,0,0,1,7,8,117,space,8.443015800000012,None,0,1,8.524736500000017,None,space,5.043337000000065,None,0,0,0,0,,,,,3,1,25,5,163.80584750000025,,,,,,,,,,,,,,,,,,,,,163.7909085000001,163.80584750000025,164.30555099999992,164.28906810000035,164.2909152000002,164.30555099999992,172.83670699999993,,,,,172.8368003999999,172.8527269000001,173.05269260000023,173.03628590000017,,,,,,,,0,1,8.524736500000017,None,,,,,,,, 850,22,M,R,2026-02-23_11h44.26.720,VisualSearch_2526_3,,2025.2.4,2026-02-23 11h44.26.977705 +0100,
tilted.xlsx,The target is tilted.,117,26,2,3,1,1,1,1,1,1,1,1,0,0,0,0,0,7,8,117,space,8.443015800000012,None,1,1,2.6372550000000956,None,space,5.043337000000065,None,0,0,0,0,,,,,3,2,26,1,173.05269260000023,,,,,,,,,,,,,,,,,,,,,173.03664150000031,173.05269260000023,173.55260660000022,173.53613220000034,173.53813590000027,173.55260660000022,176.20225230000005,,,,,176.2023446000003,176.21826200000032,176.4182420000002,176.4018447000003,,,,,,,,1,1,2.6372550000000956,None,,,,,,,, 850,22,M,R,2026-02-23_11h44.26.720,VisualSearch_2526_3,,2025.2.4,2026-02-23 11h44.26.977705 +0100,
tilted.xlsx,The target is tilted.,117,27,3,3,1,0,0,0,0,0,0,0,0,0,0,0,0,0,1,117,space,8.443015800000012,None,1,1,0.8335901000000376,None,space,5.043337000000065,None,0,0,0,0,,,,,3,3,27,3,176.4182420000002,,,,,,,,,,,,,,,,,,,,,176.40219650000017,176.4182420000002,176.91814900000008,176.90171690000034,176.90367650000007,176.91814900000008,177.76841730000024,,,,,177.76849200000015,177.78461349999998,177.98469490000025,177.9684857000002,,,,,,,,1,1,0.8335901000000376,None,,,,,,,, 850,22,M,R,2026-02-23_11h44.26.720,VisualSearch_2526_3,,2025.2.4,2026-02-23 11h44.26.977705 +0100,
tilted.xlsx,The target is tilted.,117,28,4,3,0,1,1,1,1,1,1,1,1,1,1,1,1,11,12,117,space,8.443015800000012,None,0,1,10.475717499999973,None,space,5.043337000000065,None,0,0,0,0,,,,,3,4,28,4,177.98469490000025,,,,,,,,,,,,,,,,,,,,,177.9691244999999,177.98469490000025,178.48699699999997,178.46810240000013,178.47320489999993,178.48699699999997,188.96599820000029,,,,,188.96620250000024,188.98099040000034,189.1816506,189.1653527000003,,,,,,,,0,1,10.475717499999973,None,,,,,,,, 850,22,M,R,2026-02-23_11h44.26.720,VisualSearch_2526_3,,2025.2.4,2026-02-23 11h44.26.977705 +0100,
tilted.xlsx,The target is tilted.,117,29,5,3,0,0,0,0,0,0,0,0,0,0,0,0,1,1,1,117,space,8.443015800000012,None,0,1,0.8455321999999796,None,space,5.043337000000065,None,0,0,0,0,,,,,3,5,29,7,189.1816506,,,,,,,,,,,,,,,,,,,,,189.16616490000024,189.1816506,189.68980809999994,189.66538330000003,189.6708109000001,189.68980809999994,190.5480133000001,,,,,190.54816710000023,190.56380790000003,190.76421310000023,190.74840339999992,,,,,,,,0,1,0.8455321999999796,None,,,,,,,, 850,22,M,R,2026-02-23_11h44.26.720,VisualSearch_2526_3,,2025.2.4,2026-02-23 11h44.26.977705 +0100,
tilted.xlsx,The target is tilted.,117,30,6,3,0,1,1,1,0,0,0,0,0,0,0,0,1,3,4,117,space,8.443015800000012,None,0,1,2.8479827999999543,None,space,5.043337000000065,None,0,0,0,0,,,,,3,6,30,6,190.76421310000023,,,,,,,,,,,,,,,,,,,,,190.74922700000025,190.76421310000023,191.27166860000034,191.2482712000001,191.2536616000002,191.27166860000034,194.13066419999996,,,,,194.13086330000033,194.1460906000002,194.34664410000005,194.33033160000014,,,,,,,,0,1,2.8479827999999543,None,,,,,,,, 850,22,M,R,2026-02-23_11h44.26.720,VisualSearch_2526_3,,2025.2.4,2026-02-23 11h44.26.977705 +0100,
tilted.xlsx,The target is tilted.,117,31,7,3,1,1,1,1,0,0,0,0,0,0,0,0,0,3,4,117,space,8.443015800000012,None,1,1,1.6547990999997637,None,space,5.043337000000065,None,0,0,0,0,,,,,3,7,31,2,194.34664410000005,,,,,,,,,,,,,,,,,,,,,194.33119400000032,194.34664410000005,194.85396800000035,194.83049440000013,194.83588220000001,194.85396800000035,196.51342090000026,,,,,196.51365130000022,196.52864810000028,196.72919150000007,196.7131273,,,,,,,,1,1,1.6547990999997637,None,,,,,,,, 850,22,M,R,2026-02-23_11h44.26.720,VisualSearch_2526_3,,2025.2.4,2026-02-23 11h44.26.977705 +0100,
tilted.xlsx,The target is tilted.,117,32,0,4,1,0,0,0,0,0,0,0,0,0,0,0,0,0,1,117,space,8.443015800000012,None,1,1,0.7869828999996571,None,space,5.043337000000065,None,0,0,0,0,,,,,4,0,32,3,196.72919150000007,,,,,,,,,,,,,,,,,,,,,196.71396270000014,196.72919150000007,197.22882620000019,197.2129186000002,197.2176472000001,197.22882620000019,198.02900279999994,,,,,198.0292030999999,198.04466950000005,198.24508130000004,198.2288764,,,,,,,,1,1,0.7869828999996571,None,,,,,,,, 850,22,M,R,2026-02-23_11h44.26.720,VisualSearch_2526_3,,2025.2.4,2026-02-23 11h44.26.977705 +0100,
tilted.xlsx,The target is tilted.,117,33,1,4,0,1,1,1,0,0,0,0,0,0,0,0,1,3,4,117,space,8.443015800000012,None,0,1,2.3731025000001864,None,space,5.043337000000065,None,0,0,0,0,,,,,4,1,33,6,198.24508130000004,,,,,,,,,,,,,,,,,,,,,198.22967700000027,198.24508130000004,198.75198279999995,198.72918210000034,198.7345421,198.75198279999995,201.12812050000002,,,,,201.1282914000003,201.14374120000002,201.34436970000024,201.32829450000008,,,,,,,,0,1,2.3731025000001864,None,,,,,,,, 850,22,M,R,2026-02-23_11h44.26.720,VisualSearch_2526_3,,2025.2.4,2026-02-23 11h44.26.977705 +0100,
tilted.xlsx,The target is tilted.,117,34,2,4,0,1,1,1,1,1,1,1,0,0,0,0,1,7,8,117,space,8.443015800000012,None,0,1,3.4523355999999694,None,space,5.043337000000065,None,0,0,0,0,,,,,4,2,34,5,201.34436970000024,,,,,,,,,,,,,,,,,,,,,201.32912840000017,201.34436970000024,201.85135160000027,201.8280222000003,201.8333351000001,201.85135160000027,205.31080939999993,,,,,205.31107120000024,205.3258638000002,205.5263190999999,205.50988929999994,,,,,,,,0,1,3.4523355999999694,None,,,,,,,, 850,22,M,R,2026-02-23_11h44.26.720,VisualSearch_2526_3,,2025.2.4,2026-02-23 11h44.26.977705 +0100,
tilted.xlsx,The target is tilted.,117,35,3,4,1,1,1,1,1,1,1,1,0,0,0,0,0,7,8,117,space,8.443015800000012,None,1,1,2.8773926000003485,None,space,5.043337000000065,None,0,0,0,0,,,,,4,3,35,1,205.5263190999999,,,,,,,,,,,,,,,,,,,,,205.51071750000028,205.5263190999999,206.0331971999999,206.0102396000002,206.01556280000023,206.0331971999999,208.92568610000035,,,,,208.9258866,208.94126760000017,209.14097870000023,209.12443140000005,,,,,,,,1,1,2.8773926000003485,None,,,,,,,, 850,22,M,R,2026-02-23_11h44.26.720,VisualSearch_2526_3,,2025.2.4,2026-02-23 11h44.26.977705 +0100,
tilted.xlsx,The target is tilted.,117,36,4,4,0,0,0,0,0,0,0,0,0,0,0,0,1,1,1,117,space,8.443015800000012,None,0,1,0.771446300000207,None,space,5.043337000000065,None,0,0,0,0,,,,,4,4,36,7,209.14097870000023,,,,,,,,,,,,,,,,,,,,,209.1247811000003,209.14097870000023,209.64086590000034,209.62430010000026,209.62619889999996,209.64086590000034,210.42532980000033,,,,,210.42555470000025,210.4407043000001,210.6411994,210.62526860000025,,,,,,,,0,1,0.771446300000207,None,,,,,,,, 850,22,M,R,2026-02-23_11h44.26.720,VisualSearch_2526_3,,2025.2.4,2026-02-23 11h44.26.977705 +0100,
tilted.xlsx,The target is tilted.,117,37,5,4,1,1,1,1,0,0,0,0,0,0,0,0,0,3,4,117,space,8.443015800000012,None,1,1,2.309656200000063,None,space,5.043337000000065,None,0,0,0,0,,,,,4,5,37,2,210.6411994,,,,,,,,,,,,,,,,,,,,,210.62607630000002,210.6411994,211.14533759999995,211.1251084999999,211.13039849999996,211.14533759999995,213.4583837,,,,,213.45862220000026,213.47309360000008,213.67369499999995,213.65791149999995,,,,,,,,1,1,2.309656200000063,None,,,,,,,, 850,22,M,R,2026-02-23_11h44.26.720,VisualSearch_2526_3,,2025.2.4,2026-02-23 11h44.26.977705 +0100,
tilted.xlsx,The target is tilted.,117,38,6,4,0,1,1,1,1,1,1,1,1,1,1,1,1,11,12,117,space,8.443015800000012,None,0,1,10.316283300000123,None,space,5.043337000000065,None,0,0,0,0,,,,,4,6,38,4,213.67369499999995,,,,,,,,,,,,,,,,,,,,,213.6587611,213.67369499999995,214.18126380000012,214.15748280000025,214.1627794000001,214.18126380000012,224.50504330000012,,,,,224.5052771999999,224.51954720000003,224.7197742000003,224.7036833000002,,,,,,,,0,1,10.316283300000123,None,,,,,,,, 850,22,M,R,2026-02-23_11h44.26.720,VisualSearch_2526_3,,2025.2.4,2026-02-23 11h44.26.977705 +0100,
tilted.xlsx,The target is tilted.,117,39,7,4,1,1,1,1,1,1,1,1,1,1,1,1,0,11,12,117,space,8.443015800000012,None,1,1,5.285954599999968,None,space,5.043337000000065,None,0,0,0,0,,,,,4,7,39,0,224.7197742000003,,,,,,,,,,,,,,,,,,,,,224.7045019000002,224.7197742000003,225.23059790000025,225.20387310000024,225.20935869999994,225.23059790000025,230.51888069999995,,,,,230.51904490000015,230.53408549999995,230.73473920000015,230.71866050000017,,,,,,,,1,1,5.285954599999968,None,,,,,,,, 850,22,M,R,2026-02-23_11h44.26.720,VisualSearch_2526_3,,2025.2.4,2026-02-23 11h44.26.977705 +0100,
tilted.xlsx,The target is tilted.,117,40,0,5,0,0,0,0,0,0,0,0,0,0,0,0,1,1,1,117,space,8.443015800000012,None,0,1,1.0254718999999568,None,space,5.043337000000065,None,0,0,0,0,,,,,5,0,40,7,230.73473920000015,,,,,,,,,,,,,,,,,,,,,230.71945959999994,230.73473920000015,231.24143189999995,231.21857920000002,231.22388769999998,231.24143189999995,232.26814439999998,,,,,232.2683247,232.28381290000016,232.48391429999992,232.46796620000032,,,,,,,,0,1,1.0254718999999568,None,,,,,,,, 850,22,M,R,2026-02-23_11h44.26.720,VisualSearch_2526_3,,2025.2.4,2026-02-23 11h44.26.977705 +0100,
tilted.xlsx,The target is tilted.,117,41,1,5,0,1,1,1,1,1,1,1,1,1,1,1,1,11,12,117,space,8.443015800000012,None,0,1,6.646997199999987,None,space,5.043337000000065,None,0,0,0,0,,,,,5,1,41,4,232.48391429999992,,,,,,,,,,,,,,,,,,,,,232.46882069999992,232.48391429999992,232.9904360999999,232.96797400000014,232.97330050000028,232.9904360999999,239.64815769999996,,,,,239.64827820000028,239.66427079999994,239.8642365999999,239.8477157000002,,,,,,,,0,1,6.646997199999987,None,,,,,,,, 850,22,M,R,2026-02-23_11h44.26.720,VisualSearch_2526_3,,2025.2.4,2026-02-23 11h44.26.977705 +0100,
tilted.xlsx,The target is tilted.,117,42,2,5,1,1,1,1,1,1,1,1,1,1,1,1,0,11,12,117,space,8.443015800000012,None,1,1,1.7036806999999499,None,space,5.043337000000065,None,0,0,0,0,,,,,5,2,42,0,239.8642365999999,,,,,,,,,,,,,,,,,,,,,239.84804239999994,239.8642365999999,,240.34864500000003,240.35399540000026,240.37185180000006,242.08220200000005,,,,,242.08246110000027,242.09728760000007,242.29735830000027,242.28146319999996,,,,,,,,1,1,1.7036806999999499,None,,,,,,,, 850,22,M,R,2026-02-23_11h44.26.720,VisualSearch_2526_3,,2025.2.4,2026-02-23 11h44.26.977705 +0100,
tilted.xlsx,The target is tilted.,117,43,3,5,1,1,1,1,1,1,1,1,0,0,0,0,0,7,8,117,space,8.443015800000012,None,1,1,3.5525979999997617,None,space,5.043337000000065,None,0,0,0,0,,,,,5,3,43,1,242.29735830000027,,,,,,,,,,,,,,,,,,,,,242.28228949999993,242.29735830000027,242.8041588000001,242.78137460000016,242.78671460000032,242.8041588000001,246.36421280000013,,,,,246.36446430000024,246.37909910000008,246.57980450000014,246.56347959999994,,,,,,,,1,1,3.5525979999997617,None,,,,,,,, 850,22,M,R,2026-02-23_11h44.26.720,VisualSearch_2526_3,,2025.2.4,2026-02-23 11h44.26.977705 +0100,
tilted.xlsx,The target is tilted.,117,44,4,5,0,1,1,1,0,0,0,0,0,0,0,0,1,3,4,117,space,8.443015800000012,None,0,1,1.6911491000000751,None,space,5.043337000000065,None,0,0,0,0,,,,,5,4,44,6,246.57980450000014,,,,,,,,,,,,,,,,,,,,,246.56429370000023,246.57980450000014,247.0885247000001,247.06343629999992,247.06877190000023,247.0885247000001,248.79632100000026,,,,,248.79655110000022,248.81155639999997,249.01217750000023,248.9962375,,,,,,,,0,1,1.6911491000000751,None,,,,,,,, 850,22,M,R,2026-02-23_11h44.26.720,VisualSearch_2526_3,,2025.2.4,2026-02-23 11h44.26.977705 +0100,
tilted.xlsx,The target is tilted.,117,45,5,5,1,1,1,1,0,0,0,0,0,0,0,0,0,3,4,117,space,8.443015800000012,None,1,1,1.1323191000001316,None,space,5.043337000000065,None,0,0,0,0,,,,,5,5,45,2,249.01217750000023,,,,,,,,,,,,,,,,,,,,,248.99708390000023,249.01217750000023,249.5201419,249.49596280000014,249.50141440000016,249.5201419,250.66261740000027,,,,,250.66281849999996,250.67772560000003,250.87824750000027,250.86211589999994,,,,,,,,1,1,1.1323191000001316,None,,,,,,,, 850,22,M,R,2026-02-23_11h44.26.720,VisualSearch_2526_3,,2025.2.4,2026-02-23 11h44.26.977705 +0100,
tilted.xlsx,The target is tilted.,117,46,6,5,1,0,0,0,0,0,0,0,0,0,0,0,0,0,1,117,space,8.443015800000012,None,1,1,0.8447925999998915,None,space,5.043337000000065,None,0,0,0,0,,,,,5,6,46,3,250.87824750000027,,,,,,,,,,,,,,,,,,,,,250.86290469999994,250.87824750000027,251.37792119999995,251.3616205000003,251.36655360000032,251.37792119999995,252.2286813999999,,,,,252.22888200000034,252.24382000000014,252.44441970000025,252.42836480000005,,,,,,,,1,1,0.8447925999998915,None,,,,,,,, 850,22,M,R,2026-02-23_11h44.26.720,VisualSearch_2526_3,,2025.2.4,2026-02-23 11h44.26.977705 +0100,
tilted.xlsx,The target is tilted.,117,47,7,5,0,1,1,1,1,1,1,1,0,0,0,0,1,7,8,117,space,8.443015800000012,None,0,1,5.851835200000096,None,space,5.043337000000065,None,0,0,0,0,,,,,5,7,47,5,252.44441970000025,,,,,,,,,,,,,,,,,,,,,252.429173,252.44441970000025,252.95004689999996,252.9282060999999,252.93348590000005,252.95004689999996,258.8102954000001,,,,,258.81052180000006,258.8250562000003,259.02561730000025,259.00955790000035,,,,,,,,0,1,5.851835200000096,None,,,,,,,, 850,22,M,R,2026-02-23_11h44.26.720,VisualSearch_2526_3,,2025.2.4,2026-02-23 11h44.26.977705 +0100,
tilted.xlsx,The target is tilted.,117,48,0,6,0,1,1,1,0,0,0,0,0,0,0,0,1,3,4,117,space,8.443015800000012,None,0,1,2.385468800000126,None,space,5.043337000000065,None,0,0,0,0,,,,,6,0,48,6,259.02561730000025,,,,,,,,,,,,,,,,,,,,,259.0103469999999,259.02561730000025,259.5317503000001,259.50905009999997,259.51433880000013,259.5317503000001,261.92446960000007,,,,,261.92454160000034,261.94058540000015,,262.1249008,,,,,,,,0,1,2.385468800000126,None,,,,,,,, 850,22,M,R,2026-02-23_11h44.26.720,VisualSearch_2526_3,,2025.2.4,2026-02-23 11h44.26.977705 +0100,
tilted.xlsx,The target is tilted.,117,49,1,6,1,1,1,1,1,1,1,1,1,1,1,1,0,11,12,117,space,8.443015800000012,None,1,1,4.803955000000315,None,space,5.043337000000065,None,0,0,0,0,,,,,6,1,49,0,262.14128200000005,,,,,,,,,,,,,,,,,,,,,262.1257561000002,262.14128200000005,,262.62474580000026,262.6302611000001,262.6486414000001,267.45710929999996,,,,,267.45734300000004,267.4722508,267.6727235000003,267.65676220000023,,,,,,,,1,1,4.803955000000315,None,,,,,,,, 850,22,M,R,2026-02-23_11h44.26.720,VisualSearch_2526_3,,2025.2.4,2026-02-23 11h44.26.977705 +0100,
tilted.xlsx,The target is tilted.,117,50,2,6,0,1,1,1,1,1,1,1,1,1,1,1,1,11,12,117,space,8.443015800000012,None,0,1,7.6710972000000766,None,space,5.043337000000065,None,0,0,0,0,,,,,6,2,50,4,267.6727235000003,,,,,,,,,,,,,,,,,,,,,267.65759690000004,267.6727235000003,268.1768287,268.15663840000025,268.16197360000024,268.1768287,275.85433890000013,,,,,275.85453970000026,275.86945790000027,276.0697835000001,276.05400710000004,,,,,,,,0,1,7.6710972000000766,None,,,,,,,, 850,22,M,R,2026-02-23_11h44.26.720,VisualSearch_2526_3,,2025.2.4,2026-02-23 11h44.26.977705 +0100,
tilted.xlsx,The target is tilted.,117,51,3,6,1,0,0,0,0,0,0,0,0,0,0,0,0,0,1,117,space,8.443015800000012,None,1,1,1.0216411999999764,None,space,5.043337000000065,None,0,0,0,0,,,,,6,3,51,3,276.0697835000001,,,,,,,,,,,,,,,,,,,,,276.05483600000025,276.0697835000001,276.5776977999999,276.55385939999996,276.55911289999995,276.5776977999999,277.6033987999999,,,,,277.6035787999999,277.6188334000003,277.8195000999999,277.803046,,,,,,,,1,1,1.0216411999999764,None,,,,,,,, 850,22,M,R,2026-02-23_11h44.26.720,VisualSearch_2526_3,,2025.2.4,2026-02-23 11h44.26.977705 +0100,
tilted.xlsx,The target is tilted.,117,52,4,6,1,1,1,1,0,0,0,0,0,0,0,0,0,3,4,117,space,8.443015800000012,None,1,1,1.6241668000002392,None,space,5.043337000000065,None,0,0,0,0,,,,,6,4,52,2,277.8195000999999,,,,,,,,,,,,,,,,,,,,,277.8038501000001,277.8195000999999,278.3264386999999,278.3033071,278.3085718000002,278.3264386999999,279.9533666000002,,,,,279.9535927000002,279.96820620000017,280.1687595000003,280.1526552,,,,,,,,1,1,1.6241668000002392,None,,,,,,,, 850,22,M,R,2026-02-23_11h44.26.720,VisualSearch_2526_3,,2025.2.4,2026-02-23 11h44.26.977705 +0100,
tilted.xlsx,The target is tilted.,117,53,5,6,0,1,1,1,1,1,1,1,0,0,0,0,1,7,8,117,space,8.443015800000012,None,0,1,4.239781700000094,None,space,5.043337000000065,None,0,0,0,0,,,,,6,5,53,5,280.1687595000003,,,,,,,,,,,,,,,,,,,,,280.15345849999994,280.1687595000003,280.6756983,280.6524551000002,280.6578631000002,280.6756983,284.91746749999993,,,,,284.91762370000015,284.9332067,285.1338197,285.1173748000001,,,,,,,,0,1,4.239781700000094,None,,,,,,,, 850,22,M,R,2026-02-23_11h44.26.720,VisualSearch_2526_3,,2025.2.4,2026-02-23 11h44.26.977705 +0100,
tilted.xlsx,The target is tilted.,117,54,6,6,1,1,1,1,1,1,1,1,0,0,0,0,0,7,8,117,space,8.443015800000012,None,1,1,1.1581771000001027,None,space,5.043337000000065,None,0,0,0,0,,,,,6,6,54,1,285.1338197,,,,,,,,,,,,,,,,,,,,,285.1182017000001,285.1338197,285.6406857000002,285.61759359999996,285.62286630000017,285.6406857000002,286.80085180000015,,,,,286.80107450000014,286.8159644000002,287.0164949,287.00012960000004,,,,,,,,1,1,1.1581771000001027,None,,,,,,,, 850,22,M,R,2026-02-23_11h44.26.720,VisualSearch_2526_3,,2025.2.4,2026-02-23 11h44.26.977705 +0100,
tilted.xlsx,The target is tilted.,117,55,7,6,0,0,0,0,0,0,0,0,0,0,0,0,1,1,1,117,space,8.443015800000012,None,0,1,1.3077167000001282,None,space,5.043337000000065,None,0,0,0,0,,,,,6,7,55,7,287.0164949,,,,,,,,,,,,,,,,,,,,,287.0009395000002,287.0164949,287.52341019999994,287.5003434,287.50570800000014,287.52341019999994,288.8338288,,,,,288.83405870000024,288.84866490000013,289.04915389999996,289.03298730000006,,,,,,,,0,1,1.3077167000001282,None,,,,,,,, 850,22,M,R,2026-02-23_11h44.26.720,VisualSearch_2526_3,,2025.2.4,2026-02-23 11h44.26.977705 +0100,
tilted.xlsx,The target is tilted.,117,56,0,7,1,0,0,0,0,0,0,0,0,0,0,0,0,0,1,117,space,8.443015800000012,None,1,1,0.7863823000002412,None,space,5.043337000000065,None,0,0,0,0,,,,,7,0,56,3,289.04915389999996,,,,,,,,,,,,,,,,,,,,,289.03379700000005,289.04915389999996,289.55594569999994,289.53296339999997,289.53834730000017,289.55594569999994,290.3499850000003,,,,,290.35021080000024,290.3648511000001,290.56537879999996,290.5493633000001,,,,,,,,1,1,0.7863823000002412,None,,,,,,,, 850,22,M,R,2026-02-23_11h44.26.720,VisualSearch_2526_3,,2025.2.4,2026-02-23 11h44.26.977705 +0100,
tilted.xlsx,The target is tilted.,117,57,1,7,0,1,1,1,1,1,1,1,0,0,0,0,1,7,8,117,space,8.443015800000012,None,0,1,4.3478070999999545,None,space,5.043337000000065,None,0,0,0,0,,,,,7,1,57,5,290.56537879999996,,,,,,,,,,,,,,,,,,,,,290.55017339999995,290.56537879999996,291.07164330000023,291.04906960000017,291.05441440000004,291.07164330000023,295.4306538000001,,,,,295.43079290000014,295.4463582000003,295.6470621000003,295.6306767000001,,,,,,,,0,1,4.3478070999999545,None,,,,,,,, 850,22,M,R,2026-02-23_11h44.26.720,VisualSearch_2526_3,,2025.2.4,2026-02-23 11h44.26.977705 +0100,
tilted.xlsx,The target is tilted.,117,58,2,7,0,1,1,1,0,0,0,0,0,0,0,0,1,3,4,117,space,8.443015800000012,None,0,1,1.8332958000000872,None,space,5.043337000000065,None,0,0,0,0,,,,,7,2,58,6,295.6470621000003,,,,,,,,,,,,,,,,,,,,,295.6314941999999,295.6470621000003,296.15421259999994,296.13046490000033,296.1358349000002,296.15421259999994,297.99717640000017,,,,,297.9973936000001,298.01228560000027,298.21282680000013,298.19682660000035,,,,,,,,0,1,1.8332958000000872,None,,,,,,,, 850,22,M,R,2026-02-23_11h44.26.720,VisualSearch_2526_3,,2025.2.4,2026-02-23 11h44.26.977705 +0100,
tilted.xlsx,The target is tilted.,117,59,3,7,1,1,1,1,0,0,0,0,0,0,0,0,0,3,4,117,space,8.443015800000012,None,1,1,1.4044433000003664,None,space,5.043337000000065,None,0,0,0,0,,,,,7,3,59,2,298.21282680000013,,,,,,,,,,,,,,,,,,,,,298.1976275000002,298.21282680000013,298.7196067,298.6966629000003,298.70198530000016,298.7196067,300.13014109999995,,,,,300.1303664000002,300.14474100000007,300.3454762000001,300.32946919999995,,,,,,,,1,1,1.4044433000003664,None,,,,,,,, 850,22,M,R,2026-02-23_11h44.26.720,VisualSearch_2526_3,,2025.2.4,2026-02-23 11h44.26.977705 +0100,
tilted.xlsx,The target is tilted.,117,60,4,7,0,0,0,0,0,0,0,0,0,0,0,0,1,1,1,117,space,8.443015800000012,None,0,1,1.1498874000003525,None,space,5.043337000000065,None,0,0,0,0,,,,,7,4,60,7,300.3454762000001,,,,,,,,,,,,,,,,,,,,,300.33032090000006,300.3454762000001,300.8478720000003,300.8289620999999,300.8342302000001,300.8478720000003,302.01197550000006,,,,,302.0122002000003,302.02771200000007,302.2277887,302.2109092999999,,,,,,,,0,1,1.1498874000003525,None,,,,,,,, 850,22,M,R,2026-02-23_11h44.26.720,VisualSearch_2526_3,,2025.2.4,2026-02-23 11h44.26.977705 +0100,
tilted.xlsx,The target is tilted.,117,61,5,7,1,1,1,1,1,1,1,1,1,1,1,1,0,11,12,117,space,8.443015800000012,None,1,1,2.5181582000000162,None,space,5.043337000000065,None,0,0,0,0,,,,,7,5,61,0,302.2277887,,,,,,,,,,,,,,,,,,,,,302.2111795999999,302.2277887,302.7324718,302.71190780000006,302.7172303000002,302.7324718,305.2614103000001,,,,,305.2616052000003,305.2765396,305.47721470000033,305.46078639999996,,,,,,,,1,1,2.5181582000000162,None,,,,,,,, 850,22,M,R,2026-02-23_11h44.26.720,VisualSearch_2526_3,,2025.2.4,2026-02-23 11h44.26.977705 +0100,
tilted.xlsx,The target is tilted.,117,62,6,7,0,1,1,1,1,1,1,1,1,1,1,1,1,11,12,117,space,8.443015800000012,None,0,1,5.341404100000091,None,space,5.043337000000065,None,0,0,0,0,,,,,7,6,62,4,305.47721470000033,,,,,,,,,,,,,,,,,,,,,305.4616027000002,305.47721470000033,305.9830151000001,305.9608582000001,305.9661992000001,305.9830151000001,311.32606609999993,,,,,311.3262506000001,311.3412091,311.5418689000003,311.5257501000001,,,,,,,,0,1,5.341404100000091,None,,,,,,,, 850,22,M,R,2026-02-23_11h44.26.720,VisualSearch_2526_3,,2025.2.4,2026-02-23 11h44.26.977705 +0100,
tilted.xlsx,The target is tilted.,117,63,7,7,1,1,1,1,1,1,1,1,0,0,0,0,0,7,8,117,space,8.443015800000012,None,1,1,3.0762979999999516,None,space,5.043337000000065,None,0,0,0,0,,,,,7,7,63,1,311.5418689000003,,,,,,,,,,,,,,,,,,,,,311.5266193000002,311.5418689000003,312.0498723999999,312.02548879999995,312.03080339999997,312.0498723999999,315.14130300000033,,,,,315.14151119999997,315.15678860000025,315.35709270000007,315.34098670000003,,,,,,,,1,1,3.0762979999999516,None,,,,,,,, 850,22,M,R,2026-02-23_11h44.26.720,VisualSearch_2526_3,,2025.2.4,2026-02-23 11h44.26.977705 +0100,
tilted.xlsx,The target is tilted.,117,64,0,8,0,0,0,0,0,0,0,0,0,0,0,0,1,1,1,117,space,8.443015800000012,None,0,1,0.7284085999999661,None,space,5.043337000000065,None,0,0,0,0,,,,,8,0,64,7,315.35709270000007,,,,,,,,,,,,,,,,,,,,,315.3418647000003,315.35709270000007,315.8641749000003,315.8410965000003,315.84635590000016,315.8641749000003,316.6069066,,,,,316.6070569000003,316.6230323,316.82349520000025,316.8071183000002,,,,,,,,0,1,0.7284085999999661,None,,,,,,,, 850,22,M,R,2026-02-23_11h44.26.720,VisualSearch_2526_3,,2025.2.4,2026-02-23 11h44.26.977705 +0100,
tilted.xlsx,The target is tilted.,117,65,1,8,0,1,1,1,1,1,1,1,1,1,1,1,1,11,12,117,space,8.443015800000012,None,0,1,6.544850799999949,None,space,5.043337000000065,None,0,0,0,0,,,,,8,1,65,4,316.82349520000025,,,,,,,,,,,,,,,,,,,,,316.80799079999997,316.82349520000025,317.33101650000026,317.30730029999995,317.31260340000017,317.33101650000026,323.8884244999999,,,,,323.888649,323.9038453000003,324.10449930000004,324.08839350000017,,,,,,,,0,1,6.544850799999949,None,,,,,,,, 850,22,M,R,2026-02-23_11h44.26.720,VisualSearch_2526_3,,2025.2.4,2026-02-23 11h44.26.977705 +0100,
tilted.xlsx,The target is tilted.,117,66,2,8,0,1,1,1,1,1,1,1,0,0,0,0,1,7,8,117,space,8.443015800000012,None,0,1,4.497725799999898,None,space,5.043337000000065,None,0,0,0,0,,,,,8,2,66,5,324.10449930000004,,,,,,,,,,,,,,,,,,,,,324.0891919999999,324.10449930000004,324.6098686,324.58824730000015,324.5935909,324.6098686,329.1201019,,,,,329.1203330000003,329.13547070000004,329.3357552000002,329.32008140000016,,,,,,,,0,1,4.497725799999898,None,,,,,,,, 850,22,M,R,2026-02-23_11h44.26.720,VisualSearch_2526_3,,2025.2.4,2026-02-23 11h44.26.977705 +0100,
tilted.xlsx,The target is tilted.,117,67,3,8,1,1,1,1,1,1,1,1,0,0,0,0,0,7,8,117,space,8.443015800000012,None,1,1,1.814758200000142,None,space,5.043337000000065,None,0,0,0,0,,,,,8,3,67,1,329.3357552000002,,,,,,,,,,,,,,,,,,,,,329.3209132000002,329.3357552000002,329.8357298000001,329.8199472000001,329.8249318000003,329.8357298000001,331.653092,,,,,331.6533228000003,331.6679789,331.8684751999999,331.8522263,,,,,,,,1,1,1.814758200000142,None,,,,,,,, 850,22,M,R,2026-02-23_11h44.26.720,VisualSearch_2526_3,,2025.2.4,2026-02-23 11h44.26.977705 +0100,
tilted.xlsx,The target is tilted.,117,68,4,8,1,1,1,1,0,0,0,0,0,0,0,0,0,3,4,117,space,8.443015800000012,None,1,1,1.567299599999842,None,space,5.043337000000065,None,0,0,0,0,,,,,8,4,68,2,331.8684751999999,,,,,,,,,,,,,,,,,,,,,331.8530707,331.8684751999999,332.3743308000003,332.3523401000002,332.35757200000035,332.3743308000003,333.95216180000034,,,,,333.9524859000003,333.96739419999994,334.16781459999993,334.15170990000024,,,,,,,,1,1,1.567299599999842,None,,,,,,,, 850,22,M,R,2026-02-23_11h44.26.720,VisualSearch_2526_3,,2025.2.4,2026-02-23 11h44.26.977705 +0100,
tilted.xlsx,The target is tilted.,117,69,5,8,1,0,0,0,0,0,0,0,0,0,0,0,0,0,1,117,space,8.443015800000012,None,1,1,0.6738593000000037,None,space,5.043337000000065,None,0,0,0,0,,,,,8,5,69,3,334.16781459999993,,,,,,,,,,,,,,,,,,,,,334.1525388,334.16781459999993,334.67454309999994,334.6514916000001,334.6568539,334.67454309999994,335.35178540000015,,,,,335.3519792000002,335.36680750000005,335.5673974000001,335.55115479999995,,,,,,,,1,1,0.6738593000000037,None,,,,,,,, 850,22,M,R,2026-02-23_11h44.26.720,VisualSearch_2526_3,,2025.2.4,2026-02-23 11h44.26.977705 +0100,
tilted.xlsx,The target is tilted.,117,70,6,8,0,1,1,1,0,0,0,0,0,0,0,0,1,3,4,117,space,8.443015800000012,None,0,1,3.2325863000000936,None,space,5.043337000000065,None,0,0,0,0,,,,,8,6,70,6,335.5673974000001,,,,,,,,,,,,,,,,,,,,,335.5519552999999,335.5673974000001,336.0737257999999,336.0510041000002,336.05628260000003,336.0737257999999,339.31717100000014,,,,,339.3173646,339.3322155000001,339.5328105000003,339.5167213,,,,,,,,0,1,3.2325863000000936,None,,,,,,,, 850,22,M,R,2026-02-23_11h44.26.720,VisualSearch_2526_3,,2025.2.4,2026-02-23 11h44.26.977705 +0100,
tilted.xlsx,The target is tilted.,117,71,7,8,1,1,1,1,1,1,1,1,1,1,1,1,0,11,12,117,space,8.443015800000012,None,1,1,7.23171339999999,None,space,5.043337000000065,None,0,0,0,0,,,,,8,7,71,0,339.5328105000003,,,,,,,,,,,,,,,,,,,,,339.51761380000016,339.5328105000003,340.0402097000001,340.01616300000023,340.0214203999999,340.0402097000001,347.2809572000001,,,,,347.28110749999996,347.29631910000035,347.49677310000015,347.48047380000025,,,,,,,,1,1,7.23171339999999,None,,,,,,,, 850,22,M,R,2026-02-23_11h44.26.720,VisualSearch_2526_3,,2025.2.4,2026-02-23 11h44.26.977705 +0100,
tilted.xlsx,The target is tilted.,117,72,0,9,1,1,1,1,1,1,1,1,0,0,0,0,0,7,8,117,space,8.443015800000012,None,1,1,3.20712820000017,None,space,5.043337000000065,None,0,0,0,0,,,,,9,0,72,1,347.49677310000015,,,,,,,,,,,,,,,,,,,,,347.48128510000015,347.49677310000015,348.0070104000001,347.9803164,347.9855772000001,348.0070104000001,351.22960060000014,,,,,351.2298221000001,351.24490060000016,351.4456226000002,351.42958050000016,,,,,,,,1,1,3.20712820000017,None,,,,,,,, 850,22,M,R,2026-02-23_11h44.26.720,VisualSearch_2526_3,,2025.2.4,2026-02-23 11h44.26.977705 +0100,
tilted.xlsx,The target is tilted.,117,73,1,9,1,1,1,1,0,0,0,0,0,0,0,0,0,3,4,117,space,8.443015800000012,None,1,1,1.23661600000014,None,space,5.043337000000065,None,0,0,0,0,,,,,9,1,73,2,351.4456226000002,,,,,,,,,,,,,,,,,,,,,351.4304409000001,351.4456226000002,351.9508636999999,351.9293861000001,351.9346236000001,351.9508636999999,353.1963380000002,,,,,353.1965629000001,353.21108700000013,353.4112872999999,353.3953652,,,,,,,,1,1,1.23661600000014,None,,,,,,,, 850,22,M,R,2026-02-23_11h44.26.720,VisualSearch_2526_3,,2025.2.4,2026-02-23 11h44.26.977705 +0100,
tilted.xlsx,The target is tilted.,117,74,2,9,1,0,0,0,0,0,0,0,0,0,0,0,0,0,1,117,space,8.443015800000012,None,1,1,0.6876960000004146,None,space,5.043337000000065,None,0,0,0,0,,,,,9,2,74,3,353.4112872999999,,,,,,,,,,,,,,,,,,,,,353.39617020000014,353.4112872999999,353.91878510000015,353.8954008999999,353.9007664999999,353.91878510000015,354.6122174000002,,,,,354.61249910000015,354.6273506000002,354.82782510000015,354.81160750000026,,,,,,,,1,1,0.6876960000004146,None,,,,,,,, 850,22,M,R,2026-02-23_11h44.26.720,VisualSearch_2526_3,,2025.2.4,2026-02-23 11h44.26.977705 +0100,
tilted.xlsx,The target is tilted.,117,75,3,9,0,1,1,1,0,0,0,0,0,0,0,0,1,3,4,117,space,8.443015800000012,None,0,1,2.7612648999997873,None,space,5.043337000000065,None,0,0,0,0,,,,,9,3,75,6,354.82782510000015,,,,,,,,,,,,,,,,,,,,,354.8124399000003,354.82782510000015,355.33426850000023,355.31152770000017,355.3167234000002,355.33426850000023,358.1107684000003,,,,,358.1109876999999,358.1263192000001,358.3267340000002,358.3102948999999,,,,,,,,0,1,2.7612648999997873,None,,,,,,,, 850,22,M,R,2026-02-23_11h44.26.720,VisualSearch_2526_3,,2025.2.4,2026-02-23 11h44.26.977705 +0100,
tilted.xlsx,The target is tilted.,117,76,4,9,0,1,1,1,1,1,1,1,0,0,0,0,1,7,8,117,space,8.443015800000012,None,0,1,3.4966832000000068,None,space,5.043337000000065,None,0,0,0,0,,,,,9,4,76,5,358.3267340000002,,,,,,,,,,,,,,,,,,,,,358.31108970000014,358.3267340000002,358.83282770000005,358.81004680000024,358.81524089999994,358.83282770000005,362.34265330000017,,,,,362.34287200000017,362.3580224000002,362.5586943000003,362.54258370000025,,,,,,,,0,1,3.4966832000000068,None,,,,,,,, 850,22,M,R,2026-02-23_11h44.26.720,VisualSearch_2526_3,,2025.2.4,2026-02-23 11h44.26.977705 +0100,
tilted.xlsx,The target is tilted.,117,77,5,9,0,0,0,0,0,0,0,0,0,0,0,0,1,1,1,117,space,8.443015800000012,None,0,1,1.116078699999889,None,space,5.043337000000065,None,0,0,0,0,,,,,9,5,77,7,362.5586943000003,,,,,,,,,,,,,,,,,,,,,362.5433783000003,362.5586943000003,363.06536080000024,363.04233090000025,363.0475655,363.06536080000024,364.19255079999994,,,,,364.19278570000006,364.20763209999996,364.4080892000002,364.3918802000003,,,,,,,,0,1,1.116078699999889,None,,,,,,,, 850,22,M,R,2026-02-23_11h44.26.720,VisualSearch_2526_3,,2025.2.4,2026-02-23 11h44.26.977705 +0100,
tilted.xlsx,The target is tilted.,117,78,6,9,0,1,1,1,1,1,1,1,1,1,1,1,1,11,12,117,space,8.443015800000012,None,0,1,5.8919544000000315,None,space,5.043337000000065,None,0,0,0,0,,,,,9,6,78,4,364.4080892000002,,,,,,,,,,,,,,,,,,,,,364.3926994000003,364.4080892000002,364.9144096,364.8917819000003,364.8977895000003,364.9144096,370.8232333000001,,,,,370.82345209999994,370.83863680000013,371.03921330000003,371.0231538000003,,,,,,,,0,1,5.8919544000000315,None,,,,,,,, 850,22,M,R,2026-02-23_11h44.26.720,VisualSearch_2526_3,,2025.2.4,2026-02-23 11h44.26.977705 +0100,
tilted.xlsx,The target is tilted.,117,79,7,9,1,1,1,1,1,1,1,1,1,1,1,1,0,11,12,117,space,8.443015800000012,None,1,1,3.9267010999997183,None,space,5.043337000000065,None,0,0,0,0,,,,,9,7,79,0,371.03921330000003,,,,,,,,,,,,,,,,,,,,,371.02394219999996,371.03921330000003,371.5454669999999,371.52268890000005,371.52801820000013,371.5454669999999,375.4883724000001,,,,,375.4886022999999,375.5039630000001,375.7044089000001,375.6883143,,,,,,,,1,1,3.9267010999997183,None,,,,,,,, 850,22,M,R,2026-02-23_11h44.26.720,VisualSearch_2526_3,,2025.2.4,2026-02-23 11h44.26.977705 +0100,
tilted.xlsx,The target is tilted.,117,80,0,10,1,0,0,0,0,0,0,0,0,0,0,0,0,0,1,117,space,8.443015800000012,None,1,1,1.2458728999999948,None,space,5.043337000000065,None,0,0,0,0,,,,,10,0,80,3,375.7044089000001,,,,,,,,,,,,,,,,,,,,,375.68909699999995,375.7044089000001,376.2110617000003,376.18809379999993,376.1933153,376.2110617000003,377.47067749999997,,,,,377.4708485000001,377.4865079000001,377.6870994000001,377.6709979000002,,,,,,,,1,1,1.2458728999999948,None,,,,,,,, 850,22,M,R,2026-02-23_11h44.26.720,VisualSearch_2526_3,,2025.2.4,2026-02-23 11h44.26.977705 +0100,
tilted.xlsx,The target is tilted.,117,81,1,10,0,1,1,1,0,0,0,0,0,0,0,0,1,3,4,117,space,8.443015800000012,None,0,1,1.199480599999788,None,space,5.043337000000065,None,0,0,0,0,,,,,10,1,81,6,377.6870994000001,,,,,,,,,,,,,,,,,,,,,377.6717779999999,377.6870994000001,378.1933842000003,378.1708410000001,378.17604310000024,378.1933842000003,379.40380400000004,,,,,379.40400210000007,379.41932780000025,379.61934109999993,379.60370349999994,,,,,,,,0,1,1.199480599999788,None,,,,,,,, 850,22,M,R,2026-02-23_11h44.26.720,VisualSearch_2526_3,,2025.2.4,2026-02-23 11h44.26.977705 +0100,
tilted.xlsx,The target is tilted.,117,82,2,10,0,1,1,1,1,1,1,1,1,1,1,1,1,11,12,117,space,8.443015800000012,None,0,1,10.097464500000115,None,space,5.043337000000065,None,0,0,0,0,,,,,10,2,82,4,379.61934109999993,,,,,,,,,,,,,,,,,,,,,379.6044930000003,379.61934109999993,380.12551080000003,380.10347070000034,380.10882310000034,380.12551080000003,390.23483179999994,,,,,390.23507900000004,390.24909130000015,390.4494517000003,390.4333564000003,,,,,,,,0,1,10.097464500000115,None,,,,,,,, 850,22,M,R,2026-02-23_11h44.26.720,VisualSearch_2526_3,,2025.2.4,2026-02-23 11h44.26.977705 +0100,
tilted.xlsx,The target is tilted.,117,83,3,10,0,0,0,0,0,0,0,0,0,0,0,0,1,1,1,117,space,8.443015800000012,None,0,1,1.608177500000238,None,space,5.043337000000065,None,0,0,0,0,,,,,10,3,83,7,390.4494517000003,,,,,,,,,,,,,,,,,,,,,390.4341644000001,390.4494517000003,390.9559322,390.93309130000034,390.9384484000002,390.9559322,392.56615260000035,,,,,392.5663012,392.58160110000017,392.78220020000026,392.7661475,,,,,,,,0,1,1.608177500000238,None,,,,,,,, 850,22,M,R,2026-02-23_11h44.26.720,VisualSearch_2526_3,,2025.2.4,2026-02-23 11h44.26.977705 +0100,
tilted.xlsx,The target is tilted.,117,84,4,10,1,1,1,1,1,1,1,1,0,0,0,0,0,7,8,117,space,8.443015800000012,None,0,0,5.115915100000166,None,space,5.043337000000065,None,0,0,0,0,,,,,10,4,84,1,392.78220020000026,,,,,,,,,,,,,,,,,,,,,392.76694339999995,392.78220020000026,393.2892995000002,393.2657789,393.27139239999997,393.2892995000002,398.41484760000003,,,,,398.4151030000003,398.4300447999999,398.62997429999996,398.6140368000001,,,,,,,,0,0,5.115915100000166,None,,,,,,,, 850,22,M,R,2026-02-23_11h44.26.720,VisualSearch_2526_3,,2025.2.4,2026-02-23 11h44.26.977705 +0100,
tilted.xlsx,The target is tilted.,117,85,5,10,0,1,1,1,1,1,1,1,0,0,0,0,1,7,8,117,space,8.443015800000012,None,0,1,4.211431700000048,None,space,5.043337000000065,None,0,0,0,0,,,,,10,5,85,5,398.62997429999996,,,,,,,,,,,,,,,,,,,,,398.6148926000001,398.62997429999996,399.13877010000033,399.1140398000002,399.1193032000001,399.13877010000033,403.3631995999999,,,,,403.3634495000001,403.3784168000002,403.5786515,403.5621722000001,,,,,,,,0,1,4.211431700000048,None,,,,,,,, 850,22,M,R,2026-02-23_11h44.26.720,VisualSearch_2526_3,,2025.2.4,2026-02-23 11h44.26.977705 +0100,
tilted.xlsx,The target is tilted.,117,86,6,10,1,1,1,1,0,0,0,0,0,0,0,0,0,3,4,117,space,8.443015800000012,None,1,1,1.430020499999955,None,space,5.043337000000065,None,0,0,0,0,,,,,10,6,86,2,403.5786515,,,,,,,,,,,,,,,,,,,,,403.56296820000034,403.5786515,404.08338660000027,404.06234680000034,404.0676086000003,404.08338660000027,405.52861200000007,,,,,405.52872620000016,405.544449,405.7446338,405.7284023000002,,,,,,,,1,1,1.430020499999955,None,,,,,,,, 850,22,M,R,2026-02-23_11h44.26.720,VisualSearch_2526_3,,2025.2.4,2026-02-23 11h44.26.977705 +0100,
tilted.xlsx,The target is tilted.,117,87,7,10,1,1,1,1,1,1,1,1,1,1,1,1,0,11,12,117,space,8.443015800000012,None,1,1,5.345678199999838,None,space,5.043337000000065,None,0,0,0,0,,,,,10,7,87,0,405.7446338,,,,,,,,,,,,,,,,,,,,,405.72924950000015,405.7446338,406.25142140000025,406.2284608,406.23369470000034,406.25142140000025,411.6101785000001,,,,,411.61035549999997,411.6258898000001,411.8258985000002,411.80971780000027,,,,,,,,1,1,5.345678199999838,None,,,,,,,, 850,22,M,R,2026-02-23_11h44.26.720,VisualSearch_2526_3,,2025.2.4,2026-02-23 11h44.26.977705 +0100,
tilted.xlsx,The target is tilted.,117,88,0,11,1,1,1,1,1,1,1,1,1,1,1,1,0,11,12,117,space,8.443015800000012,None,1,1,8.749209900000096,None,space,5.043337000000065,None,0,0,0,0,,,,,11,0,88,0,411.8258985000002,,,,,,,,,,,,,,,,,,,,,411.8105687000002,411.8258985000002,412.33293230000027,412.3098365000001,412.3151376999999,412.33293230000027,421.0909236000002,,,,,421.09115900000006,421.1061377000001,421.3062312000002,421.2897686000001,,,,,,,,1,1,8.749209900000096,None,,,,,,,, 850,22,M,R,2026-02-23_11h44.26.720,VisualSearch_2526_3,,2025.2.4,2026-02-23 11h44.26.977705 +0100,
tilted.xlsx,The target is tilted.,117,89,1,11,1,0,0,0,0,0,0,0,0,0,0,0,0,0,1,117,space,8.443015800000012,None,1,1,0.8408626000000368,None,space,5.043337000000065,None,0,0,0,0,,,,,11,1,89,3,421.3062312000002,,,,,,,,,,,,,,,,,,,,,421.29056470000023,421.3062312000002,421.8128780000002,421.79006530000015,421.79529550000007,421.8128780000002,422.6566763000001,,,,,422.6568692999999,422.6721802000002,422.8724241,422.8564045000003,,,,,,,,1,1,0.8408626000000368,None,,,,,,,, 850,22,M,R,2026-02-23_11h44.26.720,VisualSearch_2526_3,,2025.2.4,2026-02-23 11h44.26.977705 +0100,
tilted.xlsx,The target is tilted.,117,90,2,11,1,1,1,1,0,0,0,0,0,0,0,0,0,3,4,117,space,8.443015800000012,None,1,1,2.469784300000356,None,space,5.043337000000065,None,0,0,0,0,,,,,11,2,90,2,422.8724241,,,,,,,,,,,,,,,,,,,,,422.85736480000014,422.8724241,423.3789899000003,423.35617360000015,423.36140650000016,423.3789899000003,425.8555911000003,,,,,425.8557665000003,425.8708759000001,426.0712638,426.0552998000003,,,,,,,,1,1,2.469784300000356,None,,,,,,,, 850,22,M,R,2026-02-23_11h44.26.720,VisualSearch_2526_3,,2025.2.4,2026-02-23 11h44.26.977705 +0100,
tilted.xlsx,The target is tilted.,117,91,3,11,0,1,1,1,0,0,0,0,0,0,0,0,1,3,4,117,space,8.443015800000012,None,0,1,2.499150699999973,None,space,5.043337000000065,None,0,0,0,0,,,,,11,3,91,6,426.0712638,,,,,,,,,,,,,,,,,,,,,426.0560923000003,426.0712638,426.57097999999996,426.55484939999997,426.5594059,426.57097999999996,429.08727990000034,,,,,429.0873769,429.10331780000024,429.303594,429.2876415999999,,,,,,,,0,1,2.499150699999973,None,,,,,,,, 850,22,M,R,2026-02-23_11h44.26.720,VisualSearch_2526_3,,2025.2.4,2026-02-23 11h44.26.977705 +0100,
tilted.xlsx,The target is tilted.,117,92,4,11,0,1,1,1,1,1,1,1,0,0,0,0,1,7,8,117,space,8.443015800000012,None,0,1,6.361976099999993,None,space,5.043337000000065,None,0,0,0,0,,,,,11,4,92,5,429.303594,,,,,,,,,,,,,,,,,,,,,429.2884530000001,429.303594,429.81125840000004,429.7874216,429.79258990000017,429.81125840000004,436.18544139999995,,,,,436.1855925,436.2011209000002,436.4012275,436.3851881999999,,,,,,,,0,1,6.361976099999993,None,,,,,,,, 850,22,M,R,2026-02-23_11h44.26.720,VisualSearch_2526_3,,2025.2.4,2026-02-23 11h44.26.977705 +0100,
tilted.xlsx,The target is tilted.,117,93,5,11,0,1,1,1,1,1,1,1,1,1,1,1,1,11,12,117,space,8.443015800000012,None,0,1,7.0190575000001445,None,space,5.043337000000065,None,0,0,0,0,,,,,11,5,93,4,436.4012275,,,,,,,,,,,,,,,,,,,,,436.3860023000002,436.4012275,436.90498190000017,436.88460890000033,436.88987410000027,436.90498190000017,443.933035,,,,,443.93321030000016,443.94868110000016,444.1488294999999,444.13277430000016,,,,,,,,0,1,7.0190575000001445,None,,,,,,,, 850,22,M,R,2026-02-23_11h44.26.720,VisualSearch_2526_3,,2025.2.4,2026-02-23 11h44.26.977705 +0100,
tilted.xlsx,The target is tilted.,117,94,6,11,0,0,0,0,0,0,0,0,0,0,0,0,1,1,1,117,space,8.443015800000012,None,0,1,1.2088104999997995,None,space,5.043337000000065,None,0,0,0,0,,,,,11,6,94,7,444.1488294999999,,,,,,,,,,,,,,,,,,,,,444.1335574,444.1488294999999,444.6538893000002,444.63264990000016,444.6379867999999,444.6538893000002,445.86593900000025,,,,,445.8661161,445.88145480000003,446.08120020000024,446.0654970999999,,,,,,,,0,1,1.2088104999997995,None,,,,,,,, 850,22,M,R,2026-02-23_11h44.26.720,VisualSearch_2526_3,,2025.2.4,2026-02-23 11h44.26.977705 +0100,
tilted.xlsx,The target is tilted.,117,95,7,11,1,1,1,1,1,1,1,1,0,0,0,0,0,7,8,117,space,8.443015800000012,None,1,1,1.5690801999999167,None,space,5.043337000000065,None,0,0,0,0,,,,,11,7,95,1,446.08120020000024,,,,,,,,,,,,,,,,,,,,,446.06629060000023,446.08120020000024,446.5885039,446.56523990000005,446.57049370000004,446.5885039,448.1654552,,,,,448.16569430000027,448.1806977000001,448.3806434000003,448.36474240000007,,,,,,,,1,1,1.5690801999999167,None,,,,,,,, 850,22,M,R,2026-02-23_11h44.26.720,VisualSearch_2526_3,,2025.2.4,2026-02-23 11h44.26.977705 +0100,
tilted.xlsx,The target is tilted.,117,96,0,12,1,1,1,1,1,1,1,1,0,0,0,0,0,7,8,117,space,8.443015800000012,None,0,0,6.603534599999875,None,space,5.043337000000065,None,0,0,0,0,,,,,12,0,96,1,448.3806434000003,,,,,,,,,,,,,,,,,,,,,448.36555380000027,448.3806434000003,448.88776929999995,448.8645555000003,448.86993140000004,448.88776929999995,455.49572780000017,,,,,455.4959431000002,455.51138919999994,455.7116768000001,455.6954962,,,,,,,,0,0,6.603534599999875,None,,,,,,,, 850,22,M,R,2026-02-23_11h44.26.720,VisualSearch_2526_3,,2025.2.4,2026-02-23 11h44.26.977705 +0100,
tilted.xlsx,The target is tilted.,117,97,1,12,0,0,0,0,0,0,0,0,0,0,0,0,1,1,1,117,space,8.443015800000012,None,0,1,0.7582342000000608,None,space,5.043337000000065,None,0,0,0,0,,,,,12,1,97,7,455.7116768000001,,,,,,,,,,,,,,,,,,,,,455.6963651000001,455.7116768000001,456.2192637000003,456.1955074000002,456.20078250000006,456.2192637000003,456.97904100000005,,,,,456.97928920000004,456.9945077000002,457.1943325000002,457.1783201000003,,,,,,,,0,1,0.7582342000000608,None,,,,,,,, 850,22,M,R,2026-02-23_11h44.26.720,VisualSearch_2526_3,,2025.2.4,2026-02-23 11h44.26.977705 +0100,
tilted.xlsx,The target is tilted.,117,98,2,12,1,1,1,1,0,0,0,0,0,0,0,0,0,3,4,117,space,8.443015800000012,None,1,1,1.5005707999998776,None,space,5.043337000000065,None,0,0,0,0,,,,,12,2,98,2,457.1943325000002,,,,,,,,,,,,,,,,,,,,,457.1791433000003,457.1943325000002,457.70317380000006,457.67849810000007,457.6837442000001,457.70317380000006,459.21171030000005,,,,,459.2119418000002,459.2270904000002,459.42719910000005,459.4107501000003,,,,,,,,1,1,1.5005707999998776,None,,,,,,,, 850,22,M,R,2026-02-23_11h44.26.720,VisualSearch_2526_3,,2025.2.4,2026-02-23 11h44.26.977705 +0100,
tilted.xlsx,The target is tilted.,117,99,3,12,0,1,1,1,1,1,1,1,1,1,1,1,1,11,12,117,space,8.443015800000012,None,0,1,11.376153199999862,None,space,5.043337000000065,None,0,0,0,0,,,,,12,3,99,4,459.42719910000005,,,,,,,,,,,,,,,,,,,,,459.41155879999997,459.42719910000005,459.9331543000003,459.9109788999999,459.9161842000003,459.9331543000003,471.32451549999996,,,,,471.32477610000024,471.33969860000025,471.5396519000001,471.5238053000003,,,,,,,,0,1,11.376153199999862,None,,,,,,,, 850,22,M,R,2026-02-23_11h44.26.720,VisualSearch_2526_3,,2025.2.4,2026-02-23 11h44.26.977705 +0100,
tilted.xlsx,The target is tilted.,117,100,4,12,1,0,0,0,0,0,0,0,0,0,0,0,0,0,1,117,space,8.443015800000012,None,1,1,1.0363553000001957,None,space,5.043337000000065,None,0,0,0,0,,,,,12,4,100,3,471.5396519000001,,,,,,,,,,,,,,,,,,,,,471.52460610000026,471.5396519000001,472.04692879999993,472.0233824000002,472.02872320000006,472.04692879999993,473.0904161000003,,,,,473.09059130000014,473.10576519999995,473.30529509999997,473.28894149999996,,,,,,,,1,1,1.0363553000001957,None,,,,,,,, 850,22,M,R,2026-02-23_11h44.26.720,VisualSearch_2526_3,,2025.2.4,2026-02-23 11h44.26.977705 +0100,
tilted.xlsx,The target is tilted.,117,101,5,12,1,1,1,1,1,1,1,1,1,1,1,1,0,11,12,117,space,8.443015800000012,None,1,1,3.8216440999999577,None,space,5.043337000000065,None,0,0,0,0,,,,,12,5,101,0,473.30529509999997,,,,,,,,,,,,,,,,,,,,,473.2893804,473.30529509999997,473.8126514999999,473.7898057000002,473.7950184000001,473.8126514999999,477.63886170000023,,,,,477.6391007000002,477.6543765000001,477.85462340000004,477.83849280000004,,,,,,,,1,1,3.8216440999999577,None,,,,,,,, 850,22,M,R,2026-02-23_11h44.26.720,VisualSearch_2526_3,,2025.2.4,2026-02-23 11h44.26.977705 +0100,
tilted.xlsx,The target is tilted.,117,102,6,12,0,1,1,1,1,1,1,1,0,0,0,0,1,7,8,117,space,8.443015800000012,None,0,1,4.926856500000213,None,space,5.043337000000065,None,0,0,0,0,,,,,12,6,102,5,477.85462340000004,,,,,,,,,,,,,,,,,,,,,477.8392859999999,477.85462340000004,478.3616669000003,478.3383286000003,478.34422270000005,478.3616669000003,483.3039891000003,,,,,483.3042555000002,483.31940209999993,483.5193827000003,483.5033429,,,,,,,,0,1,4.926856500000213,None,,,,,,,, 850,22,M,R,2026-02-23_11h44.26.720,VisualSearch_2526_3,,2025.2.4,2026-02-23 11h44.26.977705 +0100,
tilted.xlsx,The target is tilted.,117,103,7,12,0,1,1,1,0,0,0,0,0,0,0,0,1,3,4,117,space,8.443015800000012,None,0,1,2.504660799999783,None,space,5.043337000000065,None,0,0,0,0,,,,,12,7,103,6,483.5193827000003,,,,,,,,,,,,,,,,,,,,,483.5041374000002,483.5193827000003,484.0252819000002,484.0030820000002,484.0083945000001,484.0252819000002,486.5356789000002,,,,,486.535832,486.55138639999996,486.7515545000001,486.7355665,,,,,,,,0,1,2.504660799999783,None,,,,,,,, 850,22,M,R,2026-02-23_11h44.26.720,VisualSearch_2526_3,,2025.2.4,2026-02-23 11h44.26.977705 +0100,
tilted.xlsx,The target is tilted.,117,104,0,13,1,1,1,1,0,0,0,0,0,0,0,0,0,3,4,117,space,8.443015800000012,None,1,1,1.2042602000001352,None,space,5.043337000000065,None,0,0,0,0,,,,,13,0,104,2,486.7515545000001,,,,,,,,,,,,,,,,,,,,,486.736363,486.7515545000001,487.25828720000027,487.23549630000025,487.24079710000024,487.25828720000027,488.46884420000015,,,,,488.4690730000002,488.48423730000013,488.6843594000002,488.66834830000016,,,,,,,,1,1,1.2042602000001352,None,,,,,,,, 850,22,M,R,2026-02-23_11h44.26.720,VisualSearch_2526_3,,2025.2.4,2026-02-23 11h44.26.977705 +0100,
tilted.xlsx,The target is tilted.,117,105,1,13,0,1,1,1,1,1,1,1,1,1,1,1,1,11,12,117,space,8.443015800000012,None,0,1,5.980757799999992,None,space,5.043337000000065,None,0,0,0,0,,,,,13,1,105,4,488.6843594000002,,,,,,,,,,,,,,,,,,,,,488.6691324000003,488.6843594000002,489.19186100000024,489.16820570000027,489.17345539999997,489.19186100000024,495.1834579000001,,,,,495.183712,495.1984590000002,495.3987692999999,495.3827332000001,,,,,,,,0,1,5.980757799999992,None,,,,,,,, 850,22,M,R,2026-02-23_11h44.26.720,VisualSearch_2526_3,,2025.2.4,2026-02-23 11h44.26.977705 +0100,
tilted.xlsx,The target is tilted.,117,106,2,13,1,1,1,1,1,1,1,1,0,0,0,0,0,7,8,117,space,8.443015800000012,None,0,0,5.6956262000003335,None,space,5.043337000000065,None,0,0,0,0,,,,,13,2,106,1,495.3987692999999,,,,,,,,,,,,,,,,,,,,,495.3835392000001,495.3987692999999,495.89823449999994,495.88262209999994,495.8874288000002,495.89823449999994,501.59716660000004,,,,,501.5973366000003,501.61338700000033,501.8134325000001,501.79726150000033,,,,,,,,0,0,5.6956262000003335,None,,,,,,,, 850,22,M,R,2026-02-23_11h44.26.720,VisualSearch_2526_3,,2025.2.4,2026-02-23 11h44.26.977705 +0100,
tilted.xlsx,The target is tilted.,117,107,3,13,0,1,1,1,1,1,1,1,0,0,0,0,1,7,8,117,space,8.443015800000012,None,0,1,7.116081399999985,None,space,5.043337000000065,None,0,0,0,0,,,,,13,3,107,5,501.8134325000001,,,,,,,,,,,,,,,,,,,,,501.7980712000003,501.8134325000001,502.3131158000001,502.29761150000013,502.30246860000034,502.3131158000001,509.4440976000001,,,,,509.44419659999994,509.4601229,,509.64458620000005,,,,,,,,0,1,7.116081399999985,None,,,,,,,, 850,22,M,R,2026-02-23_11h44.26.720,VisualSearch_2526_3,,2025.2.4,2026-02-23 11h44.26.977705 +0100,
tilted.xlsx,The target is tilted.,117,108,4,13,1,1,1,1,1,1,1,1,1,1,1,1,0,11,12,117,space,8.443015800000012,None,1,1,2.2888570000000072,None,space,5.043337000000065,None,0,0,0,0,,,,,13,4,108,0,509.6608199000002,,,,,,,,,,,,,,,,,,,,,509.6455062,509.6608199000002,510.1604175000002,510.14412500000026,510.1459520000003,510.1604175000002,512.4608947000002,,,,,512.4611150999999,512.4767074000001,512.6766062000002,512.6603027000001,,,,,,,,1,1,2.2888570000000072,None,,,,,,,, 850,22,M,R,2026-02-23_11h44.26.720,VisualSearch_2526_3,,2025.2.4,2026-02-23 11h44.26.977705 +0100,
tilted.xlsx,The target is tilted.,117,109,5,13,1,0,0,0,0,0,0,0,0,0,0,0,0,0,1,117,space,8.443015800000012,None,1,1,0.7994021000004068,None,space,5.043337000000065,None,0,0,0,0,,,,,13,5,109,3,512.6766062000002,,,,,,,,,,,,,,,,,,,,,512.6611273000003,512.6766062000002,513.1827400000002,513.1602121000001,513.1654334,513.1827400000002,513.9940641000003,,,,,513.9942839,514.0095017000003,514.2094663000003,514.1932756000001,,,,,,,,1,1,0.7994021000004068,None,,,,,,,, 850,22,M,R,2026-02-23_11h44.26.720,VisualSearch_2526_3,,2025.2.4,2026-02-23 11h44.26.977705 +0100,
tilted.xlsx,The target is tilted.,117,110,6,13,0,1,1,1,0,0,0,0,0,0,0,0,1,3,4,117,space,8.443015800000012,None,0,1,2.6514658999999483,None,space,5.043337000000065,None,0,0,0,0,,,,,13,6,110,6,514.2094663000003,,,,,,,,,,,,,,,,,,,,,514.1940947000003,514.2094663000003,514.7141009000002,514.6931850999999,514.6984295000002,514.7141009000002,517.3763253000002,,,,,517.3765436000003,517.3916791000001,517.5915824000003,517.5755864000002,,,,,,,,0,1,2.6514658999999483,None,,,,,,,, 850,22,M,R,2026-02-23_11h44.26.720,VisualSearch_2526_3,,2025.2.4,2026-02-23 11h44.26.977705 +0100,
tilted.xlsx,The target is tilted.,117,111,7,13,0,0,0,0,0,0,0,0,0,0,0,0,1,1,1,117,space,8.443015800000012,None,0,1,0.9631680999996206,None,space,5.043337000000065,None,0,0,0,0,,,,,13,7,111,7,517.5915824000003,,,,,,,,,,,,,,,,,,,,,517.5763734000002,517.5915824000003,518.0983453000003,518.0753687000001,518.0808062000001,518.0983453000003,519.0755071000003,,,,,519.0757028000003,519.0907261000002,519.2910320999999,519.2750641000002,,,,,,,,0,1,0.9631680999996206,None,,,,,,,, 850,22,M,R,2026-02-23_11h44.26.720,VisualSearch_2526_3,,2025.2.4,2026-02-23 11h44.26.977705 +0100,
tilted.xlsx,The target is tilted.,117,112,0,14,0,1,1,1,0,0,0,0,0,0,0,0,1,3,4,117,space,8.443015800000012,None,0,1,1.9517273000001296,None,space,5.043337000000065,None,0,0,0,0,,,,,14,0,112,6,519.2910320999999,,,,,,,,,,,,,,,,,,,,,519.2758717000002,519.2910320999999,519.7906842000002,519.7745973000001,519.7797141000001,519.7906842000002,521.7582866000002,,,,,521.7585102000003,521.7736636,521.9735258999999,521.9575039000001,,,,,,,,0,1,1.9517273000001296,None,,,,,,,, 850,22,M,R,2026-02-23_11h44.26.720,VisualSearch_2526_3,,2025.2.4,2026-02-23 11h44.26.977705 +0100,
tilted.xlsx,The target is tilted.,117,113,1,14,1,1,1,1,0,0,0,0,0,0,0,0,0,3,4,117,space,8.443015800000012,None,1,1,0.8778628000000026,None,space,5.043337000000065,None,0,0,0,0,,,,,14,1,113,2,521.9735258999999,,,,,,,,,,,,,,,,,,,,,521.9582884000001,521.9735258999999,522.4798421,522.4573083,522.4625368000002,522.4798421,523.3743101,,,,,523.3745503,523.3897584000001,523.5894251,523.5736115,,,,,,,,1,1,0.8778628000000026,None,,,,,,,, 850,22,M,R,2026-02-23_11h44.26.720,VisualSearch_2526_3,,2025.2.4,2026-02-23 11h44.26.977705 +0100,
tilted.xlsx,The target is tilted.,117,114,2,14,0,0,0,0,0,0,0,0,0,0,0,0,1,1,1,117,space,8.443015800000012,None,0,1,0.9843470999999226,None,space,5.043337000000065,None,0,0,0,0,,,,,14,2,114,7,523.5894251,,,,,,,,,,,,,,,,,,,,,523.5744047000003,523.5894251,524.0894321000001,524.0730035000001,524.0759290000001,524.0894321000001,525.0905732000001,,,,,525.0907895,525.1056022000002,525.3057882000003,525.2898008000002,,,,,,,,0,1,0.9843470999999226,None,,,,,,,, 850,22,M,R,2026-02-23_11h44.26.720,VisualSearch_2526_3,,2025.2.4,2026-02-23 11h44.26.977705 +0100,
tilted.xlsx,The target is tilted.,117,115,3,14,1,1,1,1,1,1,1,1,1,1,1,1,0,11,12,117,space,8.443015800000012,None,1,1,3.4650783000001866,None,space,5.043337000000065,None,0,0,0,0,,,,,14,3,115,0,525.3057882000003,,,,,,,,,,,,,,,,,,,,,525.2906492000002,525.3057882000003,525.8123516,525.7896417000002,525.7948706000002,525.8123516,529.2888279000003,,,,,529.2890268000001,529.3044539000002,529.5044800000001,529.4884197000001,,,,,,,,1,1,3.4650783000001866,None,,,,,,,, 850,22,M,R,2026-02-23_11h44.26.720,VisualSearch_2526_3,,2025.2.4,2026-02-23 11h44.26.977705 +0100,
tilted.xlsx,The target is tilted.,117,116,4,14,1,0,0,0,0,0,0,0,0,0,0,0,0,0,1,117,space,8.443015800000012,None,1,1,0.8132771999999022,None,space,5.043337000000065,None,0,0,0,0,,,,,14,4,116,3,529.5044800000001,,,,,,,,,,,,,,,,,,,,,529.4892202000001,529.5044800000001,530.0109765000002,529.9882213000001,529.9934240000002,530.0109765000002,530.8385989000003,,,,,530.8388248000001,530.8539076000002,531.0535047000003,531.0380995999999,,,,,,,,1,1,0.8132771999999022,None,,,,,,,, 850,22,M,R,2026-02-23_11h44.26.720,VisualSearch_2526_3,,2025.2.4,2026-02-23 11h44.26.977705 +0100,
tilted.xlsx,The target is tilted.,117,117,5,14,0,1,1,1,1,1,1,1,0,0,0,0,1,7,8,117,space,8.443015800000012,None,0,1,3.973788300000251,None,space,5.043337000000065,None,0,0,0,0,,,,,14,5,117,5,531.0535047000003,,,,,,,,,,,,,,,,,,,,,531.0388937000002,531.0535047000003,531.5535862000002,531.5377570999999,531.5426066,531.5535862000002,535.5364284000002,,,,,535.5366268000002,535.5523106999999,535.752281,535.7362853,,,,,,,,0,1,3.973788300000251,None,,,,,,,, 850,22,M,R,2026-02-23_11h44.26.720,VisualSearch_2526_3,,2025.2.4,2026-02-23 11h44.26.977705 +0100,
tilted.xlsx,The target is tilted.,117,118,6,14,1,1,1,1,1,1,1,1,0,0,0,0,0,7,8,117,space,8.443015800000012,None,1,1,1.3492833000000246,None,space,5.043337000000065,None,0,0,0,0,,,,,14,6,118,1,535.752281,,,,,,,,,,,,,,,,,,,,,535.7370822000003,535.752281,536.2589072999999,536.2362566000002,536.2415412,536.2589072999999,537.6196769000003,,,,,537.6199226000003,537.6349416000003,537.8350895000003,537.819066,,,,,,,,1,1,1.3492833000000246,None,,,,,,,, 850,22,M,R,2026-02-23_11h44.26.720,VisualSearch_2526_3,,2025.2.4,2026-02-23 11h44.26.977705 +0100,
tilted.xlsx,The target is tilted.,117,119,7,14,0,1,1,1,1,1,1,1,1,1,1,1,1,11,12,117,space,8.443015800000012,None,0,1,5.657967900000131,None,space,5.043337000000065,None,0,0,0,0,,,,,14,7,119,4,537.8350895000003,,,,,,,,,,,,,,,,,,,,,537.8199208000001,537.8350895000003,538.3425415000002,538.3189012000003,538.3241538000002,538.3425415000002,544.0167150000002,,,,,544.0168254,544.0326172,544.2508142000001,544.2169816999999,,,,,,,,0,1,5.657967900000131,None,,,,,,,, 850,22,M,R,2026-02-23_11h44.26.720,VisualSearch_2526_3,,2025.2.4,2026-02-23 11h44.26.977705 +0100,
tilted.xlsx,The target is tilted.,117,0,0,0,,,,,,,,,,,,,,,,,space,8.443015800000012,None,,,,,space,5.043337000000065,None,0,0,0,0,,,,,,,,,,,,,,,,,,,,,,,,,,,,,,,,,,,,,,,,,,,,,,,,,,,,,,,,,,,,,,, 850,22,M,R,2026-02-23_11h44.26.720,VisualSearch_2526_3,,2025.2.4,2026-02-23 11h44.26.977705 +0100,
vertical.xlsx,The target is tilted.,135,0,0,0,1,1,1,1,0,0,0,0,0,0,0,0,0,3,4,135,space,5.063694299999952,None,1,1,1.291102299999693,None,,,,0,1,1,1,0,0,0,2,,,,,549.3479120000002,,,,,,,,,,,,,,,544.2508142000001,544.2508142000001,544.2508142000001,space,5.063694299999952,None,549.3437887,549.3479120000002,,549.8313870000002,549.8366966000003,549.8519262,551.1477465000003,1,1,1.291102299999693,None,551.1479217000001,551.1635633000001,551.3640675000001,551.3479179999999,,,,,,,,,,,,,,,,,,, 850,22,M,R,2026-02-23_11h44.26.720,VisualSearch_2526_3,,2025.2.4,2026-02-23 11h44.26.977705 +0100,
vertical.xlsx,The target is tilted.,135,1,1,0,1,0,0,0,0,0,0,0,0,0,0,0,0,0,1,135,space,5.063694299999952,None,1,1,0.5524563000003582,None,,,,0,1,1,1,0,1,1,3,,,,,551.3640675000001,,,,,,,,,,,,,,,,,,,,,551.3486803999999,551.3640675000001,551.8710991000003,551.8478461,551.8531705,551.8710991000003,552.4309955000003,1,1,0.5524563000003582,None,552.4311368000003,552.4466130999999,552.6469771000002,552.6304986,,,,,,,,,,,,,,,,,,, 850,22,M,R,2026-02-23_11h44.26.720,VisualSearch_2526_3,,2025.2.4,2026-02-23 11h44.26.977705 +0100,
vertical.xlsx,The target is tilted.,135,2,2,0,0,0,0,0,0,0,0,0,0,0,0,0,1,1,1,135,space,5.063694299999952,None,0,1,0.7193539999998393,None,,,,0,1,1,1,0,2,2,7,,,,,552.6469771000002,,,,,,,,,,,,,,,,,,,,,552.6312496,552.6469771000002,553.1521820000003,553.1303723999999,553.1356516999999,553.1521820000003,553.8803800000001,0,1,0.7193539999998393,None,553.8805203000002,553.8962756999999,554.0965202000002,554.0803512000002,,,,,,,,,,,,,,,,,,, 850,22,M,R,2026-02-23_11h44.26.720,VisualSearch_2526_3,,2025.2.4,2026-02-23 11h44.26.977705 +0100,
vertical.xlsx,The target is tilted.,135,3,3,0,0,1,1,1,1,1,1,1,1,1,1,1,1,11,12,135,space,5.063694299999952,None,0,1,5.213375799999994,None,,,,0,1,1,1,0,3,3,4,,,,,554.0965202000002,,,,,,,,,,,,,,,,,,,,,554.0811027,554.0965202000002,554.6031366000002,554.5802271000002,554.5855102999999,554.6031366000002,559.8289014000002,0,1,5.213375799999994,None,559.8290907999999,559.8444516,560.0445164000002,560.0283856000001,,,,,,,,,,,,,,,,,,, 850,22,M,R,2026-02-23_11h44.26.720,VisualSearch_2526_3,,2025.2.4,2026-02-23 11h44.26.977705 +0100,
vertical.xlsx,The target is tilted.,135,4,4,0,0,1,1,1,0,0,0,0,0,0,0,0,1,3,4,135,space,5.063694299999952,None,0,1,1.0413580999997976,None,,,,0,1,1,1,0,4,4,6,,,,,560.0445164000002,,,,,,,,,,,,,,,,,,,,,560.0291195,560.0445164000002,560.5506155000003,560.528241,560.5334904000001,560.5506155000003,561.5950940000002,0,1,1.0413580999997976,None,561.5953318000002,561.6104353000001,561.8105078000003,561.7946334000003,,,,,,,,,,,,,,,,,,, 850,22,M,R,2026-02-23_11h44.26.720,VisualSearch_2526_3,,2025.2.4,2026-02-23 11h44.26.977705 +0100,
vertical.xlsx,The target is tilted.,135,5,5,0,0,1,1,1,1,1,1,1,0,0,0,0,1,7,8,135,space,5.063694299999952,None,0,1,1.977084599999671,None,,,,0,1,1,1,0,5,5,5,,,,,561.8105078000003,,,,,,,,,,,,,,,,,,,,,561.7953788,561.8105078000003,562.3158996000002,562.2943859000002,562.2997307999999,562.3158996000002,564.2943625000003,0,1,1.977084599999671,None,564.2945986,564.3097096000001,564.5096576000001,564.4936631,,,,,,,,,,,,,,,,,,, 850,22,M,R,2026-02-23_11h44.26.720,VisualSearch_2526_3,,2025.2.4,2026-02-23 11h44.26.977705 +0100,
vertical.xlsx,The target is tilted.,135,6,6,0,1,1,1,1,1,1,1,1,1,1,1,1,0,11,12,135,space,5.063694299999952,None,1,1,1.300712200000362,None,,,,0,1,1,1,0,6,6,0,,,,,564.5096576000001,,,,,,,,,,,,,,,,,,,,,564.4944098000001,564.5096576000001,565.0184684999999,564.9936096000001,564.9989583000001,565.0184684999999,566.3267408000002,1,1,1.300712200000362,None,566.3269494000001,566.3423942,566.5423430000001,566.5263759,,,,,,,,,,,,,,,,,,, 850,22,M,R,2026-02-23_11h44.26.720,VisualSearch_2526_3,,2025.2.4,2026-02-23 11h44.26.977705 +0100,
vertical.xlsx,The target is tilted.,135,7,7,0,1,1,1,1,1,1,1,1,0,0,0,0,0,7,8,135,space,5.063694299999952,None,1,1,1.0480579000000034,None,,,,0,1,1,1,0,7,7,1,,,,,566.5423430000001,,,,,,,,,,,,,,,,,,,,,566.5271938000001,566.5423430000001,567.0463256000003,567.0262461000002,567.0314737000003,567.0463256000003,568.1098179999999,1,1,1.0480579000000034,None,568.1100310000002,568.1251626000003,568.3248352,568.3087313000001,,,,,,,,,,,,,,,,,,, 850,22,M,R,2026-02-23_11h44.26.720,VisualSearch_2526_3,,2025.2.4,2026-02-23 11h44.26.977705 +0100,
vertical.xlsx,The target is tilted.,135,0,0,0,1,1,1,1,1,1,1,1,0,0,0,0,0,7,8,135,space,5.063694299999952,None,0,0,2.086992200000168,None,space,3.136356500000147,None,0,1,1,1,,,,,0,0,0,1,571.5103896,,,,,,,,,,,,,,,,,,,,,571.5057930000003,571.5103896,,571.9908347,571.9961421000003,572.0130291,574.1072339000002,,,,,574.1073805999999,574.1230445000001,574.3232268000002,574.3072367,568.3164463000003,568.3248352,568.3248352,571.4750960000001,space,3.136356500000147,None,0,0,2.086992200000168,None,,,,,,,, 850,22,M,R,2026-02-23_11h44.26.720,VisualSearch_2526_3,,2025.2.4,2026-02-23 11h44.26.977705 +0100,
vertical.xlsx,The target is tilted.,135,1,1,0,0,0,0,0,0,0,0,0,0,0,0,0,1,1,1,135,space,5.063694299999952,None,0,1,0.6957308000000921,None,space,3.136356500000147,None,0,1,1,1,,,,,0,1,1,7,574.3232268000002,,,,,,,,,,,,,,,,,,,,,574.3080340000001,574.3232268000002,574.8291214000001,574.8069880000003,574.8122538000002,574.8291214000001,575.5407391000003,,,,,575.5409628000002,575.5558573000003,575.7556879000003,575.7400911,,,,,,,,0,1,0.6957308000000921,None,,,,,,,, 850,22,M,R,2026-02-23_11h44.26.720,VisualSearch_2526_3,,2025.2.4,2026-02-23 11h44.26.977705 +0100,
vertical.xlsx,The target is tilted.,135,2,2,0,0,1,1,1,1,1,1,1,0,0,0,0,1,7,8,135,space,5.063694299999952,None,0,1,2.417689800000062,None,space,3.136356500000147,None,0,1,1,1,,,,,0,2,2,5,575.7556879000003,,,,,,,,,,,,,,,,,,,,,575.7408771,575.7556879000003,576.2657619000001,576.2399147000001,576.2451538,576.2657619000001,578.6890163000003,,,,,578.6891665000003,578.7047352,578.9051503000001,578.8890458000001,,,,,,,,0,1,2.417689800000062,None,,,,,,,, 850,22,M,R,2026-02-23_11h44.26.720,VisualSearch_2526_3,,2025.2.4,2026-02-23 11h44.26.977705 +0100,
vertical.xlsx,The target is tilted.,135,3,3,0,0,1,1,1,1,1,1,1,1,1,1,1,1,11,12,135,space,5.063694299999952,None,0,1,2.288352500000201,None,space,3.136356500000147,None,0,1,1,1,,,,,0,3,3,4,578.9051503000001,,,,,,,,,,,,,,,,,,,,,578.8898578000003,578.9051503000001,579.4089386,579.3889240000003,579.3941208000001,579.4089386,581.7050181,,,,,581.7052139000002,581.7205108000003,581.9206330000002,581.9047679,,,,,,,,0,1,2.288352500000201,None,,,,,,,, 850,22,M,R,2026-02-23_11h44.26.720,VisualSearch_2526_3,,2025.2.4,2026-02-23 11h44.26.977705 +0100,
vertical.xlsx,The target is tilted.,135,4,4,0,1,1,1,1,1,1,1,1,1,1,1,1,0,11,12,135,space,5.063694299999952,None,1,1,1.3282249999997475,None,space,3.136356500000147,None,0,1,1,1,,,,,0,4,4,0,581.9206330000002,,,,,,,,,,,,,,,,,,,,,581.9055820000003,581.9206330000002,582.4259612999999,582.4045555000002,582.4098604000001,582.4259612999999,583.7701387000002,,,,,583.7702411,583.7865716000001,583.9867957000001,583.9703506999999,,,,,,,,1,1,1.3282249999997475,None,,,,,,,, 850,22,M,R,2026-02-23_11h44.26.720,VisualSearch_2526_3,,2025.2.4,2026-02-23 11h44.26.977705 +0100,
vertical.xlsx,The target is tilted.,135,5,5,0,1,1,1,1,0,0,0,0,0,0,0,0,0,3,4,135,space,5.063694299999952,None,1,1,0.7381113999999798,None,space,3.136356500000147,None,0,1,1,1,,,,,0,5,5,2,583.9867957000001,,,,,,,,,,,,,,,,,,,,,583.9711514,583.9867957000001,584.4922045000003,584.4701440000003,584.4753682999999,584.4922045000003,585.2374017000002,,,,,585.2376576000001,585.2528262999999,585.4528757000003,585.4369030000003,,,,,,,,1,1,0.7381113999999798,None,,,,,,,, 850,22,M,R,2026-02-23_11h44.26.720,VisualSearch_2526_3,,2025.2.4,2026-02-23 11h44.26.977705 +0100,
vertical.xlsx,The target is tilted.,135,6,6,0,1,0,0,0,0,0,0,0,0,0,0,0,0,0,1,135,space,5.063694299999952,None,1,1,0.5761105000001407,None,space,3.136356500000147,None,0,1,1,1,,,,,0,6,6,3,585.4528757000003,,,,,,,,,,,,,,,,,,,,,585.4376893000003,585.4528757000003,585.9603663000003,585.9366476,585.9419526000001,585.9603663000003,586.5537960000001,,,,,586.5540458,586.5691593000001,586.7692501000001,586.7531002999999,,,,,,,,1,1,0.5761105000001407,None,,,,,,,, 850,22,M,R,2026-02-23_11h44.26.720,VisualSearch_2526_3,,2025.2.4,2026-02-23 11h44.26.977705 +0100,
vertical.xlsx,The target is tilted.,135,7,7,0,0,1,1,1,0,0,0,0,0,0,0,0,1,3,4,135,space,5.063694299999952,None,0,1,0.8395030000001498,None,space,3.136356500000147,None,0,1,1,1,,,,,0,7,7,6,586.7692501000001,,,,,,,,,,,,,,,,,,,,,586.7538950000003,586.7692501000001,587.2771535000002,587.2530134000003,587.2583583999999,587.2771535000002,588.1200991000001,,,,,588.1203217000002,588.1351398000002,588.3352597000003,588.3189662,,,,,,,,0,1,0.8395030000001498,None,,,,,,,, 850,22,M,R,2026-02-23_11h44.26.720,VisualSearch_2526_3,,2025.2.4,2026-02-23 11h44.26.977705 +0100,
vertical.xlsx,The target is tilted.,135,8,0,1,1,1,1,1,0,0,0,0,0,0,0,0,0,3,4,135,space,5.063694299999952,None,1,1,0.919925499999863,None,space,3.136356500000147,None,0,1,1,1,,,,,1,0,8,2,588.3352597000003,,,,,,,,,,,,,,,,,,,,,588.3197702000002,588.3352597000003,588.8350177000002,588.8188501,588.8229666000002,588.8350177000002,589.7694938,,,,,589.7697206000003,589.7845886,589.9844385000001,589.9689474000002,,,,,,,,1,1,0.919925499999863,None,,,,,,,, 850,22,M,R,2026-02-23_11h44.26.720,VisualSearch_2526_3,,2025.2.4,2026-02-23 11h44.26.977705 +0100,
vertical.xlsx,The target is tilted.,135,9,1,1,1,1,1,1,1,1,1,1,1,1,1,1,0,11,12,135,space,5.063694299999952,None,0,0,3.6878098000001955,None,space,3.136356500000147,None,0,1,1,1,,,,,1,1,9,0,589.9844385000001,,,,,,,,,,,,,,,,,,,,,589.9697472000003,589.9844385000001,590.4844533,590.4679094000003,590.4704220000003,590.4844533,594.1845106000001,,,,,594.1847360000002,594.1998836000002,594.3997497,594.3840583000001,,,,,,,,0,0,3.6878098000001955,None,,,,,,,, 850,22,M,R,2026-02-23_11h44.26.720,VisualSearch_2526_3,,2025.2.4,2026-02-23 11h44.26.977705 +0100,
vertical.xlsx,The target is tilted.,135,10,2,1,0,1,1,1,1,1,1,1,1,1,1,1,1,11,12,135,space,5.063694299999952,None,0,1,1.9288924000002226,None,space,3.136356500000147,None,0,1,1,1,,,,,1,2,10,4,594.3997497,,,,,,,,,,,,,,,,,,,,,594.3849070000001,594.3997497,594.9049609000003,594.8838196000002,594.8891213000002,594.9049609000003,596.8505150999999,,,,,596.8507367000002,596.8658319000001,597.0659285000002,597.0498268000001,,,,,,,,0,1,1.9288924000002226,None,,,,,,,, 850,22,M,R,2026-02-23_11h44.26.720,VisualSearch_2526_3,,2025.2.4,2026-02-23 11h44.26.977705 +0100,
vertical.xlsx,The target is tilted.,135,11,3,1,0,1,1,1,0,0,0,0,0,0,0,0,1,3,4,135,space,5.063694299999952,None,0,1,1.1987177000000884,None,space,3.136356500000147,None,0,1,1,1,,,,,1,3,11,6,597.0659285000002,,,,,,,,,,,,,,,,,,,,,597.0506039000002,597.0659285000002,597.5731000999999,597.5496473000003,597.5549103000003,597.5731000999999,598.7825593000002,,,,,598.7827047000001,598.7983578000003,598.9985276000002,598.9823355000003,,,,,,,,0,1,1.1987177000000884,None,,,,,,,, 850,22,M,R,2026-02-23_11h44.26.720,VisualSearch_2526_3,,2025.2.4,2026-02-23 11h44.26.977705 +0100,
vertical.xlsx,The target is tilted.,135,12,4,1,1,0,0,0,0,0,0,0,0,0,0,0,0,0,1,135,space,5.063694299999952,None,1,1,0.591888100000233,None,space,3.136356500000147,None,0,1,1,1,,,,,1,4,12,3,598.9985276000002,,,,,,,,,,,,,,,,,,,,,598.9831323000003,598.9985276000002,599.4981201999999,599.4824153,599.4871387000003,599.4981201999999,600.0989721000001,,,,,600.0991629,600.1147375999999,600.3148008000003,600.2988629000001,,,,,,,,1,1,0.591888100000233,None,,,,,,,, 850,22,M,R,2026-02-23_11h44.26.720,VisualSearch_2526_3,,2025.2.4,2026-02-23 11h44.26.977705 +0100,
vertical.xlsx,The target is tilted.,135,13,5,1,0,0,0,0,0,0,0,0,0,0,0,0,1,1,1,135,space,5.063694299999952,None,0,1,0.763682400000107,None,space,3.136356500000147,None,0,1,1,1,,,,,1,5,13,7,600.3148008000003,,,,,,,,,,,,,,,,,,,,,600.2996793000002,600.3148008000003,600.8215245000001,600.7985766000002,600.8037922000003,600.8215245000001,601.5987128000002,,,,,601.5989061,601.6143445000002,601.8143582000002,601.7979195000003,,,,,,,,0,1,0.763682400000107,None,,,,,,,, 850,22,M,R,2026-02-23_11h44.26.720,VisualSearch_2526_3,,2025.2.4,2026-02-23 11h44.26.977705 +0100,
vertical.xlsx,The target is tilted.,135,14,6,1,1,1,1,1,1,1,1,1,0,0,0,0,0,7,8,135,space,5.063694299999952,None,0,0,1.6029780999997456,None,space,3.136356500000147,None,0,1,1,1,,,,,1,6,14,1,601.8143582000002,,,,,,,,,,,,,,,,,,,,,601.7987316000003,601.8143582000002,602.3212638,602.2981386000001,602.3033684000002,602.3212638,603.9315247,,,,,603.9317450000003,603.9467124000003,604.1468615000003,604.1305201,,,,,,,,0,0,1.6029780999997456,None,,,,,,,, 850,22,M,R,2026-02-23_11h44.26.720,VisualSearch_2526_3,,2025.2.4,2026-02-23 11h44.26.977705 +0100,
vertical.xlsx,The target is tilted.,135,15,7,1,0,1,1,1,1,1,1,1,0,0,0,0,1,7,8,135,space,5.063694299999952,None,0,1,1.6251514999999017,None,space,3.136356500000147,None,0,1,1,1,,,,,1,7,15,5,604.1468615000003,,,,,,,,,,,,,,,,,,,,,604.1313471000003,604.1468615000003,604.6530737000003,604.630341,604.6356018000001,604.6530737000003,606.2807440000001,,,,,606.2809617000003,606.296092,606.4961241999999,606.4800967000001,,,,,,,,0,1,1.6251514999999017,None,,,,,,,, 850,22,M,R,2026-02-23_11h44.26.720,VisualSearch_2526_3,,2025.2.4,2026-02-23 11h44.26.977705 +0100,
vertical.xlsx,The target is tilted.,135,16,0,2,1,1,1,1,1,1,1,1,0,0,0,0,0,7,8,135,space,5.063694299999952,None,1,1,2.204210299999886,None,space,3.136356500000147,None,0,1,1,1,,,,,2,0,16,1,606.4961241999999,,,,,,,,,,,,,,,,,,,,,606.4809021000001,606.4961241999999,607.0027835000001,606.9795865000001,606.9854722,607.0027835000001,609.2124552,,,,,609.2126004000002,609.2283041000001,609.4283946999999,609.4124581000001,,,,,,,,1,1,2.204210299999886,None,,,,,,,, 850,22,M,R,2026-02-23_11h44.26.720,VisualSearch_2526_3,,2025.2.4,2026-02-23 11h44.26.977705 +0100,
vertical.xlsx,The target is tilted.,135,17,1,2,0,1,1,1,0,0,0,0,0,0,0,0,1,3,4,135,space,5.063694299999952,None,0,1,0.9687573000001066,None,space,3.136356500000147,None,0,1,1,1,,,,,2,1,17,6,609.4283946999999,,,,,,,,,,,,,,,,,,,,,609.413258,609.4283946999999,609.9353446,609.9125194000003,609.9181167000002,609.9353446,610.9124256,,,,,610.9126774000001,610.9277658999999,611.1279789,611.1117453000002,,,,,,,,0,1,0.9687573000001066,None,,,,,,,, 850,22,M,R,2026-02-23_11h44.26.720,VisualSearch_2526_3,,2025.2.4,2026-02-23 11h44.26.977705 +0100,
vertical.xlsx,The target is tilted.,135,18,2,2,0,1,1,1,1,1,1,1,0,0,0,0,1,7,8,135,space,5.063694299999952,None,0,1,1.7808851999998296,None,space,3.136356500000147,None,0,1,1,1,,,,,2,2,18,5,611.1279789,,,,,,,,,,,,,,,,,,,,,611.1125314999999,611.1279789,611.6376202000001,611.6117399,611.6171082999999,611.6376202000001,613.4277322000003,,,,,613.4278892000002,613.4434604000003,613.6437780000001,613.6278109,,,,,,,,0,1,1.7808851999998296,None,,,,,,,, 850,22,M,R,2026-02-23_11h44.26.720,VisualSearch_2526_3,,2025.2.4,2026-02-23 11h44.26.977705 +0100,
vertical.xlsx,The target is tilted.,135,19,3,2,0,0,0,0,0,0,0,0,0,0,0,0,1,1,1,135,space,5.063694299999952,None,0,1,0.6258465000000797,None,space,3.136356500000147,None,0,1,1,1,,,,,2,3,19,7,613.6437780000001,,,,,,,,,,,,,,,,,,,,,613.6286474000003,613.6437780000001,614.1491676999999,614.1275962,614.1328684,614.1491676999999,614.7774360000003,,,,,614.7776333000002,614.7932632000002,614.9933995000001,614.9773551000003,,,,,,,,0,1,0.6258465000000797,None,,,,,,,, 850,22,M,R,2026-02-23_11h44.26.720,VisualSearch_2526_3,,2025.2.4,2026-02-23 11h44.26.977705 +0100,
vertical.xlsx,The target is tilted.,135,20,4,2,1,0,0,0,0,0,0,0,0,0,0,0,0,0,1,135,space,5.063694299999952,None,1,1,0.6553232999999636,None,space,3.136356500000147,None,0,1,1,1,,,,,2,4,20,3,614.9933995000001,,,,,,,,,,,,,,,,,,,,,614.9781886999999,614.9933995000001,615.4988036,615.4772187000003,615.4825943999999,615.4988036,616.1605687000001,,,,,616.1607609000002,616.1761017000003,616.3762529999999,616.3603005,,,,,,,,1,1,0.6553232999999636,None,,,,,,,, 850,22,M,R,2026-02-23_11h44.26.720,VisualSearch_2526_3,,2025.2.4,2026-02-23 11h44.26.977705 +0100,
vertical.xlsx,The target is tilted.,135,21,5,2,0,1,1,1,1,1,1,1,1,1,1,1,1,11,12,135,space,5.063694299999952,None,0,1,3.044260199999826,None,space,3.136356500000147,None,0,1,1,1,,,,,2,5,21,4,616.3762529999999,,,,,,,,,,,,,,,,,,,,,616.3611524000003,616.3762529999999,616.8831187999999,616.8601133000002,616.8655607000001,616.8831187999999,619.9423489000001,,,,,619.9425103000003,619.9582631000003,620.1583629000002,620.1423598000001,,,,,,,,0,1,3.044260199999826,None,,,,,,,, 850,22,M,R,2026-02-23_11h44.26.720,VisualSearch_2526_3,,2025.2.4,2026-02-23 11h44.26.977705 +0100,
vertical.xlsx,The target is tilted.,135,22,6,2,1,1,1,1,0,0,0,0,0,0,0,0,0,3,4,135,space,5.063694299999952,None,1,1,0.7254425999999512,None,space,3.136356500000147,None,0,1,1,1,,,,,2,6,22,2,620.1583629000002,,,,,,,,,,,,,,,,,,,,,620.1432145000003,620.1583629000002,620.6641224,620.6430469000002,620.6483403000002,620.6641224,621.3923211000001,,,,,621.3925589,621.4075993000001,621.6078248000003,621.5918079000003,,,,,,,,1,1,0.7254425999999512,None,,,,,,,, 850,22,M,R,2026-02-23_11h44.26.720,VisualSearch_2526_3,,2025.2.4,2026-02-23 11h44.26.977705 +0100,
vertical.xlsx,The target is tilted.,135,23,7,2,1,1,1,1,1,1,1,1,1,1,1,1,0,11,12,135,space,5.063694299999952,None,1,1,1.216824899999665,None,space,3.136356500000147,None,0,1,1,1,,,,,2,7,23,0,621.6078248000003,,,,,,,,,,,,,,,,,,,,,621.5926050000003,621.6078248000003,622.1125445000002,622.0916361,622.0970167,622.1125445000002,623.3410480000002,,,,,623.3412208,623.3571716000001,623.5572506000003,623.5410302,,,,,,,,1,1,1.216824899999665,None,,,,,,,, 850,22,M,R,2026-02-23_11h44.26.720,VisualSearch_2526_3,,2025.2.4,2026-02-23 11h44.26.977705 +0100,
vertical.xlsx,The target is tilted.,135,24,0,3,1,1,1,1,0,0,0,0,0,0,0,0,0,3,4,135,space,5.063694299999952,None,1,1,1.1340034999998352,None,space,3.136356500000147,None,0,1,1,1,,,,,3,0,24,2,623.5572506000003,,,,,,,,,,,,,,,,,,,,,623.5418219000003,623.5572506000003,624.062414,624.0407101000001,624.0459540000002,624.062414,625.2079779000001,,,,,625.2081996000002,625.2232458000003,625.4231916000003,625.4073225000002,,,,,,,,1,1,1.1340034999998352,None,,,,,,,, 850,22,M,R,2026-02-23_11h44.26.720,VisualSearch_2526_3,,2025.2.4,2026-02-23 11h44.26.977705 +0100,
vertical.xlsx,The target is tilted.,135,25,1,3,1,0,0,0,0,0,0,0,0,0,0,0,0,0,1,135,space,5.063694299999952,None,1,1,0.5724267999999029,None,space,3.136356500000147,None,0,1,1,1,,,,,3,1,25,3,625.4231916000003,,,,,,,,,,,,,,,,,,,,,625.4081547999999,625.4231916000003,625.9307704000003,625.9071285,625.9123494,625.9307704000003,626.5070335,,,,,626.5072265000003,626.5228248000003,626.7228423000001,626.7069237999999,,,,,,,,1,1,0.5724267999999029,None,,,,,,,, 850,22,M,R,2026-02-23_11h44.26.720,VisualSearch_2526_3,,2025.2.4,2026-02-23 11h44.26.977705 +0100,
vertical.xlsx,The target is tilted.,135,26,2,3,1,1,1,1,1,1,1,1,1,1,1,1,0,11,12,135,space,5.063694299999952,None,1,1,2.735613999999714,None,space,3.136356500000147,None,0,1,1,1,,,,,3,2,26,0,626.7228423000001,,,,,,,,,,,,,,,,,,,,,626.7077332000003,626.7228423000001,627.2295435999999,627.2066932000002,627.2119537000003,627.2295435999999,629.9723560000002,,,,,629.9725174,629.9883654,630.1881425000001,630.171421,,,,,,,,1,1,2.735613999999714,None,,,,,,,, 850,22,M,R,2026-02-23_11h44.26.720,VisualSearch_2526_3,,2025.2.4,2026-02-23 11h44.26.977705 +0100,
vertical.xlsx,The target is tilted.,135,27,3,3,0,1,1,1,1,1,1,1,0,0,0,0,1,7,8,135,space,5.063694299999952,None,0,1,2.620425999999952,None,space,3.136356500000147,None,0,1,1,1,,,,,3,3,27,5,630.1881425000001,,,,,,,,,,,,,,,,,,,,,630.1718281000003,630.1881425000001,630.6946276000003,630.672024,630.677267,630.6946276000003,633.3219377,,,,,633.3221920999999,633.3369332000002,633.5370501000002,633.5209666000001,,,,,,,,0,1,2.620425999999952,None,,,,,,,, 850,22,M,R,2026-02-23_11h44.26.720,VisualSearch_2526_3,,2025.2.4,2026-02-23 11h44.26.977705 +0100,
vertical.xlsx,The target is tilted.,135,28,4,3,0,1,1,1,1,1,1,1,1,1,1,1,1,11,12,135,space,5.063694299999952,None,0,1,2.829932799999824,None,space,3.136356500000147,None,0,1,1,1,,,,,3,4,28,4,633.5370501000002,,,,,,,,,,,,,,,,,,,,,633.5218178,633.5370501000002,634.0436948000001,634.0209832,634.026245,634.0436948000001,636.8875903000003,,,,,636.8878085000001,636.9026294,637.1028576000003,637.0867851000003,,,,,,,,0,1,2.829932799999824,None,,,,,,,, 850,22,M,R,2026-02-23_11h44.26.720,VisualSearch_2526_3,,2025.2.4,2026-02-23 11h44.26.977705 +0100,
vertical.xlsx,The target is tilted.,135,29,5,3,0,1,1,1,0,0,0,0,0,0,0,0,1,3,4,135,space,5.063694299999952,None,0,1,1.1176283000004332,None,space,3.136356500000147,None,0,1,1,1,,,,,3,5,29,6,637.1028576000003,,,,,,,,,,,,,,,,,,,,,637.0876994,637.1028576000003,637.6080549000003,637.5866912000001,637.5918984,637.6080549000003,638.7370359000001,,,,,638.7372719,638.7521397,638.9522643,638.9361859,,,,,,,,0,1,1.1176283000004332,None,,,,,,,, 850,22,M,R,2026-02-23_11h44.26.720,VisualSearch_2526_3,,2025.2.4,2026-02-23 11h44.26.977705 +0100,
vertical.xlsx,The target is tilted.,135,30,6,3,0,0,0,0,0,0,0,0,0,0,0,0,1,1,1,135,space,5.063694299999952,None,0,1,0.7238351000000876,None,space,3.136356500000147,None,0,1,1,1,,,,,3,6,30,7,638.9522643,,,,,,,,,,,,,,,,,,,,,638.9369755000002,638.9522643,639.4564478000002,639.4357161000003,639.4409546000002,639.4564478000002,640.1862051000003,,,,,640.1863998000003,640.2014131999999,640.4017943000003,640.3856817999999,,,,,,,,0,1,0.7238351000000876,None,,,,,,,, 850,22,M,R,2026-02-23_11h44.26.720,VisualSearch_2526_3,,2025.2.4,2026-02-23 11h44.26.977705 +0100,
vertical.xlsx,The target is tilted.,135,31,7,3,1,1,1,1,1,1,1,1,0,0,0,0,0,7,8,135,space,5.063694299999952,None,1,1,1.6062589999996817,None,space,3.136356500000147,None,0,1,1,1,,,,,3,7,31,1,640.4017943000003,,,,,,,,,,,,,,,,,,,,,640.3864739,640.4017943000003,640.9084819,640.8856653000003,640.8909364000001,640.9084819,642.5180474000003,,,,,642.5182047000003,642.5342988000002,642.7343638000002,642.7179833,,,,,,,,1,1,1.6062589999996817,None,,,,,,,, 850,22,M,R,2026-02-23_11h44.26.720,VisualSearch_2526_3,,2025.2.4,2026-02-23 11h44.26.977705 +0100,
vertical.xlsx,The target is tilted.,135,32,0,4,0,0,0,0,0,0,0,0,0,0,0,0,1,1,1,135,space,5.063694299999952,None,0,1,0.9366915000000517,None,space,3.136356500000147,None,0,1,1,1,,,,,4,0,32,7,642.7343638000002,,,,,,,,,,,,,,,,,,,,,642.7187845000003,642.7343638000002,643.2339622,643.2180653,643.2226300000002,643.2339622,644.1848536000002,,,,,644.1850468000002,644.2004688000002,644.4003422000001,644.3843452000001,,,,,,,,0,1,0.9366915000000517,None,,,,,,,, 850,22,M,R,2026-02-23_11h44.26.720,VisualSearch_2526_3,,2025.2.4,2026-02-23 11h44.26.977705 +0100,
vertical.xlsx,The target is tilted.,135,33,1,4,0,1,1,1,1,1,1,1,1,1,1,1,1,11,12,135,space,5.063694299999952,None,0,1,5.138540099999773,None,space,3.136356500000147,None,0,1,1,1,,,,,4,1,33,4,644.4003422000001,,,,,,,,,,,,,,,,,,,,,644.3851478000001,644.4003422000001,644.9059794,644.8842011000002,644.8895126000002,644.9059794,650.0492404000001,,,,,650.0493890000002,650.0651726000001,650.2653407000003,650.2492221000002,,,,,,,,0,1,5.138540099999773,None,,,,,,,, 850,22,M,R,2026-02-23_11h44.26.720,VisualSearch_2526_3,,2025.2.4,2026-02-23 11h44.26.977705 +0100,
vertical.xlsx,The target is tilted.,135,34,2,4,0,1,1,1,0,0,0,0,0,0,0,0,1,3,4,135,space,5.063694299999952,None,0,1,1.3890600999998242,None,space,3.136356500000147,None,0,1,1,1,,,,,4,2,34,6,650.2653407000003,,,,,,,,,,,,,,,,,,,,,650.2500763000003,650.2653407000003,650.7764343000003,650.7490835000003,650.7562351000001,650.7764343000003,652.1821734,,,,,652.1823666,652.1976327000002,652.3979116,652.3816577000002,,,,,,,,0,1,1.3890600999998242,None,,,,,,,, 850,22,M,R,2026-02-23_11h44.26.720,VisualSearch_2526_3,,2025.2.4,2026-02-23 11h44.26.977705 +0100,
vertical.xlsx,The target is tilted.,135,35,3,4,0,1,1,1,1,1,1,1,0,0,0,0,1,7,8,135,space,5.063694299999952,None,0,1,1.961019800000031,None,space,3.136356500000147,None,0,1,1,1,,,,,4,3,35,5,652.3979116,,,,,,,,,,,,,,,,,,,,,652.3827780000001,652.3979116,652.8974965000002,652.8812817000003,652.8859894000002,652.8974965000002,654.8649642,,,,,654.8652275,654.8801062000002,655.0803553000001,655.0642661000002,,,,,,,,0,1,1.961019800000031,None,,,,,,,, 850,22,M,R,2026-02-23_11h44.26.720,VisualSearch_2526_3,,2025.2.4,2026-02-23 11h44.26.977705 +0100,
vertical.xlsx,The target is tilted.,135,36,4,4,1,1,1,1,0,0,0,0,0,0,0,0,0,3,4,135,space,5.063694299999952,None,1,1,0.8107543000000987,None,space,3.136356500000147,None,0,1,1,1,,,,,4,4,36,2,655.0803553000001,,,,,,,,,,,,,,,,,,,,,655.0650476999999,655.0803553000001,655.5882160000001,655.5641387999999,655.5694535000002,655.5882160000001,656.4144415000001,,,,,656.4146965,656.4294580000001,656.6295950000003,656.6136481000003,,,,,,,,1,1,0.8107543000000987,None,,,,,,,, 850,22,M,R,2026-02-23_11h44.26.720,VisualSearch_2526_3,,2025.2.4,2026-02-23 11h44.26.977705 +0100,
