file_name,block_instructions,target_example,thisN,thisTrialN,thisRepN,target_presence,opacity_1,opacity_2,opacity_3,opacity_4,opacity_5,opacity_6,opacity_7,opacity_8,opacity_9,opacity_10,opacity_11,opacity_12,n_distract,n_items,target_ori,key_resp_4.keys,key_resp_4.rt,key_resp_4.duration,key_resp.keys,key_resp.corr,key_resp.rt,key_resp.duration,key_resp_5.keys,key_resp_5.rt,key_resp_5.duration,blocks.thisRepN,blocks.thisTrialN,blocks.thisN,blocks.thisIndex,practice_trials.thisRepN,practice_trials.thisTrialN,practice_trials.thisN,practice_trials.thisIndex,trials.thisRepN,trials.thisTrialN,trials.thisN,trials.thisIndex,thisRow.t,notes,Welcome.started,WelcomeText.started,key_resp_2.started,Welcome.stopped,key_resp_2.keys,key_resp_2.rt,key_resp_2.duration,InformedConsent.started,text_4.started,InformedConsent.stopped,key_resp_6.keys,key_resp_6.rt,key_resp_6.duration,key_resp_4.started,example_target.started,text_3.started,blocks.key_resp_4.keys,blocks.key_resp_4.rt,blocks.key_resp_4.duration,FixCross.started,fixCross.started,FixCross.stopped,Stimulus.started,key_resp.started,Stimulus.stopped,practice_trials.key_resp.keys,practice_trials.key_resp.corr,practice_trials.key_resp.rt,practice_trials.key_resp.duration,BlankScreen.started,text.started,text.stopped,BlankScreen.stopped,fixCross.stopped,ExperimentStart.started,text_2.started,key_resp_5.started,ExperimentStart.stopped,blocks.key_resp_5.keys,blocks.key_resp_5.rt,blocks.key_resp_5.duration,trials.key_resp.keys,trials.key_resp.corr,trials.key_resp.rt,trials.key_resp.duration,Thanks.started,ThankYou.started,key_resp_3.started,Thanks.stopped,key_resp_3.keys,key_resp_3.rt,key_resp_3.duration,participant,leeftijd,gender,links/rechtshandig,date,expName,expVersion,psychopyVersion,expStart,
,,,,,,,,,,,,,,,,,,,,,,,,,,,,,,,,,,,,,,,,,,,,,,0.026099799999883544,0.05604510000011942,0.05604510000011942,43.37877709999975,space,43.29163410000001,None,,,,,,,,,,,,,,,,,,,,,,,,,,,,,,,,,,,,,,,,,,,,,,851,21,M,R,2026-02-23_12h01.07.067,VisualSearch_2526_3,,2025.2.4,2026-02-23 12h01.07.302504 +0100,
,,,,,,,,,,,,,,,,,,,,,,,,,,,,,,,,,,,,,,,,,,,,,,,,,,,,,43.37895200000003,43.38691400000016,59.00563349999993,y,15.620548800000051,None,,,,,,,,,,,,,,,,,,,,,,,,,,,,,,,,,,,,,,,,851,21,M,R,2026-02-23_12h01.07.067,VisualSearch_2526_3,,2025.2.4,2026-02-23 12h01.07.302504 +0100,
tilted.xlsx,The target is tilted.,117,0,0,0,1,0,0,0,0,0,0,0,0,0,0,0,0,0,1,117,space,11.782150600000023,None,1,1,0.5467949999997472,None,,,,0,0,0,0,0,0,0,3,,,,,70.85447380000005,,,,,,,,,,,,,,,59.0362497000001,59.0362497000001,59.0362497000001,space,11.782150600000023,None,70.84984729999996,70.85447380000005,71.35108649999984,71.35678770000004,71.37273419999974,71.93473319999976,1,1,0.5467949999997472,None,71.93490759999986,71.95049489999974,72.1505204,72.13402300000007,,,,,,,,,,,,,,,,,,,,851,21,M,R,2026-02-23_12h01.07.067,VisualSearch_2526_3,,2025.2.4,2026-02-23 12h01.07.302504 +0100,
tilted.xlsx,The target is tilted.,117,1,1,0,0,1,1,1,1,1,1,1,0,0,0,0,1,7,8,117,space,11.782150600000023,None,0,1,2.8464327000001504,None,,,,0,0,0,0,0,1,1,5,,,,,72.1505204,,,,,,,,,,,,,,,,,,,,,72.13475740000013,72.1505204,72.6341825999998,72.63937299999998,72.65010979999988,75.5003213,0,1,2.8464327000001504,None,75.50055259999999,75.51573370000006,75.71604769999976,75.6999452,72.65010979999988,,,,,,,,,,,,,,,,,,,851,21,M,R,2026-02-23_12h01.07.067,VisualSearch_2526_3,,2025.2.4,2026-02-23 12h01.07.302504 +0100,
tilted.xlsx,The target is tilted.,117,2,2,0,1,1,1,1,1,1,1,1,0,0,0,0,0,7,8,117,space,11.782150600000023,None,1,1,0.9257677999999032,None,,,,0,0,0,0,0,2,2,1,,,,,75.71604769999976,,,,,,,,,,,,,,,,,,,,,75.70066670000006,75.71604769999976,76.19964570000002,76.20516390000012,76.21911869999985,77.14949200000001,1,1,0.9257677999999032,None,77.14966060000006,77.1649610999998,77.36552630000006,77.34943810000004,76.21911869999985,,,,,,,,,,,,,,,,,,,851,21,M,R,2026-02-23_12h01.07.067,VisualSearch_2526_3,,2025.2.4,2026-02-23 12h01.07.302504 +0100,
tilted.xlsx,The target is tilted.,117,3,3,0,0,1,1,1,1,1,1,1,1,1,1,1,1,11,12,117,space,11.782150600000023,None,0,1,3.8003223999999136,None,,,,0,0,0,0,0,3,3,4,,,,,77.36552630000006,,,,,,,,,,,,,,,,,,,,,77.35017160000007,77.36552630000006,77.8493352999999,77.8549850999998,77.86774999999989,81.6807472999999,0,1,3.8003223999999136,None,81.68088039999975,81.69687149999982,81.89734439999984,81.8808611999998,77.86774999999989,,,,,,,,,,,,,,,,,,,851,21,M,R,2026-02-23_12h01.07.067,VisualSearch_2526_3,,2025.2.4,2026-02-23 12h01.07.302504 +0100,
tilted.xlsx,The target is tilted.,117,4,4,0,0,0,0,0,0,0,0,0,0,0,0,0,1,1,1,117,space,11.782150600000023,None,0,1,0.8787139000000934,None,,,,0,0,0,0,0,4,4,7,,,,,81.89734439999984,,,,,,,,,,,,,,,,,,,,,81.88160759999982,81.89734439999984,82.38114599999972,82.38661679999996,82.40288800000008,83.29697459999988,0,1,0.8787139000000934,None,83.29711799999995,83.31292459999986,83.51337030000013,83.49737419999974,82.40288800000008,,,,,,,,,,,,,,,,,,,851,21,M,R,2026-02-23_12h01.07.067,VisualSearch_2526_3,,2025.2.4,2026-02-23 12h01.07.302504 +0100,
tilted.xlsx,The target is tilted.,117,5,5,0,1,1,1,1,0,0,0,0,0,0,0,0,0,3,4,117,space,11.782150600000023,None,0,0,1.2227600999999595,None,,,,0,0,0,0,0,5,5,2,,,,,83.51337030000013,,,,,,,,,,,,,,,,,,,,,83.49811610000006,83.51337030000013,83.99724070000002,84.0029340000001,84.01884399999972,85.24670400000014,0,0,1.2227600999999595,None,85.24685950000003,85.2622381000001,85.46245219999992,85.44654450000007,84.01884399999972,,,,,,,,,,,,,,,,,,,851,21,M,R,2026-02-23_12h01.07.067,VisualSearch_2526_3,,2025.2.4,2026-02-23 12h01.07.302504 +0100,
tilted.xlsx,The target is tilted.,117,6,6,0,1,1,1,1,1,1,1,1,1,1,1,1,0,11,12,117,space,11.782150600000023,None,1,1,2.0786167999999634,None,,,,0,0,0,0,0,6,6,0,,,,,85.46245219999992,,,,,,,,,,,,,,,,,,,,,85.44731300000012,85.46245219999992,85.94663119999996,85.95223020000003,85.96841249999989,88.06265459999986,1,1,2.0786167999999634,None,88.06287119999979,88.07806750000009,88.27828210000007,88.26276189999999,85.96841249999989,,,,,,,,,,,,,,,,,,,851,21,M,R,2026-02-23_12h01.07.067,VisualSearch_2526_3,,2025.2.4,2026-02-23 12h01.07.302504 +0100,
tilted.xlsx,The target is tilted.,117,7,7,0,0,1,1,1,0,0,0,0,0,0,0,0,1,3,4,117,space,11.782150600000023,None,0,1,1.2438729000000421,None,,,,0,0,0,0,0,7,7,6,,,,,88.27828210000007,,,,,,,,,,,,,,,,,,,,,88.26349829999981,88.27828210000007,88.76243489999979,88.76810339999975,88.78226619999987,90.0294543,0,1,1.2438729000000421,None,90.02967209999997,90.04399710000007,90.24438839999993,90.22860300000002,88.78226619999987,,,,,,,,,,,,,,,,,,,851,21,M,R,2026-02-23_12h01.07.067,VisualSearch_2526_3,,2025.2.4,2026-02-23 12h01.07.302504 +0100,
tilted.xlsx,The target is tilted.,117,0,0,0,1,1,1,1,0,0,0,0,0,0,0,0,0,3,4,117,space,11.782150600000023,None,0,0,0.7788733999996111,None,space,2.8124072000000524,None,0,0,0,0,,,,,0,0,0,2,93.08699549999983,,,,,,,,,,,,,,,,,,,,,93.08316920000016,93.08699549999983,93.57707870000013,93.58270450000009,93.59841779999988,94.39303949999976,,,,,94.39316269999972,94.4097127,,94.59345899999971,,90.23651380000001,90.24438839999993,90.24438839999993,93.06097279999994,space,2.8124072000000524,None,0,0,0.7788733999996111,None,,,,,,,,851,21,M,R,2026-02-23_12h01.07.067,VisualSearch_2526_3,,2025.2.4,2026-02-23 12h01.07.302504 +0100,
tilted.xlsx,The target is tilted.,117,1,1,0,1,1,1,1,1,1,1,1,0,0,0,0,0,7,8,117,space,11.782150600000023,None,1,1,2.0805818000003455,None,space,2.8124072000000524,None,0,0,0,0,,,,,0,1,1,1,94.60980759999984,,,,,,,,,,,,,,,,,,,,,94.59436069999992,94.60980759999984,95.09304549999979,95.09521880000011,95.10943969999971,97.19342319999987,,,,,97.19366149999996,97.20833689999972,97.40900869999996,97.39240990000008,95.10943969999971,,,,,,,,1,1,2.0805818000003455,None,,,,,,,,851,21,M,R,2026-02-23_12h01.07.067,VisualSearch_2526_3,,2025.2.4,2026-02-23 12h01.07.302504 +0100,
tilted.xlsx,The target is tilted.,117,2,2,0,1,0,0,0,0,0,0,0,0,0,0,0,0,0,1,117,space,11.782150600000023,None,0,0,0.8094395999996777,None,space,2.8124072000000524,None,0,0,0,0,,,,,0,2,2,3,97.40900869999996,,,,,,,,,,,,,,,,,,,,,97.39323839999997,97.40900869999996,97.89250420000008,97.89806210000006,97.91093349999983,98.7260240999999,,,,,98.72622150000007,98.74132509999981,98.94174220000014,98.92569159999994,97.91093349999983,,,,,,,,0,0,0.8094395999996777,None,,,,,,,,851,21,M,R,2026-02-23_12h01.07.067,VisualSearch_2526_3,,2025.2.4,2026-02-23 12h01.07.302504 +0100,
tilted.xlsx,The target is tilted.,117,3,3,0,0,1,1,1,1,1,1,1,0,0,0,0,1,7,8,117,space,11.782150600000023,None,1,0,1.295426199999838,None,space,2.8124072000000524,None,0,0,0,0,,,,,0,3,3,5,98.94174220000014,,,,,,,,,,,,,,,,,,,,,98.92657830000007,98.94174220000014,99.42539469999974,99.43087449999985,99.44755039999973,100.75759299999982,,,,,100.75768549999975,100.77413070000011,,100.95808429999988,99.44755039999973,,,,,,,,1,0,1.295426199999838,None,,,,,,,,851,21,M,R,2026-02-23_12h01.07.067,VisualSearch_2526_3,,2025.2.4,2026-02-23 12h01.07.302504 +0100,
tilted.xlsx,The target is tilted.,117,4,4,0,0,1,1,1,0,0,0,0,0,0,0,0,1,3,4,117,space,11.782150600000023,None,0,1,0.9715792000001784,None,space,2.8124072000000524,None,0,0,0,0,,,,,0,4,4,6,100.9743939,,,,,,,,,,,,,,,,,,,,,100.95897419999983,100.9743939,101.45791250000002,101.46363190000011,101.47702799999979,102.45755239999971,,,,,102.4576621000001,102.47325379999984,102.6735377,102.65745669999978,,,,,,,,,0,1,0.9715792000001784,None,,,,,,,,851,21,M,R,2026-02-23_12h01.07.067,VisualSearch_2526_3,,2025.2.4,2026-02-23 12h01.07.302504 +0100,
tilted.xlsx,The target is tilted.,117,5,5,0,0,0,0,0,0,0,0,0,0,0,0,0,1,1,1,117,space,11.782150600000023,None,0,1,0.6816459000001487,None,space,2.8124072000000524,None,0,0,0,0,,,,,0,5,5,7,102.6735377,,,,,,,,,,,,,,,,,,,,,102.65830460000006,102.6735377,103.15774439999996,103.1641580999999,103.17958379999982,103.87459349999972,,,,,103.87483359999987,103.88972349999995,104.08953299999985,104.07404110000016,103.17958379999982,,,,,,,,0,1,0.6816459000001487,None,,,,,,,,851,21,M,R,2026-02-23_12h01.07.067,VisualSearch_2526_3,,2025.2.4,2026-02-23 12h01.07.302504 +0100,
tilted.xlsx,The target is tilted.,117,6,6,0,1,1,1,1,1,1,1,1,1,1,1,1,0,11,12,117,space,11.782150600000023,None,0,0,2.0935872000000018,None,space,2.8124072000000524,None,0,0,0,0,,,,,0,6,6,0,104.08953299999985,,,,,,,,,,,,,,,,,,,,,104.07486779999999,104.08953299999985,104.57383149999987,104.57949400000007,104.5929258000001,106.68938329999992,,,,,106.68948390000014,106.70506709999972,106.90587199999982,106.88970759999984,104.5929258000001,,,,,,,,0,0,2.0935872000000018,None,,,,,,,,851,21,M,R,2026-02-23_12h01.07.067,VisualSearch_2526_3,,2025.2.4,2026-02-23 12h01.07.302504 +0100,
tilted.xlsx,The target is tilted.,117,7,7,0,0,1,1,1,1,1,1,1,1,1,1,1,1,11,12,117,space,11.782150600000023,None,1,0,2.924083299999893,None,space,2.8124072000000524,None,0,0,0,0,,,,,0,7,7,4,106.90587199999982,,,,,,,,,,,,,,,,,,,,,106.8905334000001,106.90587199999982,107.3896122000001,107.3951462,107.4082441999999,110.33900700000004,,,,,110.33918949999997,110.35428869999987,110.55465559999993,110.53870370000004,107.4082441999999,,,,,,,,1,0,2.924083299999893,None,,,,,,,,851,21,M,R,2026-02-23_12h01.07.067,VisualSearch_2526_3,,2025.2.4,2026-02-23 12h01.07.302504 +0100,
tilted.xlsx,The target is tilted.,117,8,0,1,1,0,0,0,0,0,0,0,0,0,0,0,0,0,1,117,space,11.782150600000023,None,0,0,0.6265848000002734,None,space,2.8124072000000524,None,0,0,0,0,,,,,1,0,8,3,110.55465559999993,,,,,,,,,,,,,,,,,,,,,110.53953420000016,110.55465559999993,111.03847570000016,111.04391499999974,111.05615970000008,111.68813109999974,,,,,111.68833050000012,111.70376979999992,111.90402679999988,111.88832899999989,111.05615970000008,,,,,,,,0,0,0.6265848000002734,None,,,,,,,,851,21,M,R,2026-02-23_12h01.07.067,VisualSearch_2526_3,,2025.2.4,2026-02-23 12h01.07.302504 +0100,
tilted.xlsx,The target is tilted.,117,9,1,1,0,1,1,1,0,0,0,0,0,0,0,0,1,3,4,117,space,11.782150600000023,None,0,1,1.2635259999997288,None,space,2.8124072000000524,None,0,0,0,0,,,,,1,1,9,6,111.90402679999988,,,,,,,,,,,,,,,,,,,,,111.8894065999998,111.90402679999988,112.38812120000011,112.39391889999979,112.41042169999992,113.68702819999999,,,,,113.68716629999972,113.70305299999973,113.90347429999974,113.88749670000016,112.41042169999992,,,,,,,,0,1,1.2635259999997288,None,,,,,,,,851,21,M,R,2026-02-23_12h01.07.067,VisualSearch_2526_3,,2025.2.4,2026-02-23 12h01.07.302504 +0100,
tilted.xlsx,The target is tilted.,117,10,2,1,1,1,1,1,1,1,1,1,1,1,1,1,0,11,12,117,space,11.782150600000023,None,0,0,1.573201600000175,None,space,2.8124072000000524,None,0,0,0,0,,,,,1,2,10,0,113.90347429999974,,,,,,,,,,,,,,,,,,,,,113.88829609999993,113.90347429999974,114.38742469999988,114.3930206,114.40880909999987,115.98709789999975,,,,,115.98723560000008,116.00228909999987,116.2024206000001,116.18636119999974,114.40880909999987,,,,,,,,0,0,1.573201600000175,None,,,,,,,,851,21,M,R,2026-02-23_12h01.07.067,VisualSearch_2526_3,,2025.2.4,2026-02-23 12h01.07.302504 +0100,
tilted.xlsx,The target is tilted.,117,11,3,1,0,1,1,1,1,1,1,1,1,1,1,1,1,11,12,117,space,11.782150600000023,None,1,0,2.0074750999997377,None,space,2.8124072000000524,None,0,0,0,0,,,,,1,3,11,4,116.2024206000001,,,,,,,,,,,,,,,,,,,,,116.18717680000009,116.2024206000001,116.68653700000004,116.69203879999986,116.70570129999987,118.71930759999987,,,,,118.71945989999995,118.73474540000007,118.9352659000001,118.91925330000004,116.70570129999987,,,,,,,,1,0,2.0074750999997377,None,,,,,,,,851,21,M,R,2026-02-23_12h01.07.067,VisualSearch_2526_3,,2025.2.4,2026-02-23 12h01.07.302504 +0100,
tilted.xlsx,The target is tilted.,117,12,4,1,1,1,1,1,1,1,1,1,0,0,0,0,0,7,8,117,space,11.782150600000023,None,1,1,0.9349229999997988,None,space,2.8124072000000524,None,0,0,0,0,,,,,1,4,12,1,118.9352659000001,,,,,,,,,,,,,,,,,,,,,118.92018710000002,118.9352659000001,119.41909290000012,119.42474439999978,119.44100100000014,120.38536369999974,,,,,120.38556410000001,120.40101499999992,120.60129569999981,120.58531099999982,119.44100100000014,,,,,,,,1,1,0.9349229999997988,None,,,,,,,,851,21,M,R,2026-02-23_12h01.07.067,VisualSearch_2526_3,,2025.2.4,2026-02-23 12h01.07.302504 +0100,
tilted.xlsx,The target is tilted.,117,13,5,1,1,1,1,1,0,0,0,0,0,0,0,0,0,3,4,117,space,11.782150600000023,None,0,0,0.992457999999715,None,space,2.8124072000000524,None,0,0,0,0,,,,,1,5,13,2,120.60129569999981,,,,,,,,,,,,,,,,,,,,,120.58612540000013,120.60129569999981,121.08516250000002,121.09065229999987,121.10437809999985,122.10185779999983,,,,,122.10205760000008,122.11698999999999,122.31750520000014,122.30150019999974,121.10437809999985,,,,,,,,0,0,0.992457999999715,None,,,,,,,,851,21,M,R,2026-02-23_12h01.07.067,VisualSearch_2526_3,,2025.2.4,2026-02-23 12h01.07.302504 +0100,
tilted.xlsx,The target is tilted.,117,14,6,1,0,1,1,1,1,1,1,1,0,0,0,0,1,7,8,117,space,11.782150600000023,None,1,0,1.37205350000022,None,space,2.8124072000000524,None,0,0,0,0,,,,,1,6,14,5,122.31750520000014,,,,,,,,,,,,,,,,,,,,,122.30229989999998,122.31750520000014,122.80139899999995,122.80627229999982,122.81713059999993,124.20079329999999,,,,,124.20093289999977,124.21640979999984,124.4168725999998,124.40079349999996,122.81713059999993,,,,,,,,1,0,1.37205350000022,None,,,,,,,,851,21,M,R,2026-02-23_12h01.07.067,VisualSearch_2526_3,,2025.2.4,2026-02-23 12h01.07.302504 +0100,
tilted.xlsx,The target is tilted.,117,15,7,1,0,0,0,0,0,0,0,0,0,0,0,0,1,1,1,117,space,11.782150600000023,None,0,1,0.6437117999998918,None,space,2.8124072000000524,None,0,0,0,0,,,,,1,7,15,7,124.4168725999998,,,,,,,,,,,,,,,,,,,,,124.40165100000013,124.4168725999998,124.90025860000014,124.90575529999978,124.92033089999995,125.5668569999998,,,,,125.56699059999983,125.58250649999991,125.78307559999985,125.76704399999971,124.92033089999995,,,,,,,,0,1,0.6437117999998918,None,,,,,,,,851,21,M,R,2026-02-23_12h01.07.067,VisualSearch_2526_3,,2025.2.4,2026-02-23 12h01.07.302504 +0100,
tilted.xlsx,The target is tilted.,117,16,0,2,1,1,1,1,0,0,0,0,0,0,0,0,0,3,4,117,space,11.782150600000023,None,0,0,0.7849897000000965,None,space,2.8124072000000524,None,0,0,0,0,,,,,2,0,16,2,125.78307559999985,,,,,,,,,,,,,,,,,,,,,125.76787809999996,125.78307559999985,126.26685439999983,126.27160090000007,126.28264889999991,127.08264069999996,,,,,127.08277659999976,127.09864620000008,127.29927039999984,127.2829385,126.28264889999991,,,,,,,,0,0,0.7849897000000965,None,,,,,,,,851,21,M,R,2026-02-23_12h01.07.067,VisualSearch_2526_3,,2025.2.4,2026-02-23 12h01.07.302504 +0100,
tilted.xlsx,The target is tilted.,117,17,1,2,1,1,1,1,1,1,1,1,0,0,0,0,0,7,8,117,space,11.782150600000023,None,1,1,2.016138299999966,None,space,2.8124072000000524,None,0,0,0,0,,,,,2,1,17,1,127.29927039999984,,,,,,,,,,,,,,,,,,,,,127.28376470000012,127.29927039999984,127.7821755,127.78477590000011,127.7988105999998,129.83159799999976,,,,,129.83171439999978,129.84810719999996,,130.03196260000004,127.7988105999998,,,,,,,,1,1,2.016138299999966,None,,,,,,,,851,21,M,R,2026-02-23_12h01.07.067,VisualSearch_2526_3,,2025.2.4,2026-02-23 12h01.07.302504 +0100,
tilted.xlsx,The target is tilted.,117,18,2,2,0,1,1,1,1,1,1,1,1,1,1,1,1,11,12,117,space,11.782150600000023,None,1,0,2.2206645999999637,None,space,2.8124072000000524,None,0,0,0,0,,,,,2,2,18,4,130.0483094000001,,,,,,,,,,,,,,,,,,,,,130.03281259999994,130.0483094000001,130.5319946999998,130.53744210000013,130.5526593999998,132.78184819999979,,,,,132.78209620000007,132.79689689999987,132.99742250000008,132.98136739999973,130.5526593999998,,,,,,,,1,0,2.2206645999999637,None,,,,,,,,851,21,M,R,2026-02-23_12h01.07.067,VisualSearch_2526_3,,2025.2.4,2026-02-23 12h01.07.302504 +0100,
tilted.xlsx,The target is tilted.,117,19,3,2,1,1,1,1,1,1,1,1,1,1,1,1,0,11,12,117,space,11.782150600000023,None,0,0,2.6059728999998697,None,space,2.8124072000000524,None,0,0,0,0,,,,,2,3,19,0,132.99742250000008,,,,,,,,,,,,,,,,,,,,,132.98217780000004,132.99742250000008,133.4811569999997,133.48674630000005,133.50283459999991,136.1141345000001,,,,,136.11438109999972,136.12913960000014,136.32949539999981,136.31320079999978,133.50283459999991,,,,,,,,0,0,2.6059728999998697,None,,,,,,,,851,21,M,R,2026-02-23_12h01.07.067,VisualSearch_2526_3,,2025.2.4,2026-02-23 12h01.07.302504 +0100,
tilted.xlsx,The target is tilted.,117,20,4,2,0,1,1,1,1,1,1,1,0,0,0,0,1,7,8,117,space,11.782150600000023,None,0,1,2.7878919000004316,None,space,2.8124072000000524,None,0,0,0,0,,,,,2,4,20,5,136.32949539999981,,,,,,,,,,,,,,,,,,,,,136.31403640000008,136.32949539999981,136.81334019999986,136.8184329999999,136.82922210000015,139.62937939999983,,,,,139.6295626000001,139.6446049000001,139.8450926999999,139.8288134999998,136.82922210000015,,,,,,,,0,1,2.7878919000004316,None,,,,,,,,851,21,M,R,2026-02-23_12h01.07.067,VisualSearch_2526_3,,2025.2.4,2026-02-23 12h01.07.302504 +0100,
tilted.xlsx,The target is tilted.,117,21,5,2,0,1,1,1,0,0,0,0,0,0,0,0,1,3,4,117,space,11.782150600000023,None,0,1,1.6105105999999978,None,space,2.8124072000000524,None,0,0,0,0,,,,,2,5,21,6,139.8450926999999,,,,,,,,,,,,,,,,,,,,,139.82966380000016,139.8450926999999,140.32884749999994,140.33433539999987,140.34723959999974,141.96185209999976,,,,,141.9620531999999,141.97734159999982,142.17770239999982,142.1614765999998,140.34723959999974,,,,,,,,0,1,1.6105105999999978,None,,,,,,,,851,21,M,R,2026-02-23_12h01.07.067,VisualSearch_2526_3,,2025.2.4,2026-02-23 12h01.07.302504 +0100,
tilted.xlsx,The target is tilted.,117,22,6,2,1,0,0,0,0,0,0,0,0,0,0,0,0,0,1,117,space,11.782150600000023,None,0,0,0.6270752000000357,None,space,2.8124072000000524,None,0,0,0,0,,,,,2,6,22,3,142.17770239999982,,,,,,,,,,,,,,,,,,,,,142.16232390000005,142.17770239999982,142.66151309999987,142.66705120000006,142.68288859999984,143.31132849999995,,,,,143.31147120000014,143.3266921999998,143.52732860000015,143.51128500000004,142.68288859999984,,,,,,,,0,0,0.6270752000000357,None,,,,,,,,851,21,M,R,2026-02-23_12h01.07.067,VisualSearch_2526_3,,2025.2.4,2026-02-23 12h01.07.302504 +0100,
tilted.xlsx,The target is tilted.,117,23,7,2,0,0,0,0,0,0,0,0,0,0,0,0,1,1,1,117,space,11.782150600000023,None,0,1,0.595332999999755,None,space,2.8124072000000524,None,0,0,0,0,,,,,2,7,23,7,143.52732860000015,,,,,,,,,,,,,,,,,,,,,143.51207849999992,143.52732860000015,144.01107790000015,144.0165652999999,144.03265150000016,144.6437007999998,,,,,144.6438576999999,144.65974730000016,144.86022909999974,144.84401509999998,144.03265150000016,,,,,,,,0,1,0.595332999999755,None,,,,,,,,851,21,M,R,2026-02-23_12h01.07.067,VisualSearch_2526_3,,2025.2.4,2026-02-23 12h01.07.302504 +0100,
tilted.xlsx,The target is tilted.,117,24,0,3,0,1,1,1,1,1,1,1,0,0,0,0,1,7,8,117,space,11.782150600000023,None,0,1,2.0761044999999285,None,space,2.8124072000000524,None,0,0,0,0,,,,,3,0,24,5,144.86022909999974,,,,,,,,,,,,,,,,,,,,,144.84487549999994,144.86022909999974,145.3438099,145.34954620000008,145.36596929999996,147.44373529999984,,,,,147.44398219999994,147.45884269999988,147.6593039999998,147.64280659999986,145.36596929999996,,,,,,,,0,1,2.0761044999999285,None,,,,,,,,851,21,M,R,2026-02-23_12h01.07.067,VisualSearch_2526_3,,2025.2.4,2026-02-23 12h01.07.302504 +0100,
tilted.xlsx,The target is tilted.,117,25,1,3,1,1,1,1,1,1,1,1,1,1,1,1,0,11,12,117,space,11.782150600000023,None,1,1,2.636549599999853,None,space,2.8124072000000524,None,0,0,0,0,,,,,3,1,25,0,147.6593039999998,,,,,,,,,,,,,,,,,,,,,147.64366040000004,147.6593039999998,148.14266499999985,148.14826459999995,148.16461040000013,150.80921839999974,,,,,150.80940650000002,150.8241896999998,151.02493000000004,151.00886549999996,148.16461040000013,,,,,,,,1,1,2.636549599999853,None,,,,,,,,851,21,M,R,2026-02-23_12h01.07.067,VisualSearch_2526_3,,2025.2.4,2026-02-23 12h01.07.302504 +0100,
tilted.xlsx,The target is tilted.,117,26,2,3,0,0,0,0,0,0,0,0,0,0,0,0,1,1,1,117,space,11.782150600000023,None,0,1,0.6102348000003985,None,space,2.8124072000000524,None,0,0,0,0,,,,,3,2,26,7,151.02493000000004,,,,,,,,,,,,,,,,,,,,,151.009681,151.02493000000004,151.50853060000009,151.51394759999994,151.5325969999999,152.15850580000006,,,,,152.15873759999977,152.17396340000005,152.37439339999992,152.35838999999987,151.5325969999999,,,,,,,,0,1,0.6102348000003985,None,,,,,,,,851,21,M,R,2026-02-23_12h01.07.067,VisualSearch_2526_3,,2025.2.4,2026-02-23 12h01.07.302504 +0100,
tilted.xlsx,The target is tilted.,117,27,3,3,1,0,0,0,0,0,0,0,0,0,0,0,0,0,1,117,space,11.782150600000023,None,0,0,0.6163001999998414,None,space,2.8124072000000524,None,0,0,0,0,,,,,3,3,27,3,152.37439339999992,,,,,,,,,,,,,,,,,,,,,152.35923449999973,152.37439339999992,152.85805260000006,152.86360280000008,152.87939310000002,153.50737560000016,,,,,153.5075111000001,153.52351769999996,,153.7077251999999,152.87939310000002,,,,,,,,0,0,0.6163001999998414,None,,,,,,,,851,21,M,R,2026-02-23_12h01.07.067,VisualSearch_2526_3,,2025.2.4,2026-02-23 12h01.07.302504 +0100,
tilted.xlsx,The target is tilted.,117,28,4,3,0,1,1,1,1,1,1,1,1,1,1,1,1,11,12,117,space,11.782150600000023,None,0,1,4.762720600000193,None,space,2.8124072000000524,None,0,0,0,0,,,,,3,4,28,4,153.72401880000007,,,,,,,,,,,,,,,,,,,,,153.70864249999977,153.72401880000007,154.20778280000013,154.21333929999992,154.22732619999988,159.00593070000014,,,,,159.00613629999998,159.02165939999986,159.22193909999987,159.2058078,154.22732619999988,,,,,,,,0,1,4.762720600000193,None,,,,,,,,851,21,M,R,2026-02-23_12h01.07.067,VisualSearch_2526_3,,2025.2.4,2026-02-23 12h01.07.302504 +0100,
tilted.xlsx,The target is tilted.,117,29,5,3,1,1,1,1,1,1,1,1,0,0,0,0,0,7,8,117,space,11.782150600000023,None,1,1,1.0482194999999592,None,space,2.8124072000000524,None,0,0,0,0,,,,,3,5,29,1,159.22193909999987,,,,,,,,,,,,,,,,,,,,,159.20664179999994,159.22193909999987,159.70565609999994,159.71116470000015,159.72780969999985,160.7890938999999,,,,,160.78922909999983,160.80433240000002,161.00503849999996,160.98897439999973,159.72780969999985,,,,,,,,1,1,1.0482194999999592,None,,,,,,,,851,21,M,R,2026-02-23_12h01.07.067,VisualSearch_2526_3,,2025.2.4,2026-02-23 12h01.07.302504 +0100,
tilted.xlsx,The target is tilted.,117,30,6,3,0,1,1,1,0,0,0,0,0,0,0,0,1,3,4,117,space,11.782150600000023,None,0,1,1.5213337000000138,None,space,2.8124072000000524,None,0,0,0,0,,,,,3,6,30,6,161.00503849999996,,,,,,,,,,,,,,,,,,,,,160.98981249999997,161.00503849999996,161.48891460000004,161.49448170000005,161.50847449999992,163.03870289999986,,,,,163.03892749999977,163.0537602999998,163.25393540000005,163.2371232999999,161.50847449999992,,,,,,,,0,1,1.5213337000000138,None,,,,,,,,851,21,M,R,2026-02-23_12h01.07.067,VisualSearch_2526_3,,2025.2.4,2026-02-23 12h01.07.302504 +0100,
tilted.xlsx,The target is tilted.,117,31,7,3,1,1,1,1,0,0,0,0,0,0,0,0,0,3,4,117,space,11.782150600000023,None,0,0,1.0855867999998736,None,space,2.8124072000000524,None,0,0,0,0,,,,,3,7,31,2,163.25393540000005,,,,,,,,,,,,,,,,,,,,,163.2375050999999,163.25393540000005,163.73805119999997,163.7436828,163.7587552,164.8542739999998,,,,,164.85443929999974,164.8697016000001,165.07037260000016,165.05422259999978,163.7587552,,,,,,,,0,0,1.0855867999998736,None,,,,,,,,851,21,M,R,2026-02-23_12h01.07.067,VisualSearch_2526_3,,2025.2.4,2026-02-23 12h01.07.302504 +0100,
tilted.xlsx,The target is tilted.,117,32,0,4,1,1,1,1,1,1,1,1,0,0,0,0,0,7,8,117,space,11.782150600000023,None,0,0,1.9682816999998067,None,space,2.8124072000000524,None,0,0,0,0,,,,,4,0,32,1,165.07037260000016,,,,,,,,,,,,,,,,,,,,,165.0550177,165.07037260000016,165.55405949999977,165.5595045,165.57559779999974,167.55385609999985,,,,,167.55408269999998,167.56891959999984,167.76945160000014,167.75330050000002,165.57559779999974,,,,,,,,0,0,1.9682816999998067,None,,,,,,,,851,21,M,R,2026-02-23_12h01.07.067,VisualSearch_2526_3,,2025.2.4,2026-02-23 12h01.07.302504 +0100,
tilted.xlsx,The target is tilted.,117,33,1,4,0,1,1,1,1,1,1,1,1,1,1,1,1,11,12,117,space,11.782150600000023,None,0,1,3.280774299999848,None,space,2.8124072000000524,None,0,0,0,0,,,,,4,1,33,4,167.76945160000014,,,,,,,,,,,,,,,,,,,,,167.75413040000012,167.76945160000014,168.25321919999988,168.2587352999999,168.2750747,171.5683783999998,,,,,171.56845350000003,171.58389669999997,171.7848101999998,171.76882249999971,168.2750747,,,,,,,,0,1,3.280774299999848,None,,,,,,,,851,21,M,R,2026-02-23_12h01.07.067,VisualSearch_2526_3,,2025.2.4,2026-02-23 12h01.07.302504 +0100,
tilted.xlsx,The target is tilted.,117,34,2,4,0,1,1,1,0,0,0,0,0,0,0,0,1,3,4,117,space,11.782150600000023,None,0,1,2.2605429999998705,None,space,2.8124072000000524,None,0,0,0,0,,,,,4,2,34,6,171.7848101999998,,,,,,,,,,,,,,,,,,,,,171.76965579999978,171.7848101999998,172.2686033,172.27415059999976,172.2893798,174.55172820000007,,,,,174.55200579999973,174.56672679999974,174.76712080000016,174.75077250000004,172.2893798,,,,,,,,0,1,2.2605429999998705,None,,,,,,,,851,21,M,R,2026-02-23_12h01.07.067,VisualSearch_2526_3,,2025.2.4,2026-02-23 12h01.07.302504 +0100,
tilted.xlsx,The target is tilted.,117,35,3,4,0,0,0,0,0,0,0,0,0,0,0,0,1,1,1,117,space,11.782150600000023,None,0,1,0.5957330999999613,None,space,2.8124072000000524,None,0,0,0,0,,,,,4,3,35,7,174.76712080000016,,,,,,,,,,,,,,,,,,,,,174.75160640000013,174.76712080000016,175.25121309999986,175.25682229999984,175.27046359999986,175.86798090000002,,,,,175.8682359999998,175.88300200000003,176.08310399999982,176.06690479999997,175.27046359999986,,,,,,,,0,1,0.5957330999999613,None,,,,,,,,851,21,M,R,2026-02-23_12h01.07.067,VisualSearch_2526_3,,2025.2.4,2026-02-23 12h01.07.302504 +0100,
tilted.xlsx,The target is tilted.,117,36,4,4,1,0,0,0,0,0,0,0,0,0,0,0,0,0,1,117,space,11.782150600000023,None,0,0,0.6313116999999693,None,space,2.8124072000000524,None,0,0,0,0,,,,,4,4,36,3,176.08310399999982,,,,,,,,,,,,,,,,,,,,,176.06773500000008,176.08310399999982,176.5669984000001,176.5729465999998,176.58600049999995,177.23326129999987,,,,,177.23344129999987,177.24918369999978,177.44960439999977,177.43326479999996,176.58600049999995,,,,,,,,0,0,0.6313116999999693,None,,,,,,,,851,21,M,R,2026-02-23_12h01.07.067,VisualSearch_2526_3,,2025.2.4,2026-02-23 12h01.07.302504 +0100,
tilted.xlsx,The target is tilted.,117,37,5,4,1,1,1,1,0,0,0,0,0,0,0,0,0,3,4,117,space,11.782150600000023,None,0,0,0.9998384999998962,None,space,2.8124072000000524,None,0,0,0,0,,,,,4,5,37,2,177.44960439999977,,,,,,,,,,,,,,,,,,,,,177.43409299999985,177.44960439999977,177.93339250000008,177.9389172000001,177.95406129999992,178.9664330999999,,,,,178.96659550000004,178.98194699999976,179.1824203000001,179.16633019999972,177.95406129999992,,,,,,,,0,0,0.9998384999998962,None,,,,,,,,851,21,M,R,2026-02-23_12h01.07.067,VisualSearch_2526_3,,2025.2.4,2026-02-23 12h01.07.302504 +0100,
tilted.xlsx,The target is tilted.,117,38,6,4,0,1,1,1,1,1,1,1,0,0,0,0,1,7,8,117,space,11.782150600000023,None,1,0,0.9399672999998074,None,space,2.8124072000000524,None,0,0,0,0,,,,,4,6,38,5,179.1824203000001,,,,,,,,,,,,,,,,,,,,,179.1671354,179.1824203000001,179.66573370000015,179.67136840000012,179.68785780000007,180.6322098999999,,,,,180.6323570999998,180.64805990000013,180.8484524999999,180.83211759999995,179.68785780000007,,,,,,,,1,0,0.9399672999998074,None,,,,,,,,851,21,M,R,2026-02-23_12h01.07.067,VisualSearch_2526_3,,2025.2.4,2026-02-23 12h01.07.302504 +0100,
tilted.xlsx,The target is tilted.,117,39,7,4,1,1,1,1,1,1,1,1,1,1,1,1,0,11,12,117,space,11.782150600000023,None,1,1,2.8864496999999574,None,space,2.8124072000000524,None,0,0,0,0,,,,,4,7,39,0,180.8484524999999,,,,,,,,,,,,,,,,,,,,,180.83300689999987,180.8484524999999,181.33240780000006,181.3380788999998,181.35387880000007,184.24844110000004,,,,,184.2486402999998,184.2635277999998,184.46403950000013,184.44801359999974,181.35387880000007,,,,,,,,1,1,2.8864496999999574,None,,,,,,,,851,21,M,R,2026-02-23_12h01.07.067,VisualSearch_2526_3,,2025.2.4,2026-02-23 12h01.07.302504 +0100,
tilted.xlsx,The target is tilted.,117,40,0,5,1,1,1,1,1,1,1,1,1,1,1,1,0,11,12,117,space,11.782150600000023,None,0,0,2.5259314999998423,None,space,2.8124072000000524,None,0,0,0,0,,,,,5,0,40,0,184.46403950000013,,,,,,,,,,,,,,,,,,,,,184.44889120000016,184.46403950000013,184.94777810000005,184.95339030000014,184.96841989999984,187.49783560000014,,,,,187.49806009999975,187.5124940999999,187.71279679999998,187.6968963999998,184.96841989999984,,,,,,,,0,0,2.5259314999998423,None,,,,,,,,851,21,M,R,2026-02-23_12h01.07.067,VisualSearch_2526_3,,2025.2.4,2026-02-23 12h01.07.302504 +0100,
tilted.xlsx,The target is tilted.,117,41,1,5,1,1,1,1,0,0,0,0,0,0,0,0,0,3,4,117,space,11.782150600000023,None,0,0,1.1198623000000225,None,space,2.8124072000000524,None,0,0,0,0,,,,,5,1,41,2,187.71279679999998,,,,,,,,,,,,,,,,,,,,,187.69770040000003,187.71279679999998,188.19672029999992,188.20212039999979,188.2181971,189.34615910000002,,,,,189.34631249999984,189.36151979999977,189.56222179999986,189.5462521999998,188.2181971,,,,,,,,0,0,1.1198623000000225,None,,,,,,,,851,21,M,R,2026-02-23_12h01.07.067,VisualSearch_2526_3,,2025.2.4,2026-02-23 12h01.07.302504 +0100,
tilted.xlsx,The target is tilted.,117,42,2,5,0,0,0,0,0,0,0,0,0,0,0,0,1,1,1,117,space,11.782150600000023,None,0,1,0.6090502000001834,None,space,2.8124072000000524,None,0,0,0,0,,,,,5,2,42,7,189.56222179999986,,,,,,,,,,,,,,,,,,,,,189.54708549999987,189.56222179999986,190.04615860000013,190.05173239999976,190.06820400000015,190.67922910000016,,,,,190.67937690000008,190.69472779999978,190.89520089999996,190.8791551999998,190.06820400000015,,,,,,,,0,1,0.6090502000001834,None,,,,,,,,851,21,M,R,2026-02-23_12h01.07.067,VisualSearch_2526_3,,2025.2.4,2026-02-23 12h01.07.302504 +0100,
tilted.xlsx,The target is tilted.,117,43,3,5,1,1,1,1,1,1,1,1,0,0,0,0,0,7,8,117,space,11.782150600000023,None,1,1,2.2763261000000057,None,space,2.8124072000000524,None,0,0,0,0,,,,,5,3,43,1,190.89520089999996,,,,,,,,,,,,,,,,,,,,,190.87999409999975,190.89520089999996,191.37905649999993,191.38445850000016,191.40007130000004,193.6782763000001,,,,,193.67842359999986,193.69363269999985,193.89426849999973,193.87829809999994,191.40007130000004,,,,,,,,1,1,2.2763261000000057,None,,,,,,,,851,21,M,R,2026-02-23_12h01.07.067,VisualSearch_2526_3,,2025.2.4,2026-02-23 12h01.07.302504 +0100,
tilted.xlsx,The target is tilted.,117,44,4,5,0,1,1,1,1,1,1,1,1,1,1,1,1,11,12,117,space,11.782150600000023,None,1,0,2.854042699999809,None,space,2.8124072000000524,None,0,0,0,0,,,,,5,4,44,4,193.89426849999973,,,,,,,,,,,,,,,,,,,,,193.87914980000005,193.89426849999973,194.37814609999987,194.38349789999984,194.4017659000001,197.2604683999998,,,,,197.26063759999988,197.27578549999998,197.47646450000002,197.460415,194.4017659000001,,,,,,,,1,0,2.854042699999809,None,,,,,,,,851,21,M,R,2026-02-23_12h01.07.067,VisualSearch_2526_3,,2025.2.4,2026-02-23 12h01.07.302504 +0100,
tilted.xlsx,The target is tilted.,117,45,5,5,1,0,0,0,0,0,0,0,0,0,0,0,0,0,1,117,space,11.782150600000023,None,0,0,0.6152382999998736,None,space,2.8124072000000524,None,0,0,0,0,,,,,5,5,45,3,197.47646450000002,,,,,,,,,,,,,,,,,,,,,197.46121549999998,197.47646450000002,197.9597632,197.96535080000012,197.9788024999998,198.60960599999999,,,,,198.60976930000015,198.62547949999998,198.82598199999984,198.81001370000013,197.9788024999998,,,,,,,,0,0,0.6152382999998736,None,,,,,,,,851,21,M,R,2026-02-23_12h01.07.067,VisualSearch_2526_3,,2025.2.4,2026-02-23 12h01.07.302504 +0100,
tilted.xlsx,The target is tilted.,117,46,6,5,0,1,1,1,1,1,1,1,0,0,0,0,1,7,8,117,space,11.782150600000023,None,0,1,1.9026106999999683,None,space,2.8124072000000524,None,0,0,0,0,,,,,5,6,46,5,198.82598199999984,,,,,,,,,,,,,,,,,,,,,198.81085399999984,198.82598199999984,199.30982369999992,199.31528560000015,199.32803599999988,201.24210409999978,,,,,201.24226580000004,201.25783909999973,201.45846470000015,201.44243860000006,199.32803599999988,,,,,,,,0,1,1.9026106999999683,None,,,,,,,,851,21,M,R,2026-02-23_12h01.07.067,VisualSearch_2526_3,,2025.2.4,2026-02-23 12h01.07.302504 +0100,
tilted.xlsx,The target is tilted.,117,47,7,5,0,1,1,1,0,0,0,0,0,0,0,0,1,3,4,117,space,11.782150600000023,None,0,1,1.7251992000001337,None,space,2.8124072000000524,None,0,0,0,0,,,,,5,7,47,6,201.45846470000015,,,,,,,,,,,,,,,,,,,,,201.44323929999973,201.45846470000015,201.94223740000007,201.94764020000002,201.96379100000013,203.69205150000016,,,,,203.69223209999973,203.70728640000016,203.90766480000002,203.89170149999973,201.96379100000013,,,,,,,,0,1,1.7251992000001337,None,,,,,,,,851,21,M,R,2026-02-23_12h01.07.067,VisualSearch_2526_3,,2025.2.4,2026-02-23 12h01.07.302504 +0100,
tilted.xlsx,The target is tilted.,117,48,0,6,0,1,1,1,1,1,1,1,1,1,1,1,1,11,12,117,space,11.782150600000023,None,1,0,1.1574114000000009,None,space,2.8124072000000524,None,0,0,0,0,,,,,6,0,48,4,203.90766480000002,,,,,,,,,,,,,,,,,,,,,203.89251409999997,203.90766480000002,204.39108529999976,204.39661220000016,204.41236440000011,205.57485589999987,,,,,205.57508039999993,205.59000800000013,205.79031739999982,205.77436989999978,204.41236440000011,,,,,,,,1,0,1.1574114000000009,None,,,,,,,,851,21,M,R,2026-02-23_12h01.07.067,VisualSearch_2526_3,,2025.2.4,2026-02-23 12h01.07.302504 +0100,
tilted.xlsx,The target is tilted.,117,49,1,6,1,1,1,1,0,0,0,0,0,0,0,0,0,3,4,117,space,11.782150600000023,None,0,0,1.136478200000056,None,space,2.8124072000000524,None,0,0,0,0,,,,,6,1,49,2,205.79031739999982,,,,,,,,,,,,,,,,,,,,,205.77517880000005,205.79031739999982,206.27418290000014,206.2797415,206.29490269999997,207.44112459999997,,,,,207.44136249999974,207.4558573999998,207.6565612999998,207.6404935999999,206.29490269999997,,,,,,,,0,0,1.136478200000056,None,,,,,,,,851,21,M,R,2026-02-23_12h01.07.067,VisualSearch_2526_3,,2025.2.4,2026-02-23 12h01.07.302504 +0100,
tilted.xlsx,The target is tilted.,117,50,2,6,0,1,1,1,0,0,0,0,0,0,0,0,1,3,4,117,space,11.782150600000023,None,0,1,1.0520670000000791,None,space,2.8124072000000524,None,0,0,0,0,,,,,6,2,50,6,207.6565612999998,,,,,,,,,,,,,,,,,,,,,207.64129539999976,207.6565612999998,208.1402809000001,208.14581689999977,208.16391010000007,209.22306939999999,,,,,209.223258,209.2387472999999,209.4391728999999,209.4226067999998,208.16391010000007,,,,,,,,0,1,1.0520670000000791,None,,,,,,,,851,21,M,R,2026-02-23_12h01.07.067,VisualSearch_2526_3,,2025.2.4,2026-02-23 12h01.07.302504 +0100,
tilted.xlsx,The target is tilted.,117,51,3,6,0,1,1,1,1,1,1,1,0,0,0,0,1,7,8,117,space,11.782150600000023,None,1,0,1.4826831000000311,None,space,2.8124072000000524,None,0,0,0,0,,,,,6,3,51,5,209.4391728999999,,,,,,,,,,,,,,,,,,,,,209.42343410000012,209.4391728999999,209.9226493000001,209.92814610000005,209.94364700000006,211.4390942,,,,,211.43933220000008,211.4546365000001,211.65513550000014,211.63899300000003,209.94364700000006,,,,,,,,1,0,1.4826831000000311,None,,,,,,,,851,21,M,R,2026-02-23_12h01.07.067,VisualSearch_2526_3,,2025.2.4,2026-02-23 12h01.07.302504 +0100,
tilted.xlsx,The target is tilted.,117,52,4,6,0,0,0,0,0,0,0,0,0,0,0,0,1,1,1,117,space,11.782150600000023,None,0,1,0.6544579999999769,None,space,2.8124072000000524,None,0,0,0,0,,,,,6,4,52,7,211.65513550000014,,,,,,,,,,,,,,,,,,,,,211.6398604000001,211.65513550000014,212.13907770000014,212.14456530000007,212.16005919999998,212.82240520000005,,,,,212.82263160000002,212.83752969999978,213.03790010000012,213.0217217999998,212.16005919999998,,,,,,,,0,1,0.6544579999999769,None,,,,,,,,851,21,M,R,2026-02-23_12h01.07.067,VisualSearch_2526_3,,2025.2.4,2026-02-23 12h01.07.302504 +0100,
tilted.xlsx,The target is tilted.,117,53,5,6,1,1,1,1,1,1,1,1,1,1,1,1,0,11,12,117,space,11.782150600000023,None,1,1,2.2425044999999955,None,space,2.8124072000000524,None,0,0,0,0,,,,,6,5,53,0,213.03790010000012,,,,,,,,,,,,,,,,,,,,,213.02257409999993,213.03790010000012,213.52179449999994,213.5265429000001,213.53876379999974,215.7877813,,,,,215.7879293000001,215.8033790999998,216.0037425999999,215.98769829999992,213.53876379999974,,,,,,,,1,1,2.2425044999999955,None,,,,,,,,851,21,M,R,2026-02-23_12h01.07.067,VisualSearch_2526_3,,2025.2.4,2026-02-23 12h01.07.302504 +0100,
tilted.xlsx,The target is tilted.,117,54,6,6,1,0,0,0,0,0,0,0,0,0,0,0,0,0,1,117,space,11.782150600000023,None,0,0,0.5186557999995784,None,space,2.8124072000000524,None,0,0,0,0,,,,,6,6,54,3,216.0037425999999,,,,,,,,,,,,,,,,,,,,,215.98851190000005,216.0037425999999,216.48720159999993,216.49270639999986,216.5080683000001,217.03739749999977,,,,,217.03754579999986,217.05273979999993,217.25330529999974,217.23730639999985,216.5080683000001,,,,,,,,0,0,0.5186557999995784,None,,,,,,,,851,21,M,R,2026-02-23_12h01.07.067,VisualSearch_2526_3,,2025.2.4,2026-02-23 12h01.07.302504 +0100,
tilted.xlsx,The target is tilted.,117,55,7,6,1,1,1,1,1,1,1,1,0,0,0,0,0,7,8,117,space,11.782150600000023,None,1,1,2.0663187000000107,None,space,2.8124072000000524,None,0,0,0,0,,,,,6,7,55,1,217.25330529999974,,,,,,,,,,,,,,,,,,,,,217.2381194999998,217.25330529999974,217.73722450000014,217.7427573,217.7582026,219.83601850000014,,,,,219.83616889999985,219.85199719999991,220.05218609999974,220.03641919999973,217.7582026,,,,,,,,1,1,2.0663187000000107,None,,,,,,,,851,21,M,R,2026-02-23_12h01.07.067,VisualSearch_2526_3,,2025.2.4,2026-02-23 12h01.07.302504 +0100,
tilted.xlsx,The target is tilted.,117,56,0,7,0,1,1,1,1,1,1,1,1,1,1,1,1,11,12,117,space,11.782150600000023,None,1,0,0.8384485000001405,None,space,2.8124072000000524,None,0,0,0,0,,,,,7,0,56,4,220.05218609999974,,,,,,,,,,,,,,,,,,,,,220.0372422999999,220.05218609999974,220.53622159999986,220.54178309999998,220.55730589999985,221.40266710000014,,,,,221.40286030000016,221.41807019999987,221.61850939999977,221.6022066999999,220.55730589999985,,,,,,,,1,0,0.8384485000001405,None,,,,,,,,851,21,M,R,2026-02-23_12h01.07.067,VisualSearch_2526_3,,2025.2.4,2026-02-23 12h01.07.302504 +0100,
tilted.xlsx,The target is tilted.,117,57,1,7,0,0,0,0,0,0,0,0,0,0,0,0,1,1,1,117,space,11.782150600000023,None,0,1,0.5579047999999602,None,space,2.8124072000000524,None,0,0,0,0,,,,,7,1,57,7,221.61850939999977,,,,,,,,,,,,,,,,,,,,,221.6030442000001,221.61850939999977,222.1023793999998,222.10789049999994,222.1219461999999,222.68582919999972,,,,,222.68604879999975,222.70111959999986,222.9015884999999,222.88546009999982,222.1219461999999,,,,,,,,0,1,0.5579047999999602,None,,,,,,,,851,21,M,R,2026-02-23_12h01.07.067,VisualSearch_2526_3,,2025.2.4,2026-02-23 12h01.07.302504 +0100,
tilted.xlsx,The target is tilted.,117,58,2,7,1,1,1,1,1,1,1,1,0,0,0,0,0,7,8,117,space,11.782150600000023,None,1,1,2.2479605000003176,None,space,2.8124072000000524,None,0,0,0,0,,,,,7,2,58,1,222.9015884999999,,,,,,,,,,,,,,,,,,,,,222.8863876999999,222.9015884999999,223.3853178999998,223.39096500000005,223.40524789999972,225.66759479999973,,,,,225.66778729999987,225.68337699999984,225.88390449999997,225.86793320000015,223.40524789999972,,,,,,,,1,1,2.2479605000003176,None,,,,,,,,851,21,M,R,2026-02-23_12h01.07.067,VisualSearch_2526_3,,2025.2.4,2026-02-23 12h01.07.302504 +0100,
tilted.xlsx,The target is tilted.,117,59,3,7,0,1,1,1,0,0,0,0,0,0,0,0,1,3,4,117,space,11.782150600000023,None,0,1,0.9466280000001461,None,space,2.8124072000000524,None,0,0,0,0,,,,,7,3,59,6,225.88390449999997,,,,,,,,,,,,,,,,,,,,,225.86876669999992,225.88390449999997,226.3677416999999,226.3732132,226.38874320000014,227.35023120000005,,,,,227.35037950000014,227.36618229999976,227.5666123000001,227.55062599999974,226.38874320000014,,,,,,,,0,1,0.9466280000001461,None,,,,,,,,851,21,M,R,2026-02-23_12h01.07.067,VisualSearch_2526_3,,2025.2.4,2026-02-23 12h01.07.302504 +0100,
tilted.xlsx,The target is tilted.,117,60,4,7,1,1,1,1,1,1,1,1,1,1,1,1,0,11,12,117,space,11.782150600000023,None,1,1,2.2122448000000077,None,space,2.8124072000000524,None,0,0,0,0,,,,,7,4,60,0,227.5666123000001,,,,,,,,,,,,,,,,,,,,,227.55145390000007,227.5666123000001,228.05051760000015,228.05596060000016,228.07167729999992,230.29937800000016,,,,,230.29954420000013,230.31520980000005,230.5157607000001,230.49963419999995,228.07167729999992,,,,,,,,1,1,2.2122448000000077,None,,,,,,,,851,21,M,R,2026-02-23_12h01.07.067,VisualSearch_2526_3,,2025.2.4,2026-02-23 12h01.07.302504 +0100,
tilted.xlsx,The target is tilted.,117,61,5,7,1,0,0,0,0,0,0,0,0,0,0,0,0,0,1,117,space,11.782150600000023,None,0,0,0.5295342000003984,None,space,2.8124072000000524,None,0,0,0,0,,,,,7,5,61,3,230.5157607000001,,,,,,,,,,,,,,,,,,,,,230.50046650000013,230.5157607000001,230.99950979999994,231.00490249999984,231.0182847000001,231.54931099999976,,,,,231.54943779999985,231.56467040000007,231.76535250000006,231.74939559999984,231.0182847000001,,,,,,,,0,0,0.5295342000003984,None,,,,,,,,851,21,M,R,2026-02-23_12h01.07.067,VisualSearch_2526_3,,2025.2.4,2026-02-23 12h01.07.302504 +0100,
tilted.xlsx,The target is tilted.,117,62,6,7,0,1,1,1,1,1,1,1,0,0,0,0,1,7,8,117,space,11.782150600000023,None,1,0,1.2781393999998727,None,space,2.8124072000000524,None,0,0,0,0,,,,,7,6,62,5,231.76535250000006,,,,,,,,,,,,,,,,,,,,,231.75022820000004,231.76535250000006,232.2489829000001,232.2544896999998,232.26978259999987,233.56476199999997,,,,,233.56490029999986,233.58114549999982,,233.76509239999996,232.26978259999987,,,,,,,,1,0,1.2781393999998727,None,,,,,,,,851,21,M,R,2026-02-23_12h01.07.067,VisualSearch_2526_3,,2025.2.4,2026-02-23 12h01.07.302504 +0100,
tilted.xlsx,The target is tilted.,117,63,7,7,1,1,1,1,0,0,0,0,0,0,0,0,0,3,4,117,space,11.782150600000023,None,0,0,0.8178073000003678,None,space,2.8124072000000524,None,0,0,0,0,,,,,7,7,63,2,233.78136949999998,,,,,,,,,,,,,,,,,,,,,233.76601019999998,233.78136949999998,234.26513449999993,234.270712,234.2841473999997,235.11491960000012,,,,,235.1150776999998,235.13036520000014,235.33080579999978,235.31444789999978,234.2841473999997,,,,,,,,0,0,0.8178073000003678,None,,,,,,,,851,21,M,R,2026-02-23_12h01.07.067,VisualSearch_2526_3,,2025.2.4,2026-02-23 12h01.07.302504 +0100,
tilted.xlsx,The target is tilted.,117,64,0,8,0,1,1,1,0,0,0,0,0,0,0,0,1,3,4,117,space,11.782150600000023,None,0,1,1.0692023000001427,None,space,2.8124072000000524,None,0,0,0,0,,,,,8,0,64,6,235.33080579999978,,,,,,,,,,,,,,,,,,,,,235.3152715000001,235.33080579999978,235.8148338000001,235.81966079999984,235.83039340000005,236.91433879999977,,,,,236.91458310000007,236.92977569999994,237.13028239999994,237.1140808,235.83039340000005,,,,,,,,0,1,1.0692023000001427,None,,,,,,,,851,21,M,R,2026-02-23_12h01.07.067,VisualSearch_2526_3,,2025.2.4,2026-02-23 12h01.07.302504 +0100,
tilted.xlsx,The target is tilted.,117,65,1,8,1,1,1,1,1,1,1,1,1,1,1,1,0,11,12,117,space,11.782150600000023,None,1,1,2.84091269999999,None,space,2.8124072000000524,None,0,0,0,0,,,,,8,1,65,0,237.13028239999994,,,,,,,,,,,,,,,,,,,,,237.1149144000001,237.13028239999994,237.6139715999998,237.61943900000006,237.63512330000003,240.47945750000008,,,,,240.47960579999972,240.49525619999986,240.69567069999994,240.67961539999988,237.63512330000003,,,,,,,,1,1,2.84091269999999,None,,,,,,,,851,21,M,R,2026-02-23_12h01.07.067,VisualSearch_2526_3,,2025.2.4,2026-02-23 12h01.07.302504 +0100,
tilted.xlsx,The target is tilted.,117,66,2,8,1,1,1,1,1,1,1,1,0,0,0,0,0,7,8,117,space,11.782150600000023,None,1,1,1.4386709000000337,None,space,2.8124072000000524,None,0,0,0,0,,,,,8,2,66,1,240.69567069999994,,,,,,,,,,,,,,,,,,,,,240.6804535000001,240.69567069999994,241.17958390000013,241.18503310000006,241.1988391,242.64617050000015,,,,,242.64631959999997,242.6611957,242.86142250000012,242.84520399999974,241.1988391,,,,,,,,1,1,1.4386709000000337,None,,,,,,,,851,21,M,R,2026-02-23_12h01.07.067,VisualSearch_2526_3,,2025.2.4,2026-02-23 12h01.07.302504 +0100,
tilted.xlsx,The target is tilted.,117,67,3,8,1,0,0,0,0,0,0,0,0,0,0,0,0,0,1,117,space,11.782150600000023,None,0,0,0.6107074999999895,None,space,2.8124072000000524,None,0,0,0,0,,,,,8,3,67,3,242.86142250000012,,,,,,,,,,,,,,,,,,,,,242.84600499999988,242.86142250000012,243.34540319999996,243.35075259999985,243.37074570000004,243.99480229999972,,,,,243.99494939999977,244.01073189999988,244.21126259999983,244.19482070000004,243.37074570000004,,,,,,,,0,0,0.6107074999999895,None,,,,,,,,851,21,M,R,2026-02-23_12h01.07.067,VisualSearch_2526_3,,2025.2.4,2026-02-23 12h01.07.302504 +0100,
tilted.xlsx,The target is tilted.,117,68,4,8,0,1,1,1,1,1,1,1,0,0,0,0,1,7,8,117,space,11.782150600000023,None,1,0,1.8590985999999248,None,space,2.8124072000000524,None,0,0,0,0,,,,,8,4,68,5,244.21126259999983,,,,,,,,,,,,,,,,,,,,,244.19561969999995,244.21126259999983,244.69493879999982,244.7003918999999,244.71453199999996,246.57735739999998,,,,,246.57749379999996,246.59304900000006,246.79349709999997,246.77769869999975,244.71453199999996,,,,,,,,1,0,1.8590985999999248,None,,,,,,,,851,21,M,R,2026-02-23_12h01.07.067,VisualSearch_2526_3,,2025.2.4,2026-02-23 12h01.07.302504 +0100,
tilted.xlsx,The target is tilted.,117,69,5,8,0,0,0,0,0,0,0,0,0,0,0,0,1,1,1,117,space,11.782150600000023,None,0,1,0.5523865000000114,None,space,2.8124072000000524,None,0,0,0,0,,,,,8,5,69,7,246.79349709999997,,,,,,,,,,,,,,,,,,,,,246.7788913999998,246.79349709999997,247.2775483999999,247.28224060000002,247.29429690000006,247.86021279999977,,,,,247.86035719999973,247.87618500000008,248.07675789999985,248.06057770000007,247.29429690000006,,,,,,,,0,1,0.5523865000000114,None,,,,,,,,851,21,M,R,2026-02-23_12h01.07.067,VisualSearch_2526_3,,2025.2.4,2026-02-23 12h01.07.302504 +0100,
tilted.xlsx,The target is tilted.,117,70,6,8,0,1,1,1,1,1,1,1,1,1,1,1,1,11,12,117,space,11.782150600000023,None,0,1,2.640416499999901,None,space,2.8124072000000524,None,0,0,0,0,,,,,8,6,70,4,248.07675789999985,,,,,,,,,,,,,,,,,,,,,248.06140419999974,248.07675789999985,248.5605056999998,248.56585769999992,248.58152549999977,251.22650810000005,,,,,251.22672460000013,251.24174330000005,251.44196980000015,251.42614330000015,248.58152549999977,,,,,,,,0,1,2.640416499999901,None,,,,,,,,851,21,M,R,2026-02-23_12h01.07.067,VisualSearch_2526_3,,2025.2.4,2026-02-23 12h01.07.302504 +0100,
tilted.xlsx,The target is tilted.,117,71,7,8,1,1,1,1,0,0,0,0,0,0,0,0,0,3,4,117,space,11.782150600000023,None,0,0,1.1631790000001274,None,space,2.8124072000000524,None,0,0,0,0,,,,,8,7,71,2,251.44196980000015,,,,,,,,,,,,,,,,,,,,,251.4269531,251.44196980000015,251.92608719999998,251.9314884999999,251.94718890000013,253.12512530000004,,,,,253.1252626999999,253.14149899999984,253.34127839999974,253.32527840000012,251.94718890000013,,,,,,,,0,0,1.1631790000001274,None,,,,,,,,851,21,M,R,2026-02-23_12h01.07.067,VisualSearch_2526_3,,2025.2.4,2026-02-23 12h01.07.302504 +0100,
tilted.xlsx,The target is tilted.,117,72,0,9,1,0,0,0,0,0,0,0,0,0,0,0,0,0,1,117,space,11.782150600000023,None,0,0,0.6398633999997401,None,space,2.8124072000000524,None,0,0,0,0,,,,,9,0,72,3,253.34127839999974,,,,,,,,,,,,,,,,,,,,,253.32612659999995,253.34127839999974,253.82542869999997,253.83089459999974,253.8447142,254.49184659999992,,,,,254.4919814,254.50726540000005,254.70779249999987,254.6917112000001,253.8447142,,,,,,,,0,0,0.6398633999997401,None,,,,,,,,851,21,M,R,2026-02-23_12h01.07.067,VisualSearch_2526_3,,2025.2.4,2026-02-23 12h01.07.302504 +0100,
tilted.xlsx,The target is tilted.,117,73,1,9,0,0,0,0,0,0,0,0,0,0,0,0,1,1,1,117,space,11.782150600000023,None,0,1,0.621828099999675,None,space,2.8124072000000524,None,0,0,0,0,,,,,9,1,73,7,254.70779249999987,,,,,,,,,,,,,,,,,,,,,254.69254180000007,254.70779249999987,255.19172149999986,255.19707909999988,255.21336429999974,255.84108909999986,,,,,255.84123380000028,255.8567634999995,256.0574173,256.0413818000002,255.21336429999974,,,,,,,,0,1,0.621828099999675,None,,,,,,,,851,21,M,R,2026-02-23_12h01.07.067,VisualSearch_2526_3,,2025.2.4,2026-02-23 12h01.07.302504 +0100,
tilted.xlsx,The target is tilted.,117,74,2,9,1,1,1,1,0,0,0,0,0,0,0,0,0,3,4,117,space,11.782150600000023,None,0,0,1.0430942000002688,None,space,2.8124072000000524,None,0,0,0,0,,,,,9,2,74,2,256.0574173,,,,,,,,,,,,,,,,,,,,,256.0421943999995,256.0574173,256.5412879999999,256.5467431000002,256.56221010000036,257.6081148999997,,,,,257.6083655999996,257.6231036000004,257.8234690000004,257.8071396999999,256.56221010000036,,,,,,,,0,0,1.0430942000002688,None,,,,,,,,851,21,M,R,2026-02-23_12h01.07.067,VisualSearch_2526_3,,2025.2.4,2026-02-23 12h01.07.302504 +0100,
tilted.xlsx,The target is tilted.,117,75,3,9,1,1,1,1,1,1,1,1,1,1,1,1,0,11,12,117,space,11.782150600000023,None,1,1,1.0461826000000656,None,space,2.8124072000000524,None,0,0,0,0,,,,,9,3,75,0,257.8234690000004,,,,,,,,,,,,,,,,,,,,,257.8079666999997,257.8234690000004,258.3074095999996,258.31276430000025,258.32853959999966,259.3898524000001,,,,,259.3899981999998,259.4057394999995,259.60633689999986,259.58993390000023,258.32853959999966,,,,,,,,1,1,1.0461826000000656,None,,,,,,,,851,21,M,R,2026-02-23_12h01.07.067,VisualSearch_2526_3,,2025.2.4,2026-02-23 12h01.07.302504 +0100,
tilted.xlsx,The target is tilted.,117,76,4,9,0,1,1,1,1,1,1,1,0,0,0,0,1,7,8,117,space,11.782150600000023,None,0,1,1.5819977999999537,None,space,2.8124072000000524,None,0,0,0,0,,,,,9,4,76,5,259.60633689999986,,,,,,,,,,,,,,,,,,,,,259.59066550000034,259.60633689999986,260.08955209999976,260.091825,260.10597840000037,261.68957180000007,,,,,261.68971680000004,261.7050242999999,261.90532909999956,261.88849569999957,260.10597840000037,,,,,,,,0,1,1.5819977999999537,None,,,,,,,,851,21,M,R,2026-02-23_12h01.07.067,VisualSearch_2526_3,,2025.2.4,2026-02-23 12h01.07.302504 +0100,
tilted.xlsx,The target is tilted.,117,77,5,9,0,1,1,1,1,1,1,1,1,1,1,1,1,11,12,117,space,11.782150600000023,None,1,0,1.4325935000006211,None,space,2.8124072000000524,None,0,0,0,0,,,,,9,5,77,4,261.90532909999956,,,,,,,,,,,,,,,,,,,,,261.88886969999976,261.90532909999956,262.38927230000036,262.3945785000001,262.41006719999996,263.85474829999976,,,,,263.85483650000015,263.8712631000003,,264.05527949999987,262.41006719999996,,,,,,,,1,0,1.4325935000006211,None,,,,,,,,851,21,M,R,2026-02-23_12h01.07.067,VisualSearch_2526_3,,2025.2.4,2026-02-23 12h01.07.302504 +0100,
tilted.xlsx,The target is tilted.,117,78,6,9,1,1,1,1,1,1,1,1,0,0,0,0,0,7,8,117,space,11.782150600000023,None,1,1,1.2272869999997056,None,space,2.8124072000000524,None,0,0,0,0,,,,,9,6,78,1,264.0715543000001,,,,,,,,,,,,,,,,,,,,,264.0561751,264.0715543000001,264.55502659999956,264.5604983999997,264.57472110000026,265.8049046000001,,,,,265.80505049999965,265.8203289999997,266.02051079999956,266.0048095999996,,,,,,,,,1,1,1.2272869999997056,None,,,,,,,,851,21,M,R,2026-02-23_12h01.07.067,VisualSearch_2526_3,,2025.2.4,2026-02-23 12h01.07.302504 +0100,
tilted.xlsx,The target is tilted.,117,79,7,9,0,1,1,1,0,0,0,0,0,0,0,0,1,3,4,117,space,11.782150600000023,None,0,1,0.8431504999998651,None,space,2.8124072000000524,None,0,0,0,0,,,,,9,7,79,6,266.02051079999956,,,,,,,,,,,,,,,,,,,,,266.0056343000001,266.02051079999956,266.50452110000015,266.5100385999999,266.52439339999955,267.3711214,,,,,267.3713149,267.38656779999974,267.58703639999976,267.5710451,266.52439339999955,,,,,,,,0,1,0.8431504999998651,None,,,,,,,,851,21,M,R,2026-02-23_12h01.07.067,VisualSearch_2526_3,,2025.2.4,2026-02-23 12h01.07.302504 +0100,
tilted.xlsx,The target is tilted.,117,80,0,10,0,1,1,1,0,0,0,0,0,0,0,0,1,3,4,117,space,11.782150600000023,None,0,1,0.9171394000004511,None,space,2.8124072000000524,None,0,0,0,0,,,,,10,0,80,6,267.58703639999976,,,,,,,,,,,,,,,,,,,,,267.57185189999973,267.58703639999976,268.0706347,268.0759747999996,268.08667620000006,269.02025230000027,,,,,269.02045210000006,269.0358338000001,269.2364534000003,269.22011129999964,268.08667620000006,,,,,,,,0,1,0.9171394000004511,None,,,,,,,,851,21,M,R,2026-02-23_12h01.07.067,VisualSearch_2526_3,,2025.2.4,2026-02-23 12h01.07.302504 +0100,
tilted.xlsx,The target is tilted.,117,81,1,10,0,1,1,1,1,1,1,1,0,0,0,0,1,7,8,117,space,11.782150600000023,None,1,0,1.20016140000007,None,space,2.8124072000000524,None,0,0,0,0,,,,,10,1,81,5,269.2364534000003,,,,,,,,,,,,,,,,,,,,,269.22096889999966,269.2364534000003,269.7203007000003,269.7256468999999,269.73890710000023,270.9526632000002,,,,,270.9528005999996,270.96876550000025,271.1691446,271.1529048999996,269.73890710000023,,,,,,,,1,0,1.20016140000007,None,,,,,,,,851,21,M,R,2026-02-23_12h01.07.067,VisualSearch_2526_3,,2025.2.4,2026-02-23 12h01.07.302504 +0100,
tilted.xlsx,The target is tilted.,117,82,2,10,1,0,0,0,0,0,0,0,0,0,0,0,0,0,1,117,space,11.782150600000023,None,0,0,1.0653951999993296,None,space,2.8124072000000524,None,0,0,0,0,,,,,10,2,82,3,271.1691446,,,,,,,,,,,,,,,,,,,,,271.1537722999997,271.1691446,271.6525521999997,271.6580103000001,271.67092790000015,272.75175009999975,,,,,272.75185550000015,272.7683112999998,,272.95210759999964,271.67092790000015,,,,,,,,0,0,1.0653951999993296,None,,,,,,,,851,21,M,R,2026-02-23_12h01.07.067,VisualSearch_2526_3,,2025.2.4,2026-02-23 12h01.07.302504 +0100,
tilted.xlsx,The target is tilted.,117,83,3,10,0,0,0,0,0,0,0,0,0,0,0,0,1,1,1,117,space,11.782150600000023,None,0,1,0.7790601000006063,None,space,2.8124072000000524,None,0,0,0,0,,,,,10,3,83,7,272.96817919999967,,,,,,,,,,,,,,,,,,,,,272.9530050999997,272.96817919999967,273.4521913000003,273.45763359999955,273.47313540000005,274.26862630000005,,,,,274.2688227000003,274.28473819999954,274.4847996000003,274.46891319999986,,,,,,,,,0,1,0.7790601000006063,None,,,,,,,,851,21,M,R,2026-02-23_12h01.07.067,VisualSearch_2526_3,,2025.2.4,2026-02-23 12h01.07.302504 +0100,
tilted.xlsx,The target is tilted.,117,84,4,10,1,1,1,1,1,1,1,1,0,0,0,0,0,7,8,117,space,11.782150600000023,None,1,1,1.0393624999996973,None,space,2.8124072000000524,None,0,0,0,0,,,,,10,4,84,1,274.4847996000003,,,,,,,,,,,,,,,,,,,,,274.4697771999995,274.4847996000003,274.9686612999999,274.9741452000003,274.99078580000014,276.03537170000027,,,,,276.0356158999998,276.05097890000025,276.2508616,276.23462919999974,274.99078580000014,,,,,,,,1,1,1.0393624999996973,None,,,,,,,,851,21,M,R,2026-02-23_12h01.07.067,VisualSearch_2526_3,,2025.2.4,2026-02-23 12h01.07.302504 +0100,
tilted.xlsx,The target is tilted.,117,85,5,10,1,1,1,1,0,0,0,0,0,0,0,0,0,3,4,117,space,11.782150600000023,None,0,0,1.2738883000001806,None,space,2.8124072000000524,None,0,0,0,0,,,,,10,5,85,2,276.2508616,,,,,,,,,,,,,,,,,,,,,276.23546510000006,276.2508616,276.7344691000003,276.73984900000005,276.7533423,278.0346800000002,,,,,278.0348696999995,278.0499412000004,278.2502043999998,278.2337940000002,276.7533423,,,,,,,,0,0,1.2738883000001806,None,,,,,,,,851,21,M,R,2026-02-23_12h01.07.067,VisualSearch_2526_3,,2025.2.4,2026-02-23 12h01.07.302504 +0100,
tilted.xlsx,The target is tilted.,117,86,6,10,0,1,1,1,1,1,1,1,1,1,1,1,1,11,12,117,space,11.782150600000023,None,0,1,2.8824161000002277,None,space,2.8124072000000524,None,0,0,0,0,,,,,10,6,86,4,278.2502043999998,,,,,,,,,,,,,,,,,,,,,278.23468749999984,278.2502043999998,278.73367889999963,278.7396361999995,278.7551556000003,281.6502280999998,,,,,281.6504530999996,281.6657260999996,281.8657777000003,281.8496772000003,278.7551556000003,,,,,,,,0,1,2.8824161000002277,None,,,,,,,,851,21,M,R,2026-02-23_12h01.07.067,VisualSearch_2526_3,,2025.2.4,2026-02-23 12h01.07.302504 +0100,
tilted.xlsx,The target is tilted.,117,87,7,10,1,1,1,1,1,1,1,1,1,1,1,1,0,11,12,117,space,11.782150600000023,None,1,1,2.5849731999996948,None,space,2.8124072000000524,None,0,0,0,0,,,,,10,7,87,0,281.8657777000003,,,,,,,,,,,,,,,,,,,,,281.8504726999995,281.8657777000003,282.3492185,282.3551542,282.37172039999996,284.96554460000016,,,,,284.9657186999998,284.9812801000003,285.1813682999996,285.1651045000003,282.37172039999996,,,,,,,,1,1,2.5849731999996948,None,,,,,,,,851,21,M,R,2026-02-23_12h01.07.067,VisualSearch_2526_3,,2025.2.4,2026-02-23 12h01.07.302504 +0100,
tilted.xlsx,The target is tilted.,117,88,0,11,1,0,0,0,0,0,0,0,0,0,0,0,0,0,1,117,space,11.782150600000023,None,0,0,0.5807790999997451,None,space,2.8124072000000524,None,0,0,0,0,,,,,11,0,88,3,285.1813682999996,,,,,,,,,,,,,,,,,,,,,285.1659795999999,285.1813682999996,285.66472440000007,285.6703316999997,285.68702189999976,286.28179880000016,,,,,286.2819250999996,286.2975646,286.4970225000002,286.48097129999996,285.68702189999976,,,,,,,,0,0,0.5807790999997451,None,,,,,,,,851,21,M,R,2026-02-23_12h01.07.067,VisualSearch_2526_3,,2025.2.4,2026-02-23 12h01.07.302504 +0100,
tilted.xlsx,The target is tilted.,117,89,1,11,1,1,1,1,1,1,1,1,1,1,1,1,0,11,12,117,space,11.782150600000023,None,1,1,1.5828508999993574,None,space,2.8124072000000524,None,0,0,0,0,,,,,11,1,89,0,286.4970225000002,,,,,,,,,,,,,,,,,,,,,286.4818381,286.4970225000002,286.98130269999956,286.9865182999997,287.0044917,288.59811070000023,,,,,288.5983454000002,288.6129361999997,288.8134447999996,288.7974435000001,287.0044917,,,,,,,,1,1,1.5828508999993574,None,,,,,,,,851,21,M,R,2026-02-23_12h01.07.067,VisualSearch_2526_3,,2025.2.4,2026-02-23 12h01.07.302504 +0100,
tilted.xlsx,The target is tilted.,117,90,2,11,1,1,1,1,0,0,0,0,0,0,0,0,0,3,4,117,space,11.782150600000023,None,0,0,0.9950435999999172,None,space,2.8124072000000524,None,0,0,0,0,,,,,11,2,90,2,288.8134447999996,,,,,,,,,,,,,,,,,,,,,288.79826449999973,288.8134447999996,289.29731969999966,289.30267570000024,289.3188699999996,290.3308828000004,,,,,290.3311213000002,290.34628139999995,290.54621889999953,290.52980960000014,289.3188699999996,,,,,,,,0,0,0.9950435999999172,None,,,,,,,,851,21,M,R,2026-02-23_12h01.07.067,VisualSearch_2526_3,,2025.2.4,2026-02-23 12h01.07.302504 +0100,
tilted.xlsx,The target is tilted.,117,91,3,11,0,1,1,1,1,1,1,1,1,1,1,1,1,11,12,117,space,11.782150600000023,None,1,0,2.282874300000003,None,space,2.8124072000000524,None,0,0,0,0,,,,,11,3,91,4,290.54621889999953,,,,,,,,,,,,,,,,,,,,,290.53065259999994,290.54621889999953,291.03004550000014,291.0355010999997,291.05192729999953,293.3462797999996,,,,,293.34647519999953,293.3616976999997,293.5619319000002,293.54589590000023,291.05192729999953,,,,,,,,1,0,2.282874300000003,None,,,,,,,,851,21,M,R,2026-02-23_12h01.07.067,VisualSearch_2526_3,,2025.2.4,2026-02-23 12h01.07.302504 +0100,
tilted.xlsx,The target is tilted.,117,92,4,11,0,1,1,1,0,0,0,0,0,0,0,0,1,3,4,117,space,11.782150600000023,None,0,1,1.0874941999991279,None,space,2.8124072000000524,None,0,0,0,0,,,,,11,4,92,6,293.5619319000002,,,,,,,,,,,,,,,,,,,,,293.5467094999999,293.5619319000002,294.0457038999998,294.0511382999998,294.0675188,295.16259930000024,,,,,295.16285039999957,295.17809999999963,295.37807099999964,295.3617128000001,294.0675188,,,,,,,,0,1,1.0874941999991279,None,,,,,,,,851,21,M,R,2026-02-23_12h01.07.067,VisualSearch_2526_3,,2025.2.4,2026-02-23 12h01.07.302504 +0100,
tilted.xlsx,The target is tilted.,117,93,5,11,0,1,1,1,1,1,1,1,0,0,0,0,1,7,8,117,space,11.782150600000023,None,1,0,1.231239199999436,None,space,2.8124072000000524,None,0,0,0,0,,,,,11,5,93,5,295.37807099999964,,,,,,,,,,,,,,,,,,,,,295.36246789999996,295.37807099999964,295.8618670999999,295.8669116999995,295.8777748999996,297.1107797999998,,,,,297.1108914000001,297.1272520999996,297.3274451000002,297.3108785999998,295.8777748999996,,,,,,,,1,0,1.231239199999436,None,,,,,,,,851,21,M,R,2026-02-23_12h01.07.067,VisualSearch_2526_3,,2025.2.4,2026-02-23 12h01.07.302504 +0100,
tilted.xlsx,The target is tilted.,117,94,6,11,0,0,0,0,0,0,0,0,0,0,0,0,1,1,1,117,space,11.782150600000023,None,0,1,0.6074027000004207,None,space,2.8124072000000524,None,0,0,0,0,,,,,11,6,94,7,297.3274451000002,,,,,,,,,,,,,,,,,,,,,297.31166449999955,297.3274451000002,297.81119009999975,297.8171563000001,297.83359280000013,298.44419160000007,,,,,298.44436449999966,298.46034519999967,298.66021039999987,298.6442562999996,297.83359280000013,,,,,,,,0,1,0.6074027000004207,None,,,,,,,,851,21,M,R,2026-02-23_12h01.07.067,VisualSearch_2526_3,,2025.2.4,2026-02-23 12h01.07.302504 +0100,
tilted.xlsx,The target is tilted.,117,95,7,11,1,1,1,1,1,1,1,1,0,0,0,0,0,7,8,117,space,11.782150600000023,None,1,1,1.1346092999992834,None,space,2.8124072000000524,None,0,0,0,0,,,,,11,7,95,1,298.66021039999987,,,,,,,,,,,,,,,,,,,,,298.6450724000001,298.66021039999987,299.14430649999986,299.1494775999995,299.1598278999995,300.3104251,,,,,300.3106743000003,300.3263165000003,300.52621709999994,300.50993919999974,299.1598278999995,,,,,,,,1,1,1.1346092999992834,None,,,,,,,,851,21,M,R,2026-02-23_12h01.07.067,VisualSearch_2526_3,,2025.2.4,2026-02-23 12h01.07.302504 +0100,
tilted.xlsx,The target is tilted.,117,96,0,12,1,0,0,0,0,0,0,0,0,0,0,0,0,0,1,117,space,11.782150600000023,None,0,0,0.604409399999895,None,space,2.8124072000000524,None,0,0,0,0,,,,,12,0,96,3,300.52621709999994,,,,,,,,,,,,,,,,,,,,,300.5107806000001,300.52621709999994,301.00996840000016,301.0153511000003,301.0309765999996,301.6430408000001,,,,,301.6432278999996,301.65920870000036,301.85925720000023,301.84316660000013,301.0309765999996,,,,,,,,0,0,0.604409399999895,None,,,,,,,,851,21,M,R,2026-02-23_12h01.07.067,VisualSearch_2526_3,,2025.2.4,2026-02-23 12h01.07.302504 +0100,
tilted.xlsx,The target is tilted.,117,97,1,12,1,1,1,1,0,0,0,0,0,0,0,0,0,3,4,117,space,11.782150600000023,None,0,0,0.947616399999788,None,space,2.8124072000000524,None,0,0,0,0,,,,,12,1,97,2,301.85925720000023,,,,,,,,,,,,,,,,,,,,,301.8439757000001,301.85925720000023,302.34300870000015,302.3483384999995,302.3632939000004,303.32666310000013,,,,,303.32690609999963,303.34148909999976,303.5417788,303.5253679000002,302.3632939000004,,,,,,,,0,0,0.947616399999788,None,,,,,,,,851,21,M,R,2026-02-23_12h01.07.067,VisualSearch_2526_3,,2025.2.4,2026-02-23 12h01.07.302504 +0100,
tilted.xlsx,The target is tilted.,117,98,2,12,0,1,1,1,1,1,1,1,1,1,1,1,1,11,12,117,space,11.782150600000023,None,1,0,1.1268295999998372,None,space,2.8124072000000524,None,0,0,0,0,,,,,12,2,98,4,303.5417788,,,,,,,,,,,,,,,,,,,,,303.5260903000003,303.5417788,304.0257365000002,304.0310422999996,304.0472434999997,305.17574769999965,,,,,305.17594099999997,305.1908910999996,305.3914401999996,305.3753322999996,304.0472434999997,,,,,,,,1,0,1.1268295999998372,None,,,,,,,,851,21,M,R,2026-02-23_12h01.07.067,VisualSearch_2526_3,,2025.2.4,2026-02-23 12h01.07.302504 +0100,
tilted.xlsx,The target is tilted.,117,99,3,12,1,1,1,1,1,1,1,1,1,1,1,1,0,11,12,117,space,11.782150600000023,None,0,0,1.8749606999999742,None,space,2.8124072000000524,None,0,0,0,0,,,,,12,3,99,0,305.3914401999996,,,,,,,,,,,,,,,,,,,,,305.3761264999998,305.3914401999996,305.87508339999977,305.88060600000017,305.89448390000007,307.77441709999994,,,,,307.7745884000001,307.7905459999997,307.9905487000001,307.9745042999998,305.89448390000007,,,,,,,,0,0,1.8749606999999742,None,,,,,,,,851,21,M,R,2026-02-23_12h01.07.067,VisualSearch_2526_3,,2025.2.4,2026-02-23 12h01.07.302504 +0100,
tilted.xlsx,The target is tilted.,117,100,4,12,0,1,1,1,0,0,0,0,0,0,0,0,1,3,4,117,space,11.782150600000023,None,0,1,0.6794174000006024,None,space,2.8124072000000524,None,0,0,0,0,,,,,12,4,100,6,307.9905487000001,,,,,,,,,,,,,,,,,,,,,307.9753181000001,307.9905487000001,308.4743174,308.4797424000003,308.4936885000002,309.17426320000004,,,,,309.17449090000036,309.1899179999996,309.3900870000002,309.37398770000027,308.4936885000002,,,,,,,,0,1,0.6794174000006024,None,,,,,,,,851,21,M,R,2026-02-23_12h01.07.067,VisualSearch_2526_3,,2025.2.4,2026-02-23 12h01.07.302504 +0100,
tilted.xlsx,The target is tilted.,117,101,5,12,1,1,1,1,1,1,1,1,0,0,0,0,0,7,8,117,space,11.782150600000023,None,0,0,1.8982077000000572,None,space,2.8124072000000524,None,0,0,0,0,,,,,12,5,101,1,309.3900870000002,,,,,,,,,,,,,,,,,,,,,309.37480970000024,309.3900870000002,309.87356520000003,309.8790100000001,309.8934871999995,311.8071030999995,,,,,311.8072502,311.8221980000003,312.02257489999965,312.0064676999996,309.8934871999995,,,,,,,,0,0,1.8982077000000572,None,,,,,,,,851,21,M,R,2026-02-23_12h01.07.067,VisualSearch_2526_3,,2025.2.4,2026-02-23 12h01.07.302504 +0100,
tilted.xlsx,The target is tilted.,117,102,6,12,0,1,1,1,1,1,1,1,0,0,0,0,1,7,8,117,space,11.782150600000023,None,1,0,2.213247099999535,None,space,2.8124072000000524,None,0,0,0,0,,,,,12,6,102,5,312.02257489999965,,,,,,,,,,,,,,,,,,,,,312.00728649999974,312.02257489999965,312.50637940000024,312.5118086999996,312.52536029999965,314.75631959999964,,,,,314.7564718999997,314.7714880999997,314.97171240000034,314.95560929999965,312.52536029999965,,,,,,,,1,0,2.213247099999535,None,,,,,,,,851,21,M,R,2026-02-23_12h01.07.067,VisualSearch_2526_3,,2025.2.4,2026-02-23 12h01.07.302504 +0100,
tilted.xlsx,The target is tilted.,117,103,7,12,0,0,0,0,0,0,0,0,0,0,0,0,1,1,1,117,space,11.782150600000023,None,0,1,0.6639291000001322,None,space,2.8124072000000524,None,0,0,0,0,,,,,12,7,103,7,314.97171240000034,,,,,,,,,,,,,,,,,,,,,314.95640589999994,314.97171240000034,315.4554119999998,315.4607479000001,315.47740269999986,316.1551935000002,,,,,316.15534100000013,316.1710214999998,316.37121030000026,316.3552337999995,315.47740269999986,,,,,,,,0,1,0.6639291000001322,None,,,,,,,,851,21,M,R,2026-02-23_12h01.07.067,VisualSearch_2526_3,,2025.2.4,2026-02-23 12h01.07.302504 +0100,
tilted.xlsx,The target is tilted.,117,104,0,13,0,1,1,1,1,1,1,1,1,1,1,1,1,11,12,117,space,11.782150600000023,None,0,1,2.722577100000308,None,space,2.8124072000000524,None,0,0,0,0,,,,,13,0,104,4,316.37121030000026,,,,,,,,,,,,,,,,,,,,,316.3560601000004,316.37121030000026,316.8548413000003,316.86032229999955,316.87720130000025,319.6043203000004,,,,,319.6045385000002,319.61988749999955,319.8201101999998,319.8040307999995,316.87720130000025,,,,,,,,0,1,2.722577100000308,None,,,,,,,,851,21,M,R,2026-02-23_12h01.07.067,VisualSearch_2526_3,,2025.2.4,2026-02-23 12h01.07.302504 +0100,
tilted.xlsx,The target is tilted.,117,105,1,13,1,1,1,1,0,0,0,0,0,0,0,0,0,3,4,117,space,11.782150600000023,None,0,0,1.0109564999993381,None,space,2.8124072000000524,None,0,0,0,0,,,,,13,1,105,2,319.8201101999998,,,,,,,,,,,,,,,,,,,,,319.8048262999996,319.8201101999998,320.3038468,320.3093248,320.3254511,321.3529175999997,,,,,321.35301349999963,321.3693890999998,321.5695909000001,321.55310429999963,320.3254511,,,,,,,,0,0,1.0109564999993381,None,,,,,,,,851,21,M,R,2026-02-23_12h01.07.067,VisualSearch_2526_3,,2025.2.4,2026-02-23 12h01.07.302504 +0100,
tilted.xlsx,The target is tilted.,117,106,2,13,1,1,1,1,1,1,1,1,0,0,0,0,0,7,8,117,space,11.782150600000023,None,1,1,1.2736557999996876,None,space,2.8124072000000524,None,0,0,0,0,,,,,13,2,106,1,321.5695909000001,,,,,,,,,,,,,,,,,,,,,321.55394130000013,321.5695909000001,322.05328859999963,322.0587588000003,322.0747558999997,323.3533477999995,,,,,323.3541223999996,323.36878560000014,323.56891179999957,323.55252040000005,322.0747558999997,,,,,,,,1,1,1.2736557999996876,None,,,,,,,,851,21,M,R,2026-02-23_12h01.07.067,VisualSearch_2526_3,,2025.2.4,2026-02-23 12h01.07.302504 +0100,
tilted.xlsx,The target is tilted.,117,107,3,13,1,0,0,0,0,0,0,0,0,0,0,0,0,0,1,117,space,11.782150600000023,None,0,0,0.5486926000003223,None,space,2.8124072000000524,None,0,0,0,0,,,,,13,3,107,3,323.56891179999957,,,,,,,,,,,,,,,,,,,,,323.5533905999996,323.56891179999957,324.0525795999997,324.0584066999995,324.07620329999963,324.63520240000025,,,,,324.63530669999955,324.6509215000001,324.85081500000024,324.83445230000007,324.07620329999963,,,,,,,,0,0,0.5486926000003223,None,,,,,,,,851,21,M,R,2026-02-23_12h01.07.067,VisualSearch_2526_3,,2025.2.4,2026-02-23 12h01.07.302504 +0100,
tilted.xlsx,The target is tilted.,117,108,4,13,0,0,0,0,0,0,0,0,0,0,0,0,1,1,1,117,space,11.782150600000023,None,0,1,0.510493900000256,None,space,2.8124072000000524,None,0,0,0,0,,,,,13,4,108,7,324.85081500000024,,,,,,,,,,,,,,,,,,,,,324.83475190000036,324.85081500000024,325.33476159999964,325.3365554999996,325.3507649999997,325.8678170999997,,,,,325.8679052000002,325.8838953999998,,326.0679875999999,325.3507649999997,,,,,,,,0,1,0.510493900000256,None,,,,,,,,851,21,M,R,2026-02-23_12h01.07.067,VisualSearch_2526_3,,2025.2.4,2026-02-23 12h01.07.302504 +0100,
tilted.xlsx,The target is tilted.,117,109,5,13,0,1,1,1,0,0,0,0,0,0,0,0,1,3,4,117,space,11.782150600000023,None,0,1,1.1681734000003416,None,space,2.8124072000000524,None,0,0,0,0,,,,,13,5,109,6,326.0843200000004,,,,,,,,,,,,,,,,,,,,,326.0686430999999,326.0843200000004,326.5681571,326.5735737,326.5902310999995,327.76877490000015,,,,,327.76899730000014,327.78380849999985,327.9840700999998,327.96801769999956,,,,,,,,,0,1,1.1681734000003416,None,,,,,,,,851,21,M,R,2026-02-23_12h01.07.067,VisualSearch_2526_3,,2025.2.4,2026-02-23 12h01.07.302504 +0100,
tilted.xlsx,The target is tilted.,117,110,6,13,0,1,1,1,1,1,1,1,0,0,0,0,1,7,8,117,space,11.782150600000023,None,1,0,1.9211527000006754,None,space,2.8124072000000524,None,0,0,0,0,,,,,13,6,110,5,327.9840700999998,,,,,,,,,,,,,,,,,,,,,327.96885580000026,327.9840700999998,328.4680430000003,328.47342960000015,328.4885174999995,330.4179218000004,,,,,330.41814550000026,330.43289700000014,330.63314070000024,330.61717290000024,328.4885174999995,,,,,,,,1,0,1.9211527000006754,None,,,,,,,,851,21,M,R,2026-02-23_12h01.07.067,VisualSearch_2526_3,,2025.2.4,2026-02-23 12h01.07.302504 +0100,
tilted.xlsx,The target is tilted.,117,111,7,13,1,1,1,1,1,1,1,1,1,1,1,1,0,11,12,117,space,11.782150600000023,None,0,0,3.0182685999998284,None,space,2.8124072000000524,None,0,0,0,0,,,,,13,7,111,0,330.63314070000024,,,,,,,,,,,,,,,,,,,,,330.61798169999975,330.63314070000024,331.11660770000026,331.12174709999954,331.1324708999996,334.16624679999995,,,,,334.1664311999998,334.1816711999995,334.3819532000002,334.3655268999996,331.1324708999996,,,,,,,,0,0,3.0182685999998284,None,,,,,,,,851,21,M,R,2026-02-23_12h01.07.067,VisualSearch_2526_3,,2025.2.4,2026-02-23 12h01.07.302504 +0100,
tilted.xlsx,The target is tilted.,117,112,0,14,0,1,1,1,1,1,1,1,0,0,0,0,1,7,8,117,space,11.782150600000023,None,1,0,1.6983998000005158,None,space,2.8124072000000524,None,0,0,0,0,,,,,14,0,112,5,334.3819532000002,,,,,,,,,,,,,,,,,,,,,334.36636450000015,334.3819532000002,334.86584059999996,334.8712257000002,334.8877328000003,336.5992892999998,,,,,336.5995087999995,336.6142947000003,336.8144778000001,336.7985168,334.8877328000003,,,,,,,,1,0,1.6983998000005158,None,,,,,,,,851,21,M,R,2026-02-23_12h01.07.067,VisualSearch_2526_3,,2025.2.4,2026-02-23 12h01.07.302504 +0100,
tilted.xlsx,The target is tilted.,117,113,1,14,1,0,0,0,0,0,0,0,0,0,0,0,0,0,1,117,space,11.782150600000023,None,0,0,0.535982000000331,None,space,2.8124072000000524,None,0,0,0,0,,,,,14,1,113,3,336.8144778000001,,,,,,,,,,,,,,,,,,,,,336.7993196000002,336.8144778000001,337.29832269999997,337.3036916999995,337.3170851,337.86478080000006,,,,,337.8649263000002,337.8807879000001,338.08043640000005,338.06435420000025,337.3170851,,,,,,,,0,0,0.535982000000331,None,,,,,,,,851,21,M,R,2026-02-23_12h01.07.067,VisualSearch_2526_3,,2025.2.4,2026-02-23 12h01.07.302504 +0100,
tilted.xlsx,The target is tilted.,117,114,2,14,1,1,1,1,1,1,1,1,1,1,1,1,0,11,12,117,space,11.782150600000023,None,1,1,0.774475799999891,None,space,2.8124072000000524,None,0,0,0,0,,,,,14,2,114,0,338.08043640000005,,,,,,,,,,,,,,,,,,,,,338.0651852999995,338.08043640000005,338.56475790000013,338.56974649999984,338.58041430000003,339.3648452000002,,,,,339.3650967999997,339.3802561999996,339.5803019,339.5642756000002,338.58041430000003,,,,,,,,1,1,0.774475799999891,None,,,,,,,,851,21,M,R,2026-02-23_12h01.07.067,VisualSearch_2526_3,,2025.2.4,2026-02-23 12h01.07.302504 +0100,
tilted.xlsx,The target is tilted.,117,115,3,14,1,1,1,1,0,0,0,0,0,0,0,0,0,3,4,117,space,11.782150600000023,None,0,0,1.297112800000832,None,space,2.8124072000000524,None,0,0,0,0,,,,,14,3,115,2,339.5803019,,,,,,,,,,,,,,,,,,,,,339.5650725999999,339.5803019,340.06399680000004,340.0693061999996,340.08290160000024,341.39656220000006,,,,,341.3966734999999,341.4127090999996,341.6130105999996,341.5969235999996,340.08290160000024,,,,,,,,0,0,1.297112800000832,None,,,,,,,,851,21,M,R,2026-02-23_12h01.07.067,VisualSearch_2526_3,,2025.2.4,2026-02-23 12h01.07.302504 +0100,
tilted.xlsx,The target is tilted.,117,116,4,14,0,1,1,1,1,1,1,1,1,1,1,1,1,11,12,117,space,11.782150600000023,None,0,1,2.410856700000295,None,space,2.8124072000000524,None,0,0,0,0,,,,,14,4,116,4,341.6130105999996,,,,,,,,,,,,,,,,,,,,,341.5977891999996,341.6130105999996,342.09616870000036,342.0985893000002,342.1125956000001,344.5305679999997,,,,,344.53080009999985,344.54510830000027,344.74533550000024,344.7294187000002,342.1125956000001,,,,,,,,0,1,2.410856700000295,None,,,,,,,,851,21,M,R,2026-02-23_12h01.07.067,VisualSearch_2526_3,,2025.2.4,2026-02-23 12h01.07.302504 +0100,
tilted.xlsx,The target is tilted.,117,117,5,14,0,1,1,1,0,0,0,0,0,0,0,0,1,3,4,117,space,11.782150600000023,None,0,1,0.9005058000002464,None,space,2.8124072000000524,None,0,0,0,0,,,,,14,5,117,6,344.74533550000024,,,,,,,,,,,,,,,,,,,,,344.73024039999973,344.74533550000024,345.22911820000036,345.2344122999998,345.25074019999965,346.1619482000001,,,,,346.16210920000003,346.17805389999967,346.3781445999998,346.3616672000003,345.25074019999965,,,,,,,,0,1,0.9005058000002464,None,,,,,,,,851,21,M,R,2026-02-23_12h01.07.067,VisualSearch_2526_3,,2025.2.4,2026-02-23 12h01.07.302504 +0100,
tilted.xlsx,The target is tilted.,117,118,6,14,0,0,0,0,0,0,0,0,0,0,0,0,1,1,1,117,space,11.782150600000023,None,0,1,0.5755697999993572,None,space,2.8124072000000524,None,0,0,0,0,,,,,14,6,118,7,346.3781445999998,,,,,,,,,,,,,,,,,,,,,346.3624885000004,346.3781445999998,346.86193140000023,346.8673299999996,346.8835359999998,347.4625771999995,,,,,347.4627969999997,347.47733199999993,347.6776821999997,347.6616447000001,346.8835359999998,,,,,,,,0,1,0.5755697999993572,None,,,,,,,,851,21,M,R,2026-02-23_12h01.07.067,VisualSearch_2526_3,,2025.2.4,2026-02-23 12h01.07.302504 +0100,
tilted.xlsx,The target is tilted.,117,119,7,14,1,1,1,1,1,1,1,1,0,0,0,0,0,7,8,117,space,11.782150600000023,None,0,0,1.7762944999994943,None,space,2.8124072000000524,None,0,0,0,0,,,,,14,7,119,1,347.6776821999997,,,,,,,,,,,,,,,,,,,,,347.66246399999955,347.6776821999997,348.1615117999995,348.1666344,348.1770640999998,349.96083940000017,,,,,349.96098370000027,349.9767240999995,350.19110450000016,350.1608261999995,348.1770640999998,,,,,,,,0,0,1.7762944999994943,None,,,,,,,,851,21,M,R,2026-02-23_12h01.07.067,VisualSearch_2526_3,,2025.2.4,2026-02-23 12h01.07.302504 +0100,
tilted.xlsx,The target is tilted.,117,0,0,0,,,,,,,,,,,,,,,,,space,11.782150600000023,None,,,,,space,2.8124072000000524,None,0,0,0,0,,,,,,,,,,,,,,,,,,,,,,,,,,,,,,,,,,,,,,,,,,,,,,,,,,,,,,,,,,,,,,,851,21,M,R,2026-02-23_12h01.07.067,VisualSearch_2526_3,,2025.2.4,2026-02-23 12h01.07.302504 +0100,
vertical.xlsx,The target is tilted.,135,0,0,0,1,1,1,1,1,1,1,1,0,0,0,0,0,7,8,135,space,4.339270999999826,None,1,1,0.7847195000003921,None,,,,0,1,1,1,0,0,0,1,,,,,354.5685249000003,,,,,,,,,,,,,,,350.19110450000016,350.19110450000016,350.19110450000016,space,4.339270999999826,None,354.5646466000003,354.5685249000003,355.0589509999995,355.0637955999996,355.0750489999996,355.8758075999999,1,1,0.7847195000003921,None,355.8760062999995,355.8913325999997,356.09168180000006,356.0756742999997,,,,,,,,,,,,,,,,,,,,851,21,M,R,2026-02-23_12h01.07.067,VisualSearch_2526_3,,2025.2.4,2026-02-23 12h01.07.302504 +0100,
vertical.xlsx,The target is tilted.,135,1,1,0,1,1,1,1,0,0,0,0,0,0,0,0,0,3,4,135,space,4.339270999999826,None,1,1,0.48322189999998955,None,,,,0,1,1,1,0,1,1,2,,,,,356.09168180000006,,,,,,,,,,,,,,,,,,,,,356.07641680000006,356.09168180000006,356.5754558000003,356.5811050999996,356.59512529999984,357.0916996000001,1,1,0.48322189999998955,None,357.09181990000025,357.1076108000002,357.30780900000036,357.29153879999967,356.59512529999984,,,,,,,,,,,,,,,,,,,851,21,M,R,2026-02-23_12h01.07.067,VisualSearch_2526_3,,2025.2.4,2026-02-23 12h01.07.302504 +0100,
vertical.xlsx,The target is tilted.,135,2,2,0,0,0,0,0,0,0,0,0,0,0,0,0,1,1,1,135,space,4.339270999999826,None,0,1,0.46210730000075273,None,,,,0,1,1,1,0,2,2,7,,,,,357.30780900000036,,,,,,,,,,,,,,,,,,,,,357.29232339999953,357.30780900000036,357.79174439999997,357.7967738000002,357.8076169000001,358.27516549999973,0,1,0.46210730000075273,None,358.27536480000026,358.29079930000034,358.4908859000002,358.4748279999999,357.8076169000001,,,,,,,,,,,,,,,,,,,851,21,M,R,2026-02-23_12h01.07.067,VisualSearch_2526_3,,2025.2.4,2026-02-23 12h01.07.302504 +0100,
vertical.xlsx,The target is tilted.,135,3,3,0,0,1,1,1,0,0,0,0,0,0,0,0,1,3,4,135,space,4.339270999999826,None,0,1,0.72428360000049,None,,,,0,1,1,1,0,3,3,6,,,,,358.4908859000002,,,,,,,,,,,,,,,,,,,,,358.47560269999985,358.4908859000002,358.9745200000002,358.9799688999997,358.99403909999955,359.72466310000027,0,1,0.72428360000049,None,359.7248292999998,359.7402108000001,359.94035870000016,359.92426320000004,358.99403909999955,,,,,,,,,,,,,,,,,,,851,21,M,R,2026-02-23_12h01.07.067,VisualSearch_2526_3,,2025.2.4,2026-02-23 12h01.07.302504 +0100,
vertical.xlsx,The target is tilted.,135,4,4,0,0,1,1,1,1,1,1,1,1,1,1,1,1,11,12,135,space,4.339270999999826,None,0,1,2.2478680000003806,None,,,,0,1,1,1,0,4,4,4,,,,,359.94035870000016,,,,,,,,,,,,,,,,,,,,,359.92504899999994,359.94035870000016,360.42383910000035,360.42922709999993,360.44244969999954,362.7074054999998,0,1,2.2478680000003806,None,362.70762460000014,362.72268049999957,362.92258230000016,362.90658940000003,360.44244969999954,,,,,,,,,,,,,,,,,,,851,21,M,R,2026-02-23_12h01.07.067,VisualSearch_2526_3,,2025.2.4,2026-02-23 12h01.07.302504 +0100,
vertical.xlsx,The target is tilted.,135,5,5,0,1,1,1,1,1,1,1,1,1,1,1,1,0,11,12,135,space,4.339270999999826,None,1,1,0.7370076999995945,None,,,,0,1,1,1,0,5,5,0,,,,,362.92258230000016,,,,,,,,,,,,,,,,,,,,,362.90733109999974,362.92258230000016,363.40647260000014,363.41135259999965,363.4221795999997,364.1732514,1,1,0.7370076999995945,None,364.1734652,364.1888275999995,364.38869300000033,364.3725381999998,363.4221795999997,,,,,,,,,,,,,,,,,,,851,21,M,R,2026-02-23_12h01.07.067,VisualSearch_2526_3,,2025.2.4,2026-02-23 12h01.07.302504 +0100,
vertical.xlsx,The target is tilted.,135,6,6,0,1,0,0,0,0,0,0,0,0,0,0,0,0,0,1,135,space,4.339270999999826,None,1,1,0.5493488000001889,None,,,,0,1,1,1,0,6,6,3,,,,,364.38869300000033,,,,,,,,,,,,,,,,,,,,,364.37332800000013,364.38869300000033,364.8727719000003,364.87801850000005,364.8960824999999,365.45582609999974,1,1,0.5493488000001889,None,365.4559635999999,365.4715500999996,365.6719686000001,365.6560271000003,364.8960824999999,,,,,,,,,,,,,,,,,,,851,21,M,R,2026-02-23_12h01.07.067,VisualSearch_2526_3,,2025.2.4,2026-02-23 12h01.07.302504 +0100,
vertical.xlsx,The target is tilted.,135,7,7,0,0,1,1,1,1,1,1,1,0,0,0,0,1,7,8,135,space,4.339270999999826,None,0,1,1.5572549999997136,None,,,,0,1,1,1,0,7,7,5,,,,,365.6719686000001,,,,,,,,,,,,,,,,,,,,,365.65681129999984,365.6719686000001,366.15570230000003,366.16105600000037,366.1765981000003,367.7390693000002,0,1,1.5572549999997136,None,367.7393168000003,367.7540463999999,367.9539428000003,367.93859079999993,366.1765981000003,,,,,,,,,,,,,,,,,,,851,21,M,R,2026-02-23_12h01.07.067,VisualSearch_2526_3,,2025.2.4,2026-02-23 12h01.07.302504 +0100,
vertical.xlsx,The target is tilted.,135,0,0,0,0,1,1,1,0,0,0,0,0,0,0,0,1,3,4,135,space,4.339270999999826,None,0,1,0.65535650000038,None,space,1.908698700000059,None,0,1,1,1,,,,,0,0,0,6,369.90020739999954,,,,,,,,,,,,,,,,,,,,,369.8963015000004,369.90020739999954,370.3872944999998,370.39332520000016,370.40874329999997,371.0710326000003,,,,,371.0712294,371.0867338000003,371.2863487999998,371.2705202000002,,367.94641060000004,367.9539428000003,367.9539428000003,369.8712776999996,space,1.908698700000059,None,0,1,0.65535650000038,None,,,,,,,,851,21,M,R,2026-02-23_12h01.07.067,VisualSearch_2526_3,,2025.2.4,2026-02-23 12h01.07.302504 +0100,
vertical.xlsx,The target is tilted.,135,1,1,0,1,1,1,1,0,0,0,0,0,0,0,0,0,3,4,135,space,4.339270999999826,None,1,1,0.5421420000002399,None,space,1.908698700000059,None,0,1,1,1,,,,,0,1,1,2,371.2863487999998,,,,,,,,,,,,,,,,,,,,,371.2713719999997,371.2863487999998,371.77045709999993,371.775658,371.7935328999997,372.3372059999997,,,,,372.3373770000003,372.3529745999999,372.5528412999997,372.53698699999995,371.7935328999997,,,,,,,,1,1,0.5421420000002399,None,,,,,,,,851,21,M,R,2026-02-23_12h01.07.067,VisualSearch_2526_3,,2025.2.4,2026-02-23 12h01.07.302504 +0100,
vertical.xlsx,The target is tilted.,135,2,2,0,0,1,1,1,1,1,1,1,1,1,1,1,1,11,12,135,space,4.339270999999826,None,0,1,2.2190951000002315,None,space,1.908698700000059,None,0,1,1,1,,,,,0,2,2,4,372.5528412999997,,,,,,,,,,,,,,,,,,,,,372.5377897000003,372.5528412999997,373.03682230000004,373.04213560000017,373.05526359999976,375.28655969999954,,,,,375.2868034999997,375.301704,375.50195459999986,375.48592020000024,373.05526359999976,,,,,,,,0,1,2.2190951000002315,None,,,,,,,,851,21,M,R,2026-02-23_12h01.07.067,VisualSearch_2526_3,,2025.2.4,2026-02-23 12h01.07.302504 +0100,
vertical.xlsx,The target is tilted.,135,3,3,0,1,1,1,1,1,1,1,1,0,0,0,0,0,7,8,135,space,4.339270999999826,None,1,1,0.6818726999999853,None,space,1.908698700000059,None,0,1,1,1,,,,,0,3,3,1,375.50195459999986,,,,,,,,,,,,,,,,,,,,,375.4867640999996,375.50195459999986,375.9857369999995,375.9912668000002,376.0051741000002,376.70203679999986,,,,,376.7022087999999,376.7176588999996,376.91825430000017,376.9021310000003,376.0051741000002,,,,,,,,1,1,0.6818726999999853,None,,,,,,,,851,21,M,R,2026-02-23_12h01.07.067,VisualSearch_2526_3,,2025.2.4,2026-02-23 12h01.07.302504 +0100,
vertical.xlsx,The target is tilted.,135,4,4,0,0,1,1,1,1,1,1,1,0,0,0,0,1,7,8,135,space,4.339270999999826,None,0,1,1.3661307000002125,None,space,1.908698700000059,None,0,1,1,1,,,,,0,4,4,5,376.91825430000017,,,,,,,,,,,,,,,,,,,,,376.9029459999997,376.91825430000017,377.4018381000001,377.40721729999996,377.4229934,378.80208040000025,,,,,378.80231460000005,378.8172983999998,379.01757680000037,379.0015085,377.4229934,,,,,,,,0,1,1.3661307000002125,None,,,,,,,,851,21,M,R,2026-02-23_12h01.07.067,VisualSearch_2526_3,,2025.2.4,2026-02-23 12h01.07.302504 +0100,
vertical.xlsx,The target is tilted.,135,5,5,0,1,1,1,1,1,1,1,1,1,1,1,1,0,11,12,135,space,4.339270999999826,None,1,1,0.68265429999974,None,space,1.908698700000059,None,0,1,1,1,,,,,0,5,5,0,379.01757680000037,,,,,,,,,,,,,,,,,,,,,379.0023477999998,379.01757680000037,379.50138259999994,379.50676299999986,379.5223625000003,380.2183178,,,,,380.2185950999997,380.23350679999976,380.4336969000001,380.41760939999995,379.5223625000003,,,,,,,,1,1,0.68265429999974,None,,,,,,,,851,21,M,R,2026-02-23_12h01.07.067,VisualSearch_2526_3,,2025.2.4,2026-02-23 12h01.07.302504 +0100,
vertical.xlsx,The target is tilted.,135,6,6,0,1,0,0,0,0,0,0,0,0,0,0,0,0,0,1,135,space,4.339270999999826,None,1,1,0.522828600000139,None,space,1.908698700000059,None,0,1,1,1,,,,,0,6,6,3,380.4336969000001,,,,,,,,,,,,,,,,,,,,,380.41844489999994,380.4336969000001,380.9175656000002,380.9229306000002,380.9385119000003,381.4678917999995,,,,,381.46812699999964,381.48339199999964,381.6832903999998,381.6673017999997,380.9385119000003,,,,,,,,1,1,0.522828600000139,None,,,,,,,,851,21,M,R,2026-02-23_12h01.07.067,VisualSearch_2526_3,,2025.2.4,2026-02-23 12h01.07.302504 +0100,
vertical.xlsx,The target is tilted.,135,7,7,0,0,0,0,0,0,0,0,0,0,0,0,0,1,1,1,135,space,4.339270999999826,None,0,1,0.48331839999991644,None,space,1.908698700000059,None,0,1,1,1,,,,,0,7,7,7,381.6832903999998,,,,,,,,,,,,,,,,,,,,,381.6682128999996,381.6832903999998,382.16707480000014,382.17268939999985,382.1881480999996,382.68414770000027,,,,,382.68438749999996,382.6996766999996,382.8991850999996,382.8832274000001,382.1881480999996,,,,,,,,0,1,0.48331839999991644,None,,,,,,,,851,21,M,R,2026-02-23_12h01.07.067,VisualSearch_2526_3,,2025.2.4,2026-02-23 12h01.07.302504 +0100,
vertical.xlsx,The target is tilted.,135,8,0,1,1,1,1,1,1,1,1,1,0,0,0,0,0,7,8,135,space,4.339270999999826,None,0,0,1.0983955000001515,None,space,1.908698700000059,None,0,1,1,1,,,,,1,0,8,1,382.8991850999996,,,,,,,,,,,,,,,,,,,,,382.8840677000003,382.8991850999996,383.3833116999999,383.38867270000037,383.4013637000003,384.5168865999999,,,,,384.51712009999983,384.5324208999996,384.73207030000003,384.7162792000004,383.4013637000003,,,,,,,,0,0,1.0983955000001515,None,,,,,,,,851,21,M,R,2026-02-23_12h01.07.067,VisualSearch_2526_3,,2025.2.4,2026-02-23 12h01.07.302504 +0100,
vertical.xlsx,The target is tilted.,135,9,1,1,1,1,1,1,0,0,0,0,0,0,0,0,0,3,4,135,space,4.339270999999826,None,1,1,0.46301279999988765,None,space,1.908698700000059,None,0,1,1,1,,,,,1,1,9,2,384.73207030000003,,,,,,,,,,,,,,,,,,,,,384.7171096999996,384.73207030000003,385.2158359,385.2210799999998,385.2407427000003,385.7165437999997,,,,,385.71681299999955,385.7316272000003,385.9315521000003,385.9159292999998,385.2407427000003,,,,,,,,1,1,0.46301279999988765,None,,,,,,,,851,21,M,R,2026-02-23_12h01.07.067,VisualSearch_2526_3,,2025.2.4,2026-02-23 12h01.07.302504 +0100,
vertical.xlsx,The target is tilted.,135,10,2,1,0,1,1,1,0,0,0,0,0,0,0,0,1,3,4,135,space,4.339270999999826,None,0,1,0.5492702000001373,None,space,1.908698700000059,None,0,1,1,1,,,,,1,2,10,6,385.9315521000003,,,,,,,,,,,,,,,,,,,,,385.91674809999995,385.9315521000003,386.41533240000035,386.42061630000035,386.4344852999998,386.9995391999996,,,,,386.99975760000007,387.01486950000026,387.21449689999963,387.19872929999974,386.4344852999998,,,,,,,,0,1,0.5492702000001373,None,,,,,,,,851,21,M,R,2026-02-23_12h01.07.067,VisualSearch_2526_3,,2025.2.4,2026-02-23 12h01.07.302504 +0100,
vertical.xlsx,The target is tilted.,135,11,3,1,1,0,0,0,0,0,0,0,0,0,0,0,0,0,1,135,space,4.339270999999826,None,1,1,0.43978100000003906,None,space,1.908698700000059,None,0,1,1,1,,,,,1,3,11,3,387.21449689999963,,,,,,,,,,,,,,,,,,,,,387.19956460000003,387.21449689999963,387.6988004,387.70367510000005,387.7144837000001,388.1657736000002,,,,,388.1660257999997,388.1812431000003,388.3811738999998,388.3650998999997,387.7144837000001,,,,,,,,1,1,0.43978100000003906,None,,,,,,,,851,21,M,R,2026-02-23_12h01.07.067,VisualSearch_2526_3,,2025.2.4,2026-02-23 12h01.07.302504 +0100,
vertical.xlsx,The target is tilted.,135,12,4,1,0,1,1,1,1,1,1,1,1,1,1,1,1,11,12,135,space,4.339270999999826,None,0,1,1.584623300000203,None,space,1.908698700000059,None,0,1,1,1,,,,,1,4,12,4,388.3811738999998,,,,,,,,,,,,,,,,,,,,,388.3659368000003,388.3811738999998,388.864916,388.8695382000001,388.8806284999996,390.48172790000035,,,,,390.4819523000001,390.49684879999995,390.69715589999987,390.6810680000003,388.8806284999996,,,,,,,,0,1,1.584623300000203,None,,,,,,,,851,21,M,R,2026-02-23_12h01.07.067,VisualSearch_2526_3,,2025.2.4,2026-02-23 12h01.07.302504 +0100,
vertical.xlsx,The target is tilted.,135,13,5,1,0,0,0,0,0,0,0,0,0,0,0,0,1,1,1,135,space,4.339270999999826,None,0,1,0.616188100000727,None,space,1.908698700000059,None,0,1,1,1,,,,,1,5,13,7,390.69715589999987,,,,,,,,,,,,,,,,,,,,,390.68187629999966,390.69715589999987,391.18083650000017,391.18570580000005,391.19665680000026,391.81459010000026,,,,,391.8148401000003,391.8297619,392.03014980000034,392.0138737000002,391.19665680000026,,,,,,,,0,1,0.616188100000727,None,,,,,,,,851,21,M,R,2026-02-23_12h01.07.067,VisualSearch_2526_3,,2025.2.4,2026-02-23 12h01.07.302504 +0100,
vertical.xlsx,The target is tilted.,135,14,6,1,0,1,1,1,1,1,1,1,0,0,0,0,1,7,8,135,space,4.339270999999826,None,0,1,1.3597187000004851,None,space,1.908698700000059,None,0,1,1,1,,,,,1,6,14,5,392.03014980000034,,,,,,,,,,,,,,,,,,,,,392.01469529999986,392.03014980000034,392.51375249999955,392.51918539999997,392.5338901,393.89659299999994,,,,,393.8967267000003,393.9124502999998,394.11234769999965,394.0966107999998,392.5338901,,,,,,,,0,1,1.3597187000004851,None,,,,,,,,851,21,M,R,2026-02-23_12h01.07.067,VisualSearch_2526_3,,2025.2.4,2026-02-23 12h01.07.302504 +0100,
vertical.xlsx,The target is tilted.,135,15,7,1,1,1,1,1,1,1,1,1,1,1,1,1,0,11,12,135,space,4.339270999999826,None,1,1,0.7273585999992065,None,space,1.908698700000059,None,0,1,1,1,,,,,1,7,15,0,394.11234769999965,,,,,,,,,,,,,,,,,,,,,394.09744009999986,394.11234769999965,394.59650869999996,394.6015861000001,394.6121895000001,395.3465890000002,,,,,395.3468068999996,395.3619227000004,395.56180280000035,395.5457905999997,394.6121895000001,,,,,,,,1,1,0.7273585999992065,None,,,,,,,,851,21,M,R,2026-02-23_12h01.07.067,VisualSearch_2526_3,,2025.2.4,2026-02-23 12h01.07.302504 +0100,
vertical.xlsx,The target is tilted.,135,16,0,2,1,1,1,1,1,1,1,1,0,0,0,0,0,7,8,135,space,4.339270999999826,None,0,0,1.039261500000066,None,space,1.908698700000059,None,0,1,1,1,,,,,2,0,16,1,395.56180280000035,,,,,,,,,,,,,,,,,,,,,395.5466438999997,395.56180280000035,396.0459307999995,396.0517997000002,396.0680385999999,397.1119455000003,,,,,397.1120914999997,397.1280624999995,397.3282584000003,397.3118919000003,396.0680385999999,,,,,,,,0,0,1.039261500000066,None,,,,,,,,851,21,M,R,2026-02-23_12h01.07.067,VisualSearch_2526_3,,2025.2.4,2026-02-23 12h01.07.302504 +0100,
vertical.xlsx,The target is tilted.,135,17,1,2,1,1,1,1,1,1,1,1,1,1,1,1,0,11,12,135,space,4.339270999999826,None,1,1,1.3784684000002017,None,space,1.908698700000059,None,0,1,1,1,,,,,2,1,17,0,397.3282584000003,,,,,,,,,,,,,,,,,,,,,397.3127792999999,397.3282584000003,397.81192469999996,397.81725460000007,397.83364440000014,399.2289397999998,,,,,399.2291588000003,399.24391849999984,399.44423010000037,399.4278707999997,397.83364440000014,,,,,,,,1,1,1.3784684000002017,None,,,,,,,,851,21,M,R,2026-02-23_12h01.07.067,VisualSearch_2526_3,,2025.2.4,2026-02-23 12h01.07.302504 +0100,
vertical.xlsx,The target is tilted.,135,18,2,2,1,1,1,1,0,0,0,0,0,0,0,0,0,3,4,135,space,4.339270999999826,None,1,1,0.463321399999586,None,space,1.908698700000059,None,0,1,1,1,,,,,2,2,18,2,399.44423010000037,,,,,,,,,,,,,,,,,,,,,399.4287184,399.44423010000037,399.9280488999998,399.93354190000036,399.94851869999957,400.42850919999955,,,,,400.4287245999999,400.4435155999995,400.64381600000024,400.62774390000004,399.94851869999957,,,,,,,,1,1,0.463321399999586,None,,,,,,,,851,21,M,R,2026-02-23_12h01.07.067,VisualSearch_2526_3,,2025.2.4,2026-02-23 12h01.07.302504 +0100,
vertical.xlsx,The target is tilted.,135,19,3,2,0,1,1,1,1,1,1,1,1,1,1,1,1,11,12,135,space,4.339270999999826,None,0,1,1.8066309000005276,None,space,1.908698700000059,None,0,1,1,1,,,,,2,3,19,4,400.64381600000024,,,,,,,,,,,,,,,,,,,,,400.62856390000024,400.64381600000024,401.1276726000001,401.13277009999956,401.1435115999998,402.96092650000037,,,,,402.96117600000025,402.9761260999999,403.1763490999997,403.1601604000002,401.1435115999998,,,,,,,,0,1,1.8066309000005276,None,,,,,,,,851,21,M,R,2026-02-23_12h01.07.067,VisualSearch_2526_3,,2025.2.4,2026-02-23 12h01.07.302504 +0100,
vertical.xlsx,The target is tilted.,135,20,4,2,1,0,0,0,0,0,0,0,0,0,0,0,0,0,1,135,space,4.339270999999826,None,1,1,0.5508262000003015,None,space,1.908698700000059,None,0,1,1,1,,,,,2,4,20,3,403.1763490999997,,,,,,,,,,,,,,,,,,,,,403.16102850000016,403.1763490999997,403.66036080000003,403.6657282000001,403.68127419999973,404.2436630999996,,,,,404.24388229999977,404.2589703999997,404.4592921999997,404.44288929999993,403.68127419999973,,,,,,,,1,1,0.5508262000003015,None,,,,,,,,851,21,M,R,2026-02-23_12h01.07.067,VisualSearch_2526_3,,2025.2.4,2026-02-23 12h01.07.302504 +0100,
vertical.xlsx,The target is tilted.,135,21,5,2,0,1,1,1,1,1,1,1,0,0,0,0,1,7,8,135,space,4.339270999999826,None,0,1,1.5762461000003896,None,space,1.908698700000059,None,0,1,1,1,,,,,2,5,21,5,404.4592921999997,,,,,,,,,,,,,,,,,,,,,404.4437560000001,404.4592921999997,404.94277329999977,404.9487664000003,404.9632971999995,406.5425295,,,,,406.54266619999953,406.5583736000003,406.7581745000002,406.74250379999967,404.9632971999995,,,,,,,,0,1,1.5762461000003896,None,,,,,,,,851,21,M,R,2026-02-23_12h01.07.067,VisualSearch_2526_3,,2025.2.4,2026-02-23 12h01.07.302504 +0100,
vertical.xlsx,The target is tilted.,135,22,6,2,0,0,0,0,0,0,0,0,0,0,0,0,1,1,1,135,space,4.339270999999826,None,0,1,0.4869435999999041,None,space,1.908698700000059,None,0,1,1,1,,,,,2,6,22,7,406.7581745000002,,,,,,,,,,,,,,,,,,,,,406.7433681999996,406.7581745000002,407.24112639999976,407.24297119999983,407.2575333,407.75777160000007,,,,,407.75785700000006,407.7739813000003,407.9739691,407.9575093999997,407.2575333,,,,,,,,0,1,0.4869435999999041,None,,,,,,,,851,21,M,R,2026-02-23_12h01.07.067,VisualSearch_2526_3,,2025.2.4,2026-02-23 12h01.07.302504 +0100,
vertical.xlsx,The target is tilted.,135,23,7,2,0,1,1,1,0,0,0,0,0,0,0,0,1,3,4,135,space,4.339270999999826,None,0,1,1.0826661999999487,None,space,1.908698700000059,None,0,1,1,1,,,,,2,7,23,6,407.9739691,,,,,,,,,,,,,,,,,,,,,407.9578563,407.9739691,408.45746850000023,408.45937989999993,408.4738784999995,409.5574838999996,,,,,409.5576226999997,409.5734494000003,,409.75782200000003,408.4738784999995,,,,,,,,0,1,1.0826661999999487,None,,,,,,,,851,21,M,R,2026-02-23_12h01.07.067,VisualSearch_2526_3,,2025.2.4,2026-02-23 12h01.07.302504 +0100,
vertical.xlsx,The target is tilted.,135,24,0,3,1,1,1,1,1,1,1,1,1,1,1,1,0,11,12,135,space,4.339270999999826,None,1,1,0.9292027999999846,None,space,1.908698700000059,None,0,1,1,1,,,,,3,0,24,0,409.77418439999974,,,,,,,,,,,,,,,,,,,,,409.75874350000004,409.77418439999974,410.25796579999997,410.26411099999996,410.28364399999964,411.22365450000007,,,,,411.22373899999957,411.2395657000002,,411.4241427000002,,,,,,,,,1,1,0.9292027999999846,None,,,,,,,,851,21,M,R,2026-02-23_12h01.07.067,VisualSearch_2526_3,,2025.2.4,2026-02-23 12h01.07.302504 +0100,
vertical.xlsx,The target is tilted.,135,25,1,3,0,0,0,0,0,0,0,0,0,0,0,0,1,1,1,135,space,4.339270999999826,None,0,1,0.41632639999988896,None,space,1.908698700000059,None,0,1,1,1,,,,,3,1,25,7,411.4405419999998,,,,,,,,,,,,,,,,,,,,,411.4251042000001,411.4405419999998,411.9241287,411.9297935999998,411.9459449000001,412.3738821000002,,,,,412.3740270000003,412.3898505000002,412.5898658000001,412.5737551999996,411.9459449000001,,,,,,,,0,1,0.41632639999988896,None,,,,,,,,851,21,M,R,2026-02-23_12h01.07.067,VisualSearch_2526_3,,2025.2.4,2026-02-23 12h01.07.302504 +0100,
vertical.xlsx,The target is tilted.,135,26,2,3,0,1,1,1,0,0,0,0,0,0,0,0,1,3,4,135,space,4.339270999999826,None,0,1,0.8921514000003299,None,space,1.908698700000059,None,0,1,1,1,,,,,3,2,26,6,412.5898658000001,,,,,,,,,,,,,,,,,,,,,412.5745960999998,412.5898658000001,413.07382480000024,413.0772871000004,413.0897033999995,413.9900610999998,,,,,413.9901839999998,414.00603530000035,414.20578109999997,414.18992579999986,413.0897033999995,,,,,,,,0,1,0.8921514000003299,None,,,,,,,,851,21,M,R,2026-02-23_12h01.07.067,VisualSearch_2526_3,,2025.2.4,2026-02-23 12h01.07.302504 +0100,
vertical.xlsx,The target is tilted.,135,27,3,3,1,1,1,1,0,0,0,0,0,0,0,0,0,3,4,135,space,4.339270999999826,None,1,1,0.5451863999996931,None,space,1.908698700000059,None,0,1,1,1,,,,,3,3,27,2,414.20578109999997,,,,,,,,,,,,,,,,,,,,,414.19077830000015,414.20578109999997,414.6899658999996,414.6950420999997,414.70559339999954,415.2561198999997,,,,,415.2562892000001,415.2717749999997,415.4720639000002,415.4563559000003,414.70559339999954,,,,,,,,1,1,0.5451863999996931,None,,,,,,,,851,21,M,R,2026-02-23_12h01.07.067,VisualSearch_2526_3,,2025.2.4,2026-02-23 12h01.07.302504 +0100,
vertical.xlsx,The target is tilted.,135,28,4,3,1,0,0,0,0,0,0,0,0,0,0,0,0,0,1,135,space,4.339270999999826,None,1,1,0.5703097999994498,None,space,1.908698700000059,None,0,1,1,1,,,,,3,4,28,3,415.4720639000002,,,,,,,,,,,,,,,,,,,,,415.4571398000003,415.4720639000002,415.9563256999995,415.9617250999995,415.9778412999999,416.55611350000027,,,,,416.55628579999984,416.57186239999965,416.77197709999973,416.7558697999998,415.9778412999999,,,,,,,,1,1,0.5703097999994498,None,,,,,,,,851,21,M,R,2026-02-23_12h01.07.067,VisualSearch_2526_3,,2025.2.4,2026-02-23 12h01.07.302504 +0100,
vertical.xlsx,The target is tilted.,135,29,5,3,0,1,1,1,1,1,1,1,1,1,1,1,1,11,12,135,space,4.339270999999826,None,0,1,1.9838171999999759,None,space,1.908698700000059,None,0,1,1,1,,,,,3,5,29,4,416.77197709999973,,,,,,,,,,,,,,,,,,,,,416.75669359999983,416.77197709999973,417.25573870000017,417.2611439999996,417.2761082000002,419.2720508999996,,,,,419.27224499999966,419.2875888000003,419.48760340000035,419.4714805999997,417.2761082000002,,,,,,,,0,1,1.9838171999999759,None,,,,,,,,851,21,M,R,2026-02-23_12h01.07.067,VisualSearch_2526_3,,2025.2.4,2026-02-23 12h01.07.302504 +0100,
vertical.xlsx,The target is tilted.,135,30,6,3,0,1,1,1,1,1,1,1,0,0,0,0,1,7,8,135,space,4.339270999999826,None,0,1,1.6698693999996976,None,space,1.908698700000059,None,0,1,1,1,,,,,3,6,30,5,419.48760340000035,,,,,,,,,,,,,,,,,,,,,419.47238700000025,419.48760340000035,419.97160060000033,419.97688789999984,419.9931883000004,421.67114379999975,,,,,421.67130380000026,421.6868120000004,421.8869702999996,421.8708840000004,419.9931883000004,,,,,,,,0,1,1.6698693999996976,None,,,,,,,,851,21,M,R,2026-02-23_12h01.07.067,VisualSearch_2526_3,,2025.2.4,2026-02-23 12h01.07.302504 +0100,
vertical.xlsx,The target is tilted.,135,31,7,3,1,1,1,1,1,1,1,1,0,0,0,0,0,7,8,135,space,4.339270999999826,None,1,1,0.7235649000003832,None,space,1.908698700000059,None,0,1,1,1,,,,,3,7,31,1,421.8869702999996,,,,,,,,,,,,,,,,,,,,,421.8717019999999,421.8869702999996,422.3706116999997,422.3751557999999,422.38656909999963,423.12104130000034,,,,,423.12129349999987,423.1364005999999,423.33649860000014,423.3204456999997,422.38656909999963,,,,,,,,1,1,0.7235649000003832,None,,,,,,,,851,21,M,R,2026-02-23_12h01.07.067,VisualSearch_2526_3,,2025.2.4,2026-02-23 12h01.07.302504 +0100,
vertical.xlsx,The target is tilted.,135,32,0,4,1,1,1,1,1,1,1,1,0,0,0,0,0,7,8,135,space,4.339270999999826,None,1,1,0.58941379999942,None,space,1.908698700000059,None,0,1,1,1,,,,,4,0,32,1,423.33649860000014,,,,,,,,,,,,,,,,,,,,,423.32133250000015,423.33649860000014,423.8199307,423.82539919999954,423.8392055999998,424.437058,,,,,424.4372376999995,424.45262200000025,424.65269860000035,424.63659400000006,423.8392055999998,,,,,,,,1,1,0.58941379999942,None,,,,,,,,851,21,M,R,2026-02-23_12h01.07.067,VisualSearch_2526_3,,2025.2.4,2026-02-23 12h01.07.302504 +0100,
vertical.xlsx,The target is tilted.,135,33,1,4,0,0,0,0,0,0,0,0,0,0,0,0,1,1,1,135,space,4.339270999999826,None,0,1,0.45742410000002565,None,space,1.908698700000059,None,0,1,1,1,,,,,4,1,33,7,424.65269860000035,,,,,,,,,,,,,,,,,,,,,424.63741900000014,424.65269860000035,425.13613680000026,425.1403677000003,425.15548309999986,425.62009119999993,,,,,425.6202339999995,425.63531190000003,425.8355065999999,425.8196680999995,425.15548309999986,,,,,,,,0,1,0.45742410000002565,None,,,,,,,,851,21,M,R,2026-02-23_12h01.07.067,VisualSearch_2526_3,,2025.2.4,2026-02-23 12h01.07.302504 +0100,
vertical.xlsx,The target is tilted.,135,34,2,4,1,1,1,1,0,0,0,0,0,0,0,0,0,3,4,135,space,4.339270999999826,None,1,1,0.5596316999999544,None,space,1.908698700000059,None,0,1,1,1,,,,,4,2,34,2,425.8355065999999,,,,,,,,,,,,,,,,,,,,,425.82052689999955,425.8355065999999,426.31848630000013,426.3214030000004,426.33523360000027,426.90308119999963,,,,,426.9033201999996,426.9186791999996,427.1183761999996,427.1018774999998,426.33523360000027,,,,,,,,1,1,0.5596316999999544,None,,,,,,,,851,21,M,R,2026-02-23_12h01.07.067,VisualSearch_2526_3,,2025.2.4,2026-02-23 12h01.07.302504 +0100,
