file_name,block_instructions,target_example,thisN,thisTrialN,thisRepN,target_presence,opacity_1,opacity_2,opacity_3,opacity_4,opacity_5,opacity_6,opacity_7,opacity_8,opacity_9,opacity_10,opacity_11,opacity_12,n_distract,n_items,target_ori,key_resp_4.keys,key_resp_4.rt,key_resp_4.duration,key_resp.keys,key_resp.corr,key_resp.rt,key_resp.duration,key_resp_5.keys,key_resp_5.rt,key_resp_5.duration,blocks.thisRepN,blocks.thisTrialN,blocks.thisN,blocks.thisIndex,practice_trials.thisRepN,practice_trials.thisTrialN,practice_trials.thisN,practice_trials.thisIndex,trials.thisRepN,trials.thisTrialN,trials.thisN,trials.thisIndex,thisRow.t,notes,Welcome.started,WelcomeText.started,key_resp_2.started,Welcome.stopped,key_resp_2.keys,key_resp_2.rt,key_resp_2.duration,InformedConsent.started,text_4.started,InformedConsent.stopped,key_resp_6.keys,key_resp_6.rt,key_resp_6.duration,key_resp_4.started,example_target.started,text_3.started,blocks.key_resp_4.keys,blocks.key_resp_4.rt,blocks.key_resp_4.duration,FixCross.started,fixCross.started,FixCross.stopped,Stimulus.started,key_resp.started,Stimulus.stopped,practice_trials.key_resp.keys,practice_trials.key_resp.corr,practice_trials.key_resp.rt,practice_trials.key_resp.duration,BlankScreen.started,text.started,text.stopped,BlankScreen.stopped,fixCross.stopped,ExperimentStart.started,text_2.started,key_resp_5.started,ExperimentStart.stopped,blocks.key_resp_5.keys,blocks.key_resp_5.rt,blocks.key_resp_5.duration,trials.key_resp.keys,trials.key_resp.corr,trials.key_resp.rt,trials.key_resp.duration,Thanks.started,ThankYou.started,key_resp_3.started,Thanks.stopped,key_resp_3.keys,key_resp_3.rt,key_resp_3.duration,participant,leeftijd,gender,links/rechtshandig,date,expName,expVersion,psychopyVersion,expStart,
,,,,,,,,,,,,,,,,,,,,,,,,,,,,,,,,,,,,,,,,,,,,,,0.0276477999996132,0.05763569999999163,0.05763569999999163,27.434442200000376,space,27.343541600000208,None,,,,,,,,,,,,,,,,,,,,,,,,,,,,,,,,,,,,,,,,,,,,,,852,23,V,R,2026-02-23_12h14.01.393,VisualSearch_2526_3,,2025.2.4,2026-02-23 12h14.01.634658 +0100,
,,,,,,,,,,,,,,,,,,,,,,,,,,,,,,,,,,,,,,,,,,,,,,,,,,,,,27.43461180000031,27.44375570000011,30.883538099999896,y,3.4388633999997182,None,,,,,,,,,,,,,,,,,,,,,,,,,,,,,,,,,,,,,,,,852,23,V,R,2026-02-23_12h14.01.393,VisualSearch_2526_3,,2025.2.4,2026-02-23 12h14.01.634658 +0100,
vertical.xlsx,The target is tilted.,135,0,0,0,0,0,0,0,0,0,0,0,0,0,0,0,1,1,1,135,space,5.355459800000062,None,0,1,0.6189752999998746,None,,,,0,0,0,1,0,0,0,7,,,,,36.319977299999664,,,,,,,,,,,,,,,30.92786299999989,30.92786299999989,30.92786299999989,space,5.355459800000062,None,36.31465810000009,36.319977299999664,36.81318910000027,36.8175183000003,36.83269519999976,37.46447689999968,0,1,0.6189752999998746,None,37.464706200000364,37.47980060000009,37.67984929999966,37.663653100000374,,,,,,,,,,,,,,,,,,,,852,23,V,R,2026-02-23_12h14.01.393,VisualSearch_2526_3,,2025.2.4,2026-02-23 12h14.01.634658 +0100,
vertical.xlsx,The target is tilted.,135,1,1,0,1,1,1,1,0,0,0,0,0,0,0,0,0,3,4,135,space,5.355459800000062,None,0,0,0.7970329999998285,None,,,,0,0,0,1,0,1,1,2,,,,,37.67984929999966,,,,,,,,,,,,,,,,,,,,,37.66445720000047,37.67984929999966,38.163585799999964,38.16900330000044,38.18643929999962,38.99639219999972,0,0,0.7970329999998285,None,38.996589700000186,39.012027099999614,39.21237370000017,39.19622369999979,38.18643929999962,,,,,,,,,,,,,,,,,,,852,23,V,R,2026-02-23_12h14.01.393,VisualSearch_2526_3,,2025.2.4,2026-02-23 12h14.01.634658 +0100,
vertical.xlsx,The target is tilted.,135,2,2,0,1,1,1,1,1,1,1,1,0,0,0,0,0,7,8,135,space,5.355459800000062,None,1,1,1.0346966999995857,None,,,,0,0,0,1,0,2,2,1,,,,,39.21237370000017,,,,,,,,,,,,,,,,,,,,,39.19695570000022,39.21237370000017,39.696539599999596,39.70146920000025,39.71223060000011,40.76220269999976,1,1,1.0346966999995857,None,40.762343899999905,40.778273900000386,40.97875759999988,40.9627075999997,39.71223060000011,,,,,,,,,,,,,,,,,,,852,23,V,R,2026-02-23_12h14.01.393,VisualSearch_2526_3,,2025.2.4,2026-02-23 12h14.01.634658 +0100,
vertical.xlsx,The target is tilted.,135,3,3,0,1,1,1,1,1,1,1,1,1,1,1,1,0,11,12,135,space,5.355459800000062,None,1,1,1.0848518000002514,None,,,,0,0,0,1,0,3,3,0,,,,,40.97875759999988,,,,,,,,,,,,,,,,,,,,,40.96343100000013,40.97875759999988,41.4621788000004,41.4675785999998,41.48379449999993,42.57951099999991,1,1,1.0848518000002514,None,42.57972890000019,42.59430499999962,42.79470860000038,42.77826970000024,41.48379449999993,,,,,,,,,,,,,,,,,,,852,23,V,R,2026-02-23_12h14.01.393,VisualSearch_2526_3,,2025.2.4,2026-02-23 12h14.01.634658 +0100,
vertical.xlsx,The target is tilted.,135,4,4,0,1,0,0,0,0,0,0,0,0,0,0,0,0,0,1,135,space,5.355459800000062,None,1,1,0.5332410999999411,None,,,,0,0,0,1,0,4,4,3,,,,,42.79470860000038,,,,,,,,,,,,,,,,,,,,,42.77884449999965,42.79470860000038,43.27877179999996,43.28418119999969,43.302401400000235,43.84545049999997,1,1,0.5332410999999411,None,43.84566300000006,43.86067879999973,44.061081699999704,44.04503939999995,43.302401400000235,,,,,,,,,,,,,,,,,,,852,23,V,R,2026-02-23_12h14.01.393,VisualSearch_2526_3,,2025.2.4,2026-02-23 12h14.01.634658 +0100,
vertical.xlsx,The target is tilted.,135,5,5,0,0,1,1,1,1,1,1,1,0,0,0,0,1,7,8,135,space,5.355459800000062,None,0,1,0.8333003999996436,None,,,,0,0,0,1,0,5,5,5,,,,,44.061081699999704,,,,,,,,,,,,,,,,,,,,,44.045763799999804,44.061081699999704,44.544876799999656,44.550386900000376,44.56670469999972,45.41138469999987,0,1,0.8333003999996436,None,45.41160130000026,45.42679490000046,45.62726290000046,45.610777799999596,44.56670469999972,,,,,,,,,,,,,,,,,,,852,23,V,R,2026-02-23_12h14.01.393,VisualSearch_2526_3,,2025.2.4,2026-02-23 12h14.01.634658 +0100,
vertical.xlsx,The target is tilted.,135,6,6,0,0,1,1,1,0,0,0,0,0,0,0,0,1,3,4,135,space,5.355459800000062,None,0,1,0.5386879999996381,None,,,,0,0,0,1,0,6,6,6,,,,,45.62726290000046,,,,,,,,,,,,,,,,,,,,,45.61150650000036,45.62726290000046,46.11064890000034,46.11604819999957,46.13582630000019,46.677999999999884,0,1,0.5386879999996381,None,46.67821699999968,46.69291390000035,46.89365579999958,46.87745460000042,46.13582630000019,,,,,,,,,,,,,,,,,,,852,23,V,R,2026-02-23_12h14.01.393,VisualSearch_2526_3,,2025.2.4,2026-02-23 12h14.01.634658 +0100,
vertical.xlsx,The target is tilted.,135,7,7,0,0,1,1,1,1,1,1,1,1,1,1,1,1,11,12,135,space,5.355459800000062,None,0,1,0.8009701999999379,None,,,,0,0,0,1,0,7,7,4,,,,,46.89365579999958,,,,,,,,,,,,,,,,,,,,,46.87820459999966,46.89365579999958,47.37709780000023,47.38245569999981,47.40170769999986,48.21099310000045,0,1,0.8009701999999379,None,48.21120789999986,48.22567319999962,48.42663749999974,48.410341300000255,47.40170769999986,,,,,,,,,,,,,,,,,,,852,23,V,R,2026-02-23_12h14.01.393,VisualSearch_2526_3,,2025.2.4,2026-02-23 12h14.01.634658 +0100,
vertical.xlsx,The target is tilted.,135,0,0,0,1,1,1,1,1,1,1,1,0,0,0,0,0,7,8,135,space,5.355459800000062,None,1,1,0.9562224999999671,None,space,3.229952200000298,None,0,0,0,1,,,,,0,0,0,1,51.69304310000007,,,,,,,,,,,,,,,,,,,,,51.68896940000013,51.69304310000007,52.175404999999955,52.18088290000014,52.19689060000019,53.1588883000004,,,,,53.159112399999685,53.17445719999978,53.3746715999996,53.358655400000316,,48.41814009999962,48.42663749999974,48.42663749999974,51.65972909999982,space,3.229952200000298,None,1,1,0.9562224999999671,None,,,,,,,,852,23,V,R,2026-02-23_12h14.01.393,VisualSearch_2526_3,,2025.2.4,2026-02-23 12h14.01.634658 +0100,
vertical.xlsx,The target is tilted.,135,1,1,0,0,1,1,1,1,1,1,1,1,1,1,1,1,11,12,135,space,5.355459800000062,None,0,1,0.8130070000006526,None,space,3.229952200000298,None,0,0,0,1,,,,,0,1,1,4,53.3746715999996,,,,,,,,,,,,,,,,,,,,,53.35944970000037,53.3746715999996,53.85853479999969,53.86447589999989,53.87695509999958,54.69191159999991,,,,,54.69211030000042,54.707027299999936,54.9072471999998,54.89152079999985,53.87695509999958,,,,,,,,0,1,0.8130070000006526,None,,,,,,,,852,23,V,R,2026-02-23_12h14.01.393,VisualSearch_2526_3,,2025.2.4,2026-02-23 12h14.01.634658 +0100,
vertical.xlsx,The target is tilted.,135,2,2,0,0,1,1,1,1,1,1,1,0,0,0,0,1,7,8,135,space,5.355459800000062,None,0,1,0.694212399999742,None,space,3.229952200000298,None,0,0,0,1,,,,,0,2,2,5,54.9072471999998,,,,,,,,,,,,,,,,,,,,,54.8923235000002,54.9072471999998,55.3909907999996,55.39558920000036,55.40717930000028,56.10846000000038,,,,,56.10868750000009,56.1233315999998,56.32357190000039,56.307711700000254,55.40717930000028,,,,,,,,0,1,0.694212399999742,None,,,,,,,,852,23,V,R,2026-02-23_12h14.01.393,VisualSearch_2526_3,,2025.2.4,2026-02-23 12h14.01.634658 +0100,
vertical.xlsx,The target is tilted.,135,3,3,0,0,1,1,1,0,0,0,0,0,0,0,0,1,3,4,135,space,5.355459800000062,None,0,1,0.5229503000000477,None,space,3.229952200000298,None,0,0,0,1,,,,,0,3,3,6,56.32357190000039,,,,,,,,,,,,,,,,,,,,,56.30861900000036,56.32357190000039,56.80759880000005,56.81300720000036,56.83109830000012,57.35736160000033,,,,,57.357540199999676,57.37286490000042,57.573370899999645,57.55735129999994,56.83109830000012,,,,,,,,0,1,0.5229503000000477,None,,,,,,,,852,23,V,R,2026-02-23_12h14.01.393,VisualSearch_2526_3,,2025.2.4,2026-02-23 12h14.01.634658 +0100,
vertical.xlsx,The target is tilted.,135,4,4,0,1,1,1,1,0,0,0,0,0,0,0,0,0,3,4,135,space,5.355459800000062,None,1,1,0.5870691999998598,None,space,3.229952200000298,None,0,0,0,1,,,,,0,4,4,2,57.573370899999645,,,,,,,,,,,,,,,,,,,,,57.55814949999967,57.573370899999645,58.057120499999655,58.06244539999989,58.08140889999959,58.674178199999915,,,,,58.67445990000033,58.68912040000032,58.88960980000047,58.87338030000046,58.08140889999959,,,,,,,,1,1,0.5870691999998598,None,,,,,,,,852,23,V,R,2026-02-23_12h14.01.393,VisualSearch_2526_3,,2025.2.4,2026-02-23 12h14.01.634658 +0100,
vertical.xlsx,The target is tilted.,135,5,5,0,1,1,1,1,1,1,1,1,1,1,1,1,0,11,12,135,space,5.355459800000062,None,0,0,0.7738405999998577,None,space,3.229952200000298,None,0,0,0,1,,,,,0,5,5,0,58.88960980000047,,,,,,,,,,,,,,,,,,,,,58.874246200000016,58.88960980000047,59.37329250000039,59.37860089999958,59.39587089999986,60.173449199999595,,,,,60.17367209999975,60.18857440000011,60.389005,60.372981999999865,59.39587089999986,,,,,,,,0,0,0.7738405999998577,None,,,,,,,,852,23,V,R,2026-02-23_12h14.01.393,VisualSearch_2526_3,,2025.2.4,2026-02-23 12h14.01.634658 +0100,
vertical.xlsx,The target is tilted.,135,6,6,0,1,0,0,0,0,0,0,0,0,0,0,0,0,0,1,135,space,5.355459800000062,None,1,1,0.5628956000000471,None,space,3.229952200000298,None,0,0,0,1,,,,,0,6,6,3,60.389005,,,,,,,,,,,,,,,,,,,,,60.37382840000009,60.389005,60.87274849999994,60.878149699999994,60.895667499999945,61.472645300000295,,,,,61.472861000000194,61.48807899999974,61.688702399999784,61.67250940000031,60.895667499999945,,,,,,,,1,1,0.5628956000000471,None,,,,,,,,852,23,V,R,2026-02-23_12h14.01.393,VisualSearch_2526_3,,2025.2.4,2026-02-23 12h14.01.634658 +0100,
vertical.xlsx,The target is tilted.,135,7,7,0,0,0,0,0,0,0,0,0,0,0,0,0,1,1,1,135,space,5.355459800000062,None,0,1,0.6163852999998198,None,space,3.229952200000298,None,0,0,0,1,,,,,0,7,7,7,61.688702399999784,,,,,,,,,,,,,,,,,,,,,61.67336080000041,61.688702399999784,62.17217470000014,62.17753879999964,62.19518119999975,62.822328399999606,,,,,62.82252249999965,62.83760559999973,63.03786880000007,63.021939199999906,62.19518119999975,,,,,,,,0,1,0.6163852999998198,None,,,,,,,,852,23,V,R,2026-02-23_12h14.01.393,VisualSearch_2526_3,,2025.2.4,2026-02-23 12h14.01.634658 +0100,
vertical.xlsx,The target is tilted.,135,8,0,1,1,1,1,1,1,1,1,1,1,1,1,1,0,11,12,135,space,5.355459800000062,None,0,0,0.8554218999997829,None,space,3.229952200000298,None,0,0,0,1,,,,,1,0,8,0,63.03786880000007,,,,,,,,,,,,,,,,,,,,,63.02277909999975,63.03786880000007,63.522014899999704,63.52755309999975,63.545365400000264,64.40541159999975,,,,,64.40563469999961,64.42063719999987,64.62115929999982,64.60490349999964,63.545365400000264,,,,,,,,0,0,0.8554218999997829,None,,,,,,,,852,23,V,R,2026-02-23_12h14.01.393,VisualSearch_2526_3,,2025.2.4,2026-02-23 12h14.01.634658 +0100,
vertical.xlsx,The target is tilted.,135,9,1,1,0,1,1,1,0,0,0,0,0,0,0,0,1,3,4,135,space,5.355459800000062,None,0,1,0.49135999999998603,None,space,3.229952200000298,None,0,0,0,1,,,,,1,1,9,6,64.62115929999982,,,,,,,,,,,,,,,,,,,,,64.6057265999998,64.62115929999982,65.10453940000025,65.10991610000019,65.12849730000016,65.62166270000034,,,,,65.62188429999969,65.6368650000004,65.83696880000025,65.82131060000029,65.12849730000016,,,,,,,,0,1,0.49135999999998603,None,,,,,,,,852,23,V,R,2026-02-23_12h14.01.393,VisualSearch_2526_3,,2025.2.4,2026-02-23 12h14.01.634658 +0100,
vertical.xlsx,The target is tilted.,135,10,2,1,1,0,0,0,0,0,0,0,0,0,0,0,0,0,1,135,space,5.355459800000062,None,1,1,0.44004019999920274,None,space,3.229952200000298,None,0,0,0,1,,,,,1,2,10,3,65.83696880000025,,,,,,,,,,,,,,,,,,,,,65.82213370000045,65.83696880000025,66.32119330000023,66.32655499999964,66.34433650000028,66.78738499999963,,,,,66.7875554000002,66.80313800000022,67.00357429999985,66.98759129999962,66.34433650000028,,,,,,,,1,1,0.44004019999920274,None,,,,,,,,852,23,V,R,2026-02-23_12h14.01.393,VisualSearch_2526_3,,2025.2.4,2026-02-23 12h14.01.634658 +0100,
vertical.xlsx,The target is tilted.,135,11,3,1,1,1,1,1,1,1,1,1,0,0,0,0,0,7,8,135,space,5.355459800000062,None,1,1,0.6717168000004676,None,space,3.229952200000298,None,0,0,0,1,,,,,1,3,11,1,67.00357429999985,,,,,,,,,,,,,,,,,,,,,66.98884139999973,67.00357429999985,67.4870549999996,67.49218959999962,67.50324329999967,68.18736009999975,,,,,68.1875855999997,68.2027208999998,68.40309119999984,68.3872080000001,67.50324329999967,,,,,,,,1,1,0.6717168000004676,None,,,,,,,,852,23,V,R,2026-02-23_12h14.01.393,VisualSearch_2526_3,,2025.2.4,2026-02-23 12h14.01.634658 +0100,
vertical.xlsx,The target is tilted.,135,12,4,1,0,1,1,1,1,1,1,1,1,1,1,1,1,11,12,135,space,5.355459800000062,None,0,1,0.9273567999998704,None,space,3.229952200000298,None,0,0,0,1,,,,,1,4,12,4,68.40309119999984,,,,,,,,,,,,,,,,,,,,,68.38806690000001,68.40309119999984,68.88701990000027,68.89234980000037,68.91112080000039,69.85314079999989,,,,,69.85332899999958,69.8686101000003,70.06937860000016,70.05316219999986,68.91112080000039,,,,,,,,0,1,0.9273567999998704,None,,,,,,,,852,23,V,R,2026-02-23_12h14.01.393,VisualSearch_2526_3,,2025.2.4,2026-02-23 12h14.01.634658 +0100,
vertical.xlsx,The target is tilted.,135,13,5,1,1,1,1,1,0,0,0,0,0,0,0,0,0,3,4,135,space,5.355459800000062,None,1,1,0.5204939000004742,None,space,3.229952200000298,None,0,0,0,1,,,,,1,5,13,2,70.06937860000016,,,,,,,,,,,,,,,,,,,,,70.05398909999985,70.06937860000016,70.55301679999957,70.55857110000034,70.57632660000036,71.10292289999961,,,,,71.10310570000001,71.11843580000004,71.31892499999958,71.30267269999968,70.57632660000036,,,,,,,,1,1,0.5204939000004742,None,,,,,,,,852,23,V,R,2026-02-23_12h14.01.393,VisualSearch_2526_3,,2025.2.4,2026-02-23 12h14.01.634658 +0100,
vertical.xlsx,The target is tilted.,135,14,6,1,0,0,0,0,0,0,0,0,0,0,0,0,1,1,1,135,space,5.355459800000062,None,0,1,0.540413400000034,None,space,3.229952200000298,None,0,0,0,1,,,,,1,6,14,7,71.31892499999958,,,,,,,,,,,,,,,,,,,,,71.3034816999998,71.31892499999958,71.80265899999995,71.80803610000021,71.8256822000003,72.36947560000044,,,,,72.3697186999998,72.38452299999972,72.58484690000023,72.56917739999972,71.8256822000003,,,,,,,,0,1,0.540413400000034,None,,,,,,,,852,23,V,R,2026-02-23_12h14.01.393,VisualSearch_2526_3,,2025.2.4,2026-02-23 12h14.01.634658 +0100,
vertical.xlsx,The target is tilted.,135,15,7,1,0,1,1,1,1,1,1,1,0,0,0,0,1,7,8,135,space,5.355459800000062,None,0,1,0.6464759000000413,None,space,3.229952200000298,None,0,0,0,1,,,,,1,7,15,5,72.58484690000023,,,,,,,,,,,,,,,,,,,,,72.57000419999986,72.58484690000023,73.06903930000044,73.07478790000005,73.09157950000008,73.75110889999996,,,,,73.75121870000021,73.76784680000037,73.9680414000004,73.95155309999973,73.09157950000008,,,,,,,,0,1,0.6464759000000413,None,,,,,,,,852,23,V,R,2026-02-23_12h14.01.393,VisualSearch_2526_3,,2025.2.4,2026-02-23 12h14.01.634658 +0100,
vertical.xlsx,The target is tilted.,135,16,0,2,1,0,0,0,0,0,0,0,0,0,0,0,0,0,1,135,space,5.355459800000062,None,1,1,0.42072079999979906,None,space,3.229952200000298,None,0,0,0,1,,,,,2,0,16,3,73.9680414000004,,,,,,,,,,,,,,,,,,,,,73.95245410000007,73.9680414000004,74.45164860000023,74.45704810000007,74.47499429999971,74.90228910000042,,,,,74.90252340000006,74.91715490000024,75.11729379999997,75.10144940000009,,,,,,,,,1,1,0.42072079999979906,None,,,,,,,,852,23,V,R,2026-02-23_12h14.01.393,VisualSearch_2526_3,,2025.2.4,2026-02-23 12h14.01.634658 +0100,
vertical.xlsx,The target is tilted.,135,17,1,2,1,1,1,1,1,1,1,1,1,1,1,1,0,11,12,135,space,5.355459800000062,None,0,0,0.8390921000000162,None,space,3.229952200000298,None,0,0,0,1,,,,,2,1,17,0,75.11729379999997,,,,,,,,,,,,,,,,,,,,,75.10225230000015,75.11729379999997,75.6015238,75.60686890000034,75.62451609999971,76.4678973,,,,,76.46809690000009,76.4831680999996,76.68396159999975,76.6677778000003,75.62451609999971,,,,,,,,0,0,0.8390921000000162,None,,,,,,,,852,23,V,R,2026-02-23_12h14.01.393,VisualSearch_2526_3,,2025.2.4,2026-02-23 12h14.01.634658 +0100,
vertical.xlsx,The target is tilted.,135,18,2,2,1,1,1,1,1,1,1,1,0,0,0,0,0,7,8,135,space,5.355459800000062,None,0,0,0.8479588000000149,None,space,3.229952200000298,None,0,0,0,1,,,,,2,2,18,1,76.68396159999975,,,,,,,,,,,,,,,,,,,,,76.66857340000024,76.68396159999975,77.1675439999999,77.17292980000002,77.19128280000041,78.05127160000029,,,,,78.05151560000013,78.06615130000046,78.26668520000021,78.25060459999986,77.19128280000041,,,,,,,,0,0,0.8479588000000149,None,,,,,,,,852,23,V,R,2026-02-23_12h14.01.393,VisualSearch_2526_3,,2025.2.4,2026-02-23 12h14.01.634658 +0100,
vertical.xlsx,The target is tilted.,135,19,3,2,0,1,1,1,1,1,1,1,1,1,1,1,1,11,12,135,space,5.355459800000062,None,0,1,0.9957822999995187,None,space,3.229952200000298,None,0,0,0,1,,,,,2,3,19,4,78.26668520000021,,,,,,,,,,,,,,,,,,,,,78.25140180000017,78.26668520000021,78.74931519999973,78.75142880000021,78.7662879999998,79.76611740000044,,,,,79.76625260000037,79.78204819999974,79.98244129999966,79.96650890000001,78.7662879999998,,,,,,,,0,1,0.9957822999995187,None,,,,,,,,852,23,V,R,2026-02-23_12h14.01.393,VisualSearch_2526_3,,2025.2.4,2026-02-23 12h14.01.634658 +0100,
vertical.xlsx,The target is tilted.,135,20,4,2,1,1,1,1,0,0,0,0,0,0,0,0,0,3,4,135,space,5.355459800000062,None,1,1,0.5755987000002278,None,space,3.229952200000298,None,0,0,0,1,,,,,2,4,20,2,79.98244129999966,,,,,,,,,,,,,,,,,,,,,79.96733180000047,79.98244129999966,80.46661260000019,80.4720355999998,80.49163820000012,81.08380490000036,,,,,81.08402670000032,81.09846740000012,81.29902330000004,81.2827913000001,80.49163820000012,,,,,,,,1,1,0.5755987000002278,None,,,,,,,,852,23,V,R,2026-02-23_12h14.01.393,VisualSearch_2526_3,,2025.2.4,2026-02-23 12h14.01.634658 +0100,
vertical.xlsx,The target is tilted.,135,21,5,2,0,1,1,1,1,1,1,1,0,0,0,0,1,7,8,135,space,5.355459800000062,None,0,1,0.630321599999661,None,space,3.229952200000298,None,0,0,0,1,,,,,2,5,21,5,81.29902330000004,,,,,,,,,,,,,,,,,,,,,81.28362889999971,81.29902330000004,81.78240019999976,81.7878498,81.80664760000036,82.44824460000018,,,,,82.44837650000045,82.46490050000011,,82.64882060000036,81.80664760000036,,,,,,,,0,1,0.630321599999661,None,,,,,,,,852,23,V,R,2026-02-23_12h14.01.393,VisualSearch_2526_3,,2025.2.4,2026-02-23 12h14.01.634658 +0100,
vertical.xlsx,The target is tilted.,135,22,6,2,0,1,1,1,0,0,0,0,0,0,0,0,1,3,4,135,space,5.355459800000062,None,0,1,0.4972007999995185,None,space,3.229952200000298,None,0,0,0,1,,,,,2,6,22,6,82.66518309999992,,,,,,,,,,,,,,,,,,,,,82.64965589999974,82.66518309999992,83.14858540000023,83.15396130000045,83.17260689999966,83.68270930000017,,,,,83.68297280000024,83.69766700000037,83.89807639999981,83.88198879999982,,,,,,,,,0,1,0.4972007999995185,None,,,,,,,,852,23,V,R,2026-02-23_12h14.01.393,VisualSearch_2526_3,,2025.2.4,2026-02-23 12h14.01.634658 +0100,
vertical.xlsx,The target is tilted.,135,23,7,2,0,0,0,0,0,0,0,0,0,0,0,0,1,1,1,135,space,5.355459800000062,None,0,1,0.4932143999994878,None,space,3.229952200000298,None,0,0,0,1,,,,,2,7,23,7,83.89807639999981,,,,,,,,,,,,,,,,,,,,,83.88280000000032,83.89807639999981,84.3820298999999,84.38738130000002,84.40936150000016,84.91502649999984,,,,,84.91549880000002,84.93046119999963,85.13110289999986,85.11489230000007,84.40936150000016,,,,,,,,0,1,0.4932143999994878,None,,,,,,,,852,23,V,R,2026-02-23_12h14.01.393,VisualSearch_2526_3,,2025.2.4,2026-02-23 12h14.01.634658 +0100,
vertical.xlsx,The target is tilted.,135,24,0,3,1,1,1,1,1,1,1,1,1,1,1,1,0,11,12,135,space,5.355459800000062,None,1,1,0.7299471999995149,None,space,3.229952200000298,None,0,0,0,1,,,,,3,0,24,0,85.13110289999986,,,,,,,,,,,,,,,,,,,,,85.1157191000002,85.13110289999986,85.61473339999975,85.62024639999981,85.63860879999993,86.3813911999996,,,,,86.38155129999996,86.39667430000009,86.5971497999999,86.58113229999981,85.63860879999993,,,,,,,,1,1,0.7299471999995149,None,,,,,,,,852,23,V,R,2026-02-23_12h14.01.393,VisualSearch_2526_3,,2025.2.4,2026-02-23 12h14.01.634658 +0100,
vertical.xlsx,The target is tilted.,135,25,1,3,0,1,1,1,1,1,1,1,1,1,1,1,1,11,12,135,space,5.355459800000062,None,0,1,1.187468799999806,None,space,3.229952200000298,None,0,0,0,1,,,,,3,1,25,4,86.5971497999999,,,,,,,,,,,,,,,,,,,,,86.58195679999972,86.5971497999999,87.08128000000033,87.08660539999983,87.10422540000036,88.29732479999984,,,,,88.2974721999999,88.31284700000015,88.51330400000006,88.49721760000011,87.10422540000036,,,,,,,,0,1,1.187468799999806,None,,,,,,,,852,23,V,R,2026-02-23_12h14.01.393,VisualSearch_2526_3,,2025.2.4,2026-02-23 12h14.01.634658 +0100,
vertical.xlsx,The target is tilted.,135,26,2,3,0,0,0,0,0,0,0,0,0,0,0,0,1,1,1,135,space,5.355459800000062,None,0,1,0.6805842000003395,None,space,3.229952200000298,None,0,0,0,1,,,,,3,2,26,7,88.51330400000006,,,,,,,,,,,,,,,,,,,,,88.49814440000046,88.51330400000006,88.99675289999959,89.00208850000035,89.01963760000035,89.71285929999976,,,,,89.71299499999986,89.72883340000044,,89.91317510000044,89.01963760000035,,,,,,,,0,1,0.6805842000003395,None,,,,,,,,852,23,V,R,2026-02-23_12h14.01.393,VisualSearch_2526_3,,2025.2.4,2026-02-23 12h14.01.634658 +0100,
vertical.xlsx,The target is tilted.,135,27,3,3,1,1,1,1,0,0,0,0,0,0,0,0,0,3,4,135,space,5.355459800000062,None,1,1,0.5310613000001467,None,space,3.229952200000298,None,0,0,0,1,,,,,3,3,27,2,89.92955170000005,,,,,,,,,,,,,,,,,,,,,89.91406840000036,89.92955170000005,90.41328909999993,90.41874300000018,90.43619969999963,90.97887160000028,,,,,90.97896589999982,90.99500379999972,,91.1795060000004,90.43619969999963,,,,,,,,1,1,0.5310613000001467,None,,,,,,,,852,23,V,R,2026-02-23_12h14.01.393,VisualSearch_2526_3,,2025.2.4,2026-02-23 12h14.01.634658 +0100,
vertical.xlsx,The target is tilted.,135,28,4,3,1,0,0,0,0,0,0,0,0,0,0,0,0,0,1,135,space,5.355459800000062,None,1,1,0.47969040000043606,None,space,3.229952200000298,None,0,0,0,1,,,,,3,4,28,3,91.19564569999966,,,,,,,,,,,,,,,,,,,,,91.18036430000029,91.19564569999966,91.67933429999994,91.6847528999997,91.70304010000018,92.19540330000018,,,,,92.19553840000026,92.21139610000046,92.4119367000003,92.39590580000004,,,,,,,,,1,1,0.47969040000043606,None,,,,,,,,852,23,V,R,2026-02-23_12h14.01.393,VisualSearch_2526_3,,2025.2.4,2026-02-23 12h14.01.634658 +0100,
vertical.xlsx,The target is tilted.,135,29,5,3,0,1,1,1,0,0,0,0,0,0,0,0,1,3,4,135,space,5.355459800000062,None,0,1,0.549312899999677,None,space,3.229952200000298,None,0,0,0,1,,,,,3,5,29,6,92.4119367000003,,,,,,,,,,,,,,,,,,,,,92.39671739999994,92.4119367000003,92.89583550000043,92.90116349999971,92.91756059999989,93.47910719999982,,,,,93.47932849999961,93.49454460000015,93.69506060000003,93.67893220000042,92.91756059999989,,,,,,,,0,1,0.549312899999677,None,,,,,,,,852,23,V,R,2026-02-23_12h14.01.393,VisualSearch_2526_3,,2025.2.4,2026-02-23 12h14.01.634658 +0100,
vertical.xlsx,The target is tilted.,135,30,6,3,1,1,1,1,1,1,1,1,0,0,0,0,0,7,8,135,space,5.355459800000062,None,0,0,0.777268499999991,None,space,3.229952200000298,None,0,0,0,1,,,,,3,6,30,1,93.69506060000003,,,,,,,,,,,,,,,,,,,,,93.67979430000014,93.69506060000003,94.17879439999979,94.18415579999964,94.20191450000038,94.99432140000044,,,,,94.99443499999961,95.01100490000044,,95.1947954999996,94.20191450000038,,,,,,,,0,0,0.777268499999991,None,,,,,,,,852,23,V,R,2026-02-23_12h14.01.393,VisualSearch_2526_3,,2025.2.4,2026-02-23 12h14.01.634658 +0100,
vertical.xlsx,The target is tilted.,135,31,7,3,0,1,1,1,1,1,1,1,0,0,0,0,1,7,8,135,space,5.355459800000062,None,0,1,0.5904838000005839,None,space,3.229952200000298,None,0,0,0,1,,,,,3,7,31,5,95.21121579999999,,,,,,,,,,,,,,,,,,,,,95.19564150000042,95.21121579999999,95.69461039999987,95.70010360000015,95.71675090000008,96.3116885999998,,,,,96.31191310000031,96.32685330000004,96.52727320000031,96.51125169999978,95.71675090000008,,,,,,,,0,1,0.5904838000005839,None,,,,,,,,852,23,V,R,2026-02-23_12h14.01.393,VisualSearch_2526_3,,2025.2.4,2026-02-23 12h14.01.634658 +0100,
vertical.xlsx,The target is tilted.,135,32,0,4,0,1,1,1,1,1,1,1,0,0,0,0,1,7,8,135,space,5.355459800000062,None,0,1,1.0379871000004641,None,space,3.229952200000298,None,0,0,0,1,,,,,4,0,32,5,96.52727320000031,,,,,,,,,,,,,,,,,,,,,96.51205019999998,96.52727320000031,97.0111794000004,97.01650969999992,97.03454450000027,98.07776170000034,,,,,98.07795799999985,98.09310759999971,98.29350069999964,98.27748979999978,97.03454450000027,,,,,,,,0,1,1.0379871000004641,None,,,,,,,,852,23,V,R,2026-02-23_12h14.01.393,VisualSearch_2526_3,,2025.2.4,2026-02-23 12h14.01.634658 +0100,
vertical.xlsx,The target is tilted.,135,33,1,4,1,1,1,1,1,1,1,1,1,1,1,1,0,11,12,135,space,5.355459800000062,None,0,0,0.8979506000005131,None,space,3.229952200000298,None,0,0,0,1,,,,,4,1,33,0,98.29350069999964,,,,,,,,,,,,,,,,,,,,,98.27839889999996,98.29350069999964,98.7771972999999,98.78283240000019,98.7996450999999,99.70925890000035,,,,,99.70937950000007,99.72610160000022,,99.90997400000015,98.7996450999999,,,,,,,,0,0,0.8979506000005131,None,,,,,,,,852,23,V,R,2026-02-23_12h14.01.393,VisualSearch_2526_3,,2025.2.4,2026-02-23 12h14.01.634658 +0100,
vertical.xlsx,The target is tilted.,135,34,2,4,0,1,1,1,0,0,0,0,0,0,0,0,1,3,4,135,space,5.355459800000062,None,0,1,0.4854614000005313,None,space,3.229952200000298,None,0,0,0,1,,,,,4,2,34,6,99.92628100000002,,,,,,,,,,,,,,,,,,,,,99.91085349999958,99.92628100000002,100.4097969000004,100.41518619999988,100.43327210000007,100.92715500000031,,,,,100.92741170000045,100.94180599999981,101.14248130000033,101.12653030000001,,,,,,,,,0,1,0.4854614000005313,None,,,,,,,,852,23,V,R,2026-02-23_12h14.01.393,VisualSearch_2526_3,,2025.2.4,2026-02-23 12h14.01.634658 +0100,
vertical.xlsx,The target is tilted.,135,35,3,4,1,1,1,1,1,1,1,1,0,0,0,0,0,7,8,135,space,5.355459800000062,None,0,0,1.0858149000005142,None,space,3.229952200000298,None,0,0,0,1,,,,,4,3,35,1,101.14248130000033,,,,,,,,,,,,,,,,,,,,,101.1273314,101.14248130000033,101.62603659999968,101.63138849999996,101.65080260000013,102.74331090000032,,,,,102.7435347999999,102.75819090000005,102.95869800000037,102.94224140000006,101.65080260000013,,,,,,,,0,0,1.0858149000005142,None,,,,,,,,852,23,V,R,2026-02-23_12h14.01.393,VisualSearch_2526_3,,2025.2.4,2026-02-23 12h14.01.634658 +0100,
vertical.xlsx,The target is tilted.,135,36,4,4,0,0,0,0,0,0,0,0,0,0,0,0,1,1,1,135,space,5.355459800000062,None,0,1,0.4412049000002298,None,space,3.229952200000298,None,0,0,0,1,,,,,4,4,36,7,102.95869800000037,,,,,,,,,,,,,,,,,,,,,102.9430510000002,102.95869800000037,103.44206149999991,103.44743149999977,103.46467709999979,103.90931019999971,,,,,103.90952990000005,103.92431570000008,104.12493180000001,104.10888260000047,103.46467709999979,,,,,,,,0,1,0.4412049000002298,None,,,,,,,,852,23,V,R,2026-02-23_12h14.01.393,VisualSearch_2526_3,,2025.2.4,2026-02-23 12h14.01.634658 +0100,
vertical.xlsx,The target is tilted.,135,37,5,4,0,1,1,1,1,1,1,1,1,1,1,1,1,11,12,135,space,5.355459800000062,None,0,1,0.8357396999999764,None,space,3.229952200000298,None,0,0,0,1,,,,,4,5,37,4,104.12493180000001,,,,,,,,,,,,,,,,,,,,,104.10968289999983,104.12493180000001,104.6087521999998,104.6136862000003,104.62453110000024,105.47447069999998,,,,,105.47461720000047,105.49032869999974,105.69107580000036,105.67486129999998,104.62453110000024,,,,,,,,0,1,0.8357396999999764,None,,,,,,,,852,23,V,R,2026-02-23_12h14.01.393,VisualSearch_2526_3,,2025.2.4,2026-02-23 12h14.01.634658 +0100,
vertical.xlsx,The target is tilted.,135,38,6,4,1,0,0,0,0,0,0,0,0,0,0,0,0,0,1,135,space,5.355459800000062,None,1,1,0.45877909999944677,None,space,3.229952200000298,None,0,0,0,1,,,,,4,6,38,3,105.69107580000036,,,,,,,,,,,,,,,,,,,,,105.67566019999958,105.69107580000036,106.17493790000026,106.18024739999964,106.2027078000001,106.67474990000028,,,,,106.67497660000026,106.69023440000001,106.89074100000016,106.87456469999961,106.2027078000001,,,,,,,,1,1,0.45877909999944677,None,,,,,,,,852,23,V,R,2026-02-23_12h14.01.393,VisualSearch_2526_3,,2025.2.4,2026-02-23 12h14.01.634658 +0100,
vertical.xlsx,The target is tilted.,135,39,7,4,1,1,1,1,0,0,0,0,0,0,0,0,0,3,4,135,space,5.355459800000062,None,1,1,0.49364060000061727,None,space,3.229952200000298,None,0,0,0,1,,,,,4,7,39,2,106.89074100000016,,,,,,,,,,,,,,,,,,,,,106.87536799999998,106.89074100000016,107.3744741999999,107.37976809999964,107.39779360000011,107.90723619999972,,,,,107.90741439999965,107.9229591000003,108.12359959999958,108.1072522000004,107.39779360000011,,,,,,,,1,1,0.49364060000061727,None,,,,,,,,852,23,V,R,2026-02-23_12h14.01.393,VisualSearch_2526_3,,2025.2.4,2026-02-23 12h14.01.634658 +0100,
vertical.xlsx,The target is tilted.,135,40,0,5,1,0,0,0,0,0,0,0,0,0,0,0,0,0,1,135,space,5.355459800000062,None,1,1,0.4663510000000315,None,space,3.229952200000298,None,0,0,0,1,,,,,5,0,40,3,108.12359959999958,,,,,,,,,,,,,,,,,,,,,108.10806159999993,108.12359959999958,108.60741739999958,108.61271750000014,108.6292854000003,109.10737580000023,,,,,109.10753569999997,109.12268039999981,109.32321740000043,109.30717840000034,108.6292854000003,,,,,,,,1,1,0.4663510000000315,None,,,,,,,,852,23,V,R,2026-02-23_12h14.01.393,VisualSearch_2526_3,,2025.2.4,2026-02-23 12h14.01.634658 +0100,
vertical.xlsx,The target is tilted.,135,41,1,5,1,1,1,1,1,1,1,1,1,1,1,1,0,11,12,135,space,5.355459800000062,None,1,1,0.7361307999999553,None,space,3.229952200000298,None,0,0,0,1,,,,,5,1,41,0,109.32321740000043,,,,,,,,,,,,,,,,,,,,,109.3079760999999,109.32321740000043,109.8059776,109.80861170000026,109.82280429999992,110.57321880000018,,,,,110.57344290000037,110.58877089999987,110.78940320000038,110.7732630999999,109.82280429999992,,,,,,,,1,1,0.7361307999999553,None,,,,,,,,852,23,V,R,2026-02-23_12h14.01.393,VisualSearch_2526_3,,2025.2.4,2026-02-23 12h14.01.634658 +0100,
vertical.xlsx,The target is tilted.,135,42,2,5,0,0,0,0,0,0,0,0,0,0,0,0,1,1,1,135,space,5.355459800000062,None,0,1,0.4603443999994852,None,space,3.229952200000298,None,0,0,0,1,,,,,5,2,42,7,110.78940320000038,,,,,,,,,,,,,,,,,,,,,110.77407519999997,110.78940320000038,111.27318589999959,111.27857680000034,111.29668349999974,111.77301989999978,,,,,111.77323979999983,111.78837039999962,111.98904200000015,111.97284469999977,111.29668349999974,,,,,,,,0,1,0.4603443999994852,None,,,,,,,,852,23,V,R,2026-02-23_12h14.01.393,VisualSearch_2526_3,,2025.2.4,2026-02-23 12h14.01.634658 +0100,
vertical.xlsx,The target is tilted.,135,43,3,5,0,1,1,1,0,0,0,0,0,0,0,0,1,3,4,135,space,5.355459800000062,None,0,1,0.6251412000001437,None,space,3.229952200000298,None,0,0,0,1,,,,,5,3,43,6,111.98904200000015,,,,,,,,,,,,,,,,,,,,,111.97368720000031,111.98904200000015,112.47279009999966,112.47813169999972,112.4947860000002,113.12298170000031,,,,,113.12320660000023,113.13814060000004,113.33859050000046,113.32222999999976,112.4947860000002,,,,,,,,0,1,0.6251412000001437,None,,,,,,,,852,23,V,R,2026-02-23_12h14.01.393,VisualSearch_2526_3,,2025.2.4,2026-02-23 12h14.01.634658 +0100,
vertical.xlsx,The target is tilted.,135,44,4,5,0,1,1,1,1,1,1,1,0,0,0,0,1,7,8,135,space,5.355459800000062,None,0,1,0.7295573000001241,None,space,3.229952200000298,None,0,0,0,1,,,,,5,4,44,5,113.33859050000046,,,,,,,,,,,,,,,,,,,,,113.32304529999965,113.33859050000046,113.82202190000044,113.82737290000023,113.8435227,114.58790279999994,,,,,114.58801479999966,114.60460839999996,,114.78826339999978,113.8435227,,,,,,,,0,1,0.7295573000001241,None,,,,,,,,852,23,V,R,2026-02-23_12h14.01.393,VisualSearch_2526_3,,2025.2.4,2026-02-23 12h14.01.634658 +0100,
vertical.xlsx,The target is tilted.,135,45,5,5,1,1,1,1,0,0,0,0,0,0,0,0,0,3,4,135,space,5.355459800000062,None,1,1,0.598619399999734,None,space,3.229952200000298,None,0,0,0,1,,,,,5,5,45,2,114.80466479999995,,,,,,,,,,,,,,,,,,,,,114.78899730000012,114.80466479999995,115.2883253,115.29382970000006,115.30812609999975,115.92187009999998,,,,,115.92209400000047,115.93703689999984,116.13757970000006,116.12170739999965,,,,,,,,,1,1,0.598619399999734,None,,,,,,,,852,23,V,R,2026-02-23_12h14.01.393,VisualSearch_2526_3,,2025.2.4,2026-02-23 12h14.01.634658 +0100,
vertical.xlsx,The target is tilted.,135,46,6,5,0,1,1,1,1,1,1,1,1,1,1,1,1,11,12,135,space,5.355459800000062,None,0,1,0.7235105999998268,None,space,3.229952200000298,None,0,0,0,1,,,,,5,6,46,4,116.13757970000006,,,,,,,,,,,,,,,,,,,,,116.12252799999987,116.13757970000006,116.62154989999999,116.62690569999995,116.64546619999965,117.37148009999964,,,,,117.37167700000009,117.38668630000029,117.58682950000002,117.5711411000002,116.64546619999965,,,,,,,,0,1,0.7235105999998268,None,,,,,,,,852,23,V,R,2026-02-23_12h14.01.393,VisualSearch_2526_3,,2025.2.4,2026-02-23 12h14.01.634658 +0100,
vertical.xlsx,The target is tilted.,135,47,7,5,1,1,1,1,1,1,1,1,0,0,0,0,0,7,8,135,space,5.355459800000062,None,0,0,0.917719500000203,None,space,3.229952200000298,None,0,0,0,1,,,,,5,7,47,1,117.58682950000002,,,,,,,,,,,,,,,,,,,,,117.57193949999964,117.58682950000002,118.07095449999997,118.07651280000027,118.09500310000021,119.02076790000046,,,,,119.02093129999957,119.03635370000029,119.2365421000004,119.2205858999996,118.09500310000021,,,,,,,,0,0,0.917719500000203,None,,,,,,,,852,23,V,R,2026-02-23_12h14.01.393,VisualSearch_2526_3,,2025.2.4,2026-02-23 12h14.01.634658 +0100,
vertical.xlsx,The target is tilted.,135,48,0,6,0,1,1,1,0,0,0,0,0,0,0,0,1,3,4,135,space,5.355459800000062,None,0,1,0.5996548000002804,None,space,3.229952200000298,None,0,0,0,1,,,,,6,0,48,6,119.2365421000004,,,,,,,,,,,,,,,,,,,,,119.22138509999968,119.2365421000004,119.72054130000015,119.72607460000017,119.74372800000037,120.35412079999969,,,,,120.35435309999957,120.36915330000011,120.5696224000003,120.55343780000021,119.74372800000037,,,,,,,,0,1,0.5996548000002804,None,,,,,,,,852,23,V,R,2026-02-23_12h14.01.393,VisualSearch_2526_3,,2025.2.4,2026-02-23 12h14.01.634658 +0100,
vertical.xlsx,The target is tilted.,135,49,1,6,0,1,1,1,1,1,1,1,0,0,0,0,1,7,8,135,space,5.355459800000062,None,0,1,0.9685597999996389,None,space,3.229952200000298,None,0,0,0,1,,,,,6,1,49,5,120.5696224000003,,,,,,,,,,,,,,,,,,,,,120.55424700000003,120.5696224000003,121.05334700000003,121.05867109999963,121.07434130000001,122.05360420000034,,,,,122.05388490000041,122.06843959999969,122.26881719999983,122.25271539999994,121.07434130000001,,,,,,,,0,1,0.9685597999996389,None,,,,,,,,852,23,V,R,2026-02-23_12h14.01.393,VisualSearch_2526_3,,2025.2.4,2026-02-23 12h14.01.634658 +0100,
vertical.xlsx,The target is tilted.,135,50,2,6,0,0,0,0,0,0,0,0,0,0,0,0,1,1,1,135,space,5.355459800000062,None,0,1,0.5814307000000554,None,space,3.229952200000298,None,0,0,0,1,,,,,6,2,50,7,122.26881719999983,,,,,,,,,,,,,,,,,,,,,122.25353910000013,122.26881719999983,122.75263360000008,122.75797570000032,122.77699459999985,123.3698843000002,,,,,123.37012659999982,123.38476759999958,123.58530619999965,123.56919529999959,122.77699459999985,,,,,,,,0,1,0.5814307000000554,None,,,,,,,,852,23,V,R,2026-02-23_12h14.01.393,VisualSearch_2526_3,,2025.2.4,2026-02-23 12h14.01.634658 +0100,
vertical.xlsx,The target is tilted.,135,51,3,6,1,0,0,0,0,0,0,0,0,0,0,0,0,0,1,135,space,5.355459800000062,None,1,1,0.5060575999996217,None,space,3.229952200000298,None,0,0,0,1,,,,,6,3,51,3,123.58530619999965,,,,,,,,,,,,,,,,,,,,,123.5699854000004,123.58530619999965,124.06908860000021,124.07433670000046,124.08983230000013,124.60235929999999,,,,,124.60255770000003,124.61755189999985,124.81816720000006,124.80212430000029,124.08983230000013,,,,,,,,1,1,0.5060575999996217,None,,,,,,,,852,23,V,R,2026-02-23_12h14.01.393,VisualSearch_2526_3,,2025.2.4,2026-02-23 12h14.01.634658 +0100,
vertical.xlsx,The target is tilted.,135,52,4,6,1,1,1,1,1,1,1,1,1,1,1,1,0,11,12,135,space,5.355459800000062,None,0,0,1.6069588999998814,None,space,3.229952200000298,None,0,0,0,1,,,,,6,4,52,0,124.81816720000006,,,,,,,,,,,,,,,,,,,,,124.80292499999996,124.81816720000006,125.3019419000002,125.3072658000001,125.32531469999958,126.93554229999972,,,,,126.93576699999994,126.95022969999991,127.15078240000003,127.13469009999972,125.32531469999958,,,,,,,,0,0,1.6069588999998814,None,,,,,,,,852,23,V,R,2026-02-23_12h14.01.393,VisualSearch_2526_3,,2025.2.4,2026-02-23 12h14.01.634658 +0100,
vertical.xlsx,The target is tilted.,135,53,5,6,0,1,1,1,1,1,1,1,1,1,1,1,1,11,12,135,space,5.355459800000062,None,0,1,1.0260650000000169,None,space,3.229952200000298,None,0,0,0,1,,,,,6,5,53,4,127.15078240000003,,,,,,,,,,,,,,,,,,,,,127.13551550000011,127.15078240000003,127.63451970000006,127.63984809999965,127.65854500000023,128.70069500000045,,,,,128.70089389999976,128.71632109999973,128.91688710000017,128.90079409999998,127.65854500000023,,,,,,,,0,1,1.0260650000000169,None,,,,,,,,852,23,V,R,2026-02-23_12h14.01.393,VisualSearch_2526_3,,2025.2.4,2026-02-23 12h14.01.634658 +0100,
vertical.xlsx,The target is tilted.,135,54,6,6,1,1,1,1,0,0,0,0,0,0,0,0,0,3,4,135,space,5.355459800000062,None,1,1,0.6476065999995626,None,space,3.229952200000298,None,0,0,0,1,,,,,6,6,54,2,128.91688710000017,,,,,,,,,,,,,,,,,,,,,128.90159330000006,128.91688710000017,129.40068710000014,129.4060344999998,129.42382579999958,130.0834550999998,,,,,130.08366959999967,130.09928920000038,130.29982440000003,130.28361899999982,129.42382579999958,,,,,,,,1,1,0.6476065999995626,None,,,,,,,,852,23,V,R,2026-02-23_12h14.01.393,VisualSearch_2526_3,,2025.2.4,2026-02-23 12h14.01.634658 +0100,
vertical.xlsx,The target is tilted.,135,55,7,6,1,1,1,1,1,1,1,1,0,0,0,0,0,7,8,135,space,5.355459800000062,None,1,1,0.9884305000005043,None,space,3.229952200000298,None,0,0,0,1,,,,,6,7,55,1,130.29982440000003,,,,,,,,,,,,,,,,,,,,,130.28442540000015,130.29982440000003,130.78302020000046,130.7857737000004,130.79934700000013,131.8001766999996,,,,,131.8004073000002,131.81554059999962,132.0154607000004,131.9997215000003,130.79934700000013,,,,,,,,1,1,0.9884305000005043,None,,,,,,,,852,23,V,R,2026-02-23_12h14.01.393,VisualSearch_2526_3,,2025.2.4,2026-02-23 12h14.01.634658 +0100,
vertical.xlsx,The target is tilted.,135,56,0,7,0,1,1,1,0,0,0,0,0,0,0,0,1,3,4,135,space,5.355459800000062,None,0,1,0.6020627999996577,None,space,3.229952200000298,None,0,0,0,1,,,,,7,0,56,6,132.0154607000004,,,,,,,,,,,,,,,,,,,,,132.00053800000023,132.0154607000004,132.4992941999999,132.50458359999993,132.5230574999996,133.1330181000003,,,,,133.13321460000043,133.1481673999997,133.34856219999983,133.33256689999962,132.5230574999996,,,,,,,,0,1,0.6020627999996577,None,,,,,,,,852,23,V,R,2026-02-23_12h14.01.393,VisualSearch_2526_3,,2025.2.4,2026-02-23 12h14.01.634658 +0100,
vertical.xlsx,The target is tilted.,135,57,1,7,1,0,0,0,0,0,0,0,0,0,0,0,0,0,1,135,space,5.355459800000062,None,1,1,0.5143881999993027,None,space,3.229952200000298,None,0,0,0,1,,,,,7,1,57,3,133.34856219999983,,,,,,,,,,,,,,,,,,,,,133.33341399999972,133.34856219999983,133.8325616000002,133.83792699999958,133.85517900000013,134.38238309999997,,,,,134.38260309999987,134.39795700000013,134.59845469999982,134.58208159999958,133.85517900000013,,,,,,,,1,1,0.5143881999993027,None,,,,,,,,852,23,V,R,2026-02-23_12h14.01.393,VisualSearch_2526_3,,2025.2.4,2026-02-23 12h14.01.634658 +0100,
vertical.xlsx,The target is tilted.,135,58,2,7,0,0,0,0,0,0,0,0,0,0,0,0,1,1,1,135,space,5.355459800000062,None,0,1,0.5220218000004024,None,space,3.229952200000298,None,0,0,0,1,,,,,7,2,58,7,134.59845469999982,,,,,,,,,,,,,,,,,,,,,134.58291259999987,134.59845469999982,135.0820074000003,135.08735530000013,135.10668270000042,135.63166900000033,,,,,135.63179029999992,135.64722400000028,135.84767420000026,135.83204790000036,135.10668270000042,,,,,,,,0,1,0.5220218000004024,None,,,,,,,,852,23,V,R,2026-02-23_12h14.01.393,VisualSearch_2526_3,,2025.2.4,2026-02-23 12h14.01.634658 +0100,
vertical.xlsx,The target is tilted.,135,59,3,7,0,1,1,1,1,1,1,1,0,0,0,0,1,7,8,135,space,5.355459800000062,None,0,1,1.0402623999998468,None,space,3.229952200000298,None,0,0,0,1,,,,,7,3,59,5,135.84767420000026,,,,,,,,,,,,,,,,,,,,,135.83287159999963,135.84767420000026,136.3318459000002,136.33694040000046,136.34760929999993,137.39935830000013,,,,,137.39971549999973,137.41359310000007,137.61398949999966,137.5980354000003,136.34760929999993,,,,,,,,0,1,1.0402623999998468,None,,,,,,,,852,23,V,R,2026-02-23_12h14.01.393,VisualSearch_2526_3,,2025.2.4,2026-02-23 12h14.01.634658 +0100,
vertical.xlsx,The target is tilted.,135,60,4,7,1,1,1,1,1,1,1,1,0,0,0,0,0,7,8,135,space,5.355459800000062,None,0,0,0.7553820000002816,None,space,3.229952200000298,None,0,0,0,1,,,,,7,4,60,1,137.61398949999966,,,,,,,,,,,,,,,,,,,,,137.59883290000016,137.61398949999966,138.09785089999968,138.10323049999988,138.11947359999976,138.88155889999962,,,,,138.88177489999998,138.89631410000038,139.09641230000034,139.08050300000014,138.11947359999976,,,,,,,,0,0,0.7553820000002816,None,,,,,,,,852,23,V,R,2026-02-23_12h14.01.393,VisualSearch_2526_3,,2025.2.4,2026-02-23 12h14.01.634658 +0100,
vertical.xlsx,The target is tilted.,135,61,5,7,0,1,1,1,1,1,1,1,1,1,1,1,1,11,12,135,space,5.355459800000062,None,0,1,0.9725052000003416,None,space,3.229952200000298,None,0,0,0,1,,,,,7,5,61,4,139.09641230000034,,,,,,,,,,,,,,,,,,,,,139.08132620000015,139.09641230000034,139.5803804999996,139.58569999999963,139.6032428999997,140.58098830000017,,,,,140.5812077999999,140.59590260000004,140.79634929999975,140.78034039999966,139.6032428999997,,,,,,,,0,1,0.9725052000003416,None,,,,,,,,852,23,V,R,2026-02-23_12h14.01.393,VisualSearch_2526_3,,2025.2.4,2026-02-23 12h14.01.634658 +0100,
vertical.xlsx,The target is tilted.,135,62,6,7,1,1,1,1,0,0,0,0,0,0,0,0,0,3,4,135,space,5.355459800000062,None,1,1,0.519114400000035,None,space,3.229952200000298,None,0,0,0,1,,,,,7,6,62,2,140.79634929999975,,,,,,,,,,,,,,,,,,,,,140.78121029999966,140.79634929999975,141.2801644000001,141.28551770000013,141.30303619999995,141.82963389999986,,,,,141.82972539999992,141.84512970000014,142.0459890000002,142.02986799999962,141.30303619999995,,,,,,,,1,1,0.519114400000035,None,,,,,,,,852,23,V,R,2026-02-23_12h14.01.393,VisualSearch_2526_3,,2025.2.4,2026-02-23 12h14.01.634658 +0100,
vertical.xlsx,The target is tilted.,135,63,7,7,1,1,1,1,1,1,1,1,1,1,1,1,0,11,12,135,space,5.355459800000062,None,1,1,1.0682016999999178,None,space,3.229952200000298,None,0,0,0,1,,,,,7,7,63,0,142.0459890000002,,,,,,,,,,,,,,,,,,,,,142.03067069999997,142.0459890000002,142.52977889999966,142.53515599999992,142.55304520000027,143.62999889999992,,,,,143.63027450000027,143.64484280000033,143.8453674000002,143.82931819999976,142.55304520000027,,,,,,,,1,1,1.0682016999999178,None,,,,,,,,852,23,V,R,2026-02-23_12h14.01.393,VisualSearch_2526_3,,2025.2.4,2026-02-23 12h14.01.634658 +0100,
vertical.xlsx,The target is tilted.,135,64,0,8,1,1,1,1,1,1,1,1,1,1,1,1,0,11,12,135,space,5.355459800000062,None,1,1,0.5439937000001009,None,space,3.229952200000298,None,0,0,0,1,,,,,8,0,64,0,143.8453674000002,,,,,,,,,,,,,,,,,,,,,143.8301105999999,143.8453674000002,144.32912020000003,144.33442100000048,144.35211499999969,144.9116581999997,,,,,144.91180410000015,144.9276122000001,145.1282994000003,145.11196519999976,144.35211499999969,,,,,,,,1,1,0.5439937000001009,None,,,,,,,,852,23,V,R,2026-02-23_12h14.01.393,VisualSearch_2526_3,,2025.2.4,2026-02-23 12h14.01.634658 +0100,
vertical.xlsx,The target is tilted.,135,65,1,8,1,1,1,1,1,1,1,1,0,0,0,0,0,7,8,135,space,5.355459800000062,None,1,1,0.5090281000002506,None,space,3.229952200000298,None,0,0,0,1,,,,,8,1,65,1,145.1282994000003,,,,,,,,,,,,,,,,,,,,,145.1127948000003,145.1282994000003,145.61190679999982,145.61716129999968,145.6362783000004,146.16133400000035,,,,,146.1615039999997,146.1771976,146.3777415000004,146.36181060000035,145.6362783000004,,,,,,,,1,1,0.5090281000002506,None,,,,,,,,852,23,V,R,2026-02-23_12h14.01.393,VisualSearch_2526_3,,2025.2.4,2026-02-23 12h14.01.634658 +0100,
vertical.xlsx,The target is tilted.,135,66,2,8,1,0,0,0,0,0,0,0,0,0,0,0,0,0,1,135,space,5.355459800000062,None,1,1,0.40917199999967124,None,space,3.229952200000298,None,0,0,0,1,,,,,8,2,66,3,146.3777415000004,,,,,,,,,,,,,,,,,,,,,146.36260409999977,146.3777415000004,146.8617688000004,146.86711410000044,146.88317019999977,147.2943263999996,,,,,147.2944706999997,147.3103288000002,147.5108962000004,147.4947860000002,146.88317019999977,,,,,,,,1,1,0.40917199999967124,None,,,,,,,,852,23,V,R,2026-02-23_12h14.01.393,VisualSearch_2526_3,,2025.2.4,2026-02-23 12h14.01.634658 +0100,
vertical.xlsx,The target is tilted.,135,67,3,8,0,1,1,1,0,0,0,0,0,0,0,0,1,3,4,135,space,5.355459800000062,None,0,1,0.6211742000004961,None,space,3.229952200000298,None,0,0,0,1,,,,,8,3,67,6,147.5108962000004,,,,,,,,,,,,,,,,,,,,,147.49557710000045,147.5108962000004,147.99448250000023,147.99998049999977,148.0172534000003,148.64478109999982,,,,,148.64497519999986,148.6595513000002,148.8603776,148.84416049999982,148.0172534000003,,,,,,,,0,1,0.6211742000004961,None,,,,,,,,852,23,V,R,2026-02-23_12h14.01.393,VisualSearch_2526_3,,2025.2.4,2026-02-23 12h14.01.634658 +0100,
vertical.xlsx,The target is tilted.,135,68,4,8,1,1,1,1,0,0,0,0,0,0,0,0,0,3,4,135,space,5.355459800000062,None,1,1,0.7375984999998764,None,space,3.229952200000298,None,0,0,0,1,,,,,8,4,68,2,148.8603776,,,,,,,,,,,,,,,,,,,,,148.8449711000003,148.8603776,149.34363550000035,149.3488956000001,149.36527469999965,150.1115136999997,,,,,150.11174829999982,150.12608739999996,150.32662770000024,150.31056050000007,149.36527469999965,,,,,,,,1,1,0.7375984999998764,None,,,,,,,,852,23,V,R,2026-02-23_12h14.01.393,VisualSearch_2526_3,,2025.2.4,2026-02-23 12h14.01.634658 +0100,
vertical.xlsx,The target is tilted.,135,69,5,8,0,1,1,1,1,1,1,1,0,0,0,0,1,7,8,135,space,5.355459800000062,None,0,1,0.9254709999995612,None,space,3.229952200000298,None,0,0,0,1,,,,,8,5,69,5,150.32662770000024,,,,,,,,,,,,,,,,,,,,,150.3113659999999,150.32662770000024,150.81039659999988,150.8156194000003,150.83318190000045,151.7597291000002,,,,,151.75981860000047,151.77521270000034,151.97607210000024,151.95992170000045,150.83318190000045,,,,,,,,0,1,0.9254709999995612,None,,,,,,,,852,23,V,R,2026-02-23_12h14.01.393,VisualSearch_2526_3,,2025.2.4,2026-02-23 12h14.01.634658 +0100,
vertical.xlsx,The target is tilted.,135,70,6,8,0,1,1,1,1,1,1,1,1,1,1,1,1,11,12,135,space,5.355459800000062,None,0,1,1.167105200000151,None,space,3.229952200000298,None,0,0,0,1,,,,,8,6,70,4,151.97607210000024,,,,,,,,,,,,,,,,,,,,,151.96071959999972,151.97607210000024,152.45992949999982,152.46525910000037,152.4833861999996,153.65944839999975,,,,,153.65959209999983,153.67466760000025,153.8751788999998,153.85942820000037,152.4833861999996,,,,,,,,0,1,1.167105200000151,None,,,,,,,,852,23,V,R,2026-02-23_12h14.01.393,VisualSearch_2526_3,,2025.2.4,2026-02-23 12h14.01.634658 +0100,
vertical.xlsx,The target is tilted.,135,71,7,8,0,0,0,0,0,0,0,0,0,0,0,0,1,1,1,135,space,5.355459800000062,None,0,1,0.5386707999996361,None,space,3.229952200000298,None,0,0,0,1,,,,,8,7,71,7,153.8751788999998,,,,,,,,,,,,,,,,,,,,,153.86028030000034,153.8751788999998,154.3592080999997,154.3644121999996,154.38278040000023,154.92571640000006,,,,,154.9259192999998,154.94110069999988,155.14140039999984,155.1256543999998,154.38278040000023,,,,,,,,0,1,0.5386707999996361,None,,,,,,,,852,23,V,R,2026-02-23_12h14.01.393,VisualSearch_2526_3,,2025.2.4,2026-02-23 12h14.01.634658 +0100,
vertical.xlsx,The target is tilted.,135,72,0,9,0,1,1,1,1,1,1,1,0,0,0,0,1,7,8,135,space,5.355459800000062,None,0,1,0.9406775999996171,None,space,3.229952200000298,None,0,0,0,1,,,,,9,0,72,5,155.14140039999984,,,,,,,,,,,,,,,,,,,,,155.12644379999983,155.14140039999984,155.62551540000004,155.63038940000024,155.6412425999997,156.59259819999988,,,,,156.59281060000012,156.60746199999994,156.8077030000004,156.7918722000004,155.6412425999997,,,,,,,,0,1,0.9406775999996171,None,,,,,,,,852,23,V,R,2026-02-23_12h14.01.393,VisualSearch_2526_3,,2025.2.4,2026-02-23 12h14.01.634658 +0100,
vertical.xlsx,The target is tilted.,135,73,1,9,0,0,0,0,0,0,0,0,0,0,0,0,1,1,1,135,space,5.355459800000062,None,0,1,0.46108819999972184,None,space,3.229952200000298,None,0,0,0,1,,,,,9,1,73,7,156.8077030000004,,,,,,,,,,,,,,,,,,,,,156.7926851000002,156.8077030000004,157.29167440000037,157.29694569999992,157.3130756999999,157.79086730000017,,,,,157.79101050000008,157.80725820000043,158.00735629999963,157.99124050000046,157.3130756999999,,,,,,,,0,1,0.46108819999972184,None,,,,,,,,852,23,V,R,2026-02-23_12h14.01.393,VisualSearch_2526_3,,2025.2.4,2026-02-23 12h14.01.634658 +0100,
vertical.xlsx,The target is tilted.,135,74,2,9,1,1,1,1,0,0,0,0,0,0,0,0,0,3,4,135,space,5.355459800000062,None,1,1,0.5300580999992235,None,space,3.229952200000298,None,0,0,0,1,,,,,9,2,74,2,158.00735629999963,,,,,,,,,,,,,,,,,,,,,157.99204350000036,158.00735629999963,158.49128420000034,158.49659710000014,158.51428850000048,159.05795579999995,,,,,159.0581728999996,159.07316749999973,159.2736729999997,159.25763480000023,158.51428850000048,,,,,,,,1,1,0.5300580999992235,None,,,,,,,,852,23,V,R,2026-02-23_12h14.01.393,VisualSearch_2526_3,,2025.2.4,2026-02-23 12h14.01.634658 +0100,
vertical.xlsx,The target is tilted.,135,75,3,9,1,0,0,0,0,0,0,0,0,0,0,0,0,0,1,135,space,5.355459800000062,None,1,1,0.4284381999996185,None,space,3.229952200000298,None,0,0,0,1,,,,,9,3,75,3,159.2736729999997,,,,,,,,,,,,,,,,,,,,,159.25842170000033,159.2736729999997,159.75659040000028,159.75916179999967,159.77329399999962,160.20777999999973,,,,,160.20802569999978,160.2226999000004,160.42323399999987,160.4072699999997,159.77329399999962,,,,,,,,1,1,0.4284381999996185,None,,,,,,,,852,23,V,R,2026-02-23_12h14.01.393,VisualSearch_2526_3,,2025.2.4,2026-02-23 12h14.01.634658 +0100,
vertical.xlsx,The target is tilted.,135,76,4,9,0,1,1,1,0,0,0,0,0,0,0,0,1,3,4,135,space,5.355459800000062,None,0,1,0.5557588000001488,None,space,3.229952200000298,None,0,0,0,1,,,,,9,4,76,6,160.42323399999987,,,,,,,,,,,,,,,,,,,,,160.4081454999996,160.42323399999987,160.90711720000036,160.91232649999984,160.92994999999974,161.49060410000038,,,,,161.49082269999963,161.5057213,161.70621120000033,161.69018039999992,160.92994999999974,,,,,,,,0,1,0.5557588000001488,None,,,,,,,,852,23,V,R,2026-02-23_12h14.01.393,VisualSearch_2526_3,,2025.2.4,2026-02-23 12h14.01.634658 +0100,
vertical.xlsx,The target is tilted.,135,77,5,9,1,1,1,1,1,1,1,1,0,0,0,0,0,7,8,135,space,5.355459800000062,None,1,1,0.9813723999996,None,space,3.229952200000298,None,0,0,0,1,,,,,9,5,77,1,161.70621120000033,,,,,,,,,,,,,,,,,,,,,161.69097330000022,161.70621120000033,162.19000789999973,162.19521319999967,162.21328929999981,163.2062152999997,,,,,163.20636019999984,163.22179179999966,163.42220090000046,163.40634779999982,162.21328929999981,,,,,,,,1,1,0.9813723999996,None,,,,,,,,852,23,V,R,2026-02-23_12h14.01.393,VisualSearch_2526_3,,2025.2.4,2026-02-23 12h14.01.634658 +0100,
vertical.xlsx,The target is tilted.,135,78,6,9,0,1,1,1,1,1,1,1,1,1,1,1,1,11,12,135,space,5.355459800000062,None,0,1,0.8315667000006215,None,space,3.229952200000298,None,0,0,0,1,,,,,9,6,78,4,163.42220090000046,,,,,,,,,,,,,,,,,,,,,163.40717529999984,163.42220090000046,163.90559389999999,163.9083096000004,163.9216053,164.7554908000002,,,,,164.7555812999999,164.77100530000007,164.97155380000004,164.95561989999987,163.9216053,,,,,,,,0,1,0.8315667000006215,None,,,,,,,,852,23,V,R,2026-02-23_12h14.01.393,VisualSearch_2526_3,,2025.2.4,2026-02-23 12h14.01.634658 +0100,
vertical.xlsx,The target is tilted.,135,79,7,9,1,1,1,1,1,1,1,1,1,1,1,1,0,11,12,135,space,5.355459800000062,None,1,1,1.1413118000000395,None,space,3.229952200000298,None,0,0,0,1,,,,,9,7,79,0,164.97155380000004,,,,,,,,,,,,,,,,,,,,,164.95641739999974,164.97155380000004,165.45566700000018,165.46156100000007,165.48087510000005,166.63768100000016,,,,,166.63778340000044,166.65431420000004,,166.8382631000004,165.48087510000005,,,,,,,,1,1,1.1413118000000395,None,,,,,,,,852,23,V,R,2026-02-23_12h14.01.393,VisualSearch_2526_3,,2025.2.4,2026-02-23 12h14.01.634658 +0100,
vertical.xlsx,The target is tilted.,135,80,0,10,0,1,1,1,0,0,0,0,0,0,0,0,1,3,4,135,space,5.355459800000062,None,0,1,0.7195741999994425,None,space,3.229952200000298,None,0,0,0,1,,,,,10,0,80,6,166.85463359999994,,,,,,,,,,,,,,,,,,,,,166.83914670000013,166.85463359999994,167.3381158000002,167.34373940000023,167.36058950000006,168.08836390000033,,,,,168.0885373000001,168.10359719999997,168.30397979999998,168.28808800000024,,,,,,,,,0,1,0.7195741999994425,None,,,,,,,,852,23,V,R,2026-02-23_12h14.01.393,VisualSearch_2526_3,,2025.2.4,2026-02-23 12h14.01.634658 +0100,
vertical.xlsx,The target is tilted.,135,81,1,10,0,1,1,1,1,1,1,1,1,1,1,1,1,11,12,135,space,5.355459800000062,None,0,1,1.189550600000075,None,space,3.229952200000298,None,0,0,0,1,,,,,10,1,81,4,168.30397979999998,,,,,,,,,,,,,,,,,,,,,168.28887899999972,168.30397979999998,168.7873024999999,168.78986480000003,168.80370610000045,170.00445539999964,,,,,170.00464809999994,170.01962170000024,170.21977789999983,170.2037104000001,168.80370610000045,,,,,,,,0,1,1.189550600000075,None,,,,,,,,852,23,V,R,2026-02-23_12h14.01.393,VisualSearch_2526_3,,2025.2.4,2026-02-23 12h14.01.634658 +0100,
vertical.xlsx,The target is tilted.,135,82,2,10,0,0,0,0,0,0,0,0,0,0,0,0,1,1,1,135,space,5.355459800000062,None,0,1,0.49415849999968486,None,space,3.229952200000298,None,0,0,0,1,,,,,10,2,82,7,170.21977789999983,,,,,,,,,,,,,,,,,,,,,170.20452860000023,170.21977789999983,170.70387540000047,170.7090994,170.72778430000017,171.23636549999992,,,,,171.2364974000002,171.25252249999994,,171.4367812999999,170.72778430000017,,,,,,,,0,1,0.49415849999968486,None,,,,,,,,852,23,V,R,2026-02-23_12h14.01.393,VisualSearch_2526_3,,2025.2.4,2026-02-23 12h14.01.634658 +0100,
vertical.xlsx,The target is tilted.,135,83,3,10,1,0,0,0,0,0,0,0,0,0,0,0,0,0,1,135,space,5.355459800000062,None,1,1,0.49138029999994615,None,space,3.229952200000298,None,0,0,0,1,,,,,10,3,83,3,171.45302270000047,,,,,,,,,,,,,,,,,,,,,171.43764089999968,171.45302270000047,171.93679429999975,171.9420768,171.96014170000035,172.45356509999965,,,,,172.4537349000002,172.4692882999998,172.6690208,172.6533013999997,171.96014170000035,,,,,,,,1,1,0.49138029999994615,None,,,,,,,,852,23,V,R,2026-02-23_12h14.01.393,VisualSearch_2526_3,,2025.2.4,2026-02-23 12h14.01.634658 +0100,
vertical.xlsx,The target is tilted.,135,84,4,10,1,1,1,1,1,1,1,1,1,1,1,1,0,11,12,135,space,5.355459800000062,None,1,1,0.949450699999943,None,space,3.229952200000298,None,0,0,0,1,,,,,10,4,84,0,172.6690208,,,,,,,,,,,,,,,,,,,,,172.65408509999997,172.6690208,173.15306119999968,173.15844130000005,173.17479989999993,174.1360579000002,,,,,174.1362035000002,174.15198690000034,174.35213170000043,174.3361487000002,173.17479989999993,,,,,,,,1,1,0.949450699999943,None,,,,,,,,852,23,V,R,2026-02-23_12h14.01.393,VisualSearch_2526_3,,2025.2.4,2026-02-23 12h14.01.634658 +0100,
vertical.xlsx,The target is tilted.,135,85,5,10,1,1,1,1,0,0,0,0,0,0,0,0,0,3,4,135,space,5.355459800000062,None,1,1,0.6663558000000194,None,space,3.229952200000298,None,0,0,0,1,,,,,10,5,85,2,174.35213170000043,,,,,,,,,,,,,,,,,,,,,174.33699439999964,174.35213170000043,174.83597800000007,174.8413115000003,174.86029870000038,175.53636189999997,,,,,175.5365738999999,175.55113840000013,175.75135109999974,175.7354421,174.86029870000038,,,,,,,,1,1,0.6663558000000194,None,,,,,,,,852,23,V,R,2026-02-23_12h14.01.393,VisualSearch_2526_3,,2025.2.4,2026-02-23 12h14.01.634658 +0100,
vertical.xlsx,The target is tilted.,135,86,6,10,1,1,1,1,1,1,1,1,0,0,0,0,0,7,8,135,space,5.355459800000062,None,1,1,0.6397212000001673,None,space,3.229952200000298,None,0,0,0,1,,,,,10,6,86,1,175.75135109999974,,,,,,,,,,,,,,,,,,,,,175.7362436000003,175.75135109999974,176.23550260000047,176.24000820000037,176.25125639999987,176.9020902000002,,,,,176.90227810000033,176.91744930000004,177.11763260000043,177.10054200000013,176.25125639999987,,,,,,,,1,1,0.6397212000001673,None,,,,,,,,852,23,V,R,2026-02-23_12h14.01.393,VisualSearch_2526_3,,2025.2.4,2026-02-23 12h14.01.634658 +0100,
vertical.xlsx,The target is tilted.,135,87,7,10,0,1,1,1,1,1,1,1,0,0,0,0,1,7,8,135,space,5.355459800000062,None,0,1,1.09061550000024,None,space,3.229952200000298,None,0,0,0,1,,,,,10,7,87,5,177.11763260000043,,,,,,,,,,,,,,,,,,,,,177.1007915,177.11763260000043,177.60142890000043,177.60670409999966,177.62449180000021,178.7183103999996,,,,,178.71848000000045,178.73403739999958,178.9339344,178.91794149999987,177.62449180000021,,,,,,,,0,1,1.09061550000024,None,,,,,,,,852,23,V,R,2026-02-23_12h14.01.393,VisualSearch_2526_3,,2025.2.4,2026-02-23 12h14.01.634658 +0100,
vertical.xlsx,The target is tilted.,135,88,0,11,0,1,1,1,1,1,1,1,1,1,1,1,1,11,12,135,space,5.355459800000062,None,0,1,0.8926376999997956,None,space,3.229952200000298,None,0,0,0,1,,,,,11,0,88,4,178.9339344,,,,,,,,,,,,,,,,,,,,,178.91887560000032,178.9339344,179.41798290000042,179.42328499999985,179.4405872999996,180.33443420000003,,,,,180.3346502000004,180.3499767000003,180.55019360000006,180.53380900000047,179.4405872999996,,,,,,,,0,1,0.8926376999997956,None,,,,,,,,852,23,V,R,2026-02-23_12h14.01.393,VisualSearch_2526_3,,2025.2.4,2026-02-23 12h14.01.634658 +0100,
vertical.xlsx,The target is tilted.,135,89,1,11,1,1,1,1,1,1,1,1,0,0,0,0,0,7,8,135,space,5.355459800000062,None,1,1,0.8168133000008311,None,space,3.229952200000298,None,0,0,0,1,,,,,11,1,89,1,180.55019360000006,,,,,,,,,,,,,,,,,,,,,180.53473639999993,180.55019360000006,181.0338214000003,181.03911119999975,181.0565773999997,181.88424980000036,,,,,181.8844736000001,181.899539,182.09918039999957,182.0833634999999,181.0565773999997,,,,,,,,1,1,0.8168133000008311,None,,,,,,,,852,23,V,R,2026-02-23_12h14.01.393,VisualSearch_2526_3,,2025.2.4,2026-02-23 12h14.01.634658 +0100,
vertical.xlsx,The target is tilted.,135,90,2,11,1,1,1,1,1,1,1,1,1,1,1,1,0,11,12,135,space,5.355459800000062,None,0,0,0.86272579999968,None,space,3.229952200000298,None,0,0,0,1,,,,,11,2,90,0,182.09918039999957,,,,,,,,,,,,,,,,,,,,,182.08421240000007,182.09918039999957,182.5830821999998,182.5883160000003,182.6054449000003,183.48336180000024,,,,,183.48355300000003,183.49912479999966,183.699071,183.6828604000002,182.6054449000003,,,,,,,,0,0,0.86272579999968,None,,,,,,,,852,23,V,R,2026-02-23_12h14.01.393,VisualSearch_2526_3,,2025.2.4,2026-02-23 12h14.01.634658 +0100,
vertical.xlsx,The target is tilted.,135,91,3,11,0,1,1,1,1,1,1,1,0,0,0,0,1,7,8,135,space,5.355459800000062,None,0,1,1.2402658000000883,None,space,3.229952200000298,None,0,0,0,1,,,,,11,3,91,5,183.699071,,,,,,,,,,,,,,,,,,,,,183.68367209999997,183.699071,184.18279749999965,184.1880017000003,184.20542680000017,185.4494992,,,,,185.44971720000012,185.46481649999987,185.66515760000038,185.6490874000001,184.20542680000017,,,,,,,,0,1,1.2402658000000883,None,,,,,,,,852,23,V,R,2026-02-23_12h14.01.393,VisualSearch_2526_3,,2025.2.4,2026-02-23 12h14.01.634658 +0100,
vertical.xlsx,The target is tilted.,135,92,4,11,0,1,1,1,0,0,0,0,0,0,0,0,1,3,4,135,space,5.355459800000062,None,0,1,0.879949399999532,None,space,3.229952200000298,None,0,0,0,1,,,,,11,4,92,6,185.66515760000038,,,,,,,,,,,,,,,,,,,,,185.64988249999988,185.66515760000038,186.14894249999998,186.1543357999999,186.17243529999996,187.0658454000004,,,,,187.06609649999973,187.0810646,187.2813524000003,187.2652366000002,186.17243529999996,,,,,,,,0,1,0.879949399999532,None,,,,,,,,852,23,V,R,2026-02-23_12h14.01.393,VisualSearch_2526_3,,2025.2.4,2026-02-23 12h14.01.634658 +0100,
vertical.xlsx,The target is tilted.,135,93,5,11,0,0,0,0,0,0,0,0,0,0,0,0,1,1,1,135,space,5.355459800000062,None,0,1,0.5701466999998956,None,space,3.229952200000298,None,0,0,0,1,,,,,11,5,93,7,187.2813524000003,,,,,,,,,,,,,,,,,,,,,187.2660496999997,187.2813524000003,187.76508749999994,187.77037759999985,187.78582089999964,188.36584889999995,,,,,188.36617019999994,188.3805269000004,188.58086550000007,188.56479740000032,187.78582089999964,,,,,,,,0,1,0.5701466999998956,None,,,,,,,,852,23,V,R,2026-02-23_12h14.01.393,VisualSearch_2526_3,,2025.2.4,2026-02-23 12h14.01.634658 +0100,
vertical.xlsx,The target is tilted.,135,94,6,11,1,1,1,1,0,0,0,0,0,0,0,0,0,3,4,135,space,5.355459800000062,None,1,1,0.7790698999997403,None,space,3.229952200000298,None,0,0,0,1,,,,,11,6,94,2,188.58086550000007,,,,,,,,,,,,,,,,,,,,,188.56561229999988,188.58086550000007,189.06459540000014,189.06978720000006,189.0856676000003,189.8818228,,,,,189.88204049999968,189.89713440000014,190.09699,190.0809731999998,189.0856676000003,,,,,,,,1,1,0.7790698999997403,None,,,,,,,,852,23,V,R,2026-02-23_12h14.01.393,VisualSearch_2526_3,,2025.2.4,2026-02-23 12h14.01.634658 +0100,
vertical.xlsx,The target is tilted.,135,95,7,11,1,0,0,0,0,0,0,0,0,0,0,0,0,0,1,135,space,5.355459800000062,None,1,1,0.5288904999997612,None,space,3.229952200000298,None,0,0,0,1,,,,,11,7,95,3,190.09699,,,,,,,,,,,,,,,,,,,,,190.08176639999965,190.09699,190.58086439999988,190.58454979999988,190.5967174999996,191.13116900000023,,,,,191.1314226000004,191.14603030000035,191.34621340000012,191.3305706000001,190.5967174999996,,,,,,,,1,1,0.5288904999997612,None,,,,,,,,852,23,V,R,2026-02-23_12h14.01.393,VisualSearch_2526_3,,2025.2.4,2026-02-23 12h14.01.634658 +0100,
vertical.xlsx,The target is tilted.,135,96,0,12,1,0,0,0,0,0,0,0,0,0,0,0,0,0,1,135,space,5.355459800000062,None,1,1,0.4694597999996404,None,space,3.229952200000298,None,0,0,0,1,,,,,12,0,96,3,191.34621340000012,,,,,,,,,,,,,,,,,,,,,191.33136589999958,191.34621340000012,191.83046000000013,191.83579199999986,191.85411759999988,192.33041950000006,,,,,192.3306394000001,192.3461331999997,192.54619149999962,192.53001060000042,191.85411759999988,,,,,,,,1,1,0.4694597999996404,None,,,,,,,,852,23,V,R,2026-02-23_12h14.01.393,VisualSearch_2526_3,,2025.2.4,2026-02-23 12h14.01.634658 +0100,
vertical.xlsx,The target is tilted.,135,97,1,12,0,0,0,0,0,0,0,0,0,0,0,0,1,1,1,135,space,5.355459800000062,None,0,1,0.538151800000378,None,space,3.229952200000298,None,0,0,0,1,,,,,12,1,97,7,192.54619149999962,,,,,,,,,,,,,,,,,,,,,192.53083499999957,192.54619149999962,193.02973180000026,193.0338512999997,193.04968540000027,193.5967853000002,,,,,193.59697479999977,193.61245419999977,193.8123502999997,193.79645129999972,193.04968540000027,,,,,,,,0,1,0.538151800000378,None,,,,,,,,852,23,V,R,2026-02-23_12h14.01.393,VisualSearch_2526_3,,2025.2.4,2026-02-23 12h14.01.634658 +0100,
vertical.xlsx,The target is tilted.,135,98,2,12,0,1,1,1,0,0,0,0,0,0,0,0,1,3,4,135,space,5.355459800000062,None,0,1,0.5779191999999966,None,space,3.229952200000298,None,0,0,0,1,,,,,12,2,98,6,193.8123502999997,,,,,,,,,,,,,,,,,,,,,193.7972410000002,193.8123502999997,194.29631880000034,194.30152269999962,194.32068040000013,194.91311099999984,,,,,194.91332890000012,194.92869400000018,195.12872179999977,195.1126016999997,194.32068040000013,,,,,,,,0,1,0.5779191999999966,None,,,,,,,,852,23,V,R,2026-02-23_12h14.01.393,VisualSearch_2526_3,,2025.2.4,2026-02-23 12h14.01.634658 +0100,
vertical.xlsx,The target is tilted.,135,99,3,12,1,1,1,1,0,0,0,0,0,0,0,0,0,3,4,135,space,5.355459800000062,None,1,1,0.8801869999997507,None,space,3.229952200000298,None,0,0,0,1,,,,,12,3,99,2,195.12872179999977,,,,,,,,,,,,,,,,,,,,,195.11343190000025,195.12872179999977,195.61224930000026,195.6174861999998,195.63466489999973,196.52882669999963,,,,,196.52895069999977,196.5445024999999,196.7445643000001,196.72874310000043,195.63466489999973,,,,,,,,1,1,0.8801869999997507,None,,,,,,,,852,23,V,R,2026-02-23_12h14.01.393,VisualSearch_2526_3,,2025.2.4,2026-02-23 12h14.01.634658 +0100,
vertical.xlsx,The target is tilted.,135,100,4,12,1,1,1,1,1,1,1,1,1,1,1,1,0,11,12,135,space,5.355459800000062,None,1,1,0.9832444000003306,None,space,3.229952200000298,None,0,0,0,1,,,,,12,4,100,0,196.7445643000001,,,,,,,,,,,,,,,,,,,,,196.7295307000004,196.7445643000001,197.22872430000007,197.2340253000002,197.25159359999998,198.24529489999986,,,,,198.24550360000012,198.2610321000002,198.46096080000007,198.44461260000026,197.25159359999998,,,,,,,,1,1,0.9832444000003306,None,,,,,,,,852,23,V,R,2026-02-23_12h14.01.393,VisualSearch_2526_3,,2025.2.4,2026-02-23 12h14.01.634658 +0100,
vertical.xlsx,The target is tilted.,135,101,5,12,0,1,1,1,1,1,1,1,0,0,0,0,1,7,8,135,space,5.355459800000062,None,0,1,0.8551040000002104,None,space,3.229952200000298,None,0,0,0,1,,,,,12,5,101,5,198.46096080000007,,,,,,,,,,,,,,,,,,,,,198.44542639999963,198.46096080000007,198.94469320000007,198.94991759999994,198.96826940000028,199.8279719000002,,,,,199.82813179999994,199.84355289999985,200.0437965000001,200.0278115000001,198.96826940000028,,,,,,,,0,1,0.8551040000002104,None,,,,,,,,852,23,V,R,2026-02-23_12h14.01.393,VisualSearch_2526_3,,2025.2.4,2026-02-23 12h14.01.634658 +0100,
vertical.xlsx,The target is tilted.,135,102,6,12,1,1,1,1,1,1,1,1,0,0,0,0,0,7,8,135,space,5.355459800000062,None,0,0,0.9312235999996119,None,space,3.229952200000298,None,0,0,0,1,,,,,12,6,102,1,200.0437965000001,,,,,,,,,,,,,,,,,,,,,200.0286329999999,200.0437965000001,200.52716429999964,200.5323988,200.54847770000015,201.49361930000032,,,,,201.49375690000034,201.50983929999984,201.70993410000028,201.69384580000042,200.54847770000015,,,,,,,,0,0,0.9312235999996119,None,,,,,,,,852,23,V,R,2026-02-23_12h14.01.393,VisualSearch_2526_3,,2025.2.4,2026-02-23 12h14.01.634658 +0100,
vertical.xlsx,The target is tilted.,135,103,7,12,0,1,1,1,1,1,1,1,1,1,1,1,1,11,12,135,space,5.355459800000062,None,0,1,1.0357365999998365,None,space,3.229952200000298,None,0,0,0,1,,,,,12,7,103,4,201.70993410000028,,,,,,,,,,,,,,,,,,,,,201.69463470000028,201.70993410000028,202.19358900000043,202.19901719999962,202.21595220000017,203.26063299999987,,,,,203.26085870000043,203.27556519999962,203.47569779999958,203.45996670000022,202.21595220000017,,,,,,,,0,1,1.0357365999998365,None,,,,,,,,852,23,V,R,2026-02-23_12h14.01.393,VisualSearch_2526_3,,2025.2.4,2026-02-23 12h14.01.634658 +0100,
vertical.xlsx,The target is tilted.,135,104,0,13,1,0,0,0,0,0,0,0,0,0,0,0,0,0,1,135,space,5.355459800000062,None,1,1,0.5826735999999073,None,space,3.229952200000298,None,0,0,0,1,,,,,13,0,104,3,203.47569779999958,,,,,,,,,,,,,,,,,,,,,203.46075540000038,203.47569779999958,203.95986840000023,203.96516979999979,203.98420439999973,204.57615580000038,,,,,204.5762992,204.5921275999999,204.79226449999987,204.77588490000016,203.98420439999973,,,,,,,,1,1,0.5826735999999073,None,,,,,,,,852,23,V,R,2026-02-23_12h14.01.393,VisualSearch_2526_3,,2025.2.4,2026-02-23 12h14.01.634658 +0100,
vertical.xlsx,The target is tilted.,135,105,1,13,0,1,1,1,1,1,1,1,1,1,1,1,1,11,12,135,space,5.355459800000062,None,0,1,0.8841849999998885,None,space,3.229952200000298,None,0,0,0,1,,,,,13,1,105,4,204.79226449999987,,,,,,,,,,,,,,,,,,,,,204.7766958000002,204.79226449999987,205.2761203,205.2814102000002,205.29759420000028,206.19246039999962,,,,,206.19265069999983,206.20844209999996,206.4084211999998,206.39202440000008,205.29759420000028,,,,,,,,0,1,0.8841849999998885,None,,,,,,,,852,23,V,R,2026-02-23_12h14.01.393,VisualSearch_2526_3,,2025.2.4,2026-02-23 12h14.01.634658 +0100,
vertical.xlsx,The target is tilted.,135,106,2,13,0,1,1,1,0,0,0,0,0,0,0,0,1,3,4,135,space,5.355459800000062,None,0,1,0.7223764000000301,None,space,3.229952200000298,None,0,0,0,1,,,,,13,2,106,6,206.4084211999998,,,,,,,,,,,,,,,,,,,,,206.39282699999967,206.4084211999998,206.89184839999962,206.89708539999992,206.9144709000002,207.64251580000018,,,,,207.64276510000036,207.65780600000016,207.85792330000004,207.8419455000003,206.9144709000002,,,,,,,,0,1,0.7223764000000301,None,,,,,,,,852,23,V,R,2026-02-23_12h14.01.393,VisualSearch_2526_3,,2025.2.4,2026-02-23 12h14.01.634658 +0100,
vertical.xlsx,The target is tilted.,135,107,3,13,0,0,0,0,0,0,0,0,0,0,0,0,1,1,1,135,space,5.355459800000062,None,1,0,0.38283709999996063,None,space,3.229952200000298,None,0,0,0,1,,,,,13,3,107,7,207.85792330000004,,,,,,,,,,,,,,,,,,,,,207.84276820000014,207.85792330000004,208.34161060000042,208.34679219999998,208.36394459999974,208.75847919999978,,,,,208.75864860000001,208.7742873999996,208.97423830000025,208.95824150000044,208.36394459999974,,,,,,,,1,0,0.38283709999996063,None,,,,,,,,852,23,V,R,2026-02-23_12h14.01.393,VisualSearch_2526_3,,2025.2.4,2026-02-23 12h14.01.634658 +0100,
vertical.xlsx,The target is tilted.,135,108,4,13,1,1,1,1,0,0,0,0,0,0,0,0,0,3,4,135,space,5.355459800000062,None,1,1,0.6930724000003465,None,space,3.229952200000298,None,0,0,0,1,,,,,13,4,108,2,208.97423830000025,,,,,,,,,,,,,,,,,,,,,208.95909719999963,208.97423830000025,209.45801759999995,209.4633163999997,209.4819908999998,210.19114160000026,,,,,210.1912854000002,210.20703580000009,210.40710109999964,210.39101310000024,209.4819908999998,,,,,,,,1,1,0.6930724000003465,None,,,,,,,,852,23,V,R,2026-02-23_12h14.01.393,VisualSearch_2526_3,,2025.2.4,2026-02-23 12h14.01.634658 +0100,
vertical.xlsx,The target is tilted.,135,109,5,13,1,1,1,1,1,1,1,1,0,0,0,0,0,7,8,135,space,5.355459800000062,None,1,1,1.005470599999171,None,space,3.229952200000298,None,0,0,0,1,,,,,13,5,109,1,210.40710109999964,,,,,,,,,,,,,,,,,,,,,210.3918133999996,210.40710109999964,210.89078280000012,210.8959775000003,210.91196920000039,211.9243938999998,,,,,211.92462290000003,211.9396413000004,212.1396480000003,212.1234045000001,210.91196920000039,,,,,,,,1,1,1.005470599999171,None,,,,,,,,852,23,V,R,2026-02-23_12h14.01.393,VisualSearch_2526_3,,2025.2.4,2026-02-23 12h14.01.634658 +0100,
vertical.xlsx,The target is tilted.,135,110,6,13,0,1,1,1,1,1,1,1,0,0,0,0,1,7,8,135,space,5.355459800000062,None,0,1,1.046411000000262,None,space,3.229952200000298,None,0,0,0,1,,,,,13,6,110,5,212.1396480000003,,,,,,,,,,,,,,,,,,,,,212.12419339999997,212.1396480000003,212.6233245000003,212.62857460000032,212.6458077999996,213.70735460000014,,,,,213.70757299999968,213.7225859,213.92252550000012,213.90664019999986,212.6458077999996,,,,,,,,0,1,1.046411000000262,None,,,,,,,,852,23,V,R,2026-02-23_12h14.01.393,VisualSearch_2526_3,,2025.2.4,2026-02-23 12h14.01.634658 +0100,
vertical.xlsx,The target is tilted.,135,111,7,13,1,1,1,1,1,1,1,1,1,1,1,1,0,11,12,135,space,5.355459800000062,None,1,1,0.8053970999999365,None,space,3.229952200000298,None,0,0,0,1,,,,,13,7,111,0,213.92252550000012,,,,,,,,,,,,,,,,,,,,,213.9074658999998,213.92252550000012,214.40623649999998,214.41155780000008,214.43084379999982,215.2397289999999,,,,,215.23994649999986,215.25538630000028,215.45547239999996,215.4393216999997,214.43084379999982,,,,,,,,1,1,0.8053970999999365,None,,,,,,,,852,23,V,R,2026-02-23_12h14.01.393,VisualSearch_2526_3,,2025.2.4,2026-02-23 12h14.01.634658 +0100,
vertical.xlsx,The target is tilted.,135,112,0,14,1,0,0,0,0,0,0,0,0,0,0,0,0,0,1,135,space,5.355459800000062,None,1,1,0.46891770000002,None,space,3.229952200000298,None,0,0,0,1,,,,,14,0,112,3,215.45547239999996,,,,,,,,,,,,,,,,,,,,,215.4401244999999,215.45547239999996,215.93890499999998,215.94416160000037,215.96067180000045,216.4397224000004,,,,,216.43993659999978,216.4549952999996,216.65509230000043,216.63902140000027,215.96067180000045,,,,,,,,1,1,0.46891770000002,None,,,,,,,,852,23,V,R,2026-02-23_12h14.01.393,VisualSearch_2526_3,,2025.2.4,2026-02-23 12h14.01.634658 +0100,
vertical.xlsx,The target is tilted.,135,113,1,14,0,1,1,1,0,0,0,0,0,0,0,0,1,3,4,135,space,5.355459800000062,None,0,1,0.5675935999997819,None,space,3.229952200000298,None,0,0,0,1,,,,,14,1,113,6,216.65509230000043,,,,,,,,,,,,,,,,,,,,,216.63981369999965,216.65509230000043,217.13895239999965,217.14427270000033,217.1618196999998,217.73925940000026,,,,,217.7395088000003,217.75416769999993,217.9543421999997,217.93850569999995,217.1618196999998,,,,,,,,0,1,0.5675935999997819,None,,,,,,,,852,23,V,R,2026-02-23_12h14.01.393,VisualSearch_2526_3,,2025.2.4,2026-02-23 12h14.01.634658 +0100,
vertical.xlsx,The target is tilted.,135,114,2,14,1,1,1,1,0,0,0,0,0,0,0,0,0,3,4,135,space,5.355459800000062,None,1,1,0.6907773000002635,None,space,3.229952200000298,None,0,0,0,1,,,,,14,2,114,2,217.9543421999997,,,,,,,,,,,,,,,,,,,,,217.93930920000003,217.9543421999997,218.4384315999996,218.44354199999998,218.45384889999968,219.15543520000028,,,,,219.15569849999974,219.1706647000001,219.3705258,219.35480740000003,218.45384889999968,,,,,,,,1,1,0.6907773000002635,None,,,,,,,,852,23,V,R,2026-02-23_12h14.01.393,VisualSearch_2526_3,,2025.2.4,2026-02-23 12h14.01.634658 +0100,
vertical.xlsx,The target is tilted.,135,115,3,14,0,1,1,1,1,1,1,1,1,1,1,1,1,11,12,135,space,5.355459800000062,None,0,1,1.1716843000003792,None,space,3.229952200000298,None,0,0,0,1,,,,,14,3,115,4,219.3705258,,,,,,,,,,,,,,,,,,,,,219.35563850000017,219.3705258,219.8543748000002,219.8596094000004,219.8767428000001,221.0538778,,,,,221.05402460000005,221.0699052,221.27015800000027,221.25409039999977,219.8767428000001,,,,,,,,0,1,1.1716843000003792,None,,,,,,,,852,23,V,R,2026-02-23_12h14.01.393,VisualSearch_2526_3,,2025.2.4,2026-02-23 12h14.01.634658 +0100,
vertical.xlsx,The target is tilted.,135,116,4,14,0,0,0,0,0,0,0,0,0,0,0,0,1,1,1,135,space,5.355459800000062,None,0,1,0.47096400000009453,None,space,3.229952200000298,None,0,0,0,1,,,,,14,4,116,7,221.27015800000027,,,,,,,,,,,,,,,,,,,,,221.25489769999967,221.27015800000027,221.7536553,221.75918269999966,221.77954150000005,222.25389879999966,,,,,222.25409430000036,222.2698706000001,222.46986920000018,222.4537006999999,221.77954150000005,,,,,,,,0,1,0.47096400000009453,None,,,,,,,,852,23,V,R,2026-02-23_12h14.01.393,VisualSearch_2526_3,,2025.2.4,2026-02-23 12h14.01.634658 +0100,
vertical.xlsx,The target is tilted.,135,117,5,14,0,1,1,1,1,1,1,1,0,0,0,0,1,7,8,135,space,5.355459800000062,None,0,1,1.4166071999998167,None,space,3.229952200000298,None,0,0,0,1,,,,,14,5,117,5,222.46986920000018,,,,,,,,,,,,,,,,,,,,,222.4545280000002,222.46986920000018,222.9535348999998,222.95888230000037,222.9779752000004,224.40374220000012,,,,,224.4039812000001,224.41885189999994,224.6191775999996,224.60296110000036,222.9779752000004,,,,,,,,0,1,1.4166071999998167,None,,,,,,,,852,23,V,R,2026-02-23_12h14.01.393,VisualSearch_2526_3,,2025.2.4,2026-02-23 12h14.01.634658 +0100,
vertical.xlsx,The target is tilted.,135,118,6,14,1,1,1,1,1,1,1,1,1,1,1,1,0,11,12,135,space,5.355459800000062,None,1,1,0.8210581000003003,None,space,3.229952200000298,None,0,0,0,1,,,,,14,6,118,0,224.6191775999996,,,,,,,,,,,,,,,,,,,,,224.60378909999963,224.6191775999996,225.10278740000012,225.1080748000004,225.12414590000026,225.95262290000028,,,,,225.95276379999996,225.96832730000006,226.16858049999973,226.15261069999997,225.12414590000026,,,,,,,,1,1,0.8210581000003003,None,,,,,,,,852,23,V,R,2026-02-23_12h14.01.393,VisualSearch_2526_3,,2025.2.4,2026-02-23 12h14.01.634658 +0100,
vertical.xlsx,The target is tilted.,135,119,7,14,1,1,1,1,1,1,1,1,0,0,0,0,0,7,8,135,space,5.355459800000062,None,1,1,0.8832918000007339,None,space,3.229952200000298,None,0,0,0,1,,,,,14,7,119,1,226.16858049999973,,,,,,,,,,,,,,,,,,,,,226.15340949999973,226.16858049999973,226.65209649999997,226.65726809999978,226.6720777999999,227.56849820000025,,,,,227.56861320000007,227.5845392000001,227.80235600000015,227.7687090999998,226.6720777999999,,,,,,,,1,1,0.8832918000007339,None,,,,,,,,852,23,V,R,2026-02-23_12h14.01.393,VisualSearch_2526_3,,2025.2.4,2026-02-23 12h14.01.634658 +0100,
vertical.xlsx,The target is tilted.,135,0,0,0,,,,,,,,,,,,,,,,,space,5.355459800000062,None,,,,,space,3.229952200000298,None,0,0,0,1,,,,,,,,,,,,,,,,,,,,,,,,,,,,,,,,,,,,,,,,,,,,,,,,,,,,,,,,,,,,,,,852,23,V,R,2026-02-23_12h14.01.393,VisualSearch_2526_3,,2025.2.4,2026-02-23 12h14.01.634658 +0100,
tilted.xlsx,The target is tilted.,117,0,0,0,1,1,1,1,0,0,0,0,0,0,0,0,0,3,4,117,space,4.9874478000001545,None,1,1,0.9413307999993776,None,,,,0,1,1,0,0,0,0,2,,,,,232.81938790000004,,,,,,,,,,,,,,,227.80235600000015,227.80235600000015,227.80235600000015,space,4.9874478000001545,None,232.81562920000033,232.81938790000004,233.31563480000023,233.31753279999975,233.33220720000008,234.28346090000014,1,1,0.9413307999993776,None,234.2836742999998,234.2995692000004,234.49924009999995,234.48293560000002,,,,,,,,,,,,,,,,,,,,852,23,V,R,2026-02-23_12h14.01.393,VisualSearch_2526_3,,2025.2.4,2026-02-23 12h14.01.634658 +0100,
tilted.xlsx,The target is tilted.,117,1,1,0,0,1,1,1,0,0,0,0,0,0,0,0,1,3,4,117,space,4.9874478000001545,None,0,1,1.1058319000003394,None,,,,0,1,1,0,0,1,1,6,,,,,234.49924009999995,,,,,,,,,,,,,,,,,,,,,234.48359809999965,234.49924009999995,234.98298179999983,234.98833240000022,235.00394700000015,236.11622799999986,0,1,1.1058319000003394,None,236.1164343999999,236.13178679999965,236.33148640000036,236.3161768,235.00394700000015,,,,,,,,,,,,,,,,,,,852,23,V,R,2026-02-23_12h14.01.393,VisualSearch_2526_3,,2025.2.4,2026-02-23 12h14.01.634658 +0100,
tilted.xlsx,The target is tilted.,117,2,2,0,1,1,1,1,1,1,1,1,0,0,0,0,0,7,8,117,space,4.9874478000001545,None,1,1,2.31281349999972,None,,,,0,1,1,0,0,2,2,1,,,,,236.33148640000036,,,,,,,,,,,,,,,,,,,,,236.31708919999983,236.33148640000036,236.81581040000037,236.8211124999998,236.83824900000036,239.16563589999987,1,1,2.31281349999972,None,239.16586559999996,239.18093500000032,239.38110010000037,239.36488960000042,236.83824900000036,,,,,,,,,,,,,,,,,,,852,23,V,R,2026-02-23_12h14.01.393,VisualSearch_2526_3,,2025.2.4,2026-02-23 12h14.01.634658 +0100,
tilted.xlsx,The target is tilted.,117,3,3,0,0,1,1,1,1,1,1,1,0,0,0,0,1,7,8,117,space,4.9874478000001545,None,1,0,1.4035362999993595,None,,,,0,1,1,0,0,3,3,5,,,,,239.38110010000037,,,,,,,,,,,,,,,,,,,,,239.3656565000001,239.38110010000037,239.86484139999993,239.87006459999975,239.88889670000026,241.29810720000023,1,0,1.4035362999993595,None,241.29832559999977,241.31362050000007,241.51329160000023,241.4973925000004,239.88889670000026,,,,,,,,,,,,,,,,,,,852,23,V,R,2026-02-23_12h14.01.393,VisualSearch_2526_3,,2025.2.4,2026-02-23 12h14.01.634658 +0100,
tilted.xlsx,The target is tilted.,117,4,4,0,1,1,1,1,1,1,1,1,1,1,1,1,0,11,12,117,space,4.9874478000001545,None,1,1,3.233784900000501,None,,,,0,1,1,0,0,4,4,0,,,,,241.51329160000023,,,,,,,,,,,,,,,,,,,,,241.49827360000018,241.51329160000023,241.99745069999972,242.00262850000036,242.01849700000002,245.2636235,1,1,3.233784900000501,None,245.2638694999996,245.27898000000005,245.4790965000002,245.46282619999965,242.01849700000002,,,,,,,,,,,,,,,,,,,852,23,V,R,2026-02-23_12h14.01.393,VisualSearch_2526_3,,2025.2.4,2026-02-23 12h14.01.634658 +0100,
tilted.xlsx,The target is tilted.,117,5,5,0,0,0,0,0,0,0,0,0,0,0,0,0,1,1,1,117,space,4.9874478000001545,None,0,1,0.7437621999997646,None,,,,0,1,1,0,0,5,5,7,,,,,245.4790965000002,,,,,,,,,,,,,,,,,,,,,245.4635771000003,245.4790965000002,245.9626615999996,245.9686375000001,245.9857423000003,246.74584820000018,0,1,0.7437621999997646,None,246.7459783000004,246.76152319999983,246.9612029,246.94528739999987,245.9857423000003,,,,,,,,,,,,,,,,,,,852,23,V,R,2026-02-23_12h14.01.393,VisualSearch_2526_3,,2025.2.4,2026-02-23 12h14.01.634658 +0100,
tilted.xlsx,The target is tilted.,117,6,6,0,1,0,0,0,0,0,0,0,0,0,0,0,0,0,1,117,space,4.9874478000001545,None,1,1,0.7176547999997638,None,,,,0,1,1,0,0,6,6,3,,,,,246.9612029,,,,,,,,,,,,,,,,,,,,,246.9456057999996,246.9612029,247.44567319999987,247.45091270000012,247.46700880000026,248.1959539999998,1,1,0.7176547999997638,None,248.1961835000002,248.2111162000001,248.41115210000044,248.39538439999978,247.46700880000026,,,,,,,,,,,,,,,,,,,852,23,V,R,2026-02-23_12h14.01.393,VisualSearch_2526_3,,2025.2.4,2026-02-23 12h14.01.634658 +0100,
tilted.xlsx,The target is tilted.,117,7,7,0,0,1,1,1,1,1,1,1,1,1,1,1,1,11,12,117,space,4.9874478000001545,None,0,1,4.806220600000415,None,,,,0,1,1,0,0,7,7,4,,,,,248.41115210000044,,,,,,,,,,,,,,,,,,,,,248.3961145000003,248.41115210000044,248.8952430999998,248.9004520999997,248.91582759999983,253.7275335000004,0,1,4.806220600000415,None,253.72777870000027,253.7425820999997,253.94302470000002,253.92688290000024,248.91582759999983,,,,,,,,,,,,,,,,,,,852,23,V,R,2026-02-23_12h14.01.393,VisualSearch_2526_3,,2025.2.4,2026-02-23 12h14.01.634658 +0100,
tilted.xlsx,The target is tilted.,117,0,0,0,1,1,1,1,1,1,1,1,0,0,0,0,0,7,8,117,space,4.9874478000001545,None,1,1,1.1599417999996149,None,space,1.2592840000006618,None,0,1,1,0,,,,,0,0,0,1,255.24157699999978,,,,,,,,,,,,,,,,,,,,,255.2373117999996,255.24157699999978,255.72591569999986,255.73126150000007,255.74922479999987,256.9256736999996,,,,,256.9257934999996,256.94139300000006,257.14187779999975,257.1255282000002,,253.93459989999974,253.94302470000002,253.94302470000002,255.2101659,space,1.2592840000006618,None,1,1,1.1599417999996149,None,,,,,,,,852,23,V,R,2026-02-23_12h14.01.393,VisualSearch_2526_3,,2025.2.4,2026-02-23 12h14.01.634658 +0100,
tilted.xlsx,The target is tilted.,117,1,1,0,0,1,1,1,1,1,1,1,0,0,0,0,1,7,8,117,space,4.9874478000001545,None,0,1,1.7742729000001418,None,space,1.2592840000006618,None,0,1,1,0,,,,,0,1,1,5,257.14187779999975,,,,,,,,,,,,,,,,,,,,,257.12632250000024,257.14187779999975,257.6257188999998,257.63095410000005,257.64939270000013,259.4256607999996,,,,,259.42590329999985,259.44119370000044,259.64102830000047,259.62512249999963,257.64939270000013,,,,,,,,0,1,1.7742729000001418,None,,,,,,,,852,23,V,R,2026-02-23_12h14.01.393,VisualSearch_2526_3,,2025.2.4,2026-02-23 12h14.01.634658 +0100,
tilted.xlsx,The target is tilted.,117,2,2,0,1,0,0,0,0,0,0,0,0,0,0,0,0,0,1,117,space,4.9874478000001545,None,1,1,0.6886961999998675,None,space,1.2592840000006618,None,0,1,1,0,,,,,0,2,2,3,259.64102830000047,,,,,,,,,,,,,,,,,,,,,259.6259978999997,259.64102830000047,260.1249147999997,260.1302416999997,260.1499309000001,260.8420242000002,,,,,260.8422373000003,260.85724709999977,261.0573205999999,261.04108689999975,260.1499309000001,,,,,,,,1,1,0.6886961999998675,None,,,,,,,,852,23,V,R,2026-02-23_12h14.01.393,VisualSearch_2526_3,,2025.2.4,2026-02-23 12h14.01.634658 +0100,
tilted.xlsx,The target is tilted.,117,3,3,0,0,1,1,1,1,1,1,1,1,1,1,1,1,11,12,117,space,4.9874478000001545,None,0,1,1.9449055999994016,None,space,1.2592840000006618,None,0,1,1,0,,,,,0,3,3,4,261.0573205999999,,,,,,,,,,,,,,,,,,,,,261.0419174999997,261.0573205999999,261.5407959000004,261.5453543000003,261.55664049999996,263.5073628,,,,,263.5075367999998,263.5227060999996,263.7231902000003,263.7070764,261.55664049999996,,,,,,,,0,1,1.9449055999994016,None,,,,,,,,852,23,V,R,2026-02-23_12h14.01.393,VisualSearch_2526_3,,2025.2.4,2026-02-23 12h14.01.634658 +0100,
tilted.xlsx,The target is tilted.,117,4,4,0,1,1,1,1,0,0,0,0,0,0,0,0,0,3,4,117,space,4.9874478000001545,None,1,1,0.9898847000004025,None,space,1.2592840000006618,None,0,1,1,0,,,,,0,4,4,2,263.7231902000003,,,,,,,,,,,,,,,,,,,,,263.7078703999996,263.7231902000003,264.20687720000024,264.2121384000002,264.2296401000003,265.2233305999998,,,,,265.2235176000004,265.2391838000003,265.4392367999999,265.42304220000005,264.2296401000003,,,,,,,,1,1,0.9898847000004025,None,,,,,,,,852,23,V,R,2026-02-23_12h14.01.393,VisualSearch_2526_3,,2025.2.4,2026-02-23 12h14.01.634658 +0100,
tilted.xlsx,The target is tilted.,117,5,5,0,1,1,1,1,1,1,1,1,1,1,1,1,0,11,12,117,space,4.9874478000001545,None,1,1,2.568540700000085,None,space,1.2592840000006618,None,0,1,1,0,,,,,0,5,5,0,265.4392367999999,,,,,,,,,,,,,,,,,,,,,265.4238753999998,265.4392367999999,265.9228710999996,265.9281001999998,265.9453206999997,268.5224212000003,,,,,268.52261180000005,268.5381304000002,268.73824309999964,268.72201049999967,265.9453206999997,,,,,,,,1,1,2.568540700000085,None,,,,,,,,852,23,V,R,2026-02-23_12h14.01.393,VisualSearch_2526_3,,2025.2.4,2026-02-23 12h14.01.634658 +0100,
tilted.xlsx,The target is tilted.,117,6,6,0,0,0,0,0,0,0,0,0,0,0,0,0,1,1,1,117,space,4.9874478000001545,None,0,1,0.6107838999996602,None,space,1.2592840000006618,None,0,1,1,0,,,,,0,6,6,7,268.73824309999964,,,,,,,,,,,,,,,,,,,,,268.72281939999993,268.73824309999964,269.22204169999986,269.2273181999999,269.24380759999985,269.8709355000001,,,,,269.87103389999993,269.88747260000036,,270.0711946000001,269.24380759999985,,,,,,,,0,1,0.6107838999996602,None,,,,,,,,852,23,V,R,2026-02-23_12h14.01.393,VisualSearch_2526_3,,2025.2.4,2026-02-23 12h14.01.634658 +0100,
tilted.xlsx,The target is tilted.,117,7,7,0,0,1,1,1,0,0,0,0,0,0,0,0,1,3,4,117,space,4.9874478000001545,None,0,1,0.9196938999994018,None,space,1.2592840000006618,None,0,1,1,0,,,,,0,7,7,6,270.0869120999996,,,,,,,,,,,,,,,,,,,,,270.07210250000026,270.0869120999996,270.5712556999997,270.57655989999967,270.59538150000026,271.5218007000003,,,,,271.5220409000003,271.5375451,271.7372101000001,271.72114669999974,,,,,,,,,0,1,0.9196938999994018,None,,,,,,,,852,23,V,R,2026-02-23_12h14.01.393,VisualSearch_2526_3,,2025.2.4,2026-02-23 12h14.01.634658 +0100,
tilted.xlsx,The target is tilted.,117,8,0,1,1,1,1,1,1,1,1,1,0,0,0,0,0,7,8,117,space,4.9874478000001545,None,1,1,1.2689230999994834,None,space,1.2592840000006618,None,0,1,1,0,,,,,1,0,8,1,271.7372101000001,,,,,,,,,,,,,,,,,,,,,271.72194240000044,271.7372101000001,272.2209831,272.22631530000035,272.24406160000035,273.52084790000026,,,,,273.52103629999965,273.5364437999997,273.73628610000014,273.72046990000035,272.24406160000035,,,,,,,,1,1,1.2689230999994834,None,,,,,,,,852,23,V,R,2026-02-23_12h14.01.393,VisualSearch_2526_3,,2025.2.4,2026-02-23 12h14.01.634658 +0100,
tilted.xlsx,The target is tilted.,117,9,1,1,0,1,1,1,1,1,1,1,0,0,0,0,1,7,8,117,space,4.9874478000001545,None,0,1,1.8624343999999837,None,space,1.2592840000006618,None,0,1,1,0,,,,,1,1,9,5,273.73628610000014,,,,,,,,,,,,,,,,,,,,,273.7212728000004,273.73628610000014,274.2199792000001,274.2252292000003,274.24163039999985,276.12026590000005,,,,,276.12051450000035,276.1354788999997,276.3357477999998,276.31965219999984,274.24163039999985,,,,,,,,0,1,1.8624343999999837,None,,,,,,,,852,23,V,R,2026-02-23_12h14.01.393,VisualSearch_2526_3,,2025.2.4,2026-02-23 12h14.01.634658 +0100,
tilted.xlsx,The target is tilted.,117,10,2,1,0,1,1,1,0,0,0,0,0,0,0,0,1,3,4,117,space,4.9874478000001545,None,0,1,1.0180632000001424,None,space,1.2592840000006618,None,0,1,1,0,,,,,1,2,10,6,276.3357477999998,,,,,,,,,,,,,,,,,,,,,276.32044700000006,276.3357477999998,276.8194556999997,276.8246869000004,276.84262469999976,277.8696600000003,,,,,277.8699340000003,277.88484679999965,278.08513630000016,278.06913090000035,276.84262469999976,,,,,,,,0,1,1.0180632000001424,None,,,,,,,,852,23,V,R,2026-02-23_12h14.01.393,VisualSearch_2526_3,,2025.2.4,2026-02-23 12h14.01.634658 +0100,
tilted.xlsx,The target is tilted.,117,11,3,1,0,1,1,1,1,1,1,1,1,1,1,1,1,11,12,117,space,4.9874478000001545,None,0,1,2.0286605999999665,None,space,1.2592840000006618,None,0,1,1,0,,,,,1,3,11,4,278.08513630000016,,,,,,,,,,,,,,,,,,,,,278.0699517000003,278.08513630000016,278.56877390000045,278.5740112000003,278.5920825000003,280.6351555000001,,,,,280.63533430000007,280.6507524999997,280.8508978,280.83481370000027,278.5920825000003,,,,,,,,0,1,2.0286605999999665,None,,,,,,,,852,23,V,R,2026-02-23_12h14.01.393,VisualSearch_2526_3,,2025.2.4,2026-02-23 12h14.01.634658 +0100,
tilted.xlsx,The target is tilted.,117,12,4,1,0,0,0,0,0,0,0,0,0,0,0,0,1,1,1,117,space,4.9874478000001545,None,0,1,0.49982600000021193,None,space,1.2592840000006618,None,0,1,1,0,,,,,1,4,12,7,280.8508978,,,,,,,,,,,,,,,,,,,,,280.8356166000003,280.8508978,281.3345310000004,281.33988969999973,281.35796990000017,281.8680469000001,,,,,281.8682368,281.88376059999973,282.0837918999996,282.067763,281.35796990000017,,,,,,,,0,1,0.49982600000021193,None,,,,,,,,852,23,V,R,2026-02-23_12h14.01.393,VisualSearch_2526_3,,2025.2.4,2026-02-23 12h14.01.634658 +0100,
tilted.xlsx,The target is tilted.,117,13,5,1,1,1,1,1,1,1,1,1,1,1,1,1,0,11,12,117,space,4.9874478000001545,None,1,1,1.3539614000001166,None,space,1.2592840000006618,None,0,1,1,0,,,,,1,5,13,0,282.0837918999996,,,,,,,,,,,,,,,,,,,,,282.0685795999998,282.0837918999996,282.56769129999975,282.57373410000037,282.58857309999985,283.9504049999996,,,,,283.9505473999998,283.96636579999995,284.16654329999983,284.1504668999996,282.58857309999985,,,,,,,,1,1,1.3539614000001166,None,,,,,,,,852,23,V,R,2026-02-23_12h14.01.393,VisualSearch_2526_3,,2025.2.4,2026-02-23 12h14.01.634658 +0100,
tilted.xlsx,The target is tilted.,117,14,6,1,1,1,1,1,0,0,0,0,0,0,0,0,0,3,4,117,space,4.9874478000001545,None,1,1,1.1548523000001296,None,space,1.2592840000006618,None,0,1,1,0,,,,,1,6,14,2,284.16654329999983,,,,,,,,,,,,,,,,,,,,,284.1512504000002,284.16654329999983,284.65027980000013,284.6554544999999,284.6738025000004,285.83326899999975,,,,,285.8334586000001,285.8491081000002,286.0492368000005,286.0330904000002,284.6738025000004,,,,,,,,1,1,1.1548523000001296,None,,,,,,,,852,23,V,R,2026-02-23_12h14.01.393,VisualSearch_2526_3,,2025.2.4,2026-02-23 12h14.01.634658 +0100,
tilted.xlsx,The target is tilted.,117,15,7,1,1,0,0,0,0,0,0,0,0,0,0,0,0,0,1,117,space,4.9874478000001545,None,1,1,0.5608689999999115,None,space,1.2592840000006618,None,0,1,1,0,,,,,1,7,15,3,286.0492368000005,,,,,,,,,,,,,,,,,,,,,286.03388710000036,286.0492368000005,286.53266110000004,286.53788989999975,286.5547489999999,287.13343259999965,,,,,287.1336755000002,287.1487095000002,287.34872670000004,287.33240469999964,286.5547489999999,,,,,,,,1,1,0.5608689999999115,None,,,,,,,,852,23,V,R,2026-02-23_12h14.01.393,VisualSearch_2526_3,,2025.2.4,2026-02-23 12h14.01.634658 +0100,
tilted.xlsx,The target is tilted.,117,16,0,2,1,1,1,1,1,1,1,1,0,0,0,0,0,7,8,117,space,4.9874478000001545,None,1,1,2.286740099999406,None,space,1.2592840000006618,None,0,1,1,0,,,,,2,0,16,1,287.34872670000004,,,,,,,,,,,,,,,,,,,,,287.33321049999995,287.34872670000004,287.83224750000045,287.8375146999997,287.8551404,290.1490781000002,,,,,290.1493221999999,290.16454669999985,290.36451169999964,290.3483968999999,287.8551404,,,,,,,,1,1,2.286740099999406,None,,,,,,,,852,23,V,R,2026-02-23_12h14.01.393,VisualSearch_2526_3,,2025.2.4,2026-02-23 12h14.01.634658 +0100,
tilted.xlsx,The target is tilted.,117,17,1,2,0,0,0,0,0,0,0,0,0,0,0,0,1,1,1,117,space,4.9874478000001545,None,0,1,0.6112640999999712,None,space,1.2592840000006618,None,0,1,1,0,,,,,2,1,17,7,290.36451169999964,,,,,,,,,,,,,,,,,,,,,290.3491868000001,290.36451169999964,290.84834299999966,290.8535786000002,290.8707432000001,291.4987258000001,,,,,291.4989403999998,291.5138936000003,291.71374879999985,291.6979567999997,290.8707432000001,,,,,,,,0,1,0.6112640999999712,None,,,,,,,,852,23,V,R,2026-02-23_12h14.01.393,VisualSearch_2526_3,,2025.2.4,2026-02-23 12h14.01.634658 +0100,
tilted.xlsx,The target is tilted.,117,18,2,2,0,1,1,1,1,1,1,1,1,1,1,1,1,11,12,117,space,4.9874478000001545,None,0,1,2.9667921999998725,None,space,1.2592840000006618,None,0,1,1,0,,,,,2,2,18,4,291.71374879999985,,,,,,,,,,,,,,,,,,,,,291.6987760000002,291.71374879999985,292.19786209999984,292.20315649999975,292.21846129999994,295.19705799999974,,,,,295.19723069999964,295.21285629999966,295.4127692000002,295.39685139999983,292.21846129999994,,,,,,,,0,1,2.9667921999998725,None,,,,,,,,852,23,V,R,2026-02-23_12h14.01.393,VisualSearch_2526_3,,2025.2.4,2026-02-23 12h14.01.634658 +0100,
tilted.xlsx,The target is tilted.,117,19,3,2,0,1,1,1,0,0,0,0,0,0,0,0,1,3,4,117,space,4.9874478000001545,None,0,1,1.1001962999998796,None,space,1.2592840000006618,None,0,1,1,0,,,,,2,3,19,6,295.4127692000002,,,,,,,,,,,,,,,,,,,,,295.39768639999966,295.4127692000002,295.8965827000002,295.90180450000025,295.9180876999999,297.0293375000001,,,,,297.02941610000016,297.04517510000005,297.24555190000046,297.22949439999957,295.9180876999999,,,,,,,,0,1,1.1001962999998796,None,,,,,,,,852,23,V,R,2026-02-23_12h14.01.393,VisualSearch_2526_3,,2025.2.4,2026-02-23 12h14.01.634658 +0100,
tilted.xlsx,The target is tilted.,117,20,4,2,1,1,1,1,1,1,1,1,1,1,1,1,0,11,12,117,space,4.9874478000001545,None,1,1,2.1902510999998412,None,space,1.2592840000006618,None,0,1,1,0,,,,,2,4,20,0,297.24555190000046,,,,,,,,,,,,,,,,,,,,,297.23029469999983,297.24555190000046,297.7294367000004,297.73468010000033,297.75244939999993,299.9459015000002,,,,,299.94614040000033,299.9612215999996,300.1609521999999,300.14508230000047,297.75244939999993,,,,,,,,1,1,2.1902510999998412,None,,,,,,,,852,23,V,R,2026-02-23_12h14.01.393,VisualSearch_2526_3,,2025.2.4,2026-02-23 12h14.01.634658 +0100,
tilted.xlsx,The target is tilted.,117,21,5,2,1,0,0,0,0,0,0,0,0,0,0,0,0,0,1,117,space,4.9874478000001545,None,1,1,0.7508690000004208,None,space,1.2592840000006618,None,0,1,1,0,,,,,2,5,21,3,300.1609521999999,,,,,,,,,,,,,,,,,,,,,300.1459351000003,300.1609521999999,300.6450157999998,300.6499020000001,300.6609715000004,301.42857280000044,,,,,301.4287569999997,301.44415990000016,301.64406229999986,301.62800789999983,300.6609715000004,,,,,,,,1,1,0.7508690000004208,None,,,,,,,,852,23,V,R,2026-02-23_12h14.01.393,VisualSearch_2526_3,,2025.2.4,2026-02-23 12h14.01.634658 +0100,
tilted.xlsx,The target is tilted.,117,22,6,2,1,1,1,1,0,0,0,0,0,0,0,0,0,3,4,117,space,4.9874478000001545,None,1,1,0.6546170999999958,None,space,1.2592840000006618,None,0,1,1,0,,,,,2,6,22,2,301.64406229999986,,,,,,,,,,,,,,,,,,,,,301.62884920000033,301.64406229999986,302.12799410000025,302.1332798000003,302.15233460000036,302.81056270000045,,,,,302.8106705,302.82685610000044,303.0270323000004,303.0110287999996,302.15233460000036,,,,,,,,1,1,0.6546170999999958,None,,,,,,,,852,23,V,R,2026-02-23_12h14.01.393,VisualSearch_2526_3,,2025.2.4,2026-02-23 12h14.01.634658 +0100,
tilted.xlsx,The target is tilted.,117,23,7,2,0,1,1,1,1,1,1,1,0,0,0,0,1,7,8,117,space,4.9874478000001545,None,0,1,2.063144800000373,None,space,1.2592840000006618,None,0,1,1,0,,,,,2,7,23,5,303.0270323000004,,,,,,,,,,,,,,,,,,,,,303.01189520000025,303.0270323000004,303.5108332,303.5160586000002,303.5352221000003,305.6099113,,,,,305.6100343999997,305.62578380000014,305.8261040999996,305.8100809999996,303.5352221000003,,,,,,,,0,1,2.063144800000373,None,,,,,,,,852,23,V,R,2026-02-23_12h14.01.393,VisualSearch_2526_3,,2025.2.4,2026-02-23 12h14.01.634658 +0100,
tilted.xlsx,The target is tilted.,117,24,0,3,1,1,1,1,1,1,1,1,1,1,1,1,0,11,12,117,space,4.9874478000001545,None,1,1,1.5020261999998183,None,space,1.2592840000006618,None,0,1,1,0,,,,,3,0,24,0,305.8261040999996,,,,,,,,,,,,,,,,,,,,,305.8108675000003,305.8261040999996,306.30972329999986,306.31493729999966,306.33158379999986,307.84299139999985,,,,,307.84317290000035,307.8584557000004,308.0587594999997,308.04236310000033,306.33158379999986,,,,,,,,1,1,1.5020261999998183,None,,,,,,,,852,23,V,R,2026-02-23_12h14.01.393,VisualSearch_2526_3,,2025.2.4,2026-02-23 12h14.01.634658 +0100,
tilted.xlsx,The target is tilted.,117,25,1,3,1,0,0,0,0,0,0,0,0,0,0,0,0,0,1,117,space,4.9874478000001545,None,1,1,0.7991431999998895,None,space,1.2592840000006618,None,0,1,1,0,,,,,3,1,25,3,308.0587594999997,,,,,,,,,,,,,,,,,,,,,308.0431722000003,308.0587594999997,308.54220019999957,308.5475293999998,308.5639920000003,309.37613070000043,,,,,309.3763809000002,309.3913100999998,309.5914260999998,309.5754777000002,308.5639920000003,,,,,,,,1,1,0.7991431999998895,None,,,,,,,,852,23,V,R,2026-02-23_12h14.01.393,VisualSearch_2526_3,,2025.2.4,2026-02-23 12h14.01.634658 +0100,
tilted.xlsx,The target is tilted.,117,26,2,3,0,1,1,1,1,1,1,1,1,1,1,1,1,11,12,117,space,4.9874478000001545,None,0,1,2.3313443999995798,None,space,1.2592840000006618,None,0,1,1,0,,,,,3,2,26,4,309.5914260999998,,,,,,,,,,,,,,,,,,,,,309.57627330000014,309.5914260999998,310.0753415999998,310.0805959999998,310.09870630000023,312.4419088000004,,,,,312.44212440000047,312.4569996,312.6572698,312.64120060000005,310.09870630000023,,,,,,,,0,1,2.3313443999995798,None,,,,,,,,852,23,V,R,2026-02-23_12h14.01.393,VisualSearch_2526_3,,2025.2.4,2026-02-23 12h14.01.634658 +0100,
tilted.xlsx,The target is tilted.,117,27,3,3,1,1,1,1,0,0,0,0,0,0,0,0,0,3,4,117,space,4.9874478000001545,None,1,1,0.6741922000001068,None,space,1.2592840000006618,None,0,1,1,0,,,,,3,3,27,2,312.6572698,,,,,,,,,,,,,,,,,,,,,312.6419919,312.6572698,313.1407207000002,313.14594810000017,313.1642181999996,313.84077549999984,,,,,313.84090620000006,313.8566638000002,314.05675820000033,314.0406382000001,313.1642181999996,,,,,,,,1,1,0.6741922000001068,None,,,,,,,,852,23,V,R,2026-02-23_12h14.01.393,VisualSearch_2526_3,,2025.2.4,2026-02-23 12h14.01.634658 +0100,
tilted.xlsx,The target is tilted.,117,28,4,3,0,0,0,0,0,0,0,0,0,0,0,0,1,1,1,117,space,4.9874478000001545,None,0,1,0.6278876999995191,None,space,1.2592840000006618,None,0,1,1,0,,,,,3,4,28,7,314.05675820000033,,,,,,,,,,,,,,,,,,,,,314.0414671999997,314.05675820000033,314.5402046999998,314.54547830000047,314.5625272999996,315.2070039,,,,,315.2071483,315.2229575000001,315.42299,315.4069652999997,314.5625272999996,,,,,,,,0,1,0.6278876999995191,None,,,,,,,,852,23,V,R,2026-02-23_12h14.01.393,VisualSearch_2526_3,,2025.2.4,2026-02-23 12h14.01.634658 +0100,
tilted.xlsx,The target is tilted.,117,29,5,3,0,1,1,1,0,0,0,0,0,0,0,0,1,3,4,117,space,4.9874478000001545,None,0,1,1.5102538999999524,None,space,1.2592840000006618,None,0,1,1,0,,,,,3,5,29,6,315.42299,,,,,,,,,,,,,,,,,,,,,315.4077569000001,315.42299,315.90679720000026,315.9126441999997,315.9305354999997,317.4564840000003,,,,,317.4566636999998,317.4720983999996,317.6723066000004,317.6562207999996,315.9305354999997,,,,,,,,0,1,1.5102538999999524,None,,,,,,,,852,23,V,R,2026-02-23_12h14.01.393,VisualSearch_2526_3,,2025.2.4,2026-02-23 12h14.01.634658 +0100,
tilted.xlsx,The target is tilted.,117,30,6,3,1,1,1,1,1,1,1,1,0,0,0,0,0,7,8,117,space,4.9874478000001545,None,1,1,0.6914341000001514,None,space,1.2592840000006618,None,0,1,1,0,,,,,3,6,30,1,317.6723066000004,,,,,,,,,,,,,,,,,,,,,317.6570152000004,317.6723066000004,318.15608989999964,318.1613698000001,318.1780007999996,318.87290889999986,,,,,318.8731207999999,318.88814900000034,319.08846840000024,319.0721083999997,318.1780007999996,,,,,,,,1,1,0.6914341000001514,None,,,,,,,,852,23,V,R,2026-02-23_12h14.01.393,VisualSearch_2526_3,,2025.2.4,2026-02-23 12h14.01.634658 +0100,
tilted.xlsx,The target is tilted.,117,31,7,3,0,1,1,1,1,1,1,1,0,0,0,0,1,7,8,117,space,4.9874478000001545,None,1,0,1.1605520000002798,None,space,1.2592840000006618,None,0,1,1,0,,,,,3,7,31,5,319.08846840000024,,,,,,,,,,,,,,,,,,,,,319.07294569999976,319.08846840000024,319.57199200000014,319.5772307999996,319.5952643999999,320.7716074,,,,,320.77176130000043,320.78767059999973,320.98786219999965,320.9717893999996,319.5952643999999,,,,,,,,1,0,1.1605520000002798,None,,,,,,,,852,23,V,R,2026-02-23_12h14.01.393,VisualSearch_2526_3,,2025.2.4,2026-02-23 12h14.01.634658 +0100,
tilted.xlsx,The target is tilted.,117,32,0,4,0,0,0,0,0,0,0,0,0,0,0,0,1,1,1,117,space,4.9874478000001545,None,0,1,0.6742764999999054,None,space,1.2592840000006618,None,0,1,1,0,,,,,4,0,32,7,320.98786219999965,,,,,,,,,,,,,,,,,,,,,320.9726217999996,320.98786219999965,321.47156129999985,321.47678970000015,321.49295059999986,322.17075899999963,,,,,322.1708445000004,322.18706120000024,,322.37110829999983,321.49295059999986,,,,,,,,0,1,0.6742764999999054,None,,,,,,,,852,23,V,R,2026-02-23_12h14.01.393,VisualSearch_2526_3,,2025.2.4,2026-02-23 12h14.01.634658 +0100,
tilted.xlsx,The target is tilted.,117,33,1,4,0,1,1,1,1,1,1,1,0,0,0,0,1,7,8,117,space,4.9874478000001545,None,0,1,2.1989385999995648,None,space,1.2592840000006618,None,0,1,1,0,,,,,4,1,33,5,322.38749240000016,,,,,,,,,,,,,,,,,,,,,322.37196289999974,322.38749240000016,322.87123710000014,322.8766969999997,322.8928463000002,325.1040882999996,,,,,325.1042851000002,325.11977240000033,325.3194182999996,325.3036001999999,322.8928463000002,,,,,,,,0,1,2.1989385999995648,None,,,,,,,,852,23,V,R,2026-02-23_12h14.01.393,VisualSearch_2526_3,,2025.2.4,2026-02-23 12h14.01.634658 +0100,
