file_name,block_instructions,target_example,thisN,thisTrialN,thisRepN,target_presence,opacity_1,opacity_2,opacity_3,opacity_4,opacity_5,opacity_6,opacity_7,opacity_8,opacity_9,opacity_10,opacity_11,opacity_12,n_distract,n_items,target_ori,key_resp_4.keys,key_resp_4.rt,key_resp_4.duration,key_resp.keys,key_resp.corr,key_resp.rt,key_resp.duration,key_resp_5.keys,key_resp_5.rt,key_resp_5.duration,blocks.thisRepN,blocks.thisTrialN,blocks.thisN,blocks.thisIndex,practice_trials.thisRepN,practice_trials.thisTrialN,practice_trials.thisN,practice_trials.thisIndex,trials.thisRepN,trials.thisTrialN,trials.thisN,trials.thisIndex,thisRow.t,notes,Welcome.started,WelcomeText.started,key_resp_2.started,Welcome.stopped,key_resp_2.keys,key_resp_2.rt,key_resp_2.duration,InformedConsent.started,text_4.started,InformedConsent.stopped,key_resp_6.keys,key_resp_6.rt,key_resp_6.duration,key_resp_4.started,example_target.started,text_3.started,blocks.key_resp_4.keys,blocks.key_resp_4.rt,blocks.key_resp_4.duration,FixCross.started,fixCross.started,FixCross.stopped,Stimulus.started,key_resp.started,Stimulus.stopped,practice_trials.key_resp.keys,practice_trials.key_resp.corr,practice_trials.key_resp.rt,practice_trials.key_resp.duration,BlankScreen.started,text.started,text.stopped,BlankScreen.stopped,fixCross.stopped,ExperimentStart.started,text_2.started,key_resp_5.started,ExperimentStart.stopped,blocks.key_resp_5.keys,blocks.key_resp_5.rt,blocks.key_resp_5.duration,trials.key_resp.keys,trials.key_resp.corr,trials.key_resp.rt,trials.key_resp.duration,Thanks.started,ThankYou.started,key_resp_3.started,Thanks.stopped,key_resp_3.keys,key_resp_3.rt,key_resp_3.duration,participant,leeftijd,gender,links/rechtshandig,date,expName,expVersion,psychopyVersion,expStart,
,,,,,,,,,,,,,,,,,,,,,,,,,,,,,,,,,,,,,,,,,,,,,,0.03870229999995445,0.06694199999992634,0.06694199999992634,48.42205619999993,space,48.17606090000004,None,,,,,,,,,,,,,,,,,,,,,,,,,,,,,,,,,,,,,,,,,,,,,,853,23,M,R,2026-02-25_11h05.30.420,VisualSearch_2526_3,,2025.2.4,2026-02-25 11h05.31.234810 +0100,
,,,,,,,,,,,,,,,,,,,,,,,,,,,,,,,,,,,,,,,,,,,,,,,,,,,,,48.42212159999997,48.42845079999995,52.81724499999996,y,4.391427300000032,None,,,,,,,,,,,,,,,,,,,,,,,,,,,,,,,,,,,,,,,,853,23,M,R,2026-02-25_11h05.30.420,VisualSearch_2526_3,,2025.2.4,2026-02-25 11h05.31.234810 +0100,
vertical.xlsx,The target is tilted.,135,0,0,0,1,1,1,1,0,0,0,0,0,0,0,0,0,3,4,135,space,13.397602200000051,None,1,1,1.0811198000000104,None,,,,0,0,0,1,0,0,0,2,,,,,66.43880539999998,,,,,,,,,,,,,,,52.94509299999993,52.94509299999993,52.94509299999993,space,13.397602200000051,None,66.4334599,66.43880539999998,66.86117449999995,66.86684429999991,66.88824729999999,67.97860989999992,1,1,1.0811198000000104,None,67.97888639999996,67.99380599999995,68.19401979999998,68.1780066,,,,,,,,,,,,,,,,,,,,853,23,M,R,2026-02-25_11h05.30.420,VisualSearch_2526_3,,2025.2.4,2026-02-25 11h05.31.234810 +0100,
vertical.xlsx,The target is tilted.,135,1,1,0,0,1,1,1,1,1,1,1,0,0,0,0,1,7,8,135,space,13.397602200000051,None,0,1,1.5313608999999815,None,,,,0,0,0,1,0,1,1,5,,,,,68.19401979999998,,,,,,,,,,,,,,,,,,,,,68.17874459999996,68.19401979999998,68.6778832,68.68321759999992,68.70598849999999,70.24460539999995,0,1,1.5313608999999815,None,70.24484439999992,70.2595604999999,70.4596775,70.4439059,68.70598849999999,,,,,,,,,,,,,,,,,,,853,23,M,R,2026-02-25_11h05.30.420,VisualSearch_2526_3,,2025.2.4,2026-02-25 11h05.31.234810 +0100,
vertical.xlsx,The target is tilted.,135,2,2,0,1,0,0,0,0,0,0,0,0,0,0,0,0,0,1,135,space,13.397602200000051,None,1,1,0.8598991999999726,None,,,,0,0,0,1,0,2,2,3,,,,,70.4596775,,,,,,,,,,,,,,,,,,,,,70.44468669999992,70.4596775,70.94358179999995,70.94893300000001,70.97019949999992,71.84389999999996,1,1,0.8598991999999726,None,71.84422269999993,71.85907279999992,72.05949309999994,72.04323039999997,70.97019949999992,,,,,,,,,,,,,,,,,,,853,23,M,R,2026-02-25_11h05.30.420,VisualSearch_2526_3,,2025.2.4,2026-02-25 11h05.31.234810 +0100,
vertical.xlsx,The target is tilted.,135,3,3,0,0,0,0,0,0,0,0,0,0,0,0,0,1,1,1,135,space,13.397602200000051,None,0,1,0.6434602000000496,None,,,,0,0,0,1,0,3,3,7,,,,,72.05949309999994,,,,,,,,,,,,,,,,,,,,,72.04399819999992,72.05949309999994,72.54319609999993,72.54854009999997,72.56308779999995,73.20997369999998,0,1,0.6434602000000496,None,73.21019609999996,73.22526829999993,73.4255766,73.40958239999998,72.56308779999995,,,,,,,,,,,,,,,,,,,853,23,M,R,2026-02-25_11h05.30.420,VisualSearch_2526_3,,2025.2.4,2026-02-25 11h05.31.234810 +0100,
vertical.xlsx,The target is tilted.,135,4,4,0,0,1,1,1,1,1,1,1,1,1,1,1,1,11,12,135,space,13.397602200000051,None,0,1,1.8318365999999742,None,,,,0,0,0,1,0,4,4,4,,,,,73.4255766,,,,,,,,,,,,,,,,,,,,,73.41033549999997,73.4255766,73.90909920000001,73.91455350000001,73.93626999999992,75.77618669999993,0,1,1.8318365999999742,None,75.77641210000002,75.79112339999995,75.99137759999996,75.97555360000001,73.93626999999992,,,,,,,,,,,,,,,,,,,853,23,M,R,2026-02-25_11h05.30.420,VisualSearch_2526_3,,2025.2.4,2026-02-25 11h05.31.234810 +0100,
vertical.xlsx,The target is tilted.,135,5,5,0,0,1,1,1,0,0,0,0,0,0,0,0,1,3,4,135,space,13.397602200000051,None,0,1,0.9485784999999396,None,,,,0,0,0,1,0,5,5,6,,,,,75.99137759999996,,,,,,,,,,,,,,,,,,,,,75.9762925,75.99137759999996,76.47500589999993,76.48034289999998,76.50179209999999,77.45892149999997,0,1,0.9485784999999396,None,77.4591696,77.47386619999997,77.67390049999995,77.6581635,76.50179209999999,,,,,,,,,,,,,,,,,,,853,23,M,R,2026-02-25_11h05.30.420,VisualSearch_2526_3,,2025.2.4,2026-02-25 11h05.31.234810 +0100,
vertical.xlsx,The target is tilted.,135,6,6,0,1,1,1,1,1,1,1,1,0,0,0,0,0,7,8,135,space,13.397602200000051,None,1,1,1.625847799999974,None,,,,0,0,0,1,0,6,6,1,,,,,77.67390049999995,,,,,,,,,,,,,,,,,,,,,77.6589467,77.67390049999995,78.15800689999992,78.16336839999997,78.18444119999992,79.82348709999997,1,1,1.625847799999974,None,79.82360529999994,79.83953789999998,80.04015299999992,80.0238961,78.18444119999992,,,,,,,,,,,,,,,,,,,853,23,M,R,2026-02-25_11h05.30.420,VisualSearch_2526_3,,2025.2.4,2026-02-25 11h05.31.234810 +0100,
vertical.xlsx,The target is tilted.,135,7,7,0,1,1,1,1,1,1,1,1,1,1,1,1,0,11,12,135,space,13.397602200000051,None,1,1,1.4923958999999059,None,,,,0,0,0,1,0,7,7,0,,,,,80.04015299999992,,,,,,,,,,,,,,,,,,,,,80.02470840000001,80.04015299999992,80.52394589999994,80.52937279999992,80.55058179999992,82.05687319999993,1,1,1.4923958999999059,None,82.05709159999992,82.07230219999997,82.31474229999992,82.25671139999997,80.55058179999992,,,,,,,,,,,,,,,,,,,853,23,M,R,2026-02-25_11h05.30.420,VisualSearch_2526_3,,2025.2.4,2026-02-25 11h05.31.234810 +0100,
vertical.xlsx,The target is tilted.,135,0,0,0,0,0,0,0,0,0,0,0,0,0,0,0,1,1,1,135,space,13.397602200000051,None,0,1,0.590711199999987,None,space,1.5987687999999025,None,0,0,0,1,,,,,0,0,0,7,83.97091709999995,,,,,,,,,,,,,,,,,,,,,83.96464389999994,83.97091709999995,84.43897909999998,84.44480820000001,84.46650089999991,85.07237669999995,,,,,85.07257699999991,85.08794339999997,85.28841349999993,85.27229169999998,,82.3098139,82.31474229999992,82.31474229999992,83.92319639999994,space,1.5987687999999025,None,0,1,0.590711199999987,None,,,,,,,,853,23,M,R,2026-02-25_11h05.30.420,VisualSearch_2526_3,,2025.2.4,2026-02-25 11h05.31.234810 +0100,
vertical.xlsx,The target is tilted.,135,1,1,0,0,1,1,1,1,1,1,1,0,0,0,0,1,7,8,135,space,13.397602200000051,None,0,1,1.5679957999999488,None,space,1.5987687999999025,None,0,0,0,1,,,,,0,1,1,5,85.28841349999993,,,,,,,,,,,,,,,,,,,,,85.27313459999993,85.28841349999993,85.77211179999995,85.77756439999996,85.79815729999996,87.3712587,,,,,87.37133640000002,87.38705909999999,87.58744119999994,87.57147139999995,85.79815729999996,,,,,,,,0,1,1.5679957999999488,None,,,,,,,,853,23,M,R,2026-02-25_11h05.30.420,VisualSearch_2526_3,,2025.2.4,2026-02-25 11h05.31.234810 +0100,
vertical.xlsx,The target is tilted.,135,2,2,0,1,1,1,1,1,1,1,1,1,1,1,1,0,11,12,135,space,13.397602200000051,None,1,1,0.7827839999999924,None,space,1.5987687999999025,None,0,0,0,1,,,,,0,2,2,0,87.58744119999994,,,,,,,,,,,,,,,,,,,,,87.57235309999999,87.58744119999994,88.07111679999991,88.07657159999997,88.09811579999996,88.88818729999991,,,,,88.88838290000001,88.90339799999992,89.10359399999993,89.0878444,88.09811579999996,,,,,,,,1,1,0.7827839999999924,None,,,,,,,,853,23,M,R,2026-02-25_11h05.30.420,VisualSearch_2526_3,,2025.2.4,2026-02-25 11h05.31.234810 +0100,
vertical.xlsx,The target is tilted.,135,3,3,0,1,1,1,1,0,0,0,0,0,0,0,0,0,3,4,135,space,13.397602200000051,None,1,1,0.6819485000000896,None,space,1.5987687999999025,None,0,0,0,1,,,,,0,3,3,2,89.10359399999993,,,,,,,,,,,,,,,,,,,,,89.08863569999994,89.10359399999993,89.58742169999994,89.59288169999991,89.61436049999998,90.30408260000002,,,,,90.30422829999998,90.3194095,90.52007939999999,90.50391279999997,89.61436049999998,,,,,,,,1,1,0.6819485000000896,None,,,,,,,,853,23,M,R,2026-02-25_11h05.30.420,VisualSearch_2526_3,,2025.2.4,2026-02-25 11h05.31.234810 +0100,
vertical.xlsx,The target is tilted.,135,4,4,0,0,1,1,1,1,1,1,1,1,1,1,1,1,11,12,135,space,13.397602200000051,None,0,1,1.6329670000000078,None,space,1.5987687999999025,None,0,0,0,1,,,,,0,4,4,4,90.52007939999999,,,,,,,,,,,,,,,,,,,,,90.50477369999999,90.52007939999999,91.00332749999995,91.00607849999994,91.01989229999992,92.66927339999995,,,,,92.66939179999997,92.68532449999998,,92.8696668,91.01989229999992,,,,,,,,0,1,1.6329670000000078,None,,,,,,,,853,23,M,R,2026-02-25_11h05.30.420,VisualSearch_2526_3,,2025.2.4,2026-02-25 11h05.31.234810 +0100,
vertical.xlsx,The target is tilted.,135,5,5,0,0,1,1,1,0,0,0,0,0,0,0,0,1,3,4,135,space,13.397602200000051,None,0,1,0.8598631999999498,None,space,1.5987687999999025,None,0,0,0,1,,,,,0,5,5,6,92.88600569999994,,,,,,,,,,,,,,,,,,,,,92.87052749999998,92.88600569999994,93.36977029999991,93.37524099999996,93.39695280000001,94.2695367,,,,,94.26975870000001,94.28509589999999,94.48552029999996,94.46939529999997,93.39695280000001,,,,,,,,0,1,0.8598631999999498,None,,,,,,,,853,23,M,R,2026-02-25_11h05.30.420,VisualSearch_2526_3,,2025.2.4,2026-02-25 11h05.31.234810 +0100,
vertical.xlsx,The target is tilted.,135,6,6,0,1,0,0,0,0,0,0,0,0,0,0,0,0,0,1,135,space,13.397602200000051,None,1,1,0.7281875999999556,None,space,1.5987687999999025,None,0,0,0,1,,,,,0,6,6,3,94.48552029999996,,,,,,,,,,,,,,,,,,,,,94.47023389999993,94.48552029999996,94.96933139999999,94.97465360000001,94.98469449999993,95.7196318,,,,,95.71987979999994,95.73429820000001,95.93490239999994,95.91860159999999,94.98469449999993,,,,,,,,1,1,0.7281875999999556,None,,,,,,,,853,23,M,R,2026-02-25_11h05.30.420,VisualSearch_2526_3,,2025.2.4,2026-02-25 11h05.31.234810 +0100,
vertical.xlsx,The target is tilted.,135,7,7,0,1,1,1,1,1,1,1,1,0,0,0,0,0,7,8,135,space,13.397602200000051,None,1,1,1.3441374000000224,None,space,1.5987687999999025,None,0,0,0,1,,,,,0,7,7,1,95.93490239999994,,,,,,,,,,,,,,,,,,,,,95.91944230000001,95.93490239999994,96.41881579999995,96.42418769999995,96.44558169999993,97.80177289999995,,,,,97.80199659999994,97.81721359999995,98.01759089999996,98.00112839999997,96.44558169999993,,,,,,,,1,1,1.3441374000000224,None,,,,,,,,853,23,M,R,2026-02-25_11h05.30.420,VisualSearch_2526_3,,2025.2.4,2026-02-25 11h05.31.234810 +0100,
vertical.xlsx,The target is tilted.,135,8,0,1,1,1,1,1,0,0,0,0,0,0,0,0,0,3,4,135,space,13.397602200000051,None,1,1,0.7311998000000131,None,space,1.5987687999999025,None,0,0,0,1,,,,,1,0,8,2,98.01759089999996,,,,,,,,,,,,,,,,,,,,,98.00203449999992,98.01759089999996,98.50104429999999,98.5064534999999,98.52699359999997,99.26842609999994,,,,,99.26868249999995,99.28337820000002,99.48378969999999,99.46783519999997,98.52699359999997,,,,,,,,1,1,0.7311998000000131,None,,,,,,,,853,23,M,R,2026-02-25_11h05.30.420,VisualSearch_2526_3,,2025.2.4,2026-02-25 11h05.31.234810 +0100,
vertical.xlsx,The target is tilted.,135,9,1,1,0,1,1,1,0,0,0,0,0,0,0,0,1,3,4,135,space,13.397602200000051,None,0,1,0.954161900000031,None,space,1.5987687999999025,None,0,0,0,1,,,,,1,1,9,6,99.48378969999999,,,,,,,,,,,,,,,,,,,,,99.46869189999995,99.48378969999999,99.96764829999995,99.97311559999991,99.99485729999992,100.9513652999999,,,,,100.95158759999993,100.96618089999993,101.16667409999991,101.15058629999999,99.99485729999992,,,,,,,,0,1,0.954161900000031,None,,,,,,,,853,23,M,R,2026-02-25_11h05.30.420,VisualSearch_2526_3,,2025.2.4,2026-02-25 11h05.31.234810 +0100,
vertical.xlsx,The target is tilted.,135,10,2,1,0,1,1,1,1,1,1,1,0,0,0,0,1,7,8,135,space,13.397602200000051,None,0,1,1.9230055000000448,None,space,1.5987687999999025,None,0,0,0,1,,,,,1,2,10,5,101.16667409999991,,,,,,,,,,,,,,,,,,,,,101.15141219999998,101.16667409999991,101.65050909999991,101.65590399999996,101.6776724,103.61653889999991,,,,,103.61676,103.63188839999998,103.83240379999995,103.8160011,101.6776724,,,,,,,,0,1,1.9230055000000448,None,,,,,,,,853,23,M,R,2026-02-25_11h05.30.420,VisualSearch_2526_3,,2025.2.4,2026-02-25 11h05.31.234810 +0100,
vertical.xlsx,The target is tilted.,135,11,3,1,1,1,1,1,1,1,1,1,0,0,0,0,0,7,8,135,space,13.397602200000051,None,1,1,1.0181113999999525,None,space,1.5987687999999025,None,0,0,0,1,,,,,1,3,11,1,103.83240379999995,,,,,,,,,,,,,,,,,,,,,103.81687179999994,103.83240379999995,104.3161748,104.32150349999995,104.34256210000001,105.36641269999996,,,,,105.36665139999991,105.38139209999997,105.58182790000001,105.56577709999999,104.34256210000001,,,,,,,,1,1,1.0181113999999525,None,,,,,,,,853,23,M,R,2026-02-25_11h05.30.420,VisualSearch_2526_3,,2025.2.4,2026-02-25 11h05.31.234810 +0100,
vertical.xlsx,The target is tilted.,135,12,4,1,1,1,1,1,1,1,1,1,1,1,1,1,0,11,12,135,space,13.397602200000051,None,1,1,0.7984795999999506,None,space,1.5987687999999025,None,0,0,0,1,,,,,1,4,12,0,105.58182790000001,,,,,,,,,,,,,,,,,,,,,105.56673649999993,105.58182790000001,106.06562809999991,106.0709372,106.09266300000002,106.89934399999993,,,,,106.89957470000002,106.91427339999996,107.1147062,107.09866669999997,106.09266300000002,,,,,,,,1,1,0.7984795999999506,None,,,,,,,,853,23,M,R,2026-02-25_11h05.30.420,VisualSearch_2526_3,,2025.2.4,2026-02-25 11h05.31.234810 +0100,
vertical.xlsx,The target is tilted.,135,13,5,1,0,0,0,0,0,0,0,0,0,0,0,0,1,1,1,135,space,13.397602200000051,None,0,1,0.6121315999999979,None,space,1.5987687999999025,None,0,0,0,1,,,,,1,5,13,7,107.1147062,,,,,,,,,,,,,,,,,,,,,107.0994905,107.1147062,107.59826090000001,107.60380789999999,107.62519369999995,108.24891809999997,,,,,108.24913979999997,108.26380280000001,108.4635677,108.44779899999992,107.62519369999995,,,,,,,,0,1,0.6121315999999979,None,,,,,,,,853,23,M,R,2026-02-25_11h05.30.420,VisualSearch_2526_3,,2025.2.4,2026-02-25 11h05.31.234810 +0100,
vertical.xlsx,The target is tilted.,135,14,6,1,0,1,1,1,1,1,1,1,1,1,1,1,1,11,12,135,space,13.397602200000051,None,0,1,1.803404799999953,None,space,1.5987687999999025,None,0,0,0,1,,,,,1,6,14,4,108.4635677,,,,,,,,,,,,,,,,,,,,,108.44862039999998,108.4635677,108.94809149999992,108.9535277,108.97066969999992,110.7813959,,,,,110.7816444,110.79605040000001,110.99673719999998,110.98045819999993,108.97066969999992,,,,,,,,0,1,1.803404799999953,None,,,,,,,,853,23,M,R,2026-02-25_11h05.30.420,VisualSearch_2526_3,,2025.2.4,2026-02-25 11h05.31.234810 +0100,
vertical.xlsx,The target is tilted.,135,15,7,1,1,0,0,0,0,0,0,0,0,0,0,0,0,0,1,135,space,13.397602200000051,None,1,1,0.4259738999999172,None,space,1.5987687999999025,None,0,0,0,1,,,,,1,7,15,3,110.99673719999998,,,,,,,,,,,,,,,,,,,,,110.9812991,110.99673719999998,111.48041139999998,111.4858653,111.5072576,111.94764939999993,,,,,111.94789939999998,111.96253179999997,112.16304279999997,112.14704489999997,111.5072576,,,,,,,,1,1,0.4259738999999172,None,,,,,,,,853,23,M,R,2026-02-25_11h05.30.420,VisualSearch_2526_3,,2025.2.4,2026-02-25 11h05.31.234810 +0100,
vertical.xlsx,The target is tilted.,135,16,0,2,1,0,0,0,0,0,0,0,0,0,0,0,0,0,1,135,space,13.397602200000051,None,1,1,0.442317199999934,None,space,1.5987687999999025,None,0,0,0,1,,,,,2,0,16,3,112.16304279999997,,,,,,,,,,,,,,,,,,,,,112.14783549999993,112.16304279999997,112.64686399999994,112.65225629999998,112.67294889999994,113.12928509999995,,,,,113.12941599999999,113.14576009999996,,113.32973370000002,112.67294889999994,,,,,,,,1,1,0.442317199999934,None,,,,,,,,853,23,M,R,2026-02-25_11h05.30.420,VisualSearch_2526_3,,2025.2.4,2026-02-25 11h05.31.234810 +0100,
vertical.xlsx,The target is tilted.,135,17,1,2,0,0,0,0,0,0,0,0,0,0,0,0,1,1,1,135,space,13.397602200000051,None,0,1,0.5750759000000016,None,space,1.5987687999999025,None,0,0,0,1,,,,,2,1,17,7,113.34603789999994,,,,,,,,,,,,,,,,,,,,,113.33061449999991,113.34603789999994,113.82973789999994,113.83514309999998,113.85675179999998,114.44557439999994,,,,,114.44569630000001,114.46159379999995,114.66219699999999,114.64580949999993,113.85675179999998,,,,,,,,0,1,0.5750759000000016,None,,,,,,,,853,23,M,R,2026-02-25_11h05.30.420,VisualSearch_2526_3,,2025.2.4,2026-02-25 11h05.31.234810 +0100,
vertical.xlsx,The target is tilted.,135,18,2,2,1,1,1,1,1,1,1,1,0,0,0,0,0,7,8,135,space,13.397602200000051,None,1,1,1.1399763000000576,None,space,1.5987687999999025,None,0,0,0,1,,,,,2,2,18,1,114.66219699999999,,,,,,,,,,,,,,,,,,,,,114.64667689999999,114.66219699999999,115.1457484,115.15119340000001,115.17253359999995,116.32833129999995,,,,,116.32845249999991,116.34430129999998,,116.52859379999995,115.17253359999995,,,,,,,,1,1,1.1399763000000576,None,,,,,,,,853,23,M,R,2026-02-25_11h05.30.420,VisualSearch_2526_3,,2025.2.4,2026-02-25 11h05.31.234810 +0100,
vertical.xlsx,The target is tilted.,135,19,3,2,0,1,1,1,1,1,1,1,0,0,0,0,1,7,8,135,space,13.397602200000051,None,0,1,2.4955900999999585,None,space,1.5987687999999025,None,0,0,0,1,,,,,2,3,19,5,116.544937,,,,,,,,,,,,,,,,,,,,,116.52944159999993,116.544937,117.02837929999998,117.0337561,117.05541819999996,119.5615861,,,,,119.56180829999994,119.57676889999993,119.77733919999991,119.76099379999994,117.05541819999996,,,,,,,,0,1,2.4955900999999585,None,,,,,,,,853,23,M,R,2026-02-25_11h05.30.420,VisualSearch_2526_3,,2025.2.4,2026-02-25 11h05.31.234810 +0100,
vertical.xlsx,The target is tilted.,135,20,4,2,0,1,1,1,1,1,1,1,1,1,1,1,1,11,12,135,space,13.397602200000051,None,0,1,2.286186599999951,None,space,1.5987687999999025,None,0,0,0,1,,,,,2,4,20,4,119.77733919999991,,,,,,,,,,,,,,,,,,,,,119.76183040000001,119.77733919999991,120.26072269999997,120.2662755,120.28788899999995,122.5775165,,,,,122.57777309999994,122.59219529999996,122.7929226,122.77686019999999,120.28788899999995,,,,,,,,0,1,2.286186599999951,None,,,,,,,,853,23,M,R,2026-02-25_11h05.30.420,VisualSearch_2526_3,,2025.2.4,2026-02-25 11h05.31.234810 +0100,
vertical.xlsx,The target is tilted.,135,21,5,2,1,1,1,1,0,0,0,0,0,0,0,0,0,3,4,135,space,13.397602200000051,None,1,1,0.5254749999999149,None,space,1.5987687999999025,None,0,0,0,1,,,,,2,5,21,2,122.7929226,,,,,,,,,,,,,,,,,,,,,122.77767969999991,122.7929226,123.27667869999993,123.28211119999992,123.30351209999992,123.84373579999999,,,,,123.84402849999992,123.85869589999993,124.05925389999993,124.04315299999996,123.30351209999992,,,,,,,,1,1,0.5254749999999149,None,,,,,,,,853,23,M,R,2026-02-25_11h05.30.420,VisualSearch_2526_3,,2025.2.4,2026-02-25 11h05.31.234810 +0100,
vertical.xlsx,The target is tilted.,135,22,6,2,0,1,1,1,0,0,0,0,0,0,0,0,1,3,4,135,space,13.397602200000051,None,0,1,0.8310194999999112,None,space,1.5987687999999025,None,0,0,0,1,,,,,2,6,22,6,124.05925389999993,,,,,,,,,,,,,,,,,,,,,124.04413669999997,124.05925389999993,124.54297859999997,124.54836749999993,124.56937149999999,125.41005309999991,,,,,125.41027680000002,125.42493589999992,125.62530809999998,125.60884269999997,124.56937149999999,,,,,,,,0,1,0.8310194999999112,None,,,,,,,,853,23,M,R,2026-02-25_11h05.30.420,VisualSearch_2526_3,,2025.2.4,2026-02-25 11h05.31.234810 +0100,
vertical.xlsx,The target is tilted.,135,23,7,2,1,1,1,1,1,1,1,1,1,1,1,1,0,11,12,135,space,13.397602200000051,None,1,1,0.7412323999999444,None,space,1.5987687999999025,None,0,0,0,1,,,,,2,7,23,0,125.62530809999998,,,,,,,,,,,,,,,,,,,,,125.60968159999993,125.62530809999998,126.10862169999996,126.11283849999995,126.13204480000002,126.87590749999993,,,,,126.87611649999997,126.89099620000002,127.09143289999997,127.07542219999993,126.13204480000002,,,,,,,,1,1,0.7412323999999444,None,,,,,,,,853,23,M,R,2026-02-25_11h05.30.420,VisualSearch_2526_3,,2025.2.4,2026-02-25 11h05.31.234810 +0100,
vertical.xlsx,The target is tilted.,135,24,0,3,0,0,0,0,0,0,0,0,0,0,0,0,1,1,1,135,space,13.397602200000051,None,0,1,0.6105622000000039,None,space,1.5987687999999025,None,0,0,0,1,,,,,3,0,24,7,127.09143289999997,,,,,,,,,,,,,,,,,,,,,127.076236,127.09143289999997,127.57557039999995,127.58032919999994,127.59115409999993,128.20894339999995,,,,,128.2091757999999,128.22403409999993,128.42441369999995,128.40834759999996,127.59115409999993,,,,,,,,0,1,0.6105622000000039,None,,,,,,,,853,23,M,R,2026-02-25_11h05.30.420,VisualSearch_2526_3,,2025.2.4,2026-02-25 11h05.31.234810 +0100,
vertical.xlsx,The target is tilted.,135,25,1,3,1,1,1,1,1,1,1,1,1,1,1,1,0,11,12,135,space,13.397602200000051,None,1,1,1.3274772999999414,None,space,1.5987687999999025,None,0,0,0,1,,,,,3,1,25,0,128.42441369999995,,,,,,,,,,,,,,,,,,,,,128.40914229999998,128.42441369999995,128.90819279999994,128.9131794,128.92406589999996,130.2585113,,,,,130.2587312999999,130.2729946999999,130.47372769999993,130.4577954,128.92406589999996,,,,,,,,1,1,1.3274772999999414,None,,,,,,,,853,23,M,R,2026-02-25_11h05.30.420,VisualSearch_2526_3,,2025.2.4,2026-02-25 11h05.31.234810 +0100,
vertical.xlsx,The target is tilted.,135,26,2,3,0,1,1,1,0,0,0,0,0,0,0,0,1,3,4,135,space,13.397602200000051,None,0,1,0.74398199999996,None,space,1.5987687999999025,None,0,0,0,1,,,,,3,2,26,6,130.47372769999993,,,,,,,,,,,,,,,,,,,,,130.45861879999995,130.47372769999993,130.95750809999993,130.9628088999999,130.98354899999993,131.7397949,,,,,131.73991409999996,131.75597329999994,,131.94027899999992,130.98354899999993,,,,,,,,0,1,0.74398199999996,None,,,,,,,,853,23,M,R,2026-02-25_11h05.30.420,VisualSearch_2526_3,,2025.2.4,2026-02-25 11h05.31.234810 +0100,
vertical.xlsx,The target is tilted.,135,27,3,3,1,0,0,0,0,0,0,0,0,0,0,0,0,0,1,135,space,13.397602200000051,None,1,1,0.5024061999999958,None,space,1.5987687999999025,None,0,0,0,1,,,,,3,3,27,3,131.956594,,,,,,,,,,,,,,,,,,,,,131.94113099999993,131.956594,132.44015009999998,132.44571509999992,132.4673103,132.9739571,,,,,132.97428279999997,132.9888198,133.18955689999996,133.17324039999994,,,,,,,,,1,1,0.5024061999999958,None,,,,,,,,853,23,M,R,2026-02-25_11h05.30.420,VisualSearch_2526_3,,2025.2.4,2026-02-25 11h05.31.234810 +0100,
vertical.xlsx,The target is tilted.,135,28,4,3,1,1,1,1,0,0,0,0,0,0,0,0,0,3,4,135,space,13.397602200000051,None,1,1,0.5830279000000473,None,space,1.5987687999999025,None,0,0,0,1,,,,,3,4,28,2,133.18955689999996,,,,,,,,,,,,,,,,,,,,,133.17408219999993,133.18955689999996,133.67340309999997,133.67885419999993,133.70001779999996,134.29035079999994,,,,,134.29060759999993,134.3053307,134.50540990000002,134.48969139999997,133.70001779999996,,,,,,,,1,1,0.5830279000000473,None,,,,,,,,853,23,M,R,2026-02-25_11h05.30.420,VisualSearch_2526_3,,2025.2.4,2026-02-25 11h05.31.234810 +0100,
vertical.xlsx,The target is tilted.,135,29,5,3,0,1,1,1,1,1,1,1,1,1,1,1,1,11,12,135,space,13.397602200000051,None,0,1,1.8268454000000247,None,space,1.5987687999999025,None,0,0,0,1,,,,,3,5,29,4,134.50540990000002,,,,,,,,,,,,,,,,,,,,,134.49048919999996,134.50540990000002,134.9891811,134.9932172,135.00541909999993,136.83950049999999,,,,,136.8397417,136.85449829999993,137.0550247,137.0388585999999,135.00541909999993,,,,,,,,0,1,1.8268454000000247,None,,,,,,,,853,23,M,R,2026-02-25_11h05.30.420,VisualSearch_2526_3,,2025.2.4,2026-02-25 11h05.31.234810 +0100,
vertical.xlsx,The target is tilted.,135,30,6,3,0,1,1,1,1,1,1,1,0,0,0,0,1,7,8,135,space,13.397602200000051,None,0,1,1.7984980999999607,None,space,1.5987687999999025,None,0,0,0,1,,,,,3,6,30,5,137.0550247,,,,,,,,,,,,,,,,,,,,,137.03970579999998,137.0550247,137.53880979999997,137.54365399999995,137.5544294,139.35445419999996,,,,,139.35454849999996,139.370185,139.57016339999996,139.55379359999995,137.5544294,,,,,,,,0,1,1.7984980999999607,None,,,,,,,,853,23,M,R,2026-02-25_11h05.30.420,VisualSearch_2526_3,,2025.2.4,2026-02-25 11h05.31.234810 +0100,
vertical.xlsx,The target is tilted.,135,31,7,3,1,1,1,1,1,1,1,1,0,0,0,0,0,7,8,135,space,13.397602200000051,None,1,1,0.7825897999999825,None,space,1.5987687999999025,None,0,0,0,1,,,,,3,7,31,1,139.57016339999996,,,,,,,,,,,,,,,,,,,,,139.55429759999993,139.57016339999996,140.05361949999997,140.05639789999998,140.0700097,140.85380049999992,,,,,140.85397309999996,140.86961099999996,141.0695331999999,141.05323399999997,140.0700097,,,,,,,,1,1,0.7825897999999825,None,,,,,,,,853,23,M,R,2026-02-25_11h05.30.420,VisualSearch_2526_3,,2025.2.4,2026-02-25 11h05.31.234810 +0100,
vertical.xlsx,The target is tilted.,135,32,0,4,0,1,1,1,1,1,1,1,0,0,0,0,1,7,8,135,space,13.397602200000051,None,0,1,2.0531616000000668,None,space,1.5987687999999025,None,0,0,0,1,,,,,4,0,32,5,141.0695331999999,,,,,,,,,,,,,,,,,,,,,141.05368069999997,141.0695331999999,141.55356339999992,141.55642639999996,141.57110139999998,143.63695069999994,,,,,143.63720249999994,143.65211909999994,143.852348,143.83667179999998,141.57110139999998,,,,,,,,0,1,2.0531616000000668,None,,,,,,,,853,23,M,R,2026-02-25_11h05.30.420,VisualSearch_2526_3,,2025.2.4,2026-02-25 11h05.31.234810 +0100,
vertical.xlsx,The target is tilted.,135,33,1,4,1,1,1,1,0,0,0,0,0,0,0,0,0,3,4,135,space,13.397602200000051,None,1,1,0.5864478999999392,None,space,1.5987687999999025,None,0,0,0,1,,,,,4,1,33,2,143.852348,,,,,,,,,,,,,,,,,,,,,143.8375105,143.852348,144.33648199999993,144.34192489999998,144.35978369999998,144.95366009999998,,,,,144.9538834,144.96856419999995,145.168902,145.1528244,144.35978369999998,,,,,,,,1,1,0.5864478999999392,None,,,,,,,,853,23,M,R,2026-02-25_11h05.30.420,VisualSearch_2526_3,,2025.2.4,2026-02-25 11h05.31.234810 +0100,
vertical.xlsx,The target is tilted.,135,34,2,4,0,1,1,1,1,1,1,1,1,1,1,1,1,11,12,135,space,13.397602200000051,None,0,1,1.1576872999999068,None,space,1.5987687999999025,None,0,0,0,1,,,,,4,2,34,4,145.168902,,,,,,,,,,,,,,,,,,,,,145.1536403,145.168902,145.6526058999999,145.65801399999998,145.6802083,146.85283359999994,,,,,146.85309029999996,146.86794269999996,147.06836520000002,147.05228779999993,145.6802083,,,,,,,,0,1,1.1576872999999068,None,,,,,,,,853,23,M,R,2026-02-25_11h05.30.420,VisualSearch_2526_3,,2025.2.4,2026-02-25 11h05.31.234810 +0100,
vertical.xlsx,The target is tilted.,135,35,3,4,1,0,0,0,0,0,0,0,0,0,0,0,0,0,1,135,space,13.397602200000051,None,1,1,0.5061359000000039,None,space,1.5987687999999025,None,0,0,0,1,,,,,4,3,35,3,147.06836520000002,,,,,,,,,,,,,,,,,,,,,147.05319629999997,147.06836520000002,147.55155639999998,147.55660569999998,147.5721231,148.08494309999992,,,,,148.08512699999994,148.1006152,148.3011803999999,148.2850775999999,147.5721231,,,,,,,,1,1,0.5061359000000039,None,,,,,,,,853,23,M,R,2026-02-25_11h05.30.420,VisualSearch_2526_3,,2025.2.4,2026-02-25 11h05.31.234810 +0100,
vertical.xlsx,The target is tilted.,135,36,4,4,0,1,1,1,0,0,0,0,0,0,0,0,1,3,4,135,space,13.397602200000051,None,0,1,0.6155803999999989,None,space,1.5987687999999025,None,0,0,0,1,,,,,4,4,36,6,148.3011803999999,,,,,,,,,,,,,,,,,,,,,148.28595669999993,148.3011803999999,148.78502619999995,148.79040009999994,148.81189339999992,149.43544699999995,,,,,149.43572129999995,149.45009229999994,149.65055539999992,149.63440579999997,148.81189339999992,,,,,,,,0,1,0.6155803999999989,None,,,,,,,,853,23,M,R,2026-02-25_11h05.30.420,VisualSearch_2526_3,,2025.2.4,2026-02-25 11h05.31.234810 +0100,
vertical.xlsx,The target is tilted.,135,37,5,4,1,1,1,1,1,1,1,1,0,0,0,0,0,7,8,135,space,13.397602200000051,None,1,1,0.9602173000000676,None,space,1.5987687999999025,None,0,0,0,1,,,,,4,5,37,1,149.65055539999992,,,,,,,,,,,,,,,,,,,,,149.63532859999998,149.65055539999992,150.13459769999997,150.14002299999993,150.16169689999992,151.13355669999999,,,,,151.13367889999995,151.14961219999998,151.34977279999998,151.333843,150.16169689999992,,,,,,,,1,1,0.9602173000000676,None,,,,,,,,853,23,M,R,2026-02-25_11h05.30.420,VisualSearch_2526_3,,2025.2.4,2026-02-25 11h05.31.234810 +0100,
vertical.xlsx,The target is tilted.,135,38,6,4,0,0,0,0,0,0,0,0,0,0,0,0,1,1,1,135,space,13.397602200000051,None,0,1,0.5429321999999956,None,space,1.5987687999999025,None,0,0,0,1,,,,,4,6,38,7,151.34977279999998,,,,,,,,,,,,,,,,,,,,,151.33464349999997,151.34977279999998,151.83385959999998,151.83941149999998,151.86099049999996,152.41729769999995,,,,,152.41752269999995,152.43276289999994,152.63314389999994,152.61718109999993,,,,,,,,,0,1,0.5429321999999956,None,,,,,,,,853,23,M,R,2026-02-25_11h05.30.420,VisualSearch_2526_3,,2025.2.4,2026-02-25 11h05.31.234810 +0100,
vertical.xlsx,The target is tilted.,135,39,7,4,1,1,1,1,1,1,1,1,1,1,1,1,0,11,12,135,space,13.397602200000051,None,1,1,0.6402889999999388,None,space,1.5987687999999025,None,0,0,0,1,,,,,4,7,39,0,152.63314389999994,,,,,,,,,,,,,,,,,,,,,152.6179808999999,152.63314389999994,153.11671839999997,153.12201789999995,153.14437349999992,153.8001567,,,,,153.8003959,153.81563129999995,154.01616330000002,154.00008349999996,153.14437349999992,,,,,,,,1,1,0.6402889999999388,None,,,,,,,,853,23,M,R,2026-02-25_11h05.30.420,VisualSearch_2526_3,,2025.2.4,2026-02-25 11h05.31.234810 +0100,
vertical.xlsx,The target is tilted.,135,40,0,5,1,1,1,1,0,0,0,0,0,0,0,0,0,3,4,135,space,13.397602200000051,None,1,1,0.6028976000000057,None,space,1.5987687999999025,None,0,0,0,1,,,,,5,0,40,2,154.01616330000002,,,,,,,,,,,,,,,,,,,,,154.00092009999992,154.01616330000002,154.4999325,154.50533369999994,154.52692549999995,155.13318719999995,,,,,155.13338549999992,155.14848859999995,155.34905989999993,155.33304899999996,154.52692549999995,,,,,,,,1,1,0.6028976000000057,None,,,,,,,,853,23,M,R,2026-02-25_11h05.30.420,VisualSearch_2526_3,,2025.2.4,2026-02-25 11h05.31.234810 +0100,
vertical.xlsx,The target is tilted.,135,41,1,5,0,0,0,0,0,0,0,0,0,0,0,0,1,1,1,135,space,13.397602200000051,None,0,1,0.5524738999999954,None,space,1.5987687999999025,None,0,0,0,1,,,,,5,1,41,7,155.34905989999993,,,,,,,,,,,,,,,,,,,,,155.3338885999999,155.34905989999993,155.8327132999999,155.83736969999995,155.84860679999997,156.41638619999992,,,,,156.416694,156.43149169999992,156.63190669999994,156.61583259999998,155.84860679999997,,,,,,,,0,1,0.5524738999999954,None,,,,,,,,853,23,M,R,2026-02-25_11h05.30.420,VisualSearch_2526_3,,2025.2.4,2026-02-25 11h05.31.234810 +0100,
vertical.xlsx,The target is tilted.,135,42,2,5,0,1,1,1,0,0,0,0,0,0,0,0,1,3,4,135,space,13.397602200000051,None,0,1,1.0420325999999704,None,space,1.5987687999999025,None,0,0,0,1,,,,,5,2,42,6,156.63190669999994,,,,,,,,,,,,,,,,,,,,,156.61663079999994,156.63190669999994,157.11542609999992,157.12054579999995,157.14257699999996,158.1979182,,,,,158.1980393,158.21390359999998,,158.3983521,157.14257699999996,,,,,,,,0,1,1.0420325999999704,None,,,,,,,,853,23,M,R,2026-02-25_11h05.30.420,VisualSearch_2526_3,,2025.2.4,2026-02-25 11h05.31.234810 +0100,
vertical.xlsx,The target is tilted.,135,43,3,5,0,1,1,1,1,1,1,1,1,1,1,1,1,11,12,135,space,13.397602200000051,None,0,1,1.8053372000000536,None,space,1.5987687999999025,None,0,0,0,1,,,,,5,3,43,4,158.4146758999999,,,,,,,,,,,,,,,,,,,,,158.39919809999992,158.4146758999999,158.8982709999999,158.9037735999999,158.92529159999992,160.7477738,,,,,160.74797409999996,160.76325229999998,160.96386959999995,160.9477501,158.92529159999992,,,,,,,,0,1,1.8053372000000536,None,,,,,,,,853,23,M,R,2026-02-25_11h05.30.420,VisualSearch_2526_3,,2025.2.4,2026-02-25 11h05.31.234810 +0100,
vertical.xlsx,The target is tilted.,135,44,4,5,1,1,1,1,1,1,1,1,1,1,1,1,0,11,12,135,space,13.397602200000051,None,1,1,1.2171743000000106,None,space,1.5987687999999025,None,0,0,0,1,,,,,5,4,44,0,160.96386959999995,,,,,,,,,,,,,,,,,,,,,160.9486865,160.96386959999995,161.44760309999992,161.45307209999999,161.4735086999999,162.6978342,,,,,162.69807600000001,162.71283449999999,162.9131959,162.89675939999995,161.4735086999999,,,,,,,,1,1,1.2171743000000106,None,,,,,,,,853,23,M,R,2026-02-25_11h05.30.420,VisualSearch_2526_3,,2025.2.4,2026-02-25 11h05.31.234810 +0100,
vertical.xlsx,The target is tilted.,135,45,5,5,0,1,1,1,1,1,1,1,0,0,0,0,1,7,8,135,space,13.397602200000051,None,0,1,1.110716699999898,None,space,1.5987687999999025,None,0,0,0,1,,,,,5,5,45,5,162.9131959,,,,,,,,,,,,,,,,,,,,,162.89763629999993,162.9131959,163.39697159999992,163.40230529999997,163.4226865999999,164.54717529999994,,,,,164.54744949999997,164.5621999,164.76256990000002,164.7466276,163.4226865999999,,,,,,,,0,1,1.110716699999898,None,,,,,,,,853,23,M,R,2026-02-25_11h05.30.420,VisualSearch_2526_3,,2025.2.4,2026-02-25 11h05.31.234810 +0100,
vertical.xlsx,The target is tilted.,135,46,6,5,1,1,1,1,1,1,1,1,0,0,0,0,0,7,8,135,space,13.397602200000051,None,1,1,0.8628218000000061,None,space,1.5987687999999025,None,0,0,0,1,,,,,5,6,46,1,164.76256990000002,,,,,,,,,,,,,,,,,,,,,164.74745129999997,164.76256990000002,165.24644899999998,165.25127379999992,165.26225419999992,166.12953489999995,,,,,166.12974129999998,166.14463649999993,166.34522529999992,166.32931959999996,165.26225419999992,,,,,,,,1,1,0.8628218000000061,None,,,,,,,,853,23,M,R,2026-02-25_11h05.30.420,VisualSearch_2526_3,,2025.2.4,2026-02-25 11h05.31.234810 +0100,
vertical.xlsx,The target is tilted.,135,47,7,5,1,0,0,0,0,0,0,0,0,0,0,0,0,0,1,135,space,13.397602200000051,None,1,1,0.40016209999998864,None,space,1.5987687999999025,None,0,0,0,1,,,,,5,7,47,3,166.34522529999992,,,,,,,,,,,,,,,,,,,,,166.3301333999999,166.34522529999992,166.8290475,166.8344518,166.855859,167.26268679999998,,,,,167.26289020000002,167.2778634,167.4783994999999,167.4622559999999,166.855859,,,,,,,,1,1,0.40016209999998864,None,,,,,,,,853,23,M,R,2026-02-25_11h05.30.420,VisualSearch_2526_3,,2025.2.4,2026-02-25 11h05.31.234810 +0100,
vertical.xlsx,The target is tilted.,135,48,0,6,1,0,0,0,0,0,0,0,0,0,0,0,0,0,1,135,space,13.397602200000051,None,1,1,0.3542989000000034,None,space,1.5987687999999025,None,0,0,0,1,,,,,6,0,48,3,167.4783994999999,,,,,,,,,,,,,,,,,,,,,167.46305369999993,167.4783994999999,167.96175929999993,167.96726,167.98874319999993,168.34593099999995,,,,,168.34620339999992,168.36090439999998,168.56124709999995,168.54527099999996,167.98874319999993,,,,,,,,1,1,0.3542989000000034,None,,,,,,,,853,23,M,R,2026-02-25_11h05.30.420,VisualSearch_2526_3,,2025.2.4,2026-02-25 11h05.31.234810 +0100,
vertical.xlsx,The target is tilted.,135,49,1,6,0,1,1,1,0,0,0,0,0,0,0,0,1,3,4,135,space,13.397602200000051,None,0,1,0.8292430000000195,None,space,1.5987687999999025,None,0,0,0,1,,,,,6,1,49,6,168.56124709999995,,,,,,,,,,,,,,,,,,,,,168.54608919999998,168.56124709999995,169.04514669999992,169.05054589999997,169.0678292,169.91163329999995,,,,,169.91185669999993,169.92706349999992,170.12747789999992,170.1109017,169.0678292,,,,,,,,0,1,0.8292430000000195,None,,,,,,,,853,23,M,R,2026-02-25_11h05.30.420,VisualSearch_2526_3,,2025.2.4,2026-02-25 11h05.31.234810 +0100,
vertical.xlsx,The target is tilted.,135,50,2,6,1,1,1,1,1,1,1,1,0,0,0,0,0,7,8,135,space,13.397602200000051,None,1,1,0.8569417999999587,None,space,1.5987687999999025,None,0,0,0,1,,,,,6,2,50,1,170.12747789999992,,,,,,,,,,,,,,,,,,,,,170.1116470999999,170.12747789999992,170.61098059999995,170.6163901,170.63775869999995,171.51107319999994,,,,,171.51131839999994,171.52650210000002,171.7269139,171.71056149999993,170.63775869999995,,,,,,,,1,1,0.8569417999999587,None,,,,,,,,853,23,M,R,2026-02-25_11h05.30.420,VisualSearch_2526_3,,2025.2.4,2026-02-25 11h05.31.234810 +0100,
vertical.xlsx,The target is tilted.,135,51,3,6,1,1,1,1,1,1,1,1,1,1,1,1,0,11,12,135,space,13.397602200000051,None,1,1,1.2728387999999313,None,space,1.5987687999999025,None,0,0,0,1,,,,,6,3,51,0,171.7269139,,,,,,,,,,,,,,,,,,,,,171.71139659999994,171.7269139,172.21197180000001,172.21797299999992,172.24065069999995,173.52708180000002,,,,,173.52730250000002,173.54226289999997,173.74292589999993,173.72703379999996,172.24065069999995,,,,,,,,1,1,1.2728387999999313,None,,,,,,,,853,23,M,R,2026-02-25_11h05.30.420,VisualSearch_2526_3,,2025.2.4,2026-02-25 11h05.31.234810 +0100,
vertical.xlsx,The target is tilted.,135,52,4,6,0,0,0,0,0,0,0,0,0,0,0,0,1,1,1,135,space,13.397602200000051,None,0,1,0.5278766999999789,None,space,1.5987687999999025,None,0,0,0,1,,,,,6,4,52,7,173.74292589999993,,,,,,,,,,,,,,,,,,,,,173.72786409999992,173.74292589999993,174.2267751999999,174.23217369999998,174.25356309999995,174.7933443999999,,,,,174.79356229999996,174.8087845,175.00921749999998,174.99306949999993,174.25356309999995,,,,,,,,0,1,0.5278766999999789,None,,,,,,,,853,23,M,R,2026-02-25_11h05.30.420,VisualSearch_2526_3,,2025.2.4,2026-02-25 11h05.31.234810 +0100,
vertical.xlsx,The target is tilted.,135,53,5,6,0,1,1,1,1,1,1,1,0,0,0,0,1,7,8,135,space,13.397602200000051,None,0,1,1.1146006999999827,None,space,1.5987687999999025,None,0,0,0,1,,,,,6,5,53,5,175.00921749999998,,,,,,,,,,,,,,,,,,,,,174.99392579999994,175.00921749999998,175.49279349999995,175.49824019999994,175.51957319999997,176.64321999999993,,,,,176.6434653,176.65821069999993,176.8586911,176.84251999999992,175.51957319999997,,,,,,,,0,1,1.1146006999999827,None,,,,,,,,853,23,M,R,2026-02-25_11h05.30.420,VisualSearch_2526_3,,2025.2.4,2026-02-25 11h05.31.234810 +0100,
vertical.xlsx,The target is tilted.,135,54,6,6,1,1,1,1,0,0,0,0,0,0,0,0,0,3,4,135,space,13.397602200000051,None,1,1,0.562265899999943,None,space,1.5987687999999025,None,0,0,0,1,,,,,6,6,54,2,176.8586911,,,,,,,,,,,,,,,,,,,,,176.8434130999999,176.8586911,177.34239809999997,177.34770079999998,177.3692588,177.9415666,,,,,177.94169639999996,177.9575344,178.15819009999996,178.14180109999995,177.3692588,,,,,,,,1,1,0.562265899999943,None,,,,,,,,853,23,M,R,2026-02-25_11h05.30.420,VisualSearch_2526_3,,2025.2.4,2026-02-25 11h05.31.234810 +0100,
vertical.xlsx,The target is tilted.,135,55,7,6,0,1,1,1,1,1,1,1,1,1,1,1,1,11,12,135,space,13.397602200000051,None,0,1,1.8033053999999993,None,space,1.5987687999999025,None,0,0,0,1,,,,,6,7,55,4,178.15819009999996,,,,,,,,,,,,,,,,,,,,,178.14266629999997,178.15819009999996,178.64160349999997,178.6471123,178.6689851,180.47536809999997,,,,,180.47561029999997,180.49023739999996,180.690692,180.6743116,178.6689851,,,,,,,,0,1,1.8033053999999993,None,,,,,,,,853,23,M,R,2026-02-25_11h05.30.420,VisualSearch_2526_3,,2025.2.4,2026-02-25 11h05.31.234810 +0100,
vertical.xlsx,The target is tilted.,135,56,0,7,0,0,0,0,0,0,0,0,0,0,0,0,1,1,1,135,space,13.397602200000051,None,0,1,0.6384722999999894,None,space,1.5987687999999025,None,0,0,0,1,,,,,7,0,56,7,180.690692,,,,,,,,,,,,,,,,,,,,,180.67514929999993,180.690692,181.17456859999993,181.1798784,181.200563,181.84133169999996,,,,,181.84156659999996,181.8562055,182.05643629999997,182.0405128,181.200563,,,,,,,,0,1,0.6384722999999894,None,,,,,,,,853,23,M,R,2026-02-25_11h05.30.420,VisualSearch_2526_3,,2025.2.4,2026-02-25 11h05.31.234810 +0100,
vertical.xlsx,The target is tilted.,135,57,1,7,1,1,1,1,0,0,0,0,0,0,0,0,0,3,4,135,space,13.397602200000051,None,1,1,0.4699686000000156,None,space,1.5987687999999025,None,0,0,0,1,,,,,7,1,57,2,182.05643629999997,,,,,,,,,,,,,,,,,,,,,182.04131699999994,182.05643629999997,182.540846,182.54630659999998,182.56759239999997,183.0409363,,,,,183.0411555999999,183.05611549999992,183.25658509999994,183.24044519999995,182.56759239999997,,,,,,,,1,1,0.4699686000000156,None,,,,,,,,853,23,M,R,2026-02-25_11h05.30.420,VisualSearch_2526_3,,2025.2.4,2026-02-25 11h05.31.234810 +0100,
vertical.xlsx,The target is tilted.,135,58,2,7,0,1,1,1,1,1,1,1,1,1,1,1,1,11,12,135,space,13.397602200000051,None,0,1,1.4184238000000278,None,space,1.5987687999999025,None,0,0,0,1,,,,,7,2,58,4,183.25658509999994,,,,,,,,,,,,,,,,,,,,,183.2412716,183.25658509999994,183.7401595,183.74566959999993,183.76716669999996,185.19015919999993,,,,,185.19039929999997,185.20540089999997,185.4057891,185.38992839999992,183.76716669999996,,,,,,,,0,1,1.4184238000000278,None,,,,,,,,853,23,M,R,2026-02-25_11h05.30.420,VisualSearch_2526_3,,2025.2.4,2026-02-25 11h05.31.234810 +0100,
vertical.xlsx,The target is tilted.,135,59,3,7,0,1,1,1,1,1,1,1,0,0,0,0,1,7,8,135,space,13.397602200000051,None,0,1,1.0991917999999714,None,space,1.5987687999999025,None,0,0,0,1,,,,,7,3,59,5,185.4057891,,,,,,,,,,,,,,,,,,,,,185.3907289,185.4057891,185.8897202999999,185.89515519999998,185.91671789999998,187.02319699999998,,,,,187.0234484,187.0381193999999,187.23864219999996,187.22218699999996,185.91671789999998,,,,,,,,0,1,1.0991917999999714,None,,,,,,,,853,23,M,R,2026-02-25_11h05.30.420,VisualSearch_2526_3,,2025.2.4,2026-02-25 11h05.31.234810 +0100,
vertical.xlsx,The target is tilted.,135,60,4,7,1,0,0,0,0,0,0,0,0,0,0,0,0,0,1,135,space,13.397602200000051,None,1,1,0.7396925000000465,None,space,1.5987687999999025,None,0,0,0,1,,,,,7,4,60,3,187.23864219999996,,,,,,,,,,,,,,,,,,,,,187.22304689999999,187.23864219999996,187.72201269999994,187.7274463,187.7494216,188.50553359999992,,,,,188.50575019999997,188.5209031999999,188.72131939999997,188.70545819999995,187.7494216,,,,,,,,1,1,0.7396925000000465,None,,,,,,,,853,23,M,R,2026-02-25_11h05.30.420,VisualSearch_2526_3,,2025.2.4,2026-02-25 11h05.31.234810 +0100,
vertical.xlsx,The target is tilted.,135,61,5,7,0,1,1,1,0,0,0,0,0,0,0,0,1,3,4,135,space,13.397602200000051,None,0,1,0.7101149999999734,None,space,1.5987687999999025,None,0,0,0,1,,,,,7,5,61,6,188.72131939999997,,,,,,,,,,,,,,,,,,,,,188.70625199999995,188.72131939999997,189.20433500000001,189.2065915999999,189.2211059,189.93891959999996,,,,,189.9391688999999,189.95357660000002,190.15439229999993,190.13825859999997,189.2211059,,,,,,,,0,1,0.7101149999999734,None,,,,,,,,853,23,M,R,2026-02-25_11h05.30.420,VisualSearch_2526_3,,2025.2.4,2026-02-25 11h05.31.234810 +0100,
vertical.xlsx,The target is tilted.,135,62,6,7,1,1,1,1,1,1,1,1,0,0,0,0,0,7,8,135,space,13.397602200000051,None,1,1,0.731437299999925,None,space,1.5987687999999025,None,0,0,0,1,,,,,7,6,62,1,190.15439229999993,,,,,,,,,,,,,,,,,,,,,190.1390763999999,190.15439229999993,190.63800099999992,190.6430272,190.65385419999996,191.38864179999996,,,,,191.3888594,191.403368,191.6037258,191.58771939999997,190.65385419999996,,,,,,,,1,1,0.731437299999925,None,,,,,,,,853,23,M,R,2026-02-25_11h05.30.420,VisualSearch_2526_3,,2025.2.4,2026-02-25 11h05.31.234810 +0100,
vertical.xlsx,The target is tilted.,135,63,7,7,1,1,1,1,1,1,1,1,1,1,1,1,0,11,12,135,space,13.397602200000051,None,1,1,0.8534520999999131,None,space,1.5987687999999025,None,0,0,0,1,,,,,7,7,63,0,191.6037258,,,,,,,,,,,,,,,,,,,,,191.58854159999999,191.6037258,192.08720899999992,192.09257659999992,192.1069832999999,192.97136189999992,,,,,192.9716919,192.98622899999998,193.1866791,193.1706448,192.1069832999999,,,,,,,,1,1,0.8534520999999131,None,,,,,,,,853,23,M,R,2026-02-25_11h05.30.420,VisualSearch_2526_3,,2025.2.4,2026-02-25 11h05.31.234810 +0100,
vertical.xlsx,The target is tilted.,135,64,0,8,1,1,1,1,1,1,1,1,0,0,0,0,0,7,8,135,space,13.397602200000051,None,1,1,0.8186883999999282,None,space,1.5987687999999025,None,0,0,0,1,,,,,8,0,64,1,193.1866791,,,,,,,,,,,,,,,,,,,,,193.1715047,193.1866791,193.6701079999999,193.6755589999999,193.69765069999994,194.52050299999996,,,,,194.5207186,194.53568199999995,194.73613439999997,194.7201776999999,193.69765069999994,,,,,,,,1,1,0.8186883999999282,None,,,,,,,,853,23,M,R,2026-02-25_11h05.30.420,VisualSearch_2526_3,,2025.2.4,2026-02-25 11h05.31.234810 +0100,
vertical.xlsx,The target is tilted.,135,65,1,8,1,1,1,1,0,0,0,0,0,0,0,0,0,3,4,135,space,13.397602200000051,None,1,1,0.5370216000000028,None,space,1.5987687999999025,None,0,0,0,1,,,,,8,1,65,2,194.73613439999997,,,,,,,,,,,,,,,,,,,,,194.7209745,194.73613439999997,195.21992519999992,195.2253922,195.2470576999999,195.78704249999998,,,,,195.7873108,195.8019797999999,196.0023822999999,195.98640799999998,195.2470576999999,,,,,,,,1,1,0.5370216000000028,None,,,,,,,,853,23,M,R,2026-02-25_11h05.30.420,VisualSearch_2526_3,,2025.2.4,2026-02-25 11h05.31.234810 +0100,
vertical.xlsx,The target is tilted.,135,66,2,8,0,1,1,1,0,0,0,0,0,0,0,0,1,3,4,135,space,13.397602200000051,None,0,1,0.7287326000000576,None,space,1.5987687999999025,None,0,0,0,1,,,,,8,2,66,6,196.0023822999999,,,,,,,,,,,,,,,,,,,,,195.9872067,196.0023822999999,196.48585559999992,196.49128329999996,196.51272319999998,197.25298799999996,,,,,197.25320499999998,197.26785329999996,197.46865749999995,197.45224819999999,196.51272319999998,,,,,,,,0,1,0.7287326000000576,None,,,,,,,,853,23,M,R,2026-02-25_11h05.30.420,VisualSearch_2526_3,,2025.2.4,2026-02-25 11h05.31.234810 +0100,
vertical.xlsx,The target is tilted.,135,67,3,8,1,1,1,1,1,1,1,1,1,1,1,1,0,11,12,135,space,13.397602200000051,None,1,1,0.9363592999999355,None,space,1.5987687999999025,None,0,0,0,1,,,,,8,3,67,0,197.46865749999995,,,,,,,,,,,,,,,,,,,,,197.45318399999996,197.46865749999995,197.95233589999998,197.95761529999993,197.97807449999993,198.9188906999999,,,,,198.91910489999998,198.93426779999993,199.1347020999999,199.11866969999994,197.97807449999993,,,,,,,,1,1,0.9363592999999355,None,,,,,,,,853,23,M,R,2026-02-25_11h05.30.420,VisualSearch_2526_3,,2025.2.4,2026-02-25 11h05.31.234810 +0100,
vertical.xlsx,The target is tilted.,135,68,4,8,0,1,1,1,1,1,1,1,1,1,1,1,1,11,12,135,space,13.397602200000051,None,0,1,2.5949838000000227,None,space,1.5987687999999025,None,0,0,0,1,,,,,8,4,68,4,199.1347020999999,,,,,,,,,,,,,,,,,,,,,199.11947179999993,199.1347020999999,199.6185742,199.6239008,199.64161869999998,202.2515396,,,,,202.2518579,202.26658039999995,202.4670301,202.45083439999996,199.64161869999998,,,,,,,,0,1,2.5949838000000227,None,,,,,,,,853,23,M,R,2026-02-25_11h05.30.420,VisualSearch_2526_3,,2025.2.4,2026-02-25 11h05.31.234810 +0100,
vertical.xlsx,The target is tilted.,135,69,5,8,0,1,1,1,1,1,1,1,0,0,0,0,1,7,8,135,space,13.397602200000051,None,0,1,1.4176595000000134,None,space,1.5987687999999025,None,0,0,0,1,,,,,8,5,69,5,202.4670301,,,,,,,,,,,,,,,,,,,,,202.45167859999992,202.4670301,202.9508224,202.95614369999998,202.9775591,204.4008359999999,,,,,204.4010968,204.41584449999993,204.61632069999996,204.60027179999997,202.9775591,,,,,,,,0,1,1.4176595000000134,None,,,,,,,,853,23,M,R,2026-02-25_11h05.30.420,VisualSearch_2526_3,,2025.2.4,2026-02-25 11h05.31.234810 +0100,
vertical.xlsx,The target is tilted.,135,70,6,8,1,0,0,0,0,0,0,0,0,0,0,0,0,0,1,135,space,13.397602200000051,None,1,1,0.5089318999999932,None,space,1.5987687999999025,None,0,0,0,1,,,,,8,6,70,3,204.61632069999996,,,,,,,,,,,,,,,,,,,,,204.60108989999992,204.61632069999996,205.10009879999996,205.10390989999996,205.11595409999995,205.63299399999994,,,,,205.63313429999994,205.6485298,205.84928049999996,205.8329582,205.11595409999995,,,,,,,,1,1,0.5089318999999932,None,,,,,,,,853,23,M,R,2026-02-25_11h05.30.420,VisualSearch_2526_3,,2025.2.4,2026-02-25 11h05.31.234810 +0100,
vertical.xlsx,The target is tilted.,135,71,7,8,0,0,0,0,0,0,0,0,0,0,0,0,1,1,1,135,space,13.397602200000051,None,0,1,0.4658901000000242,None,space,1.5987687999999025,None,0,0,0,1,,,,,8,7,71,7,205.84928049999996,,,,,,,,,,,,,,,,,,,,,205.83378929999992,205.84928049999996,206.33274699999993,206.3380636999999,206.35937869999998,206.83338259999994,,,,,206.83361969999999,206.8484464999999,207.0488282,207.03273249999995,206.35937869999998,,,,,,,,0,1,0.4658901000000242,None,,,,,,,,853,23,M,R,2026-02-25_11h05.30.420,VisualSearch_2526_3,,2025.2.4,2026-02-25 11h05.31.234810 +0100,
vertical.xlsx,The target is tilted.,135,72,0,9,0,0,0,0,0,0,0,0,0,0,0,0,1,1,1,135,space,13.397602200000051,None,0,1,0.42062109999994846,None,space,1.5987687999999025,None,0,0,0,1,,,,,9,0,72,7,207.0488282,,,,,,,,,,,,,,,,,,,,,207.0335232,207.0488282,207.5324557,207.53785359999995,207.55901759999995,207.98316579999994,,,,,207.9833807,207.99803359999999,208.19847159999995,208.1824064,207.55901759999995,,,,,,,,0,1,0.42062109999994846,None,,,,,,,,853,23,M,R,2026-02-25_11h05.30.420,VisualSearch_2526_3,,2025.2.4,2026-02-25 11h05.31.234810 +0100,
vertical.xlsx,The target is tilted.,135,73,1,9,1,1,1,1,1,1,1,1,1,1,1,1,0,11,12,135,space,13.397602200000051,None,1,1,0.9830931000000191,None,space,1.5987687999999025,None,0,0,0,1,,,,,9,1,73,0,208.19847159999995,,,,,,,,,,,,,,,,,,,,,208.18351059999998,208.19847159999995,208.68180510000002,208.6866498999999,208.69811069999992,209.69870419999995,,,,,209.69891829999995,209.71391259999996,209.9145153999999,209.89850509999997,208.69811069999992,,,,,,,,1,1,0.9830931000000191,None,,,,,,,,853,23,M,R,2026-02-25_11h05.30.420,VisualSearch_2526_3,,2025.2.4,2026-02-25 11h05.31.234810 +0100,
vertical.xlsx,The target is tilted.,135,74,2,9,1,1,1,1,0,0,0,0,0,0,0,0,0,3,4,135,space,13.397602200000051,None,1,1,0.5698955000000296,None,space,1.5987687999999025,None,0,0,0,1,,,,,9,2,74,2,209.9145153999999,,,,,,,,,,,,,,,,,,,,,209.89928980000002,209.9145153999999,210.39818939999998,210.40353519999996,210.42504989999998,210.9983694,,,,,210.9985802,211.01370829999996,211.21377729999995,211.19801399999994,210.42504989999998,,,,,,,,1,1,0.5698955000000296,None,,,,,,,,853,23,M,R,2026-02-25_11h05.30.420,VisualSearch_2526_3,,2025.2.4,2026-02-25 11h05.31.234810 +0100,
vertical.xlsx,The target is tilted.,135,75,3,9,1,1,1,1,1,1,1,1,0,0,0,0,0,7,8,135,space,13.397602200000051,None,1,1,1.0778159999999843,None,space,1.5987687999999025,None,0,0,0,1,,,,,9,3,75,1,211.21377729999995,,,,,,,,,,,,,,,,,,,,,211.19880749999993,211.21377729999995,211.6980150999999,211.7035211,211.72083659999998,212.81372609999994,,,,,212.81387199999995,212.8300524,213.0301900999999,213.01416169999993,211.72083659999998,,,,,,,,1,1,1.0778159999999843,None,,,,,,,,853,23,M,R,2026-02-25_11h05.30.420,VisualSearch_2526_3,,2025.2.4,2026-02-25 11h05.31.234810 +0100,
vertical.xlsx,The target is tilted.,135,76,4,9,0,1,1,1,1,1,1,1,0,0,0,0,1,7,8,135,space,13.397602200000051,None,0,1,1.9495654000000968,None,space,1.5987687999999025,None,0,0,0,1,,,,,9,4,76,5,213.0301900999999,,,,,,,,,,,,,,,,,,,,,213.0149882999999,213.0301900999999,213.5139145999999,213.5192083999999,213.541875,215.4978208,,,,,215.49805059999994,215.5121795,215.71266849999995,215.6966145,213.541875,,,,,,,,0,1,1.9495654000000968,None,,,,,,,,853,23,M,R,2026-02-25_11h05.30.420,VisualSearch_2526_3,,2025.2.4,2026-02-25 11h05.31.234810 +0100,
vertical.xlsx,The target is tilted.,135,77,5,9,1,0,0,0,0,0,0,0,0,0,0,0,0,0,1,135,space,13.397602200000051,None,1,1,0.40690919999997277,None,space,1.5987687999999025,None,0,0,0,1,,,,,9,5,77,3,215.71266849999995,,,,,,,,,,,,,,,,,,,,,215.69742599999995,215.71266849999995,216.1964564,216.2017244,216.2231706,216.6455618,,,,,216.64567579999994,216.661652,,216.8458647,216.2231706,,,,,,,,1,1,0.40690919999997277,None,,,,,,,,853,23,M,R,2026-02-25_11h05.30.420,VisualSearch_2526_3,,2025.2.4,2026-02-25 11h05.31.234810 +0100,
vertical.xlsx,The target is tilted.,135,78,6,9,0,1,1,1,1,1,1,1,1,1,1,1,1,11,12,135,space,13.397602200000051,None,0,1,2.150093599999991,None,space,1.5987687999999025,None,0,0,0,1,,,,,9,6,78,4,216.8622345,,,,,,,,,,,,,,,,,,,,,216.84670319999998,216.8622345,217.3458147,217.3512018,217.37255299999993,219.5292296,,,,,219.52949919999992,219.5439755,219.74455469999998,219.7286383999999,,,,,,,,,0,1,2.150093599999991,None,,,,,,,,853,23,M,R,2026-02-25_11h05.30.420,VisualSearch_2526_3,,2025.2.4,2026-02-25 11h05.31.234810 +0100,
vertical.xlsx,The target is tilted.,135,79,7,9,0,1,1,1,0,0,0,0,0,0,0,0,1,3,4,135,space,13.397602200000051,None,0,1,0.5557843000000275,None,space,1.5987687999999025,None,0,0,0,1,,,,,9,7,79,6,219.74455469999998,,,,,,,,,,,,,,,,,,,,,219.7294233,219.74455469999998,220.22846879999997,220.23375439999995,220.25465229999998,220.8119107,,,,,220.81212399999993,220.8268802,221.02764919999993,221.011216,220.25465229999998,,,,,,,,0,1,0.5557843000000275,None,,,,,,,,853,23,M,R,2026-02-25_11h05.30.420,VisualSearch_2526_3,,2025.2.4,2026-02-25 11h05.31.234810 +0100,
vertical.xlsx,The target is tilted.,135,80,0,10,0,1,1,1,1,1,1,1,0,0,0,0,1,7,8,135,space,13.397602200000051,None,0,1,1.3757889999999406,None,space,1.5987687999999025,None,0,0,0,1,,,,,10,0,80,5,221.02764919999993,,,,,,,,,,,,,,,,,,,,,221.0120101,221.02764919999993,221.51100409999992,221.5171153,221.53824269999996,222.92805109999995,,,,,222.92837499999996,222.94315819999997,223.1432767,223.12710729999992,221.53824269999996,,,,,,,,0,1,1.3757889999999406,None,,,,,,,,853,23,M,R,2026-02-25_11h05.30.420,VisualSearch_2526_3,,2025.2.4,2026-02-25 11h05.31.234810 +0100,
vertical.xlsx,The target is tilted.,135,81,1,10,0,0,0,0,0,0,0,0,0,0,0,0,1,1,1,135,space,13.397602200000051,None,0,1,0.46454369999992196,None,space,1.5987687999999025,None,0,0,0,1,,,,,10,1,81,7,223.1432767,,,,,,,,,,,,,,,,,,,,,223.1279257,223.1432767,223.62745059999997,223.6327248,223.649806,224.1278701,,,,,224.12808059999998,224.142787,224.3431994,224.3272157,223.649806,,,,,,,,0,1,0.46454369999992196,None,,,,,,,,853,23,M,R,2026-02-25_11h05.30.420,VisualSearch_2526_3,,2025.2.4,2026-02-25 11h05.31.234810 +0100,
vertical.xlsx,The target is tilted.,135,82,2,10,1,0,0,0,0,0,0,0,0,0,0,0,0,0,1,135,space,13.397602200000051,None,1,1,0.5348401999999624,None,space,1.5987687999999025,None,0,0,0,1,,,,,10,2,82,3,224.3431994,,,,,,,,,,,,,,,,,,,,,224.3280582,224.3431994,224.8266418999999,224.8319057,224.8532659,225.39371459999995,,,,,225.3939041,225.4088830999999,225.60947349999992,225.59335909999993,224.8532659,,,,,,,,1,1,0.5348401999999624,None,,,,,,,,853,23,M,R,2026-02-25_11h05.30.420,VisualSearch_2526_3,,2025.2.4,2026-02-25 11h05.31.234810 +0100,
vertical.xlsx,The target is tilted.,135,83,3,10,1,1,1,1,0,0,0,0,0,0,0,0,0,3,4,135,space,13.397602200000051,None,1,1,0.5741179000000329,None,space,1.5987687999999025,None,0,0,0,1,,,,,10,3,83,2,225.60947349999992,,,,,,,,,,,,,,,,,,,,,225.59421559999998,225.60947349999992,226.09267060000002,226.09669789999998,226.1159288,226.69345879999992,,,,,226.6936697,226.70908569999995,226.9089409999999,226.89263489999996,226.1159288,,,,,,,,1,1,0.5741179000000329,None,,,,,,,,853,23,M,R,2026-02-25_11h05.30.420,VisualSearch_2526_3,,2025.2.4,2026-02-25 11h05.31.234810 +0100,
vertical.xlsx,The target is tilted.,135,84,4,10,0,1,1,1,1,1,1,1,1,1,1,1,1,11,12,135,space,13.397602200000051,None,0,1,1.5411460999999917,None,space,1.5987687999999025,None,0,0,0,1,,,,,10,4,84,4,226.9089409999999,,,,,,,,,,,,,,,,,,,,,226.8934362,226.9089409999999,227.39276339999992,227.3981412999999,227.41947549999998,228.97629059999997,,,,,228.97650409999994,228.99163479999993,229.19151809999994,229.17538319999994,227.41947549999998,,,,,,,,0,1,1.5411460999999917,None,,,,,,,,853,23,M,R,2026-02-25_11h05.30.420,VisualSearch_2526_3,,2025.2.4,2026-02-25 11h05.31.234810 +0100,
vertical.xlsx,The target is tilted.,135,85,5,10,1,1,1,1,1,1,1,1,0,0,0,0,0,7,8,135,space,13.397602200000051,None,1,1,0.9192147000001114,None,space,1.5987687999999025,None,0,0,0,1,,,,,10,5,85,1,229.19151809999994,,,,,,,,,,,,,,,,,,,,,229.1762119,229.19151809999994,229.67540309999993,229.6803542,229.691008,230.62567,,,,,230.6259169,230.641031,230.8409577,230.8246838,229.691008,,,,,,,,1,1,0.9192147000001114,None,,,,,,,,853,23,M,R,2026-02-25_11h05.30.420,VisualSearch_2526_3,,2025.2.4,2026-02-25 11h05.31.234810 +0100,
vertical.xlsx,The target is tilted.,135,86,6,10,1,1,1,1,1,1,1,1,1,1,1,1,0,11,12,135,space,13.397602200000051,None,1,1,1.1900656000000254,None,space,1.5987687999999025,None,0,0,0,1,,,,,10,6,86,0,230.8409577,,,,,,,,,,,,,,,,,,,,,230.82543639999994,230.8409577,231.32489520000001,231.3301821,231.35122219999994,232.55820549999999,,,,,232.55839389999994,232.57369789999996,232.77375399999994,232.75780049999992,231.35122219999994,,,,,,,,1,1,1.1900656000000254,None,,,,,,,,853,23,M,R,2026-02-25_11h05.30.420,VisualSearch_2526_3,,2025.2.4,2026-02-25 11h05.31.234810 +0100,
vertical.xlsx,The target is tilted.,135,87,7,10,0,1,1,1,0,0,0,0,0,0,0,0,1,3,4,135,space,13.397602200000051,None,0,1,0.6733289000000013,None,space,1.5987687999999025,None,0,0,0,1,,,,,10,7,87,6,232.77375399999994,,,,,,,,,,,,,,,,,,,,,232.75862359999996,232.77375399999994,233.2576537,233.26298239999994,233.2793767999999,233.9580462,,,,,233.9582613,233.97307899999998,234.17333629999996,234.1573702999999,233.2793767999999,,,,,,,,0,1,0.6733289000000013,None,,,,,,,,853,23,M,R,2026-02-25_11h05.30.420,VisualSearch_2526_3,,2025.2.4,2026-02-25 11h05.31.234810 +0100,
vertical.xlsx,The target is tilted.,135,88,0,11,0,1,1,1,1,1,1,1,1,1,1,1,1,11,12,135,space,13.397602200000051,None,0,1,1.953847699999983,None,space,1.5987687999999025,None,0,0,0,1,,,,,11,0,88,4,234.17333629999996,,,,,,,,,,,,,,,,,,,,,234.15818549999995,234.17333629999996,234.65723709999997,234.6624946999999,234.6832624,236.64058679999994,,,,,236.64080219999994,236.6558933,236.8557518,236.83963099999994,234.6832624,,,,,,,,0,1,1.953847699999983,None,,,,,,,,853,23,M,R,2026-02-25_11h05.30.420,VisualSearch_2526_3,,2025.2.4,2026-02-25 11h05.31.234810 +0100,
vertical.xlsx,The target is tilted.,135,89,1,11,1,0,0,0,0,0,0,0,0,0,0,0,0,0,1,135,space,13.397602200000051,None,1,1,0.5553080999999338,None,space,1.5987687999999025,None,0,0,0,1,,,,,11,1,89,3,236.8557518,,,,,,,,,,,,,,,,,,,,,236.84045719999995,236.8557518,237.33877489999998,237.34145649999994,237.35530069999993,237.9233969999999,,,,,237.9236088,237.9383780999999,238.1386842999999,238.12258869999994,237.35530069999993,,,,,,,,1,1,0.5553080999999338,None,,,,,,,,853,23,M,R,2026-02-25_11h05.30.420,VisualSearch_2526_3,,2025.2.4,2026-02-25 11h05.31.234810 +0100,
vertical.xlsx,The target is tilted.,135,90,2,11,0,1,1,1,1,1,1,1,0,0,0,0,1,7,8,135,space,13.397602200000051,None,0,1,1.5200667000000294,None,space,1.5987687999999025,None,0,0,0,1,,,,,11,2,90,5,238.1386842999999,,,,,,,,,,,,,,,,,,,,,238.12339799999995,238.1386842999999,238.62249309999993,238.62727189999998,238.6383217,240.17244099999994,,,,,240.17268860000001,240.1877382,240.3879642999999,240.37175389999993,238.6383217,,,,,,,,0,1,1.5200667000000294,None,,,,,,,,853,23,M,R,2026-02-25_11h05.30.420,VisualSearch_2526_3,,2025.2.4,2026-02-25 11h05.31.234810 +0100,
vertical.xlsx,The target is tilted.,135,91,3,11,1,1,1,1,1,1,1,1,0,0,0,0,0,7,8,135,space,13.397602200000051,None,1,1,0.8416803000000073,None,space,1.5987687999999025,None,0,0,0,1,,,,,11,3,91,1,240.3879642999999,,,,,,,,,,,,,,,,,,,,,240.37254599999994,240.3879642999999,240.8714114999999,240.87675219999994,240.89786370000002,241.75545179999995,,,,,241.75566489999994,241.77046229999996,241.9704792,241.95469449999996,240.89786370000002,,,,,,,,1,1,0.8416803000000073,None,,,,,,,,853,23,M,R,2026-02-25_11h05.30.420,VisualSearch_2526_3,,2025.2.4,2026-02-25 11h05.31.234810 +0100,
vertical.xlsx,The target is tilted.,135,92,4,11,1,1,1,1,1,1,1,1,1,1,1,1,0,11,12,135,space,13.397602200000051,None,1,1,0.6983042000000523,None,space,1.5987687999999025,None,0,0,0,1,,,,,11,4,92,0,241.9704792,,,,,,,,,,,,,,,,,,,,,241.95551279999995,241.9704792,242.4545031,242.45958399999995,242.4701784,243.17162429999996,,,,,243.1718634,243.18665409999994,243.38684419999993,243.37057889999994,242.4701784,,,,,,,,1,1,0.6983042000000523,None,,,,,,,,853,23,M,R,2026-02-25_11h05.30.420,VisualSearch_2526_3,,2025.2.4,2026-02-25 11h05.31.234810 +0100,
vertical.xlsx,The target is tilted.,135,93,5,11,1,1,1,1,0,0,0,0,0,0,0,0,0,3,4,135,space,13.397602200000051,None,1,1,0.5076178000000482,None,space,1.5987687999999025,None,0,0,0,1,,,,,11,5,93,2,243.38684419999993,,,,,,,,,,,,,,,,,,,,,243.37139939999997,243.38684419999993,243.8708471,243.87601519999998,243.89705089999995,244.42125469999996,,,,,244.42146779999996,244.4362853,244.63659189999998,244.6203312,243.89705089999995,,,,,,,,1,1,0.5076178000000482,None,,,,,,,,853,23,M,R,2026-02-25_11h05.30.420,VisualSearch_2526_3,,2025.2.4,2026-02-25 11h05.31.234810 +0100,
vertical.xlsx,The target is tilted.,135,94,6,11,0,0,0,0,0,0,0,0,0,0,0,0,1,1,1,135,space,13.397602200000051,None,0,1,0.4727420000000393,None,space,1.5987687999999025,None,0,0,0,1,,,,,11,6,94,7,244.63659189999998,,,,,,,,,,,,,,,,,,,,,244.62115489999996,244.63659189999998,245.1195924,245.12416039999994,245.14316429999997,245.62041019999992,,,,,245.62062149999997,245.6361127,245.8360841,245.82023959999992,245.14316429999997,,,,,,,,0,1,0.4727420000000393,None,,,,,,,,853,23,M,R,2026-02-25_11h05.30.420,VisualSearch_2526_3,,2025.2.4,2026-02-25 11h05.31.234810 +0100,
vertical.xlsx,The target is tilted.,135,95,7,11,0,1,1,1,0,0,0,0,0,0,0,0,1,3,4,135,space,13.397602200000051,None,0,1,0.7435629999999946,None,space,1.5987687999999025,None,0,0,0,1,,,,,11,7,95,6,245.8360841,,,,,,,,,,,,,,,,,,,,,245.8210909999999,245.8360841,246.31995959999995,246.3253628,246.34657069999992,247.10344669999995,,,,,247.1036603,247.1189164,247.31903309999996,247.3029308,246.34657069999992,,,,,,,,0,1,0.7435629999999946,None,,,,,,,,853,23,M,R,2026-02-25_11h05.30.420,VisualSearch_2526_3,,2025.2.4,2026-02-25 11h05.31.234810 +0100,
vertical.xlsx,The target is tilted.,135,96,0,12,0,1,1,1,1,1,1,1,1,1,1,1,1,11,12,135,space,13.397602200000051,None,0,1,1.5025799000000006,None,space,1.5987687999999025,None,0,0,0,1,,,,,12,0,96,4,247.31903309999996,,,,,,,,,,,,,,,,,,,,,247.30374199999994,247.31903309999996,247.8026509,247.80798829999992,247.82993349999992,249.33598410000002,,,,,249.3362022,249.35165769999992,249.55159529999992,249.53576199999998,247.82993349999992,,,,,,,,0,1,1.5025799000000006,None,,,,,,,,853,23,M,R,2026-02-25_11h05.30.420,VisualSearch_2526_3,,2025.2.4,2026-02-25 11h05.31.234810 +0100,
vertical.xlsx,The target is tilted.,135,97,1,12,1,0,0,0,0,0,0,0,0,0,0,0,0,0,1,135,space,13.397602200000051,None,1,1,0.40316680000000815,None,space,1.5987687999999025,None,0,0,0,1,,,,,12,1,97,3,249.55159529999992,,,,,,,,,,,,,,,,,,,,,249.53658380000002,249.55159529999992,250.03545399999996,250.04072729999996,250.0620381,250.46899299999995,,,,,250.46920599999999,250.4843009,250.68466460000002,250.6686292999999,250.0620381,,,,,,,,1,1,0.40316680000000815,None,,,,,,,,853,23,M,R,2026-02-25_11h05.30.420,VisualSearch_2526_3,,2025.2.4,2026-02-25 11h05.31.234810 +0100,
vertical.xlsx,The target is tilted.,135,98,2,12,1,1,1,1,1,1,1,1,1,1,1,1,0,11,12,135,space,13.397602200000051,None,1,1,0.7798917000000074,None,space,1.5987687999999025,None,0,0,0,1,,,,,12,2,98,0,250.68466460000002,,,,,,,,,,,,,,,,,,,,,250.66947029999994,250.68466460000002,251.16821989999994,251.17325899999992,251.19462499999997,251.98546709999994,,,,,251.9856762999999,252.00047949999998,252.2003550999999,252.1846531,251.19462499999997,,,,,,,,1,1,0.7798917000000074,None,,,,,,,,853,23,M,R,2026-02-25_11h05.30.420,VisualSearch_2526_3,,2025.2.4,2026-02-25 11h05.31.234810 +0100,
vertical.xlsx,The target is tilted.,135,99,3,12,1,1,1,1,0,0,0,0,0,0,0,0,0,3,4,135,space,13.397602200000051,None,1,1,0.6224101999999903,None,space,1.5987687999999025,None,0,0,0,1,,,,,12,3,99,2,252.2003550999999,,,,,,,,,,,,,,,,,,,,,252.18546600000002,252.2003550999999,252.684484,252.69062209999993,252.70296639999992,253.33498499999996,,,,,253.3352076,253.3501877,253.55036629999995,253.53421070000002,252.70296639999992,,,,,,,,1,1,0.6224101999999903,None,,,,,,,,853,23,M,R,2026-02-25_11h05.30.420,VisualSearch_2526_3,,2025.2.4,2026-02-25 11h05.31.234810 +0100,
vertical.xlsx,The target is tilted.,135,100,4,12,1,1,1,1,1,1,1,1,0,0,0,0,0,7,8,135,space,13.397602200000051,None,1,1,1.272332600000027,None,space,1.5987687999999025,None,0,0,0,1,,,,,12,4,100,1,253.55036629999995,,,,,,,,,,,,,,,,,,,,,253.5350386,253.55036629999995,254.03417059999992,254.0394412999999,254.05987089999996,255.33423019999998,,,,,255.33445389999997,255.34962919999998,255.54973859999996,255.53372379999996,254.05987089999996,,,,,,,,1,1,1.272332600000027,None,,,,,,,,853,23,M,R,2026-02-25_11h05.30.420,VisualSearch_2526_3,,2025.2.4,2026-02-25 11h05.31.234810 +0100,
vertical.xlsx,The target is tilted.,135,101,5,12,0,1,1,1,1,1,1,1,0,0,0,0,1,7,8,135,space,13.397602200000051,None,0,1,1.4712840000000824,None,space,1.5987687999999025,None,0,0,0,1,,,,,12,5,101,5,255.54973859999996,,,,,,,,,,,,,,,,,,,,,255.53456129999995,255.54973859999996,256.033495,256.0385306999999,256.0492944,257.5335743999999,,,,,257.53382009999996,257.5490484999999,257.7489858,257.7329079,256.0492944,,,,,,,,0,1,1.4712840000000824,None,,,,,,,,853,23,M,R,2026-02-25_11h05.30.420,VisualSearch_2526_3,,2025.2.4,2026-02-25 11h05.31.234810 +0100,
vertical.xlsx,The target is tilted.,135,102,6,12,0,0,0,0,0,0,0,0,0,0,0,0,1,1,1,135,space,13.397602200000051,None,0,1,0.5302202999999963,None,space,1.5987687999999025,None,0,0,0,1,,,,,12,6,102,7,257.7489858,,,,,,,,,,,,,,,,,,,,,257.73368429999994,257.7489858,258.2326743,258.2379227,258.25839499999995,258.7998629,,,,,258.80009429999996,258.81492549999996,259.01509269999997,258.99884739999993,258.25839499999995,,,,,,,,0,1,0.5302202999999963,None,,,,,,,,853,23,M,R,2026-02-25_11h05.30.420,VisualSearch_2526_3,,2025.2.4,2026-02-25 11h05.31.234810 +0100,
vertical.xlsx,The target is tilted.,135,103,7,12,0,1,1,1,0,0,0,0,0,0,0,0,1,3,4,135,space,13.397602200000051,None,0,1,0.69564749999995,None,space,1.5987687999999025,None,0,0,0,1,,,,,12,7,103,6,259.01509269999997,,,,,,,,,,,,,,,,,,,,,258.99964709999995,259.01509269999997,259.4985717999999,259.50379079999993,259.52123389999997,260.2328007,,,,,260.2330321999999,260.24800659999994,260.44809469999996,260.4320117,259.52123389999997,,,,,,,,0,1,0.69564749999995,None,,,,,,,,853,23,M,R,2026-02-25_11h05.30.420,VisualSearch_2526_3,,2025.2.4,2026-02-25 11h05.31.234810 +0100,
vertical.xlsx,The target is tilted.,135,104,0,13,0,0,0,0,0,0,0,0,0,0,0,0,1,1,1,135,space,13.397602200000051,None,0,1,0.5376384999999573,None,space,1.5987687999999025,None,0,0,0,1,,,,,13,0,104,7,260.44809469999996,,,,,,,,,,,,,,,,,,,,,260.43280129999994,260.44809469999996,260.9314205999999,260.9357348,260.9477238999999,261.4987321,,,,,261.49892179999995,261.5142363,261.7138252,261.69802819999995,260.9477238999999,,,,,,,,0,1,0.5376384999999573,None,,,,,,,,853,23,M,R,2026-02-25_11h05.30.420,VisualSearch_2526_3,,2025.2.4,2026-02-25 11h05.31.234810 +0100,
vertical.xlsx,The target is tilted.,135,105,1,13,1,0,0,0,0,0,0,0,0,0,0,0,0,0,1,135,space,13.397602200000051,None,1,1,0.4784573999999111,None,space,1.5987687999999025,None,0,0,0,1,,,,,13,1,105,3,261.7138252,,,,,,,,,,,,,,,,,,,,,261.6988389999999,261.7138252,262.1982264999999,262.2034787,262.22451149999995,262.7153025,,,,,262.71551349999993,262.7303771999999,262.9301064,262.91375429999994,262.22451149999995,,,,,,,,1,1,0.4784573999999111,None,,,,,,,,853,23,M,R,2026-02-25_11h05.30.420,VisualSearch_2526_3,,2025.2.4,2026-02-25 11h05.31.234810 +0100,
vertical.xlsx,The target is tilted.,135,106,2,13,0,1,1,1,0,0,0,0,0,0,0,0,1,3,4,135,space,13.397602200000051,None,0,1,0.716081000000031,None,space,1.5987687999999025,None,0,0,0,1,,,,,13,2,106,6,262.9301064,,,,,,,,,,,,,,,,,,,,,262.9141826,262.9301064,263.41437229999997,263.4195356,263.44052769999996,264.1648035999999,,,,,264.1650434999999,264.1798143,264.3802306,264.3640756,263.44052769999996,,,,,,,,0,1,0.716081000000031,None,,,,,,,,853,23,M,R,2026-02-25_11h05.30.420,VisualSearch_2526_3,,2025.2.4,2026-02-25 11h05.31.234810 +0100,
vertical.xlsx,The target is tilted.,135,107,3,13,1,1,1,1,1,1,1,1,1,1,1,1,0,11,12,135,space,13.397602200000051,None,1,1,1.283295300000077,None,space,1.5987687999999025,None,0,0,0,1,,,,,13,3,107,0,264.3802306,,,,,,,,,,,,,,,,,,,,,264.3648607,264.3802306,264.863559,264.8689428,264.8896398999999,266.18076229999997,,,,,266.1810251999999,266.1963119999999,266.3962189,266.38018049999994,264.8896398999999,,,,,,,,1,1,1.283295300000077,None,,,,,,,,853,23,M,R,2026-02-25_11h05.30.420,VisualSearch_2526_3,,2025.2.4,2026-02-25 11h05.31.234810 +0100,
vertical.xlsx,The target is tilted.,135,108,4,13,0,1,1,1,1,1,1,1,0,0,0,0,1,7,8,135,space,13.397602200000051,None,0,1,1.291340699999978,None,space,1.5987687999999025,None,0,0,0,1,,,,,13,4,108,5,266.3962189,,,,,,,,,,,,,,,,,,,,,266.38097689999995,266.3962189,266.87986309999997,266.8850844,266.9062785,268.2133306999999,,,,,268.21356259999993,268.2287498999999,268.4288408,268.41272589999994,266.9062785,,,,,,,,0,1,1.291340699999978,None,,,,,,,,853,23,M,R,2026-02-25_11h05.30.420,VisualSearch_2526_3,,2025.2.4,2026-02-25 11h05.31.234810 +0100,
vertical.xlsx,The target is tilted.,135,109,5,13,0,1,1,1,1,1,1,1,1,1,1,1,1,11,12,135,space,13.397602200000051,None,0,1,2.369908099999975,None,space,1.5987687999999025,None,0,0,0,1,,,,,13,5,109,4,268.4288408,,,,,,,,,,,,,,,,,,,,,268.41353289999995,268.4288408,268.9124922,268.917909,268.9391663,271.3130847,,,,,271.3133363999999,271.3278394,271.5278349,271.5115445,268.9391663,,,,,,,,0,1,2.369908099999975,None,,,,,,,,853,23,M,R,2026-02-25_11h05.30.420,VisualSearch_2526_3,,2025.2.4,2026-02-25 11h05.31.234810 +0100,
vertical.xlsx,The target is tilted.,135,110,6,13,1,1,1,1,1,1,1,1,0,0,0,0,0,7,8,135,space,13.397602200000051,None,1,1,0.5874317999999903,None,space,1.5987687999999025,None,0,0,0,1,,,,,13,6,110,1,271.5278349,,,,,,,,,,,,,,,,,,,,,271.5124172999999,271.5278349,272.01122699999996,272.0165889,272.03787349999993,272.62882909999996,,,,,272.6290427,272.64384429999996,272.84411709999995,272.8280527999999,272.03787349999993,,,,,,,,1,1,0.5874317999999903,None,,,,,,,,853,23,M,R,2026-02-25_11h05.30.420,VisualSearch_2526_3,,2025.2.4,2026-02-25 11h05.31.234810 +0100,
vertical.xlsx,The target is tilted.,135,111,7,13,1,1,1,1,0,0,0,0,0,0,0,0,0,3,4,135,space,13.397602200000051,None,1,1,0.6076389999999492,None,space,1.5987687999999025,None,0,0,0,1,,,,,13,7,111,2,272.84411709999995,,,,,,,,,,,,,,,,,,,,,272.82884409999997,272.84411709999995,273.32770729999993,273.33304339999995,273.354552,273.97833689999993,,,,,273.9785516999999,273.9932819999999,274.1935103999999,274.1769855,273.354552,,,,,,,,1,1,0.6076389999999492,None,,,,,,,,853,23,M,R,2026-02-25_11h05.30.420,VisualSearch_2526_3,,2025.2.4,2026-02-25 11h05.31.234810 +0100,
vertical.xlsx,The target is tilted.,135,112,0,14,0,1,1,1,1,1,1,1,0,0,0,0,1,7,8,135,space,13.397602200000051,None,0,1,1.189567899999929,None,space,1.5987687999999025,None,0,0,0,1,,,,,14,0,112,5,274.1935103999999,,,,,,,,,,,,,,,,,,,,,274.1778521,274.1935103999999,274.6774249,274.6825966,274.70350899999994,275.91097149999996,,,,,275.9111861,275.92607239999995,276.12631179999994,276.1101301,274.70350899999994,,,,,,,,0,1,1.189567899999929,None,,,,,,,,853,23,M,R,2026-02-25_11h05.30.420,VisualSearch_2526_3,,2025.2.4,2026-02-25 11h05.31.234810 +0100,
vertical.xlsx,The target is tilted.,135,113,1,14,1,0,0,0,0,0,0,0,0,0,0,0,0,0,1,135,space,13.397602200000051,None,1,1,0.4677601999999297,None,space,1.5987687999999025,None,0,0,0,1,,,,,14,1,113,3,276.12631179999994,,,,,,,,,,,,,,,,,,,,,276.1109567,276.12631179999994,276.61019309999995,276.6155643999999,276.637697,277.1102939,,,,,277.1105117999999,277.1256037999999,277.3259058,277.30997819999993,276.637697,,,,,,,,1,1,0.4677601999999297,None,,,,,,,,853,23,M,R,2026-02-25_11h05.30.420,VisualSearch_2526_3,,2025.2.4,2026-02-25 11h05.31.234810 +0100,
vertical.xlsx,The target is tilted.,135,114,2,14,0,0,0,0,0,0,0,0,0,0,0,0,1,1,1,135,space,13.397602200000051,None,0,1,0.7570446999999376,None,space,1.5987687999999025,None,0,0,0,1,,,,,14,2,114,7,277.3259058,,,,,,,,,,,,,,,,,,,,,277.31082259999994,277.3259058,277.8096790999999,277.8151521,277.83675619999997,278.61003729999993,,,,,278.6102893,278.62546599999996,278.82551249999995,278.80946819999997,277.83675619999997,,,,,,,,0,1,0.7570446999999376,None,,,,,,,,853,23,M,R,2026-02-25_11h05.30.420,VisualSearch_2526_3,,2025.2.4,2026-02-25 11h05.31.234810 +0100,
vertical.xlsx,The target is tilted.,135,115,3,14,0,1,1,1,1,1,1,1,1,1,1,1,1,11,12,135,space,13.397602200000051,None,0,1,1.2215489999999818,None,space,1.5987687999999025,None,0,0,0,1,,,,,14,3,115,4,278.82551249999995,,,,,,,,,,,,,,,,,,,,,278.81025779999993,278.82551249999995,279.3092937,279.31471909999993,279.3334579,280.55885709999995,,,,,280.55906889999994,280.5744178,280.77482639999994,280.7586289999999,279.3334579,,,,,,,,0,1,1.2215489999999818,None,,,,,,,,853,23,M,R,2026-02-25_11h05.30.420,VisualSearch_2526_3,,2025.2.4,2026-02-25 11h05.31.234810 +0100,
vertical.xlsx,The target is tilted.,135,116,4,14,1,1,1,1,1,1,1,1,0,0,0,0,0,7,8,135,space,13.397602200000051,None,1,1,0.8563026000000491,None,space,1.5987687999999025,None,0,0,0,1,,,,,14,4,116,1,280.77482639999994,,,,,,,,,,,,,,,,,,,,,280.75946999999996,280.77482639999994,281.2586699,281.26386719999994,281.2844799999999,282.15864079999994,,,,,282.15883199999996,282.1743838,282.37379039999996,282.35819849999996,281.2844799999999,,,,,,,,1,1,0.8563026000000491,None,,,,,,,,853,23,M,R,2026-02-25_11h05.30.420,VisualSearch_2526_3,,2025.2.4,2026-02-25 11h05.31.234810 +0100,
vertical.xlsx,The target is tilted.,135,117,5,14,0,1,1,1,0,0,0,0,0,0,0,0,1,3,4,135,space,13.397602200000051,None,0,1,0.757597799999985,None,space,1.5987687999999025,None,0,0,0,1,,,,,14,5,117,6,282.37379039999996,,,,,,,,,,,,,,,,,,,,,282.3589939,282.37379039999996,282.85800989999996,282.8631257999999,282.8737516,283.64154039999994,,,,,283.64175679999994,283.6569799,283.85688129999994,283.8409895,282.8737516,,,,,,,,0,1,0.757597799999985,None,,,,,,,,853,23,M,R,2026-02-25_11h05.30.420,VisualSearch_2526_3,,2025.2.4,2026-02-25 11h05.31.234810 +0100,
vertical.xlsx,The target is tilted.,135,118,6,14,1,1,1,1,1,1,1,1,1,1,1,1,0,11,12,135,space,13.397602200000051,None,1,1,0.9326591999999891,None,space,1.5987687999999025,None,0,0,0,1,,,,,14,6,118,0,283.85688129999994,,,,,,,,,,,,,,,,,,,,,283.84179929999993,283.85688129999994,284.34108219999996,284.346369,284.36776399999997,285.3079558999999,,,,,285.3081651,285.32327769999995,285.5232775999999,285.5068392999999,284.36776399999997,,,,,,,,1,1,0.9326591999999891,None,,,,,,,,853,23,M,R,2026-02-25_11h05.30.420,VisualSearch_2526_3,,2025.2.4,2026-02-25 11h05.31.234810 +0100,
vertical.xlsx,The target is tilted.,135,119,7,14,1,1,1,1,0,0,0,0,0,0,0,0,0,3,4,135,space,13.397602200000051,None,1,1,0.6281051000000843,None,space,1.5987687999999025,None,0,0,0,1,,,,,14,7,119,2,285.5232775999999,,,,,,,,,,,,,,,,,,,,,285.50771599999996,285.5232775999999,286.00704499999995,286.0135856999999,286.0345605,286.6741124,,,,,286.67436699999996,286.68939109999997,286.9142387999999,286.8733634,286.0345605,,,,,,,,1,1,0.6281051000000843,None,,,,,,,,853,23,M,R,2026-02-25_11h05.30.420,VisualSearch_2526_3,,2025.2.4,2026-02-25 11h05.31.234810 +0100,
vertical.xlsx,The target is tilted.,135,0,0,0,,,,,,,,,,,,,,,,,space,13.397602200000051,None,,,,,space,1.5987687999999025,None,0,0,0,1,,,,,,,,,,,,,,,,,,,,,,,,,,,,,,,,,,,,,,,,,,,,,,,,,,,,,,,,,,,,,,,853,23,M,R,2026-02-25_11h05.30.420,VisualSearch_2526_3,,2025.2.4,2026-02-25 11h05.31.234810 +0100,
tilted.xlsx,The target is tilted.,117,0,0,0,0,1,1,1,1,1,1,1,1,1,1,1,1,11,12,117,space,10.685328300000037,None,1,0,0.7773528000000169,None,,,,0,1,1,0,0,0,0,4,,,,,297.7023127,,,,,,,,,,,,,,,286.9142387999999,286.9142387999999,286.9142387999999,space,10.685328300000037,None,297.69841729999996,297.7023127,298.1195548999999,298.1249909999999,298.1464426,298.9368614,1,0,0.7773528000000169,None,298.9370766999999,298.9518661999999,299.1520687,299.13612209999997,,,,,,,,,,,,,,,,,,,,853,23,M,R,2026-02-25_11h05.30.420,VisualSearch_2526_3,,2025.2.4,2026-02-25 11h05.31.234810 +0100,
tilted.xlsx,The target is tilted.,117,1,1,0,1,1,1,1,1,1,1,1,0,0,0,0,0,7,8,117,space,10.685328300000037,None,1,1,1.4695034000000078,None,,,,0,1,1,0,0,1,1,1,,,,,299.1520687,,,,,,,,,,,,,,,,,,,,,299.1368609,299.1520687,299.6359166,299.6412471,299.6625935999999,301.1354798,1,1,1.4695034000000078,None,301.13567539999997,301.15146489999995,301.3513709,301.33539559999997,299.6625935999999,,,,,,,,,,,,,,,,,,,853,23,M,R,2026-02-25_11h05.30.420,VisualSearch_2526_3,,2025.2.4,2026-02-25 11h05.31.234810 +0100,
tilted.xlsx,The target is tilted.,117,2,2,0,0,1,1,1,1,1,1,1,0,0,0,0,1,7,8,117,space,10.685328300000037,None,1,0,1.3688075000000026,None,,,,0,1,1,0,0,2,2,5,,,,,301.3513709,,,,,,,,,,,,,,,,,,,,,301.336133,301.3513709,301.83486229999994,301.83892159999994,301.857984,303.23421799999994,1,0,1.3688075000000026,None,303.23434039999995,303.2500974999999,303.4506848,303.4341713,301.857984,,,,,,,,,,,,,,,,,,,853,23,M,R,2026-02-25_11h05.30.420,VisualSearch_2526_3,,2025.2.4,2026-02-25 11h05.31.234810 +0100,
tilted.xlsx,The target is tilted.,117,3,3,0,0,0,0,0,0,0,0,0,0,0,0,0,1,1,1,117,space,10.685328300000037,None,1,0,0.750432700000033,None,,,,0,1,1,0,0,3,3,7,,,,,303.4506848,,,,,,,,,,,,,,,,,,,,,303.4345148,303.4506848,303.93351069999994,303.9361088999999,303.94995759999995,304.7170995,1,0,0.750432700000033,None,304.71721479999997,304.7329894999999,304.9330682,304.9166464,303.94995759999995,,,,,,,,,,,,,,,,,,,853,23,M,R,2026-02-25_11h05.30.420,VisualSearch_2526_3,,2025.2.4,2026-02-25 11h05.31.234810 +0100,
tilted.xlsx,The target is tilted.,117,4,4,0,1,1,1,1,1,1,1,1,1,1,1,1,0,11,12,117,space,10.685328300000037,None,1,1,1.8062961000000541,None,,,,0,1,1,0,0,4,4,0,,,,,304.9330682,,,,,,,,,,,,,,,,,,,,,304.91716009999993,304.9330682,305.4166878,305.41981409999994,305.4331464999999,307.25074889999996,1,1,1.8062961000000541,None,307.2509736999999,307.26580709999996,307.46584859999996,307.44959129999995,305.4331464999999,,,,,,,,,,,,,,,,,,,853,23,M,R,2026-02-25_11h05.30.420,VisualSearch_2526_3,,2025.2.4,2026-02-25 11h05.31.234810 +0100,
tilted.xlsx,The target is tilted.,117,5,5,0,1,1,1,1,0,0,0,0,0,0,0,0,0,3,4,117,space,10.685328300000037,None,0,0,2.253646799999956,None,,,,0,1,1,0,0,5,5,2,,,,,307.46584859999996,,,,,,,,,,,,,,,,,,,,,307.4500035,307.46584859999996,307.9490440999999,307.951687,307.96566069999994,310.2323808,0,0,2.253646799999956,None,310.2325192999999,310.24793149999994,310.4484896,310.4322909,307.96566069999994,,,,,,,,,,,,,,,,,,,853,23,M,R,2026-02-25_11h05.30.420,VisualSearch_2526_3,,2025.2.4,2026-02-25 11h05.31.234810 +0100,
tilted.xlsx,The target is tilted.,117,6,6,0,1,0,0,0,0,0,0,0,0,0,0,0,0,0,1,117,space,10.685328300000037,None,0,0,0.6933837999999923,None,,,,0,1,1,0,0,6,6,3,,,,,310.4484896,,,,,,,,,,,,,,,,,,,,,310.4331582,310.4484896,310.9318897999999,310.937313,310.9511751,311.6489726,0,0,0.6933837999999923,None,311.6491793,311.6642754999999,311.86427949999995,311.8482300999999,310.9511751,,,,,,,,,,,,,,,,,,,853,23,M,R,2026-02-25_11h05.30.420,VisualSearch_2526_3,,2025.2.4,2026-02-25 11h05.31.234810 +0100,
tilted.xlsx,The target is tilted.,117,7,7,0,0,1,1,1,0,0,0,0,0,0,0,0,1,3,4,117,space,10.685328300000037,None,1,0,0.7064242000000149,None,,,,0,1,1,0,0,7,7,6,,,,,311.86427949999995,,,,,,,,,,,,,,,,,,,,,311.84898739999994,311.86427949999995,312.34842459999993,312.35400029999994,312.3759669,313.0976885,1,0,0.7064242000000149,None,313.0978051999999,313.1140064,313.31418269999995,313.29783939999993,312.3759669,,,,,,,,,,,,,,,,,,,853,23,M,R,2026-02-25_11h05.30.420,VisualSearch_2526_3,,2025.2.4,2026-02-25 11h05.31.234810 +0100,
tilted.xlsx,The target is tilted.,117,0,0,0,0,0,0,0,0,0,0,0,0,0,0,0,1,1,1,117,space,10.685328300000037,None,1,0,0.9318944999999985,None,space,1.1837238000000525,None,0,1,1,0,,,,,0,0,0,7,314.5353758,,,,,,,,,,,,,,,,,,,,,314.5316250999999,314.5353758,315.02985479999995,315.0333363,315.0478776,315.99672739999994,,,,,315.9968328,316.01264219999996,316.2128508999999,316.19680329999994,,313.3061699,313.31418269999995,313.31418269999995,314.51402829999995,space,1.1837238000000525,None,1,0,0.9318944999999985,None,,,,,,,,853,23,M,R,2026-02-25_11h05.30.420,VisualSearch_2526_3,,2025.2.4,2026-02-25 11h05.31.234810 +0100,
tilted.xlsx,The target is tilted.,117,1,1,0,1,0,0,0,0,0,0,0,0,0,0,0,0,0,1,117,space,10.685328300000037,None,0,0,0.5543559000000187,None,space,1.1837238000000525,None,0,1,1,0,,,,,0,1,1,3,316.2128508999999,,,,,,,,,,,,,,,,,,,,,316.1977184,316.2128508999999,316.6966467,316.70188929999995,316.7233328,317.2794015999999,,,,,317.27951959999996,317.2954109,317.4953832,317.4790504,316.7233328,,,,,,,,0,0,0.5543559000000187,None,,,,,,,,853,23,M,R,2026-02-25_11h05.30.420,VisualSearch_2526_3,,2025.2.4,2026-02-25 11h05.31.234810 +0100,
tilted.xlsx,The target is tilted.,117,2,2,0,1,1,1,1,1,1,1,1,0,0,0,0,0,7,8,117,space,10.685328300000037,None,1,1,1.708516300000042,None,space,1.1837238000000525,None,0,1,1,0,,,,,0,2,2,1,317.4953832,,,,,,,,,,,,,,,,,,,,,317.4795289,317.4953832,317.9788161,317.9815072,317.9952846,319.7121512,,,,,319.7122703,319.72806919999994,319.92800839999995,319.91180729999996,317.9952846,,,,,,,,1,1,1.708516300000042,None,,,,,,,,853,23,M,R,2026-02-25_11h05.30.420,VisualSearch_2526_3,,2025.2.4,2026-02-25 11h05.31.234810 +0100,
tilted.xlsx,The target is tilted.,117,3,3,0,0,1,1,1,0,0,0,0,0,0,0,0,1,3,4,117,space,10.685328300000037,None,1,0,0.6162406000000828,None,space,1.1837238000000525,None,0,1,1,0,,,,,0,3,3,6,319.92800839999995,,,,,,,,,,,,,,,,,,,,,319.91215539999996,319.92800839999995,320.41156609999996,320.4142571,320.42806029999997,321.0450427999999,,,,,321.0451607,321.0609483999999,321.26088659999994,321.2447763,320.42806029999997,,,,,,,,1,0,0.6162406000000828,None,,,,,,,,853,23,M,R,2026-02-25_11h05.30.420,VisualSearch_2526_3,,2025.2.4,2026-02-25 11h05.31.234810 +0100,
tilted.xlsx,The target is tilted.,117,4,4,0,0,1,1,1,1,1,1,1,1,1,1,1,1,11,12,117,space,10.685328300000037,None,1,0,0.8464278000000149,None,space,1.1837238000000525,None,0,1,1,0,,,,,0,4,4,4,321.26088659999994,,,,,,,,,,,,,,,,,,,,,321.2451997999999,321.26088659999994,321.74442579999993,321.7473172,321.7607904,322.6112079999999,,,,,322.6113246,322.6272723999999,322.8271033,322.81079239999997,321.7607904,,,,,,,,1,0,0.8464278000000149,None,,,,,,,,853,23,M,R,2026-02-25_11h05.30.420,VisualSearch_2526_3,,2025.2.4,2026-02-25 11h05.31.234810 +0100,
tilted.xlsx,The target is tilted.,117,5,5,0,1,1,1,1,0,0,0,0,0,0,0,0,0,3,4,117,space,10.685328300000037,None,0,0,1.071790799999917,None,space,1.1837238000000525,None,0,1,1,0,,,,,0,5,5,2,322.8271033,,,,,,,,,,,,,,,,,,,,,322.8112398999999,322.8271033,323.3106935999999,323.3134392999999,323.32698719999996,324.4104886,,,,,324.4106049999999,324.4264786,324.6264858999999,324.61002369999994,323.32698719999996,,,,,,,,0,0,1.071790799999917,None,,,,,,,,853,23,M,R,2026-02-25_11h05.30.420,VisualSearch_2526_3,,2025.2.4,2026-02-25 11h05.31.234810 +0100,
tilted.xlsx,The target is tilted.,117,6,6,0,0,1,1,1,1,1,1,1,0,0,0,0,1,7,8,117,space,10.685328300000037,None,1,0,1.03762770000003,None,space,1.1837238000000525,None,0,1,1,0,,,,,0,6,6,5,324.6264858999999,,,,,,,,,,,,,,,,,,,,,324.61048359999995,324.6264858999999,325.1108851,325.11708909999993,325.1346545,326.1782268999999,,,,,326.1784957,326.19360359999996,326.3929830999999,326.3775678999999,,,,,,,,,1,0,1.03762770000003,None,,,,,,,,853,23,M,R,2026-02-25_11h05.30.420,VisualSearch_2526_3,,2025.2.4,2026-02-25 11h05.31.234810 +0100,
tilted.xlsx,The target is tilted.,117,7,7,0,1,1,1,1,1,1,1,1,1,1,1,1,0,11,12,117,space,10.685328300000037,None,1,1,0.6940614999999752,None,space,1.1837238000000525,None,0,1,1,0,,,,,0,7,7,0,326.3929830999999,,,,,,,,,,,,,,,,,,,,,326.3786351,326.3929830999999,326.8773944999999,326.88354129999993,326.9055586999999,327.61079069999994,,,,,327.6110511999999,327.6258514,327.82604449999997,327.80991589999996,326.9055586999999,,,,,,,,1,1,0.6940614999999752,None,,,,,,,,853,23,M,R,2026-02-25_11h05.30.420,VisualSearch_2526_3,,2025.2.4,2026-02-25 11h05.31.234810 +0100,
tilted.xlsx,The target is tilted.,117,8,0,1,1,1,1,1,1,1,1,1,0,0,0,0,0,7,8,117,space,10.685328300000037,None,0,0,2.6963599000000613,None,space,1.1837238000000525,None,0,1,1,0,,,,,1,0,8,1,327.82604449999997,,,,,,,,,,,,,,,,,,,,,327.81073919999994,327.82604449999997,328.31001389999994,328.31540599999994,328.3367512,331.04299979999996,,,,,331.0432331999999,331.0582984,331.2580054,331.24185769999997,328.3367512,,,,,,,,0,0,2.6963599000000613,None,,,,,,,,853,23,M,R,2026-02-25_11h05.30.420,VisualSearch_2526_3,,2025.2.4,2026-02-25 11h05.31.234810 +0100,
tilted.xlsx,The target is tilted.,117,9,1,1,0,1,1,1,0,0,0,0,0,0,0,0,1,3,4,117,space,10.685328300000037,None,1,0,1.1677826000000096,None,space,1.1837238000000525,None,0,1,1,0,,,,,1,1,9,6,331.2580054,,,,,,,,,,,,,,,,,,,,,331.2427388,331.2580054,331.7420863,331.74743509999996,331.76870469999994,332.942053,,,,,332.9422412,332.957582,333.1578061,333.1413943,331.76870469999994,,,,,,,,1,0,1.1677826000000096,None,,,,,,,,853,23,M,R,2026-02-25_11h05.30.420,VisualSearch_2526_3,,2025.2.4,2026-02-25 11h05.31.234810 +0100,
tilted.xlsx,The target is tilted.,117,10,2,1,1,1,1,1,0,0,0,0,0,0,0,0,0,3,4,117,space,10.685328300000037,None,0,0,1.7203053000000637,None,space,1.1837238000000525,None,0,1,1,0,,,,,1,2,10,2,333.1578061,,,,,,,,,,,,,,,,,,,,,333.14223559999994,333.1578061,333.6411809,333.6464403,333.6671848,335.39117179999994,,,,,335.391387,335.40688149999994,335.6070884999999,335.5909143,333.6671848,,,,,,,,0,0,1.7203053000000637,None,,,,,,,,853,23,M,R,2026-02-25_11h05.30.420,VisualSearch_2526_3,,2025.2.4,2026-02-25 11h05.31.234810 +0100,
tilted.xlsx,The target is tilted.,117,11,3,1,0,0,0,0,0,0,0,0,0,0,0,0,1,1,1,117,space,10.685328300000037,None,1,0,0.6372384000000011,None,space,1.1837238000000525,None,0,1,1,0,,,,,1,3,11,7,335.6070884999999,,,,,,,,,,,,,,,,,,,,,335.5917261999999,335.6070884999999,336.09050089999994,336.09593799999993,336.10693789999993,336.7578771,,,,,336.7580919999999,336.7728695999999,336.97316319999993,336.9573034,336.10693789999993,,,,,,,,1,0,0.6372384000000011,None,,,,,,,,853,23,M,R,2026-02-25_11h05.30.420,VisualSearch_2526_3,,2025.2.4,2026-02-25 11h05.31.234810 +0100,
tilted.xlsx,The target is tilted.,117,12,4,1,1,1,1,1,1,1,1,1,1,1,1,1,0,11,12,117,space,10.685328300000037,None,1,1,0.9023721999999452,None,space,1.1837238000000525,None,0,1,1,0,,,,,1,4,12,0,336.97316319999993,,,,,,,,,,,,,,,,,,,,,336.9581278999999,336.97316319999993,337.45704079999996,337.4622777999999,337.4794946999999,338.3905656999999,,,,,338.3908154999999,338.4057348,338.6058667,338.58988149999993,337.4794946999999,,,,,,,,1,1,0.9023721999999452,None,,,,,,,,853,23,M,R,2026-02-25_11h05.30.420,VisualSearch_2526_3,,2025.2.4,2026-02-25 11h05.31.234810 +0100,
tilted.xlsx,The target is tilted.,117,13,5,1,0,1,1,1,1,1,1,1,0,0,0,0,1,7,8,117,space,10.685328300000037,None,0,1,1.5944271999999273,None,space,1.1837238000000525,None,0,1,1,0,,,,,1,5,13,5,338.6058667,,,,,,,,,,,,,,,,,,,,,338.5906971999999,338.6058667,339.0893877,339.09478019999995,339.10837879999997,340.7062333,,,,,340.70644749999997,340.72175259999995,340.9218083999999,340.9056098,339.10837879999997,,,,,,,,0,1,1.5944271999999273,None,,,,,,,,853,23,M,R,2026-02-25_11h05.30.420,VisualSearch_2526_3,,2025.2.4,2026-02-25 11h05.31.234810 +0100,
tilted.xlsx,The target is tilted.,117,14,6,1,1,0,0,0,0,0,0,0,0,0,0,0,0,0,1,117,space,10.685328300000037,None,0,0,0.6784188999999969,None,space,1.1837238000000525,None,0,1,1,0,,,,,1,6,14,3,340.9218083999999,,,,,,,,,,,,,,,,,,,,,340.90645029999996,340.9218083999999,341.4056809,341.41093979999994,341.4323614,342.1225888,,,,,342.12282589999995,342.1381279,342.3380959,342.32189819999996,341.4323614,,,,,,,,0,0,0.6784188999999969,None,,,,,,,,853,23,M,R,2026-02-25_11h05.30.420,VisualSearch_2526_3,,2025.2.4,2026-02-25 11h05.31.234810 +0100,
tilted.xlsx,The target is tilted.,117,15,7,1,0,1,1,1,1,1,1,1,1,1,1,1,1,11,12,117,space,10.685328300000037,None,1,0,0.8373071999999411,None,space,1.1837238000000525,None,0,1,1,0,,,,,1,7,15,4,342.3380959,,,,,,,,,,,,,,,,,,,,,342.3228316,342.3380959,342.8216782999999,342.8269931,342.84777439999993,343.6884064999999,,,,,343.6885963,343.70409359999996,343.90430589999994,343.8882129,342.84777439999993,,,,,,,,1,0,0.8373071999999411,None,,,,,,,,853,23,M,R,2026-02-25_11h05.30.420,VisualSearch_2526_3,,2025.2.4,2026-02-25 11h05.31.234810 +0100,
tilted.xlsx,The target is tilted.,117,16,0,2,0,1,1,1,1,1,1,1,0,0,0,0,1,7,8,117,space,10.685328300000037,None,1,0,1.5533613999999716,None,space,1.1837238000000525,None,0,1,1,0,,,,,2,0,16,5,343.90430589999994,,,,,,,,,,,,,,,,,,,,,343.88899949999995,343.90430589999994,344.3878211,344.3932609,344.4145219999999,345.9708248999999,,,,,345.9709408,345.98667579999994,346.18673279999996,346.1708705,344.4145219999999,,,,,,,,1,0,1.5533613999999716,None,,,,,,,,853,23,M,R,2026-02-25_11h05.30.420,VisualSearch_2526_3,,2025.2.4,2026-02-25 11h05.31.234810 +0100,
tilted.xlsx,The target is tilted.,117,17,1,2,1,1,1,1,1,1,1,1,0,0,0,0,0,7,8,117,space,10.685328300000037,None,0,0,2.3797976000000745,None,space,1.1837238000000525,None,0,1,1,0,,,,,2,1,17,1,346.18673279999996,,,,,,,,,,,,,,,,,,,,,346.1717034999999,346.18673279999996,346.67054729999995,346.67520709999997,346.68638909999993,349.07015149999995,,,,,349.07036429999994,349.0857546,349.2858001999999,349.269682,346.68638909999993,,,,,,,,0,0,2.3797976000000745,None,,,,,,,,853,23,M,R,2026-02-25_11h05.30.420,VisualSearch_2526_3,,2025.2.4,2026-02-25 11h05.31.234810 +0100,
tilted.xlsx,The target is tilted.,117,18,2,2,1,1,1,1,1,1,1,1,1,1,1,1,0,11,12,117,space,10.685328300000037,None,1,1,3.8298237999999856,None,space,1.1837238000000525,None,0,1,1,0,,,,,2,2,18,0,349.2858001999999,,,,,,,,,,,,,,,,,,,,,349.2705119,349.2858001999999,349.7698019999999,349.7746252999999,349.7854052,353.6192469,,,,,353.6194653,353.63433869999994,353.83431799999994,353.81823929999996,349.7854052,,,,,,,,1,1,3.8298237999999856,None,,,,,,,,853,23,M,R,2026-02-25_11h05.30.420,VisualSearch_2526_3,,2025.2.4,2026-02-25 11h05.31.234810 +0100,
tilted.xlsx,The target is tilted.,117,19,3,2,1,0,0,0,0,0,0,0,0,0,0,0,0,0,1,117,space,10.685328300000037,None,0,0,0.6796421000000237,None,space,1.1837238000000525,None,0,1,1,0,,,,,2,3,19,3,353.83431799999994,,,,,,,,,,,,,,,,,,,,,353.81908269999997,353.83431799999994,354.31799909999995,354.32354769999995,354.3352507999999,355.01781059999996,,,,,355.017929,355.03368549999993,355.23382919999995,355.2179059,354.3352507999999,,,,,,,,0,0,0.6796421000000237,None,,,,,,,,853,23,M,R,2026-02-25_11h05.30.420,VisualSearch_2526_3,,2025.2.4,2026-02-25 11h05.31.234810 +0100,
tilted.xlsx,The target is tilted.,117,20,4,2,0,1,1,1,0,0,0,0,0,0,0,0,1,3,4,117,space,10.685328300000037,None,1,0,1.1871741999999585,None,space,1.1837238000000525,None,0,1,1,0,,,,,2,4,20,6,355.23382919999995,,,,,,,,,,,,,,,,,,,,,355.2187933,355.23382919999995,355.7175282999999,355.7227843999999,355.74386159999995,356.93438589999994,,,,,356.9345929,356.94987319999996,357.14990909999995,357.13337809999996,355.74386159999995,,,,,,,,1,0,1.1871741999999585,None,,,,,,,,853,23,M,R,2026-02-25_11h05.30.420,VisualSearch_2526_3,,2025.2.4,2026-02-25 11h05.31.234810 +0100,
tilted.xlsx,The target is tilted.,117,21,5,2,0,1,1,1,1,1,1,1,1,1,1,1,1,11,12,117,space,10.685328300000037,None,1,0,0.5253622999999834,None,space,1.1837238000000525,None,0,1,1,0,,,,,2,5,21,4,357.14990909999995,,,,,,,,,,,,,,,,,,,,,357.1339561,357.14990909999995,357.63369839999996,357.63901139999996,357.660396,358.20083,,,,,358.20106,358.21586549999995,358.4160107,358.3998457,357.660396,,,,,,,,1,0,0.5253622999999834,None,,,,,,,,853,23,M,R,2026-02-25_11h05.30.420,VisualSearch_2526_3,,2025.2.4,2026-02-25 11h05.31.234810 +0100,
tilted.xlsx,The target is tilted.,117,22,6,2,1,1,1,1,0,0,0,0,0,0,0,0,0,3,4,117,space,10.685328300000037,None,0,0,0.8122429000000011,None,space,1.1837238000000525,None,0,1,1,0,,,,,2,6,22,2,358.4160107,,,,,,,,,,,,,,,,,,,,,358.4006820999999,358.4160107,358.90003149999995,358.9053411,358.9266441,359.75017579999997,,,,,359.7504176,359.76535579999995,359.9657553999999,359.9496876999999,358.9266441,,,,,,,,0,0,0.8122429000000011,None,,,,,,,,853,23,M,R,2026-02-25_11h05.30.420,VisualSearch_2526_3,,2025.2.4,2026-02-25 11h05.31.234810 +0100,
tilted.xlsx,The target is tilted.,117,23,7,2,0,0,0,0,0,0,0,0,0,0,0,0,1,1,1,117,space,10.685328300000037,None,1,0,0.5694174000000203,None,space,1.1837238000000525,None,0,1,1,0,,,,,2,7,23,7,359.9657553999999,,,,,,,,,,,,,,,,,,,,,359.95054759999994,359.9657553999999,360.44945559999996,360.45473719999995,360.4757893,361.04949309999995,,,,,361.049707,361.0652103,361.26522839999996,361.24873319999995,360.4757893,,,,,,,,1,0,0.5694174000000203,None,,,,,,,,853,23,M,R,2026-02-25_11h05.30.420,VisualSearch_2526_3,,2025.2.4,2026-02-25 11h05.31.234810 +0100,
tilted.xlsx,The target is tilted.,117,24,0,3,1,1,1,1,0,0,0,0,0,0,0,0,0,3,4,117,space,10.685328300000037,None,0,0,1.1416081999999506,None,space,1.1837238000000525,None,0,1,1,0,,,,,3,0,24,2,361.26522839999996,,,,,,,,,,,,,,,,,,,,,361.24956369999995,361.26522839999996,361.74901109999996,361.7542522,361.7754572,362.9325288,,,,,362.93275989999995,362.94789119999996,363.14785919999997,363.13159329999996,361.7754572,,,,,,,,0,0,1.1416081999999506,None,,,,,,,,853,23,M,R,2026-02-25_11h05.30.420,VisualSearch_2526_3,,2025.2.4,2026-02-25 11h05.31.234810 +0100,
tilted.xlsx,The target is tilted.,117,25,1,3,0,1,1,1,1,1,1,1,1,1,1,1,1,11,12,117,space,10.685328300000037,None,1,0,0.8662461999999778,None,space,1.1837238000000525,None,0,1,1,0,,,,,3,1,25,4,363.14785919999997,,,,,,,,,,,,,,,,,,,,,363.1324466,363.14785919999997,363.6314388999999,363.6368622,363.6586089,364.5317246999999,,,,,364.5319399,364.54741579999995,364.7474429,364.73100339999996,363.6586089,,,,,,,,1,0,0.8662461999999778,None,,,,,,,,853,23,M,R,2026-02-25_11h05.30.420,VisualSearch_2526_3,,2025.2.4,2026-02-25 11h05.31.234810 +0100,
tilted.xlsx,The target is tilted.,117,26,2,3,0,1,1,1,1,1,1,1,0,0,0,0,1,7,8,117,space,10.685328300000037,None,1,0,1.7362501000000066,None,space,1.1837238000000525,None,0,1,1,0,,,,,3,2,26,5,364.7474429,,,,,,,,,,,,,,,,,,,,,364.7318365,364.7474429,365.2311794,365.23684679999997,365.258114,366.99782059999995,,,,,366.9980585999999,367.0131136,367.21336929999995,367.19685659999993,365.258114,,,,,,,,1,0,1.7362501000000066,None,,,,,,,,853,23,M,R,2026-02-25_11h05.30.420,VisualSearch_2526_3,,2025.2.4,2026-02-25 11h05.31.234810 +0100,
tilted.xlsx,The target is tilted.,117,27,3,3,0,0,0,0,0,0,0,0,0,0,0,0,1,1,1,117,space,10.685328300000037,None,1,0,0.545309399999951,None,space,1.1837238000000525,None,0,1,1,0,,,,,3,3,27,7,367.21336929999995,,,,,,,,,,,,,,,,,,,,,367.197675,367.21336929999995,367.6971427,367.7025598,367.72440729999994,368.2809942,,,,,368.28120739999997,368.29603869999994,368.49625419999995,368.4802595,367.72440729999994,,,,,,,,1,0,0.545309399999951,None,,,,,,,,853,23,M,R,2026-02-25_11h05.30.420,VisualSearch_2526_3,,2025.2.4,2026-02-25 11h05.31.234810 +0100,
tilted.xlsx,The target is tilted.,117,28,4,3,1,1,1,1,1,1,1,1,0,0,0,0,0,7,8,117,space,10.685328300000037,None,0,0,1.817498799999953,None,space,1.1837238000000525,None,0,1,1,0,,,,,3,4,28,1,368.49625419999995,,,,,,,,,,,,,,,,,,,,,368.48107089999996,368.49625419999995,368.9799753,368.98528079999994,369.0066802,370.8299976999999,,,,,370.8302476,370.8450866999999,371.0453759999999,371.029399,369.0066802,,,,,,,,0,0,1.817498799999953,None,,,,,,,,853,23,M,R,2026-02-25_11h05.30.420,VisualSearch_2526_3,,2025.2.4,2026-02-25 11h05.31.234810 +0100,
tilted.xlsx,The target is tilted.,117,29,5,3,1,1,1,1,1,1,1,1,1,1,1,1,0,11,12,117,space,10.685328300000037,None,1,1,0.7929578999999194,None,space,1.1837238000000525,None,0,1,1,0,,,,,3,5,29,0,371.0453759999999,,,,,,,,,,,,,,,,,,,,,371.0301946999999,371.0453759999999,371.5290751,371.53432939999993,371.5554588,372.36279279999997,,,,,372.36304259999997,372.3782476,372.5782001,372.56219209999995,371.5554588,,,,,,,,1,1,0.7929578999999194,None,,,,,,,,853,23,M,R,2026-02-25_11h05.30.420,VisualSearch_2526_3,,2025.2.4,2026-02-25 11h05.31.234810 +0100,
tilted.xlsx,The target is tilted.,117,30,6,3,0,1,1,1,0,0,0,0,0,0,0,0,1,3,4,117,space,10.685328300000037,None,1,0,0.6794374999999491,None,space,1.1837238000000525,None,0,1,1,0,,,,,3,6,30,6,372.5782001,,,,,,,,,,,,,,,,,,,,,372.563092,372.5782001,373.06181949999996,373.0672062,373.0889949,373.77913839999997,,,,,373.7793568999999,373.7944516,373.9944168999999,373.97837059999995,373.0889949,,,,,,,,1,0,0.6794374999999491,None,,,,,,,,853,23,M,R,2026-02-25_11h05.30.420,VisualSearch_2526_3,,2025.2.4,2026-02-25 11h05.31.234810 +0100,
tilted.xlsx,The target is tilted.,117,31,7,3,1,0,0,0,0,0,0,0,0,0,0,0,0,0,1,117,space,10.685328300000037,None,0,0,0.6102703000000247,None,space,1.1837238000000525,None,0,1,1,0,,,,,3,7,31,3,373.9944168999999,,,,,,,,,,,,,,,,,,,,,373.97919379999996,373.9944168999999,374.4782121999999,374.4835643,374.49965599999996,375.11146039999994,,,,,375.1116733,375.1273701,375.32748889999993,375.3110283,374.49965599999996,,,,,,,,0,0,0.6102703000000247,None,,,,,,,,853,23,M,R,2026-02-25_11h05.30.420,VisualSearch_2526_3,,2025.2.4,2026-02-25 11h05.31.234810 +0100,
tilted.xlsx,The target is tilted.,117,32,0,4,0,1,1,1,0,0,0,0,0,0,0,0,1,3,4,117,space,10.685328300000037,None,1,0,1.4418057000000317,None,space,1.1837238000000525,None,0,1,1,0,,,,,4,0,32,6,375.32748889999993,,,,,,,,,,,,,,,,,,,,,375.3118693,375.32748889999993,375.8109481,375.81633579999993,375.83818069999995,377.2943778,,,,,377.2945699999999,377.3098685,377.51002289999997,377.4939769,375.83818069999995,,,,,,,,1,0,1.4418057000000317,None,,,,,,,,853,23,M,R,2026-02-25_11h05.30.420,VisualSearch_2526_3,,2025.2.4,2026-02-25 11h05.31.234810 +0100,
tilted.xlsx,The target is tilted.,117,33,1,4,0,1,1,1,1,1,1,1,0,0,0,0,1,7,8,117,space,10.685328300000037,None,1,0,0.6852560000000949,None,space,1.1837238000000525,None,0,1,1,0,,,,,4,1,33,5,377.51002289999997,,,,,,,,,,,,,,,,,,,,,377.49483769999995,377.51002289999997,377.9938834999999,377.99924609999994,378.0199944,378.7106937,,,,,378.7109181999999,378.726134,378.92627129999994,378.91011259999993,378.0199944,,,,,,,,1,0,0.6852560000000949,None,,,,,,,,853,23,M,R,2026-02-25_11h05.30.420,VisualSearch_2526_3,,2025.2.4,2026-02-25 11h05.31.234810 +0100,
tilted.xlsx,The target is tilted.,117,34,2,4,1,0,0,0,0,0,0,0,0,0,0,0,0,0,1,117,space,10.685328300000037,None,0,0,0.5028165999999601,None,space,1.1837238000000525,None,0,1,1,0,,,,,4,2,34,3,378.92627129999994,,,,,,,,,,,,,,,,,,,,,378.91094939999994,378.92627129999994,379.40973899999995,379.41498579999995,379.4359152999999,379.9432135999999,,,,,379.9434074999999,379.95871139999997,380.1591476,380.14303469999993,379.4359152999999,,,,,,,,0,0,0.5028165999999601,None,,,,,,,,853,23,M,R,2026-02-25_11h05.30.420,VisualSearch_2526_3,,2025.2.4,2026-02-25 11h05.31.234810 +0100,
tilted.xlsx,The target is tilted.,117,35,3,4,1,1,1,1,1,1,1,1,1,1,1,1,0,11,12,117,space,10.685328300000037,None,1,1,1.437073000000055,None,space,1.1837238000000525,None,0,1,1,0,,,,,4,3,35,0,380.1591476,,,,,,,,,,,,,,,,,,,,,380.14383169999996,380.1591476,380.6424906,380.6478429,380.6698369999999,382.10897019999993,,,,,382.1090868,382.12476659999993,382.3250627,382.3090254,380.6698369999999,,,,,,,,1,1,1.437073000000055,None,,,,,,,,853,23,M,R,2026-02-25_11h05.30.420,VisualSearch_2526_3,,2025.2.4,2026-02-25 11h05.31.234810 +0100,
tilted.xlsx,The target is tilted.,117,36,4,4,0,0,0,0,0,0,0,0,0,0,0,0,1,1,1,117,space,10.685328300000037,None,1,0,0.62812770000005,None,space,1.1837238000000525,None,0,1,1,0,,,,,4,4,36,7,382.3250627,,,,,,,,,,,,,,,,,,,,,382.30981669999994,382.3250627,382.8088707999999,382.8141708999999,382.83553499999994,383.4759309,,,,,383.4761592,383.4912557,383.6911453,383.67511419999994,382.83553499999994,,,,,,,,1,0,0.62812770000005,None,,,,,,,,853,23,M,R,2026-02-25_11h05.30.420,VisualSearch_2526_3,,2025.2.4,2026-02-25 11h05.31.234810 +0100,
tilted.xlsx,The target is tilted.,117,37,5,4,1,1,1,1,0,0,0,0,0,0,0,0,0,3,4,117,space,10.685328300000037,None,0,0,1.1365726000000222,None,space,1.1837238000000525,None,0,1,1,0,,,,,4,5,37,2,383.6911453,,,,,,,,,,,,,,,,,,,,,383.6759533999999,383.6911453,384.1751838,384.1805181,384.2017036,385.34182599999997,,,,,385.3420742999999,385.35701069999993,385.55746149999993,385.5409396,384.2017036,,,,,,,,0,0,1.1365726000000222,None,,,,,,,,853,23,M,R,2026-02-25_11h05.30.420,VisualSearch_2526_3,,2025.2.4,2026-02-25 11h05.31.234810 +0100,
tilted.xlsx,The target is tilted.,117,38,6,4,0,1,1,1,1,1,1,1,1,1,1,1,1,11,12,117,space,10.685328300000037,None,1,0,1.020577200000048,None,space,1.1837238000000525,None,0,1,1,0,,,,,4,6,38,4,385.55746149999993,,,,,,,,,,,,,,,,,,,,,385.5417662,385.55746149999993,386.04106419999994,386.04622689999997,386.0671021999999,387.0911643999999,,,,,387.0913782,387.1065787,387.3063998,387.2905157,386.0671021999999,,,,,,,,1,0,1.020577200000048,None,,,,,,,,853,23,M,R,2026-02-25_11h05.30.420,VisualSearch_2526_3,,2025.2.4,2026-02-25 11h05.31.234810 +0100,
tilted.xlsx,The target is tilted.,117,39,7,4,1,1,1,1,1,1,1,1,0,0,0,0,0,7,8,117,space,10.685328300000037,None,0,0,1.9931583000000046,None,space,1.1837238000000525,None,0,1,1,0,,,,,4,7,39,1,387.3063998,,,,,,,,,,,,,,,,,,,,,387.29135729999996,387.3063998,387.79043319999994,387.795922,387.80859469999996,389.8070695,,,,,389.80729669999994,389.8224981999999,390.0231220999999,390.0065443,387.80859469999996,,,,,,,,0,0,1.9931583000000046,None,,,,,,,,853,23,M,R,2026-02-25_11h05.30.420,VisualSearch_2526_3,,2025.2.4,2026-02-25 11h05.31.234810 +0100,
