file_name,block_instructions,target_example,thisN,thisTrialN,thisRepN,target_presence,opacity_1,opacity_2,opacity_3,opacity_4,opacity_5,opacity_6,opacity_7,opacity_8,opacity_9,opacity_10,opacity_11,opacity_12,n_distract,n_items,target_ori,key_resp_4.keys,key_resp_4.rt,key_resp_4.duration,key_resp.keys,key_resp.corr,key_resp.rt,key_resp.duration,key_resp_5.keys,key_resp_5.rt,key_resp_5.duration,blocks.thisRepN,blocks.thisTrialN,blocks.thisN,blocks.thisIndex,practice_trials.thisRepN,practice_trials.thisTrialN,practice_trials.thisN,practice_trials.thisIndex,trials.thisRepN,trials.thisTrialN,trials.thisN,trials.thisIndex,thisRow.t,notes,Welcome.started,WelcomeText.started,key_resp_2.started,Welcome.stopped,key_resp_2.keys,key_resp_2.rt,key_resp_2.duration,InformedConsent.started,text_4.started,InformedConsent.stopped,key_resp_6.keys,key_resp_6.rt,key_resp_6.duration,key_resp_4.started,example_target.started,text_3.started,blocks.key_resp_4.keys,blocks.key_resp_4.rt,blocks.key_resp_4.duration,FixCross.started,fixCross.started,FixCross.stopped,Stimulus.started,key_resp.started,Stimulus.stopped,practice_trials.key_resp.keys,practice_trials.key_resp.corr,practice_trials.key_resp.rt,practice_trials.key_resp.duration,BlankScreen.started,text.started,text.stopped,BlankScreen.stopped,fixCross.stopped,ExperimentStart.started,text_2.started,key_resp_5.started,ExperimentStart.stopped,blocks.key_resp_5.keys,blocks.key_resp_5.rt,blocks.key_resp_5.duration,trials.key_resp.keys,trials.key_resp.corr,trials.key_resp.rt,trials.key_resp.duration,Thanks.started,ThankYou.started,key_resp_3.started,Thanks.stopped,key_resp_3.keys,key_resp_3.rt,key_resp_3.duration,participant,leeftijd,gender,links/rechtshandig,date,expName,expVersion,psychopyVersion,expStart,
,,,,,,,,,,,,,,,,,,,,,,,,,,,,,,,,,,,,,,,,,,,,,,0.031191300000045885,0.05618970000000445,0.05618970000000445,28.176134100000127,space,28.101216000000022,None,,,,,,,,,,,,,,,,,,,,,,,,,,,,,,,,,,,,,,,,,,,,,,854,21,M,L,2026-02-25_11h16.04.295,VisualSearch_2526_3,,2025.2.4,2026-02-25 11h16.04.632131 +0100,
,,,,,,,,,,,,,,,,,,,,,,,,,,,,,,,,,,,,,,,,,,,,,,,,,,,,,28.17622180000012,28.182894199999964,31.37941550000005,y,3.187779999999975,None,,,,,,,,,,,,,,,,,,,,,,,,,,,,,,,,,,,,,,,,854,21,M,L,2026-02-25_11h16.04.295,VisualSearch_2526_3,,2025.2.4,2026-02-25 11h16.04.632131 +0100,
tilted.xlsx,The target is tilted.,117,0,0,0,1,0,0,0,0,0,0,0,0,0,0,0,0,0,1,117,space,5.864579400000139,None,0,0,0.6569217999999637,None,,,,0,0,0,0,0,0,0,3,,,,,37.33220619999997,,,,,,,,,,,,,,,31.426371400000107,31.426371400000107,31.426371400000107,space,5.864579400000139,None,37.3259951,37.33220619999997,37.80989360000012,37.81569409999997,37.83732759999998,38.510525800000096,0,0,0.6569217999999637,None,38.51078110000003,38.52558760000011,38.72554490000016,38.70952460000012,,,,,,,,,,,,,,,,,,,,854,21,M,L,2026-02-25_11h16.04.295,VisualSearch_2526_3,,2025.2.4,2026-02-25 11h16.04.632131 +0100,
tilted.xlsx,The target is tilted.,117,1,1,0,0,1,1,1,1,1,1,1,1,1,1,1,1,11,12,117,space,5.864579400000139,None,0,1,5.080613900000117,None,,,,0,0,0,0,0,1,1,4,,,,,38.72554490000016,,,,,,,,,,,,,,,,,,,,,38.71029079999994,38.72554490000016,39.20977310000012,39.21530729999995,39.23696790000008,44.325269599999956,0,1,5.080613900000117,None,44.32552129999999,44.34073409999996,44.540753200000154,44.52458079999997,39.23696790000008,,,,,,,,,,,,,,,,,,,854,21,M,L,2026-02-25_11h16.04.295,VisualSearch_2526_3,,2025.2.4,2026-02-25 11h16.04.632131 +0100,
tilted.xlsx,The target is tilted.,117,2,2,0,0,1,1,1,0,0,0,0,0,0,0,0,1,3,4,117,space,5.864579400000139,None,0,1,1.6359936999999718,None,,,,0,0,0,0,0,2,2,6,,,,,44.540753200000154,,,,,,,,,,,,,,,,,,,,,44.52535560000001,44.540753200000154,45.02451240000005,45.0299050000001,45.05134420000013,46.69086949999996,0,1,1.6359936999999718,None,46.69110590000014,46.70592409999995,46.90655740000011,46.89063920000012,45.05134420000013,,,,,,,,,,,,,,,,,,,854,21,M,L,2026-02-25_11h16.04.295,VisualSearch_2526_3,,2025.2.4,2026-02-25 11h16.04.632131 +0100,
tilted.xlsx,The target is tilted.,117,3,3,0,1,1,1,1,1,1,1,1,1,1,1,1,0,11,12,117,space,5.864579400000139,None,1,1,1.7993667999999161,None,,,,0,0,0,0,0,3,3,0,,,,,46.90655740000011,,,,,,,,,,,,,,,,,,,,,46.89140610000004,46.90655740000011,47.39038900000014,47.39610640000001,47.41443430000004,49.22352990000013,1,1,1.7993667999999161,None,49.223722899999984,49.23857910000015,49.439124799999945,49.42265310000016,47.41443430000004,,,,,,,,,,,,,,,,,,,854,21,M,L,2026-02-25_11h16.04.295,VisualSearch_2526_3,,2025.2.4,2026-02-25 11h16.04.632131 +0100,
tilted.xlsx,The target is tilted.,117,4,4,0,0,1,1,1,1,1,1,1,0,0,0,0,1,7,8,117,space,5.864579400000139,None,1,0,1.8156455000000733,None,,,,0,0,0,0,0,4,4,5,,,,,49.439124799999945,,,,,,,,,,,,,,,,,,,,,49.42337999999995,49.439124799999945,49.92295349999995,49.928814099999954,49.95082890000003,51.77275159999999,1,0,1.8156455000000733,None,51.77298310000015,51.78783160000012,51.98823160000006,51.97204050000005,49.95082890000003,,,,,,,,,,,,,,,,,,,854,21,M,L,2026-02-25_11h16.04.295,VisualSearch_2526_3,,2025.2.4,2026-02-25 11h16.04.632131 +0100,
tilted.xlsx,The target is tilted.,117,5,5,0,1,1,1,1,0,0,0,0,0,0,0,0,0,3,4,117,space,5.864579400000139,None,1,1,0.7143484999999146,None,,,,0,0,0,0,0,5,5,2,,,,,51.98823160000006,,,,,,,,,,,,,,,,,,,,,51.97292770000013,51.98823160000006,52.47178030000009,52.477276300000085,52.498931900000116,53.22246259999997,1,1,0.7143484999999146,None,53.22269180000012,53.23736759999997,53.43777420000015,53.42169869999998,52.498931900000116,,,,,,,,,,,,,,,,,,,854,21,M,L,2026-02-25_11h16.04.295,VisualSearch_2526_3,,2025.2.4,2026-02-25 11h16.04.632131 +0100,
tilted.xlsx,The target is tilted.,117,6,6,0,0,0,0,0,0,0,0,0,0,0,0,0,1,1,1,117,space,5.864579400000139,None,0,1,0.7143378999999186,None,,,,0,0,0,0,0,6,6,7,,,,,53.43777420000015,,,,,,,,,,,,,,,,,,,,,53.422478700000056,53.43777420000015,53.921515,53.92698510000014,53.94908310000005,54.671951100000115,0,1,0.7143378999999186,None,54.67219380000006,54.68662020000011,54.8872222,54.871342700000014,53.94908310000005,,,,,,,,,,,,,,,,,,,854,21,M,L,2026-02-25_11h16.04.295,VisualSearch_2526_3,,2025.2.4,2026-02-25 11h16.04.632131 +0100,
tilted.xlsx,The target is tilted.,117,7,7,0,1,1,1,1,1,1,1,1,0,0,0,0,0,7,8,117,space,5.864579400000139,None,1,1,1.3826786000001903,None,,,,0,0,0,0,0,7,7,1,,,,,54.8872222,,,,,,,,,,,,,,,,,,,,,54.872078800000054,54.8872222,55.37117860000012,55.376984900000025,55.39967620000016,56.78782390000015,1,1,1.3826786000001903,None,56.78805680000005,56.8028455000001,57.004502900000034,56.98710219999998,55.39967620000016,,,,,,,,,,,,,,,,,,,854,21,M,L,2026-02-25_11h16.04.295,VisualSearch_2526_3,,2025.2.4,2026-02-25 11h16.04.632131 +0100,
tilted.xlsx,The target is tilted.,117,0,0,0,0,1,1,1,0,0,0,0,0,0,0,0,1,3,4,117,space,5.864579400000139,None,0,1,1.5564288999999008,None,space,1.5517514000000574,None,0,0,0,0,,,,,0,0,0,6,58.591621900000064,,,,,,,,,,,,,,,,,,,,,58.587541800000054,58.591621900000064,59.08597770000006,59.09155959999998,59.11381630000005,60.68613849999997,,,,,60.686370300000135,60.70131379999998,60.90194970000016,60.88574510000012,,56.99628480000001,57.004502900000034,57.004502900000034,58.570212699999956,space,1.5517514000000574,None,0,1,1.5564288999999008,None,,,,,,,,854,21,M,L,2026-02-25_11h16.04.295,VisualSearch_2526_3,,2025.2.4,2026-02-25 11h16.04.632131 +0100,
tilted.xlsx,The target is tilted.,117,1,1,0,1,0,0,0,0,0,0,0,0,0,0,0,0,0,1,117,space,5.864579400000139,None,1,1,0.6837179999999989,None,space,1.5517514000000574,None,0,0,0,0,,,,,0,1,1,3,60.90194970000016,,,,,,,,,,,,,,,,,,,,,60.88662650000015,60.90194970000016,61.385877100000016,61.39161460000014,61.413589,62.102730199999996,,,,,62.10299299999997,62.11752219999994,62.31810480000013,62.30221370000004,61.413589,,,,,,,,1,1,0.6837179999999989,None,,,,,,,,854,21,M,L,2026-02-25_11h16.04.295,VisualSearch_2526_3,,2025.2.4,2026-02-25 11h16.04.632131 +0100,
tilted.xlsx,The target is tilted.,117,2,2,0,0,0,0,0,0,0,0,0,0,0,0,0,1,1,1,117,space,5.864579400000139,None,0,1,0.4977558999999019,None,space,1.5517514000000574,None,0,0,0,0,,,,,0,2,2,7,62.31810480000013,,,,,,,,,,,,,,,,,,,,,62.303108300000076,62.31810480000013,62.802068899999995,62.80776220000007,62.82964149999998,63.33561630000008,,,,,63.33581960000015,63.35067580000009,63.5511484000001,63.53475400000002,62.82964149999998,,,,,,,,0,1,0.4977558999999019,None,,,,,,,,854,21,M,L,2026-02-25_11h16.04.295,VisualSearch_2526_3,,2025.2.4,2026-02-25 11h16.04.632131 +0100,
tilted.xlsx,The target is tilted.,117,3,3,0,0,1,1,1,1,1,1,1,0,0,0,0,1,7,8,117,space,5.864579400000139,None,1,0,0.734165399999938,None,space,1.5517514000000574,None,0,0,0,0,,,,,0,3,3,5,63.5511484000001,,,,,,,,,,,,,,,,,,,,,63.535613900000044,63.5511484000001,64.03517839999995,64.04015890000005,64.05075490000013,64.80064900000002,,,,,64.80077140000003,64.81707900000015,65.0172235,65.0009215,64.05075490000013,,,,,,,,1,0,0.734165399999938,None,,,,,,,,854,21,M,L,2026-02-25_11h16.04.295,VisualSearch_2526_3,,2025.2.4,2026-02-25 11h16.04.632131 +0100,
tilted.xlsx,The target is tilted.,117,4,4,0,1,1,1,1,0,0,0,0,0,0,0,0,0,3,4,117,space,5.864579400000139,None,1,1,0.8257158999999774,None,space,1.5517514000000574,None,0,0,0,0,,,,,0,4,4,2,65.0172235,,,,,,,,,,,,,,,,,,,,,65.00176190000002,65.0172235,65.50111749999996,65.50675479999995,65.52856010000005,66.36678389999997,,,,,66.36686310000005,66.38290890000007,,66.56715959999997,65.52856010000005,,,,,,,,1,1,0.8257158999999774,None,,,,,,,,854,21,M,L,2026-02-25_11h16.04.295,VisualSearch_2526_3,,2025.2.4,2026-02-25 11h16.04.632131 +0100,
tilted.xlsx,The target is tilted.,117,5,5,0,1,1,1,1,1,1,1,1,0,0,0,0,0,7,8,117,space,5.864579400000139,None,1,1,0.906138300000066,None,space,1.5517514000000574,None,0,0,0,0,,,,,0,5,5,1,66.58351170000014,,,,,,,,,,,,,,,,,,,,,66.56803839999998,66.58351170000014,67.06699260000005,67.07246600000008,67.09423040000001,68.01705300000003,,,,,68.01728240000011,68.0324700000001,68.23295359999997,68.21653409999999,67.09423040000001,,,,,,,,1,1,0.906138300000066,None,,,,,,,,854,21,M,L,2026-02-25_11h16.04.295,VisualSearch_2526_3,,2025.2.4,2026-02-25 11h16.04.632131 +0100,
tilted.xlsx,The target is tilted.,117,6,6,0,1,1,1,1,1,1,1,1,1,1,1,1,0,11,12,117,space,5.864579400000139,None,1,1,1.182308599999942,None,space,1.5517514000000574,None,0,0,0,0,,,,,0,6,6,0,68.23295359999997,,,,,,,,,,,,,,,,,,,,,68.21736920000012,68.23295359999997,68.71625440000003,68.72183900000005,68.74462740000013,69.93383029999995,,,,,69.93405900000016,69.94859240000005,70.14905810000005,70.13300660000004,68.74462740000013,,,,,,,,1,1,1.182308599999942,None,,,,,,,,854,21,M,L,2026-02-25_11h16.04.295,VisualSearch_2526_3,,2025.2.4,2026-02-25 11h16.04.632131 +0100,
tilted.xlsx,The target is tilted.,117,7,7,0,0,1,1,1,1,1,1,1,1,1,1,1,1,11,12,117,space,5.864579400000139,None,0,1,1.2905878999999914,None,space,1.5517514000000574,None,0,0,0,0,,,,,0,7,7,4,70.14905810000005,,,,,,,,,,,,,,,,,,,,,70.13388420000001,70.14905810000005,70.63298060000011,70.6385001000001,70.65911470000015,71.96499229999995,,,,,71.96511899999996,71.98102360000007,72.18166880000012,72.16523540000003,70.65911470000015,,,,,,,,0,1,1.2905878999999914,None,,,,,,,,854,21,M,L,2026-02-25_11h16.04.295,VisualSearch_2526_3,,2025.2.4,2026-02-25 11h16.04.632131 +0100,
tilted.xlsx,The target is tilted.,117,8,0,1,1,1,1,1,0,0,0,0,0,0,0,0,0,3,4,117,space,5.864579400000139,None,1,1,0.8993281000000479,None,space,1.5517514000000574,None,0,0,0,0,,,,,1,0,8,2,72.18166880000012,,,,,,,,,,,,,,,,,,,,,72.16605709999999,72.18166880000012,72.66524330000016,72.6708314,72.69237780000003,73.59884890000012,,,,,73.59907710000016,73.61379030000012,73.81447879999996,73.79841050000005,,,,,,,,,1,1,0.8993281000000479,None,,,,,,,,854,21,M,L,2026-02-25_11h16.04.295,VisualSearch_2526_3,,2025.2.4,2026-02-25 11h16.04.632131 +0100,
tilted.xlsx,The target is tilted.,117,9,1,1,0,1,1,1,0,0,0,0,0,0,0,0,1,3,4,117,space,5.864579400000139,None,0,1,0.8490504000001238,None,space,1.5517514000000574,None,0,0,0,0,,,,,1,1,9,6,73.81447879999996,,,,,,,,,,,,,,,,,,,,,73.79924010000013,73.81447879999996,74.29829310000014,74.30377369999997,74.32543460000011,75.18179850000001,,,,,75.18206929999997,75.19697889999998,75.39724219999994,75.38108120000015,74.32543460000011,,,,,,,,0,1,0.8490504000001238,None,,,,,,,,854,21,M,L,2026-02-25_11h16.04.295,VisualSearch_2526_3,,2025.2.4,2026-02-25 11h16.04.632131 +0100,
tilted.xlsx,The target is tilted.,117,10,2,1,0,1,1,1,1,1,1,1,1,1,1,1,1,11,12,117,space,5.864579400000139,None,0,1,2.010981099999981,None,space,1.5517514000000574,None,0,0,0,0,,,,,1,2,10,4,75.39724219999994,,,,,,,,,,,,,,,,,,,,,75.38194850000014,75.39724219999994,75.88107809999997,75.88676699999996,75.90894780000008,77.93152770000006,,,,,77.93176440000002,77.94595920000006,78.14606100000015,78.13031410000008,75.90894780000008,,,,,,,,0,1,2.010981099999981,None,,,,,,,,854,21,M,L,2026-02-25_11h16.04.295,VisualSearch_2526_3,,2025.2.4,2026-02-25 11h16.04.632131 +0100,
tilted.xlsx,The target is tilted.,117,11,3,1,1,0,0,0,0,0,0,0,0,0,0,0,0,0,1,117,space,5.864579400000139,None,1,1,0.6361779999999726,None,space,1.5517514000000574,None,0,0,0,0,,,,,1,3,11,3,78.14606100000015,,,,,,,,,,,,,,,,,,,,,78.13117880000004,78.14606100000015,78.63020729999994,78.63567860000012,78.65807480000012,79.29671150000013,,,,,79.29691720000005,79.31213170000001,79.51266290000012,79.4962822,78.65807480000012,,,,,,,,1,1,0.6361779999999726,None,,,,,,,,854,21,M,L,2026-02-25_11h16.04.295,VisualSearch_2526_3,,2025.2.4,2026-02-25 11h16.04.632131 +0100,
tilted.xlsx,The target is tilted.,117,12,4,1,0,0,0,0,0,0,0,0,0,0,0,0,1,1,1,117,space,5.864579400000139,None,0,1,0.5880319000000327,None,space,1.5517514000000574,None,0,0,0,0,,,,,1,4,12,7,79.51266290000012,,,,,,,,,,,,,,,,,,,,,79.49709299999995,79.51266290000012,79.99614840000004,80.00169619999997,80.02355209999996,80.6134247,,,,,80.6136755,80.62845360000006,80.82889670000009,80.81249900000012,80.02355209999996,,,,,,,,0,1,0.5880319000000327,None,,,,,,,,854,21,M,L,2026-02-25_11h16.04.295,VisualSearch_2526_3,,2025.2.4,2026-02-25 11h16.04.632131 +0100,
tilted.xlsx,The target is tilted.,117,13,5,1,1,1,1,1,1,1,1,1,0,0,0,0,0,7,8,117,space,5.864579400000139,None,1,1,1.1998112000001129,None,space,1.5517514000000574,None,0,0,0,0,,,,,1,5,13,1,80.82889670000009,,,,,,,,,,,,,,,,,,,,,80.81334530000004,80.82889670000009,81.31264890000011,81.31823810000014,81.33892719999994,82.54598490000012,,,,,82.54618810000011,82.56085359999997,82.76154689999998,82.74551220000012,81.33892719999994,,,,,,,,1,1,1.1998112000001129,None,,,,,,,,854,21,M,L,2026-02-25_11h16.04.295,VisualSearch_2526_3,,2025.2.4,2026-02-25 11h16.04.632131 +0100,
tilted.xlsx,The target is tilted.,117,14,6,1,1,1,1,1,1,1,1,1,1,1,1,1,0,11,12,117,space,5.864579400000139,None,0,0,2.2671832999999424,None,space,1.5517514000000574,None,0,0,0,0,,,,,1,6,14,0,82.76154689999998,,,,,,,,,,,,,,,,,,,,,82.74631390000013,82.76154689999998,83.24532560000011,83.25069430000008,83.26865410000005,85.54525239999998,,,,,85.54549769999994,85.56021250000003,85.76058510000007,85.74447690000011,83.26865410000005,,,,,,,,0,0,2.2671832999999424,None,,,,,,,,854,21,M,L,2026-02-25_11h16.04.295,VisualSearch_2526_3,,2025.2.4,2026-02-25 11h16.04.632131 +0100,
tilted.xlsx,The target is tilted.,117,15,7,1,0,1,1,1,1,1,1,1,0,0,0,0,1,7,8,117,space,5.864579400000139,None,0,1,1.419428299999936,None,space,1.5517514000000574,None,0,0,0,0,,,,,1,7,15,5,85.76058510000007,,,,,,,,,,,,,,,,,,,,,85.74531840000009,85.76058510000007,86.24407480000013,86.24958700000002,86.27135040000007,87.6941584000001,,,,,87.69437919999996,87.7094340000001,87.90991129999998,87.89387970000007,86.27135040000007,,,,,,,,0,1,1.419428299999936,None,,,,,,,,854,21,M,L,2026-02-25_11h16.04.295,VisualSearch_2526_3,,2025.2.4,2026-02-25 11h16.04.632131 +0100,
tilted.xlsx,The target is tilted.,117,16,0,2,1,1,1,1,1,1,1,1,0,0,0,0,0,7,8,117,space,5.864579400000139,None,0,0,1.5052246999998715,None,space,1.5517514000000574,None,0,0,0,0,,,,,2,0,16,1,87.90991129999998,,,,,,,,,,,,,,,,,,,,,87.89468140000008,87.90991129999998,88.39367800000014,88.39910810000015,88.41662130000009,89.92657380000014,,,,,89.92678790000014,89.94200430000001,90.14248930000008,90.12609380000004,88.41662130000009,,,,,,,,0,0,1.5052246999998715,None,,,,,,,,854,21,M,L,2026-02-25_11h16.04.295,VisualSearch_2526_3,,2025.2.4,2026-02-25 11h16.04.632131 +0100,
tilted.xlsx,The target is tilted.,117,17,1,2,0,0,0,0,0,0,0,0,0,0,0,0,1,1,1,117,space,5.864579400000139,None,0,1,0.5311821000000236,None,space,1.5517514000000574,None,0,0,0,0,,,,,2,1,17,7,90.14248930000008,,,,,,,,,,,,,,,,,,,,,90.12695630000007,90.14248930000008,90.62617720000003,90.63166780000006,90.6530514000001,91.19340050000005,,,,,91.19366869999999,91.20831769999995,91.40879240000004,91.39280750000012,90.6530514000001,,,,,,,,0,1,0.5311821000000236,None,,,,,,,,854,21,M,L,2026-02-25_11h16.04.295,VisualSearch_2526_3,,2025.2.4,2026-02-25 11h16.04.632131 +0100,
tilted.xlsx,The target is tilted.,117,18,2,2,0,1,1,1,0,0,0,0,0,0,0,0,1,3,4,117,space,5.864579400000139,None,0,1,0.5863137999999708,None,space,1.5517514000000574,None,0,0,0,0,,,,,2,2,18,6,91.40879240000004,,,,,,,,,,,,,,,,,,,,,91.39363479999997,91.40879240000004,91.89258949999999,91.89809439999999,91.91999039999996,92.50978000000009,,,,,92.51002519999997,92.5247366000001,92.72507180000002,92.70899110000005,91.91999039999996,,,,,,,,0,1,0.5863137999999708,None,,,,,,,,854,21,M,L,2026-02-25_11h16.04.295,VisualSearch_2526_3,,2025.2.4,2026-02-25 11h16.04.632131 +0100,
tilted.xlsx,The target is tilted.,117,19,3,2,0,1,1,1,1,1,1,1,0,0,0,0,1,7,8,117,space,5.864579400000139,None,0,1,1.6086972999999034,None,space,1.5517514000000574,None,0,0,0,0,,,,,2,3,19,5,92.72507180000002,,,,,,,,,,,,,,,,,,,,,92.70979800000009,92.72507180000002,93.20875490000003,93.21401070000002,93.23484789999998,94.85809140000015,,,,,94.85830940000005,94.87368650000008,95.07421420000014,95.05812230000015,93.23484789999998,,,,,,,,0,1,1.6086972999999034,None,,,,,,,,854,21,M,L,2026-02-25_11h16.04.295,VisualSearch_2526_3,,2025.2.4,2026-02-25 11h16.04.632131 +0100,
tilted.xlsx,The target is tilted.,117,20,4,2,1,0,0,0,0,0,0,0,0,0,0,0,0,0,1,117,space,5.864579400000139,None,0,0,0.49334680000015396,None,space,1.5517514000000574,None,0,0,0,0,,,,,2,4,20,3,95.07421420000014,,,,,,,,,,,,,,,,,,,,,95.05893760000004,95.07421420000014,95.55806729999995,95.56355989999997,95.58498850000001,96.0905279000001,,,,,96.09065830000009,96.1064745000001,,96.29082560000006,95.58498850000001,,,,,,,,0,0,0.49334680000015396,None,,,,,,,,854,21,M,L,2026-02-25_11h16.04.295,VisualSearch_2526_3,,2025.2.4,2026-02-25 11h16.04.632131 +0100,
tilted.xlsx,The target is tilted.,117,21,5,2,1,1,1,1,1,1,1,1,1,1,1,1,0,11,12,117,space,5.864579400000139,None,0,0,2.2164571000000706,None,space,1.5517514000000574,None,0,0,0,0,,,,,2,5,21,0,96.30714230000012,,,,,,,,,,,,,,,,,,,,,96.2917715000001,96.30714230000012,96.79102190000003,96.79679380000016,96.81862290000004,99.04082390000008,,,,,99.04109110000013,99.05573530000015,99.25603799999999,99.23992610000005,96.81862290000004,,,,,,,,0,0,2.2164571000000706,None,,,,,,,,854,21,M,L,2026-02-25_11h16.04.295,VisualSearch_2526_3,,2025.2.4,2026-02-25 11h16.04.632131 +0100,
tilted.xlsx,The target is tilted.,117,22,6,2,0,1,1,1,1,1,1,1,1,1,1,1,1,11,12,117,space,5.864579400000139,None,0,1,1.958757999999989,None,space,1.5517514000000574,None,0,0,0,0,,,,,2,6,22,4,99.25603799999999,,,,,,,,,,,,,,,,,,,,,99.24077290000014,99.25603799999999,99.74002250000012,99.74553530000003,99.76725880000004,101.73862880000001,,,,,101.73876100000007,101.75513640000008,,101.93893120000007,99.76725880000004,,,,,,,,0,1,1.958757999999989,None,,,,,,,,854,21,M,L,2026-02-25_11h16.04.295,VisualSearch_2526_3,,2025.2.4,2026-02-25 11h16.04.632131 +0100,
tilted.xlsx,The target is tilted.,117,23,7,2,1,1,1,1,0,0,0,0,0,0,0,0,0,3,4,117,space,5.864579400000139,None,1,1,1.0073844999999437,None,space,1.5517514000000574,None,0,0,0,0,,,,,2,7,23,2,101.95532279999998,,,,,,,,,,,,,,,,,,,,,101.93978590000006,101.95532279999998,102.43920430000003,102.4447583000001,102.46601980000014,103.48886289999996,,,,,103.4890914,103.50431509999999,103.7047685,103.68879749999996,102.46601980000014,,,,,,,,1,1,1.0073844999999437,None,,,,,,,,854,21,M,L,2026-02-25_11h16.04.295,VisualSearch_2526_3,,2025.2.4,2026-02-25 11h16.04.632131 +0100,
tilted.xlsx,The target is tilted.,117,24,0,3,1,1,1,1,0,0,0,0,0,0,0,0,0,3,4,117,space,5.864579400000139,None,1,1,0.6583321999999043,None,space,1.5517514000000574,None,0,0,0,0,,,,,3,0,24,2,103.7047685,,,,,,,,,,,,,,,,,,,,,103.68965430000003,103.7047685,104.18856640000013,104.19407610000007,104.21589730000005,104.88848580000013,,,,,104.88871259999996,104.9037456000001,105.10431050000011,105.08830179999995,104.21589730000005,,,,,,,,1,1,0.6583321999999043,None,,,,,,,,854,21,M,L,2026-02-25_11h16.04.295,VisualSearch_2526_3,,2025.2.4,2026-02-25 11h16.04.632131 +0100,
tilted.xlsx,The target is tilted.,117,25,1,3,0,1,1,1,1,1,1,1,1,1,1,1,1,11,12,117,space,5.864579400000139,None,0,1,2.044708200000059,None,space,1.5517514000000574,None,0,0,0,0,,,,,3,1,25,4,105.10431050000011,,,,,,,,,,,,,,,,,,,,,105.08908659999997,105.10431050000011,105.58794520000015,105.5934936000001,105.61515810000014,107.67137240000011,,,,,107.67161869999995,107.68604249999999,107.88661100000013,107.87045260000014,105.61515810000014,,,,,,,,0,1,2.044708200000059,None,,,,,,,,854,21,M,L,2026-02-25_11h16.04.295,VisualSearch_2526_3,,2025.2.4,2026-02-25 11h16.04.632131 +0100,
tilted.xlsx,The target is tilted.,117,26,2,3,1,1,1,1,1,1,1,1,0,0,0,0,0,7,8,117,space,5.864579400000139,None,1,1,0.6856265999999778,None,space,1.5517514000000574,None,0,0,0,0,,,,,3,2,26,1,107.88661100000013,,,,,,,,,,,,,,,,,,,,,107.87131999999997,107.88661100000013,108.37062319999995,108.37612549999994,108.39814440000009,109.087223,,,,,109.08744990000014,109.10225209999999,109.30273360000001,109.28602410000008,108.39814440000009,,,,,,,,1,1,0.6856265999999778,None,,,,,,,,854,21,M,L,2026-02-25_11h16.04.295,VisualSearch_2526_3,,2025.2.4,2026-02-25 11h16.04.632131 +0100,
tilted.xlsx,The target is tilted.,117,27,3,3,0,0,0,0,0,0,0,0,0,0,0,0,1,1,1,117,space,5.864579400000139,None,0,1,0.6695208999999522,None,space,1.5517514000000574,None,0,0,0,0,,,,,3,3,27,7,109.30273360000001,,,,,,,,,,,,,,,,,,,,,109.28656380000007,109.30273360000001,109.78633979999995,109.79250560000014,109.81381600000009,110.48673810000014,,,,,110.48696910000012,110.50204570000005,110.70234849999997,110.68602869999995,109.81381600000009,,,,,,,,0,1,0.6695208999999522,None,,,,,,,,854,21,M,L,2026-02-25_11h16.04.295,VisualSearch_2526_3,,2025.2.4,2026-02-25 11h16.04.632131 +0100,
tilted.xlsx,The target is tilted.,117,28,4,3,1,0,0,0,0,0,0,0,0,0,0,0,0,0,1,117,space,5.864579400000139,None,0,0,0.45445470000004207,None,space,1.5517514000000574,None,0,0,0,0,,,,,3,4,28,3,110.70234849999997,,,,,,,,,,,,,,,,,,,,,110.68686380000008,110.70234849999997,111.18615390000014,111.19168250000007,111.21250710000004,111.67016209999997,,,,,111.67038950000006,111.68500710000012,111.88538949999997,111.86900280000009,111.21250710000004,,,,,,,,0,0,0.45445470000004207,None,,,,,,,,854,21,M,L,2026-02-25_11h16.04.295,VisualSearch_2526_3,,2025.2.4,2026-02-25 11h16.04.632131 +0100,
tilted.xlsx,The target is tilted.,117,29,5,3,0,1,1,1,0,0,0,0,0,0,0,0,1,3,4,117,space,5.864579400000139,None,0,1,0.8958900000000085,None,space,1.5517514000000574,None,0,0,0,0,,,,,3,5,29,6,111.88538949999997,,,,,,,,,,,,,,,,,,,,,111.86994619999996,111.88538949999997,112.36855949999995,112.37135200000012,112.38499630000001,113.28620709999996,,,,,113.28645580000011,113.30118510000011,113.50115099999994,113.48511080000003,112.38499630000001,,,,,,,,0,1,0.8958900000000085,None,,,,,,,,854,21,M,L,2026-02-25_11h16.04.295,VisualSearch_2526_3,,2025.2.4,2026-02-25 11h16.04.632131 +0100,
tilted.xlsx,The target is tilted.,117,30,6,3,1,1,1,1,1,1,1,1,1,1,1,1,0,11,12,117,space,5.864579400000139,None,1,1,1.4363424999999097,None,space,1.5517514000000574,None,0,0,0,0,,,,,3,6,30,0,113.50115099999994,,,,,,,,,,,,,,,,,,,,,113.48596550000002,113.50115099999994,113.9853849000001,113.99076639999998,114.01242909999996,115.45229110000014,,,,,115.45253449999996,115.46710759999996,115.66742880000015,115.65108250000003,114.01242909999996,,,,,,,,1,1,1.4363424999999097,None,,,,,,,,854,21,M,L,2026-02-25_11h16.04.295,VisualSearch_2526_3,,2025.2.4,2026-02-25 11h16.04.632131 +0100,
tilted.xlsx,The target is tilted.,117,31,7,3,0,1,1,1,1,1,1,1,0,0,0,0,1,7,8,117,space,5.864579400000139,None,0,1,1.609553200000164,None,space,1.5517514000000574,None,0,0,0,0,,,,,3,7,31,5,115.66742880000015,,,,,,,,,,,,,,,,,,,,,115.65189450000003,115.66742880000015,116.1513172,116.15678890000004,116.17853250000007,117.8000591,,,,,117.80018360000008,117.81603599999994,,118.0003686,116.17853250000007,,,,,,,,0,1,1.609553200000164,None,,,,,,,,854,21,M,L,2026-02-25_11h16.04.295,VisualSearch_2526_3,,2025.2.4,2026-02-25 11h16.04.632131 +0100,
tilted.xlsx,The target is tilted.,117,32,0,4,0,1,1,1,1,1,1,1,1,1,1,1,1,11,12,117,space,5.864579400000139,None,0,1,1.5403642999999647,None,space,1.5517514000000574,None,0,0,0,0,,,,,4,0,32,4,118.01666460000001,,,,,,,,,,,,,,,,,,,,,118.00130209999998,118.01666460000001,118.50032260000012,118.50587300000007,118.52368909999996,120.06692539999995,,,,,120.06717449999996,120.08225130000005,120.28265239999996,120.26626409999994,,,,,,,,,0,1,1.5403642999999647,None,,,,,,,,854,21,M,L,2026-02-25_11h16.04.295,VisualSearch_2526_3,,2025.2.4,2026-02-25 11h16.04.632131 +0100,
tilted.xlsx,The target is tilted.,117,33,1,4,1,1,1,1,1,1,1,1,0,0,0,0,0,7,8,117,space,5.864579400000139,None,0,0,1.1619201000000885,None,space,1.5517514000000574,None,0,0,0,0,,,,,4,1,33,1,120.28265239999996,,,,,,,,,,,,,,,,,,,,,120.26711560000012,120.28265239999996,120.76609989999997,120.77155340000013,120.79248480000001,121.9661708000001,,,,,121.9664021000001,121.98161840000012,122.1821073000001,122.16588309999997,120.79248480000001,,,,,,,,0,0,1.1619201000000885,None,,,,,,,,854,21,M,L,2026-02-25_11h16.04.295,VisualSearch_2526_3,,2025.2.4,2026-02-25 11h16.04.632131 +0100,
tilted.xlsx,The target is tilted.,117,34,2,4,1,1,1,1,0,0,0,0,0,0,0,0,0,3,4,117,space,5.864579400000139,None,0,0,0.8316305999999258,None,space,1.5517514000000574,None,0,0,0,0,,,,,4,2,34,2,122.1821073000001,,,,,,,,,,,,,,,,,,,,,122.1667387,122.1821073000001,122.6654833,122.67085980000002,122.69234970000002,123.53261470000007,,,,,123.53284430000008,123.54788950000011,123.74816050000004,123.73161389999996,122.69234970000002,,,,,,,,0,0,0.8316305999999258,None,,,,,,,,854,21,M,L,2026-02-25_11h16.04.295,VisualSearch_2526_3,,2025.2.4,2026-02-25 11h16.04.632131 +0100,
tilted.xlsx,The target is tilted.,117,35,3,4,0,1,1,1,1,1,1,1,0,0,0,0,1,7,8,117,space,5.864579400000139,None,0,1,2.1462602999999945,None,space,1.5517514000000574,None,0,0,0,0,,,,,4,3,35,5,123.74816050000004,,,,,,,,,,,,,,,,,,,,,123.73247040000001,123.74816050000004,124.23202319999996,124.23808080000003,124.25539640000011,126.41411340000013,,,,,126.41426679999995,126.43004930000006,126.63062979999995,126.61451680000005,124.25539640000011,,,,,,,,0,1,2.1462602999999945,None,,,,,,,,854,21,M,L,2026-02-25_11h16.04.295,VisualSearch_2526_3,,2025.2.4,2026-02-25 11h16.04.632131 +0100,
tilted.xlsx,The target is tilted.,117,36,4,4,1,1,1,1,1,1,1,1,1,1,1,1,0,11,12,117,space,5.864579400000139,None,0,0,1.4838638999999603,None,space,1.5517514000000574,None,0,0,0,0,,,,,4,4,36,0,126.63062979999995,,,,,,,,,,,,,,,,,,,,,126.61532850000003,126.63062979999995,127.11434410000015,127.12002410000014,127.14124820000006,128.63121190000015,,,,,128.63145630000008,128.64584519999994,128.84614970000007,128.8304802,127.14124820000006,,,,,,,,0,0,1.4838638999999603,None,,,,,,,,854,21,M,L,2026-02-25_11h16.04.295,VisualSearch_2526_3,,2025.2.4,2026-02-25 11h16.04.632131 +0100,
tilted.xlsx,The target is tilted.,117,37,5,4,0,1,1,1,0,0,0,0,0,0,0,0,1,3,4,117,space,5.864579400000139,None,0,1,0.6815816000000723,None,space,1.5517514000000574,None,0,0,0,0,,,,,4,5,37,6,128.84614970000007,,,,,,,,,,,,,,,,,,,,,128.83129510000003,128.84614970000007,129.33030840000015,129.3359329,129.35270760000003,130.0468426,,,,,130.04707370000006,130.06233480000014,130.26276080000002,130.2463424,129.35270760000003,,,,,,,,0,1,0.6815816000000723,None,,,,,,,,854,21,M,L,2026-02-25_11h16.04.295,VisualSearch_2526_3,,2025.2.4,2026-02-25 11h16.04.632131 +0100,
tilted.xlsx,The target is tilted.,117,38,6,4,1,0,0,0,0,0,0,0,0,0,0,0,0,0,1,117,space,5.864579400000139,None,1,1,0.6709788000000572,None,space,1.5517514000000574,None,0,0,0,0,,,,,4,6,38,3,130.26276080000002,,,,,,,,,,,,,,,,,,,,,130.24718359999997,130.26276080000002,130.74626490000014,130.75176190000002,130.7731000000001,131.44688799999994,,,,,131.4471433000001,131.46188069999994,131.66232979999995,131.6462057000001,130.7731000000001,,,,,,,,1,1,0.6709788000000572,None,,,,,,,,854,21,M,L,2026-02-25_11h16.04.295,VisualSearch_2526_3,,2025.2.4,2026-02-25 11h16.04.632131 +0100,
tilted.xlsx,The target is tilted.,117,39,7,4,0,0,0,0,0,0,0,0,0,0,0,0,1,1,1,117,space,5.864579400000139,None,0,1,0.6228204000001369,None,space,1.5517514000000574,None,0,0,0,0,,,,,4,7,39,7,131.66232979999995,,,,,,,,,,,,,,,,,,,,,131.64705030000005,131.66232979999995,132.14576260000013,132.15116869999997,132.17343500000015,132.81263160000003,,,,,132.81286279999995,132.82801510000013,133.02851850000002,133.01251290000005,132.17343500000015,,,,,,,,0,1,0.6228204000001369,None,,,,,,,,854,21,M,L,2026-02-25_11h16.04.295,VisualSearch_2526_3,,2025.2.4,2026-02-25 11h16.04.632131 +0100,
tilted.xlsx,The target is tilted.,117,40,0,5,0,0,0,0,0,0,0,0,0,0,0,0,1,1,1,117,space,5.864579400000139,None,0,1,0.5405945999998494,None,space,1.5517514000000574,None,0,0,0,0,,,,,5,0,40,7,133.02851850000002,,,,,,,,,,,,,,,,,,,,,133.01332960000013,133.02851850000002,133.51247750000016,133.5179551000001,133.53503090000004,134.07897930000013,,,,,134.07918340000015,134.0943076000001,134.2948007,134.27847270000007,133.53503090000004,,,,,,,,0,1,0.5405945999998494,None,,,,,,,,854,21,M,L,2026-02-25_11h16.04.295,VisualSearch_2526_3,,2025.2.4,2026-02-25 11h16.04.632131 +0100,
tilted.xlsx,The target is tilted.,117,41,1,5,0,1,1,1,1,1,1,1,0,0,0,0,1,7,8,117,space,5.864579400000139,None,0,1,1.1874892999999247,None,space,1.5517514000000574,None,0,0,0,0,,,,,5,1,41,5,134.2948007,,,,,,,,,,,,,,,,,,,,,134.27933899999994,134.2948007,134.7786516000001,134.78407149999998,134.80574969999998,135.99550150000005,,,,,135.9957472000001,136.01010470000006,136.2108111,136.19476239999995,134.80574969999998,,,,,,,,0,1,1.1874892999999247,None,,,,,,,,854,21,M,L,2026-02-25_11h16.04.295,VisualSearch_2526_3,,2025.2.4,2026-02-25 11h16.04.632131 +0100,
tilted.xlsx,The target is tilted.,117,42,2,5,0,1,1,1,1,1,1,1,1,1,1,1,1,11,12,117,space,5.864579400000139,None,0,1,2.8269633999998405,None,space,1.5517514000000574,None,0,0,0,0,,,,,5,2,42,4,136.2108111,,,,,,,,,,,,,,,,,,,,,136.1955835000001,136.2108111,136.69394680000005,136.69666389999998,136.71044989999996,139.5440040000001,,,,,139.54420690000006,139.55917850000014,139.75965880000012,139.74365869999997,136.71044989999996,,,,,,,,0,1,2.8269633999998405,None,,,,,,,,854,21,M,L,2026-02-25_11h16.04.295,VisualSearch_2526_3,,2025.2.4,2026-02-25 11h16.04.632131 +0100,
tilted.xlsx,The target is tilted.,117,43,3,5,1,1,1,1,1,1,1,1,1,1,1,1,0,11,12,117,space,5.864579400000139,None,0,0,1.5695267000000968,None,space,1.5517514000000574,None,0,0,0,0,,,,,5,3,43,0,139.75965880000012,,,,,,,,,,,,,,,,,,,,,139.744457,139.75965880000012,140.2435296000001,140.2489740000001,140.27067910000005,141.84373720000008,,,,,141.84396809999998,141.85853500000007,142.05851099999995,142.04303920000007,140.27067910000005,,,,,,,,0,0,1.5695267000000968,None,,,,,,,,854,21,M,L,2026-02-25_11h16.04.295,VisualSearch_2526_3,,2025.2.4,2026-02-25 11h16.04.632131 +0100,
tilted.xlsx,The target is tilted.,117,44,4,5,1,0,0,0,0,0,0,0,0,0,0,0,0,0,1,117,space,5.864579400000139,None,1,1,0.6306716999999935,None,space,1.5517514000000574,None,0,0,0,0,,,,,5,4,44,3,142.05851099999995,,,,,,,,,,,,,,,,,,,,,142.0439212000001,142.05851099999995,142.54279180000003,142.54779810000014,142.55840549999994,143.19260340000005,,,,,143.19283259999997,143.20808209999996,143.40845319999994,143.39246819999994,142.55840549999994,,,,,,,,1,1,0.6306716999999935,None,,,,,,,,854,21,M,L,2026-02-25_11h16.04.295,VisualSearch_2526_3,,2025.2.4,2026-02-25 11h16.04.632131 +0100,
tilted.xlsx,The target is tilted.,117,45,5,5,1,1,1,1,1,1,1,1,0,0,0,0,0,7,8,117,space,5.864579400000139,None,1,1,1.1595932000000175,None,space,1.5517514000000574,None,0,0,0,0,,,,,5,5,45,1,143.40845319999994,,,,,,,,,,,,,,,,,,,,,143.39327600000001,143.40845319999994,143.89242060000015,143.89788710000016,143.9184878000001,145.09193400000004,,,,,145.0921866000001,145.10742500000015,145.3078524,145.2913969000001,143.9184878000001,,,,,,,,1,1,1.1595932000000175,None,,,,,,,,854,21,M,L,2026-02-25_11h16.04.295,VisualSearch_2526_3,,2025.2.4,2026-02-25 11h16.04.632131 +0100,
tilted.xlsx,The target is tilted.,117,46,6,5,1,1,1,1,0,0,0,0,0,0,0,0,0,3,4,117,space,5.864579400000139,None,0,0,0.892712500000016,None,space,1.5517514000000574,None,0,0,0,0,,,,,5,6,46,2,145.3078524,,,,,,,,,,,,,,,,,,,,,145.2922168,145.3078524,145.79168359999994,145.79713689999994,145.81874200000016,146.7239594,,,,,146.72408450000012,146.7404259,,146.92428199999995,145.81874200000016,,,,,,,,0,0,0.892712500000016,None,,,,,,,,854,21,M,L,2026-02-25_11h16.04.295,VisualSearch_2526_3,,2025.2.4,2026-02-25 11h16.04.632131 +0100,
tilted.xlsx,The target is tilted.,117,47,7,5,0,1,1,1,0,0,0,0,0,0,0,0,1,3,4,117,space,5.864579400000139,None,0,1,0.7299204000000827,None,space,1.5517514000000574,None,0,0,0,0,,,,,5,7,47,6,146.94029590000014,,,,,,,,,,,,,,,,,,,,,146.92513280000003,146.94029590000014,147.4244814000001,147.4300392,147.4469921,148.1902090000001,,,,,148.19033330000002,148.2063025,,148.3905304,147.4469921,,,,,,,,0,1,0.7299204000000827,None,,,,,,,,854,21,M,L,2026-02-25_11h16.04.295,VisualSearch_2526_3,,2025.2.4,2026-02-25 11h16.04.632131 +0100,
tilted.xlsx,The target is tilted.,117,48,0,6,0,1,1,1,1,1,1,1,0,0,0,0,1,7,8,117,space,5.864579400000139,None,0,1,1.2745657000000392,None,space,1.5517514000000574,None,0,0,0,0,,,,,6,0,48,5,148.40683940000008,,,,,,,,,,,,,,,,,,,,,148.39142190000007,148.40683940000008,148.89061100000004,148.89595929999996,148.91745250000008,150.20699060000015,,,,,150.20722130000013,150.2224506,150.42286630000012,150.40641879999998,148.91745250000008,,,,,,,,0,1,1.2745657000000392,None,,,,,,,,854,21,M,L,2026-02-25_11h16.04.295,VisualSearch_2526_3,,2025.2.4,2026-02-25 11h16.04.632131 +0100,
tilted.xlsx,The target is tilted.,117,49,1,6,1,1,1,1,0,0,0,0,0,0,0,0,0,3,4,117,space,5.864579400000139,None,0,0,0.7323414999998477,None,space,1.5517514000000574,None,0,0,0,0,,,,,6,1,49,2,150.42286630000012,,,,,,,,,,,,,,,,,,,,,150.4072510000001,150.42286630000012,150.90633960000014,150.91192100000012,150.93348370000012,151.67370540000002,,,,,151.67397210000013,151.68866509999998,151.8886857,151.87313340000014,150.93348370000012,,,,,,,,0,0,0.7323414999998477,None,,,,,,,,854,21,M,L,2026-02-25_11h16.04.295,VisualSearch_2526_3,,2025.2.4,2026-02-25 11h16.04.632131 +0100,
tilted.xlsx,The target is tilted.,117,50,2,6,1,0,0,0,0,0,0,0,0,0,0,0,0,0,1,117,space,5.864579400000139,None,0,0,0.5564326000001074,None,space,1.5517514000000574,None,0,0,0,0,,,,,6,2,50,3,151.8886857,,,,,,,,,,,,,,,,,,,,,151.87396910000007,151.8886857,152.37289299999998,152.378379,152.3944613000001,152.95654760000002,,,,,152.95680489999995,152.97152660000006,153.17195119999997,153.15595610000014,152.3944613000001,,,,,,,,0,0,0.5564326000001074,None,,,,,,,,854,21,M,L,2026-02-25_11h16.04.295,VisualSearch_2526_3,,2025.2.4,2026-02-25 11h16.04.632131 +0100,
tilted.xlsx,The target is tilted.,117,51,3,6,0,0,0,0,0,0,0,0,0,0,0,0,1,1,1,117,space,5.864579400000139,None,0,1,0.8321177999998781,None,space,1.5517514000000574,None,0,0,0,0,,,,,6,3,51,7,153.17195119999997,,,,,,,,,,,,,,,,,,,,,153.15674669999999,153.17195119999997,153.65574420000007,153.6615964,153.68323080000005,154.52247620000003,,,,,154.52272360000006,154.53776530000005,154.7380733,154.72195490000013,153.68323080000005,,,,,,,,0,1,0.8321177999998781,None,,,,,,,,854,21,M,L,2026-02-25_11h16.04.295,VisualSearch_2526_3,,2025.2.4,2026-02-25 11h16.04.632131 +0100,
tilted.xlsx,The target is tilted.,117,52,4,6,0,1,1,1,0,0,0,0,0,0,0,0,1,3,4,117,space,5.864579400000139,None,0,1,0.6719159000001582,None,space,1.5517514000000574,None,0,0,0,0,,,,,6,4,52,6,154.7380733,,,,,,,,,,,,,,,,,,,,,154.72281810000004,154.7380733,155.2219156000001,155.22786310000015,155.24961860000008,155.93853149999995,,,,,155.93875939999998,155.95375910000007,156.15436120000004,156.138285,155.24961860000008,,,,,,,,0,1,0.6719159000001582,None,,,,,,,,854,21,M,L,2026-02-25_11h16.04.295,VisualSearch_2526_3,,2025.2.4,2026-02-25 11h16.04.632131 +0100,
tilted.xlsx,The target is tilted.,117,53,5,6,1,1,1,1,1,1,1,1,0,0,0,0,0,7,8,117,space,5.864579400000139,None,1,1,0.937180600000147,None,space,1.5517514000000574,None,0,0,0,0,,,,,6,5,53,1,156.15436120000004,,,,,,,,,,,,,,,,,,,,,156.13919320000014,156.15436120000004,156.63770010000007,156.64322059999995,156.66399449999994,157.60470420000001,,,,,157.6049269,157.61998360000007,157.82049589999997,157.80427209999993,156.66399449999994,,,,,,,,1,1,0.937180600000147,None,,,,,,,,854,21,M,L,2026-02-25_11h16.04.295,VisualSearch_2526_3,,2025.2.4,2026-02-25 11h16.04.632131 +0100,
tilted.xlsx,The target is tilted.,117,54,6,6,0,1,1,1,1,1,1,1,1,1,1,1,1,11,12,117,space,5.864579400000139,None,0,1,1.8533681999999772,None,space,1.5517514000000574,None,0,0,0,0,,,,,6,6,54,4,157.82049589999997,,,,,,,,,,,,,,,,,,,,,157.80513970000015,157.82049589999997,158.3040863000001,158.30951019999998,158.33096220000016,160.18721060000007,,,,,160.18747400000007,160.20254820000014,160.40268250000008,160.38668189999999,158.33096220000016,,,,,,,,0,1,1.8533681999999772,None,,,,,,,,854,21,M,L,2026-02-25_11h16.04.295,VisualSearch_2526_3,,2025.2.4,2026-02-25 11h16.04.632131 +0100,
tilted.xlsx,The target is tilted.,117,55,7,6,1,1,1,1,1,1,1,1,1,1,1,1,0,11,12,117,space,5.864579400000139,None,0,0,1.659158099999786,None,space,1.5517514000000574,None,0,0,0,0,,,,,6,7,55,0,160.40268250000008,,,,,,,,,,,,,,,,,,,,,160.3877113000001,160.40268250000008,160.8864211,160.8918645000001,160.91301680000015,162.58625900000015,,,,,162.58649050000008,162.60169730000007,162.8022135000001,162.78616320000015,160.91301680000015,,,,,,,,0,0,1.659158099999786,None,,,,,,,,854,21,M,L,2026-02-25_11h16.04.295,VisualSearch_2526_3,,2025.2.4,2026-02-25 11h16.04.632131 +0100,
tilted.xlsx,The target is tilted.,117,56,0,7,1,1,1,1,1,1,1,1,0,0,0,0,0,7,8,117,space,5.864579400000139,None,1,1,1.2239134999999806,None,space,1.5517514000000574,None,0,0,0,0,,,,,7,0,56,1,162.8022135000001,,,,,,,,,,,,,,,,,,,,,162.78700279999998,162.8022135000001,163.28589880000004,163.29136670000003,163.31303470000012,164.55229430000009,,,,,164.55249490000006,164.56768110000007,164.76822110000012,164.75224730000014,163.31303470000012,,,,,,,,1,1,1.2239134999999806,None,,,,,,,,854,21,M,L,2026-02-25_11h16.04.295,VisualSearch_2526_3,,2025.2.4,2026-02-25 11h16.04.632131 +0100,
tilted.xlsx,The target is tilted.,117,57,1,7,1,0,0,0,0,0,0,0,0,0,0,0,0,0,1,117,space,5.864579400000139,None,1,1,0.4439700000000357,None,space,1.5517514000000574,None,0,0,0,0,,,,,7,1,57,3,164.76822110000012,,,,,,,,,,,,,,,,,,,,,164.7530706,164.76822110000012,165.25203490000013,165.25758489999998,165.28058729999998,165.73522909999997,,,,,165.7354785,165.75064850000012,165.95113719999995,165.93508530000008,165.28058729999998,,,,,,,,1,1,0.4439700000000357,None,,,,,,,,854,21,M,L,2026-02-25_11h16.04.295,VisualSearch_2526_3,,2025.2.4,2026-02-25 11h16.04.632131 +0100,
tilted.xlsx,The target is tilted.,117,58,2,7,0,1,1,1,1,1,1,1,0,0,0,0,1,7,8,117,space,5.864579400000139,None,0,1,1.4528177999998206,None,space,1.5517514000000574,None,0,0,0,0,,,,,7,2,58,5,165.95113719999995,,,,,,,,,,,,,,,,,,,,,165.93590110000014,165.95113719999995,166.43486840000014,166.44017150000013,166.4610173000001,167.9178339,,,,,167.9180404000001,167.9330520000001,168.13381219999997,168.11766280000006,166.4610173000001,,,,,,,,0,1,1.4528177999998206,None,,,,,,,,854,21,M,L,2026-02-25_11h16.04.295,VisualSearch_2526_3,,2025.2.4,2026-02-25 11h16.04.632131 +0100,
tilted.xlsx,The target is tilted.,117,59,3,7,1,1,1,1,0,0,0,0,0,0,0,0,0,3,4,117,space,5.864579400000139,None,0,0,0.80429990000016,None,space,1.5517514000000574,None,0,0,0,0,,,,,7,3,59,2,168.13381219999997,,,,,,,,,,,,,,,,,,,,,168.11847839999996,168.13381219999997,168.6174407000001,168.6227636000001,168.64416329999995,169.45062819999998,,,,,169.45077689999994,169.465958,169.66620110000008,169.6503894,168.64416329999995,,,,,,,,0,0,0.80429990000016,None,,,,,,,,854,21,M,L,2026-02-25_11h16.04.295,VisualSearch_2526_3,,2025.2.4,2026-02-25 11h16.04.632131 +0100,
tilted.xlsx,The target is tilted.,117,60,4,7,0,1,1,1,1,1,1,1,1,1,1,1,1,11,12,117,space,5.864579400000139,None,0,1,1.5227431999999226,None,space,1.5517514000000574,None,0,0,0,0,,,,,7,4,60,4,169.66620110000008,,,,,,,,,,,,,,,,,,,,,169.65126499999997,169.66620110000008,170.150355,170.1558116000001,170.17724750000002,171.7167339,,,,,171.7169533000001,171.73212979999994,171.93243870000015,171.91616750000003,170.17724750000002,,,,,,,,0,1,1.5227431999999226,None,,,,,,,,854,21,M,L,2026-02-25_11h16.04.295,VisualSearch_2526_3,,2025.2.4,2026-02-25 11h16.04.632131 +0100,
tilted.xlsx,The target is tilted.,117,61,5,7,1,1,1,1,1,1,1,1,1,1,1,1,0,11,12,117,space,5.864579400000139,None,0,0,1.9915121999999883,None,space,1.5517514000000574,None,0,0,0,0,,,,,7,5,61,0,171.93243870000015,,,,,,,,,,,,,,,,,,,,,171.9169905000001,171.93243870000015,172.4161884,172.42173189999994,172.4432644000001,174.4497040000001,,,,,174.44994139999994,174.46441270000014,174.66493400000013,174.64872820000005,172.4432644000001,,,,,,,,0,0,1.9915121999999883,None,,,,,,,,854,21,M,L,2026-02-25_11h16.04.295,VisualSearch_2526_3,,2025.2.4,2026-02-25 11h16.04.632131 +0100,
tilted.xlsx,The target is tilted.,117,62,6,7,0,1,1,1,0,0,0,0,0,0,0,0,1,3,4,117,space,5.864579400000139,None,0,1,0.6949594999998681,None,space,1.5517514000000574,None,0,0,0,0,,,,,7,6,62,6,174.66493400000013,,,,,,,,,,,,,,,,,,,,,174.6495592000001,174.66493400000013,175.14881949999995,175.15433640000015,175.17585239999994,175.88247709999996,,,,,175.8827361000001,175.89741100000015,176.09784519999994,176.08177550000005,175.17585239999994,,,,,,,,0,1,0.6949594999998681,None,,,,,,,,854,21,M,L,2026-02-25_11h16.04.295,VisualSearch_2526_3,,2025.2.4,2026-02-25 11h16.04.632131 +0100,
tilted.xlsx,The target is tilted.,117,63,7,7,0,0,0,0,0,0,0,0,0,0,0,0,1,1,1,117,space,5.864579400000139,None,0,1,0.6437559999999394,None,space,1.5517514000000574,None,0,0,0,0,,,,,7,7,63,7,176.09784519999994,,,,,,,,,,,,,,,,,,,,,176.08261500000003,176.09784519999994,176.58169240000007,176.58717109999998,176.60879720000003,177.26395260000004,,,,,177.26407429999995,177.28064270000004,,177.46441690000006,176.60879720000003,,,,,,,,0,1,0.6437559999999394,None,,,,,,,,854,21,M,L,2026-02-25_11h16.04.295,VisualSearch_2526_3,,2025.2.4,2026-02-25 11h16.04.632131 +0100,
tilted.xlsx,The target is tilted.,117,64,0,8,0,1,1,1,0,0,0,0,0,0,0,0,1,3,4,117,space,5.864579400000139,None,0,1,0.7306312000000617,None,space,1.5517514000000574,None,0,0,0,0,,,,,8,0,64,6,177.4807733,,,,,,,,,,,,,,,,,,,,,177.46528740000008,177.4807733,177.96382080000012,177.96653349999997,177.98028790000012,178.71437300000002,,,,,178.7145928,178.72955219999994,178.93031169999995,178.91417920000004,177.98028790000012,,,,,,,,0,1,0.7306312000000617,None,,,,,,,,854,21,M,L,2026-02-25_11h16.04.295,VisualSearch_2526_3,,2025.2.4,2026-02-25 11h16.04.632131 +0100,
tilted.xlsx,The target is tilted.,117,65,1,8,1,1,1,1,1,1,1,1,1,1,1,1,0,11,12,117,space,5.864579400000139,None,1,1,1.2421685000001617,None,space,1.5517514000000574,None,0,0,0,0,,,,,8,1,65,0,178.93031169999995,,,,,,,,,,,,,,,,,,,,,178.91499190000013,178.93031169999995,179.41367560000003,179.41907830000014,179.44045660000006,180.69629680000003,,,,,180.69637510000007,180.71230850000006,,180.8965207000001,179.44045660000006,,,,,,,,1,1,1.2421685000001617,None,,,,,,,,854,21,M,L,2026-02-25_11h16.04.295,VisualSearch_2526_3,,2025.2.4,2026-02-25 11h16.04.632131 +0100,
tilted.xlsx,The target is tilted.,117,66,2,8,0,0,0,0,0,0,0,0,0,0,0,0,1,1,1,117,space,5.864579400000139,None,0,1,0.5299817000000075,None,space,1.5517514000000574,None,0,0,0,0,,,,,8,2,66,7,180.91284210000003,,,,,,,,,,,,,,,,,,,,,180.89739020000002,180.91284210000003,181.39658740000004,181.40190359999997,181.42262700000015,181.96320140000012,,,,,181.96335050000016,181.9786524000001,182.17928180000013,182.1631714,181.42262700000015,,,,,,,,0,1,0.5299817000000075,None,,,,,,,,854,21,M,L,2026-02-25_11h16.04.295,VisualSearch_2526_3,,2025.2.4,2026-02-25 11h16.04.632131 +0100,
tilted.xlsx,The target is tilted.,117,67,3,8,0,1,1,1,1,1,1,1,1,1,1,1,1,11,12,117,space,5.864579400000139,None,0,1,1.6372312999999394,None,space,1.5517514000000574,None,0,0,0,0,,,,,8,3,67,4,182.17928180000013,,,,,,,,,,,,,,,,,,,,,182.16398230000004,182.17928180000013,182.6630537000001,182.66845720000015,182.69013700000005,184.32984060000013,,,,,184.3300607000001,184.34463030000006,184.54513980000002,184.52902859999995,182.69013700000005,,,,,,,,0,1,1.6372312999999394,None,,,,,,,,854,21,M,L,2026-02-25_11h16.04.295,VisualSearch_2526_3,,2025.2.4,2026-02-25 11h16.04.632131 +0100,
tilted.xlsx,The target is tilted.,117,68,4,8,1,0,0,0,0,0,0,0,0,0,0,0,0,0,1,117,space,5.864579400000139,None,1,1,0.6901981999999407,None,space,1.5517514000000574,None,0,0,0,0,,,,,8,4,68,3,184.54513980000002,,,,,,,,,,,,,,,,,,,,,184.5298401,184.54513980000002,185.02886710000007,185.03423320000002,185.05605549999996,185.76123299999995,,,,,185.76136330000008,185.77732070000002,,185.9617158000001,185.05605549999996,,,,,,,,1,1,0.6901981999999407,None,,,,,,,,854,21,M,L,2026-02-25_11h16.04.295,VisualSearch_2526_3,,2025.2.4,2026-02-25 11h16.04.632131 +0100,
tilted.xlsx,The target is tilted.,117,69,5,8,1,1,1,1,0,0,0,0,0,0,0,0,0,3,4,117,space,5.864579400000139,None,1,1,0.6405491000000438,None,space,1.5517514000000574,None,0,0,0,0,,,,,8,5,69,2,185.97803160000012,,,,,,,,,,,,,,,,,,,,,185.96263910000016,185.97803160000012,186.4615146000001,186.46696659999998,186.4883572000001,187.14504609999994,,,,,187.14527840000005,187.1603897,187.36042829999997,187.34466780000002,,,,,,,,,1,1,0.6405491000000438,None,,,,,,,,854,21,M,L,2026-02-25_11h16.04.295,VisualSearch_2526_3,,2025.2.4,2026-02-25 11h16.04.632131 +0100,
tilted.xlsx,The target is tilted.,117,70,6,8,1,1,1,1,1,1,1,1,0,0,0,0,0,7,8,117,space,5.864579400000139,None,1,1,1.08739300000002,None,space,1.5517514000000574,None,0,0,0,0,,,,,8,6,70,1,187.36042829999997,,,,,,,,,,,,,,,,,,,,,187.3455166000001,187.36042829999997,187.84473419999995,187.8501166000001,187.87136090000013,188.96133480000003,,,,,188.96154339999998,188.97622449999994,189.1769068000001,189.16084130000013,187.87136090000013,,,,,,,,1,1,1.08739300000002,None,,,,,,,,854,21,M,L,2026-02-25_11h16.04.295,VisualSearch_2526_3,,2025.2.4,2026-02-25 11h16.04.632131 +0100,
tilted.xlsx,The target is tilted.,117,71,7,8,0,1,1,1,1,1,1,1,0,0,0,0,1,7,8,117,space,5.864579400000139,None,0,1,1.58395459999997,None,space,1.5517514000000574,None,0,0,0,0,,,,,8,7,71,5,189.1769068000001,,,,,,,,,,,,,,,,,,,,,189.16172400000005,189.1769068000001,189.6607864,189.66617810000002,189.68631900000014,191.27714059999994,,,,,191.27733710000007,191.29229570000007,191.49282719999997,191.47650680000015,189.68631900000014,,,,,,,,0,1,1.58395459999997,None,,,,,,,,854,21,M,L,2026-02-25_11h16.04.295,VisualSearch_2526_3,,2025.2.4,2026-02-25 11h16.04.632131 +0100,
tilted.xlsx,The target is tilted.,117,72,0,9,1,1,1,1,1,1,1,1,0,0,0,0,0,7,8,117,space,5.864579400000139,None,0,0,1.3132034000000203,None,space,1.5517514000000574,None,0,0,0,0,,,,,9,0,72,1,191.49282719999997,,,,,,,,,,,,,,,,,,,,,191.47739909999996,191.49282719999997,191.97625229999994,191.98166020000008,192.0034095000001,193.32595860000015,,,,,193.32609860000002,193.34165559999997,193.5421335000001,193.52594620000013,192.0034095000001,,,,,,,,0,0,1.3132034000000203,None,,,,,,,,854,21,M,L,2026-02-25_11h16.04.295,VisualSearch_2526_3,,2025.2.4,2026-02-25 11h16.04.632131 +0100,
tilted.xlsx,The target is tilted.,117,73,1,9,1,1,1,1,1,1,1,1,1,1,1,1,0,11,12,117,space,5.864579400000139,None,1,1,1.2603827000000365,None,space,1.5517514000000574,None,0,0,0,0,,,,,9,1,73,0,193.5421335000001,,,,,,,,,,,,,,,,,,,,,193.52679620000004,193.5421335000001,194.02592000000004,194.03127670000003,194.05314390000012,195.32569160000003,,,,,195.32591509999997,195.3410404000001,195.54139009999994,195.52543190000006,194.05314390000012,,,,,,,,1,1,1.2603827000000365,None,,,,,,,,854,21,M,L,2026-02-25_11h16.04.295,VisualSearch_2526_3,,2025.2.4,2026-02-25 11h16.04.632131 +0100,
tilted.xlsx,The target is tilted.,117,74,2,9,1,0,0,0,0,0,0,0,0,0,0,0,0,0,1,117,space,5.864579400000139,None,1,1,0.5510232999999971,None,space,1.5517514000000574,None,0,0,0,0,,,,,9,2,74,3,195.54139009999994,,,,,,,,,,,,,,,,,,,,,195.52624379999997,195.54139009999994,196.02536980000014,196.03078800000003,196.05207940000014,196.60881229999995,,,,,196.60904879999998,196.62392580000005,196.8244568,196.80829040000003,196.05207940000014,,,,,,,,1,1,0.5510232999999971,None,,,,,,,,854,21,M,L,2026-02-25_11h16.04.295,VisualSearch_2526_3,,2025.2.4,2026-02-25 11h16.04.632131 +0100,
tilted.xlsx,The target is tilted.,117,75,3,9,0,1,1,1,1,1,1,1,1,1,1,1,1,11,12,117,space,5.864579400000139,None,0,1,1.6996954999999616,None,space,1.5517514000000574,None,0,0,0,0,,,,,9,3,75,4,196.8244568,,,,,,,,,,,,,,,,,,,,,196.80918500000007,196.8244568,197.30815600000005,197.31352040000002,197.33541200000013,199.0412229000001,,,,,199.04144480000014,199.05625170000008,199.25693030000002,199.24108509999996,197.33541200000013,,,,,,,,0,1,1.6996954999999616,None,,,,,,,,854,21,M,L,2026-02-25_11h16.04.295,VisualSearch_2526_3,,2025.2.4,2026-02-25 11h16.04.632131 +0100,
tilted.xlsx,The target is tilted.,117,76,4,9,1,1,1,1,0,0,0,0,0,0,0,0,0,3,4,117,space,5.864579400000139,None,0,0,0.6352397000000565,None,space,1.5517514000000574,None,0,0,0,0,,,,,9,4,76,2,199.25693030000002,,,,,,,,,,,,,,,,,,,,,199.24191040000005,199.25693030000002,199.74084510000012,199.74622900000008,199.76766270000007,200.40816130000007,,,,,200.4083892000001,200.42245760000014,200.62326159999998,200.6069347,199.76766270000007,,,,,,,,0,0,0.6352397000000565,None,,,,,,,,854,21,M,L,2026-02-25_11h16.04.295,VisualSearch_2526_3,,2025.2.4,2026-02-25 11h16.04.632131 +0100,
tilted.xlsx,The target is tilted.,117,77,5,9,0,1,1,1,0,0,0,0,0,0,0,0,1,3,4,117,space,5.864579400000139,None,0,1,0.7225025000000187,None,space,1.5517514000000574,None,0,0,0,0,,,,,9,5,77,6,200.62326159999998,,,,,,,,,,,,,,,,,,,,,200.60778040000014,200.62326159999998,201.10689760000014,201.11161140000013,201.12284479999994,201.85679840000012,,,,,201.8570198,201.8720475,202.0727472000001,202.05629840000006,201.12284479999994,,,,,,,,0,1,0.7225025000000187,None,,,,,,,,854,21,M,L,2026-02-25_11h16.04.295,VisualSearch_2526_3,,2025.2.4,2026-02-25 11h16.04.632131 +0100,
tilted.xlsx,The target is tilted.,117,78,6,9,0,1,1,1,1,1,1,1,0,0,0,0,1,7,8,117,space,5.864579400000139,None,0,1,1.4286575000000994,None,space,1.5517514000000574,None,0,0,0,0,,,,,9,6,78,5,202.0727472000001,,,,,,,,,,,,,,,,,,,,,202.05712870000002,202.0727472000001,202.55614379999997,202.56147710000005,202.5828067,204.02200420000008,,,,,204.02212580000014,204.03811450000012,,204.22237840000003,202.5828067,,,,,,,,0,1,1.4286575000000994,None,,,,,,,,854,21,M,L,2026-02-25_11h16.04.295,VisualSearch_2526_3,,2025.2.4,2026-02-25 11h16.04.632131 +0100,
tilted.xlsx,The target is tilted.,117,79,7,9,0,0,0,0,0,0,0,0,0,0,0,0,1,1,1,117,space,5.864579400000139,None,0,1,0.5663875000000189,None,space,1.5517514000000574,None,0,0,0,0,,,,,9,7,79,7,204.2384095,,,,,,,,,,,,,,,,,,,,,204.22336050000013,204.2384095,204.72244990000013,204.72784130000014,204.74882130000015,205.32283729999995,,,,,205.32309510000005,205.33782110000016,205.5378286,205.5222056,204.74882130000015,,,,,,,,0,1,0.5663875000000189,None,,,,,,,,854,21,M,L,2026-02-25_11h16.04.295,VisualSearch_2526_3,,2025.2.4,2026-02-25 11h16.04.632131 +0100,
tilted.xlsx,The target is tilted.,117,80,0,10,0,0,0,0,0,0,0,0,0,0,0,0,1,1,1,117,space,5.864579400000139,None,0,1,0.5382892000000083,None,space,1.5517514000000574,None,0,0,0,0,,,,,10,0,80,7,205.5378286,,,,,,,,,,,,,,,,,,,,,205.52302329999998,205.5378286,206.02188720000004,206.02727950000008,206.04856570000015,206.58908769999994,,,,,206.5893367000001,206.60413100000005,206.80449410000006,206.7884431,206.04856570000015,,,,,,,,0,1,0.5382892000000083,None,,,,,,,,854,21,M,L,2026-02-25_11h16.04.295,VisualSearch_2526_3,,2025.2.4,2026-02-25 11h16.04.632131 +0100,
tilted.xlsx,The target is tilted.,117,81,1,10,0,1,1,1,1,1,1,1,0,0,0,0,1,7,8,117,space,5.864579400000139,None,0,1,1.4171976000000086,None,space,1.5517514000000574,None,0,0,0,0,,,,,10,1,81,5,206.80449410000006,,,,,,,,,,,,,,,,,,,,,206.7892789,206.80449410000006,207.2883091000001,207.2931013,207.30416830000013,208.73793060000003,,,,,208.73815190000005,208.75332649999996,208.95380560000012,208.93775700000015,207.30416830000013,,,,,,,,0,1,1.4171976000000086,None,,,,,,,,854,21,M,L,2026-02-25_11h16.04.295,VisualSearch_2526_3,,2025.2.4,2026-02-25 11h16.04.632131 +0100,
tilted.xlsx,The target is tilted.,117,82,2,10,1,0,0,0,0,0,0,0,0,0,0,0,0,0,1,117,space,5.864579400000139,None,1,1,0.5322363999998743,None,space,1.5517514000000574,None,0,0,0,0,,,,,10,2,82,3,208.95380560000012,,,,,,,,,,,,,,,,,,,,,208.93855120000012,208.95380560000012,209.4375318,209.44293549999998,209.4642808000001,210.0043012000001,,,,,210.00451880000014,210.01939040000002,210.22009360000015,210.20400840000002,209.4642808000001,,,,,,,,1,1,0.5322363999998743,None,,,,,,,,854,21,M,L,2026-02-25_11h16.04.295,VisualSearch_2526_3,,2025.2.4,2026-02-25 11h16.04.632131 +0100,
tilted.xlsx,The target is tilted.,117,83,3,10,1,1,1,1,1,1,1,1,1,1,1,1,0,11,12,117,space,5.864579400000139,None,1,1,0.7597746999999799,None,space,1.5517514000000574,None,0,0,0,0,,,,,10,3,83,0,210.22009360000015,,,,,,,,,,,,,,,,,,,,,210.20483820000004,210.22009360000015,210.70281210000007,210.70561010000006,210.71967089999998,211.48757550000005,,,,,211.4878023000001,211.50282570000013,211.70239190000007,211.68663489999994,210.71967089999998,,,,,,,,1,1,0.7597746999999799,None,,,,,,,,854,21,M,L,2026-02-25_11h16.04.295,VisualSearch_2526_3,,2025.2.4,2026-02-25 11h16.04.632131 +0100,
tilted.xlsx,The target is tilted.,117,84,4,10,0,1,1,1,1,1,1,1,1,1,1,1,1,11,12,117,space,5.864579400000139,None,0,1,1.7511360999999397,None,space,1.5517514000000574,None,0,0,0,0,,,,,10,4,84,4,211.70239190000007,,,,,,,,,,,,,,,,,,,,,211.68751629999997,211.70239190000007,212.1863032000001,212.19166360000008,212.21309139999994,213.97015729999998,,,,,213.9703803,213.98553270000002,214.1850644000001,214.16940350000004,212.21309139999994,,,,,,,,0,1,1.7511360999999397,None,,,,,,,,854,21,M,L,2026-02-25_11h16.04.295,VisualSearch_2526_3,,2025.2.4,2026-02-25 11h16.04.632131 +0100,
tilted.xlsx,The target is tilted.,117,85,5,10,1,1,1,1,1,1,1,1,0,0,0,0,0,7,8,117,space,5.864579400000139,None,0,0,1.5196556999999302,None,space,1.5517514000000574,None,0,0,0,0,,,,,10,5,85,1,214.1850644000001,,,,,,,,,,,,,,,,,,,,,214.17020950000006,214.1850644000001,214.66933140000015,214.67464710000013,214.69608119999998,216.21917269999994,,,,,216.21937230000003,216.23438920000012,216.43477959999996,216.4186605,214.69608119999998,,,,,,,,0,0,1.5196556999999302,None,,,,,,,,854,21,M,L,2026-02-25_11h16.04.295,VisualSearch_2526_3,,2025.2.4,2026-02-25 11h16.04.632131 +0100,
tilted.xlsx,The target is tilted.,117,86,6,10,0,1,1,1,0,0,0,0,0,0,0,0,1,3,4,117,space,5.864579400000139,None,0,1,0.43338680000010754,None,space,1.5517514000000574,None,0,0,0,0,,,,,10,6,86,6,216.43477959999996,,,,,,,,,,,,,,,,,,,,,216.41946080000002,216.43477959999996,216.91849969999998,216.92387359999998,216.94486580000012,217.38560099999995,,,,,217.38587840000014,217.40088890000015,217.6010536000001,217.5848985,216.94486580000012,,,,,,,,0,1,0.43338680000010754,None,,,,,,,,854,21,M,L,2026-02-25_11h16.04.295,VisualSearch_2526_3,,2025.2.4,2026-02-25 11h16.04.632131 +0100,
tilted.xlsx,The target is tilted.,117,87,7,10,1,1,1,1,0,0,0,0,0,0,0,0,0,3,4,117,space,5.864579400000139,None,0,0,0.7770998999999392,None,space,1.5517514000000574,None,0,0,0,0,,,,,10,7,87,2,217.6010536000001,,,,,,,,,,,,,,,,,,,,,217.58570450000002,217.6010536000001,218.08470490000013,218.09004230000005,218.11141199999997,218.90177790000007,,,,,218.90203040000006,218.91718070000002,219.11704299999997,219.10118690000013,218.11141199999997,,,,,,,,0,0,0.7770998999999392,None,,,,,,,,854,21,M,L,2026-02-25_11h16.04.295,VisualSearch_2526_3,,2025.2.4,2026-02-25 11h16.04.632131 +0100,
tilted.xlsx,The target is tilted.,117,88,0,11,0,0,0,0,0,0,0,0,0,0,0,0,1,1,1,117,space,5.864579400000139,None,1,0,0.5196364999999332,None,space,1.5517514000000574,None,0,0,0,0,,,,,11,0,88,7,219.11704299999997,,,,,,,,,,,,,,,,,,,,,219.10203249999995,219.11704299999997,219.60102849999998,219.60636210000007,219.6281352000001,220.15100670000015,,,,,220.15122680000013,220.166651,220.3666995000001,220.35079259999998,219.6281352000001,,,,,,,,1,0,0.5196364999999332,None,,,,,,,,854,21,M,L,2026-02-25_11h16.04.295,VisualSearch_2526_3,,2025.2.4,2026-02-25 11h16.04.632131 +0100,
tilted.xlsx,The target is tilted.,117,89,1,11,0,1,1,1,0,0,0,0,0,0,0,0,1,3,4,117,space,5.864579400000139,None,0,1,1.1002659000000676,None,space,1.5517514000000574,None,0,0,0,0,,,,,11,1,89,6,220.3666995000001,,,,,,,,,,,,,,,,,,,,,220.35159790000012,220.3666995000001,220.85059739999997,220.85588870000015,220.8720476000001,221.98377230000006,,,,,221.98401179999996,221.9991417000001,222.1995214000001,222.18345210000007,220.8720476000001,,,,,,,,0,1,1.1002659000000676,None,,,,,,,,854,21,M,L,2026-02-25_11h16.04.295,VisualSearch_2526_3,,2025.2.4,2026-02-25 11h16.04.632131 +0100,
tilted.xlsx,The target is tilted.,117,90,2,11,1,1,1,1,1,1,1,1,1,1,1,1,0,11,12,117,space,5.864579400000139,None,1,1,1.1683556999998927,None,space,1.5517514000000574,None,0,0,0,0,,,,,11,2,90,0,222.1995214000001,,,,,,,,,,,,,,,,,,,,,222.18425709999997,222.1995214000001,222.68331669999998,222.6887064,222.69905629999994,223.88345490000006,,,,,223.88372419999996,223.8989093,224.09886060000008,224.08286910000015,222.69905629999994,,,,,,,,1,1,1.1683556999998927,None,,,,,,,,854,21,M,L,2026-02-25_11h16.04.295,VisualSearch_2526_3,,2025.2.4,2026-02-25 11h16.04.632131 +0100,
tilted.xlsx,The target is tilted.,117,91,3,11,1,1,1,1,0,0,0,0,0,0,0,0,0,3,4,117,space,5.864579400000139,None,0,0,0.6809399999999641,None,space,1.5517514000000574,None,0,0,0,0,,,,,11,3,91,2,224.09886060000008,,,,,,,,,,,,,,,,,,,,,224.083754,224.09886060000008,224.5827501000001,224.58767349999994,224.59848920000013,225.28240840000012,,,,,225.28255630000012,225.29835819999994,225.49800870000013,225.48226150000005,224.59848920000013,,,,,,,,0,0,0.6809399999999641,None,,,,,,,,854,21,M,L,2026-02-25_11h16.04.295,VisualSearch_2526_3,,2025.2.4,2026-02-25 11h16.04.632131 +0100,
tilted.xlsx,The target is tilted.,117,92,4,11,1,0,0,0,0,0,0,0,0,0,0,0,0,0,1,117,space,5.864579400000139,None,1,1,0.5725259999999253,None,space,1.5517514000000574,None,0,0,0,0,,,,,11,4,92,3,225.49800870000013,,,,,,,,,,,,,,,,,,,,,225.4831008000001,225.49800870000013,225.98224389999996,225.9875164,226.00872660000005,226.59924509999996,,,,,226.59951999999998,226.61446640000008,226.81468640000003,226.79855300000008,226.00872660000005,,,,,,,,1,1,0.5725259999999253,None,,,,,,,,854,21,M,L,2026-02-25_11h16.04.295,VisualSearch_2526_3,,2025.2.4,2026-02-25 11h16.04.632131 +0100,
tilted.xlsx,The target is tilted.,117,93,5,11,1,1,1,1,1,1,1,1,0,0,0,0,0,7,8,117,space,5.864579400000139,None,1,1,1.3236558999999488,None,space,1.5517514000000574,None,0,0,0,0,,,,,11,5,93,1,226.81468640000003,,,,,,,,,,,,,,,,,,,,,226.79937250000012,226.81468640000003,227.29823460000011,227.3034600000001,227.32343170000013,228.64856310000005,,,,,228.648817,228.66368710000006,228.86404570000013,228.8478732000001,227.32343170000013,,,,,,,,1,1,1.3236558999999488,None,,,,,,,,854,21,M,L,2026-02-25_11h16.04.295,VisualSearch_2526_3,,2025.2.4,2026-02-25 11h16.04.632131 +0100,
tilted.xlsx,The target is tilted.,117,94,6,11,0,1,1,1,1,1,1,1,0,0,0,0,1,7,8,117,space,5.864579400000139,None,0,1,1.1711857999998756,None,space,1.5517514000000574,None,0,0,0,0,,,,,11,6,94,5,228.86404570000013,,,,,,,,,,,,,,,,,,,,,228.84876729999996,228.86404570000013,229.34772080000016,229.3530515,229.37406320000014,230.5470795000001,,,,,230.54719980000004,230.56337550000012,230.76342440000008,230.74730090000003,229.37406320000014,,,,,,,,0,1,1.1711857999998756,None,,,,,,,,854,21,M,L,2026-02-25_11h16.04.295,VisualSearch_2526_3,,2025.2.4,2026-02-25 11h16.04.632131 +0100,
tilted.xlsx,The target is tilted.,117,95,7,11,0,1,1,1,1,1,1,1,1,1,1,1,1,11,12,117,space,5.864579400000139,None,0,1,1.6606011999999737,None,space,1.5517514000000574,None,0,0,0,0,,,,,11,7,95,4,230.76342440000008,,,,,,,,,,,,,,,,,,,,,230.74809619999996,230.76342440000008,231.24701849999997,231.25242060000005,231.2726679,232.94713969999998,,,,,232.94737759999998,232.96221919999994,233.16262700000016,233.1463063000001,231.2726679,,,,,,,,0,1,1.6606011999999737,None,,,,,,,,854,21,M,L,2026-02-25_11h16.04.295,VisualSearch_2526_3,,2025.2.4,2026-02-25 11h16.04.632131 +0100,
tilted.xlsx,The target is tilted.,117,96,0,12,0,1,1,1,0,0,0,0,0,0,0,0,1,3,4,117,space,5.864579400000139,None,0,1,0.6728608000000804,None,space,1.5517514000000574,None,0,0,0,0,,,,,12,0,96,6,233.16262700000016,,,,,,,,,,,,,,,,,,,,,233.14714780000008,233.16262700000016,233.64621420000003,233.65169960000003,233.6737766000001,234.36349730000006,,,,,234.3637182,234.3788293,234.57879920000005,234.5628005000001,233.6737766000001,,,,,,,,0,1,0.6728608000000804,None,,,,,,,,854,21,M,L,2026-02-25_11h16.04.295,VisualSearch_2526_3,,2025.2.4,2026-02-25 11h16.04.632131 +0100,
tilted.xlsx,The target is tilted.,117,97,1,12,1,1,1,1,1,1,1,1,0,0,0,0,0,7,8,117,space,5.864579400000139,None,1,1,1.5305100000000493,None,space,1.5517514000000574,None,0,0,0,0,,,,,12,1,97,1,234.57879920000005,,,,,,,,,,,,,,,,,,,,,234.5636058,234.57879920000005,235.06277079999995,235.0680694,235.08457320000002,236.6293230000001,,,,,236.62957959999994,236.6444305,236.84475640000005,236.82866460000014,235.08457320000002,,,,,,,,1,1,1.5305100000000493,None,,,,,,,,854,21,M,L,2026-02-25_11h16.04.295,VisualSearch_2526_3,,2025.2.4,2026-02-25 11h16.04.632131 +0100,
tilted.xlsx,The target is tilted.,117,98,2,12,0,0,0,0,0,0,0,0,0,0,0,0,1,1,1,117,space,5.864579400000139,None,0,1,0.6442822999999862,None,space,1.5517514000000574,None,0,0,0,0,,,,,12,2,98,7,236.84475640000005,,,,,,,,,,,,,,,,,,,,,236.82947749999994,236.84475640000005,237.32814970000004,237.33356260000005,237.35163940000007,238.0122606,,,,,238.0124972000001,238.02726580000012,238.2275138,238.21153530000015,237.35163940000007,,,,,,,,0,1,0.6442822999999862,None,,,,,,,,854,21,M,L,2026-02-25_11h16.04.295,VisualSearch_2526_3,,2025.2.4,2026-02-25 11h16.04.632131 +0100,
tilted.xlsx,The target is tilted.,117,99,3,12,0,1,1,1,1,1,1,1,0,0,0,0,1,7,8,117,space,5.864579400000139,None,0,1,1.9609700000000885,None,space,1.5517514000000574,None,0,0,0,0,,,,,12,3,99,5,238.2275138,,,,,,,,,,,,,,,,,,,,,238.2124834000001,238.2275138,238.71094029999995,238.71481229999995,238.72719540000003,240.69508799999994,,,,,240.69541849999996,240.71002810000005,240.91011700000013,240.89403560000005,238.72719540000003,,,,,,,,0,1,1.9609700000000885,None,,,,,,,,854,21,M,L,2026-02-25_11h16.04.295,VisualSearch_2526_3,,2025.2.4,2026-02-25 11h16.04.632131 +0100,
tilted.xlsx,The target is tilted.,117,100,4,12,1,1,1,1,1,1,1,1,1,1,1,1,0,11,12,117,space,5.864579400000139,None,0,0,1.5737593000001198,None,space,1.5517514000000574,None,0,0,0,0,,,,,12,4,100,0,240.91011700000013,,,,,,,,,,,,,,,,,,,,,240.89486150000016,240.91011700000013,241.3938541,241.3991754000001,241.41643590000012,242.99357099999997,,,,,242.99380940000015,243.00930859999994,243.20930480000015,243.19325270000013,241.41643590000012,,,,,,,,0,0,1.5737593000001198,None,,,,,,,,854,21,M,L,2026-02-25_11h16.04.295,VisualSearch_2526_3,,2025.2.4,2026-02-25 11h16.04.632131 +0100,
tilted.xlsx,The target is tilted.,117,101,5,12,1,0,0,0,0,0,0,0,0,0,0,0,0,0,1,117,space,5.864579400000139,None,1,1,0.5950940999998693,None,space,1.5517514000000574,None,0,0,0,0,,,,,12,5,101,3,243.20930480000015,,,,,,,,,,,,,,,,,,,,,243.19404340000006,243.20930480000015,243.69320040000002,243.69896590000008,243.70849900000007,244.3102824,,,,,244.31050449999998,244.32524669999998,244.5255449000001,244.50948319999998,243.70849900000007,,,,,,,,1,1,0.5950940999998693,None,,,,,,,,854,21,M,L,2026-02-25_11h16.04.295,VisualSearch_2526_3,,2025.2.4,2026-02-25 11h16.04.632131 +0100,
tilted.xlsx,The target is tilted.,117,102,6,12,1,1,1,1,0,0,0,0,0,0,0,0,0,3,4,117,space,5.864579400000139,None,1,1,0.7569862999998804,None,space,1.5517514000000574,None,0,0,0,0,,,,,12,6,102,2,244.5255449000001,,,,,,,,,,,,,,,,,,,,,244.51037150000002,244.5255449000001,245.00931890000015,245.0146678000001,245.03593120000005,245.8094771000001,,,,,245.80968540000003,245.8247209000001,246.02509480000003,246.00910950000002,245.03593120000005,,,,,,,,1,1,0.7569862999998804,None,,,,,,,,854,21,M,L,2026-02-25_11h16.04.295,VisualSearch_2526_3,,2025.2.4,2026-02-25 11h16.04.632131 +0100,
tilted.xlsx,The target is tilted.,117,103,7,12,0,1,1,1,1,1,1,1,1,1,1,1,1,11,12,117,space,5.864579400000139,None,0,1,1.9528298999998697,None,space,1.5517514000000574,None,0,0,0,0,,,,,12,7,103,4,246.02509480000003,,,,,,,,,,,,,,,,,,,,,246.00993960000005,246.02509480000003,246.5086851000001,246.51405990000012,246.5298037,248.49212460000012,,,,,248.4923821,248.5072129,248.70747219999998,248.69143150000014,246.5298037,,,,,,,,0,1,1.9528298999998697,None,,,,,,,,854,21,M,L,2026-02-25_11h16.04.295,VisualSearch_2526_3,,2025.2.4,2026-02-25 11h16.04.632131 +0100,
tilted.xlsx,The target is tilted.,117,104,0,13,0,1,1,1,1,1,1,1,1,1,1,1,1,11,12,117,space,5.864579400000139,None,0,1,2.1252805999999964,None,space,1.5517514000000574,None,0,0,0,0,,,,,13,0,104,4,248.70747219999998,,,,,,,,,,,,,,,,,,,,,248.69227920000003,248.70747219999998,249.1914822000001,249.19685490000006,249.21744809999996,251.3578771,,,,,251.35813800000005,251.37323489999994,251.57323569999994,251.5569875000001,249.21744809999996,,,,,,,,0,1,2.1252805999999964,None,,,,,,,,854,21,M,L,2026-02-25_11h16.04.295,VisualSearch_2526_3,,2025.2.4,2026-02-25 11h16.04.632131 +0100,
tilted.xlsx,The target is tilted.,117,105,1,13,1,1,1,1,1,1,1,1,1,1,1,1,0,11,12,117,space,5.864579400000139,None,1,1,1.2176560000000336,None,space,1.5517514000000574,None,0,0,0,0,,,,,13,1,105,0,251.57323569999994,,,,,,,,,,,,,,,,,,,,,251.5578312,251.57323569999994,252.0568604,252.06219550000014,252.08383879999997,253.30687239999997,,,,,253.3071099000001,253.32243160000007,253.52260390000015,253.5061902,252.08383879999997,,,,,,,,1,1,1.2176560000000336,None,,,,,,,,854,21,M,L,2026-02-25_11h16.04.295,VisualSearch_2526_3,,2025.2.4,2026-02-25 11h16.04.632131 +0100,
tilted.xlsx,The target is tilted.,117,106,2,13,1,1,1,1,0,0,0,0,0,0,0,0,0,3,4,117,space,5.864579400000139,None,0,0,0.6702507999998488,None,space,1.5517514000000574,None,0,0,0,0,,,,,13,2,106,2,253.52260390000015,,,,,,,,,,,,,,,,,,,,,253.50701060000006,253.52260390000015,254.0060542000001,254.0113662000001,254.03285920000008,254.70586260000005,,,,,254.7059812,254.72194680000007,254.92223950000016,254.90613550000012,254.03285920000008,,,,,,,,0,0,0.6702507999998488,None,,,,,,,,854,21,M,L,2026-02-25_11h16.04.295,VisualSearch_2526_3,,2025.2.4,2026-02-25 11h16.04.632131 +0100,
tilted.xlsx,The target is tilted.,117,107,3,13,1,0,0,0,0,0,0,0,0,0,0,0,0,0,1,117,space,5.864579400000139,None,1,1,0.7142943000001196,None,space,1.5517514000000574,None,0,0,0,0,,,,,13,3,107,3,254.92223950000016,,,,,,,,,,,,,,,,,,,,,254.90695640000013,254.92223950000016,255.40588830000002,255.41119219999996,255.43247080000015,256.1563162,,,,,256.1565722,256.1713635000001,256.3717323000001,256.3556221000001,255.43247080000015,,,,,,,,1,1,0.7142943000001196,None,,,,,,,,854,21,M,L,2026-02-25_11h16.04.295,VisualSearch_2526_3,,2025.2.4,2026-02-25 11h16.04.632131 +0100,
tilted.xlsx,The target is tilted.,117,108,4,13,0,1,1,1,0,0,0,0,0,0,0,0,1,3,4,117,space,5.864579400000139,None,0,1,0.7874693999999636,None,space,1.5517514000000574,None,0,0,0,0,,,,,13,4,108,6,256.3717323000001,,,,,,,,,,,,,,,,,,,,,256.3564381000001,256.3717323000001,256.85513489999994,256.8605199000001,256.8822219000001,257.6719591000001,,,,,257.6721563000001,257.687678,257.8878519,257.8718549,256.8822219000001,,,,,,,,0,1,0.7874693999999636,None,,,,,,,,854,21,M,L,2026-02-25_11h16.04.295,VisualSearch_2526_3,,2025.2.4,2026-02-25 11h16.04.632131 +0100,
tilted.xlsx,The target is tilted.,117,109,5,13,1,1,1,1,1,1,1,1,0,0,0,0,0,7,8,117,space,5.864579400000139,None,1,1,0.8225255000002107,None,space,1.5517514000000574,None,0,0,0,0,,,,,13,5,109,1,257.8878519,,,,,,,,,,,,,,,,,,,,,257.87275150000005,257.8878519,258.3716409000001,258.3771497,258.39765179999995,259.2220155,,,,,259.2222567000001,259.2370601,259.4373352,259.4214466000001,258.39765179999995,,,,,,,,1,1,0.8225255000002107,None,,,,,,,,854,21,M,L,2026-02-25_11h16.04.295,VisualSearch_2526_3,,2025.2.4,2026-02-25 11h16.04.632131 +0100,
tilted.xlsx,The target is tilted.,117,110,6,13,0,0,0,0,0,0,0,0,0,0,0,0,1,1,1,117,space,5.864579400000139,None,0,1,0.6713568000000123,None,space,1.5517514000000574,None,0,0,0,0,,,,,13,6,110,7,259.4373352,,,,,,,,,,,,,,,,,,,,,259.42227750000006,259.4373352,259.9209267000001,259.9263138000001,259.9476529000001,260.62166350000007,,,,,260.62188590000005,260.63688019999995,260.8367465000001,260.8208122000001,259.9476529000001,,,,,,,,0,1,0.6713568000000123,None,,,,,,,,854,21,M,L,2026-02-25_11h16.04.295,VisualSearch_2526_3,,2025.2.4,2026-02-25 11h16.04.632131 +0100,
tilted.xlsx,The target is tilted.,117,111,7,13,0,1,1,1,1,1,1,1,0,0,0,0,1,7,8,117,space,5.864579400000139,None,0,1,1.3175257999998848,None,space,1.5517514000000574,None,0,0,0,0,,,,,13,7,111,5,260.8367465000001,,,,,,,,,,,,,,,,,,,,,260.8216287,260.8367465000001,261.3205293000001,261.3259028,261.347538,262.67082400000004,,,,,262.6710687,262.68634050000014,262.88581120000003,262.8701728000001,261.347538,,,,,,,,0,1,1.3175257999998848,None,,,,,,,,854,21,M,L,2026-02-25_11h16.04.295,VisualSearch_2526_3,,2025.2.4,2026-02-25 11h16.04.632131 +0100,
tilted.xlsx,The target is tilted.,117,112,0,14,0,1,1,1,1,1,1,1,1,1,1,1,1,11,12,117,space,5.864579400000139,None,0,1,2.304546599999867,None,space,1.5517514000000574,None,0,0,0,0,,,,,14,0,112,4,262.88581120000003,,,,,,,,,,,,,,,,,,,,,262.87110970000003,262.88581120000003,263.37007540000013,263.37542759999997,263.39343299999996,265.70228569999995,,,,,265.702407,265.7181886000001,265.9185824000001,265.90267700000004,263.39343299999996,,,,,,,,0,1,2.304546599999867,None,,,,,,,,854,21,M,L,2026-02-25_11h16.04.295,VisualSearch_2526_3,,2025.2.4,2026-02-25 11h16.04.632131 +0100,
tilted.xlsx,The target is tilted.,117,113,1,14,1,1,1,1,1,1,1,1,1,1,1,1,0,11,12,117,space,5.864579400000139,None,1,1,0.9334547999999359,None,space,1.5517514000000574,None,0,0,0,0,,,,,14,1,113,0,265.9185824000001,,,,,,,,,,,,,,,,,,,,,265.90350639999997,265.9185824000001,266.4022863,266.40725900000007,266.41807760000006,267.36941690000003,,,,,267.3696423000001,267.38481120000006,267.58473819999995,267.56863850000013,266.41807760000006,,,,,,,,1,1,0.9334547999999359,None,,,,,,,,854,21,M,L,2026-02-25_11h16.04.295,VisualSearch_2526_3,,2025.2.4,2026-02-25 11h16.04.632131 +0100,
tilted.xlsx,The target is tilted.,117,114,2,14,1,1,1,1,1,1,1,1,0,0,0,0,0,7,8,117,space,5.864579400000139,None,0,0,1.6031047999999828,None,space,1.5517514000000574,None,0,0,0,0,,,,,14,2,114,1,267.58473819999995,,,,,,,,,,,,,,,,,,,,,267.5694354,267.58473819999995,268.06848119999995,268.0737839000001,268.0950614000001,269.70140979999996,,,,,269.7015355000001,269.7169689,269.9172129000001,269.9012232,268.0950614000001,,,,,,,,0,0,1.6031047999999828,None,,,,,,,,854,21,M,L,2026-02-25_11h16.04.295,VisualSearch_2526_3,,2025.2.4,2026-02-25 11h16.04.632131 +0100,
tilted.xlsx,The target is tilted.,117,115,3,14,0,1,1,1,0,0,0,0,0,0,0,0,1,3,4,117,space,5.864579400000139,None,0,1,0.8726779999999508,None,space,1.5517514000000574,None,0,0,0,0,,,,,14,3,115,6,269.9172129000001,,,,,,,,,,,,,,,,,,,,,269.9020077,269.9172129000001,270.4007411,270.4062309000001,270.4276337000001,271.3180333,,,,,271.31821890000015,271.3333235,271.53336609999997,271.5172444,270.4276337000001,,,,,,,,0,1,0.8726779999999508,None,,,,,,,,854,21,M,L,2026-02-25_11h16.04.295,VisualSearch_2526_3,,2025.2.4,2026-02-25 11h16.04.632131 +0100,
tilted.xlsx,The target is tilted.,117,116,4,14,0,0,0,0,0,0,0,0,0,0,0,0,1,1,1,117,space,5.864579400000139,None,0,1,0.6913982000000942,None,space,1.5517514000000574,None,0,0,0,0,,,,,14,4,116,7,271.53336609999997,,,,,,,,,,,,,,,,,,,,,271.51809320000007,271.53336609999997,272.0170058000001,272.0224693,272.0437608,272.7507664,,,,,272.7509628,272.76604539999994,272.96603189999996,272.9503485,272.0437608,,,,,,,,0,1,0.6913982000000942,None,,,,,,,,854,21,M,L,2026-02-25_11h16.04.295,VisualSearch_2526_3,,2025.2.4,2026-02-25 11h16.04.632131 +0100,
tilted.xlsx,The target is tilted.,117,117,5,14,1,1,1,1,0,0,0,0,0,0,0,0,0,3,4,117,space,5.864579400000139,None,0,0,1.4641390999997839,None,space,1.5517514000000574,None,0,0,0,0,,,,,14,5,117,2,272.96603189999996,,,,,,,,,,,,,,,,,,,,,272.9511705,272.96603189999996,273.4501172,273.45481080000013,273.46557900000016,274.93271890000005,,,,,274.9328541,274.94864140000004,275.1489901,275.13268889999995,273.46557900000016,,,,,,,,0,0,1.4641390999997839,None,,,,,,,,854,21,M,L,2026-02-25_11h16.04.295,VisualSearch_2526_3,,2025.2.4,2026-02-25 11h16.04.632131 +0100,
tilted.xlsx,The target is tilted.,117,118,6,14,0,1,1,1,1,1,1,1,0,0,0,0,1,7,8,117,space,5.864579400000139,None,0,1,1.7142201000001478,None,space,1.5517514000000574,None,0,0,0,0,,,,,14,6,118,5,275.1489901,,,,,,,,,,,,,,,,,,,,,275.13359420000006,275.1489901,275.63228090000007,275.63603750000016,275.65467809999996,277.3827931000001,,,,,277.38303740000015,277.39783720000014,277.5977487,277.58172430000013,275.65467809999996,,,,,,,,0,1,1.7142201000001478,None,,,,,,,,854,21,M,L,2026-02-25_11h16.04.295,VisualSearch_2526_3,,2025.2.4,2026-02-25 11h16.04.632131 +0100,
tilted.xlsx,The target is tilted.,117,119,7,14,1,0,0,0,0,0,0,0,0,0,0,0,0,0,1,117,space,5.864579400000139,None,0,0,0.4041790999999648,None,space,1.5517514000000574,None,0,0,0,0,,,,,14,7,119,3,277.5977487,,,,,,,,,,,,,,,,,,,,,277.58256010000014,277.5977487,278.08194130000015,278.0873769,278.1087001000001,278.51566920000005,,,,,278.5159255000001,278.53119519999996,278.75354459999994,278.7150312000001,278.1087001000001,,,,,,,,0,0,0.4041790999999648,None,,,,,,,,854,21,M,L,2026-02-25_11h16.04.295,VisualSearch_2526_3,,2025.2.4,2026-02-25 11h16.04.632131 +0100,
tilted.xlsx,The target is tilted.,117,0,0,0,,,,,,,,,,,,,,,,,space,5.864579400000139,None,,,,,space,1.5517514000000574,None,0,0,0,0,,,,,,,,,,,,,,,,,,,,,,,,,,,,,,,,,,,,,,,,,,,,,,,,,,,,,,,,,,,,,,,854,21,M,L,2026-02-25_11h16.04.295,VisualSearch_2526_3,,2025.2.4,2026-02-25 11h16.04.632131 +0100,
vertical.xlsx,The target is tilted.,135,0,0,0,0,1,1,1,1,1,1,1,1,1,1,1,1,11,12,135,space,1.9759197999999287,None,0,1,1.4004337999999734,None,,,,0,1,1,1,0,0,0,4,,,,,280.76644880000003,,,,,,,,,,,,,,,278.75354459999994,278.75354459999994,278.75354459999994,space,1.9759197999999287,None,280.7620207,280.76644880000003,281.24715319999996,281.2525871,281.27403260000006,282.6806991000001,0,1,1.4004337999999734,None,282.6809184000001,282.69606509999994,282.8960185000001,282.87945720000016,,,,,,,,,,,,,,,,,,,,854,21,M,L,2026-02-25_11h16.04.295,VisualSearch_2526_3,,2025.2.4,2026-02-25 11h16.04.632131 +0100,
vertical.xlsx,The target is tilted.,135,1,1,0,1,0,0,0,0,0,0,0,0,0,0,0,0,0,1,135,space,1.9759197999999287,None,1,1,0.48471569999992425,None,,,,0,1,1,1,0,1,1,3,,,,,282.8960185000001,,,,,,,,,,,,,,,,,,,,,282.87984930000016,282.8960185000001,283.3799388,283.3848917,283.3959628,283.8969572000001,1,1,0.48471569999992425,None,283.8971907,283.9126986000001,284.11269930000003,284.09623940000006,283.3959628,,,,,,,,,,,,,,,,,,,854,21,M,L,2026-02-25_11h16.04.295,VisualSearch_2526_3,,2025.2.4,2026-02-25 11h16.04.632131 +0100,
vertical.xlsx,The target is tilted.,135,2,2,0,1,1,1,1,1,1,1,1,0,0,0,0,0,7,8,135,space,1.9759197999999287,None,1,1,0.8026806000000306,None,,,,0,1,1,1,0,2,2,1,,,,,284.11269930000003,,,,,,,,,,,,,,,,,,,,,284.0969937,284.11269930000003,284.59608160000016,284.6014319000001,284.62340459999996,285.4289877000001,1,1,0.8026806000000306,None,285.42910210000014,285.4452704,285.64513450000004,285.6294143,284.62340459999996,,,,,,,,,,,,,,,,,,,854,21,M,L,2026-02-25_11h16.04.295,VisualSearch_2526_3,,2025.2.4,2026-02-25 11h16.04.632131 +0100,
vertical.xlsx,The target is tilted.,135,3,3,0,1,1,1,1,1,1,1,1,1,1,1,1,0,11,12,135,space,1.9759197999999287,None,0,0,0.7968968999998651,None,,,,0,1,1,1,0,3,3,0,,,,,285.64513450000004,,,,,,,,,,,,,,,,,,,,,285.63017519999994,285.64513450000004,286.1292909000001,286.1346588000001,286.1523981,286.9629049,0,0,0.7968968999998651,None,286.96314830000006,286.9782493,287.1784043,287.1623303000001,286.1523981,,,,,,,,,,,,,,,,,,,854,21,M,L,2026-02-25_11h16.04.295,VisualSearch_2526_3,,2025.2.4,2026-02-25 11h16.04.632131 +0100,
vertical.xlsx,The target is tilted.,135,4,4,0,0,1,1,1,0,0,0,0,0,0,0,0,1,3,4,135,space,1.9759197999999287,None,0,1,0.47991460000002917,None,,,,0,1,1,1,0,4,4,6,,,,,287.1784043,,,,,,,,,,,,,,,,,,,,,287.1630537000001,287.1784043,287.6621162000001,287.66749589999995,287.6894093000001,288.17894760000013,0,1,0.47991460000002917,None,288.1791625000001,288.1945178000001,288.39458230000014,288.37856469999997,287.6894093000001,,,,,,,,,,,,,,,,,,,854,21,M,L,2026-02-25_11h16.04.295,VisualSearch_2526_3,,2025.2.4,2026-02-25 11h16.04.632131 +0100,
vertical.xlsx,The target is tilted.,135,5,5,0,0,1,1,1,1,1,1,1,0,0,0,0,1,7,8,135,space,1.9759197999999287,None,0,1,0.5834159999999429,None,,,,0,1,1,1,0,5,5,5,,,,,288.39458230000014,,,,,,,,,,,,,,,,,,,,,288.3793478,288.39458230000014,288.87836390000007,288.8838429,288.9053801,289.4954739,0,1,0.5834159999999429,None,289.49573570000007,289.51056040000003,289.71076500000004,289.6943966000001,288.9053801,,,,,,,,,,,,,,,,,,,854,21,M,L,2026-02-25_11h16.04.295,VisualSearch_2526_3,,2025.2.4,2026-02-25 11h16.04.632131 +0100,
vertical.xlsx,The target is tilted.,135,6,6,0,0,0,0,0,0,0,0,0,0,0,0,0,1,1,1,135,space,1.9759197999999287,None,0,1,0.4740524999999707,None,,,,0,1,1,1,0,6,6,7,,,,,289.71076500000004,,,,,,,,,,,,,,,,,,,,,289.69512469999995,289.71076500000004,290.1942887,290.1997610000001,290.22098730000016,290.71114209999996,0,1,0.4740524999999707,None,290.71128450000015,290.72699910000006,290.9270927,290.9110799,290.22098730000016,,,,,,,,,,,,,,,,,,,854,21,M,L,2026-02-25_11h16.04.295,VisualSearch_2526_3,,2025.2.4,2026-02-25 11h16.04.632131 +0100,
vertical.xlsx,The target is tilted.,135,7,7,0,1,1,1,1,0,0,0,0,0,0,0,0,0,3,4,135,space,1.9759197999999287,None,1,1,0.4942661999998563,None,,,,0,1,1,1,0,7,7,2,,,,,290.9270927,,,,,,,,,,,,,,,,,,,,,290.9118354,290.9270927,291.41052630000013,291.4159247,291.4370470000001,291.9446418,1,1,0.4942661999998563,None,291.94489339999996,291.95974950000004,292.16008510000006,292.1439623000001,291.4370470000001,,,,,,,,,,,,,,,,,,,854,21,M,L,2026-02-25_11h16.04.295,VisualSearch_2526_3,,2025.2.4,2026-02-25 11h16.04.632131 +0100,
vertical.xlsx,The target is tilted.,135,0,0,0,0,1,1,1,0,0,0,0,0,0,0,0,1,3,4,135,space,1.9759197999999287,None,0,1,0.5522423999998409,None,space,1.6398908999999549,None,0,1,1,1,,,,,0,0,0,6,293.84968200000003,,,,,,,,,,,,,,,,,,,,,293.8451675000001,293.84968200000003,294.32604590000005,294.3314024000001,294.35296689999996,294.91011249999997,,,,,294.9108625000001,294.9255094,295.12534589999996,295.10967819999996,,292.15264709999997,292.16008510000006,292.16008510000006,293.81048439999995,space,1.6398908999999549,None,0,1,0.5522423999998409,None,,,,,,,,854,21,M,L,2026-02-25_11h16.04.295,VisualSearch_2526_3,,2025.2.4,2026-02-25 11h16.04.632131 +0100,
vertical.xlsx,The target is tilted.,135,1,1,0,0,1,1,1,1,1,1,1,0,0,0,0,1,7,8,135,space,1.9759197999999287,None,0,1,1.031282899999951,None,space,1.6398908999999549,None,0,1,1,1,,,,,0,1,1,5,295.12534589999996,,,,,,,,,,,,,,,,,,,,,295.110492,295.12534589999996,295.6095169,295.6148640000001,295.63636169999995,296.67561449999994,,,,,296.6757662,296.69165010000006,296.89194539999994,296.8757604,295.63636169999995,,,,,,,,0,1,1.031282899999951,None,,,,,,,,854,21,M,L,2026-02-25_11h16.04.295,VisualSearch_2526_3,,2025.2.4,2026-02-25 11h16.04.632131 +0100,
vertical.xlsx,The target is tilted.,135,2,2,0,1,0,0,0,0,0,0,0,0,0,0,0,0,0,1,135,space,1.9759197999999287,None,1,1,0.5158022000000528,None,space,1.6398908999999549,None,0,1,1,1,,,,,0,2,2,3,296.89194539999994,,,,,,,,,,,,,,,,,,,,,296.876571,296.89194539999994,297.3757674000001,297.38118980000013,297.40195790000007,297.92577370000004,,,,,297.9259952,297.9413531,298.14148720000003,298.1252916000001,297.40195790000007,,,,,,,,1,1,0.5158022000000528,None,,,,,,,,854,21,M,L,2026-02-25_11h16.04.295,VisualSearch_2526_3,,2025.2.4,2026-02-25 11h16.04.632131 +0100,
vertical.xlsx,The target is tilted.,135,3,3,0,0,1,1,1,1,1,1,1,1,1,1,1,1,11,12,135,space,1.9759197999999287,None,0,1,0.6166015000001153,None,space,1.6398908999999549,None,0,1,1,1,,,,,0,3,3,4,298.14148720000003,,,,,,,,,,,,,,,,,,,,,298.12612480000007,298.14148720000003,298.6248161000001,298.6301923000001,298.6515114000001,299.27618970000003,,,,,299.2764101,299.29113600000005,299.4907522000001,299.4748105000001,298.6515114000001,,,,,,,,0,1,0.6166015000001153,None,,,,,,,,854,21,M,L,2026-02-25_11h16.04.295,VisualSearch_2526_3,,2025.2.4,2026-02-25 11h16.04.632131 +0100,
vertical.xlsx,The target is tilted.,135,4,4,0,1,1,1,1,0,0,0,0,0,0,0,0,0,3,4,135,space,1.9759197999999287,None,0,0,0.4348477000000912,None,space,1.6398908999999549,None,0,1,1,1,,,,,0,4,4,2,299.4907522000001,,,,,,,,,,,,,,,,,,,,,299.4756417000001,299.4907522000001,299.9743731000001,299.9797853,299.9976179,300.44189170000004,,,,,300.44214550000015,300.45724740000014,300.65706880000016,300.64120950000006,299.9976179,,,,,,,,0,0,0.4348477000000912,None,,,,,,,,854,21,M,L,2026-02-25_11h16.04.295,VisualSearch_2526_3,,2025.2.4,2026-02-25 11h16.04.632131 +0100,
vertical.xlsx,The target is tilted.,135,5,5,0,0,0,0,0,0,0,0,0,0,0,0,0,1,1,1,135,space,1.9759197999999287,None,0,1,0.5161708000000544,None,space,1.6398908999999549,None,0,1,1,1,,,,,0,5,5,7,300.65706880000016,,,,,,,,,,,,,,,,,,,,,300.6420561,300.65706880000016,301.141085,301.1464682000001,301.1679288,301.6916788000001,,,,,301.6919008,301.7068726,301.90685110000004,301.8907954000001,301.1679288,,,,,,,,0,1,0.5161708000000544,None,,,,,,,,854,21,M,L,2026-02-25_11h16.04.295,VisualSearch_2526_3,,2025.2.4,2026-02-25 11h16.04.632131 +0100,
vertical.xlsx,The target is tilted.,135,6,6,0,1,1,1,1,1,1,1,1,0,0,0,0,0,7,8,135,space,1.9759197999999287,None,1,1,0.7599554000000808,None,space,1.6398908999999549,None,0,1,1,1,,,,,0,6,6,1,301.90685110000004,,,,,,,,,,,,,,,,,,,,,301.89158900000007,301.90685110000004,302.3904989,302.3958242000001,302.41734940000015,303.1905591,,,,,303.19075339999995,303.20600549999995,303.4064860000001,303.39041700000007,302.41734940000015,,,,,,,,1,1,0.7599554000000808,None,,,,,,,,854,21,M,L,2026-02-25_11h16.04.295,VisualSearch_2526_3,,2025.2.4,2026-02-25 11h16.04.632131 +0100,
vertical.xlsx,The target is tilted.,135,7,7,0,1,1,1,1,1,1,1,1,1,1,1,1,0,11,12,135,space,1.9759197999999287,None,0,0,0.6828582000000551,None,space,1.6398908999999549,None,0,1,1,1,,,,,0,7,7,0,303.4064860000001,,,,,,,,,,,,,,,,,,,,,303.39124360000005,303.4064860000001,303.8901479000001,303.8954582000001,303.9170111000001,304.6069487,,,,,304.6071713000001,304.6225012,304.82261289999997,304.8061855000001,303.9170111000001,,,,,,,,0,0,0.6828582000000551,None,,,,,,,,854,21,M,L,2026-02-25_11h16.04.295,VisualSearch_2526_3,,2025.2.4,2026-02-25 11h16.04.632131 +0100,
vertical.xlsx,The target is tilted.,135,8,0,1,1,0,0,0,0,0,0,0,0,0,0,0,0,0,1,135,space,1.9759197999999287,None,1,1,0.5960967000000892,None,space,1.6398908999999549,None,0,1,1,1,,,,,1,0,8,3,304.82261289999997,,,,,,,,,,,,,,,,,,,,,304.8070086,304.82261289999997,305.3060660000001,305.31135300000005,305.3327603,305.9398206000001,,,,,305.9400389,305.95556980000015,306.1555634000001,306.1394149,305.3327603,,,,,,,,1,1,0.5960967000000892,None,,,,,,,,854,21,M,L,2026-02-25_11h16.04.295,VisualSearch_2526_3,,2025.2.4,2026-02-25 11h16.04.632131 +0100,
vertical.xlsx,The target is tilted.,135,9,1,1,0,1,1,1,1,1,1,1,1,1,1,1,1,11,12,135,space,1.9759197999999287,None,0,1,0.7730143999999655,None,space,1.6398908999999549,None,0,1,1,1,,,,,1,1,9,4,306.1555634000001,,,,,,,,,,,,,,,,,,,,,306.14020890000006,306.1555634000001,306.6394176000001,306.64481990000013,306.66644859999997,307.45629440000016,,,,,307.4565629000001,307.47143660000006,307.67127189999997,307.6555111,306.66644859999997,,,,,,,,0,1,0.7730143999999655,None,,,,,,,,854,21,M,L,2026-02-25_11h16.04.295,VisualSearch_2526_3,,2025.2.4,2026-02-25 11h16.04.632131 +0100,
vertical.xlsx,The target is tilted.,135,10,2,1,0,1,1,1,1,1,1,1,0,0,0,0,1,7,8,135,space,1.9759197999999287,None,0,1,0.5699747999999545,None,space,1.6398908999999549,None,0,1,1,1,,,,,1,2,10,5,307.67127189999997,,,,,,,,,,,,,,,,,,,,,307.65633890000004,307.67127189999997,308.15552100000014,308.16084220000016,308.1824292000001,308.7558147,,,,,308.7560579000001,308.7711578000001,308.97125460000007,308.9546494000001,308.1824292000001,,,,,,,,0,1,0.5699747999999545,None,,,,,,,,854,21,M,L,2026-02-25_11h16.04.295,VisualSearch_2526_3,,2025.2.4,2026-02-25 11h16.04.632131 +0100,
vertical.xlsx,The target is tilted.,135,11,3,1,1,1,1,1,1,1,1,1,1,1,1,1,0,11,12,135,space,1.9759197999999287,None,0,0,0.5764793999999256,None,space,1.6398908999999549,None,0,1,1,1,,,,,1,3,11,0,308.97125460000007,,,,,,,,,,,,,,,,,,,,,308.95545919999995,308.97125460000007,309.45485010000016,309.46031770000013,309.4737891,310.05547320000005,,,,,310.05569890000015,310.07071940000014,310.27089550000005,310.2547979000001,309.4737891,,,,,,,,0,0,0.5764793999999256,None,,,,,,,,854,21,M,L,2026-02-25_11h16.04.295,VisualSearch_2526_3,,2025.2.4,2026-02-25 11h16.04.632131 +0100,
vertical.xlsx,The target is tilted.,135,12,4,1,1,1,1,1,0,0,0,0,0,0,0,0,0,3,4,135,space,1.9759197999999287,None,0,0,0.5008978999999272,None,space,1.6398908999999549,None,0,1,1,1,,,,,1,4,12,2,310.27089550000005,,,,,,,,,,,,,,,,,,,,,310.25560340000015,310.27089550000005,310.75441190000015,310.7597128,310.78100229999995,311.2882038,,,,,311.2884372000001,311.3034589000001,311.50377890000004,311.48763039999994,310.78100229999995,,,,,,,,0,0,0.5008978999999272,None,,,,,,,,854,21,M,L,2026-02-25_11h16.04.295,VisualSearch_2526_3,,2025.2.4,2026-02-25 11h16.04.632131 +0100,
vertical.xlsx,The target is tilted.,135,13,5,1,0,1,1,1,0,0,0,0,0,0,0,0,1,3,4,135,space,1.9759197999999287,None,0,1,0.49193749999994907,None,space,1.6398908999999549,None,0,1,1,1,,,,,1,5,13,6,311.50377890000004,,,,,,,,,,,,,,,,,,,,,311.4884529000001,311.50377890000004,311.98745970000004,311.9922686,312.00298969999994,312.50453229999994,,,,,312.5047512000001,312.5200539,312.71962570000005,312.7033067,312.00298969999994,,,,,,,,0,1,0.49193749999994907,None,,,,,,,,854,21,M,L,2026-02-25_11h16.04.295,VisualSearch_2526_3,,2025.2.4,2026-02-25 11h16.04.632131 +0100,
vertical.xlsx,The target is tilted.,135,14,6,1,0,0,0,0,0,0,0,0,0,0,0,0,1,1,1,135,space,1.9759197999999287,None,0,1,0.40636640000002444,None,space,1.6398908999999549,None,0,1,1,1,,,,,1,6,14,7,312.71962570000005,,,,,,,,,,,,,,,,,,,,,312.7038791,312.71962570000005,313.2040306000001,313.2089956,313.2196590000001,313.6374389,,,,,313.63765650000005,313.65289430000007,313.85295510000014,313.83671900000013,313.2196590000001,,,,,,,,0,1,0.40636640000002444,None,,,,,,,,854,21,M,L,2026-02-25_11h16.04.295,VisualSearch_2526_3,,2025.2.4,2026-02-25 11h16.04.632131 +0100,
vertical.xlsx,The target is tilted.,135,15,7,1,1,1,1,1,1,1,1,1,0,0,0,0,0,7,8,135,space,1.9759197999999287,None,1,1,0.7153169999999136,None,space,1.6398908999999549,None,0,1,1,1,,,,,1,7,15,1,313.85295510000014,,,,,,,,,,,,,,,,,,,,,313.8375532,313.85295510000014,314.3364268,314.341762,314.3639746000001,315.0864302,,,,,315.08662060000006,315.10247890000005,315.3025245000001,315.28623930000003,314.3639746000001,,,,,,,,1,1,0.7153169999999136,None,,,,,,,,854,21,M,L,2026-02-25_11h16.04.295,VisualSearch_2526_3,,2025.2.4,2026-02-25 11h16.04.632131 +0100,
vertical.xlsx,The target is tilted.,135,16,0,2,0,1,1,1,1,1,1,1,1,1,1,1,1,11,12,135,space,1.9759197999999287,None,0,1,0.561347699999942,None,space,1.6398908999999549,None,0,1,1,1,,,,,2,0,16,4,315.3025245000001,,,,,,,,,,,,,,,,,,,,,315.2871686000001,315.3025245000001,315.7861167000001,315.79158240000015,315.81295780000005,316.3867964000001,,,,,316.38701170000013,316.4021640000001,316.60201959999995,316.5860924000001,315.81295780000005,,,,,,,,0,1,0.561347699999942,None,,,,,,,,854,21,M,L,2026-02-25_11h16.04.295,VisualSearch_2526_3,,2025.2.4,2026-02-25 11h16.04.632131 +0100,
vertical.xlsx,The target is tilted.,135,17,1,2,0,0,0,0,0,0,0,0,0,0,0,0,1,1,1,135,space,1.9759197999999287,None,0,1,0.4506304999999884,None,space,1.6398908999999549,None,0,1,1,1,,,,,2,1,17,7,316.60201959999995,,,,,,,,,,,,,,,,,,,,,316.58690790000014,316.60201959999995,317.0859474000001,317.09162319999996,317.11343550000015,317.56960960000015,,,,,317.56986210000014,317.5850861000001,317.7850602000001,317.76914910000005,317.11343550000015,,,,,,,,0,1,0.4506304999999884,None,,,,,,,,854,21,M,L,2026-02-25_11h16.04.295,VisualSearch_2526_3,,2025.2.4,2026-02-25 11h16.04.632131 +0100,
vertical.xlsx,The target is tilted.,135,18,2,2,1,1,1,1,1,1,1,1,0,0,0,0,0,7,8,135,space,1.9759197999999287,None,0,0,0.6405581000001348,None,space,1.6398908999999549,None,0,1,1,1,,,,,2,2,18,1,317.7850602000001,,,,,,,,,,,,,,,,,,,,,317.77001340000015,317.7850602000001,318.268783,318.27385960000015,318.28471749999994,318.93589139999995,,,,,318.93617170000016,318.95096979999994,319.1512169,319.13521890000015,318.28471749999994,,,,,,,,0,0,0.6405581000001348,None,,,,,,,,854,21,M,L,2026-02-25_11h16.04.295,VisualSearch_2526_3,,2025.2.4,2026-02-25 11h16.04.632131 +0100,
vertical.xlsx,The target is tilted.,135,19,3,2,1,0,0,0,0,0,0,0,0,0,0,0,0,0,1,135,space,1.9759197999999287,None,1,1,0.5181704999999965,None,space,1.6398908999999549,None,0,1,1,1,,,,,2,3,19,3,319.1512169,,,,,,,,,,,,,,,,,,,,,319.1360327,319.1512169,319.6349726000001,319.63987270000007,319.65085780000004,320.1852186000001,,,,,320.1854369,320.2005395000001,320.40082989999996,320.3847714000001,319.65085780000004,,,,,,,,1,1,0.5181704999999965,None,,,,,,,,854,21,M,L,2026-02-25_11h16.04.295,VisualSearch_2526_3,,2025.2.4,2026-02-25 11h16.04.632131 +0100,
vertical.xlsx,The target is tilted.,135,20,4,2,1,1,1,1,1,1,1,1,1,1,1,1,0,11,12,135,space,1.9759197999999287,None,1,1,0.8237578999999187,None,space,1.6398908999999549,None,0,1,1,1,,,,,2,4,20,0,320.40082989999996,,,,,,,,,,,,,,,,,,,,,320.38563880000015,320.40082989999996,320.88474340000016,320.8901525000001,320.91143639999996,321.75163450000014,,,,,321.75188300000013,321.7669595,321.9669378000001,321.95091790000015,320.91143639999996,,,,,,,,1,1,0.8237578999999187,None,,,,,,,,854,21,M,L,2026-02-25_11h16.04.295,VisualSearch_2526_3,,2025.2.4,2026-02-25 11h16.04.632131 +0100,
vertical.xlsx,The target is tilted.,135,21,5,2,0,1,1,1,0,0,0,0,0,0,0,0,1,3,4,135,space,1.9759197999999287,None,0,1,0.6046619000001101,None,space,1.6398908999999549,None,0,1,1,1,,,,,2,5,21,6,321.9669378000001,,,,,,,,,,,,,,,,,,,,,321.9517604,321.9669378000001,322.45083620000014,322.4568091000001,322.4737606000001,323.08450560000006,,,,,323.08475780000003,323.09958070000016,323.2997954,323.2833680000001,322.4737606000001,,,,,,,,0,1,0.6046619000001101,None,,,,,,,,854,21,M,L,2026-02-25_11h16.04.295,VisualSearch_2526_3,,2025.2.4,2026-02-25 11h16.04.632131 +0100,
vertical.xlsx,The target is tilted.,135,22,6,2,0,1,1,1,1,1,1,1,0,0,0,0,1,7,8,135,space,1.9759197999999287,None,0,1,0.671080800000027,None,space,1.6398908999999549,None,0,1,1,1,,,,,2,6,22,5,323.2997954,,,,,,,,,,,,,,,,,,,,,323.284126,323.2997954,323.78364520000014,323.78896729999997,323.8102352000001,324.48352580000005,,,,,324.4837195,324.49930870000003,324.6990531000001,324.68323580000015,323.8102352000001,,,,,,,,0,1,0.671080800000027,None,,,,,,,,854,21,M,L,2026-02-25_11h16.04.295,VisualSearch_2526_3,,2025.2.4,2026-02-25 11h16.04.632131 +0100,
vertical.xlsx,The target is tilted.,135,23,7,2,1,1,1,1,0,0,0,0,0,0,0,0,0,3,4,135,space,1.9759197999999287,None,1,1,0.5946415999999317,None,space,1.6398908999999549,None,0,1,1,1,,,,,2,7,23,2,324.6990531000001,,,,,,,,,,,,,,,,,,,,,324.6841025000001,324.6990531000001,325.18333180000013,325.1883931,325.19904510000015,325.8002596000001,,,,,325.80050529999994,325.8153499,326.0154921000001,325.9995739000001,325.19904510000015,,,,,,,,1,1,0.5946415999999317,None,,,,,,,,854,21,M,L,2026-02-25_11h16.04.295,VisualSearch_2526_3,,2025.2.4,2026-02-25 11h16.04.632131 +0100,
vertical.xlsx,The target is tilted.,135,24,0,3,0,1,1,1,1,1,1,1,1,1,1,1,1,11,12,135,space,1.9759197999999287,None,0,1,1.0111524000001282,None,space,1.6398908999999549,None,0,1,1,1,,,,,3,0,24,4,326.0154921000001,,,,,,,,,,,,,,,,,,,,,326.0003947,326.0154921000001,326.49956180000004,326.5049033,326.52469799999994,327.5496273000001,,,,,327.5498877,327.56480650000003,327.76508890000014,327.74904519999996,326.52469799999994,,,,,,,,0,1,1.0111524000001282,None,,,,,,,,854,21,M,L,2026-02-25_11h16.04.295,VisualSearch_2526_3,,2025.2.4,2026-02-25 11h16.04.632131 +0100,
vertical.xlsx,The target is tilted.,135,25,1,3,0,1,1,1,0,0,0,0,0,0,0,0,1,3,4,135,space,1.9759197999999287,None,0,1,0.5758447000000615,None,space,1.6398908999999549,None,0,1,1,1,,,,,3,1,25,6,327.76508890000014,,,,,,,,,,,,,,,,,,,,,327.7498547,327.76508890000014,328.2488813,328.25421630000005,328.2760972000001,328.86569940000004,,,,,328.86589449999997,328.88101370000004,329.08063360000006,329.06427370000006,328.2760972000001,,,,,,,,0,1,0.5758447000000615,None,,,,,,,,854,21,M,L,2026-02-25_11h16.04.295,VisualSearch_2526_3,,2025.2.4,2026-02-25 11h16.04.632131 +0100,
vertical.xlsx,The target is tilted.,135,26,2,3,1,1,1,1,1,1,1,1,0,0,0,0,0,7,8,135,space,1.9759197999999287,None,1,1,0.7591589999999542,None,space,1.6398908999999549,None,0,1,1,1,,,,,3,2,26,1,329.08063360000006,,,,,,,,,,,,,,,,,,,,,329.06473189999997,329.08063360000006,329.56511079999996,329.57037630000013,329.5914838000001,330.3648763000001,,,,,330.36503319999997,330.38099420000003,330.58083580000016,330.5648060000001,329.5914838000001,,,,,,,,1,1,0.7591589999999542,None,,,,,,,,854,21,M,L,2026-02-25_11h16.04.295,VisualSearch_2526_3,,2025.2.4,2026-02-25 11h16.04.632131 +0100,
vertical.xlsx,The target is tilted.,135,27,3,3,1,0,0,0,0,0,0,0,0,0,0,0,0,0,1,135,space,1.9759197999999287,None,1,1,0.5030479000001833,None,space,1.6398908999999549,None,0,1,1,1,,,,,3,3,27,3,330.58083580000016,,,,,,,,,,,,,,,,,,,,,330.5656100000001,330.58083580000016,331.0647005000001,331.07000140000014,331.09152029999996,331.5980572000001,,,,,331.5982768000001,331.6136920000001,331.8138461000001,331.7977343,331.09152029999996,,,,,,,,1,1,0.5030479000001833,None,,,,,,,,854,21,M,L,2026-02-25_11h16.04.295,VisualSearch_2526_3,,2025.2.4,2026-02-25 11h16.04.632131 +0100,
vertical.xlsx,The target is tilted.,135,28,4,3,0,1,1,1,1,1,1,1,0,0,0,0,1,7,8,135,space,1.9759197999999287,None,0,1,1.3838858999999957,None,space,1.6398908999999549,None,0,1,1,1,,,,,3,4,28,5,331.8138461000001,,,,,,,,,,,,,,,,,,,,,331.79852270000015,331.8138461000001,332.29761940000003,332.3029096,332.3242183,333.7133759000001,,,,,333.71349380000015,333.7296725000001,333.92973210000014,333.91371330000015,332.3242183,,,,,,,,0,1,1.3838858999999957,None,,,,,,,,854,21,M,L,2026-02-25_11h16.04.295,VisualSearch_2526_3,,2025.2.4,2026-02-25 11h16.04.632131 +0100,
vertical.xlsx,The target is tilted.,135,29,5,3,0,0,0,0,0,0,0,0,0,0,0,0,1,1,1,135,space,1.9759197999999287,None,0,1,0.4071407999999792,None,space,1.6398908999999549,None,0,1,1,1,,,,,3,5,29,7,333.92973210000014,,,,,,,,,,,,,,,,,,,,,333.9145112000001,333.92973210000014,334.4135378000001,334.4189474,334.44023560000005,334.8640659,,,,,334.86428780000006,334.8791112000001,335.0793791000001,335.0631756,334.44023560000005,,,,,,,,0,1,0.4071407999999792,None,,,,,,,,854,21,M,L,2026-02-25_11h16.04.295,VisualSearch_2526_3,,2025.2.4,2026-02-25 11h16.04.632131 +0100,
vertical.xlsx,The target is tilted.,135,30,6,3,1,1,1,1,0,0,0,0,0,0,0,0,0,3,4,135,space,1.9759197999999287,None,1,1,0.7221049999998286,None,space,1.6398908999999549,None,0,1,1,1,,,,,3,6,30,2,335.0793791000001,,,,,,,,,,,,,,,,,,,,,335.0640132000001,335.0793791000001,335.56331160000013,335.56850280000003,335.58844210000007,336.3134159000001,,,,,336.31366849999995,336.3287252,336.52897240000016,336.51284209999994,335.58844210000007,,,,,,,,1,1,0.7221049999998286,None,,,,,,,,854,21,M,L,2026-02-25_11h16.04.295,VisualSearch_2526_3,,2025.2.4,2026-02-25 11h16.04.632131 +0100,
vertical.xlsx,The target is tilted.,135,31,7,3,1,1,1,1,1,1,1,1,1,1,1,1,0,11,12,135,space,1.9759197999999287,None,0,0,1.3071480000000975,None,space,1.6398908999999549,None,0,1,1,1,,,,,3,7,31,0,336.52897240000016,,,,,,,,,,,,,,,,,,,,,336.51367930000015,336.52897240000016,337.01268690000006,337.0180485000001,337.03950699999996,338.36291030000007,,,,,338.3631318,338.37813559999995,338.57828570000015,338.5622641,337.03950699999996,,,,,,,,0,0,1.3071480000000975,None,,,,,,,,854,21,M,L,2026-02-25_11h16.04.295,VisualSearch_2526_3,,2025.2.4,2026-02-25 11h16.04.632131 +0100,
vertical.xlsx,The target is tilted.,135,32,0,4,0,1,1,1,1,1,1,1,1,1,1,1,1,11,12,135,space,1.9759197999999287,None,0,1,0.9320141000000604,None,space,1.6398908999999549,None,0,1,1,1,,,,,4,0,32,4,338.57828570000015,,,,,,,,,,,,,,,,,,,,,338.5630698,338.57828570000015,339.06206180000004,339.06736539999997,339.0887749000001,340.0291482,,,,,340.0293786,340.04408090000015,340.24409289999994,340.2279112000001,339.0887749000001,,,,,,,,0,1,0.9320141000000604,None,,,,,,,,854,21,M,L,2026-02-25_11h16.04.295,VisualSearch_2526_3,,2025.2.4,2026-02-25 11h16.04.632131 +0100,
vertical.xlsx,The target is tilted.,135,33,1,4,1,1,1,1,1,1,1,1,1,1,1,1,0,11,12,135,space,1.9759197999999287,None,1,1,0.6022365999999693,None,space,1.6398908999999549,None,0,1,1,1,,,,,4,1,33,0,340.24409289999994,,,,,,,,,,,,,,,,,,,,,340.2287229000001,340.24409289999994,340.7281273000001,340.7333489,340.75481809999997,341.36138240000014,,,,,341.36157500000013,341.37717670000006,341.57726720000005,341.5613688000001,340.75481809999997,,,,,,,,1,1,0.6022365999999693,None,,,,,,,,854,21,M,L,2026-02-25_11h16.04.295,VisualSearch_2526_3,,2025.2.4,2026-02-25 11h16.04.632131 +0100,
vertical.xlsx,The target is tilted.,135,34,2,4,1,1,1,1,0,0,0,0,0,0,0,0,0,3,4,135,space,1.9759197999999287,None,1,1,0.48575400000004265,None,space,1.6398908999999549,None,0,1,1,1,,,,,4,2,34,2,341.57726720000005,,,,,,,,,,,,,,,,,,,,,341.56220110000004,341.57726720000005,342.06109420000007,342.06642090000014,342.08797500000014,342.57777050000004,,,,,342.57798730000013,342.59347249999996,342.79359820000013,342.77735410000014,342.08797500000014,,,,,,,,1,1,0.48575400000004265,None,,,,,,,,854,21,M,L,2026-02-25_11h16.04.295,VisualSearch_2526_3,,2025.2.4,2026-02-25 11h16.04.632131 +0100,
vertical.xlsx,The target is tilted.,135,35,3,4,0,0,0,0,0,0,0,0,0,0,0,0,1,1,1,135,space,1.9759197999999287,None,0,1,0.5054344999998648,None,space,1.6398908999999549,None,0,1,1,1,,,,,4,3,35,7,342.79359820000013,,,,,,,,,,,,,,,,,,,,,342.77815340000006,342.79359820000013,343.27716250000003,343.28261640000005,343.3039461000001,343.8111159,,,,,343.81136960000003,343.82641119999994,344.02604740000015,344.01021160000005,343.3039461000001,,,,,,,,0,1,0.5054344999998648,None,,,,,,,,854,21,M,L,2026-02-25_11h16.04.295,VisualSearch_2526_3,,2025.2.4,2026-02-25 11h16.04.632131 +0100,
