file_name,block_instructions,target_example,thisN,thisTrialN,thisRepN,target_presence,opacity_1,opacity_2,opacity_3,opacity_4,opacity_5,opacity_6,opacity_7,opacity_8,opacity_9,opacity_10,opacity_11,opacity_12,n_distract,n_items,target_ori,key_resp_4.keys,key_resp_4.rt,key_resp_4.duration,key_resp.keys,key_resp.corr,key_resp.rt,key_resp.duration,key_resp_5.keys,key_resp_5.rt,key_resp_5.duration,blocks.thisRepN,blocks.thisTrialN,blocks.thisN,blocks.thisIndex,practice_trials.thisRepN,practice_trials.thisTrialN,practice_trials.thisN,practice_trials.thisIndex,trials.thisRepN,trials.thisTrialN,trials.thisN,trials.thisIndex,thisRow.t,notes,Welcome.started,WelcomeText.started,key_resp_2.started,Welcome.stopped,key_resp_2.keys,key_resp_2.rt,key_resp_2.duration,InformedConsent.started,text_4.started,InformedConsent.stopped,key_resp_6.keys,key_resp_6.rt,key_resp_6.duration,key_resp_4.started,example_target.started,text_3.started,blocks.key_resp_4.keys,blocks.key_resp_4.rt,blocks.key_resp_4.duration,FixCross.started,fixCross.started,FixCross.stopped,Stimulus.started,key_resp.started,Stimulus.stopped,practice_trials.key_resp.keys,practice_trials.key_resp.corr,practice_trials.key_resp.rt,practice_trials.key_resp.duration,BlankScreen.started,text.started,text.stopped,BlankScreen.stopped,fixCross.stopped,ExperimentStart.started,text_2.started,key_resp_5.started,ExperimentStart.stopped,blocks.key_resp_5.keys,blocks.key_resp_5.rt,blocks.key_resp_5.duration,trials.key_resp.keys,trials.key_resp.corr,trials.key_resp.rt,trials.key_resp.duration,Thanks.started,ThankYou.started,key_resp_3.started,Thanks.stopped,key_resp_3.keys,key_resp_3.rt,key_resp_3.duration,participant,leeftijd,gender,links/rechtshandig,date,expName,expVersion,psychopyVersion,expStart,
,,,,,,,,,,,,,,,,,,,,,,,,,,,,,,,,,,,,,,,,,,,,,,0.035924199999954,0.06124769999996715,0.06124769999996715,31.435102199999847,space,31.35701240000003,None,,,,,,,,,,,,,,,,,,,,,,,,,,,,,,,,,,,,,,,,,,,,,,855,21,M,R,2026-02-25_11h28.11.811,VisualSearch_2526_3,,2025.2.4,2026-02-25 11h28.12.157485 +0100,
,,,,,,,,,,,,,,,,,,,,,,,,,,,,,,,,,,,,,,,,,,,,,,,,,,,,,31.43521369999985,31.44272359999991,33.888218699999925,y,2.4505154999999377,None,,,,,,,,,,,,,,,,,,,,,,,,,,,,,,,,,,,,,,,,855,21,M,R,2026-02-25_11h28.11.811,VisualSearch_2526_3,,2025.2.4,2026-02-25 11h28.12.157485 +0100,
vertical.xlsx,The target is tilted.,135,0,0,0,0,0,0,0,0,0,0,0,0,0,0,0,1,1,1,135,space,5.491020500000104,None,0,1,0.7707052000000658,None,,,,0,0,0,1,0,0,0,7,,,,,39.45556529999999,,,,,,,,,,,,,,,33.92151239999998,33.92151239999998,33.92151239999998,space,5.491020500000104,None,39.44968959999983,39.45556529999999,39.935044800000014,39.94074060000003,39.96345129999986,40.73554659999991,0,1,0.7707052000000658,None,40.735779800000046,40.75087329999997,40.95093659999998,40.93494420000002,,,,,,,,,,,,,,,,,,,,855,21,M,R,2026-02-25_11h28.11.811,VisualSearch_2526_3,,2025.2.4,2026-02-25 11h28.12.157485 +0100,
vertical.xlsx,The target is tilted.,135,1,1,0,0,1,1,1,0,0,0,0,0,0,0,0,1,3,4,135,space,5.491020500000104,None,0,1,0.7366821999999047,None,,,,0,0,0,1,0,1,1,6,,,,,40.95093659999998,,,,,,,,,,,,,,,,,,,,,40.93569690000004,40.95093659999998,41.43488209999987,41.440331300000025,41.46203730000002,42.201937799999996,0,1,0.7366821999999047,None,42.202166399999896,42.21685639999987,42.41681339999991,42.40109119999988,41.46203730000002,,,,,,,,,,,,,,,,,,,855,21,M,R,2026-02-25_11h28.11.811,VisualSearch_2526_3,,2025.2.4,2026-02-25 11h28.12.157485 +0100,
vertical.xlsx,The target is tilted.,135,2,2,0,0,1,1,1,1,1,1,1,1,1,1,1,1,11,12,135,space,5.491020500000104,None,0,1,0.9332392999999684,None,,,,0,0,0,1,0,2,2,4,,,,,42.41681339999991,,,,,,,,,,,,,,,,,,,,,42.401869399999896,42.41681339999991,42.90076269999986,42.90626180000004,42.930134699999826,43.86755599999992,0,1,0.9332392999999684,None,43.867777599999954,43.882874799999854,44.0833396999999,44.067203099999915,42.930134699999826,,,,,,,,,,,,,,,,,,,855,21,M,R,2026-02-25_11h28.11.811,VisualSearch_2526_3,,2025.2.4,2026-02-25 11h28.12.157485 +0100,
vertical.xlsx,The target is tilted.,135,3,3,0,1,1,1,1,1,1,1,1,0,0,0,0,0,7,8,135,space,5.491020500000104,None,1,1,0.8396422999999231,None,,,,0,0,0,1,0,3,3,1,,,,,44.0833396999999,,,,,,,,,,,,,,,,,,,,,44.06794999999988,44.0833396999999,44.56702629999995,44.572726999999986,44.59445269999992,45.45020609999983,1,1,0.8396422999999231,None,45.45043910000004,45.46572079999987,45.665956699999924,45.65013399999998,44.59445269999992,,,,,,,,,,,,,,,,,,,855,21,M,R,2026-02-25_11h28.11.811,VisualSearch_2526_3,,2025.2.4,2026-02-25 11h28.12.157485 +0100,
vertical.xlsx,The target is tilted.,135,4,4,0,1,1,1,1,1,1,1,1,1,1,1,1,0,11,12,135,space,5.491020500000104,None,1,1,0.9343951000000743,None,,,,0,0,0,1,0,4,4,0,,,,,45.665956699999924,,,,,,,,,,,,,,,,,,,,,45.650883099999874,45.665956699999924,46.149956299999985,46.15527759999986,46.177531499999986,47.11593749999997,1,1,0.9343951000000743,None,47.11608260000003,47.131611899999825,47.331887699999925,47.31602369999996,46.177531499999986,,,,,,,,,,,,,,,,,,,855,21,M,R,2026-02-25_11h28.11.811,VisualSearch_2526_3,,2025.2.4,2026-02-25 11h28.12.157485 +0100,
vertical.xlsx,The target is tilted.,135,5,5,0,1,0,0,0,0,0,0,0,0,0,0,0,0,0,1,135,space,5.491020500000104,None,1,1,0.5307414999999764,None,,,,0,0,0,1,0,5,5,3,,,,,47.331887699999925,,,,,,,,,,,,,,,,,,,,,47.31679329999997,47.331887699999925,47.815678400000024,47.8212211,47.84311099999991,48.38301129999991,1,1,0.5307414999999764,None,48.38323619999983,48.39798840000003,48.598486200000025,48.582533900000044,47.84311099999991,,,,,,,,,,,,,,,,,,,855,21,M,R,2026-02-25_11h28.11.811,VisualSearch_2526_3,,2025.2.4,2026-02-25 11h28.12.157485 +0100,
vertical.xlsx,The target is tilted.,135,6,6,0,0,1,1,1,1,1,1,1,0,0,0,0,1,7,8,135,space,5.491020500000104,None,0,1,1.0925928000001477,None,,,,0,0,0,1,0,6,6,5,,,,,48.598486200000025,,,,,,,,,,,,,,,,,,,,,48.583265299999994,48.598486200000025,49.082341299999825,49.08773289999999,49.10897539999996,50.215408000000025,0,1,1.0925928000001477,None,50.21564369999987,50.23076149999997,50.431262999999944,50.4152638999999,49.10897539999996,,,,,,,,,,,,,,,,,,,855,21,M,R,2026-02-25_11h28.11.811,VisualSearch_2526_3,,2025.2.4,2026-02-25 11h28.12.157485 +0100,
vertical.xlsx,The target is tilted.,135,7,7,0,1,1,1,1,0,0,0,0,0,0,0,0,0,3,4,135,space,5.491020500000104,None,1,1,0.854219300000068,None,,,,0,0,0,1,0,7,7,2,,,,,50.431262999999944,,,,,,,,,,,,,,,,,,,,,50.41599559999986,50.431262999999944,50.915049499999895,50.919681599999876,50.93053259999988,51.79823239999996,1,1,0.854219300000068,None,51.79845299999988,51.81357119999984,52.01408789999982,51.9979472,50.93053259999988,,,,,,,,,,,,,,,,,,,855,21,M,R,2026-02-25_11h28.11.811,VisualSearch_2526_3,,2025.2.4,2026-02-25 11h28.12.157485 +0100,
vertical.xlsx,The target is tilted.,135,0,0,0,0,1,1,1,0,0,0,0,0,0,0,0,1,3,4,135,space,5.491020500000104,None,0,1,0.6445710999998937,None,space,2.405863099999806,None,0,0,0,1,,,,,0,0,0,6,54.460514200000034,,,,,,,,,,,,,,,,,,,,,54.45653329999982,54.460514200000034,54.94645689999993,54.95214759999999,54.97312899999997,55.629629499999965,,,,,55.62977819999992,55.645478499999854,55.84600569999998,55.830084999999826,,52.00599939999984,52.01408789999982,52.01408789999982,54.430829700000004,space,2.405863099999806,None,0,1,0.6445710999998937,None,,,,,,,,855,21,M,R,2026-02-25_11h28.11.811,VisualSearch_2526_3,,2025.2.4,2026-02-25 11h28.12.157485 +0100,
vertical.xlsx,The target is tilted.,135,1,1,0,1,1,1,1,1,1,1,1,0,0,0,0,0,7,8,135,space,5.491020500000104,None,0,0,0.9954950999997436,None,space,2.405863099999806,None,0,0,0,1,,,,,0,1,1,1,55.84600569999998,,,,,,,,,,,,,,,,,,,,,55.830890899999986,55.84600569999998,56.33006899999987,56.33555239999987,56.357397399999854,57.36328719999983,,,,,57.36353680000002,57.37853189999987,57.57895189999999,57.562853500000074,56.357397399999854,,,,,,,,0,0,0.9954950999997436,None,,,,,,,,855,21,M,R,2026-02-25_11h28.11.811,VisualSearch_2526_3,,2025.2.4,2026-02-25 11h28.12.157485 +0100,
vertical.xlsx,The target is tilted.,135,2,2,0,1,1,1,1,0,0,0,0,0,0,0,0,0,3,4,135,space,5.491020500000104,None,1,1,0.5876144000003478,None,space,2.405863099999806,None,0,0,0,1,,,,,0,2,2,2,57.57895189999999,,,,,,,,,,,,,,,,,,,,,57.56366070000013,57.57895189999999,58.062698199999886,58.067930199999864,58.078499100000045,58.67927329999975,,,,,58.679504299999735,58.69468959999995,58.894975799999884,58.879098800000065,58.078499100000045,,,,,,,,1,1,0.5876144000003478,None,,,,,,,,855,21,M,R,2026-02-25_11h28.11.811,VisualSearch_2526_3,,2025.2.4,2026-02-25 11h28.12.157485 +0100,
vertical.xlsx,The target is tilted.,135,3,3,0,1,0,0,0,0,0,0,0,0,0,0,0,0,0,1,135,space,5.491020500000104,None,1,1,0.48420949999990626,None,space,2.405863099999806,None,0,0,0,1,,,,,0,3,3,3,58.894975799999884,,,,,,,,,,,,,,,,,,,,,58.879960199999914,58.894975799999884,59.378770799999984,59.384199999999964,59.40617829999974,59.89606950000007,,,,,59.89632239999992,59.91100379999989,60.11138889999984,60.09541790000003,59.40617829999974,,,,,,,,1,1,0.48420949999990626,None,,,,,,,,855,21,M,R,2026-02-25_11h28.11.811,VisualSearch_2526_3,,2025.2.4,2026-02-25 11h28.12.157485 +0100,
vertical.xlsx,The target is tilted.,135,4,4,0,0,0,0,0,0,0,0,0,0,0,0,0,1,1,1,135,space,5.491020500000104,None,0,1,0.5250135000001137,None,space,2.405863099999806,None,0,0,0,1,,,,,0,4,4,7,60.11138889999984,,,,,,,,,,,,,,,,,,,,,60.096217700000125,60.11138889999984,60.5948871999999,60.60035489999973,60.621482300000025,61.161525699999856,,,,,61.16177629999993,61.176966900000025,61.377695799999856,61.36173359999975,60.621482300000025,,,,,,,,0,1,0.5250135000001137,None,,,,,,,,855,21,M,R,2026-02-25_11h28.11.811,VisualSearch_2526_3,,2025.2.4,2026-02-25 11h28.12.157485 +0100,
vertical.xlsx,The target is tilted.,135,5,5,0,1,1,1,1,1,1,1,1,1,1,1,1,0,11,12,135,space,5.491020500000104,None,1,1,0.945640800000092,None,space,2.405863099999806,None,0,0,0,1,,,,,0,5,5,0,61.377695799999856,,,,,,,,,,,,,,,,,,,,,61.36260149999998,61.377695799999856,61.86153860000013,61.866469699999925,61.87724369999978,62.82832409999992,,,,,62.828569100000095,62.843371399999796,63.04382009999972,63.0277329999999,61.87724369999978,,,,,,,,1,1,0.945640800000092,None,,,,,,,,855,21,M,R,2026-02-25_11h28.11.811,VisualSearch_2526_3,,2025.2.4,2026-02-25 11h28.12.157485 +0100,
vertical.xlsx,The target is tilted.,135,6,6,0,0,1,1,1,1,1,1,1,1,1,1,1,1,11,12,135,space,5.491020500000104,None,0,1,1.4926014999996369,None,space,2.405863099999806,None,0,0,0,1,,,,,0,6,6,4,63.04382009999972,,,,,,,,,,,,,,,,,,,,,63.02860439999995,63.04382009999972,63.52721119999978,63.532788900000014,63.55438300000014,65.06062569999995,,,,,65.06085339999981,65.07587460000013,65.2763374000001,65.26042409999991,63.55438300000014,,,,,,,,0,1,1.4926014999996369,None,,,,,,,,855,21,M,R,2026-02-25_11h28.11.811,VisualSearch_2526_3,,2025.2.4,2026-02-25 11h28.12.157485 +0100,
vertical.xlsx,The target is tilted.,135,7,7,0,0,1,1,1,1,1,1,1,0,0,0,0,1,7,8,135,space,5.491020500000104,None,0,1,0.9002538999998251,None,space,2.405863099999806,None,0,0,0,1,,,,,0,7,7,5,65.2763374000001,,,,,,,,,,,,,,,,,,,,,65.2612838,65.2763374000001,65.76008899999988,65.76549889999978,65.78664849999996,66.69379879999997,,,,,66.69406230000004,66.70878089999997,66.90924499999983,66.89321389999986,65.78664849999996,,,,,,,,0,1,0.9002538999998251,None,,,,,,,,855,21,M,R,2026-02-25_11h28.11.811,VisualSearch_2526_3,,2025.2.4,2026-02-25 11h28.12.157485 +0100,
vertical.xlsx,The target is tilted.,135,8,0,1,0,1,1,1,1,1,1,1,0,0,0,0,1,7,8,135,space,5.491020500000104,None,0,1,0.7241303000000698,None,space,2.405863099999806,None,0,0,0,1,,,,,1,0,8,5,66.90924499999983,,,,,,,,,,,,,,,,,,,,,66.89401719999978,66.90924499999983,67.39265840000007,67.39819269999998,67.41968210000005,68.1596414999999,,,,,68.15986900000007,68.17487410000012,68.3750541999998,68.35914539999976,67.41968210000005,,,,,,,,0,1,0.7241303000000698,None,,,,,,,,855,21,M,R,2026-02-25_11h28.11.811,VisualSearch_2526_3,,2025.2.4,2026-02-25 11h28.12.157485 +0100,
vertical.xlsx,The target is tilted.,135,9,1,1,1,1,1,1,0,0,0,0,0,0,0,0,0,3,4,135,space,5.491020500000104,None,1,1,0.6041553000000022,None,space,2.405863099999806,None,0,0,0,1,,,,,1,1,9,2,68.3750541999998,,,,,,,,,,,,,,,,,,,,,68.3599822000001,68.3750541999998,68.8590651999998,68.86461069999996,68.88613309999982,69.49289539999972,,,,,69.49315639999986,69.50792180000008,69.70825789999981,69.69188579999991,68.88613309999982,,,,,,,,1,1,0.6041553000000022,None,,,,,,,,855,21,M,R,2026-02-25_11h28.11.811,VisualSearch_2526_3,,2025.2.4,2026-02-25 11h28.12.157485 +0100,
vertical.xlsx,The target is tilted.,135,10,2,1,1,1,1,1,1,1,1,1,1,1,1,1,0,11,12,135,space,5.491020500000104,None,1,1,0.6529359000001023,None,space,2.405863099999806,None,0,0,0,1,,,,,1,2,10,0,69.70825789999981,,,,,,,,,,,,,,,,,,,,,69.69277190000003,69.70825789999981,70.19177059999993,70.19693060000009,70.21895189999987,70.87550009999995,,,,,70.8757298999999,70.890758,71.09120359999997,71.07511410000006,70.21895189999987,,,,,,,,1,1,0.6529359000001023,None,,,,,,,,855,21,M,R,2026-02-25_11h28.11.811,VisualSearch_2526_3,,2025.2.4,2026-02-25 11h28.12.157485 +0100,
vertical.xlsx,The target is tilted.,135,11,3,1,0,1,1,1,0,0,0,0,0,0,0,0,1,3,4,135,space,5.491020500000104,None,0,1,0.48318799999969997,None,space,2.405863099999806,None,0,0,0,1,,,,,1,3,11,6,71.09120359999997,,,,,,,,,,,,,,,,,,,,,71.07595979999996,71.09120359999997,71.57504949999975,71.58052439999983,71.60247630000003,72.09191469999996,,,,,72.09219600000006,72.10708019999993,72.30747109999993,72.29137469999978,71.60247630000003,,,,,,,,0,1,0.48318799999969997,None,,,,,,,,855,21,M,R,2026-02-25_11h28.11.811,VisualSearch_2526_3,,2025.2.4,2026-02-25 11h28.12.157485 +0100,
vertical.xlsx,The target is tilted.,135,12,4,1,1,1,1,1,1,1,1,1,0,0,0,0,0,7,8,135,space,5.491020500000104,None,0,0,0.6981423000001996,None,space,2.405863099999806,None,0,0,0,1,,,,,1,4,12,1,72.30747109999993,,,,,,,,,,,,,,,,,,,,,72.29231949999985,72.30747109999993,72.79137450000007,72.79689159999998,72.81851740000002,73.52434140000014,,,,,73.52449160000015,73.53994620000003,73.74004220000006,73.72388109999974,72.81851740000002,,,,,,,,0,0,0.6981423000001996,None,,,,,,,,855,21,M,R,2026-02-25_11h28.11.811,VisualSearch_2526_3,,2025.2.4,2026-02-25 11h28.12.157485 +0100,
vertical.xlsx,The target is tilted.,135,13,5,1,1,0,0,0,0,0,0,0,0,0,0,0,0,0,1,135,space,5.491020500000104,None,1,1,0.5099424999998519,None,space,2.405863099999806,None,0,0,0,1,,,,,1,5,13,3,73.74004220000006,,,,,,,,,,,,,,,,,,,,,73.72474639999973,73.74004220000006,74.22415390000015,74.22953619999998,74.2514412999999,74.77402249999977,,,,,74.77424990000009,74.78949009999997,74.98986259999992,74.97381379999979,74.2514412999999,,,,,,,,1,1,0.5099424999998519,None,,,,,,,,855,21,M,R,2026-02-25_11h28.11.811,VisualSearch_2526_3,,2025.2.4,2026-02-25 11h28.12.157485 +0100,
vertical.xlsx,The target is tilted.,135,14,6,1,0,0,0,0,0,0,0,0,0,0,0,0,1,1,1,135,space,5.491020500000104,None,0,1,0.5463061999998899,None,space,2.405863099999806,None,0,0,0,1,,,,,1,6,14,7,74.98986259999992,,,,,,,,,,,,,,,,,,,,,74.97465019999981,74.98986259999992,75.4737341,75.47909619999973,75.50000749999981,76.05715490000011,,,,,76.05737509999972,76.07241489999979,76.27281689999973,76.25642669999979,75.50000749999981,,,,,,,,0,1,0.5463061999998899,None,,,,,,,,855,21,M,R,2026-02-25_11h28.11.811,VisualSearch_2526_3,,2025.2.4,2026-02-25 11h28.12.157485 +0100,
vertical.xlsx,The target is tilted.,135,15,7,1,0,1,1,1,1,1,1,1,1,1,1,1,1,11,12,135,space,5.491020500000104,None,0,1,0.6805163000003631,None,space,2.405863099999806,None,0,0,0,1,,,,,1,7,15,4,76.27281689999973,,,,,,,,,,,,,,,,,,,,,76.25728059999983,76.27281689999973,76.75646770000003,76.76195139999982,76.77988329999971,77.47226339999997,,,,,77.47238479999987,77.48845140000003,,77.6726450000001,76.77988329999971,,,,,,,,0,1,0.6805163000003631,None,,,,,,,,855,21,M,R,2026-02-25_11h28.11.811,VisualSearch_2526_3,,2025.2.4,2026-02-25 11h28.12.157485 +0100,
vertical.xlsx,The target is tilted.,135,16,0,2,0,0,0,0,0,0,0,0,0,0,0,0,1,1,1,135,space,5.491020500000104,None,0,1,0.7041254999999182,None,space,2.405863099999806,None,0,0,0,1,,,,,2,0,16,7,77.68893440000011,,,,,,,,,,,,,,,,,,,,,77.67351520000011,77.68893440000011,78.17280879999998,78.17863409999973,78.20039529999985,78.9062399999998,,,,,78.90646939999988,78.92140029999973,79.1219759999999,79.10563830000001,,,,,,,,,0,1,0.7041254999999182,None,,,,,,,,855,21,M,R,2026-02-25_11h28.11.811,VisualSearch_2526_3,,2025.2.4,2026-02-25 11h28.12.157485 +0100,
vertical.xlsx,The target is tilted.,135,17,1,2,1,1,1,1,1,1,1,1,0,0,0,0,0,7,8,135,space,5.491020500000104,None,1,1,0.5400260000001254,None,space,2.405863099999806,None,0,0,0,1,,,,,2,1,17,1,79.1219759999999,,,,,,,,,,,,,,,,,,,,,79.10649699999976,79.1219759999999,79.60551940000005,79.61112800000001,79.63255919999983,80.188267,,,,,80.18839040000012,80.20451539999976,80.40475400000014,80.38875640000015,79.63255919999983,,,,,,,,1,1,0.5400260000001254,None,,,,,,,,855,21,M,R,2026-02-25_11h28.11.811,VisualSearch_2526_3,,2025.2.4,2026-02-25 11h28.12.157485 +0100,
vertical.xlsx,The target is tilted.,135,18,2,2,1,1,1,1,1,1,1,1,1,1,1,1,0,11,12,135,space,5.491020500000104,None,1,1,0.5403430000001208,None,space,2.405863099999806,None,0,0,0,1,,,,,2,2,18,0,80.40475400000014,,,,,,,,,,,,,,,,,,,,,80.38958959999991,80.40475400000014,80.88825799999995,80.8936647999999,80.91507430000001,81.47220149999976,,,,,81.47245710000016,81.48722689999977,81.68775430000005,81.67166109999971,80.91507430000001,,,,,,,,1,1,0.5403430000001208,None,,,,,,,,855,21,M,R,2026-02-25_11h28.11.811,VisualSearch_2526_3,,2025.2.4,2026-02-25 11h28.12.157485 +0100,
vertical.xlsx,The target is tilted.,135,19,3,2,0,1,1,1,1,1,1,1,1,1,1,1,1,11,12,135,space,5.491020500000104,None,0,1,0.7827355999997962,None,space,2.405863099999806,None,0,0,0,1,,,,,2,3,19,4,81.68775430000005,,,,,,,,,,,,,,,,,,,,,81.67253829999981,81.68775430000005,82.17154459999983,82.17673190000005,82.18891529999973,82.98796249999987,,,,,82.98818900000015,83.00340779999988,83.20380470000009,83.18783989999974,82.18891529999973,,,,,,,,0,1,0.7827355999997962,None,,,,,,,,855,21,M,R,2026-02-25_11h28.11.811,VisualSearch_2526_3,,2025.2.4,2026-02-25 11h28.12.157485 +0100,
vertical.xlsx,The target is tilted.,135,20,4,2,1,1,1,1,0,0,0,0,0,0,0,0,0,3,4,135,space,5.491020500000104,None,1,1,0.5516575999999986,None,space,2.405863099999806,None,0,0,0,1,,,,,2,4,20,2,83.20380470000009,,,,,,,,,,,,,,,,,,,,,83.18867199999977,83.20380470000009,83.68783489999987,83.69334019999997,83.7109833999998,84.27128979999998,,,,,84.27154519999976,84.28617299999996,84.48678549999977,84.47074019999991,83.7109833999998,,,,,,,,1,1,0.5516575999999986,None,,,,,,,,855,21,M,R,2026-02-25_11h28.11.811,VisualSearch_2526_3,,2025.2.4,2026-02-25 11h28.12.157485 +0100,
vertical.xlsx,The target is tilted.,135,21,5,2,0,1,1,1,0,0,0,0,0,0,0,0,1,3,4,135,space,5.491020500000104,None,0,1,0.5932841999997436,None,space,2.405863099999806,None,0,0,0,1,,,,,2,5,21,6,84.48678549999977,,,,,,,,,,,,,,,,,,,,,84.47157629999992,84.48678549999977,84.97025059999987,84.9757153999999,84.99846990000015,85.60426740000003,,,,,85.60450420000006,85.61925539999993,85.81969859999981,85.80331660000002,84.99846990000015,,,,,,,,0,1,0.5932841999997436,None,,,,,,,,855,21,M,R,2026-02-25_11h28.11.811,VisualSearch_2526_3,,2025.2.4,2026-02-25 11h28.12.157485 +0100,
vertical.xlsx,The target is tilted.,135,22,6,2,0,1,1,1,1,1,1,1,0,0,0,0,1,7,8,135,space,5.491020500000104,None,0,1,0.7510016000001087,None,space,2.405863099999806,None,0,0,0,1,,,,,2,6,22,5,85.81969859999981,,,,,,,,,,,,,,,,,,,,,85.80414169999995,85.81969859999981,86.30358019999994,86.30864819999988,86.31934379999984,87.0858530999999,,,,,87.08597789999976,87.10184879999997,87.30253099999982,87.2863041999999,86.31934379999984,,,,,,,,0,1,0.7510016000001087,None,,,,,,,,855,21,M,R,2026-02-25_11h28.11.811,VisualSearch_2526_3,,2025.2.4,2026-02-25 11h28.12.157485 +0100,
vertical.xlsx,The target is tilted.,135,23,7,2,1,0,0,0,0,0,0,0,0,0,0,0,0,0,1,135,space,5.491020500000104,None,1,1,0.4935864999997648,None,space,2.405863099999806,None,0,0,0,1,,,,,2,7,23,3,87.30253099999982,,,,,,,,,,,,,,,,,,,,,87.2871467,87.30253099999982,87.78611139999975,87.79097719999982,87.80238699999973,88.30319950000012,,,,,88.30340269999988,88.3181282999999,88.51883640000005,88.50283600000012,,,,,,,,,1,1,0.4935864999997648,None,,,,,,,,855,21,M,R,2026-02-25_11h28.11.811,VisualSearch_2526_3,,2025.2.4,2026-02-25 11h28.12.157485 +0100,
vertical.xlsx,The target is tilted.,135,24,0,3,0,1,1,1,1,1,1,1,1,1,1,1,1,11,12,135,space,5.491020500000104,None,0,1,0.4801081999999042,None,space,2.405863099999806,None,0,0,0,1,,,,,3,0,24,4,88.51883640000005,,,,,,,,,,,,,,,,,,,,,88.50363400000015,88.51883640000005,89.0024456000001,89.00787489999993,89.02895450000005,89.51975270000003,,,,,89.52000420000013,89.53467980000005,89.73499760000004,89.71903969999994,89.02895450000005,,,,,,,,0,1,0.4801081999999042,None,,,,,,,,855,21,M,R,2026-02-25_11h28.11.811,VisualSearch_2526_3,,2025.2.4,2026-02-25 11h28.12.157485 +0100,
vertical.xlsx,The target is tilted.,135,25,1,3,0,0,0,0,0,0,0,0,0,0,0,0,1,1,1,135,space,5.491020500000104,None,0,1,0.7014019000002918,None,space,2.405863099999806,None,0,0,0,1,,,,,3,1,25,7,89.73499760000004,,,,,,,,,,,,,,,,,,,,,89.7198954999999,89.73499760000004,90.21886769999992,90.22437929999978,90.2460857000001,90.9522750000001,,,,,90.95248110000011,90.96756419999974,91.16795599999978,91.15195499999982,90.2460857000001,,,,,,,,0,1,0.7014019000002918,None,,,,,,,,855,21,M,R,2026-02-25_11h28.11.811,VisualSearch_2526_3,,2025.2.4,2026-02-25 11h28.12.157485 +0100,
vertical.xlsx,The target is tilted.,135,26,2,3,1,1,1,1,1,1,1,1,1,1,1,1,0,11,12,135,space,5.491020500000104,None,0,0,0.6190612000000328,None,space,2.405863099999806,None,0,0,0,1,,,,,3,2,26,0,91.16795599999978,,,,,,,,,,,,,,,,,,,,,91.15282849999994,91.16795599999978,91.65179269999999,91.6572444999997,91.67904589999989,92.30188559999988,,,,,92.30211759999975,92.31711769999993,92.51746469999989,92.50149839999995,91.67904589999989,,,,,,,,0,0,0.6190612000000328,None,,,,,,,,855,21,M,R,2026-02-25_11h28.11.811,VisualSearch_2526_3,,2025.2.4,2026-02-25 11h28.12.157485 +0100,
vertical.xlsx,The target is tilted.,135,27,3,3,1,0,0,0,0,0,0,0,0,0,0,0,0,0,1,135,space,5.491020500000104,None,1,1,0.7099045999998452,None,space,2.405863099999806,None,0,0,0,1,,,,,3,3,27,3,92.51746469999989,,,,,,,,,,,,,,,,,,,,,92.50233949999983,92.51746469999989,93.00095269999974,93.00385939999978,93.01685050000015,93.73486460000004,,,,,93.73506889999999,93.74990639999987,93.95003610000003,93.93389260000004,93.01685050000015,,,,,,,,1,1,0.7099045999998452,None,,,,,,,,855,21,M,R,2026-02-25_11h28.11.811,VisualSearch_2526_3,,2025.2.4,2026-02-25 11h28.12.157485 +0100,
vertical.xlsx,The target is tilted.,135,28,4,3,1,1,1,1,0,0,0,0,0,0,0,0,0,3,4,135,space,5.491020500000104,None,1,1,0.5148595000000569,None,space,2.405863099999806,None,0,0,0,1,,,,,3,4,28,2,93.95003610000003,,,,,,,,,,,,,,,,,,,,,93.93469340000001,93.95003610000003,94.43399079999972,94.43942800000013,94.46113359999981,94.98432099999991,,,,,94.98452439999983,94.99920530000009,95.20003499999984,95.18352120000009,94.46113359999981,,,,,,,,1,1,0.5148595000000569,None,,,,,,,,855,21,M,R,2026-02-25_11h28.11.811,VisualSearch_2526_3,,2025.2.4,2026-02-25 11h28.12.157485 +0100,
vertical.xlsx,The target is tilted.,135,29,5,3,0,1,1,1,1,1,1,1,0,0,0,0,1,7,8,135,space,5.491020500000104,None,0,1,0.5700988000003235,None,space,2.405863099999806,None,0,0,0,1,,,,,3,5,29,5,95.20003499999984,,,,,,,,,,,,,,,,,,,,,95.18407290000005,95.20003499999984,95.68377539999983,95.6894014999998,95.70704320000004,96.28416220000008,,,,,96.28442989999985,96.29904469999974,96.49955409999984,96.48351259999981,95.70704320000004,,,,,,,,0,1,0.5700988000003235,None,,,,,,,,855,21,M,R,2026-02-25_11h28.11.811,VisualSearch_2526_3,,2025.2.4,2026-02-25 11h28.12.157485 +0100,
vertical.xlsx,The target is tilted.,135,30,6,3,1,1,1,1,1,1,1,1,0,0,0,0,0,7,8,135,space,5.491020500000104,None,1,1,0.5219266999997672,None,space,2.405863099999806,None,0,0,0,1,,,,,3,6,30,1,96.49955409999984,,,,,,,,,,,,,,,,,,,,,96.48432550000007,96.49955409999984,96.9834308999998,96.9888977999999,97.01094419999981,97.54990069999985,,,,,97.55012859999988,97.56533339999987,97.76565729999993,97.74944830000004,97.01094419999981,,,,,,,,1,1,0.5219266999997672,None,,,,,,,,855,21,M,R,2026-02-25_11h28.11.811,VisualSearch_2526_3,,2025.2.4,2026-02-25 11h28.12.157485 +0100,
vertical.xlsx,The target is tilted.,135,31,7,3,0,1,1,1,0,0,0,0,0,0,0,0,1,3,4,135,space,5.491020500000104,None,0,1,0.5106722000000445,None,space,2.405863099999806,None,0,0,0,1,,,,,3,7,31,6,97.76565729999993,,,,,,,,,,,,,,,,,,,,,97.75027249999994,97.76565729999993,98.24968149999995,98.25511740000002,98.27687149999974,98.79872949999981,,,,,98.79885430000013,98.81522970000015,,98.99911870000005,98.27687149999974,,,,,,,,0,1,0.5106722000000445,None,,,,,,,,855,21,M,R,2026-02-25_11h28.11.811,VisualSearch_2526_3,,2025.2.4,2026-02-25 11h28.12.157485 +0100,
vertical.xlsx,The target is tilted.,135,32,0,4,0,1,1,1,0,0,0,0,0,0,0,0,1,3,4,135,space,5.491020500000104,None,0,1,0.5312058999998044,None,space,2.405863099999806,None,0,0,0,1,,,,,4,0,32,6,99.01512379999986,,,,,,,,,,,,,,,,,,,,,98.99999230000003,99.01512379999986,99.49899849999974,99.50459210000008,99.51906569999983,100.0655799000001,,,,,100.06580129999975,100.08116440000003,100.28167829999984,100.26551889999973,99.51906569999983,,,,,,,,0,1,0.5312058999998044,None,,,,,,,,855,21,M,R,2026-02-25_11h28.11.811,VisualSearch_2526_3,,2025.2.4,2026-02-25 11h28.12.157485 +0100,
vertical.xlsx,The target is tilted.,135,33,1,4,1,1,1,1,1,1,1,1,1,1,1,1,0,11,12,135,space,5.491020500000104,None,1,1,0.9159277000003385,None,space,2.405863099999806,None,0,0,0,1,,,,,4,1,33,0,100.28167829999984,,,,,,,,,,,,,,,,,,,,,100.26636069999995,100.28167829999984,100.76519479999979,100.77070640000011,100.79105489999984,101.71530499999972,,,,,101.71553300000005,101.73073900000009,101.93116439999994,101.91514000000006,100.79105489999984,,,,,,,,1,1,0.9159277000003385,None,,,,,,,,855,21,M,R,2026-02-25_11h28.11.811,VisualSearch_2526_3,,2025.2.4,2026-02-25 11h28.12.157485 +0100,
vertical.xlsx,The target is tilted.,135,34,2,4,0,0,0,0,0,0,0,0,0,0,0,0,1,1,1,135,space,5.491020500000104,None,0,1,0.5340744000000086,None,space,2.405863099999806,None,0,0,0,1,,,,,4,2,34,7,101.93116439999994,,,,,,,,,,,,,,,,,,,,,101.91593899999998,101.93116439999994,102.41486619999978,102.42032160000008,102.44224359999998,102.98205240000016,,,,,102.98228370000015,102.99703520000003,103.19741279999971,103.18118400000003,102.44224359999998,,,,,,,,0,1,0.5340744000000086,None,,,,,,,,855,21,M,R,2026-02-25_11h28.11.811,VisualSearch_2526_3,,2025.2.4,2026-02-25 11h28.12.157485 +0100,
vertical.xlsx,The target is tilted.,135,35,3,4,1,0,0,0,0,0,0,0,0,0,0,0,0,0,1,135,space,5.491020500000104,None,1,1,0.5071674000000712,None,space,2.405863099999806,None,0,0,0,1,,,,,4,3,35,3,103.19741279999971,,,,,,,,,,,,,,,,,,,,,103.1820659,103.19741279999971,103.68100359999971,103.68648359999997,103.70778569999993,104.23120740000013,,,,,104.23143140000002,104.24645909999981,104.44696410000006,104.43102210000006,103.70778569999993,,,,,,,,1,1,0.5071674000000712,None,,,,,,,,855,21,M,R,2026-02-25_11h28.11.811,VisualSearch_2526_3,,2025.2.4,2026-02-25 11h28.12.157485 +0100,
vertical.xlsx,The target is tilted.,135,36,4,4,0,1,1,1,1,1,1,1,0,0,0,0,1,7,8,135,space,5.491020500000104,None,0,1,0.9798695999998017,None,space,2.405863099999806,None,0,0,0,1,,,,,4,4,36,5,104.44696410000006,,,,,,,,,,,,,,,,,,,,,104.43187919999991,104.44696410000006,104.9307616000001,104.9363456000001,104.95703580000009,105.94748589999972,,,,,105.94769210000004,105.9626103999999,106.16279619999978,106.14665419999983,104.95703580000009,,,,,,,,0,1,0.9798695999998017,None,,,,,,,,855,21,M,R,2026-02-25_11h28.11.811,VisualSearch_2526_3,,2025.2.4,2026-02-25 11h28.12.157485 +0100,
vertical.xlsx,The target is tilted.,135,37,5,4,0,1,1,1,1,1,1,1,1,1,1,1,1,11,12,135,space,5.491020500000104,None,0,1,0.7166233000002649,None,space,2.405863099999806,None,0,0,0,1,,,,,4,5,37,4,106.16279619999978,,,,,,,,,,,,,,,,,,,,,106.14748819999977,106.16279619999978,106.64609949999976,106.64913539999998,106.66233469999997,107.38062769999988,,,,,107.38085180000007,107.39555079999991,107.59578069999998,107.57954949999976,106.66233469999997,,,,,,,,0,1,0.7166233000002649,None,,,,,,,,855,21,M,R,2026-02-25_11h28.11.811,VisualSearch_2526_3,,2025.2.4,2026-02-25 11h28.12.157485 +0100,
vertical.xlsx,The target is tilted.,135,38,6,4,1,1,1,1,0,0,0,0,0,0,0,0,0,3,4,135,space,5.491020500000104,None,1,1,0.608399300000201,None,space,2.405863099999806,None,0,0,0,1,,,,,4,6,38,2,107.59578069999998,,,,,,,,,,,,,,,,,,,,,107.58038869999973,107.59578069999998,108.07957949999991,108.08522640000001,108.10683169999993,108.72946219999994,,,,,108.72968450000008,108.74504519999982,108.94509740000012,108.92933949999997,108.10683169999993,,,,,,,,1,1,0.608399300000201,None,,,,,,,,855,21,M,R,2026-02-25_11h28.11.811,VisualSearch_2526_3,,2025.2.4,2026-02-25 11h28.12.157485 +0100,
vertical.xlsx,The target is tilted.,135,39,7,4,1,1,1,1,1,1,1,1,0,0,0,0,0,7,8,135,space,5.491020500000104,None,1,1,0.5101855000002615,None,space,2.405863099999806,None,0,0,0,1,,,,,4,7,39,1,108.94509740000012,,,,,,,,,,,,,,,,,,,,,108.93018369999982,108.94509740000012,109.4293732000001,109.43481339999971,109.45586249999997,109.97957689999976,,,,,109.9798439000001,109.99461289999999,110.19466509999984,110.17849960000012,109.45586249999997,,,,,,,,1,1,0.5101855000002615,None,,,,,,,,855,21,M,R,2026-02-25_11h28.11.811,VisualSearch_2526_3,,2025.2.4,2026-02-25 11h28.12.157485 +0100,
vertical.xlsx,The target is tilted.,135,40,0,5,1,1,1,1,1,1,1,1,1,1,1,1,0,11,12,135,space,5.491020500000104,None,1,1,0.4320253999999295,None,space,2.405863099999806,None,0,0,0,1,,,,,5,0,40,0,110.19466509999984,,,,,,,,,,,,,,,,,,,,,110.17899639999996,110.19466509999984,110.67887710000014,110.68435139999974,110.70492220000006,111.14605780000011,,,,,111.1462904,111.16094459999977,111.3614333999999,111.34538250000014,110.70492220000006,,,,,,,,1,1,0.4320253999999295,None,,,,,,,,855,21,M,R,2026-02-25_11h28.11.811,VisualSearch_2526_3,,2025.2.4,2026-02-25 11h28.12.157485 +0100,
vertical.xlsx,The target is tilted.,135,41,1,5,0,1,1,1,1,1,1,1,1,1,1,1,1,11,12,135,space,5.491020500000104,None,0,1,0.7813304999999673,None,space,2.405863099999806,None,0,0,0,1,,,,,5,1,41,4,111.3614333999999,,,,,,,,,,,,,,,,,,,,,111.34620210000003,111.3614333999999,111.84498729999996,111.85047380000015,111.87132040000006,112.66199710000001,,,,,112.66219869999986,112.67685239999992,112.87754940000013,112.86139270000012,111.87132040000006,,,,,,,,0,1,0.7813304999999673,None,,,,,,,,855,21,M,R,2026-02-25_11h28.11.811,VisualSearch_2526_3,,2025.2.4,2026-02-25 11h28.12.157485 +0100,
vertical.xlsx,The target is tilted.,135,42,2,5,1,1,1,1,0,0,0,0,0,0,0,0,0,3,4,135,space,5.491020500000104,None,1,1,0.5050062000000253,None,space,2.405863099999806,None,0,0,0,1,,,,,5,2,42,2,112.87754940000013,,,,,,,,,,,,,,,,,,,,,112.86225049999985,112.87754940000013,113.36137539999982,113.3669031999998,113.38893189999999,113.91046129999995,,,,,113.9105869,113.92699369999991,114.1270685999998,114.11081729999978,113.38893189999999,,,,,,,,1,1,0.5050062000000253,None,,,,,,,,855,21,M,R,2026-02-25_11h28.11.811,VisualSearch_2526_3,,2025.2.4,2026-02-25 11h28.12.157485 +0100,
vertical.xlsx,The target is tilted.,135,43,3,5,0,1,1,1,0,0,0,0,0,0,0,0,1,3,4,135,space,5.491020500000104,None,0,1,0.5390128999997614,None,space,2.405863099999806,None,0,0,0,1,,,,,5,3,43,6,114.1270685999998,,,,,,,,,,,,,,,,,,,,,114.11166180000009,114.1270685999998,114.6109262,114.61643809999987,114.63777399999981,115.17814520000002,,,,,115.17837839999993,115.19268280000006,115.39347559999987,115.3770242999999,114.63777399999981,,,,,,,,0,1,0.5390128999997614,None,,,,,,,,855,21,M,R,2026-02-25_11h28.11.811,VisualSearch_2526_3,,2025.2.4,2026-02-25 11h28.12.157485 +0100,
vertical.xlsx,The target is tilted.,135,44,4,5,1,1,1,1,1,1,1,1,0,0,0,0,0,7,8,135,space,5.491020500000104,None,0,0,0.807144899999912,None,space,2.405863099999806,None,0,0,0,1,,,,,5,4,44,1,115.39347559999987,,,,,,,,,,,,,,,,,,,,,115.37784899999997,115.39347559999987,115.87713230000008,115.8826469999999,115.89997510000012,116.71049809999977,,,,,116.71074499999986,116.72585339999978,116.92621509999981,116.90989379999974,115.89997510000012,,,,,,,,0,0,0.807144899999912,None,,,,,,,,855,21,M,R,2026-02-25_11h28.11.811,VisualSearch_2526_3,,2025.2.4,2026-02-25 11h28.12.157485 +0100,
vertical.xlsx,The target is tilted.,135,45,5,5,0,0,0,0,0,0,0,0,0,0,0,0,1,1,1,135,space,5.491020500000104,None,0,1,0.6676487999998244,None,space,2.405863099999806,None,0,0,0,1,,,,,5,5,45,7,116.92621509999981,,,,,,,,,,,,,,,,,,,,,116.91076609999982,116.92621509999981,117.40987940000014,117.41548650000004,117.43677829999979,118.1100763999998,,,,,118.11030619999974,118.12540080000008,118.32543589999977,118.30961900000011,117.43677829999979,,,,,,,,0,1,0.6676487999998244,None,,,,,,,,855,21,M,R,2026-02-25_11h28.11.811,VisualSearch_2526_3,,2025.2.4,2026-02-25 11h28.12.157485 +0100,
vertical.xlsx,The target is tilted.,135,46,6,5,1,0,0,0,0,0,0,0,0,0,0,0,0,0,1,135,space,5.491020500000104,None,1,1,0.49739939999972194,None,space,2.405863099999806,None,0,0,0,1,,,,,5,6,46,3,118.32543589999977,,,,,,,,,,,,,,,,,,,,,118.31054360000007,118.32543589999977,118.80954310000016,118.81503500000008,118.8335302999999,119.34318859999985,,,,,119.34339899999986,119.35821439999972,119.55874779999976,119.54274459999988,118.8335302999999,,,,,,,,1,1,0.49739939999972194,None,,,,,,,,855,21,M,R,2026-02-25_11h28.11.811,VisualSearch_2526_3,,2025.2.4,2026-02-25 11h28.12.157485 +0100,
vertical.xlsx,The target is tilted.,135,47,7,5,0,1,1,1,1,1,1,1,0,0,0,0,1,7,8,135,space,5.491020500000104,None,0,1,1.1307209000001421,None,space,2.405863099999806,None,0,0,0,1,,,,,5,7,47,5,119.55874779999976,,,,,,,,,,,,,,,,,,,,,119.5435480000001,119.55874779999976,120.04239899999993,120.04790580000008,120.0667755999998,121.2093034999998,,,,,121.20954840000013,121.22432660000004,121.42472969999972,121.4087254000001,120.0667755999998,,,,,,,,0,1,1.1307209000001421,None,,,,,,,,855,21,M,R,2026-02-25_11h28.11.811,VisualSearch_2526_3,,2025.2.4,2026-02-25 11h28.12.157485 +0100,
vertical.xlsx,The target is tilted.,135,48,0,6,0,1,1,1,0,0,0,0,0,0,0,0,1,3,4,135,space,5.491020500000104,None,0,1,0.5568193999997675,None,space,2.405863099999806,None,0,0,0,1,,,,,6,0,48,6,121.42472969999972,,,,,,,,,,,,,,,,,,,,,121.40954959999999,121.42472969999972,121.90854009999975,121.9131539,121.92439079999986,122.49231269999973,,,,,122.49257970000008,122.5072538999998,122.70760509999991,122.69132039999977,121.92439079999986,,,,,,,,0,1,0.5568193999997675,None,,,,,,,,855,21,M,R,2026-02-25_11h28.11.811,VisualSearch_2526_3,,2025.2.4,2026-02-25 11h28.12.157485 +0100,
vertical.xlsx,The target is tilted.,135,49,1,6,0,1,1,1,1,1,1,1,1,1,1,1,1,11,12,135,space,5.491020500000104,None,0,1,1.013510999999653,None,space,2.405863099999806,None,0,0,0,1,,,,,6,1,49,4,122.70760509999991,,,,,,,,,,,,,,,,,,,,,122.69218950000004,122.70760509999991,123.19122079999988,123.19709599999987,123.2188129000001,124.2419804000001,,,,,124.24220979999973,124.2564483000001,124.45708160000004,124.44096639999998,123.2188129000001,,,,,,,,0,1,1.013510999999653,None,,,,,,,,855,21,M,R,2026-02-25_11h28.11.811,VisualSearch_2526_3,,2025.2.4,2026-02-25 11h28.12.157485 +0100,
vertical.xlsx,The target is tilted.,135,50,2,6,0,1,1,1,1,1,1,1,0,0,0,0,1,7,8,135,space,5.491020500000104,None,0,1,0.7034039000000121,None,space,2.405863099999806,None,0,0,0,1,,,,,6,2,50,5,124.45708160000004,,,,,,,,,,,,,,,,,,,,,124.44180929999993,124.45708160000004,124.94091889999982,124.94639169999982,124.9634729999998,125.67436869999983,,,,,125.67456859999993,125.68950339999992,125.88994619999994,125.87372959999993,124.9634729999998,,,,,,,,0,1,0.7034039000000121,None,,,,,,,,855,21,M,R,2026-02-25_11h28.11.811,VisualSearch_2526_3,,2025.2.4,2026-02-25 11h28.12.157485 +0100,
vertical.xlsx,The target is tilted.,135,51,3,6,1,1,1,1,1,1,1,1,0,0,0,0,0,7,8,135,space,5.491020500000104,None,1,1,1.0618885000003502,None,space,2.405863099999806,None,0,0,0,1,,,,,6,3,51,1,125.88994619999994,,,,,,,,,,,,,,,,,,,,,125.8745786999998,125.88994619999994,126.37383920000002,126.37932409999985,126.40124919999971,127.47387230000004,,,,,127.47414380000009,127.48884709999993,127.68943790000003,127.67341549999992,126.40124919999971,,,,,,,,1,1,1.0618885000003502,None,,,,,,,,855,21,M,R,2026-02-25_11h28.11.811,VisualSearch_2526_3,,2025.2.4,2026-02-25 11h28.12.157485 +0100,
vertical.xlsx,The target is tilted.,135,52,4,6,1,1,1,1,1,1,1,1,1,1,1,1,0,11,12,135,space,5.491020500000104,None,1,1,0.6035679999999957,None,space,2.405863099999806,None,0,0,0,1,,,,,6,4,52,0,127.68943790000003,,,,,,,,,,,,,,,,,,,,,127.67422899999974,127.68943790000003,128.17322890000014,128.17764529999977,128.1890155000001,128.80638809999982,,,,,128.80661650000002,128.8218609999999,129.02224399999977,129.0063169,128.1890155000001,,,,,,,,1,1,0.6035679999999957,None,,,,,,,,855,21,M,R,2026-02-25_11h28.11.811,VisualSearch_2526_3,,2025.2.4,2026-02-25 11h28.12.157485 +0100,
vertical.xlsx,The target is tilted.,135,53,5,6,1,1,1,1,0,0,0,0,0,0,0,0,0,3,4,135,space,5.491020500000104,None,1,1,0.6291798000002018,None,space,2.405863099999806,None,0,0,0,1,,,,,6,5,53,2,129.02224399999977,,,,,,,,,,,,,,,,,,,,,129.00711730000012,129.02224399999977,129.50580379999974,129.5114005999999,129.53297710000015,130.17325200000005,,,,,130.17347629999995,130.18789349999997,130.38818489999994,130.37237109999978,129.53297710000015,,,,,,,,1,1,0.6291798000002018,None,,,,,,,,855,21,M,R,2026-02-25_11h28.11.811,VisualSearch_2526_3,,2025.2.4,2026-02-25 11h28.12.157485 +0100,
vertical.xlsx,The target is tilted.,135,54,6,6,0,0,0,0,0,0,0,0,0,0,0,0,1,1,1,135,space,5.491020500000104,None,0,1,0.5653409999999894,None,space,2.405863099999806,None,0,0,0,1,,,,,6,6,54,7,130.38818489999994,,,,,,,,,,,,,,,,,,,,,130.3732144999999,130.38818489999994,130.87230610000006,130.8778358999998,130.89950939999972,131.47252759999992,,,,,131.47273039999982,131.4873720999999,131.68799910000007,131.67174220000015,130.89950939999972,,,,,,,,0,1,0.5653409999999894,None,,,,,,,,855,21,M,R,2026-02-25_11h28.11.811,VisualSearch_2526_3,,2025.2.4,2026-02-25 11h28.12.157485 +0100,
vertical.xlsx,The target is tilted.,135,55,7,6,1,0,0,0,0,0,0,0,0,0,0,0,0,0,1,135,space,5.491020500000104,None,1,1,0.636232000000291,None,space,2.405863099999806,None,0,0,0,1,,,,,6,7,55,3,131.68799910000007,,,,,,,,,,,,,,,,,,,,,131.6725833999999,131.68799910000007,132.17205650000005,132.1777407999998,132.19021840000005,132.83859040000016,,,,,132.83881759999986,132.85388030000013,133.054396,133.03796680000005,132.19021840000005,,,,,,,,1,1,0.636232000000291,None,,,,,,,,855,21,M,R,2026-02-25_11h28.11.811,VisualSearch_2526_3,,2025.2.4,2026-02-25 11h28.12.157485 +0100,
vertical.xlsx,The target is tilted.,135,56,0,7,0,1,1,1,0,0,0,0,0,0,0,0,1,3,4,135,space,5.491020500000104,None,0,1,0.6011428000001615,None,space,2.405863099999806,None,0,0,0,1,,,,,7,0,56,6,133.054396,,,,,,,,,,,,,,,,,,,,,133.0388984000001,133.054396,133.53807909999978,133.54347299999972,133.56456909999997,134.17159450000008,,,,,134.1718421999999,134.18651640000007,134.38707079999995,134.37125519999972,133.56456909999997,,,,,,,,0,1,0.6011428000001615,None,,,,,,,,855,21,M,R,2026-02-25_11h28.11.811,VisualSearch_2526_3,,2025.2.4,2026-02-25 11h28.12.157485 +0100,
vertical.xlsx,The target is tilted.,135,57,1,7,0,0,0,0,0,0,0,0,0,0,0,0,1,1,1,135,space,5.491020500000104,None,0,1,0.5281737999998768,None,space,2.405863099999806,None,0,0,0,1,,,,,7,1,57,7,134.38707079999995,,,,,,,,,,,,,,,,,,,,,134.3720613999999,134.38707079999995,134.87099899999976,134.8766028,134.8982221000001,135.43754119999994,,,,,135.43783099999973,135.4529222000001,135.65342099999998,135.63742009999987,134.8982221000001,,,,,,,,0,1,0.5281737999998768,None,,,,,,,,855,21,M,R,2026-02-25_11h28.11.811,VisualSearch_2526_3,,2025.2.4,2026-02-25 11h28.12.157485 +0100,
vertical.xlsx,The target is tilted.,135,58,2,7,1,1,1,1,1,1,1,1,1,1,1,1,0,11,12,135,space,5.491020500000104,None,1,1,0.7546364999998332,None,space,2.405863099999806,None,0,0,0,1,,,,,7,2,58,0,135.65342099999998,,,,,,,,,,,,,,,,,,,,,135.63821400000006,135.65342099999998,136.13727329999983,136.1427450000001,136.1641082000001,136.92093560000012,,,,,136.9211977,136.93594429999985,137.13628500000004,137.12042139999994,136.1641082000001,,,,,,,,1,1,0.7546364999998332,None,,,,,,,,855,21,M,R,2026-02-25_11h28.11.811,VisualSearch_2526_3,,2025.2.4,2026-02-25 11h28.12.157485 +0100,
vertical.xlsx,The target is tilted.,135,59,3,7,1,1,1,1,1,1,1,1,0,0,0,0,0,7,8,135,space,5.491020500000104,None,1,1,0.5475463000002492,None,space,2.405863099999806,None,0,0,0,1,,,,,7,3,59,1,137.13628500000004,,,,,,,,,,,,,,,,,,,,,137.1212442000001,137.13628500000004,137.6201885999999,137.62561199999982,137.6464191,138.20381300000008,,,,,138.20405919999985,138.21880039999996,138.4192392,138.40244399999983,137.6464191,,,,,,,,1,1,0.5475463000002492,None,,,,,,,,855,21,M,R,2026-02-25_11h28.11.811,VisualSearch_2526_3,,2025.2.4,2026-02-25 11h28.12.157485 +0100,
vertical.xlsx,The target is tilted.,135,60,4,7,1,1,1,1,0,0,0,0,0,0,0,0,0,3,4,135,space,5.491020500000104,None,1,1,0.7358405999998467,None,space,2.405863099999806,None,0,0,0,1,,,,,7,4,60,2,138.4192392,,,,,,,,,,,,,,,,,,,,,138.40287390000003,138.4192392,138.9030861000001,138.90848210000013,138.93023279999989,139.66897569999992,,,,,139.66910869999992,139.68477140000005,139.8850806999999,139.86926700000004,138.93023279999989,,,,,,,,1,1,0.7358405999998467,None,,,,,,,,855,21,M,R,2026-02-25_11h28.11.811,VisualSearch_2526_3,,2025.2.4,2026-02-25 11h28.12.157485 +0100,
vertical.xlsx,The target is tilted.,135,61,5,7,0,1,1,1,1,1,1,1,0,0,0,0,1,7,8,135,space,5.491020500000104,None,0,1,1.0530057999999372,None,space,2.405863099999806,None,0,0,0,1,,,,,7,5,61,5,139.8850806999999,,,,,,,,,,,,,,,,,,,,,139.87010980000014,139.8850806999999,140.36927650000007,140.3747598,140.39653709999993,141.4529668,,,,,141.45319199999994,141.46748739999975,141.6681598,141.65211950000003,140.39653709999993,,,,,,,,0,1,1.0530057999999372,None,,,,,,,,855,21,M,R,2026-02-25_11h28.11.811,VisualSearch_2526_3,,2025.2.4,2026-02-25 11h28.12.157485 +0100,
vertical.xlsx,The target is tilted.,135,62,6,7,0,1,1,1,1,1,1,1,1,1,1,1,1,11,12,135,space,5.491020500000104,None,0,1,1.0431670000002669,None,space,2.405863099999806,None,0,0,0,1,,,,,7,6,62,4,141.6681598,,,,,,,,,,,,,,,,,,,,,141.65305409999974,141.6681598,142.15199540000003,142.15752470000007,142.17688099999987,143.23540019999973,,,,,143.23567189999994,143.25022349999972,143.4509251999998,143.43489520000003,142.17688099999987,,,,,,,,0,1,1.0431670000002669,None,,,,,,,,855,21,M,R,2026-02-25_11h28.11.811,VisualSearch_2526_3,,2025.2.4,2026-02-25 11h28.12.157485 +0100,
vertical.xlsx,The target is tilted.,135,63,7,7,1,0,0,0,0,0,0,0,0,0,0,0,0,0,1,135,space,5.491020500000104,None,1,1,0.5110327999996116,None,space,2.405863099999806,None,0,0,0,1,,,,,7,7,63,3,143.4509251999998,,,,,,,,,,,,,,,,,,,,,143.4357160999998,143.4509251999998,143.93467199999986,143.9400983999999,143.96180159999994,144.48466289999988,,,,,144.4848874999998,144.50007419999974,144.70017589999998,144.68449079999982,143.96180159999994,,,,,,,,1,1,0.5110327999996116,None,,,,,,,,855,21,M,R,2026-02-25_11h28.11.811,VisualSearch_2526_3,,2025.2.4,2026-02-25 11h28.12.157485 +0100,
vertical.xlsx,The target is tilted.,135,64,0,8,1,1,1,1,0,0,0,0,0,0,0,0,0,3,4,135,space,5.491020500000104,None,1,1,0.7941575999998349,None,space,2.405863099999806,None,0,0,0,1,,,,,8,0,64,2,144.70017589999998,,,,,,,,,,,,,,,,,,,,,144.6853126000001,144.70017589999998,145.18391500000007,145.18805489999977,145.20678869999983,146.0175352000001,,,,,146.0177580999998,146.03289829999994,146.23331469999994,146.21731020000016,145.20678869999983,,,,,,,,1,1,0.7941575999998349,None,,,,,,,,855,21,M,R,2026-02-25_11h28.11.811,VisualSearch_2526_3,,2025.2.4,2026-02-25 11h28.12.157485 +0100,
vertical.xlsx,The target is tilted.,135,65,1,8,1,0,0,0,0,0,0,0,0,0,0,0,0,0,1,135,space,5.491020500000104,None,1,1,0.48595979999981864,None,space,2.405863099999806,None,0,0,0,1,,,,,8,1,65,3,146.23331469999994,,,,,,,,,,,,,,,,,,,,,146.2181215999999,146.23331469999994,146.71695869999985,146.72244079999973,146.74366939999982,147.2338906,,,,,147.2341418000001,147.24924569999985,147.4495480999999,147.43323340000006,146.74366939999982,,,,,,,,1,1,0.48595979999981864,None,,,,,,,,855,21,M,R,2026-02-25_11h28.11.811,VisualSearch_2526_3,,2025.2.4,2026-02-25 11h28.12.157485 +0100,
vertical.xlsx,The target is tilted.,135,66,2,8,0,1,1,1,1,1,1,1,1,1,1,1,1,11,12,135,space,5.491020500000104,None,0,1,0.923526199999742,None,space,2.405863099999806,None,0,0,0,1,,,,,8,2,66,4,147.4495480999999,,,,,,,,,,,,,,,,,,,,,147.43406449999975,147.4495480999999,147.9335430000001,147.93906349999997,147.95970140000009,148.89905629999976,,,,,148.89917699999978,148.9155753,,149.09938220000004,147.95970140000009,,,,,,,,0,1,0.923526199999742,None,,,,,,,,855,21,M,R,2026-02-25_11h28.11.811,VisualSearch_2526_3,,2025.2.4,2026-02-25 11h28.12.157485 +0100,
vertical.xlsx,The target is tilted.,135,67,3,8,1,1,1,1,1,1,1,1,0,0,0,0,0,7,8,135,space,5.491020500000104,None,0,0,0.8748467999998866,None,space,2.405863099999806,None,0,0,0,1,,,,,8,3,67,1,149.1157561,,,,,,,,,,,,,,,,,,,,,149.10024209999983,149.1157561,149.59948919999988,149.60499040000013,149.62543989999995,150.51525429999992,,,,,150.51537640000015,150.5312610000001,150.7318378,150.7154915000001,149.62543989999995,,,,,,,,0,0,0.8748467999998866,None,,,,,,,,855,21,M,R,2026-02-25_11h28.11.811,VisualSearch_2526_3,,2025.2.4,2026-02-25 11h28.12.157485 +0100,
vertical.xlsx,The target is tilted.,135,68,4,8,1,1,1,1,1,1,1,1,1,1,1,1,0,11,12,135,space,5.491020500000104,None,1,1,0.5349090999998225,None,space,2.405863099999806,None,0,0,0,1,,,,,8,4,68,0,150.7318378,,,,,,,,,,,,,,,,,,,,,150.7163258999999,150.7318378,151.21556269999974,151.22093050000012,151.24083810000002,151.78282679999984,,,,,151.78305490000002,151.7974767999999,151.99814539999988,151.98199750000003,151.24083810000002,,,,,,,,1,1,0.5349090999998225,None,,,,,,,,855,21,M,R,2026-02-25_11h28.11.811,VisualSearch_2526_3,,2025.2.4,2026-02-25 11h28.12.157485 +0100,
vertical.xlsx,The target is tilted.,135,69,5,8,0,0,0,0,0,0,0,0,0,0,0,0,1,1,1,135,space,5.491020500000104,None,0,1,0.4970932000001085,None,space,2.405863099999806,None,0,0,0,1,,,,,8,5,69,7,151.99814539999988,,,,,,,,,,,,,,,,,,,,,151.98284909999984,151.99814539999988,152.4817478,152.48731559999987,152.50850549999996,153.0145775000001,,,,,153.01467879999973,153.03042689999984,,153.2148204,152.50850549999996,,,,,,,,0,1,0.4970932000001085,None,,,,,,,,855,21,M,R,2026-02-25_11h28.11.811,VisualSearch_2526_3,,2025.2.4,2026-02-25 11h28.12.157485 +0100,
vertical.xlsx,The target is tilted.,135,70,6,8,0,1,1,1,1,1,1,1,0,0,0,0,1,7,8,135,space,5.491020500000104,None,0,1,0.687840800000231,None,space,2.405863099999806,None,0,0,0,1,,,,,8,6,70,5,153.23122139999987,,,,,,,,,,,,,,,,,,,,,153.21566660000008,153.23122139999987,153.71491620000006,153.72032899999977,153.74097829999982,154.43190330000016,,,,,154.43215740000005,154.44660680000015,154.64714959999992,154.63126939999984,153.74097829999982,,,,,,,,0,1,0.687840800000231,None,,,,,,,,855,21,M,R,2026-02-25_11h28.11.811,VisualSearch_2526_3,,2025.2.4,2026-02-25 11h28.12.157485 +0100,
vertical.xlsx,The target is tilted.,135,71,7,8,0,1,1,1,0,0,0,0,0,0,0,0,1,3,4,135,space,5.491020500000104,None,0,1,0.6285689999999704,None,space,2.405863099999806,None,0,0,0,1,,,,,8,7,71,6,154.64714959999992,,,,,,,,,,,,,,,,,,,,,154.63208880000002,154.64714959999992,155.13113969999995,155.1365077999999,155.15792759999977,155.79808809999986,,,,,155.79832780000015,155.81307770000012,156.0135108999998,155.99734929999977,155.15792759999977,,,,,,,,0,1,0.6285689999999704,None,,,,,,,,855,21,M,R,2026-02-25_11h28.11.811,VisualSearch_2526_3,,2025.2.4,2026-02-25 11h28.12.157485 +0100,
vertical.xlsx,The target is tilted.,135,72,0,9,0,1,1,1,1,1,1,1,0,0,0,0,1,7,8,135,space,5.491020500000104,None,0,1,1.014976200000092,None,space,2.405863099999806,None,0,0,0,1,,,,,9,0,72,5,156.0135108999998,,,,,,,,,,,,,,,,,,,,,155.99819239999988,156.0135108999998,156.49727230000008,156.50264349999998,156.5198273000001,157.5471152,,,,,157.54733529999976,157.56247589999975,157.76298300000008,157.7468319999998,156.5198273000001,,,,,,,,0,1,1.014976200000092,None,,,,,,,,855,21,M,R,2026-02-25_11h28.11.811,VisualSearch_2526_3,,2025.2.4,2026-02-25 11h28.12.157485 +0100,
vertical.xlsx,The target is tilted.,135,73,1,9,1,1,1,1,0,0,0,0,0,0,0,0,0,3,4,135,space,5.491020500000104,None,1,1,0.711662200000319,None,space,2.405863099999806,None,0,0,0,1,,,,,9,1,73,2,157.76298300000008,,,,,,,,,,,,,,,,,,,,,157.74768859999995,157.76298300000008,158.24653149999995,158.25188320000007,158.27228220000006,158.99576279999974,,,,,158.9958815,159.01180840000006,159.21246569999994,159.1961725000001,158.27228220000006,,,,,,,,1,1,0.711662200000319,None,,,,,,,,855,21,M,R,2026-02-25_11h28.11.811,VisualSearch_2526_3,,2025.2.4,2026-02-25 11h28.12.157485 +0100,
vertical.xlsx,The target is tilted.,135,74,2,9,0,1,1,1,1,1,1,1,1,1,1,1,1,11,12,135,space,5.491020500000104,None,0,1,0.8438301000001047,None,space,2.405863099999806,None,0,0,0,1,,,,,9,2,74,4,159.21246569999994,,,,,,,,,,,,,,,,,,,,,159.19701459999987,159.21246569999994,159.6960485999998,159.7014147,159.72233329999972,160.57938149999973,,,,,160.57959859999983,160.59482879999996,160.79513659999975,160.77920249999988,159.72233329999972,,,,,,,,0,1,0.8438301000001047,None,,,,,,,,855,21,M,R,2026-02-25_11h28.11.811,VisualSearch_2526_3,,2025.2.4,2026-02-25 11h28.12.157485 +0100,
vertical.xlsx,The target is tilted.,135,75,3,9,0,1,1,1,0,0,0,0,0,0,0,0,1,3,4,135,space,5.491020500000104,None,0,1,1.3037051999999676,None,space,2.405863099999806,None,0,0,0,1,,,,,9,3,75,6,160.79513659999975,,,,,,,,,,,,,,,,,,,,,160.78001390000009,160.79513659999975,161.27904979999994,161.28445090000014,161.3057291,162.61255559999972,,,,,162.61281449999979,162.62727339999992,162.8279623999997,162.8119131999997,161.3057291,,,,,,,,0,1,1.3037051999999676,None,,,,,,,,855,21,M,R,2026-02-25_11h28.11.811,VisualSearch_2526_3,,2025.2.4,2026-02-25 11h28.12.157485 +0100,
vertical.xlsx,The target is tilted.,135,76,4,9,1,1,1,1,1,1,1,1,0,0,0,0,0,7,8,135,space,5.491020500000104,None,1,1,1.151924400000098,None,space,2.405863099999806,None,0,0,0,1,,,,,9,4,76,1,162.8279623999997,,,,,,,,,,,,,,,,,,,,,162.81272720000015,162.8279623999997,163.3117529000001,163.31717619999972,163.3384274,164.49502729999995,,,,,164.49524960000008,164.5101899000001,164.71034250000002,164.69444599999997,163.3384274,,,,,,,,1,1,1.151924400000098,None,,,,,,,,855,21,M,R,2026-02-25_11h28.11.811,VisualSearch_2526_3,,2025.2.4,2026-02-25 11h28.12.157485 +0100,
vertical.xlsx,The target is tilted.,135,77,5,9,1,1,1,1,1,1,1,1,1,1,1,1,0,11,12,135,space,5.491020500000104,None,1,1,0.9508762999998908,None,space,2.405863099999806,None,0,0,0,1,,,,,9,5,77,0,164.71034250000002,,,,,,,,,,,,,,,,,,,,,164.6952925999999,164.71034250000002,165.1940457999999,165.19941949999975,165.22067519999973,166.1779375000001,,,,,166.1781920999997,166.19276549999995,166.39335930000016,166.3772958999998,165.22067519999973,,,,,,,,1,1,0.9508762999998908,None,,,,,,,,855,21,M,R,2026-02-25_11h28.11.811,VisualSearch_2526_3,,2025.2.4,2026-02-25 11h28.12.157485 +0100,
vertical.xlsx,The target is tilted.,135,78,6,9,1,0,0,0,0,0,0,0,0,0,0,0,0,0,1,135,space,5.491020500000104,None,1,1,0.4814728000001196,None,space,2.405863099999806,None,0,0,0,1,,,,,9,6,78,3,166.39335930000016,,,,,,,,,,,,,,,,,,,,,166.3781415999997,166.39335930000016,166.87730969999984,166.88267629999973,166.90407389999973,167.39440969999987,,,,,167.3946302999998,167.4093257999998,167.60938839999972,167.59350429999995,166.90407389999973,,,,,,,,1,1,0.4814728000001196,None,,,,,,,,855,21,M,R,2026-02-25_11h28.11.811,VisualSearch_2526_3,,2025.2.4,2026-02-25 11h28.12.157485 +0100,
vertical.xlsx,The target is tilted.,135,79,7,9,0,0,0,0,0,0,0,0,0,0,0,0,1,1,1,135,space,5.491020500000104,None,0,1,0.5315407999996751,None,space,2.405863099999806,None,0,0,0,1,,,,,9,7,79,7,167.60938839999972,,,,,,,,,,,,,,,,,,,,,167.59434069999998,167.60938839999972,168.09346340000002,168.0988658000001,168.12018899999975,168.66008620000002,,,,,168.66023339999992,168.6754535,168.87583949999998,168.8600707999999,168.12018899999975,,,,,,,,0,1,0.5315407999996751,None,,,,,,,,855,21,M,R,2026-02-25_11h28.11.811,VisualSearch_2526_3,,2025.2.4,2026-02-25 11h28.12.157485 +0100,
vertical.xlsx,The target is tilted.,135,80,0,10,1,1,1,1,1,1,1,1,1,1,1,1,0,11,12,135,space,5.491020500000104,None,1,1,0.6932796000000963,None,space,2.405863099999806,None,0,0,0,1,,,,,10,0,80,0,168.87583949999998,,,,,,,,,,,,,,,,,,,,,168.86090849999982,168.87583949999998,169.35899259999997,169.36171509999986,169.3754727999999,170.0765339999998,,,,,170.0767553999999,170.09150629999976,170.2918507999998,170.27593320000005,169.3754727999999,,,,,,,,1,1,0.6932796000000963,None,,,,,,,,855,21,M,R,2026-02-25_11h28.11.811,VisualSearch_2526_3,,2025.2.4,2026-02-25 11h28.12.157485 +0100,
vertical.xlsx,The target is tilted.,135,81,1,10,0,1,1,1,1,1,1,1,1,1,1,1,1,11,12,135,space,5.491020500000104,None,0,1,1.6074875999997857,None,space,2.405863099999806,None,0,0,0,1,,,,,10,1,81,4,170.2918507999998,,,,,,,,,,,,,,,,,,,,,170.27681470000016,170.2918507999998,170.77565539999978,170.78102249999984,170.80188450000014,172.42569249999997,,,,,172.42591859999993,172.4410413999999,172.64103750000004,172.6249840999999,170.80188450000014,,,,,,,,0,1,1.6074875999997857,None,,,,,,,,855,21,M,R,2026-02-25_11h28.11.811,VisualSearch_2526_3,,2025.2.4,2026-02-25 11h28.12.157485 +0100,
vertical.xlsx,The target is tilted.,135,82,2,10,1,0,0,0,0,0,0,0,0,0,0,0,0,0,1,135,space,5.491020500000104,None,1,1,0.519224000000122,None,space,2.405863099999806,None,0,0,0,1,,,,,10,2,82,3,172.64103750000004,,,,,,,,,,,,,,,,,,,,,172.62585080000008,172.64103750000004,173.12521779999997,173.13055179999992,173.14791830000013,173.67543539999997,,,,,173.67563310000014,173.69057220000013,173.8910117999999,173.8745325,173.14791830000013,,,,,,,,1,1,0.519224000000122,None,,,,,,,,855,21,M,R,2026-02-25_11h28.11.811,VisualSearch_2526_3,,2025.2.4,2026-02-25 11h28.12.157485 +0100,
vertical.xlsx,The target is tilted.,135,83,3,10,1,1,1,1,0,0,0,0,0,0,0,0,0,3,4,135,space,5.491020500000104,None,1,1,0.7156926000002386,None,space,2.405863099999806,None,0,0,0,1,,,,,10,3,83,2,173.8910117999999,,,,,,,,,,,,,,,,,,,,,173.87534389999973,173.8910117999999,174.37475089999998,174.3801813,174.4011003999999,175.12575579999975,,,,,175.12597730000016,175.13987659999975,175.34033509999972,175.32434030000013,174.4011003999999,,,,,,,,1,1,0.7156926000002386,None,,,,,,,,855,21,M,R,2026-02-25_11h28.11.811,VisualSearch_2526_3,,2025.2.4,2026-02-25 11h28.12.157485 +0100,
vertical.xlsx,The target is tilted.,135,84,4,10,0,0,0,0,0,0,0,0,0,0,0,0,1,1,1,135,space,5.491020500000104,None,0,1,0.7058332999999948,None,space,2.405863099999806,None,0,0,0,1,,,,,10,4,84,7,175.34033509999972,,,,,,,,,,,,,,,,,,,,,175.32517210000015,175.34033509999972,175.82437140000002,175.82965130000002,175.850907,176.57438950000005,,,,,176.5745849,176.59004800000002,176.79011749999972,176.77366789999996,175.850907,,,,,,,,0,1,0.7058332999999948,None,,,,,,,,855,21,M,R,2026-02-25_11h28.11.811,VisualSearch_2526_3,,2025.2.4,2026-02-25 11h28.12.157485 +0100,
vertical.xlsx,The target is tilted.,135,85,5,10,0,1,1,1,1,1,1,1,0,0,0,0,1,7,8,135,space,5.491020500000104,None,0,1,0.7361512000002222,None,space,2.405863099999806,None,0,0,0,1,,,,,10,5,85,5,176.79011749999972,,,,,,,,,,,,,,,,,,,,,176.77450180000005,176.79011749999972,177.27394479999975,177.2793327999998,177.30066899999974,178.0406251999998,,,,,178.0408441999998,178.0563189999998,178.25593260000005,178.24028580000004,177.30066899999974,,,,,,,,0,1,0.7361512000002222,None,,,,,,,,855,21,M,R,2026-02-25_11h28.11.811,VisualSearch_2526_3,,2025.2.4,2026-02-25 11h28.12.157485 +0100,
vertical.xlsx,The target is tilted.,135,86,6,10,0,1,1,1,0,0,0,0,0,0,0,0,1,3,4,135,space,5.491020500000104,None,0,1,0.6349219999997331,None,space,2.405863099999806,None,0,0,0,1,,,,,10,6,86,6,178.25593260000005,,,,,,,,,,,,,,,,,,,,,178.24110569999993,178.25593260000005,178.74011389999987,178.74555090000013,178.7670622999999,179.40661980000004,,,,,179.4068311000001,179.42247039999984,179.62251500000002,179.6060794,178.7670622999999,,,,,,,,0,1,0.6349219999997331,None,,,,,,,,855,21,M,R,2026-02-25_11h28.11.811,VisualSearch_2526_3,,2025.2.4,2026-02-25 11h28.12.157485 +0100,
vertical.xlsx,The target is tilted.,135,87,7,10,1,1,1,1,1,1,1,1,0,0,0,0,0,7,8,135,space,5.491020500000104,None,1,1,0.6499272000000929,None,space,2.405863099999806,None,0,0,0,1,,,,,10,7,87,1,179.62251500000002,,,,,,,,,,,,,,,,,,,,,179.60687849999977,179.62251500000002,180.10622269999976,180.11173989999998,180.13374010000007,180.79000940000014,,,,,180.79025739999997,180.80515400000013,181.00499200000013,180.9893615000001,180.13374010000007,,,,,,,,1,1,0.6499272000000929,None,,,,,,,,855,21,M,R,2026-02-25_11h28.11.811,VisualSearch_2526_3,,2025.2.4,2026-02-25 11h28.12.157485 +0100,
vertical.xlsx,The target is tilted.,135,88,0,11,1,1,1,1,1,1,1,1,1,1,1,1,0,11,12,135,space,5.491020500000104,None,1,1,2.0254554000002827,None,space,2.405863099999806,None,0,0,0,1,,,,,11,0,88,0,181.00499200000013,,,,,,,,,,,,,,,,,,,,,180.99015809999992,181.00499200000013,181.48914319999994,181.49464339999986,181.51533269999982,183.55580740000005,,,,,183.55605149999974,183.57125129999986,183.77105359999996,183.75473239999974,181.51533269999982,,,,,,,,1,1,2.0254554000002827,None,,,,,,,,855,21,M,R,2026-02-25_11h28.11.811,VisualSearch_2526_3,,2025.2.4,2026-02-25 11h28.12.157485 +0100,
vertical.xlsx,The target is tilted.,135,89,1,11,0,1,1,1,0,0,0,0,0,0,0,0,1,3,4,135,space,5.491020500000104,None,0,1,0.6810437999997703,None,space,2.405863099999806,None,0,0,0,1,,,,,11,1,89,6,183.77105359999996,,,,,,,,,,,,,,,,,,,,,183.7555658000001,183.77105359999996,184.25502610000012,184.2604213999998,184.2815867999998,184.97135500000013,,,,,184.97150190000002,184.98734639999975,185.18733889999976,185.1712475999998,184.2815867999998,,,,,,,,0,1,0.6810437999997703,None,,,,,,,,855,21,M,R,2026-02-25_11h28.11.811,VisualSearch_2526_3,,2025.2.4,2026-02-25 11h28.12.157485 +0100,
vertical.xlsx,The target is tilted.,135,90,2,11,1,1,1,1,0,0,0,0,0,0,0,0,0,3,4,135,space,5.491020500000104,None,1,1,0.6479573999999957,None,space,2.405863099999806,None,0,0,0,1,,,,,11,2,90,2,185.18733889999976,,,,,,,,,,,,,,,,,,,,,185.17212310000014,185.18733889999976,185.6711147000001,185.6764450999999,185.69782639999994,186.35471419999976,,,,,186.35490859999982,186.3698712999999,186.5702978999998,186.55421179999985,185.69782639999994,,,,,,,,1,1,0.6479573999999957,None,,,,,,,,855,21,M,R,2026-02-25_11h28.11.811,VisualSearch_2526_3,,2025.2.4,2026-02-25 11h28.12.157485 +0100,
vertical.xlsx,The target is tilted.,135,91,3,11,1,0,0,0,0,0,0,0,0,0,0,0,0,0,1,135,space,5.491020500000104,None,1,1,0.46385250000003,None,space,2.405863099999806,None,0,0,0,1,,,,,11,3,91,3,186.5702978999998,,,,,,,,,,,,,,,,,,,,,186.55499999999984,186.5702978999998,187.05405310000015,187.05943119999984,187.08120150000013,187.55367660000002,,,,,187.5538332000001,187.56928800000014,187.7692323000001,187.7527688,187.08120150000013,,,,,,,,1,1,0.46385250000003,None,,,,,,,,855,21,M,R,2026-02-25_11h28.11.811,VisualSearch_2526_3,,2025.2.4,2026-02-25 11h28.12.157485 +0100,
vertical.xlsx,The target is tilted.,135,92,4,11,0,1,1,1,1,1,1,1,0,0,0,0,1,7,8,135,space,5.491020500000104,None,0,1,1.505659899999955,None,space,2.405863099999806,None,0,0,0,1,,,,,11,4,92,5,187.7692323000001,,,,,,,,,,,,,,,,,,,,,187.75322830000005,187.7692323000001,188.253694,188.25888559999976,188.27893270000004,189.78748319999977,,,,,189.7877069000001,189.80230859999983,190.00243210000008,189.98644030000014,188.27893270000004,,,,,,,,0,1,1.505659899999955,None,,,,,,,,855,21,M,R,2026-02-25_11h28.11.811,VisualSearch_2526_3,,2025.2.4,2026-02-25 11h28.12.157485 +0100,
vertical.xlsx,The target is tilted.,135,93,5,11,1,1,1,1,1,1,1,1,0,0,0,0,0,7,8,135,space,5.491020500000104,None,1,1,0.7111555000001317,None,space,2.405863099999806,None,0,0,0,1,,,,,11,5,93,1,190.00243210000008,,,,,,,,,,,,,,,,,,,,,189.9872402000001,190.00243210000008,190.48587150000003,190.49136899999985,190.5126325000001,191.23565199999985,,,,,191.23579539999992,191.25195209999993,191.4519676,191.4356045999998,190.5126325000001,,,,,,,,1,1,0.7111555000001317,None,,,,,,,,855,21,M,R,2026-02-25_11h28.11.811,VisualSearch_2526_3,,2025.2.4,2026-02-25 11h28.12.157485 +0100,
vertical.xlsx,The target is tilted.,135,94,6,11,0,0,0,0,0,0,0,0,0,0,0,0,1,1,1,135,space,5.491020500000104,None,0,1,0.5507246000001942,None,space,2.405863099999806,None,0,0,0,1,,,,,11,6,94,7,191.4519676,,,,,,,,,,,,,,,,,,,,,191.43641990000015,191.4519676,191.93560750000006,191.94173219999993,191.96205939999982,192.5194566,,,,,192.51968850000003,192.53455630000008,192.7347681000001,192.71882909999977,191.96205939999982,,,,,,,,0,1,0.5507246000001942,None,,,,,,,,855,21,M,R,2026-02-25_11h28.11.811,VisualSearch_2526_3,,2025.2.4,2026-02-25 11h28.12.157485 +0100,
vertical.xlsx,The target is tilted.,135,95,7,11,0,1,1,1,1,1,1,1,1,1,1,1,1,11,12,135,space,5.491020500000104,None,0,1,1.4587528999995811,None,space,2.405863099999806,None,0,0,0,1,,,,,11,7,95,4,192.7347681000001,,,,,,,,,,,,,,,,,,,,,192.71964320000006,192.7347681000001,193.21859700000005,193.22409979999975,193.24156790000006,194.7020551999999,,,,,194.70229560000007,194.71723310000016,194.91713260000006,194.9011488000001,193.24156790000006,,,,,,,,0,1,1.4587528999995811,None,,,,,,,,855,21,M,R,2026-02-25_11h28.11.811,VisualSearch_2526_3,,2025.2.4,2026-02-25 11h28.12.157485 +0100,
vertical.xlsx,The target is tilted.,135,96,0,12,1,1,1,1,1,1,1,1,1,1,1,1,0,11,12,135,space,5.491020500000104,None,0,0,0.9294740000000274,None,space,2.405863099999806,None,0,0,0,1,,,,,12,0,96,0,194.91713260000006,,,,,,,,,,,,,,,,,,,,,194.90201230000002,194.91713260000006,195.4013715000001,195.40625490000002,195.41683430000012,196.3512953999998,,,,,196.35151399999995,196.3669179999997,196.56699560000015,196.55100559999983,195.41683430000012,,,,,,,,0,0,0.9294740000000274,None,,,,,,,,855,21,M,R,2026-02-25_11h28.11.811,VisualSearch_2526_3,,2025.2.4,2026-02-25 11h28.12.157485 +0100,
vertical.xlsx,The target is tilted.,135,97,1,12,0,1,1,1,1,1,1,1,0,0,0,0,1,7,8,135,space,5.491020500000104,None,0,1,1.0029693999999836,None,space,2.405863099999806,None,0,0,0,1,,,,,12,1,97,5,196.56699560000015,,,,,,,,,,,,,,,,,,,,,196.5518047999999,196.56699560000015,197.05096950000006,197.05639399999973,197.07765500000005,198.0840079999998,,,,,198.08424389999982,198.0997195,198.29977120000012,198.28335100000004,197.07765500000005,,,,,,,,0,1,1.0029693999999836,None,,,,,,,,855,21,M,R,2026-02-25_11h28.11.811,VisualSearch_2526_3,,2025.2.4,2026-02-25 11h28.12.157485 +0100,
vertical.xlsx,The target is tilted.,135,98,2,12,0,1,1,1,1,1,1,1,1,1,1,1,1,11,12,135,space,5.491020500000104,None,0,1,0.9369423000002826,None,space,2.405863099999806,None,0,0,0,1,,,,,12,2,98,4,198.29977120000012,,,,,,,,,,,,,,,,,,,,,198.28418779999993,198.29977120000012,198.78342359999988,198.78881509999974,198.8101557,199.75053359999993,,,,,199.75076209999997,199.76580950000016,199.96547710000004,199.94966250000016,198.8101557,,,,,,,,0,1,0.9369423000002826,None,,,,,,,,855,21,M,R,2026-02-25_11h28.11.811,VisualSearch_2526_3,,2025.2.4,2026-02-25 11h28.12.157485 +0100,
vertical.xlsx,The target is tilted.,135,99,3,12,1,0,0,0,0,0,0,0,0,0,0,0,0,0,1,135,space,5.491020500000104,None,1,1,0.5055674000000181,None,space,2.405863099999806,None,0,0,0,1,,,,,12,3,99,3,199.96547710000004,,,,,,,,,,,,,,,,,,,,,199.95053989999997,199.96547710000004,200.44977900000004,200.45592639999995,200.47786309999992,201.00003819999984,,,,,201.00028799999973,201.01515489999974,201.21516040000006,201.19944669999995,200.47786309999992,,,,,,,,1,1,0.5055674000000181,None,,,,,,,,855,21,M,R,2026-02-25_11h28.11.811,VisualSearch_2526_3,,2025.2.4,2026-02-25 11h28.12.157485 +0100,
vertical.xlsx,The target is tilted.,135,100,4,12,0,1,1,1,0,0,0,0,0,0,0,0,1,3,4,135,space,5.491020500000104,None,0,1,0.6882288000001608,None,space,2.405863099999806,None,0,0,0,1,,,,,12,4,100,6,201.21516040000006,,,,,,,,,,,,,,,,,,,,,201.20035319999988,201.21516040000006,201.69933170000013,201.70468159999973,201.72528789999978,202.41621380000015,,,,,202.41644700000006,202.4315471,202.6316085999997,202.61525099999972,201.72528789999978,,,,,,,,0,1,0.6882288000001608,None,,,,,,,,855,21,M,R,2026-02-25_11h28.11.811,VisualSearch_2526_3,,2025.2.4,2026-02-25 11h28.12.157485 +0100,
vertical.xlsx,The target is tilted.,135,101,5,12,1,1,1,1,1,1,1,1,0,0,0,0,0,7,8,135,space,5.491020500000104,None,0,0,1.6234506999999212,None,space,2.405863099999806,None,0,0,0,1,,,,,12,5,101,1,202.6316085999997,,,,,,,,,,,,,,,,,,,,,202.61609169999974,202.6316085999997,203.11542069999996,203.12085149999984,203.14189299999998,204.78217809999978,,,,,204.78244749999976,204.79766429999972,204.99751779999997,204.98140969999986,203.14189299999998,,,,,,,,0,0,1.6234506999999212,None,,,,,,,,855,21,M,R,2026-02-25_11h28.11.811,VisualSearch_2526_3,,2025.2.4,2026-02-25 11h28.12.157485 +0100,
vertical.xlsx,The target is tilted.,135,102,6,12,0,0,0,0,0,0,0,0,0,0,0,0,1,1,1,135,space,5.491020500000104,None,0,1,0.9407807000002322,None,space,2.405863099999806,None,0,0,0,1,,,,,12,6,102,7,204.99751779999997,,,,,,,,,,,,,,,,,,,,,204.98222829999986,204.99751779999997,205.48104299999977,205.48648060000005,205.5079842,206.46482789999982,,,,,206.4650790999999,206.4803023999998,206.68039910000016,206.66433740000002,205.5079842,,,,,,,,0,1,0.9407807000002322,None,,,,,,,,855,21,M,R,2026-02-25_11h28.11.811,VisualSearch_2526_3,,2025.2.4,2026-02-25 11h28.12.157485 +0100,
vertical.xlsx,The target is tilted.,135,103,7,12,1,1,1,1,0,0,0,0,0,0,0,0,0,3,4,135,space,5.491020500000104,None,1,1,0.6479903999997987,None,space,2.405863099999806,None,0,0,0,1,,,,,12,7,103,2,206.68039910000016,,,,,,,,,,,,,,,,,,,,,206.66513269999996,206.68039910000016,207.16421869999976,207.16963810000016,207.1830546000001,207.84778359999973,,,,,207.84802069999978,207.86328129999993,208.06326179999996,208.04714860000013,207.1830546000001,,,,,,,,1,1,0.6479903999997987,None,,,,,,,,855,21,M,R,2026-02-25_11h28.11.811,VisualSearch_2526_3,,2025.2.4,2026-02-25 11h28.12.157485 +0100,
vertical.xlsx,The target is tilted.,135,104,0,13,0,1,1,1,1,1,1,1,0,0,0,0,1,7,8,135,space,5.491020500000104,None,0,1,1.358594400000129,None,space,2.405863099999806,None,0,0,0,1,,,,,13,0,104,5,208.06326179999996,,,,,,,,,,,,,,,,,,,,,208.04794309999988,208.06326179999996,208.5470353999999,208.55234169999994,208.57374339999978,209.9468812,,,,,209.9470811000001,209.96256369999992,210.16256650000014,210.1463650999999,208.57374339999978,,,,,,,,0,1,1.358594400000129,None,,,,,,,,855,21,M,R,2026-02-25_11h28.11.811,VisualSearch_2526_3,,2025.2.4,2026-02-25 11h28.12.157485 +0100,
vertical.xlsx,The target is tilted.,135,105,1,13,0,1,1,1,0,0,0,0,0,0,0,0,1,3,4,135,space,5.491020500000104,None,0,1,0.5901159000000007,None,space,2.405863099999806,None,0,0,0,1,,,,,13,1,105,6,210.16256650000014,,,,,,,,,,,,,,,,,,,,,210.14715549999983,210.16256650000014,210.64613370000006,210.65171680000003,210.67314209999995,211.27998810000008,,,,,211.28025100000013,211.2951982999998,211.49506139999994,211.47939700000006,210.67314209999995,,,,,,,,0,1,0.5901159000000007,None,,,,,,,,855,21,M,R,2026-02-25_11h28.11.811,VisualSearch_2526_3,,2025.2.4,2026-02-25 11h28.12.157485 +0100,
vertical.xlsx,The target is tilted.,135,106,2,13,1,1,1,1,1,1,1,1,1,1,1,1,0,11,12,135,space,5.491020500000104,None,1,1,1.0788548999998966,None,space,2.405863099999806,None,0,0,0,1,,,,,13,2,106,0,211.49506139999994,,,,,,,,,,,,,,,,,,,,,211.48020439999982,211.49506139999994,211.97931149999977,211.9845852999997,211.99481229999992,213.07955519999996,,,,,213.07977979999987,213.09476159999986,213.29482800000005,213.27877360000002,211.99481229999992,,,,,,,,1,1,1.0788548999998966,None,,,,,,,,855,21,M,R,2026-02-25_11h28.11.811,VisualSearch_2526_3,,2025.2.4,2026-02-25 11h28.12.157485 +0100,
vertical.xlsx,The target is tilted.,135,107,3,13,1,1,1,1,1,1,1,1,0,0,0,0,0,7,8,135,space,5.491020500000104,None,1,1,1.4207169999999678,None,space,2.405863099999806,None,0,0,0,1,,,,,13,3,107,1,213.29482800000005,,,,,,,,,,,,,,,,,,,,,213.27957239999978,213.29482800000005,213.77867779999997,213.78406540000015,213.80493509999997,215.22880799999984,,,,,215.22904689999996,215.24385510000002,215.44419319999997,215.4281350000001,213.80493509999997,,,,,,,,1,1,1.4207169999999678,None,,,,,,,,855,21,M,R,2026-02-25_11h28.11.811,VisualSearch_2526_3,,2025.2.4,2026-02-25 11h28.12.157485 +0100,
vertical.xlsx,The target is tilted.,135,108,4,13,1,0,0,0,0,0,0,0,0,0,0,0,0,0,1,135,space,5.491020500000104,None,1,1,0.4835701000001791,None,space,2.405863099999806,None,0,0,0,1,,,,,13,4,108,3,215.44419319999997,,,,,,,,,,,,,,,,,,,,,215.42891929999996,215.44419319999997,215.92810129999998,215.9328676,215.94376749999992,216.44514209999988,,,,,216.4453794000001,216.46035459999985,216.6604569000001,216.64441429999988,215.94376749999992,,,,,,,,1,1,0.4835701000001791,None,,,,,,,,855,21,M,R,2026-02-25_11h28.11.811,VisualSearch_2526_3,,2025.2.4,2026-02-25 11h28.12.157485 +0100,
vertical.xlsx,The target is tilted.,135,109,5,13,1,1,1,1,0,0,0,0,0,0,0,0,0,3,4,135,space,5.491020500000104,None,1,1,0.5895196999999825,None,space,2.405863099999806,None,0,0,0,1,,,,,13,5,109,2,216.6604569000001,,,,,,,,,,,,,,,,,,,,,216.64520549999997,216.6604569000001,217.14403889999994,217.15001519999987,217.17121929999985,217.7778985,,,,,217.7781556,217.79300879999982,217.99332550000008,217.9771283,217.17121929999985,,,,,,,,1,1,0.5895196999999825,None,,,,,,,,855,21,M,R,2026-02-25_11h28.11.811,VisualSearch_2526_3,,2025.2.4,2026-02-25 11h28.12.157485 +0100,
vertical.xlsx,The target is tilted.,135,110,6,13,0,0,0,0,0,0,0,0,0,0,0,0,1,1,1,135,space,5.491020500000104,None,0,1,0.5253124999999272,None,space,2.405863099999806,None,0,0,0,1,,,,,13,6,110,7,217.99332550000008,,,,,,,,,,,,,,,,,,,,,217.97801440000012,217.99332550000008,218.4770794000001,218.4825219999998,218.5035445999997,219.04416619999984,,,,,219.0444137999998,219.0592803999998,219.25962729999992,219.24351769999976,218.5035445999997,,,,,,,,0,1,0.5253124999999272,None,,,,,,,,855,21,M,R,2026-02-25_11h28.11.811,VisualSearch_2526_3,,2025.2.4,2026-02-25 11h28.12.157485 +0100,
vertical.xlsx,The target is tilted.,135,111,7,13,0,1,1,1,1,1,1,1,1,1,1,1,1,11,12,135,space,5.491020500000104,None,0,1,2.167664199999763,None,space,2.405863099999806,None,0,0,0,1,,,,,13,7,111,4,219.25962729999992,,,,,,,,,,,,,,,,,,,,,219.2443088,219.25962729999992,219.74347390000003,219.74859849999984,219.75913649999984,221.94332239999994,,,,,221.94354350000003,221.9583336999999,222.1583330999997,222.14258070000005,219.75913649999984,,,,,,,,0,1,2.167664199999763,None,,,,,,,,855,21,M,R,2026-02-25_11h28.11.811,VisualSearch_2526_3,,2025.2.4,2026-02-25 11h28.12.157485 +0100,
vertical.xlsx,The target is tilted.,135,112,0,14,1,1,1,1,1,1,1,1,0,0,0,0,0,7,8,135,space,5.491020500000104,None,1,1,0.9255561999998463,None,space,2.405863099999806,None,0,0,0,1,,,,,14,0,112,1,222.1583330999997,,,,,,,,,,,,,,,,,,,,,222.14339699999982,222.1583330999997,222.64186519999976,222.64519919999975,222.65828060000013,223.59275769999977,,,,,223.59299299999975,223.60814279999977,223.80815410000014,223.79208689999996,222.65828060000013,,,,,,,,1,1,0.9255561999998463,None,,,,,,,,855,21,M,R,2026-02-25_11h28.11.811,VisualSearch_2526_3,,2025.2.4,2026-02-25 11h28.12.157485 +0100,
vertical.xlsx,The target is tilted.,135,113,1,14,1,0,0,0,0,0,0,0,0,0,0,0,0,0,1,135,space,5.491020500000104,None,1,1,0.46190310000019963,None,space,2.405863099999806,None,0,0,0,1,,,,,14,1,113,3,223.80815410000014,,,,,,,,,,,,,,,,,,,,,223.79289659999995,223.80815410000014,224.29187509999974,224.29739329999984,224.31606890000012,224.79247039999973,,,,,224.7926895999999,224.80780449999975,225.00769119999995,224.99129369999991,224.31606890000012,,,,,,,,1,1,0.46190310000019963,None,,,,,,,,855,21,M,R,2026-02-25_11h28.11.811,VisualSearch_2526_3,,2025.2.4,2026-02-25 11h28.12.157485 +0100,
vertical.xlsx,The target is tilted.,135,114,2,14,0,0,0,0,0,0,0,0,0,0,0,0,1,1,1,135,space,5.491020500000104,None,0,1,0.5189525999999205,None,space,2.405863099999806,None,0,0,0,1,,,,,14,2,114,7,225.00769119999995,,,,,,,,,,,,,,,,,,,,,224.99214329999995,225.00769119999995,225.49155939999991,225.49688530000003,225.51787909999985,226.04162180000003,,,,,226.0418424999998,226.05732469999975,226.25728600000002,226.24127980000003,225.51787909999985,,,,,,,,0,1,0.5189525999999205,None,,,,,,,,855,21,M,R,2026-02-25_11h28.11.811,VisualSearch_2526_3,,2025.2.4,2026-02-25 11h28.12.157485 +0100,
vertical.xlsx,The target is tilted.,135,115,3,14,0,1,1,1,1,1,1,1,1,1,1,1,1,11,12,135,space,5.491020500000104,None,0,1,2.292402100000345,None,space,2.405863099999806,None,0,0,0,1,,,,,14,3,115,4,226.25728600000002,,,,,,,,,,,,,,,,,,,,,226.24210429999994,226.25728600000002,226.74111459999995,226.7465118,226.76628900000014,229.0731141000001,,,,,229.07323339999994,229.08934120000004,229.28952609999988,229.2734135999999,226.76628900000014,,,,,,,,0,1,2.292402100000345,None,,,,,,,,855,21,M,R,2026-02-25_11h28.11.811,VisualSearch_2526_3,,2025.2.4,2026-02-25 11h28.12.157485 +0100,
vertical.xlsx,The target is tilted.,135,116,4,14,1,1,1,1,0,0,0,0,0,0,0,0,0,3,4,135,space,5.491020500000104,None,1,1,0.5523543999997855,None,space,2.405863099999806,None,0,0,0,1,,,,,14,4,116,2,229.28952609999988,,,,,,,,,,,,,,,,,,,,,229.27425360000007,229.28952609999988,229.77328110000008,229.77869199999986,229.79585980000002,230.3569778000001,,,,,230.3572236,230.37256769999976,230.57260319999978,230.55633880000005,229.79585980000002,,,,,,,,1,1,0.5523543999997855,None,,,,,,,,855,21,M,R,2026-02-25_11h28.11.811,VisualSearch_2526_3,,2025.2.4,2026-02-25 11h28.12.157485 +0100,
vertical.xlsx,The target is tilted.,135,117,5,14,0,1,1,1,1,1,1,1,0,0,0,0,1,7,8,135,space,5.491020500000104,None,0,1,1.3047354999998788,None,space,2.405863099999806,None,0,0,0,1,,,,,14,5,117,5,230.57260319999978,,,,,,,,,,,,,,,,,,,,,230.55717330000016,230.57260319999978,231.05597149999994,231.0613433999997,231.0813419000001,232.3895604999998,,,,,232.38978339999994,232.4051727000001,232.60506899999973,232.58915119999983,231.0813419000001,,,,,,,,0,1,1.3047354999998788,None,,,,,,,,855,21,M,R,2026-02-25_11h28.11.811,VisualSearch_2526_3,,2025.2.4,2026-02-25 11h28.12.157485 +0100,
vertical.xlsx,The target is tilted.,135,118,6,14,1,1,1,1,1,1,1,1,1,1,1,1,0,11,12,135,space,5.491020500000104,None,1,1,1.0180531999999403,None,space,2.405863099999806,None,0,0,0,1,,,,,14,6,118,0,232.60506899999973,,,,,,,,,,,,,,,,,,,,,232.58994669999993,232.60506899999973,233.0889698000001,233.09444219999978,233.11571839999988,234.13923720000003,,,,,234.13947240000016,234.15456929999982,234.35435929999994,234.3382471,233.11571839999988,,,,,,,,1,1,1.0180531999999403,None,,,,,,,,855,21,M,R,2026-02-25_11h28.11.811,VisualSearch_2526_3,,2025.2.4,2026-02-25 11h28.12.157485 +0100,
vertical.xlsx,The target is tilted.,135,119,7,14,0,1,1,1,0,0,0,0,0,0,0,0,1,3,4,135,space,5.491020500000104,None,0,1,0.627592199999981,None,space,2.405863099999806,None,0,0,0,1,,,,,14,7,119,6,234.35435929999994,,,,,,,,,,,,,,,,,,,,,234.3390986999998,234.35435929999994,234.83816239999987,234.8435144,234.86466539999992,235.5055757,,,,,235.5058113,235.52060859999983,235.7438090999999,235.7048824999997,234.86466539999992,,,,,,,,0,1,0.627592199999981,None,,,,,,,,855,21,M,R,2026-02-25_11h28.11.811,VisualSearch_2526_3,,2025.2.4,2026-02-25 11h28.12.157485 +0100,
vertical.xlsx,The target is tilted.,135,0,0,0,,,,,,,,,,,,,,,,,space,5.491020500000104,None,,,,,space,2.405863099999806,None,0,0,0,1,,,,,,,,,,,,,,,,,,,,,,,,,,,,,,,,,,,,,,,,,,,,,,,,,,,,,,,,,,,,,,,855,21,M,R,2026-02-25_11h28.11.811,VisualSearch_2526_3,,2025.2.4,2026-02-25 11h28.12.157485 +0100,
tilted.xlsx,The target is tilted.,117,0,0,0,1,1,1,1,0,0,0,0,0,0,0,0,0,3,4,117,space,8.885455099999945,None,1,1,1.2165875000000597,None,,,,0,1,1,0,0,0,0,2,,,,,244.6703247999999,,,,,,,,,,,,,,,235.7438090999999,235.7438090999999,235.7438090999999,space,8.885455099999945,None,244.6659694,244.6703247999999,245.15154819999998,245.15577359999997,245.1686362999999,246.40135280000004,1,1,1.2165875000000597,None,246.40150069999981,246.4172582000001,246.61731099999997,246.6012737000001,,,,,,,,,,,,,,,,,,,,855,21,M,R,2026-02-25_11h28.11.811,VisualSearch_2526_3,,2025.2.4,2026-02-25 11h28.12.157485 +0100,
tilted.xlsx,The target is tilted.,117,1,1,0,0,1,1,1,1,1,1,1,1,1,1,1,1,11,12,117,space,8.885455099999945,None,0,1,5.390150700000049,None,,,,0,1,1,0,0,1,1,4,,,,,246.61731099999997,,,,,,,,,,,,,,,,,,,,,246.60202320000008,246.61731099999997,247.1011254,247.10659469999973,247.12781349999977,252.53319169999986,0,1,5.390150700000049,None,252.53344389999984,252.54857989999982,252.74851709999984,252.73251219999975,247.12781349999977,,,,,,,,,,,,,,,,,,,855,21,M,R,2026-02-25_11h28.11.811,VisualSearch_2526_3,,2025.2.4,2026-02-25 11h28.12.157485 +0100,
tilted.xlsx,The target is tilted.,117,2,2,0,0,1,1,1,0,0,0,0,0,0,0,0,1,3,4,117,space,8.885455099999945,None,0,1,1.1534409999999298,None,,,,0,1,1,0,0,2,2,6,,,,,252.74851709999984,,,,,,,,,,,,,,,,,,,,,252.73324300000013,252.74851709999984,253.23217539999996,253.23756509999976,253.2591170999999,254.41596359999994,0,1,1.1534409999999298,None,254.41612499999974,254.4312749999999,254.6310258999997,254.6152247,253.2591170999999,,,,,,,,,,,,,,,,,,,855,21,M,R,2026-02-25_11h28.11.811,VisualSearch_2526_3,,2025.2.4,2026-02-25 11h28.12.157485 +0100,
tilted.xlsx,The target is tilted.,117,3,3,0,0,0,0,0,0,0,0,0,0,0,0,0,1,1,1,117,space,8.885455099999945,None,0,1,0.5056159000000662,None,,,,0,1,1,0,0,3,3,7,,,,,254.6310258999997,,,,,,,,,,,,,,,,,,,,,254.61595390000002,254.6310258999997,255.1151288000001,255.12053779999997,255.13751079999975,255.6489391,0,1,0.5056159000000662,None,255.64917939999987,255.6643927,255.86395850000008,255.84807769999998,255.13751079999975,,,,,,,,,,,,,,,,,,,855,21,M,R,2026-02-25_11h28.11.811,VisualSearch_2526_3,,2025.2.4,2026-02-25 11h28.12.157485 +0100,
tilted.xlsx,The target is tilted.,117,4,4,0,1,1,1,1,1,1,1,1,1,1,1,1,0,11,12,117,space,8.885455099999945,None,1,1,0.900348600000143,None,,,,0,1,1,0,0,4,4,0,,,,,255.86395850000008,,,,,,,,,,,,,,,,,,,,,255.84884349999993,255.86395850000008,256.3480018999999,256.35342360000004,256.37481179999986,257.2817989,1,1,0.900348600000143,None,257.28204319999986,257.29694010000003,257.4970757000001,257.4807639999999,256.37481179999986,,,,,,,,,,,,,,,,,,,855,21,M,R,2026-02-25_11h28.11.811,VisualSearch_2526_3,,2025.2.4,2026-02-25 11h28.12.157485 +0100,
tilted.xlsx,The target is tilted.,117,5,5,0,1,0,0,0,0,0,0,0,0,0,0,0,0,0,1,117,space,8.885455099999945,None,1,1,0.5749891000000389,None,,,,0,1,1,0,0,5,5,3,,,,,257.4970757000001,,,,,,,,,,,,,,,,,,,,,257.4815287000001,257.4970757000001,257.98096350000014,257.98631969999997,258.0075855,258.5977128999998,1,1,0.5749891000000389,None,258.59789920000003,258.6133157999998,258.81335809999973,258.7970633,258.0075855,,,,,,,,,,,,,,,,,,,855,21,M,R,2026-02-25_11h28.11.811,VisualSearch_2526_3,,2025.2.4,2026-02-25 11h28.12.157485 +0100,
tilted.xlsx,The target is tilted.,117,6,6,0,0,1,1,1,1,1,1,1,0,0,0,0,1,7,8,117,space,8.885455099999945,None,0,1,2.806362100000115,None,,,,0,1,1,0,0,6,6,5,,,,,258.81335809999973,,,,,,,,,,,,,,,,,,,,,258.79791179999984,258.81335809999973,259.29707830000007,259.3028116999999,259.32416379999995,262.14662050000015,0,1,2.806362100000115,None,262.1468107999999,262.16212159999986,262.3622541,262.34585149999975,259.32416379999995,,,,,,,,,,,,,,,,,,,855,21,M,R,2026-02-25_11h28.11.811,VisualSearch_2526_3,,2025.2.4,2026-02-25 11h28.12.157485 +0100,
tilted.xlsx,The target is tilted.,117,7,7,0,1,1,1,1,1,1,1,1,0,0,0,0,0,7,8,117,space,8.885455099999945,None,1,1,1.7645111000001634,None,,,,0,1,1,0,0,7,7,1,,,,,262.3622541,,,,,,,,,,,,,,,,,,,,,262.34660729999996,262.3622541,262.84564150000006,262.85116400000015,262.8723839999998,264.64610749999974,1,1,1.7645111000001634,None,264.64632170000004,264.6613646999999,264.8614652000001,264.8454133,262.8723839999998,,,,,,,,,,,,,,,,,,,855,21,M,R,2026-02-25_11h28.11.811,VisualSearch_2526_3,,2025.2.4,2026-02-25 11h28.12.157485 +0100,
tilted.xlsx,The target is tilted.,117,0,0,0,0,1,1,1,1,1,1,1,0,0,0,0,1,7,8,117,space,8.885455099999945,None,1,0,3.2810912999998436,None,space,2.9228681999998116,None,0,1,1,0,,,,,0,0,0,5,267.8347383999999,,,,,,,,,,,,,,,,,,,,,267.83042579999983,267.8347383999999,268.31059060000007,268.31618709999975,268.33332359999986,271.6269612000001,,,,,271.6272063000001,271.6425696000001,271.84246129999974,271.8261970999997,,264.8532114999998,264.8614652000001,264.8614652000001,267.7947712,space,2.9228681999998116,None,1,0,3.2810912999998436,None,,,,,,,,855,21,M,R,2026-02-25_11h28.11.811,VisualSearch_2526_3,,2025.2.4,2026-02-25 11h28.12.157485 +0100,
tilted.xlsx,The target is tilted.,117,1,1,0,1,0,0,0,0,0,0,0,0,0,0,0,0,0,1,117,space,8.885455099999945,None,1,1,0.6009806000001845,None,space,2.9228681999998116,None,0,1,1,0,,,,,0,1,1,3,271.84246129999974,,,,,,,,,,,,,,,,,,,,,271.82702759999984,271.84246129999974,272.32594340000014,272.3314319000001,272.3518974999997,272.9599668000001,,,,,272.96021429999973,272.97503370000004,273.1751988000001,273.15934370000014,272.3518974999997,,,,,,,,1,1,0.6009806000001845,None,,,,,,,,855,21,M,R,2026-02-25_11h28.11.811,VisualSearch_2526_3,,2025.2.4,2026-02-25 11h28.12.157485 +0100,
tilted.xlsx,The target is tilted.,117,2,2,0,1,1,1,1,1,1,1,1,1,1,1,1,0,11,12,117,space,8.885455099999945,None,1,1,0.8784249999998792,None,space,2.9228681999998116,None,0,1,1,0,,,,,0,2,2,0,273.1751988000001,,,,,,,,,,,,,,,,,,,,,273.1601405000001,273.1751988000001,273.6587878999999,273.66423410000016,273.6777492000001,274.5596393999999,,,,,274.55985950000013,274.5747086000001,274.7747798999999,274.75873550000006,273.6777492000001,,,,,,,,1,1,0.8784249999998792,None,,,,,,,,855,21,M,R,2026-02-25_11h28.11.811,VisualSearch_2526_3,,2025.2.4,2026-02-25 11h28.12.157485 +0100,
tilted.xlsx,The target is tilted.,117,3,3,0,1,1,1,1,1,1,1,1,0,0,0,0,0,7,8,117,space,8.885455099999945,None,1,1,0.6967884999999114,None,space,2.9228681999998116,None,0,1,1,0,,,,,0,3,3,1,274.7747798999999,,,,,,,,,,,,,,,,,,,,,274.7596389,274.7747798999999,275.2586062999999,275.26382190000004,275.2843588999999,275.9924665999997,,,,,275.9926814999999,276.007799,276.2075850000001,276.19142009999996,275.2843588999999,,,,,,,,1,1,0.6967884999999114,None,,,,,,,,855,21,M,R,2026-02-25_11h28.11.811,VisualSearch_2526_3,,2025.2.4,2026-02-25 11h28.12.157485 +0100,
tilted.xlsx,The target is tilted.,117,4,4,0,0,1,1,1,0,0,0,0,0,0,0,0,1,3,4,117,space,8.885455099999945,None,0,1,1.2064368999999715,None,space,2.9228681999998116,None,0,1,1,0,,,,,0,4,4,6,276.2075850000001,,,,,,,,,,,,,,,,,,,,,276.19230160000006,276.2075850000001,276.69156010000006,276.69695820000015,276.71830199999977,277.94174599999997,,,,,277.94198430000006,277.95686179999984,278.15708719999975,278.14110070000015,276.71830199999977,,,,,,,,0,1,1.2064368999999715,None,,,,,,,,855,21,M,R,2026-02-25_11h28.11.811,VisualSearch_2526_3,,2025.2.4,2026-02-25 11h28.12.157485 +0100,
tilted.xlsx,The target is tilted.,117,5,5,0,0,1,1,1,1,1,1,1,1,1,1,1,1,11,12,117,space,8.885455099999945,None,1,0,2.894168400000126,None,space,2.9228681999998116,None,0,1,1,0,,,,,0,5,5,4,278.15708719999975,,,,,,,,,,,,,,,,,,,,,278.1419455,278.15708719999975,278.6404745,278.64452870000014,278.66322919999993,281.57391199999984,,,,,281.5741398,281.5893397,281.7893632,281.77320770000006,278.66322919999993,,,,,,,,1,0,2.894168400000126,None,,,,,,,,855,21,M,R,2026-02-25_11h28.11.811,VisualSearch_2526_3,,2025.2.4,2026-02-25 11h28.12.157485 +0100,
tilted.xlsx,The target is tilted.,117,6,6,0,1,1,1,1,0,0,0,0,0,0,0,0,0,3,4,117,space,8.885455099999945,None,1,1,0.7137784999999894,None,space,2.9228681999998116,None,0,1,1,0,,,,,0,6,6,2,281.7893632,,,,,,,,,,,,,,,,,,,,,281.7740226000001,281.7893632,282.2730825999997,282.2783736000001,282.2987846000001,283.0230134999997,,,,,283.0232317,283.0385655,283.23879480000005,283.2223544999997,282.2987846000001,,,,,,,,1,1,0.7137784999999894,None,,,,,,,,855,21,M,R,2026-02-25_11h28.11.811,VisualSearch_2526_3,,2025.2.4,2026-02-25 11h28.12.157485 +0100,
tilted.xlsx,The target is tilted.,117,7,7,0,0,0,0,0,0,0,0,0,0,0,0,0,1,1,1,117,space,8.885455099999945,None,0,1,0.6326852000001963,None,space,2.9228681999998116,None,0,1,1,0,,,,,0,7,7,7,283.23879480000005,,,,,,,,,,,,,,,,,,,,,283.2233022999999,283.23879480000005,283.7223777999998,283.7280043999999,283.7495149000001,284.38963950000016,,,,,284.3898657999998,284.40486359999977,284.60460030000013,284.58881399999973,283.7495149000001,,,,,,,,0,1,0.6326852000001963,None,,,,,,,,855,21,M,R,2026-02-25_11h28.11.811,VisualSearch_2526_3,,2025.2.4,2026-02-25 11h28.12.157485 +0100,
tilted.xlsx,The target is tilted.,117,8,0,1,1,1,1,1,0,0,0,0,0,0,0,0,0,3,4,117,space,8.885455099999945,None,1,1,1.176249199999802,None,space,2.9228681999998116,None,0,1,1,0,,,,,1,0,8,2,284.60460030000013,,,,,,,,,,,,,,,,,,,,,284.5896641999998,284.60460030000013,285.08816419999994,285.09467140000015,285.108976,286.2886537999998,,,,,286.2888745999999,286.3044372999998,286.5043224000001,286.4880270999997,285.108976,,,,,,,,1,1,1.176249199999802,None,,,,,,,,855,21,M,R,2026-02-25_11h28.11.811,VisualSearch_2526_3,,2025.2.4,2026-02-25 11h28.12.157485 +0100,
tilted.xlsx,The target is tilted.,117,9,1,1,0,1,1,1,0,0,0,0,0,0,0,0,1,3,4,117,space,8.885455099999945,None,0,1,1.326559300000099,None,space,2.9228681999998116,None,0,1,1,0,,,,,1,1,9,6,286.5043224000001,,,,,,,,,,,,,,,,,,,,,286.48901799999976,286.5043224000001,286.9879754999997,286.99342049999996,287.0145468999999,288.35498819999975,,,,,288.35523520000015,288.37041249999993,288.56995430000006,288.5539521999999,287.0145468999999,,,,,,,,0,1,1.326559300000099,None,,,,,,,,855,21,M,R,2026-02-25_11h28.11.811,VisualSearch_2526_3,,2025.2.4,2026-02-25 11h28.12.157485 +0100,
tilted.xlsx,The target is tilted.,117,10,2,1,1,1,1,1,1,1,1,1,1,1,1,1,0,11,12,117,space,8.885455099999945,None,1,1,0.815088199999991,None,space,2.9228681999998116,None,0,1,1,0,,,,,1,2,10,0,288.56995430000006,,,,,,,,,,,,,,,,,,,,,288.5548181999998,288.56995430000006,289.05402860000004,289.0593936999999,289.08037049999984,289.9041527999998,,,,,289.9043711999998,289.91951459999973,290.1197830000001,290.10378119999996,289.08037049999984,,,,,,,,1,1,0.815088199999991,None,,,,,,,,855,21,M,R,2026-02-25_11h28.11.811,VisualSearch_2526_3,,2025.2.4,2026-02-25 11h28.12.157485 +0100,
tilted.xlsx,The target is tilted.,117,11,3,1,0,1,1,1,1,1,1,1,1,1,1,1,1,11,12,117,space,8.885455099999945,None,1,0,0.8532172999998693,None,space,2.9228681999998116,None,0,1,1,0,,,,,1,3,11,4,290.1197830000001,,,,,,,,,,,,,,,,,,,,,290.1045971999997,290.1197830000001,290.60362669999995,290.60910879999983,290.6301841999998,291.4863461,,,,,291.48649309999973,291.5027414000001,291.70269789999975,291.68642009999985,290.6301841999998,,,,,,,,1,0,0.8532172999998693,None,,,,,,,,855,21,M,R,2026-02-25_11h28.11.811,VisualSearch_2526_3,,2025.2.4,2026-02-25 11h28.12.157485 +0100,
tilted.xlsx,The target is tilted.,117,12,4,1,0,0,0,0,0,0,0,0,0,0,0,0,1,1,1,117,space,8.885455099999945,None,0,1,1.029562900000201,None,space,2.9228681999998116,None,0,1,1,0,,,,,1,4,12,7,291.70269789999975,,,,,,,,,,,,,,,,,,,,,291.6872727,291.70269789999975,292.18580699999984,292.18984739999996,292.20884130000013,293.25319660000014,,,,,293.25339170000007,293.26834259999987,293.4687823999998,293.45273739999993,292.20884130000013,,,,,,,,0,1,1.029562900000201,None,,,,,,,,855,21,M,R,2026-02-25_11h28.11.811,VisualSearch_2526_3,,2025.2.4,2026-02-25 11h28.12.157485 +0100,
tilted.xlsx,The target is tilted.,117,13,5,1,0,1,1,1,1,1,1,1,0,0,0,0,1,7,8,117,space,8.885455099999945,None,0,1,3.7072215999996843,None,space,2.9228681999998116,None,0,1,1,0,,,,,1,5,13,5,293.4687823999998,,,,,,,,,,,,,,,,,,,,,293.4535661,293.4687823999998,293.9525328999998,293.9574588999999,293.9687079,297.68491559999984,,,,,297.6851495000001,297.7005608999998,297.90066479999996,297.8846426,293.9687079,,,,,,,,0,1,3.7072215999996843,None,,,,,,,,855,21,M,R,2026-02-25_11h28.11.811,VisualSearch_2526_3,,2025.2.4,2026-02-25 11h28.12.157485 +0100,
tilted.xlsx,The target is tilted.,117,14,6,1,1,0,0,0,0,0,0,0,0,0,0,0,0,0,1,117,space,8.885455099999945,None,1,1,0.7415640999997777,None,space,2.9228681999998116,None,0,1,1,0,,,,,1,6,14,3,297.90066479999996,,,,,,,,,,,,,,,,,,,,,297.88548219999984,297.90066479999996,298.3846319999998,298.39001929999995,298.41159229999994,299.16822569999977,,,,,299.1684525999999,299.18341550000014,299.38352159999977,299.36740409999993,298.41159229999994,,,,,,,,1,1,0.7415640999997777,None,,,,,,,,855,21,M,R,2026-02-25_11h28.11.811,VisualSearch_2526_3,,2025.2.4,2026-02-25 11h28.12.157485 +0100,
tilted.xlsx,The target is tilted.,117,15,7,1,1,1,1,1,1,1,1,1,0,0,0,0,0,7,8,117,space,8.885455099999945,None,1,1,1.6405260999999882,None,space,2.9228681999998116,None,0,1,1,0,,,,,1,7,15,1,299.38352159999977,,,,,,,,,,,,,,,,,,,,,299.3682248,299.38352159999977,299.8670858999999,299.8725930999999,299.89418639999985,301.5505082999998,,,,,301.55074160000004,301.5658857999997,301.76595469999984,301.75004480000007,299.89418639999985,,,,,,,,1,1,1.6405260999999882,None,,,,,,,,855,21,M,R,2026-02-25_11h28.11.811,VisualSearch_2526_3,,2025.2.4,2026-02-25 11h28.12.157485 +0100,
tilted.xlsx,The target is tilted.,117,16,0,2,1,1,1,1,0,0,0,0,0,0,0,0,0,3,4,117,space,8.885455099999945,None,1,1,0.9171031000000767,None,space,2.9228681999998116,None,0,1,1,0,,,,,2,0,16,2,301.76595469999984,,,,,,,,,,,,,,,,,,,,,301.75087759999997,301.76595469999984,302.2498792000001,302.25523969999995,302.27698699999974,303.199607,,,,,303.19980350000014,303.21540430000005,303.41509480000013,303.3993424,302.27698699999974,,,,,,,,1,1,0.9171031000000767,None,,,,,,,,855,21,M,R,2026-02-25_11h28.11.811,VisualSearch_2526_3,,2025.2.4,2026-02-25 11h28.12.157485 +0100,
tilted.xlsx,The target is tilted.,117,17,1,2,1,1,1,1,1,1,1,1,0,0,0,0,0,7,8,117,space,8.885455099999945,None,1,1,1.1754465999997592,None,space,2.9228681999998116,None,0,1,1,0,,,,,2,1,17,1,303.41509480000013,,,,,,,,,,,,,,,,,,,,,303.4002065999998,303.41509480000013,303.8992960999999,303.90469919999987,303.9256056999998,305.1162810000001,,,,,305.11650199999985,305.13125089999994,305.33158879999974,305.315513,303.9256056999998,,,,,,,,1,1,1.1754465999997592,None,,,,,,,,855,21,M,R,2026-02-25_11h28.11.811,VisualSearch_2526_3,,2025.2.4,2026-02-25 11h28.12.157485 +0100,
tilted.xlsx,The target is tilted.,117,18,2,2,1,1,1,1,1,1,1,1,1,1,1,1,0,11,12,117,space,8.885455099999945,None,1,1,2.1482006000001093,None,space,2.9228681999998116,None,0,1,1,0,,,,,2,2,18,0,305.33158879999974,,,,,,,,,,,,,,,,,,,,,305.31634239999994,305.33158879999974,305.8151462999999,305.8204962,305.84146809999993,307.99833050000007,,,,,307.99854909999976,308.01359360000015,308.2139954999998,308.1977794999998,305.84146809999993,,,,,,,,1,1,2.1482006000001093,None,,,,,,,,855,21,M,R,2026-02-25_11h28.11.811,VisualSearch_2526_3,,2025.2.4,2026-02-25 11h28.12.157485 +0100,
tilted.xlsx,The target is tilted.,117,19,3,2,0,1,1,1,1,1,1,1,1,1,1,1,1,11,12,117,space,8.885455099999945,None,0,1,4.484317099999771,None,space,2.9228681999998116,None,0,1,1,0,,,,,2,3,19,4,308.2139954999998,,,,,,,,,,,,,,,,,,,,,308.1986971000001,308.2139954999998,308.6976248000001,308.70307649999995,308.72465439999996,313.2126223999999,,,,,313.21285469999975,313.22892709999996,313.4289758,313.41289860000006,308.72465439999996,,,,,,,,0,1,4.484317099999771,None,,,,,,,,855,21,M,R,2026-02-25_11h28.11.811,VisualSearch_2526_3,,2025.2.4,2026-02-25 11h28.12.157485 +0100,
tilted.xlsx,The target is tilted.,117,20,4,2,0,1,1,1,1,1,1,1,0,0,0,0,1,7,8,117,space,8.885455099999945,None,0,1,3.073098399999708,None,space,2.9228681999998116,None,0,1,1,0,,,,,2,4,20,5,313.4289758,,,,,,,,,,,,,,,,,,,,,313.4137243,313.4289758,313.9127576000001,313.91815210000004,313.9396719000001,317.0291011999998,,,,,317.0293367999998,317.0444004000001,317.24436479999986,317.2280304000001,313.9396719000001,,,,,,,,0,1,3.073098399999708,None,,,,,,,,855,21,M,R,2026-02-25_11h28.11.811,VisualSearch_2526_3,,2025.2.4,2026-02-25 11h28.12.157485 +0100,
tilted.xlsx,The target is tilted.,117,21,5,2,0,1,1,1,0,0,0,0,0,0,0,0,1,3,4,117,space,8.885455099999945,None,0,1,1.583097799999905,None,space,2.9228681999998116,None,0,1,1,0,,,,,2,5,21,6,317.24436479999986,,,,,,,,,,,,,,,,,,,,,317.22889970000006,317.24436479999986,317.7279316999998,317.73347269999977,317.75453519999974,319.3448576999999,,,,,319.34511169999996,319.3599549999999,319.5603228,319.54393900000014,317.75453519999974,,,,,,,,0,1,1.583097799999905,None,,,,,,,,855,21,M,R,2026-02-25_11h28.11.811,VisualSearch_2526_3,,2025.2.4,2026-02-25 11h28.12.157485 +0100,
tilted.xlsx,The target is tilted.,117,22,6,2,1,0,0,0,0,0,0,0,0,0,0,0,0,0,1,117,space,8.885455099999945,None,1,1,0.7204609000000346,None,space,2.9228681999998116,None,0,1,1,0,,,,,2,6,22,3,319.5603228,,,,,,,,,,,,,,,,,,,,,319.54481699999997,319.5603228,320.04369429999997,320.04901629999995,320.07052109999995,320.794265,,,,,320.7944628,320.80943819999993,321.00980519999985,320.9937098999999,320.07052109999995,,,,,,,,1,1,0.7204609000000346,None,,,,,,,,855,21,M,R,2026-02-25_11h28.11.811,VisualSearch_2526_3,,2025.2.4,2026-02-25 11h28.12.157485 +0100,
tilted.xlsx,The target is tilted.,117,23,7,2,0,0,0,0,0,0,0,0,0,0,0,0,1,1,1,117,space,8.885455099999945,None,0,1,0.892446899999868,None,space,2.9228681999998116,None,0,1,1,0,,,,,2,7,23,7,321.00980519999985,,,,,,,,,,,,,,,,,,,,,320.9945422999999,321.00980519999985,321.4935495,321.4989528000001,321.52035539999997,322.4271923000001,,,,,322.42745209999975,322.44260529999974,322.64265780000005,322.6263721999999,321.52035539999997,,,,,,,,0,1,0.892446899999868,None,,,,,,,,855,21,M,R,2026-02-25_11h28.11.811,VisualSearch_2526_3,,2025.2.4,2026-02-25 11h28.12.157485 +0100,
tilted.xlsx,The target is tilted.,117,24,0,3,1,1,1,1,0,0,0,0,0,0,0,0,0,3,4,117,space,8.885455099999945,None,1,1,0.6593876000001728,None,space,2.9228681999998116,None,0,1,1,0,,,,,3,0,24,2,322.64265780000005,,,,,,,,,,,,,,,,,,,,,322.62726369999973,322.64265780000005,323.1260124999999,323.1314145000001,323.15121369999997,323.82648519999975,,,,,323.82670389999976,323.8421564,324.0421080000001,324.0260386,323.15121369999997,,,,,,,,1,1,0.6593876000001728,None,,,,,,,,855,21,M,R,2026-02-25_11h28.11.811,VisualSearch_2526_3,,2025.2.4,2026-02-25 11h28.12.157485 +0100,
tilted.xlsx,The target is tilted.,117,25,1,3,1,1,1,1,1,1,1,1,0,0,0,0,0,7,8,117,space,8.885455099999945,None,1,1,2.052963799999816,None,space,2.9228681999998116,None,0,1,1,0,,,,,3,1,25,1,324.0421080000001,,,,,,,,,,,,,,,,,,,,,324.0268605000001,324.0421080000001,324.52559840000004,324.53177289999985,324.5533660000001,326.6091630000001,,,,,326.6094128999998,326.6245193,326.82443569999987,326.80816479999976,324.5533660000001,,,,,,,,1,1,2.052963799999816,None,,,,,,,,855,21,M,R,2026-02-25_11h28.11.811,VisualSearch_2526_3,,2025.2.4,2026-02-25 11h28.12.157485 +0100,
tilted.xlsx,The target is tilted.,117,26,2,3,0,1,1,1,1,1,1,1,0,0,0,0,1,7,8,117,space,8.885455099999945,None,1,0,2.795528699999977,None,space,2.9228681999998116,None,0,1,1,0,,,,,3,2,26,5,326.82443569999987,,,,,,,,,,,,,,,,,,,,,326.8090951999998,326.82443569999987,327.3083931000001,327.3129340999999,327.3241079999998,330.12414179999996,,,,,330.12433569999985,330.13998089999995,330.34014149999985,330.32407939999985,327.3241079999998,,,,,,,,1,0,2.795528699999977,None,,,,,,,,855,21,M,R,2026-02-25_11h28.11.811,VisualSearch_2526_3,,2025.2.4,2026-02-25 11h28.12.157485 +0100,
tilted.xlsx,The target is tilted.,117,27,3,3,0,0,0,0,0,0,0,0,0,0,0,0,1,1,1,117,space,8.885455099999945,None,0,1,0.9531898999998702,None,space,2.9228681999998116,None,0,1,1,0,,,,,3,3,27,7,330.34014149999985,,,,,,,,,,,,,,,,,,,,,330.3249095000001,330.34014149999985,330.82389680000006,330.8294406,330.8505667999998,331.8072100999998,,,,,331.80742999999984,331.82257389999995,332.0229051000001,332.0067607000001,330.8505667999998,,,,,,,,0,1,0.9531898999998702,None,,,,,,,,855,21,M,R,2026-02-25_11h28.11.811,VisualSearch_2526_3,,2025.2.4,2026-02-25 11h28.12.157485 +0100,
tilted.xlsx,The target is tilted.,117,28,4,3,1,1,1,1,1,1,1,1,1,1,1,1,0,11,12,117,space,8.885455099999945,None,1,1,1.7794945999999072,None,space,2.9228681999998116,None,0,1,1,0,,,,,3,4,28,0,332.0229051000001,,,,,,,,,,,,,,,,,,,,,332.007615,332.0229051000001,332.5065319999999,332.51211609999973,332.53303559999995,334.3230451999998,,,,,334.3232853999998,334.33869920000006,334.5387492,334.5227606999997,332.53303559999995,,,,,,,,1,1,1.7794945999999072,None,,,,,,,,855,21,M,R,2026-02-25_11h28.11.811,VisualSearch_2526_3,,2025.2.4,2026-02-25 11h28.12.157485 +0100,
tilted.xlsx,The target is tilted.,117,29,5,3,0,1,1,1,1,1,1,1,1,1,1,1,1,11,12,117,space,8.885455099999945,None,1,0,3.0573724999999286,None,space,2.9228681999998116,None,0,1,1,0,,,,,3,5,29,4,334.5387492,,,,,,,,,,,,,,,,,,,,,334.52361139999994,334.5387492,335.0225740000001,335.02801339999996,335.0482769,338.1222041000001,,,,,338.1224397000001,338.13753469999983,338.3374976,338.3213958000001,335.0482769,,,,,,,,1,0,3.0573724999999286,None,,,,,,,,855,21,M,R,2026-02-25_11h28.11.811,VisualSearch_2526_3,,2025.2.4,2026-02-25 11h28.12.157485 +0100,
tilted.xlsx,The target is tilted.,117,30,6,3,0,1,1,1,0,0,0,0,0,0,0,0,1,3,4,117,space,8.885455099999945,None,0,1,1.2848084000002018,None,space,2.9228681999998116,None,0,1,1,0,,,,,3,6,30,6,338.3374976,,,,,,,,,,,,,,,,,,,,,338.3222585999997,338.3374976,338.8212929000001,338.8265502999998,338.8470975,340.1379928000001,,,,,340.13823120000006,340.1532606999999,340.35355070000014,340.3370672000001,338.8470975,,,,,,,,0,1,1.2848084000002018,None,,,,,,,,855,21,M,R,2026-02-25_11h28.11.811,VisualSearch_2526_3,,2025.2.4,2026-02-25 11h28.12.157485 +0100,
tilted.xlsx,The target is tilted.,117,31,7,3,1,0,0,0,0,0,0,0,0,0,0,0,0,0,1,117,space,8.885455099999945,None,1,1,0.702390099999775,None,space,2.9228681999998116,None,0,1,1,0,,,,,3,7,31,3,340.35355070000014,,,,,,,,,,,,,,,,,,,,,340.337931,340.35355070000014,340.83729519999997,340.84190469999976,340.8530953999998,341.57101190000003,,,,,341.5712365999998,341.58612270000003,341.78632319999997,341.7703805000001,340.8530953999998,,,,,,,,1,1,0.702390099999775,None,,,,,,,,855,21,M,R,2026-02-25_11h28.11.811,VisualSearch_2526_3,,2025.2.4,2026-02-25 11h28.12.157485 +0100,
tilted.xlsx,The target is tilted.,117,32,0,4,0,1,1,1,1,1,1,1,0,0,0,0,1,7,8,117,space,8.885455099999945,None,1,0,3.147232199999962,None,space,2.9228681999998116,None,0,1,1,0,,,,,4,0,32,5,341.78632319999997,,,,,,,,,,,,,,,,,,,,,341.7712255000001,341.78632319999997,342.27021479999985,342.27528299999994,342.2857619000001,345.43631959999993,,,,,345.4365794,345.45110179999983,345.6517401000001,345.63533860000007,342.2857619000001,,,,,,,,1,0,3.147232199999962,None,,,,,,,,855,21,M,R,2026-02-25_11h28.11.811,VisualSearch_2526_3,,2025.2.4,2026-02-25 11h28.12.157485 +0100,
tilted.xlsx,The target is tilted.,117,33,1,4,1,1,1,1,1,1,1,1,1,1,1,1,0,11,12,117,space,8.885455099999945,None,1,1,1.3484708999999384,None,space,2.9228681999998116,None,0,1,1,0,,,,,4,1,33,0,345.6517401000001,,,,,,,,,,,,,,,,,,,,,345.63622929999974,345.6517401000001,346.13555529999985,346.14087599999993,346.1579630000001,347.5190481999998,,,,,347.51929740000014,347.5340860000001,347.7340315000001,347.7181756,346.1579630000001,,,,,,,,1,1,1.3484708999999384,None,,,,,,,,855,21,M,R,2026-02-25_11h28.11.811,VisualSearch_2526_3,,2025.2.4,2026-02-25 11h28.12.157485 +0100,
tilted.xlsx,The target is tilted.,117,34,2,4,0,1,1,1,1,1,1,1,1,1,1,1,1,11,12,117,space,8.885455099999945,None,0,1,4.1741557000000284,None,space,2.9228681999998116,None,0,1,1,0,,,,,4,2,34,4,347.7340315000001,,,,,,,,,,,,,,,,,,,,,347.7191330999999,347.7340315000001,348.2181706000001,348.2240128999997,348.2447056000001,352.4341261999998,,,,,352.4343641999999,352.44941990000007,352.6495053999997,352.6330106999999,348.2447056000001,,,,,,,,0,1,4.1741557000000284,None,,,,,,,,855,21,M,R,2026-02-25_11h28.11.811,VisualSearch_2526_3,,2025.2.4,2026-02-25 11h28.12.157485 +0100,
