file_name,block_instructions,target_example,thisN,thisTrialN,thisRepN,target_presence,opacity_1,opacity_2,opacity_3,opacity_4,opacity_5,opacity_6,opacity_7,opacity_8,opacity_9,opacity_10,opacity_11,opacity_12,n_distract,n_items,target_ori,key_resp_4.keys,key_resp_4.rt,key_resp_4.duration,key_resp.keys,key_resp.corr,key_resp.rt,key_resp.duration,key_resp_5.keys,key_resp_5.rt,key_resp_5.duration,blocks.thisRepN,blocks.thisTrialN,blocks.thisN,blocks.thisIndex,practice_trials.thisRepN,practice_trials.thisTrialN,practice_trials.thisN,practice_trials.thisIndex,trials.thisRepN,trials.thisTrialN,trials.thisN,trials.thisIndex,thisRow.t,notes,Welcome.started,WelcomeText.started,key_resp_2.started,Welcome.stopped,key_resp_2.keys,key_resp_2.rt,key_resp_2.duration,InformedConsent.started,text_4.started,InformedConsent.stopped,key_resp_6.keys,key_resp_6.rt,key_resp_6.duration,key_resp_4.started,example_target.started,text_3.started,blocks.key_resp_4.keys,blocks.key_resp_4.rt,blocks.key_resp_4.duration,FixCross.started,fixCross.started,FixCross.stopped,Stimulus.started,key_resp.started,Stimulus.stopped,practice_trials.key_resp.keys,practice_trials.key_resp.corr,practice_trials.key_resp.rt,practice_trials.key_resp.duration,BlankScreen.started,text.started,text.stopped,BlankScreen.stopped,fixCross.stopped,ExperimentStart.started,text_2.started,key_resp_5.started,ExperimentStart.stopped,blocks.key_resp_5.keys,blocks.key_resp_5.rt,blocks.key_resp_5.duration,trials.key_resp.keys,trials.key_resp.corr,trials.key_resp.rt,trials.key_resp.duration,Thanks.started,ThankYou.started,key_resp_3.started,Thanks.stopped,key_resp_3.keys,key_resp_3.rt,key_resp_3.duration,participant,leeftijd,gender,links/rechtshandig,date,expName,expVersion,psychopyVersion,expStart,
,,,,,,,,,,,,,,,,,,,,,,,,,,,,,,,,,,,,,,,,,,,,,,0.031402000000070984,0.04938960000026782,0.04938960000026782,5.355380399999831,space,5.28934930000014,None,,,,,,,,,,,,,,,,,,,,,,,,,,,,,,,,,,,,,,,,,,,,,,856,22,M,L,2026-02-25_11h39.43.165,VisualSearch_2526_3,,2025.2.4,2026-02-25 11h39.43.499037 +0100,
,,,,,,,,,,,,,,,,,,,,,,,,,,,,,,,,,,,,,,,,,,,,,,,,,,,,,5.355464000000211,5.3620936000002075,8.908458800000062,y,3.5494426999998723,None,,,,,,,,,,,,,,,,,,,,,,,,,,,,,,,,,,,,,,,,856,22,M,L,2026-02-25_11h39.43.165,VisualSearch_2526_3,,2025.2.4,2026-02-25 11h39.43.499037 +0100,
vertical.xlsx,The target is tilted.,135,0,0,0,0,0,0,0,0,0,0,0,0,0,0,0,1,1,1,135,space,5.412025600000106,None,1,0,0.5534146999998484,None,,,,0,0,0,1,0,0,0,7,,,,,14.42602480000005,,,,,,,,,,,,,,,8.971152900000106,8.971152900000106,8.971152900000106,space,5.412025600000106,None,14.420020500000192,14.42602480000005,14.90517520000003,14.910816000000068,14.93136080000022,15.488936700000068,1,0,0.5534146999998484,None,15.489171100000021,15.504709599999842,15.704640100000233,15.688609899999847,,,,,,,,,,,,,,,,,,,,856,22,M,L,2026-02-25_11h39.43.165,VisualSearch_2526_3,,2025.2.4,2026-02-25 11h39.43.499037 +0100,
vertical.xlsx,The target is tilted.,135,1,1,0,0,1,1,1,0,0,0,0,0,0,0,0,1,3,4,135,space,5.412025600000106,None,1,0,0.8591541999999208,None,,,,0,0,0,1,0,1,1,6,,,,,15.704640100000233,,,,,,,,,,,,,,,,,,,,,15.689346399999977,15.704640100000233,16.188247200000205,16.193722699999853,16.21437879999985,17.088770899999872,1,0,0.8591541999999208,None,17.088980600000014,17.103846900000008,17.30405729999984,17.287616099999923,16.21437879999985,,,,,,,,,,,,,,,,,,,856,22,M,L,2026-02-25_11h39.43.165,VisualSearch_2526_3,,2025.2.4,2026-02-25 11h39.43.499037 +0100,
vertical.xlsx,The target is tilted.,135,2,2,0,0,1,1,1,1,1,1,1,0,0,0,0,1,7,8,135,space,5.412025600000106,None,1,0,1.127828899999713,None,,,,0,0,0,1,0,2,2,5,,,,,17.30405729999984,,,,,,,,,,,,,,,,,,,,,17.288349800000105,17.30405729999984,17.787854900000184,17.793230300000232,17.81084469999996,18.954321900000195,1,0,1.127828899999713,None,18.954531400000178,18.969705299999987,19.170087500000136,19.154159100000015,17.81084469999996,,,,,,,,,,,,,,,,,,,856,22,M,L,2026-02-25_11h39.43.165,VisualSearch_2526_3,,2025.2.4,2026-02-25 11h39.43.499037 +0100,
vertical.xlsx,The target is tilted.,135,3,3,0,1,0,0,0,0,0,0,0,0,0,0,0,0,0,1,135,space,5.412025600000106,None,1,1,1.5855510999999751,None,,,,0,0,0,1,0,3,3,3,,,,,19.170087500000136,,,,,,,,,,,,,,,,,,,,,19.154877299999953,19.170087500000136,19.653600200000255,19.65898560000005,19.68021469999985,21.27029450000009,1,1,1.5855510999999751,None,21.270517400000244,21.28547430000026,21.48606729999983,21.469701200000145,19.68021469999985,,,,,,,,,,,,,,,,,,,856,22,M,L,2026-02-25_11h39.43.165,VisualSearch_2526_3,,2025.2.4,2026-02-25 11h39.43.499037 +0100,
vertical.xlsx,The target is tilted.,135,4,4,0,0,1,1,1,1,1,1,1,1,1,1,1,1,11,12,135,space,5.412025600000106,None,0,1,2.1148269999998774,None,,,,0,0,0,1,0,4,4,4,,,,,21.48606729999983,,,,,,,,,,,,,,,,,,,,,21.470471500000258,21.48606729999983,21.969472000000223,21.974839299999985,21.99656499999992,24.11949850000019,0,1,2.1148269999998774,None,24.119707199999993,24.13476179999998,24.335092799999984,24.319093300000077,21.99656499999992,,,,,,,,,,,,,,,,,,,856,22,M,L,2026-02-25_11h39.43.165,VisualSearch_2526_3,,2025.2.4,2026-02-25 11h39.43.499037 +0100,
vertical.xlsx,The target is tilted.,135,5,5,0,1,1,1,1,0,0,0,0,0,0,0,0,0,3,4,135,space,5.412025600000106,None,1,1,0.9967333999998118,None,,,,0,0,0,1,0,5,5,2,,,,,24.335092799999984,,,,,,,,,,,,,,,,,,,,,24.319846100000177,24.335092799999984,24.81892999999991,24.8243980000002,24.846682200000032,25.85230159999992,1,1,0.9967333999998118,None,25.852500599999985,25.867390700000215,26.067948200000046,26.05170219999991,24.846682200000032,,,,,,,,,,,,,,,,,,,856,22,M,L,2026-02-25_11h39.43.165,VisualSearch_2526_3,,2025.2.4,2026-02-25 11h39.43.499037 +0100,
vertical.xlsx,The target is tilted.,135,6,6,0,1,1,1,1,1,1,1,1,1,1,1,1,0,11,12,135,space,5.412025600000106,None,1,1,1.486153600000307,None,,,,0,0,0,1,0,6,6,0,,,,,26.067948200000046,,,,,,,,,,,,,,,,,,,,,26.052474699999948,26.067948200000046,26.551668300000074,26.5570459999999,26.57504659999995,28.06839799999989,1,1,1.486153600000307,None,28.068621800000074,28.083426300000156,28.28388350000023,28.267655200000263,26.57504659999995,,,,,,,,,,,,,,,,,,,856,22,M,L,2026-02-25_11h39.43.165,VisualSearch_2526_3,,2025.2.4,2026-02-25 11h39.43.499037 +0100,
vertical.xlsx,The target is tilted.,135,7,7,0,1,1,1,1,1,1,1,1,0,0,0,0,0,7,8,135,space,5.412025600000106,None,1,1,0.9919247000002542,None,,,,0,0,0,1,0,7,7,1,,,,,28.28388350000023,,,,,,,,,,,,,,,,,,,,,28.26839800000016,28.28388350000023,28.767737699999998,28.773143899999923,28.794994400000178,29.80068459999984,1,1,0.9919247000002542,None,29.80091080000011,29.816102799999953,30.016211900000144,30.000382799999898,28.794994400000178,,,,,,,,,,,,,,,,,,,856,22,M,L,2026-02-25_11h39.43.165,VisualSearch_2526_3,,2025.2.4,2026-02-25 11h39.43.499037 +0100,
vertical.xlsx,The target is tilted.,135,0,0,0,1,1,1,1,0,0,0,0,0,0,0,0,0,3,4,135,space,5.412025600000106,None,1,1,0.9027887000002011,None,space,2.1474545000000944,None,0,0,0,1,,,,,0,0,0,2,32.206480400000146,,,,,,,,,,,,,,,,,,,,,32.20187840000017,32.206480400000146,32.68245530000013,32.687873599999875,32.70956930000011,33.61637240000027,,,,,33.616604800000005,33.631608900000174,33.83157179999989,33.81599749999987,,30.008214599999974,30.016211900000144,30.016211900000144,32.166876799999955,space,2.1474545000000944,None,1,1,0.9027887000002011,None,,,,,,,,856,22,M,L,2026-02-25_11h39.43.165,VisualSearch_2526_3,,2025.2.4,2026-02-25 11h39.43.499037 +0100,
vertical.xlsx,The target is tilted.,135,1,1,0,0,1,1,1,0,0,0,0,0,0,0,0,1,3,4,135,space,5.412025600000106,None,0,1,0.9613673999997445,None,space,2.1474545000000944,None,0,0,0,1,,,,,0,1,1,6,33.83157179999989,,,,,,,,,,,,,,,,,,,,,33.81678480000028,33.83157179999989,34.315442800000255,34.32085189999998,34.34342620000007,35.31624800000009,,,,,35.31649070000003,35.3310534000002,35.53149050000002,35.515582800000175,34.34342620000007,,,,,,,,0,1,0.9613673999997445,None,,,,,,,,856,22,M,L,2026-02-25_11h39.43.165,VisualSearch_2526_3,,2025.2.4,2026-02-25 11h39.43.499037 +0100,
vertical.xlsx,The target is tilted.,135,2,2,0,1,0,0,0,0,0,0,0,0,0,0,0,0,0,1,135,space,5.412025600000106,None,1,1,0.4617321999999149,None,space,2.1474545000000944,None,0,0,0,1,,,,,0,2,2,3,35.53149050000002,,,,,,,,,,,,,,,,,,,,,35.51641770000015,35.53149050000002,36.015283400000044,36.02017109999997,36.03102590000026,36.49906020000026,,,,,36.499307500000214,36.51402599999983,36.71443580000005,36.69839450000018,36.03102590000026,,,,,,,,1,1,0.4617321999999149,None,,,,,,,,856,22,M,L,2026-02-25_11h39.43.165,VisualSearch_2526_3,,2025.2.4,2026-02-25 11h39.43.499037 +0100,
vertical.xlsx,The target is tilted.,135,3,3,0,0,1,1,1,1,1,1,1,0,0,0,0,1,7,8,135,space,5.412025600000106,None,0,1,0.9316244999999981,None,space,2.1474545000000944,None,0,0,0,1,,,,,0,3,3,5,36.71443580000005,,,,,,,,,,,,,,,,,,,,,36.69923840000001,36.71443580000005,37.19830910000019,37.20304660000011,37.21406759999991,38.14852780000001,,,,,38.14877119999983,38.16317049999998,38.363919500000065,38.347861900000225,37.21406759999991,,,,,,,,0,1,0.9316244999999981,None,,,,,,,,856,22,M,L,2026-02-25_11h39.43.165,VisualSearch_2526_3,,2025.2.4,2026-02-25 11h39.43.499037 +0100,
vertical.xlsx,The target is tilted.,135,4,4,0,1,1,1,1,1,1,1,1,1,1,1,1,0,11,12,135,space,5.412025600000106,None,1,1,0.7017618999998376,None,space,2.1474545000000944,None,0,0,0,1,,,,,0,4,4,0,38.363919500000065,,,,,,,,,,,,,,,,,,,,,38.34866820000025,38.363919500000065,38.84750819999999,38.85251590000007,38.873602799999844,39.581295299999965,,,,,39.5815235,39.596355499999845,39.796792200000255,39.78086630000007,38.873602799999844,,,,,,,,1,1,0.7017618999998376,None,,,,,,,,856,22,M,L,2026-02-25_11h39.43.165,VisualSearch_2526_3,,2025.2.4,2026-02-25 11h39.43.499037 +0100,
vertical.xlsx,The target is tilted.,135,5,5,0,0,0,0,0,0,0,0,0,0,0,0,0,1,1,1,135,space,5.412025600000106,None,1,0,1.9228468999999677,None,space,2.1474545000000944,None,0,0,0,1,,,,,0,5,5,7,39.796792200000255,,,,,,,,,,,,,,,,,,,,,39.78172070000028,39.796792200000255,40.280401399999846,40.285890799999834,40.30707710000024,42.24664979999989,,,,,42.24686960000008,42.26174750000018,42.462444600000254,42.44643150000002,40.30707710000024,,,,,,,,1,0,1.9228468999999677,None,,,,,,,,856,22,M,L,2026-02-25_11h39.43.165,VisualSearch_2526_3,,2025.2.4,2026-02-25 11h39.43.499037 +0100,
vertical.xlsx,The target is tilted.,135,6,6,0,0,1,1,1,1,1,1,1,1,1,1,1,1,11,12,135,space,5.412025600000106,None,1,0,1.2877819000000272,None,space,2.1474545000000944,None,0,0,0,1,,,,,0,6,6,4,42.462444600000254,,,,,,,,,,,,,,,,,,,,,42.447378299999855,42.462444600000254,42.946397499999875,42.951164099999914,42.96188350000011,44.26177259999986,,,,,44.26189340000019,44.27786530000003,44.478482200000144,44.46218369999997,42.96188350000011,,,,,,,,1,0,1.2877819000000272,None,,,,,,,,856,22,M,L,2026-02-25_11h39.43.165,VisualSearch_2526_3,,2025.2.4,2026-02-25 11h39.43.499037 +0100,
vertical.xlsx,The target is tilted.,135,7,7,0,1,1,1,1,1,1,1,1,0,0,0,0,0,7,8,135,space,5.412025600000106,None,1,1,1.9119838999999956,None,space,2.1474545000000944,None,0,0,0,1,,,,,0,7,7,1,44.478482200000144,,,,,,,,,,,,,,,,,,,,,44.46304060000011,44.478482200000144,44.96200799999997,44.968609300000026,44.98028260000001,46.895693700000265,,,,,46.895929799999976,46.910627100000056,47.111007699999845,47.09491650000018,,,,,,,,,1,1,1.9119838999999956,None,,,,,,,,856,22,M,L,2026-02-25_11h39.43.165,VisualSearch_2526_3,,2025.2.4,2026-02-25 11h39.43.499037 +0100,
vertical.xlsx,The target is tilted.,135,8,0,1,0,1,1,1,1,1,1,1,1,1,1,1,1,11,12,135,space,5.412025600000106,None,0,1,2.0479371999999785,None,space,2.1474545000000944,None,0,0,0,1,,,,,1,0,8,4,47.111007699999845,,,,,,,,,,,,,,,,,,,,,47.09590990000015,47.111007699999845,47.59481259999984,47.600142700000106,47.62209630000007,49.67815410000003,,,,,49.67837589999999,49.693071300000156,49.893467599999894,49.87738480000007,47.62209630000007,,,,,,,,0,1,2.0479371999999785,None,,,,,,,,856,22,M,L,2026-02-25_11h39.43.165,VisualSearch_2526_3,,2025.2.4,2026-02-25 11h39.43.499037 +0100,
vertical.xlsx,The target is tilted.,135,9,1,1,1,1,1,1,0,0,0,0,0,0,0,0,0,3,4,135,space,5.412025600000106,None,1,1,0.7723669000001792,None,space,2.1474545000000944,None,0,0,0,1,,,,,1,1,9,2,49.893467599999894,,,,,,,,,,,,,,,,,,,,,49.87823329999992,49.893467599999894,50.37729880000006,50.3826239,50.40445920000002,51.192927099999906,,,,,51.193051000000196,51.209039400000165,,51.393378499999926,50.40445920000002,,,,,,,,1,1,0.7723669000001792,None,,,,,,,,856,22,M,L,2026-02-25_11h39.43.165,VisualSearch_2526_3,,2025.2.4,2026-02-25 11h39.43.499037 +0100,
vertical.xlsx,The target is tilted.,135,10,2,1,1,1,1,1,1,1,1,1,0,0,0,0,0,7,8,135,space,5.412025600000106,None,1,1,0.7325434000003952,None,space,2.1474545000000944,None,0,0,0,1,,,,,1,2,10,1,51.40972190000002,,,,,,,,,,,,,,,,,,,,,51.3943134000001,51.40972190000002,51.89322290000018,51.898517099999935,51.90922360000013,52.643779200000154,,,,,52.644037800000206,52.65878909999992,52.85890109999991,52.843167099999846,,,,,,,,,1,1,0.7325434000003952,None,,,,,,,,856,22,M,L,2026-02-25_11h39.43.165,VisualSearch_2526_3,,2025.2.4,2026-02-25 11h39.43.499037 +0100,
vertical.xlsx,The target is tilted.,135,11,3,1,0,0,0,0,0,0,0,0,0,0,0,0,1,1,1,135,space,5.412025600000106,None,0,1,0.7307371000001694,None,space,2.1474545000000944,None,0,0,0,1,,,,,1,3,11,7,52.85890109999991,,,,,,,,,,,,,,,,,,,,,52.843984999999975,52.85890109999991,53.34292610000011,53.34830319999992,53.36713779999991,54.109851600000184,,,,,54.110080500000095,54.12484020000011,54.325367500000084,54.30927620000011,53.36713779999991,,,,,,,,0,1,0.7307371000001694,None,,,,,,,,856,22,M,L,2026-02-25_11h39.43.165,VisualSearch_2526_3,,2025.2.4,2026-02-25 11h39.43.499037 +0100,
vertical.xlsx,The target is tilted.,135,12,4,1,1,0,0,0,0,0,0,0,0,0,0,0,0,0,1,135,space,5.412025600000106,None,1,1,0.5108540000001085,None,space,2.1474545000000944,None,0,0,0,1,,,,,1,4,12,3,54.325367500000084,,,,,,,,,,,,,,,,,,,,,54.31010130000004,54.325367500000084,54.80915230000028,54.81417300000021,54.82526540000026,55.3429685000001,,,,,55.3431872000001,55.35787130000017,55.558266099999855,55.54216459999998,54.82526540000026,,,,,,,,1,1,0.5108540000001085,None,,,,,,,,856,22,M,L,2026-02-25_11h39.43.165,VisualSearch_2526_3,,2025.2.4,2026-02-25 11h39.43.499037 +0100,
vertical.xlsx,The target is tilted.,135,13,5,1,0,1,1,1,0,0,0,0,0,0,0,0,1,3,4,135,space,5.412025600000106,None,0,1,0.7219068999997944,None,space,2.1474545000000944,None,0,0,0,1,,,,,1,5,13,6,55.558266099999855,,,,,,,,,,,,,,,,,,,,,55.542989099999886,55.558266099999855,56.04209660000015,56.04800639999985,56.06926710000016,56.8079588999999,,,,,56.8080774,56.82379639999999,57.02422509999997,57.008075799999915,56.06926710000016,,,,,,,,0,1,0.7219068999997944,None,,,,,,,,856,22,M,L,2026-02-25_11h39.43.165,VisualSearch_2526_3,,2025.2.4,2026-02-25 11h39.43.499037 +0100,
vertical.xlsx,The target is tilted.,135,14,6,1,0,1,1,1,1,1,1,1,0,0,0,0,1,7,8,135,space,5.412025600000106,None,0,1,0.8444394000002831,None,space,2.1474545000000944,None,0,0,0,1,,,,,1,6,14,5,57.02422509999997,,,,,,,,,,,,,,,,,,,,,57.00889929999994,57.02422509999997,57.50830760000008,57.51371620000009,57.535671300000104,58.39185889999999,,,,,58.39211000000023,58.40652330000012,58.60711760000004,58.59117849999984,57.535671300000104,,,,,,,,0,1,0.8444394000002831,None,,,,,,,,856,22,M,L,2026-02-25_11h39.43.165,VisualSearch_2526_3,,2025.2.4,2026-02-25 11h39.43.499037 +0100,
vertical.xlsx,The target is tilted.,135,15,7,1,1,1,1,1,1,1,1,1,1,1,1,1,0,11,12,135,space,5.412025600000106,None,1,1,0.7506862999998702,None,space,2.1474545000000944,None,0,0,0,1,,,,,1,7,15,0,58.60711760000004,,,,,,,,,,,,,,,,,,,,,58.591999000000214,58.60711760000004,59.09119400000009,59.095793400000275,59.106936199999836,59.87426910000022,,,,,59.87449340000012,59.889580099999876,60.089778800000204,60.07303379999985,59.106936199999836,,,,,,,,1,1,0.7506862999998702,None,,,,,,,,856,22,M,L,2026-02-25_11h39.43.165,VisualSearch_2526_3,,2025.2.4,2026-02-25 11h39.43.499037 +0100,
vertical.xlsx,The target is tilted.,135,16,0,2,1,1,1,1,1,1,1,1,1,1,1,1,0,11,12,135,space,5.412025600000106,None,1,1,0.5765516000001298,None,space,2.1474545000000944,None,0,0,0,1,,,,,2,0,16,0,60.089778800000204,,,,,,,,,,,,,,,,,,,,,60.073495399999956,60.089778800000204,60.57390290000012,60.57933690000027,60.601107500000126,61.19030669999984,,,,,61.19050030000017,61.205879000000095,61.40631239999993,61.390139999999974,60.601107500000126,,,,,,,,1,1,0.5765516000001298,None,,,,,,,,856,22,M,L,2026-02-25_11h39.43.165,VisualSearch_2526_3,,2025.2.4,2026-02-25 11h39.43.499037 +0100,
vertical.xlsx,The target is tilted.,135,17,1,2,0,1,1,1,1,1,1,1,1,1,1,1,1,11,12,135,space,5.412025600000106,None,0,1,1.2378207000001566,None,space,2.1474545000000944,None,0,0,0,1,,,,,2,1,17,4,61.40631239999993,,,,,,,,,,,,,,,,,,,,,61.39098190000004,61.40631239999993,61.8898635999999,61.89562960000012,61.91684870000017,63.157033800000136,,,,,63.157289799999944,63.17204790000005,63.372466599999825,63.356401300000016,61.91684870000017,,,,,,,,0,1,1.2378207000001566,None,,,,,,,,856,22,M,L,2026-02-25_11h39.43.165,VisualSearch_2526_3,,2025.2.4,2026-02-25 11h39.43.499037 +0100,
vertical.xlsx,The target is tilted.,135,18,2,2,1,1,1,1,0,0,0,0,0,0,0,0,0,3,4,135,space,5.412025600000106,None,1,1,0.5326412999997956,None,space,2.1474545000000944,None,0,0,0,1,,,,,2,2,18,2,63.372466599999825,,,,,,,,,,,,,,,,,,,,,63.35729440000023,63.372466599999825,63.85616140000002,63.86150529999986,63.883276300000034,64.42250150000018,,,,,64.42265929999985,64.43796569999995,64.63863979999996,64.62224800000013,63.883276300000034,,,,,,,,1,1,0.5326412999997956,None,,,,,,,,856,22,M,L,2026-02-25_11h39.43.165,VisualSearch_2526_3,,2025.2.4,2026-02-25 11h39.43.499037 +0100,
vertical.xlsx,The target is tilted.,135,19,3,2,0,0,0,0,0,0,0,0,0,0,0,0,1,1,1,135,space,5.412025600000106,None,0,1,0.8467686999997568,None,space,2.1474545000000944,None,0,0,0,1,,,,,2,3,19,7,64.63863979999996,,,,,,,,,,,,,,,,,,,,,64.62308459999986,64.63863979999996,65.12254740000026,65.12792949999994,65.14886479999996,66.00591970000005,,,,,66.00613939999994,66.0210519000002,66.22145739999996,66.20479909999995,65.14886479999996,,,,,,,,0,1,0.8467686999997568,None,,,,,,,,856,22,M,L,2026-02-25_11h39.43.165,VisualSearch_2526_3,,2025.2.4,2026-02-25 11h39.43.499037 +0100,
vertical.xlsx,The target is tilted.,135,20,4,2,0,1,1,1,0,0,0,0,0,0,0,0,1,3,4,135,space,5.412025600000106,None,0,1,0.5933353000000352,None,space,2.1474545000000944,None,0,0,0,1,,,,,2,4,20,6,66.22145739999996,,,,,,,,,,,,,,,,,,,,,66.2056520000001,66.22145739999996,66.70532090000006,66.71074690000023,66.73267040000019,67.33857669999998,,,,,67.33879819999993,67.35384209999984,67.55445340000006,67.53834000000006,66.73267040000019,,,,,,,,0,1,0.5933353000000352,None,,,,,,,,856,22,M,L,2026-02-25_11h39.43.165,VisualSearch_2526_3,,2025.2.4,2026-02-25 11h39.43.499037 +0100,
vertical.xlsx,The target is tilted.,135,21,5,2,0,1,1,1,1,1,1,1,0,0,0,0,1,7,8,135,space,5.412025600000106,None,0,1,0.8091047000002618,None,space,2.1474545000000944,None,0,0,0,1,,,,,2,5,21,5,67.55445340000006,,,,,,,,,,,,,,,,,,,,,67.53918190000013,67.55445340000006,68.03798030000007,68.04336439999997,68.06473170000027,68.88810950000016,,,,,68.88832950000005,68.90334500000017,69.10358260000021,69.08788559999994,68.06473170000027,,,,,,,,0,1,0.8091047000002618,None,,,,,,,,856,22,M,L,2026-02-25_11h39.43.165,VisualSearch_2526_3,,2025.2.4,2026-02-25 11h39.43.499037 +0100,
vertical.xlsx,The target is tilted.,135,22,6,2,1,0,0,0,0,0,0,0,0,0,0,0,0,0,1,135,space,5.412025600000106,None,1,1,0.42307879999998477,None,space,2.1474545000000944,None,0,0,0,1,,,,,2,6,22,3,69.10358260000021,,,,,,,,,,,,,,,,,,,,,69.08867839999994,69.10358260000021,69.58789750000005,69.59343889999991,69.61425499999996,70.0541275999999,,,,,70.05432240000027,70.069704,70.27014510000026,70.25419109999984,69.61425499999996,,,,,,,,1,1,0.42307879999998477,None,,,,,,,,856,22,M,L,2026-02-25_11h39.43.165,VisualSearch_2526_3,,2025.2.4,2026-02-25 11h39.43.499037 +0100,
vertical.xlsx,The target is tilted.,135,23,7,2,1,1,1,1,1,1,1,1,0,0,0,0,0,7,8,135,space,5.412025600000106,None,1,1,0.7328978000000461,None,space,2.1474545000000944,None,0,0,0,1,,,,,2,7,23,1,70.27014510000026,,,,,,,,,,,,,,,,,,,,,70.25500719999991,70.27014510000026,70.75400679999984,70.75937750000003,70.78140910000002,71.52095689999987,,,,,71.5212145999999,71.53563680000025,71.7364235,71.72025799999983,70.78140910000002,,,,,,,,1,1,0.7328978000000461,None,,,,,,,,856,22,M,L,2026-02-25_11h39.43.165,VisualSearch_2526_3,,2025.2.4,2026-02-25 11h39.43.499037 +0100,
vertical.xlsx,The target is tilted.,135,24,0,3,0,1,1,1,1,1,1,1,0,0,0,0,1,7,8,135,space,5.412025600000106,None,0,1,0.7983910000002652,None,space,2.1474545000000944,None,0,0,0,1,,,,,3,0,24,5,71.7364235,,,,,,,,,,,,,,,,,,,,,71.72105710000005,71.7364235,72.22012040000027,72.2255525999999,72.24185209999996,73.05334500000026,,,,,73.05356870000014,73.06867499999998,73.26889200000005,73.25320999999985,72.24185209999996,,,,,,,,0,1,0.7983910000002652,None,,,,,,,,856,22,M,L,2026-02-25_11h39.43.165,VisualSearch_2526_3,,2025.2.4,2026-02-25 11h39.43.499037 +0100,
vertical.xlsx,The target is tilted.,135,25,1,3,1,1,1,1,1,1,1,1,1,1,1,1,0,11,12,135,space,5.412025600000106,None,1,1,0.6075783999999658,None,space,2.1474545000000944,None,0,0,0,1,,,,,3,1,25,0,73.26889200000005,,,,,,,,,,,,,,,,,,,,,73.25406269999985,73.26889200000005,73.75293139999985,73.75836840000011,73.78021260000014,74.40309449999995,,,,,74.40331590000005,74.41825490000019,74.61877980000008,74.60276280000016,73.78021260000014,,,,,,,,1,1,0.6075783999999658,None,,,,,,,,856,22,M,L,2026-02-25_11h39.43.165,VisualSearch_2526_3,,2025.2.4,2026-02-25 11h39.43.499037 +0100,
vertical.xlsx,The target is tilted.,135,26,2,3,1,1,1,1,1,1,1,1,0,0,0,0,0,7,8,135,space,5.412025600000106,None,0,0,0.6342451999998957,None,space,2.1474545000000944,None,0,0,0,1,,,,,3,2,26,1,74.61877980000008,,,,,,,,,,,,,,,,,,,,,74.60362549999991,74.61877980000008,75.10256549999986,75.10790970000016,75.12521220000008,75.76964309999994,,,,,75.76986810000017,75.7845855999999,75.98490739999988,75.96895500000028,75.12521220000008,,,,,,,,0,0,0.6342451999998957,None,,,,,,,,856,22,M,L,2026-02-25_11h39.43.165,VisualSearch_2526_3,,2025.2.4,2026-02-25 11h39.43.499037 +0100,
vertical.xlsx,The target is tilted.,135,27,3,3,0,0,0,0,0,0,0,0,0,0,0,0,1,1,1,135,space,5.412025600000106,None,0,1,0.5030133999998725,None,space,2.1474545000000944,None,0,0,0,1,,,,,3,3,27,7,75.98490739999988,,,,,,,,,,,,,,,,,,,,,75.96976059999997,75.98490739999988,76.46873830000004,76.47406769999998,76.49580500000002,77.00189880000016,,,,,77.00206440000011,77.01728240000011,77.21796600000016,77.2018693,76.49580500000002,,,,,,,,0,1,0.5030133999998725,None,,,,,,,,856,22,M,L,2026-02-25_11h39.43.165,VisualSearch_2526_3,,2025.2.4,2026-02-25 11h39.43.499037 +0100,
vertical.xlsx,The target is tilted.,135,28,4,3,0,1,1,1,1,1,1,1,1,1,1,1,1,11,12,135,space,5.412025600000106,None,0,1,1.0243512000001829,None,space,2.1474545000000944,None,0,0,0,1,,,,,3,4,28,4,77.21796600000016,,,,,,,,,,,,,,,,,,,,,77.20266059999994,77.21796600000016,77.70170820000021,77.70700110000007,77.72807210000019,78.76849489999995,,,,,78.76878820000002,78.78323690000025,78.98388440000008,78.96776760000012,77.72807210000019,,,,,,,,0,1,1.0243512000001829,None,,,,,,,,856,22,M,L,2026-02-25_11h39.43.165,VisualSearch_2526_3,,2025.2.4,2026-02-25 11h39.43.499037 +0100,
vertical.xlsx,The target is tilted.,135,29,5,3,0,1,1,1,0,0,0,0,0,0,0,0,1,3,4,135,space,5.412025600000106,None,0,1,0.5816829000000325,None,space,2.1474545000000944,None,0,0,0,1,,,,,3,5,29,6,78.98388440000008,,,,,,,,,,,,,,,,,,,,,78.96864219999998,78.98388440000008,79.46782609999991,79.4731655999999,79.49499610000021,80.08482090000007,,,,,80.08507680000002,80.09983160000002,80.30011740000009,80.28413240000009,79.49499610000021,,,,,,,,0,1,0.5816829000000325,None,,,,,,,,856,22,M,L,2026-02-25_11h39.43.165,VisualSearch_2526_3,,2025.2.4,2026-02-25 11h39.43.499037 +0100,
vertical.xlsx,The target is tilted.,135,30,6,3,1,0,0,0,0,0,0,0,0,0,0,0,0,0,1,135,space,5.412025600000106,None,1,1,0.3922058000002835,None,space,2.1474545000000944,None,0,0,0,1,,,,,3,6,30,3,80.30011740000009,,,,,,,,,,,,,,,,,,,,,80.28496889999997,80.30011740000009,80.78400820000024,80.78857349999998,80.79988670000012,81.20112460000018,,,,,81.20138290000023,81.2157602000002,81.41603740000028,81.40005130000009,80.79988670000012,,,,,,,,1,1,0.3922058000002835,None,,,,,,,,856,22,M,L,2026-02-25_11h39.43.165,VisualSearch_2526_3,,2025.2.4,2026-02-25 11h39.43.499037 +0100,
vertical.xlsx,The target is tilted.,135,31,7,3,1,1,1,1,0,0,0,0,0,0,0,0,0,3,4,135,space,5.412025600000106,None,1,1,0.49252179999984946,None,space,2.1474545000000944,None,0,0,0,1,,,,,3,7,31,2,81.41603740000028,,,,,,,,,,,,,,,,,,,,,81.4018129000001,81.41603740000028,81.90032990000009,81.90563640000028,81.92760690000023,82.43285689999993,,,,,82.43297630000006,82.44877840000026,,82.63310899999988,81.92760690000023,,,,,,,,1,1,0.49252179999984946,None,,,,,,,,856,22,M,L,2026-02-25_11h39.43.165,VisualSearch_2526_3,,2025.2.4,2026-02-25 11h39.43.499037 +0100,
vertical.xlsx,The target is tilted.,135,32,0,4,1,1,1,1,1,1,1,1,0,0,0,0,0,7,8,135,space,5.412025600000106,None,1,1,0.6236682999997356,None,space,2.1474545000000944,None,0,0,0,1,,,,,4,0,32,1,82.6491873,,,,,,,,,,,,,,,,,,,,,82.63396969999985,82.6491873,83.13332820000005,83.1385709000001,83.1594914000002,83.79977469999994,,,,,83.80001260000017,83.8152611999999,84.0157422000002,83.99946390000014,83.1594914000002,,,,,,,,1,1,0.6236682999997356,None,,,,,,,,856,22,M,L,2026-02-25_11h39.43.165,VisualSearch_2526_3,,2025.2.4,2026-02-25 11h39.43.499037 +0100,
vertical.xlsx,The target is tilted.,135,33,1,4,1,1,1,1,0,0,0,0,0,0,0,0,0,3,4,135,space,5.412025600000106,None,0,0,0.5748803000001317,None,space,2.1474545000000944,None,0,0,0,1,,,,,4,1,33,2,84.0157422000002,,,,,,,,,,,,,,,,,,,,,84.00030560000005,84.0157422000002,84.49933659999988,84.50483829999985,84.52107500000011,85.09949520000009,,,,,85.09971670000004,85.11481640000011,85.31523359999983,85.29925630000025,84.52107500000011,,,,,,,,0,0,0.5748803000001317,None,,,,,,,,856,22,M,L,2026-02-25_11h39.43.165,VisualSearch_2526_3,,2025.2.4,2026-02-25 11h39.43.499037 +0100,
vertical.xlsx,The target is tilted.,135,34,2,4,1,1,1,1,1,1,1,1,1,1,1,1,0,11,12,135,space,5.412025600000106,None,1,1,0.4963806000000659,None,space,2.1474545000000944,None,0,0,0,1,,,,,4,2,34,0,85.31523359999983,,,,,,,,,,,,,,,,,,,,,85.30008709999993,85.31523359999983,85.79865960000006,85.80395350000026,85.82566769999994,86.3327061,,,,,86.33292400000028,86.3477468000001,86.54820670000026,86.53168790000018,85.82566769999994,,,,,,,,1,1,0.4963806000000659,None,,,,,,,,856,22,M,L,2026-02-25_11h39.43.165,VisualSearch_2526_3,,2025.2.4,2026-02-25 11h39.43.499037 +0100,
vertical.xlsx,The target is tilted.,135,35,3,4,0,0,0,0,0,0,0,0,0,0,0,0,1,1,1,135,space,5.412025600000106,None,0,1,0.4464517999999771,None,space,2.1474545000000944,None,0,0,0,1,,,,,4,3,35,7,86.54820670000026,,,,,,,,,,,,,,,,,,,,,86.53250030000027,86.54820670000026,87.03170820000014,87.03683649999994,87.06022500000017,87.51572399999986,,,,,87.51654569999982,87.53047620000007,87.73115480000024,87.71504660000028,87.06022500000017,,,,,,,,0,1,0.4464517999999771,None,,,,,,,,856,22,M,L,2026-02-25_11h39.43.165,VisualSearch_2526_3,,2025.2.4,2026-02-25 11h39.43.499037 +0100,
vertical.xlsx,The target is tilted.,135,36,4,4,0,1,1,1,1,1,1,1,1,1,1,1,1,11,12,135,space,5.412025600000106,None,0,1,0.8353236999996625,None,space,2.1474545000000944,None,0,0,0,1,,,,,4,4,36,4,87.73115480000024,,,,,,,,,,,,,,,,,,,,,87.7159372000001,87.73115480000024,88.21499690000019,88.22001739999996,88.23069050000004,89.08143120000022,,,,,89.08165099999997,89.09680200000003,89.29695140000013,89.28106630000002,88.23069050000004,,,,,,,,0,1,0.8353236999996625,None,,,,,,,,856,22,M,L,2026-02-25_11h39.43.165,VisualSearch_2526_3,,2025.2.4,2026-02-25 11h39.43.499037 +0100,
vertical.xlsx,The target is tilted.,135,37,5,4,1,0,0,0,0,0,0,0,0,0,0,0,0,0,1,135,space,5.412025600000106,None,1,1,0.4273349000000053,None,space,2.1474545000000944,None,0,0,0,1,,,,,4,5,37,3,89.29695140000013,,,,,,,,,,,,,,,,,,,,,89.28189999999995,89.29695140000013,89.7811658999999,89.78647940000019,89.80779810000013,90.24692520000008,,,,,90.24705369999992,90.26327330000004,,90.44721620000018,89.80779810000013,,,,,,,,1,1,0.4273349000000053,None,,,,,,,,856,22,M,L,2026-02-25_11h39.43.165,VisualSearch_2526_3,,2025.2.4,2026-02-25 11h39.43.499037 +0100,
vertical.xlsx,The target is tilted.,135,38,6,4,0,1,1,1,0,0,0,0,0,0,0,0,1,3,4,135,space,5.412025600000106,None,0,1,0.5626563999999235,None,space,2.1474545000000944,None,0,0,0,1,,,,,4,6,38,6,90.46361269999989,,,,,,,,,,,,,,,,,,,,,90.44806840000001,90.46361269999989,90.94716550000021,90.95254879999993,90.9728599,91.54654149999988,,,,,91.54666380000026,91.56256620000022,,91.7468686000002,,,,,,,,,0,1,0.5626563999999235,None,,,,,,,,856,22,M,L,2026-02-25_11h39.43.165,VisualSearch_2526_3,,2025.2.4,2026-02-25 11h39.43.499037 +0100,
vertical.xlsx,The target is tilted.,135,39,7,4,0,1,1,1,1,1,1,1,0,0,0,0,1,7,8,135,space,5.412025600000106,None,0,1,1.0631429999998545,None,space,2.1474545000000944,None,0,0,0,1,,,,,4,7,39,5,91.76319340000009,,,,,,,,,,,,,,,,,,,,,91.74775240000008,91.76319340000009,92.2467216,92.25209350000023,92.27374719999989,93.34705080000003,,,,,93.34725660000004,93.36190429999988,93.56267860000025,93.54605450000008,92.27374719999989,,,,,,,,0,1,1.0631429999998545,None,,,,,,,,856,22,M,L,2026-02-25_11h39.43.165,VisualSearch_2526_3,,2025.2.4,2026-02-25 11h39.43.499037 +0100,
vertical.xlsx,The target is tilted.,135,40,0,5,0,1,1,1,1,1,1,1,1,1,1,1,1,11,12,135,space,5.412025600000106,None,0,1,1.3311469999998735,None,space,2.1474545000000944,None,0,0,0,1,,,,,5,0,40,4,93.56267860000025,,,,,,,,,,,,,,,,,,,,,93.54686159999983,93.56267860000025,94.04562380000016,94.04889110000022,94.06219740000006,95.39635899999985,,,,,95.39657230000012,95.41142739999987,95.61197459999994,95.59587020000026,94.06219740000006,,,,,,,,0,1,1.3311469999998735,None,,,,,,,,856,22,M,L,2026-02-25_11h39.43.165,VisualSearch_2526_3,,2025.2.4,2026-02-25 11h39.43.499037 +0100,
vertical.xlsx,The target is tilted.,135,41,1,5,1,1,1,1,1,1,1,1,1,1,1,1,0,11,12,135,space,5.412025600000106,None,1,1,1.087713899999926,None,space,2.1474545000000944,None,0,0,0,1,,,,,5,1,41,0,95.61197459999994,,,,,,,,,,,,,,,,,,,,,95.59667010000021,95.61197459999994,96.09577560000025,96.10115410000026,96.12255899999991,97.21237280000014,,,,,97.21258320000015,97.22753550000016,97.42797680000012,97.41187020000007,96.12255899999991,,,,,,,,1,1,1.087713899999926,None,,,,,,,,856,22,M,L,2026-02-25_11h39.43.165,VisualSearch_2526_3,,2025.2.4,2026-02-25 11h39.43.499037 +0100,
vertical.xlsx,The target is tilted.,135,42,2,5,1,0,0,0,0,0,0,0,0,0,0,0,0,0,1,135,space,5.412025600000106,None,1,1,0.39798160000009375,None,space,2.1474545000000944,None,0,0,0,1,,,,,5,2,42,3,97.42797680000012,,,,,,,,,,,,,,,,,,,,,97.41268900000023,97.42797680000012,97.91185619999987,97.917238,97.93845090000013,98.34623529999999,,,,,98.34648779999998,98.36025419999987,98.56081350000022,98.54494109999996,97.93845090000013,,,,,,,,1,1,0.39798160000009375,None,,,,,,,,856,22,M,L,2026-02-25_11h39.43.165,VisualSearch_2526_3,,2025.2.4,2026-02-25 11h39.43.499037 +0100,
vertical.xlsx,The target is tilted.,135,43,3,5,0,1,1,1,1,1,1,1,0,0,0,0,1,7,8,135,space,5.412025600000106,None,0,1,0.9193371000001207,None,space,2.1474545000000944,None,0,0,0,1,,,,,5,3,43,5,98.56081350000022,,,,,,,,,,,,,,,,,,,,,98.5457977000001,98.56081350000022,99.04478819999986,99.05025849999993,99.07193050000024,99.99474330000021,,,,,99.99496630000021,100.01002430000017,100.21013189999985,100.19400600000017,99.07193050000024,,,,,,,,0,1,0.9193371000001207,None,,,,,,,,856,22,M,L,2026-02-25_11h39.43.165,VisualSearch_2526_3,,2025.2.4,2026-02-25 11h39.43.499037 +0100,
vertical.xlsx,The target is tilted.,135,44,4,5,0,1,1,1,0,0,0,0,0,0,0,0,1,3,4,135,space,5.412025600000106,None,0,1,0.6688677000001917,None,space,2.1474545000000944,None,0,0,0,1,,,,,5,4,44,6,100.21013189999985,,,,,,,,,,,,,,,,,,,,,100.19486360000019,100.21013189999985,100.69424819999995,100.69959900000003,100.7228712000001,101.39422009999998,,,,,101.3944434,101.40928059999987,101.60984850000023,101.59389659999988,100.7228712000001,,,,,,,,0,1,0.6688677000001917,None,,,,,,,,856,22,M,L,2026-02-25_11h39.43.165,VisualSearch_2526_3,,2025.2.4,2026-02-25 11h39.43.499037 +0100,
vertical.xlsx,The target is tilted.,135,45,5,5,0,0,0,0,0,0,0,0,0,0,0,0,1,1,1,135,space,5.412025600000106,None,0,1,0.4241612000000714,None,space,2.1474545000000944,None,0,0,0,1,,,,,5,5,45,7,101.60984850000023,,,,,,,,,,,,,,,,,,,,,101.59470030000011,101.60984850000023,102.09373200000027,102.09896479999998,102.11992190000001,102.55948390000003,,,,,102.55960460000006,102.57558539999991,,102.75990779999984,102.11992190000001,,,,,,,,0,1,0.4241612000000714,None,,,,,,,,856,22,M,L,2026-02-25_11h39.43.165,VisualSearch_2526_3,,2025.2.4,2026-02-25 11h39.43.499037 +0100,
vertical.xlsx,The target is tilted.,135,46,6,5,1,1,1,1,1,1,1,1,0,0,0,0,0,7,8,135,space,5.412025600000106,None,0,0,1.0654119999999239,None,space,2.1474545000000944,None,0,0,0,1,,,,,5,6,46,1,102.77591410000014,,,,,,,,,,,,,,,,,,,,,102.76077470000018,102.77591410000014,103.25983189999988,103.26516600000014,103.28652980000015,104.36001729999998,,,,,104.3602378999999,104.37491439999985,104.57515710000007,104.5594071999999,103.28652980000015,,,,,,,,0,0,1.0654119999999239,None,,,,,,,,856,22,M,L,2026-02-25_11h39.43.165,VisualSearch_2526_3,,2025.2.4,2026-02-25 11h39.43.499037 +0100,
vertical.xlsx,The target is tilted.,135,47,7,5,1,1,1,1,0,0,0,0,0,0,0,0,0,3,4,135,space,5.412025600000106,None,1,1,0.4160993000000417,None,space,2.1474545000000944,None,0,0,0,1,,,,,5,7,47,2,104.57515710000007,,,,,,,,,,,,,,,,,,,,,104.56025379999983,104.57515710000007,105.05951229999982,105.06481410000015,105.08673320000025,105.50962900000013,,,,,105.50982460000023,105.52468510000017,105.72542269999985,105.70917199999985,105.08673320000025,,,,,,,,1,1,0.4160993000000417,None,,,,,,,,856,22,M,L,2026-02-25_11h39.43.165,VisualSearch_2526_3,,2025.2.4,2026-02-25 11h39.43.499037 +0100,
vertical.xlsx,The target is tilted.,135,48,0,6,1,0,0,0,0,0,0,0,0,0,0,0,0,0,1,135,space,5.412025600000106,None,1,1,0.4599978999999621,None,space,2.1474545000000944,None,0,0,0,1,,,,,6,0,48,3,105.72542269999985,,,,,,,,,,,,,,,,,,,,,105.70998650000001,105.72542269999985,106.20893609999985,106.21429480000006,106.23600859999988,106.70819250000022,,,,,106.70831140000018,106.72427849999985,106.92478919999985,106.90844100000004,106.23600859999988,,,,,,,,1,1,0.4599978999999621,None,,,,,,,,856,22,M,L,2026-02-25_11h39.43.165,VisualSearch_2526_3,,2025.2.4,2026-02-25 11h39.43.499037 +0100,
vertical.xlsx,The target is tilted.,135,49,1,6,1,1,1,1,1,1,1,1,1,1,1,1,0,11,12,135,space,5.412025600000106,None,1,1,0.7621073999998771,None,space,2.1474545000000944,None,0,0,0,1,,,,,6,1,49,0,106.92478919999985,,,,,,,,,,,,,,,,,,,,,106.9092627,106.92478919999985,107.40843660000019,107.41386560000001,107.43565699999999,108.20852909999985,,,,,108.20875119999982,108.22394020000002,108.42442489999985,108.40828680000004,,,,,,,,,1,1,0.7621073999998771,None,,,,,,,,856,22,M,L,2026-02-25_11h39.43.165,VisualSearch_2526_3,,2025.2.4,2026-02-25 11h39.43.499037 +0100,
vertical.xlsx,The target is tilted.,135,50,2,6,0,1,1,1,1,1,1,1,0,0,0,0,1,7,8,135,space,5.412025600000106,None,0,1,0.8531158999999207,None,space,2.1474545000000944,None,0,0,0,1,,,,,6,2,50,5,108.42442489999985,,,,,,,,,,,,,,,,,,,,,108.40910290000011,108.42442489999985,108.90819490000013,108.91351740000027,108.93523360000017,109.79188400000021,,,,,109.79210710000007,109.80680900000016,110.0072395000002,109.99117590000014,108.93523360000017,,,,,,,,0,1,0.8531158999999207,None,,,,,,,,856,22,M,L,2026-02-25_11h39.43.165,VisualSearch_2526_3,,2025.2.4,2026-02-25 11h39.43.499037 +0100,
vertical.xlsx,The target is tilted.,135,51,3,6,1,1,1,1,0,0,0,0,0,0,0,0,0,3,4,135,space,5.412025600000106,None,1,1,0.4730470999998033,None,space,2.1474545000000944,None,0,0,0,1,,,,,6,3,51,2,110.0072395000002,,,,,,,,,,,,,,,,,,,,,109.99199429999999,110.0072395000002,110.49091080000017,110.49627469999996,110.51760890000014,111.00735480000003,,,,,111.00756159999992,111.02299820000007,111.22346220000009,111.2074364,110.51760890000014,,,,,,,,1,1,0.4730470999998033,None,,,,,,,,856,22,M,L,2026-02-25_11h39.43.165,VisualSearch_2526_3,,2025.2.4,2026-02-25 11h39.43.499037 +0100,
vertical.xlsx,The target is tilted.,135,52,4,6,1,1,1,1,1,1,1,1,0,0,0,0,0,7,8,135,space,5.412025600000106,None,1,1,0.7669491999999991,None,space,2.1474545000000944,None,0,0,0,1,,,,,6,4,52,1,111.22346220000009,,,,,,,,,,,,,,,,,,,,,111.20823999999993,111.22346220000009,111.70734279999988,111.71276179999995,111.73449530000016,112.5076297999999,,,,,112.50788090000015,112.52244100000007,112.72303749999992,112.70683150000013,111.73449530000016,,,,,,,,1,1,0.7669491999999991,None,,,,,,,,856,22,M,L,2026-02-25_11h39.43.165,VisualSearch_2526_3,,2025.2.4,2026-02-25 11h39.43.499037 +0100,
vertical.xlsx,The target is tilted.,135,53,5,6,0,0,0,0,0,0,0,0,0,0,0,0,1,1,1,135,space,5.412025600000106,None,0,1,0.5148946000003889,None,space,2.1474545000000944,None,0,0,0,1,,,,,6,5,53,7,112.72303749999992,,,,,,,,,,,,,,,,,,,,,112.70770360000006,112.72303749999992,113.20695500000011,113.21301769999991,113.2345848,113.75701509999999,,,,,113.75721130000011,113.77194940000027,113.97265019999986,113.95655369999986,113.2345848,,,,,,,,0,1,0.5148946000003889,None,,,,,,,,856,22,M,L,2026-02-25_11h39.43.165,VisualSearch_2526_3,,2025.2.4,2026-02-25 11h39.43.499037 +0100,
vertical.xlsx,The target is tilted.,135,54,6,6,0,1,1,1,1,1,1,1,1,1,1,1,1,11,12,135,space,5.412025600000106,None,0,1,1.3905838999999105,None,space,2.1474545000000944,None,0,0,0,1,,,,,6,6,54,4,113.97265019999986,,,,,,,,,,,,,,,,,,,,,113.95734700000003,113.97265019999986,114.45626200000015,114.46160139999984,114.48302390000026,115.8887023000002,,,,,115.88889359999985,115.9046330000001,116.10527899999988,116.08912550000014,114.48302390000026,,,,,,,,0,1,1.3905838999999105,None,,,,,,,,856,22,M,L,2026-02-25_11h39.43.165,VisualSearch_2526_3,,2025.2.4,2026-02-25 11h39.43.499037 +0100,
vertical.xlsx,The target is tilted.,135,55,7,6,0,1,1,1,0,0,0,0,0,0,0,0,1,3,4,135,space,5.412025600000106,None,0,1,0.5161081999999624,None,space,2.1474545000000944,None,0,0,0,1,,,,,6,7,55,6,116.10527899999988,,,,,,,,,,,,,,,,,,,,,116.08994819999998,116.10527899999988,116.58906979999983,116.59432019999986,116.61585860000014,117.13924399999996,,,,,117.13944020000008,117.15429330000006,117.35480039999993,117.33873510000012,116.61585860000014,,,,,,,,0,1,0.5161081999999624,None,,,,,,,,856,22,M,L,2026-02-25_11h39.43.165,VisualSearch_2526_3,,2025.2.4,2026-02-25 11h39.43.499037 +0100,
vertical.xlsx,The target is tilted.,135,56,0,7,1,0,0,0,0,0,0,0,0,0,0,0,0,0,1,135,space,5.412025600000106,None,1,1,0.4310553999998774,None,space,2.1474545000000944,None,0,0,0,1,,,,,7,0,56,3,117.35480039999993,,,,,,,,,,,,,,,,,,,,,117.33956510000007,117.35480039999993,117.8385701000002,117.84387169999991,117.86494500000026,118.30574340000021,,,,,118.30599519999987,118.32058610000013,118.52108810000027,118.50494389999994,117.86494500000026,,,,,,,,1,1,0.4310553999998774,None,,,,,,,,856,22,M,L,2026-02-25_11h39.43.165,VisualSearch_2526_3,,2025.2.4,2026-02-25 11h39.43.499037 +0100,
vertical.xlsx,The target is tilted.,135,57,1,7,1,1,1,1,1,1,1,1,1,1,1,1,0,11,12,135,space,5.412025600000106,None,1,1,1.139270099999976,None,space,2.1474545000000944,None,0,0,0,1,,,,,7,1,57,0,118.52108810000027,,,,,,,,,,,,,,,,,,,,,118.50579100000004,118.52108810000027,119.00494370000024,119.01026720000027,119.02774260000024,120.17158419999987,,,,,120.17183040000009,120.18671059999997,120.38722959999996,120.3711631000001,119.02774260000024,,,,,,,,1,1,1.139270099999976,None,,,,,,,,856,22,M,L,2026-02-25_11h39.43.165,VisualSearch_2526_3,,2025.2.4,2026-02-25 11h39.43.499037 +0100,
vertical.xlsx,The target is tilted.,135,58,2,7,1,1,1,1,0,0,0,0,0,0,0,0,0,3,4,135,space,5.412025600000106,None,1,1,0.46666700000014316,None,space,2.1474545000000944,None,0,0,0,1,,,,,7,2,58,2,120.38722959999996,,,,,,,,,,,,,,,,,,,,,120.37198519999993,120.38722959999996,120.87081249999983,120.87624890000006,120.8973347000001,121.37056100000018,,,,,121.37073680000003,121.38608710000017,121.58678860000009,121.57031110000025,120.8973347000001,,,,,,,,1,1,0.46666700000014316,None,,,,,,,,856,22,M,L,2026-02-25_11h39.43.165,VisualSearch_2526_3,,2025.2.4,2026-02-25 11h39.43.499037 +0100,
vertical.xlsx,The target is tilted.,135,59,3,7,0,0,0,0,0,0,0,0,0,0,0,0,1,1,1,135,space,5.412025600000106,None,0,1,0.4914321999999629,None,space,2.1474545000000944,None,0,0,0,1,,,,,7,3,59,7,121.58678860000009,,,,,,,,,,,,,,,,,,,,,121.5711366999999,121.58678860000009,122.07047969999985,122.07555450000018,122.08649370000012,122.58766569999989,,,,,122.58791960000008,122.60274460000028,122.80310740000004,122.7870412000002,122.08649370000012,,,,,,,,0,1,0.4914321999999629,None,,,,,,,,856,22,M,L,2026-02-25_11h39.43.165,VisualSearch_2526_3,,2025.2.4,2026-02-25 11h39.43.499037 +0100,
vertical.xlsx,The target is tilted.,135,60,4,7,1,1,1,1,1,1,1,1,0,0,0,0,0,7,8,135,space,5.412025600000106,None,1,1,0.614748899999995,None,space,2.1474545000000944,None,0,0,0,1,,,,,7,4,60,1,122.80310740000004,,,,,,,,,,,,,,,,,,,,,122.78784600000017,122.80310740000004,123.28670220000004,123.29213849999996,123.31357389999994,123.93710180000016,,,,,123.9373344999999,123.95188749999988,124.15263520000008,124.13636020000013,123.31357389999994,,,,,,,,1,1,0.614748899999995,None,,,,,,,,856,22,M,L,2026-02-25_11h39.43.165,VisualSearch_2526_3,,2025.2.4,2026-02-25 11h39.43.499037 +0100,
vertical.xlsx,The target is tilted.,135,61,5,7,0,1,1,1,1,1,1,1,1,1,1,1,1,11,12,135,space,5.412025600000106,None,0,1,1.6032242000001133,None,space,2.1474545000000944,None,0,0,0,1,,,,,7,5,61,4,124.15263520000008,,,,,,,,,,,,,,,,,,,,,124.13721420000002,124.15263520000008,124.63646960000005,124.64278730000024,124.66453279999996,126.26973899999984,,,,,126.26997299999994,126.28475170000002,126.48480560000007,126.46886129999984,124.66453279999996,,,,,,,,0,1,1.6032242000001133,None,,,,,,,,856,22,M,L,2026-02-25_11h39.43.165,VisualSearch_2526_3,,2025.2.4,2026-02-25 11h39.43.499037 +0100,
vertical.xlsx,The target is tilted.,135,62,6,7,0,1,1,1,0,0,0,0,0,0,0,0,1,3,4,135,space,5.412025600000106,None,0,1,0.6669204999998328,None,space,2.1474545000000944,None,0,0,0,1,,,,,7,6,62,6,126.48480560000007,,,,,,,,,,,,,,,,,,,,,126.4697142,126.48480560000007,126.96904070000028,126.9742795000002,126.99502780000012,127.66929789999995,,,,,127.66954380000016,127.68440460000011,127.88473789999989,127.8687101999999,126.99502780000012,,,,,,,,0,1,0.6669204999998328,None,,,,,,,,856,22,M,L,2026-02-25_11h39.43.165,VisualSearch_2526_3,,2025.2.4,2026-02-25 11h39.43.499037 +0100,
vertical.xlsx,The target is tilted.,135,63,7,7,0,1,1,1,1,1,1,1,0,0,0,0,1,7,8,135,space,5.412025600000106,None,0,1,0.9437213999999585,None,space,2.1474545000000944,None,0,0,0,1,,,,,7,7,63,5,127.88473789999989,,,,,,,,,,,,,,,,,,,,,127.86992599999985,127.88473789999989,128.36864960000003,128.37413730000026,128.39651809999987,129.35263480000003,,,,,129.35286110000015,129.36707060000026,129.56752039999992,129.55139050000025,128.39651809999987,,,,,,,,0,1,0.9437213999999585,None,,,,,,,,856,22,M,L,2026-02-25_11h39.43.165,VisualSearch_2526_3,,2025.2.4,2026-02-25 11h39.43.499037 +0100,
vertical.xlsx,The target is tilted.,135,64,0,8,1,1,1,1,1,1,1,1,1,1,1,1,0,11,12,135,space,5.412025600000106,None,1,1,1.1124528999998802,None,space,2.1474545000000944,None,0,0,0,1,,,,,8,0,64,0,129.56752039999992,,,,,,,,,,,,,,,,,,,,,129.5522175000001,129.56752039999992,130.05122070000016,130.05656380000028,130.0768975000001,131.2002050000001,,,,,131.20032450000008,131.21626019999985,,131.40045169999985,130.0768975000001,,,,,,,,1,1,1.1124528999998802,None,,,,,,,,856,22,M,L,2026-02-25_11h39.43.165,VisualSearch_2526_3,,2025.2.4,2026-02-25 11h39.43.499037 +0100,
vertical.xlsx,The target is tilted.,135,65,1,8,0,1,1,1,1,1,1,1,0,0,0,0,1,7,8,135,space,5.412025600000106,None,1,0,1.0028380999997353,None,space,2.1474545000000944,None,0,0,0,1,,,,,8,1,65,5,131.41679520000025,,,,,,,,,,,,,,,,,,,,,131.40132440000025,131.41679520000025,131.90060369999992,131.90607150000005,131.9275292000002,132.93399490000002,,,,,132.9342101000002,132.94928789999994,133.14962640000022,133.1336056,131.9275292000002,,,,,,,,1,0,1.0028380999997353,None,,,,,,,,856,22,M,L,2026-02-25_11h39.43.165,VisualSearch_2526_3,,2025.2.4,2026-02-25 11h39.43.499037 +0100,
vertical.xlsx,The target is tilted.,135,66,2,8,1,1,1,1,1,1,1,1,0,0,0,0,0,7,8,135,space,5.412025600000106,None,1,1,0.9024132999998074,None,space,2.1474545000000944,None,0,0,0,1,,,,,8,2,66,1,133.14962640000022,,,,,,,,,,,,,,,,,,,,,133.13449760000003,133.14962640000022,133.63324180000018,133.6384524,133.65884880000021,134.56681900000012,,,,,134.5670525999999,134.5820351000002,134.7824971,134.76651450000008,133.65884880000021,,,,,,,,1,1,0.9024132999998074,None,,,,,,,,856,22,M,L,2026-02-25_11h39.43.165,VisualSearch_2526_3,,2025.2.4,2026-02-25 11h39.43.499037 +0100,
vertical.xlsx,The target is tilted.,135,67,3,8,0,0,0,0,0,0,0,0,0,0,0,0,1,1,1,135,space,5.412025600000106,None,0,1,0.4885982000000695,None,space,2.1474545000000944,None,0,0,0,1,,,,,8,3,67,7,134.7824971,,,,,,,,,,,,,,,,,,,,,134.76738090000026,134.7824971,135.26641139999992,135.27184279999983,135.2943368000001,135.79959899999994,,,,,135.79981510000016,135.81487930000003,136.01538680000021,135.99934310000026,135.2943368000001,,,,,,,,0,1,0.4885982000000695,None,,,,,,,,856,22,M,L,2026-02-25_11h39.43.165,VisualSearch_2526_3,,2025.2.4,2026-02-25 11h39.43.499037 +0100,
vertical.xlsx,The target is tilted.,135,68,4,8,1,0,0,0,0,0,0,0,0,0,0,0,0,0,1,135,space,5.412025600000106,None,1,1,0.4188310999998066,None,space,2.1474545000000944,None,0,0,0,1,,,,,8,4,68,3,136.01538680000021,,,,,,,,,,,,,,,,,,,,,136.00013519999993,136.01538680000021,136.49933920000012,136.50464950000014,136.52569399999993,136.94911360000015,,,,,136.94932270000027,136.96453370000017,137.16501229999994,137.14896110000018,136.52569399999993,,,,,,,,1,1,0.4188310999998066,None,,,,,,,,856,22,M,L,2026-02-25_11h39.43.165,VisualSearch_2526_3,,2025.2.4,2026-02-25 11h39.43.499037 +0100,
vertical.xlsx,The target is tilted.,135,69,5,8,1,1,1,1,0,0,0,0,0,0,0,0,0,3,4,135,space,5.412025600000106,None,1,1,0.48270300000012867,None,space,2.1474545000000944,None,0,0,0,1,,,,,8,5,69,2,137.16501229999994,,,,,,,,,,,,,,,,,,,,,137.14977839999983,137.16501229999994,137.64887290000024,137.65407860000005,137.675115,138.16578459999982,,,,,138.16598150000027,138.1806104000002,138.3813255,138.36532260000013,137.675115,,,,,,,,1,1,0.48270300000012867,None,,,,,,,,856,22,M,L,2026-02-25_11h39.43.165,VisualSearch_2526_3,,2025.2.4,2026-02-25 11h39.43.499037 +0100,
vertical.xlsx,The target is tilted.,135,70,6,8,0,1,1,1,1,1,1,1,1,1,1,1,1,11,12,135,space,5.412025600000106,None,0,1,1.156612700000096,None,space,2.1474545000000944,None,0,0,0,1,,,,,8,6,70,4,138.3813255,,,,,,,,,,,,,,,,,,,,,138.36619310000015,138.3813255,138.8649593,138.87026190000006,138.89159180000024,140.06394799999998,,,,,140.06404299999986,140.08024990000013,140.27991800000018,140.26403149999987,138.89159180000024,,,,,,,,0,1,1.156612700000096,None,,,,,,,,856,22,M,L,2026-02-25_11h39.43.165,VisualSearch_2526_3,,2025.2.4,2026-02-25 11h39.43.499037 +0100,
vertical.xlsx,The target is tilted.,135,71,7,8,0,1,1,1,0,0,0,0,0,0,0,0,1,3,4,135,space,5.412025600000106,None,0,1,0.7053205000001981,None,space,2.1474545000000944,None,0,0,0,1,,,,,8,7,71,6,140.27991800000018,,,,,,,,,,,,,,,,,,,,,140.2644768,140.27991800000018,140.7639638999999,140.76921070000026,140.79053269999986,141.49812079999992,,,,,141.49836649999997,141.51313290000007,141.71351619999996,141.6975364,140.79053269999986,,,,,,,,0,1,0.7053205000001981,None,,,,,,,,856,22,M,L,2026-02-25_11h39.43.165,VisualSearch_2526_3,,2025.2.4,2026-02-25 11h39.43.499037 +0100,
vertical.xlsx,The target is tilted.,135,72,0,9,1,0,0,0,0,0,0,0,0,0,0,0,0,0,1,135,space,5.412025600000106,None,1,1,0.39840870000034556,None,space,2.1474545000000944,None,0,0,0,1,,,,,9,0,72,3,141.71351619999996,,,,,,,,,,,,,,,,,,,,,141.6983196000001,141.71351619999996,142.19741840000006,142.20262839999987,142.22406839999985,142.63083589999997,,,,,142.63102430000026,142.64601300000004,142.84610169999996,142.83016959999986,142.22406839999985,,,,,,,,1,1,0.39840870000034556,None,,,,,,,,856,22,M,L,2026-02-25_11h39.43.165,VisualSearch_2526_3,,2025.2.4,2026-02-25 11h39.43.499037 +0100,
vertical.xlsx,The target is tilted.,135,73,1,9,0,1,1,1,1,1,1,1,1,1,1,1,1,11,12,135,space,5.412025600000106,None,0,1,1.108828899999935,None,space,2.1474545000000944,None,0,0,0,1,,,,,9,1,73,4,142.84610169999996,,,,,,,,,,,,,,,,,,,,,142.83099570000013,142.84610169999996,143.33010270000023,143.33543700000018,143.35690639999984,144.47957739999993,,,,,144.4797066000001,144.49533640000027,144.6959511,144.6794785000002,143.35690639999984,,,,,,,,0,1,1.108828899999935,None,,,,,,,,856,22,M,L,2026-02-25_11h39.43.165,VisualSearch_2526_3,,2025.2.4,2026-02-25 11h39.43.499037 +0100,
vertical.xlsx,The target is tilted.,135,74,2,9,0,1,1,1,0,0,0,0,0,0,0,0,1,3,4,135,space,5.412025600000106,None,0,1,0.5902452999998786,None,space,2.1474545000000944,None,0,0,0,1,,,,,9,2,74,6,144.6959511,,,,,,,,,,,,,,,,,,,,,144.68031269999983,144.6959511,145.1793760999999,145.1846513999999,145.20637420000003,145.81206930000008,,,,,145.81218649999983,145.82848999999987,,146.0124334000002,145.20637420000003,,,,,,,,0,1,0.5902452999998786,None,,,,,,,,856,22,M,L,2026-02-25_11h39.43.165,VisualSearch_2526_3,,2025.2.4,2026-02-25 11h39.43.499037 +0100,
vertical.xlsx,The target is tilted.,135,75,3,9,1,1,1,1,0,0,0,0,0,0,0,0,0,3,4,135,space,5.412025600000106,None,0,0,0.6145557999998346,None,space,2.1474545000000944,None,0,0,0,1,,,,,9,3,75,2,146.02881190000016,,,,,,,,,,,,,,,,,,,,,146.01329170000008,146.02881190000016,146.51275250000026,146.51791110000022,146.5284547000001,147.14630669999997,,,,,147.14653390000012,147.16121500000008,147.36172690000012,147.3456973000002,,,,,,,,,0,0,0.6145557999998346,None,,,,,,,,856,22,M,L,2026-02-25_11h39.43.165,VisualSearch_2526_3,,2025.2.4,2026-02-25 11h39.43.499037 +0100,
vertical.xlsx,The target is tilted.,135,76,4,9,0,1,1,1,1,1,1,1,0,0,0,0,1,7,8,135,space,5.412025600000106,None,0,1,1.1026127000000088,None,space,2.1474545000000944,None,0,0,0,1,,,,,9,4,76,5,147.36172690000012,,,,,,,,,,,,,,,,,,,,,147.34650980000015,147.36172690000012,147.84544370000003,147.85045750000018,147.87265979999984,148.97874379999985,,,,,148.9789596999999,148.99400430000014,149.19445700000006,149.17843630000016,147.87265979999984,,,,,,,,0,1,1.1026127000000088,None,,,,,,,,856,22,M,L,2026-02-25_11h39.43.165,VisualSearch_2526_3,,2025.2.4,2026-02-25 11h39.43.499037 +0100,
vertical.xlsx,The target is tilted.,135,77,5,9,0,0,0,0,0,0,0,0,0,0,0,0,1,1,1,135,space,5.412025600000106,None,0,1,0.45159259999991264,None,space,2.1474545000000944,None,0,0,0,1,,,,,9,5,77,7,149.19445700000006,,,,,,,,,,,,,,,,,,,,,149.17924630000016,149.19445700000006,149.67831049999995,149.68353949999982,149.70462640000005,150.1620127000001,,,,,150.16225440000017,150.1769951000001,150.37726550000025,150.36121330000014,149.70462640000005,,,,,,,,0,1,0.45159259999991264,None,,,,,,,,856,22,M,L,2026-02-25_11h39.43.165,VisualSearch_2526_3,,2025.2.4,2026-02-25 11h39.43.499037 +0100,
vertical.xlsx,The target is tilted.,135,78,6,9,1,1,1,1,1,1,1,1,1,1,1,1,0,11,12,135,space,5.412025600000106,None,1,1,0.5620923999999832,None,space,2.1474545000000944,None,0,0,0,1,,,,,9,6,78,0,150.37726550000025,,,,,,,,,,,,,,,,,,,,,150.3621066999999,150.37726550000025,150.86098459999994,150.8663329000001,150.8878579000002,151.46114699999998,,,,,151.46136590000015,151.4766027999999,151.6768634,151.66076169999997,150.8878579000002,,,,,,,,1,1,0.5620923999999832,None,,,,,,,,856,22,M,L,2026-02-25_11h39.43.165,VisualSearch_2526_3,,2025.2.4,2026-02-25 11h39.43.499037 +0100,
vertical.xlsx,The target is tilted.,135,79,7,9,1,1,1,1,1,1,1,1,0,0,0,0,0,7,8,135,space,5.412025600000106,None,1,1,0.526598500000091,None,space,2.1474545000000944,None,0,0,0,1,,,,,9,7,79,1,151.6768634,,,,,,,,,,,,,,,,,,,,,151.66158829999995,151.6768634,152.16056930000013,152.16580280000017,152.18055589999994,152.7108148000002,,,,,152.71102830000018,152.72613910000018,152.92658680000022,152.9104384000002,152.18055589999994,,,,,,,,1,1,0.526598500000091,None,,,,,,,,856,22,M,L,2026-02-25_11h39.43.165,VisualSearch_2526_3,,2025.2.4,2026-02-25 11h39.43.499037 +0100,
vertical.xlsx,The target is tilted.,135,80,0,10,1,1,1,1,1,1,1,1,1,1,1,1,0,11,12,135,space,5.412025600000106,None,1,1,0.6754587999998876,None,space,2.1474545000000944,None,0,0,0,1,,,,,10,0,80,0,152.92658680000022,,,,,,,,,,,,,,,,,,,,,152.91127700000015,152.92658680000022,153.41027859999986,153.41567269999996,153.43721129999994,154.12711320000017,,,,,154.12732929999993,154.14227970000002,154.34273519999988,154.32636030000003,153.43721129999994,,,,,,,,1,1,0.6754587999998876,None,,,,,,,,856,22,M,L,2026-02-25_11h39.43.165,VisualSearch_2526_3,,2025.2.4,2026-02-25 11h39.43.499037 +0100,
vertical.xlsx,The target is tilted.,135,81,1,10,1,1,1,1,0,0,0,0,0,0,0,0,0,3,4,135,space,5.412025600000106,None,1,1,0.5433578000001944,None,space,2.1474545000000944,None,0,0,0,1,,,,,10,1,81,2,154.34273519999988,,,,,,,,,,,,,,,,,,,,,154.32717779999984,154.34273519999988,154.8267138000001,154.83169279999993,154.84234199999992,155.39367420000008,,,,,155.3939077,155.40859920000003,155.60885929999995,155.59301719999985,154.84234199999992,,,,,,,,1,1,0.5433578000001944,None,,,,,,,,856,22,M,L,2026-02-25_11h39.43.165,VisualSearch_2526_3,,2025.2.4,2026-02-25 11h39.43.499037 +0100,
vertical.xlsx,The target is tilted.,135,82,2,10,0,0,0,0,0,0,0,0,0,0,0,0,1,1,1,135,space,5.412025600000106,None,0,1,0.5525457999997343,None,space,2.1474545000000944,None,0,0,0,1,,,,,10,2,82,7,155.60885929999995,,,,,,,,,,,,,,,,,,,,,155.59380899999996,155.60885929999995,156.09299349999992,156.09838600000012,156.11772229999997,156.67646680000007,,,,,156.67673319999994,156.69153589999996,156.89199589999998,156.87591410000005,156.11772229999997,,,,,,,,0,1,0.5525457999997343,None,,,,,,,,856,22,M,L,2026-02-25_11h39.43.165,VisualSearch_2526_3,,2025.2.4,2026-02-25 11h39.43.499037 +0100,
vertical.xlsx,The target is tilted.,135,83,3,10,0,1,1,1,0,0,0,0,0,0,0,0,1,3,4,135,space,5.412025600000106,None,0,1,1.5050375999999233,None,space,2.1474545000000944,None,0,0,0,1,,,,,10,3,83,6,156.89199589999998,,,,,,,,,,,,,,,,,,,,,156.87674300000026,156.89199589999998,157.3757168000002,157.3809025999999,157.401296,158.90919799999983,,,,,158.90943629999992,158.92413910000005,159.12442469999996,159.1085779,157.401296,,,,,,,,0,1,1.5050375999999233,None,,,,,,,,856,22,M,L,2026-02-25_11h39.43.165,VisualSearch_2526_3,,2025.2.4,2026-02-25 11h39.43.499037 +0100,
vertical.xlsx,The target is tilted.,135,84,4,10,0,1,1,1,1,1,1,1,0,0,0,0,1,7,8,135,space,5.412025600000106,None,0,1,1.197500399999626,None,space,2.1474545000000944,None,0,0,0,1,,,,,10,4,84,5,159.12442469999996,,,,,,,,,,,,,,,,,,,,,159.10936649999985,159.12442469999996,159.60840409999992,159.61371080000026,159.6351442,160.84143300000005,,,,,160.8416513000002,160.8571606999999,161.05724150000015,161.04113420000022,159.6351442,,,,,,,,0,1,1.197500399999626,None,,,,,,,,856,22,M,L,2026-02-25_11h39.43.165,VisualSearch_2526_3,,2025.2.4,2026-02-25 11h39.43.499037 +0100,
vertical.xlsx,The target is tilted.,135,85,5,10,1,1,1,1,1,1,1,1,0,0,0,0,0,7,8,135,space,5.412025600000106,None,1,1,0.513130700000147,None,space,2.1474545000000944,None,0,0,0,1,,,,,10,5,85,1,161.05724150000015,,,,,,,,,,,,,,,,,,,,,161.04196450000018,161.05724150000015,161.54098460000023,161.54581199999984,161.55690679999998,162.07446860000027,,,,,162.07468289999997,162.09033069999987,162.29016600000023,162.27374770000006,161.55690679999998,,,,,,,,1,1,0.513130700000147,None,,,,,,,,856,22,M,L,2026-02-25_11h39.43.165,VisualSearch_2526_3,,2025.2.4,2026-02-25 11h39.43.499037 +0100,
vertical.xlsx,The target is tilted.,135,86,6,10,0,1,1,1,1,1,1,1,1,1,1,1,1,11,12,135,space,5.412025600000106,None,0,1,1.3981509999998707,None,space,2.1474545000000944,None,0,0,0,1,,,,,10,6,86,4,162.29016600000023,,,,,,,,,,,,,,,,,,,,,162.27454399999988,162.29016600000023,162.7740644999999,162.77934210000012,162.79962860000023,164.20746850000023,,,,,164.20770630000015,164.22252209999988,164.42276029999994,164.40664900000002,162.79962860000023,,,,,,,,0,1,1.3981509999998707,None,,,,,,,,856,22,M,L,2026-02-25_11h39.43.165,VisualSearch_2526_3,,2025.2.4,2026-02-25 11h39.43.499037 +0100,
vertical.xlsx,The target is tilted.,135,87,7,10,1,0,0,0,0,0,0,0,0,0,0,0,0,0,1,135,space,5.412025600000106,None,1,1,0.41328010000006543,None,space,2.1474545000000944,None,0,0,0,1,,,,,10,7,87,3,164.42276029999994,,,,,,,,,,,,,,,,,,,,,164.40749159999996,164.42276029999994,164.90656330000002,164.91206330000023,164.9293977000002,165.35621739999988,,,,,165.3563666,165.37224289999995,165.57254749999993,165.55639629999996,164.9293977000002,,,,,,,,1,1,0.41328010000006543,None,,,,,,,,856,22,M,L,2026-02-25_11h39.43.165,VisualSearch_2526_3,,2025.2.4,2026-02-25 11h39.43.499037 +0100,
vertical.xlsx,The target is tilted.,135,88,0,11,1,0,0,0,0,0,0,0,0,0,0,0,0,0,1,135,space,5.412025600000106,None,1,1,0.4280425000001742,None,space,2.1474545000000944,None,0,0,0,1,,,,,11,0,88,3,165.57254749999993,,,,,,,,,,,,,,,,,,,,,165.5571906,165.57254749999993,166.0562129,166.06160330000012,166.08305680000012,166.52349390000018,,,,,166.5237086000002,166.5388637000001,166.73867870000004,166.72244230000024,166.08305680000012,,,,,,,,1,1,0.4280425000001742,None,,,,,,,,856,22,M,L,2026-02-25_11h39.43.165,VisualSearch_2526_3,,2025.2.4,2026-02-25 11h39.43.499037 +0100,
vertical.xlsx,The target is tilted.,135,89,1,11,1,1,1,1,1,1,1,1,1,1,1,1,0,11,12,135,space,5.412025600000106,None,1,1,0.5830461000000469,None,space,2.1474545000000944,None,0,0,0,1,,,,,11,1,89,0,166.73867870000004,,,,,,,,,,,,,,,,,,,,,166.72326789999988,166.73867870000004,167.22262619999992,167.2275211000001,167.23847639999985,167.8230254,,,,,167.82324340000014,167.83802689999993,168.0383385,168.02224000000024,167.23847639999985,,,,,,,,1,1,0.5830461000000469,None,,,,,,,,856,22,M,L,2026-02-25_11h39.43.165,VisualSearch_2526_3,,2025.2.4,2026-02-25 11h39.43.499037 +0100,
vertical.xlsx,The target is tilted.,135,90,2,11,0,1,1,1,0,0,0,0,0,0,0,0,1,3,4,135,space,5.412025600000106,None,0,1,0.6315018999998756,None,space,2.1474545000000944,None,0,0,0,1,,,,,11,2,90,6,168.0383385,,,,,,,,,,,,,,,,,,,,,168.0231990000002,168.0383385,168.52209380000022,168.5271418000002,168.53800439999986,169.1724577,,,,,169.17270180000014,169.18787550000025,169.38779860000022,169.3717655999999,168.53800439999986,,,,,,,,0,1,0.6315018999998756,None,,,,,,,,856,22,M,L,2026-02-25_11h39.43.165,VisualSearch_2526_3,,2025.2.4,2026-02-25 11h39.43.499037 +0100,
vertical.xlsx,The target is tilted.,135,91,3,11,1,1,1,1,0,0,0,0,0,0,0,0,0,3,4,135,space,5.412025600000106,None,1,1,0.5635753999999906,None,space,2.1474545000000944,None,0,0,0,1,,,,,11,3,91,2,169.38779860000022,,,,,,,,,,,,,,,,,,,,,169.37262659999988,169.38779860000022,169.8716376000002,169.87691910000012,169.89786409999988,170.4712752999999,,,,,170.4714444000001,170.4871707000002,170.6874713000002,170.6713595000001,169.89786409999988,,,,,,,,1,1,0.5635753999999906,None,,,,,,,,856,22,M,L,2026-02-25_11h39.43.165,VisualSearch_2526_3,,2025.2.4,2026-02-25 11h39.43.499037 +0100,
vertical.xlsx,The target is tilted.,135,92,4,11,0,1,1,1,1,1,1,1,0,0,0,0,1,7,8,135,space,5.412025600000106,None,0,1,0.8912429000001794,None,space,2.1474545000000944,None,0,0,0,1,,,,,11,4,92,5,170.6874713000002,,,,,,,,,,,,,,,,,,,,,170.67215179999994,170.6874713000002,171.17109519999985,171.17646400000012,171.19697750000023,172.10504450000008,,,,,172.10526530000016,172.12018119999993,172.3201736000001,172.30425460000015,171.19697750000023,,,,,,,,0,1,0.8912429000001794,None,,,,,,,,856,22,M,L,2026-02-25_11h39.43.165,VisualSearch_2526_3,,2025.2.4,2026-02-25 11h39.43.499037 +0100,
vertical.xlsx,The target is tilted.,135,93,5,11,0,1,1,1,1,1,1,1,1,1,1,1,1,11,12,135,space,5.412025600000106,None,0,1,1.2659005999998953,None,space,2.1474545000000944,None,0,0,0,1,,,,,11,5,93,4,172.3201736000001,,,,,,,,,,,,,,,,,,,,,172.3050572000002,172.3201736000001,172.8040172000001,172.8092087,172.83158430000003,174.10424790000025,,,,,174.10448480000014,174.11969839999983,174.31950330000018,174.30356419999998,172.83158430000003,,,,,,,,0,1,1.2659005999998953,None,,,,,,,,856,22,M,L,2026-02-25_11h39.43.165,VisualSearch_2526_3,,2025.2.4,2026-02-25 11h39.43.499037 +0100,
vertical.xlsx,The target is tilted.,135,94,6,11,1,1,1,1,1,1,1,1,0,0,0,0,0,7,8,135,space,5.412025600000106,None,1,1,0.645473800000218,None,space,2.1474545000000944,None,0,0,0,1,,,,,11,6,94,1,174.31950330000018,,,,,,,,,,,,,,,,,,,,,174.30434879999984,174.31950330000018,174.80353909999985,174.8088447,174.82962769999995,175.48711719999983,,,,,175.48736280000003,175.50257390000024,175.70251150000013,175.68651690000024,174.82962769999995,,,,,,,,1,1,0.645473800000218,None,,,,,,,,856,22,M,L,2026-02-25_11h39.43.165,VisualSearch_2526_3,,2025.2.4,2026-02-25 11h39.43.499037 +0100,
vertical.xlsx,The target is tilted.,135,95,7,11,0,0,0,0,0,0,0,0,0,0,0,0,1,1,1,135,space,5.412025600000106,None,0,1,0.5066514999998617,None,space,2.1474545000000944,None,0,0,0,1,,,,,11,7,95,7,175.70251150000013,,,,,,,,,,,,,,,,,,,,,175.6873141000001,175.70251150000013,176.18634580000025,176.19156750000002,176.21261980000008,176.73653019999983,,,,,176.73676980000027,176.7521253,176.9520553000002,176.93590959999983,176.21261980000008,,,,,,,,0,1,0.5066514999998617,None,,,,,,,,856,22,M,L,2026-02-25_11h39.43.165,VisualSearch_2526_3,,2025.2.4,2026-02-25 11h39.43.499037 +0100,
vertical.xlsx,The target is tilted.,135,96,0,12,0,1,1,1,1,1,1,1,1,1,1,1,1,11,12,135,space,5.412025600000106,None,0,1,1.0882118999998056,None,space,2.1474545000000944,None,0,0,0,1,,,,,12,0,96,4,176.9520553000002,,,,,,,,,,,,,,,,,,,,,176.9366958999999,176.9520553000002,177.43587979999984,177.4412585,177.46237659999997,178.55253810000022,,,,,178.55272830000013,178.5680109,178.76819890000024,178.75205460000006,177.46237659999997,,,,,,,,0,1,1.0882118999998056,None,,,,,,,,856,22,M,L,2026-02-25_11h39.43.165,VisualSearch_2526_3,,2025.2.4,2026-02-25 11h39.43.499037 +0100,
vertical.xlsx,The target is tilted.,135,97,1,12,0,1,1,1,1,1,1,1,0,0,0,0,1,7,8,135,space,5.412025600000106,None,0,1,0.8119106999997712,None,space,2.1474545000000944,None,0,0,0,1,,,,,12,1,97,5,178.76819890000024,,,,,,,,,,,,,,,,,,,,,178.75285320000012,178.76819890000024,179.25191089999998,179.2571898000001,179.27945510000018,180.10228469999993,,,,,180.10252910000008,180.11733189999995,180.3175924000002,180.30118919999995,179.27945510000018,,,,,,,,0,1,0.8119106999997712,None,,,,,,,,856,22,M,L,2026-02-25_11h39.43.165,VisualSearch_2526_3,,2025.2.4,2026-02-25 11h39.43.499037 +0100,
vertical.xlsx,The target is tilted.,135,98,2,12,0,0,0,0,0,0,0,0,0,0,0,0,1,1,1,135,space,5.412025600000106,None,0,1,0.4741994999999406,None,space,2.1474545000000944,None,0,0,0,1,,,,,12,2,98,7,180.3175924000002,,,,,,,,,,,,,,,,,,,,,180.30201639999996,180.3175924000002,180.80122840000013,180.80639699999983,180.8278663000001,181.3185972000001,,,,,181.3188226000002,181.33368819999987,181.53394230000004,181.51797579999993,180.8278663000001,,,,,,,,0,1,0.4741994999999406,None,,,,,,,,856,22,M,L,2026-02-25_11h39.43.165,VisualSearch_2526_3,,2025.2.4,2026-02-25 11h39.43.499037 +0100,
vertical.xlsx,The target is tilted.,135,99,3,12,1,1,1,1,1,1,1,1,0,0,0,0,0,7,8,135,space,5.412025600000106,None,1,1,0.633324200000061,None,space,2.1474545000000944,None,0,0,0,1,,,,,12,3,99,1,181.53394230000004,,,,,,,,,,,,,,,,,,,,,181.51883240000006,181.53394230000004,182.01751520000016,182.02349809999987,182.04500450000023,182.68485259999989,,,,,182.6850727000001,182.7002351000001,182.9000457000002,182.88393330000008,182.04500450000023,,,,,,,,1,1,0.633324200000061,None,,,,,,,,856,22,M,L,2026-02-25_11h39.43.165,VisualSearch_2526_3,,2025.2.4,2026-02-25 11h39.43.499037 +0100,
vertical.xlsx,The target is tilted.,135,100,4,12,0,1,1,1,0,0,0,0,0,0,0,0,1,3,4,135,space,5.412025600000106,None,0,1,0.576751300000069,None,space,2.1474545000000944,None,0,0,0,1,,,,,12,4,100,6,182.9000457000002,,,,,,,,,,,,,,,,,,,,,182.88479430000007,182.9000457000002,183.38390830000026,183.3892251000002,183.41106549999995,184.0009927000001,,,,,184.00123859999985,184.01610260000007,184.2162376000001,184.20025339999984,183.41106549999995,,,,,,,,0,1,0.576751300000069,None,,,,,,,,856,22,M,L,2026-02-25_11h39.43.165,VisualSearch_2526_3,,2025.2.4,2026-02-25 11h39.43.499037 +0100,
vertical.xlsx,The target is tilted.,135,101,5,12,1,1,1,1,1,1,1,1,1,1,1,1,0,11,12,135,space,5.412025600000106,None,1,1,0.5589049999998679,None,space,2.1474545000000944,None,0,0,0,1,,,,,12,5,101,0,184.2162376000001,,,,,,,,,,,,,,,,,,,,,184.20106339999984,184.2162376000001,184.6998294,184.7054290000001,184.72800540000026,185.30007250000017,,,,,185.30026129999987,185.3157884000002,185.51597530000026,185.4995254999999,184.72800540000026,,,,,,,,1,1,0.5589049999998679,None,,,,,,,,856,22,M,L,2026-02-25_11h39.43.165,VisualSearch_2526_3,,2025.2.4,2026-02-25 11h39.43.499037 +0100,
vertical.xlsx,The target is tilted.,135,102,6,12,1,0,0,0,0,0,0,0,0,0,0,0,0,0,1,135,space,5.412025600000106,None,1,1,0.4517910999998094,None,space,2.1474545000000944,None,0,0,0,1,,,,,12,6,102,3,185.51597530000026,,,,,,,,,,,,,,,,,,,,,185.5003342,185.51597530000026,185.99952340000027,186.00475210000013,186.02683389999993,186.48315290000028,,,,,186.48336530000006,186.49874069999987,186.69880809999995,186.6829788,186.02683389999993,,,,,,,,1,1,0.4517910999998094,None,,,,,,,,856,22,M,L,2026-02-25_11h39.43.165,VisualSearch_2526_3,,2025.2.4,2026-02-25 11h39.43.499037 +0100,
vertical.xlsx,The target is tilted.,135,103,7,12,1,1,1,1,0,0,0,0,0,0,0,0,0,3,4,135,space,5.412025600000106,None,1,1,0.41671379999979763,None,space,2.1474545000000944,None,0,0,0,1,,,,,12,7,103,2,186.69880809999995,,,,,,,,,,,,,,,,,,,,,186.6838127000001,186.69880809999995,187.18271760000016,187.18795180000006,187.2057003,187.63311299999987,,,,,187.6333623999999,187.64845000000014,187.84830550000015,187.83213650000016,187.2057003,,,,,,,,1,1,0.41671379999979763,None,,,,,,,,856,22,M,L,2026-02-25_11h39.43.165,VisualSearch_2526_3,,2025.2.4,2026-02-25 11h39.43.499037 +0100,
vertical.xlsx,The target is tilted.,135,104,0,13,0,1,1,1,0,0,0,0,0,0,0,0,1,3,4,135,space,5.412025600000106,None,0,1,0.6212722999998732,None,space,2.1474545000000944,None,0,0,0,1,,,,,13,0,104,6,187.84830550000015,,,,,,,,,,,,,,,,,,,,,187.83295910000015,187.84830550000015,188.33212860000003,188.33755109999993,188.35859889999983,188.9825608000001,,,,,188.98275019999983,188.99770279999984,189.19807949999995,189.18173430000024,188.35859889999983,,,,,,,,0,1,0.6212722999998732,None,,,,,,,,856,22,M,L,2026-02-25_11h39.43.165,VisualSearch_2526_3,,2025.2.4,2026-02-25 11h39.43.499037 +0100,
vertical.xlsx,The target is tilted.,135,105,1,13,0,1,1,1,1,1,1,1,1,1,1,1,1,11,12,135,space,5.412025600000106,None,0,1,1.7868109999999433,None,space,2.1474545000000944,None,0,0,0,1,,,,,13,1,105,4,189.19807949999995,,,,,,,,,,,,,,,,,,,,,189.18255959999988,189.19807949999995,189.68198010000015,189.68719650000003,189.70836469999995,191.49849700000004,,,,,191.49870800000008,191.51357970000026,191.71400799999992,191.69750980000026,189.70836469999995,,,,,,,,0,1,1.7868109999999433,None,,,,,,,,856,22,M,L,2026-02-25_11h39.43.165,VisualSearch_2526_3,,2025.2.4,2026-02-25 11h39.43.499037 +0100,
vertical.xlsx,The target is tilted.,135,106,2,13,1,1,1,1,0,0,0,0,0,0,0,0,0,3,4,135,space,5.412025600000106,None,1,1,0.4860527999999249,None,space,2.1474545000000944,None,0,0,0,1,,,,,13,2,106,2,191.71400799999992,,,,,,,,,,,,,,,,,,,,,191.69834020000008,191.71400799999992,192.19777490000024,192.20303310000008,192.22372610000002,192.71447609999996,,,,,192.7146888000002,192.73025450000023,192.9301415,192.91413599999987,192.22372610000002,,,,,,,,1,1,0.4860527999999249,None,,,,,,,,856,22,M,L,2026-02-25_11h39.43.165,VisualSearch_2526_3,,2025.2.4,2026-02-25 11h39.43.499037 +0100,
vertical.xlsx,The target is tilted.,135,107,3,13,0,0,0,0,0,0,0,0,0,0,0,0,1,1,1,135,space,5.412025600000106,None,0,1,0.5649163000002773,None,space,2.1474545000000944,None,0,0,0,1,,,,,13,3,107,7,192.9301415,,,,,,,,,,,,,,,,,,,,,192.9149422999999,192.9301415,193.41397170000027,193.41921709999997,193.4411285000001,194.01371150000023,,,,,194.01386649999995,194.0297475000002,194.22961480000004,194.2136128000002,193.4411285000001,,,,,,,,0,1,0.5649163000002773,None,,,,,,,,856,22,M,L,2026-02-25_11h39.43.165,VisualSearch_2526_3,,2025.2.4,2026-02-25 11h39.43.499037 +0100,
vertical.xlsx,The target is tilted.,135,108,4,13,0,1,1,1,1,1,1,1,0,0,0,0,1,7,8,135,space,5.412025600000106,None,0,1,0.6659718000000794,None,space,2.1474545000000944,None,0,0,0,1,,,,,13,4,108,5,194.22961480000004,,,,,,,,,,,,,,,,,,,,,194.21455680000008,194.22961480000004,194.71297249999998,194.7179713999999,194.73723740000014,195.41381880000017,,,,,195.41404760000023,195.4289202,195.62893570000006,195.6132544000002,194.73723740000014,,,,,,,,0,1,0.6659718000000794,None,,,,,,,,856,22,M,L,2026-02-25_11h39.43.165,VisualSearch_2526_3,,2025.2.4,2026-02-25 11h39.43.499037 +0100,
vertical.xlsx,The target is tilted.,135,109,5,13,1,0,0,0,0,0,0,0,0,0,0,0,0,0,1,135,space,5.412025600000106,None,1,1,0.40933589999986,None,space,2.1474545000000944,None,0,0,0,1,,,,,13,5,109,3,195.62893570000006,,,,,,,,,,,,,,,,,,,,,195.61407129999998,195.62893570000006,196.11282010000014,196.11804140000004,196.1397995000002,196.56293730000016,,,,,196.56307960000004,196.57865410000022,196.77889670000013,196.76303009999992,196.1397995000002,,,,,,,,1,1,0.40933589999986,None,,,,,,,,856,22,M,L,2026-02-25_11h39.43.165,VisualSearch_2526_3,,2025.2.4,2026-02-25 11h39.43.499037 +0100,
vertical.xlsx,The target is tilted.,135,110,6,13,1,1,1,1,1,1,1,1,1,1,1,1,0,11,12,135,space,5.412025600000106,None,1,1,0.6053003000001809,None,space,2.1474545000000944,None,0,0,0,1,,,,,13,6,110,0,196.77889670000013,,,,,,,,,,,,,,,,,,,,,196.76389629999994,196.77889670000013,197.2623896,197.26821550000022,197.28967330000023,197.9131923,,,,,197.91340720000017,197.92856269999993,198.12854449999986,198.1119165,197.28967330000023,,,,,,,,1,1,0.6053003000001809,None,,,,,,,,856,22,M,L,2026-02-25_11h39.43.165,VisualSearch_2526_3,,2025.2.4,2026-02-25 11h39.43.499037 +0100,
vertical.xlsx,The target is tilted.,135,111,7,13,1,1,1,1,1,1,1,1,0,0,0,0,0,7,8,135,space,5.412025600000106,None,1,1,0.5052713999998559,None,space,2.1474545000000944,None,0,0,0,1,,,,,13,7,111,1,198.12854449999986,,,,,,,,,,,,,,,,,,,,,198.11281169999984,198.12854449999986,198.6123732000001,198.61770620000016,198.63938629999984,199.1461408,,,,,199.14636770000016,199.16139500000008,199.36138149999988,199.34533910000027,198.63938629999984,,,,,,,,1,1,0.5052713999998559,None,,,,,,,,856,22,M,L,2026-02-25_11h39.43.165,VisualSearch_2526_3,,2025.2.4,2026-02-25 11h39.43.499037 +0100,
vertical.xlsx,The target is tilted.,135,112,0,14,0,1,1,1,0,0,0,0,0,0,0,0,1,3,4,135,space,5.412025600000106,None,0,1,0.5500043000001824,None,space,2.1474545000000944,None,0,0,0,1,,,,,14,0,112,6,199.36138149999988,,,,,,,,,,,,,,,,,,,,,199.34625159999996,199.36138149999988,199.84477770000012,199.85004919999983,199.8713355,200.42857240000012,,,,,200.4287592999999,200.4443285000002,200.6443718999999,200.62832770000023,199.8713355,,,,,,,,0,1,0.5500043000001824,None,,,,,,,,856,22,M,L,2026-02-25_11h39.43.165,VisualSearch_2526_3,,2025.2.4,2026-02-25 11h39.43.499037 +0100,
vertical.xlsx,The target is tilted.,135,113,1,14,1,1,1,1,1,1,1,1,1,1,1,1,0,11,12,135,space,5.412025600000106,None,1,1,0.6659336999996412,None,space,2.1474545000000944,None,0,0,0,1,,,,,14,1,113,0,200.6443718999999,,,,,,,,,,,,,,,,,,,,,200.62914980000005,200.6443718999999,201.12814639999988,201.13351330000023,201.15515240000013,201.82857079999985,,,,,201.82880130000012,201.8437429999999,202.04383199999984,202.02788899999996,201.15515240000013,,,,,,,,1,1,0.6659336999996412,None,,,,,,,,856,22,M,L,2026-02-25_11h39.43.165,VisualSearch_2526_3,,2025.2.4,2026-02-25 11h39.43.499037 +0100,
vertical.xlsx,The target is tilted.,135,114,2,14,1,1,1,1,0,0,0,0,0,0,0,0,0,3,4,135,space,5.412025600000106,None,1,1,0.4322463999997126,None,space,2.1474545000000944,None,0,0,0,1,,,,,14,2,114,2,202.04383199999984,,,,,,,,,,,,,,,,,,,,,202.02867990000004,202.04383199999984,202.52774390000013,202.53297810000004,202.55449529999987,202.99481019999985,,,,,202.99505910000016,203.0101936000001,203.20952940000006,203.1933893999999,202.55449529999987,,,,,,,,1,1,0.4322463999997126,None,,,,,,,,856,22,M,L,2026-02-25_11h39.43.165,VisualSearch_2526_3,,2025.2.4,2026-02-25 11h39.43.499037 +0100,
vertical.xlsx,The target is tilted.,135,115,3,14,1,1,1,1,1,1,1,1,0,0,0,0,0,7,8,135,space,5.412025600000106,None,1,1,0.6829238999998779,None,space,2.1474545000000944,None,0,0,0,1,,,,,14,3,115,1,203.20952940000006,,,,,,,,,,,,,,,,,,,,,203.1939210999999,203.20952940000006,203.6933981000002,203.69610000000011,203.70951130000003,204.39437009999983,,,,,204.3946120999999,204.40962769999987,204.6096066,204.59378640000023,203.70951130000003,,,,,,,,1,1,0.6829238999998779,None,,,,,,,,856,22,M,L,2026-02-25_11h39.43.165,VisualSearch_2526_3,,2025.2.4,2026-02-25 11h39.43.499037 +0100,
vertical.xlsx,The target is tilted.,135,116,4,14,0,0,0,0,0,0,0,0,0,0,0,0,1,1,1,135,space,5.412025600000106,None,0,1,0.4970268000001852,None,space,2.1474545000000944,None,0,0,0,1,,,,,14,4,116,7,204.6096066,,,,,,,,,,,,,,,,,,,,,204.59468560000005,204.6096066,205.09359559999984,205.0988427000002,205.12042150000025,205.62724490000028,,,,,205.6274856,205.64237600000024,205.84214780000002,205.82671200000004,205.12042150000025,,,,,,,,0,1,0.4970268000001852,None,,,,,,,,856,22,M,L,2026-02-25_11h39.43.165,VisualSearch_2526_3,,2025.2.4,2026-02-25 11h39.43.499037 +0100,
vertical.xlsx,The target is tilted.,135,117,5,14,0,1,1,1,1,1,1,1,0,0,0,0,1,7,8,135,space,5.412025600000106,None,0,1,0.8262280999997529,None,space,2.1474545000000944,None,0,0,0,1,,,,,14,5,117,5,205.84214780000002,,,,,,,,,,,,,,,,,,,,,205.82756560000007,205.84214780000002,206.32653260000006,206.33162200000015,206.34224440000025,207.17692940000006,,,,,207.17714389999992,207.19216800000004,207.39218900000014,207.37610570000015,206.34224440000025,,,,,,,,0,1,0.8262280999997529,None,,,,,,,,856,22,M,L,2026-02-25_11h39.43.165,VisualSearch_2526_3,,2025.2.4,2026-02-25 11h39.43.499037 +0100,
vertical.xlsx,The target is tilted.,135,118,6,14,1,0,0,0,0,0,0,0,0,0,0,0,0,0,1,135,space,5.412025600000106,None,1,1,0.4126228000000083,None,space,2.1474545000000944,None,0,0,0,1,,,,,14,6,118,3,207.39218900000014,,,,,,,,,,,,,,,,,,,,,207.37691440000026,207.39218900000014,207.87598519999983,207.88114459999997,207.90362349999987,208.32650650000005,,,,,208.32672460000003,208.34150420000014,208.5416854,208.52577090000023,207.90362349999987,,,,,,,,1,1,0.4126228000000083,None,,,,,,,,856,22,M,L,2026-02-25_11h39.43.165,VisualSearch_2526_3,,2025.2.4,2026-02-25 11h39.43.499037 +0100,
vertical.xlsx,The target is tilted.,135,119,7,14,0,1,1,1,1,1,1,1,1,1,1,1,1,11,12,135,space,5.412025600000106,None,0,1,0.8880527999999686,None,space,2.1474545000000944,None,0,0,0,1,,,,,14,7,119,4,208.5416854,,,,,,,,,,,,,,,,,,,,,208.5265887999999,208.5416854,209.0251748999999,209.0303100000001,209.05114150000009,209.94264520000024,,,,,209.9428794999999,209.9576505,210.18120230000022,210.14190390000022,209.05114150000009,,,,,,,,0,1,0.8880527999999686,None,,,,,,,,856,22,M,L,2026-02-25_11h39.43.165,VisualSearch_2526_3,,2025.2.4,2026-02-25 11h39.43.499037 +0100,
vertical.xlsx,The target is tilted.,135,0,0,0,,,,,,,,,,,,,,,,,space,5.412025600000106,None,,,,,space,2.1474545000000944,None,0,0,0,1,,,,,,,,,,,,,,,,,,,,,,,,,,,,,,,,,,,,,,,,,,,,,,,,,,,,,,,,,,,,,,,856,22,M,L,2026-02-25_11h39.43.165,VisualSearch_2526_3,,2025.2.4,2026-02-25 11h39.43.499037 +0100,
tilted.xlsx,The target is tilted.,117,0,0,0,0,1,1,1,1,1,1,1,1,1,1,1,1,11,12,117,space,5.106815999999981,None,0,1,3.163351700000021,None,,,,0,1,1,0,0,0,0,4,,,,,215.32470009999997,,,,,,,,,,,,,,,210.18120230000022,210.18120230000022,210.18120230000022,space,5.106815999999981,None,215.3204442000001,215.32470009999997,215.80646290000004,215.81187880000016,215.83095240000011,219.0062680000001,0,1,3.163351700000021,None,219.00653939999984,219.0214575,219.22168079999983,219.20545399999992,,,,,,,,,,,,,,,,,,,,856,22,M,L,2026-02-25_11h39.43.165,VisualSearch_2526_3,,2025.2.4,2026-02-25 11h39.43.499037 +0100,
tilted.xlsx,The target is tilted.,117,1,1,0,0,1,1,1,1,1,1,1,0,0,0,0,1,7,8,117,space,5.106815999999981,None,1,0,2.4601971000001868,None,,,,0,1,1,0,0,1,1,5,,,,,219.22168079999983,,,,,,,,,,,,,,,,,,,,,219.20619729999999,219.22168079999983,219.70539139999983,219.7106477000002,219.72852950000015,222.20518530000027,1,0,2.4601971000001868,None,222.20542079999996,222.2202645000002,222.42056309999998,222.4041385999999,219.72852950000015,,,,,,,,,,,,,,,,,,,856,22,M,L,2026-02-25_11h39.43.165,VisualSearch_2526_3,,2025.2.4,2026-02-25 11h39.43.499037 +0100,
tilted.xlsx,The target is tilted.,117,2,2,0,1,1,1,1,0,0,0,0,0,0,0,0,0,3,4,117,space,5.106815999999981,None,0,0,1.077031000000261,None,,,,0,1,1,0,0,2,2,2,,,,,222.42056309999998,,,,,,,,,,,,,,,,,,,,,222.40465730000005,222.42056309999998,222.90435220000018,222.90960700000005,222.9303331000001,224.02126009999984,0,0,1.077031000000261,None,224.02149929999996,224.03645310000002,224.23676079999996,224.2205684999999,222.9303331000001,,,,,,,,,,,,,,,,,,,856,22,M,L,2026-02-25_11h39.43.165,VisualSearch_2526_3,,2025.2.4,2026-02-25 11h39.43.499037 +0100,
tilted.xlsx,The target is tilted.,117,3,3,0,0,1,1,1,0,0,0,0,0,0,0,0,1,3,4,117,space,5.106815999999981,None,0,1,1.0170175000002928,None,,,,0,1,1,0,0,3,3,6,,,,,224.23676079999996,,,,,,,,,,,,,,,,,,,,,224.22134649999998,224.23676079999996,224.7203500999999,224.72572720000016,224.73863970000002,225.76996529999997,0,1,1.0170175000002928,None,225.77010470000005,225.78578849999985,225.98606700000028,225.96969160000026,224.73863970000002,,,,,,,,,,,,,,,,,,,856,22,M,L,2026-02-25_11h39.43.165,VisualSearch_2526_3,,2025.2.4,2026-02-25 11h39.43.499037 +0100,
tilted.xlsx,The target is tilted.,117,4,4,0,1,0,0,0,0,0,0,0,0,0,0,0,0,0,1,117,space,5.106815999999981,None,1,1,0.577285700000175,None,,,,0,1,1,0,0,4,4,3,,,,,225.98606700000028,,,,,,,,,,,,,,,,,,,,,225.97046679999994,225.98606700000028,226.4695468,226.4748456000002,226.49678799999992,227.08681320000005,1,1,0.577285700000175,None,227.08699780000006,227.10194760000013,227.30236890000015,227.28634479999982,226.49678799999992,,,,,,,,,,,,,,,,,,,856,22,M,L,2026-02-25_11h39.43.165,VisualSearch_2526_3,,2025.2.4,2026-02-25 11h39.43.499037 +0100,
tilted.xlsx,The target is tilted.,117,5,5,0,0,0,0,0,0,0,0,0,0,0,0,0,1,1,1,117,space,5.106815999999981,None,0,1,0.5851831999998467,None,,,,0,1,1,0,0,5,5,7,,,,,227.30236890000015,,,,,,,,,,,,,,,,,,,,,227.28708030000007,227.30236890000015,227.78582189999997,227.79095670000015,227.80899420000014,228.40320470000006,0,1,0.5851831999998467,None,228.40345000000025,228.4183081000001,228.61857940000027,228.60244999999986,227.80899420000014,,,,,,,,,,,,,,,,,,,856,22,M,L,2026-02-25_11h39.43.165,VisualSearch_2526_3,,2025.2.4,2026-02-25 11h39.43.499037 +0100,
tilted.xlsx,The target is tilted.,117,6,6,0,1,1,1,1,1,1,1,1,1,1,1,1,0,11,12,117,space,5.106815999999981,None,1,1,1.0905093999999735,None,,,,0,1,1,0,0,6,6,0,,,,,228.61857940000027,,,,,,,,,,,,,,,,,,,,,228.6031836000002,228.61857940000027,229.1023593,229.10759970000026,229.12867020000022,230.23580399999992,1,1,1.0905093999999735,None,230.23598440000023,230.25118060000023,230.45135519999985,230.43532770000002,229.12867020000022,,,,,,,,,,,,,,,,,,,856,22,M,L,2026-02-25_11h39.43.165,VisualSearch_2526_3,,2025.2.4,2026-02-25 11h39.43.499037 +0100,
tilted.xlsx,The target is tilted.,117,7,7,0,1,1,1,1,1,1,1,1,0,0,0,0,0,7,8,117,space,5.106815999999981,None,1,1,1.704640500000096,None,,,,0,1,1,0,0,7,7,1,,,,,230.45135519999985,,,,,,,,,,,,,,,,,,,,,230.4360956999999,230.45135519999985,230.93505959999993,230.94040099999984,230.96066380000002,232.66818590000003,1,1,1.704640500000096,None,232.66839010000012,232.68362519999982,232.8839551000001,232.86759979999988,230.96066380000002,,,,,,,,,,,,,,,,,,,856,22,M,L,2026-02-25_11h39.43.165,VisualSearch_2526_3,,2025.2.4,2026-02-25 11h39.43.499037 +0100,
tilted.xlsx,The target is tilted.,117,0,0,0,0,1,1,1,0,0,0,0,0,0,0,0,1,3,4,117,space,5.106815999999981,None,0,1,1.0595923000000766,None,space,3.9282586999997875,None,0,1,1,0,,,,,0,0,0,6,236.84698310000022,,,,,,,,,,,,,,,,,,,,,236.84272520000013,236.84698310000022,237.33243870000024,237.33779210000012,237.3591962999999,238.43344579999984,,,,,238.43366640000022,238.44833169999993,238.64830829999983,238.63225599999987,,232.87546120000025,232.8839551000001,232.8839551000001,236.81661440000016,space,3.9282586999997875,None,0,1,1.0595923000000766,None,,,,,,,,856,22,M,L,2026-02-25_11h39.43.165,VisualSearch_2526_3,,2025.2.4,2026-02-25 11h39.43.499037 +0100,
tilted.xlsx,The target is tilted.,117,1,1,0,0,0,0,0,0,0,0,0,0,0,0,0,1,1,1,117,space,5.106815999999981,None,0,1,0.5486217000002398,None,space,3.9282586999997875,None,0,1,1,0,,,,,0,1,1,7,238.64830829999983,,,,,,,,,,,,,,,,,,,,,238.6330797999999,238.64830829999983,239.1324536000002,239.13768430000027,239.15840650000018,239.7161516000001,,,,,239.7164090000001,239.73153300000013,239.93161099999998,239.91562019999992,239.15840650000018,,,,,,,,0,1,0.5486217000002398,None,,,,,,,,856,22,M,L,2026-02-25_11h39.43.165,VisualSearch_2526_3,,2025.2.4,2026-02-25 11h39.43.499037 +0100,
tilted.xlsx,The target is tilted.,117,2,2,0,0,1,1,1,1,1,1,1,0,0,0,0,1,7,8,117,space,5.106815999999981,None,1,0,1.3803573999998662,None,space,3.9282586999997875,None,0,1,1,0,,,,,0,2,2,5,239.93161099999998,,,,,,,,,,,,,,,,,,,,,239.91648510000005,239.93161099999998,240.41543950000005,240.42029309999998,240.43116390000023,241.81494920000023,,,,,241.81514079999988,241.83078849999993,242.0308653000002,242.0145367,240.43116390000023,,,,,,,,1,0,1.3803573999998662,None,,,,,,,,856,22,M,L,2026-02-25_11h39.43.165,VisualSearch_2526_3,,2025.2.4,2026-02-25 11h39.43.499037 +0100,
tilted.xlsx,The target is tilted.,117,3,3,0,0,1,1,1,1,1,1,1,1,1,1,1,1,11,12,117,space,5.106815999999981,None,1,0,0.9442184999998062,None,space,3.9282586999997875,None,0,1,1,0,,,,,0,3,3,4,242.0308653000002,,,,,,,,,,,,,,,,,,,,,242.01536590000023,242.0308653000002,242.5147449000001,242.51985289999993,242.54015010000012,243.49815510000008,,,,,243.49836259999984,243.51364270000022,243.71357709999984,243.69772360000024,242.54015010000012,,,,,,,,1,0,0.9442184999998062,None,,,,,,,,856,22,M,L,2026-02-25_11h39.43.165,VisualSearch_2526_3,,2025.2.4,2026-02-25 11h39.43.499037 +0100,
tilted.xlsx,The target is tilted.,117,4,4,0,1,1,1,1,1,1,1,1,0,0,0,0,0,7,8,117,space,5.106815999999981,None,1,1,0.9683654999998907,None,space,3.9282586999997875,None,0,1,1,0,,,,,0,4,4,1,243.71357709999984,,,,,,,,,,,,,,,,,,,,,243.69855700000016,243.71357709999984,244.19754360000024,244.20286280000028,244.2191696,245.19783140000027,,,,,245.19804509999994,245.21272480000016,245.4130728,245.3970377999999,244.2191696,,,,,,,,1,1,0.9683654999998907,None,,,,,,,,856,22,M,L,2026-02-25_11h39.43.165,VisualSearch_2526_3,,2025.2.4,2026-02-25 11h39.43.499037 +0100,
tilted.xlsx,The target is tilted.,117,5,5,0,1,1,1,1,1,1,1,1,1,1,1,1,0,11,12,117,space,5.106815999999981,None,1,1,0.6645926000001054,None,space,3.9282586999997875,None,0,1,1,0,,,,,0,5,5,0,245.4130728,,,,,,,,,,,,,,,,,,,,,245.3978443000001,245.4130728,245.8967791,245.90213059999996,245.92317270000012,246.5973087000002,,,,,246.59754060000023,246.61238000000003,246.81266330000017,246.79649210000025,245.92317270000012,,,,,,,,1,1,0.6645926000001054,None,,,,,,,,856,22,M,L,2026-02-25_11h39.43.165,VisualSearch_2526_3,,2025.2.4,2026-02-25 11h39.43.499037 +0100,
tilted.xlsx,The target is tilted.,117,6,6,0,1,1,1,1,0,0,0,0,0,0,0,0,0,3,4,117,space,5.106815999999981,None,1,1,1.4418132999999216,None,space,3.9282586999997875,None,0,1,1,0,,,,,0,6,6,2,246.81266330000017,,,,,,,,,,,,,,,,,,,,,246.79733260000012,246.81266330000017,247.29652130000022,247.3016993000001,247.32273239999995,248.77991950000023,,,,,248.7801604000001,248.79530179999983,248.99516369999992,248.97881280000001,247.32273239999995,,,,,,,,1,1,1.4418132999999216,None,,,,,,,,856,22,M,L,2026-02-25_11h39.43.165,VisualSearch_2526_3,,2025.2.4,2026-02-25 11h39.43.499037 +0100,
tilted.xlsx,The target is tilted.,117,7,7,0,1,0,0,0,0,0,0,0,0,0,0,0,0,0,1,117,space,5.106815999999981,None,1,1,0.49139100000002145,None,space,3.9282586999997875,None,0,1,1,0,,,,,0,7,7,3,248.99516369999992,,,,,,,,,,,,,,,,,,,,,248.97962270000016,248.99516369999992,249.4792077000002,249.4844793000002,249.50595479999993,250.01288479999994,,,,,250.0131077000001,250.02792450000015,250.22795840000026,250.2121043000002,249.50595479999993,,,,,,,,1,1,0.49139100000002145,None,,,,,,,,856,22,M,L,2026-02-25_11h39.43.165,VisualSearch_2526_3,,2025.2.4,2026-02-25 11h39.43.499037 +0100,
tilted.xlsx,The target is tilted.,117,8,0,1,0,1,1,1,0,0,0,0,0,0,0,0,1,3,4,117,space,5.106815999999981,None,0,1,1.1336581999998998,None,space,3.9282586999997875,None,0,1,1,0,,,,,1,0,8,6,250.22795840000026,,,,,,,,,,,,,,,,,,,,,250.2129106000002,250.22795840000026,250.71208079999997,250.71733140000015,250.73879829999987,251.87832200000003,,,,,251.87843750000002,251.89411599999994,252.09424209999997,252.07809730000008,250.73879829999987,,,,,,,,0,1,1.1336581999998998,None,,,,,,,,856,22,M,L,2026-02-25_11h39.43.165,VisualSearch_2526_3,,2025.2.4,2026-02-25 11h39.43.499037 +0100,
tilted.xlsx,The target is tilted.,117,9,1,1,1,1,1,1,1,1,1,1,0,0,0,0,0,7,8,117,space,5.106815999999981,None,1,1,0.8133598000003985,None,space,3.9282586999997875,None,0,1,1,0,,,,,1,1,9,1,252.09424209999997,,,,,,,,,,,,,,,,,,,,,252.07893400000012,252.09424209999997,252.5781218000002,252.5833090000001,252.6047392999999,253.4285393,,,,,253.42875529999992,253.44348330000003,253.64377809999996,253.6277427,252.6047392999999,,,,,,,,1,1,0.8133598000003985,None,,,,,,,,856,22,M,L,2026-02-25_11h39.43.165,VisualSearch_2526_3,,2025.2.4,2026-02-25 11h39.43.499037 +0100,
tilted.xlsx,The target is tilted.,117,10,2,1,1,1,1,1,0,0,0,0,0,0,0,0,0,3,4,117,space,5.106815999999981,None,1,1,0.928820099999939,None,space,3.9282586999997875,None,0,1,1,0,,,,,1,2,10,2,253.64377809999996,,,,,,,,,,,,,,,,,,,,,253.62855930000023,253.64377809999996,254.12721760000022,254.132427,254.15423099999998,255.0942273999999,,,,,255.09443910000027,255.1098379,255.30941930000017,255.29288570000017,254.15423099999998,,,,,,,,1,1,0.928820099999939,None,,,,,,,,856,22,M,L,2026-02-25_11h39.43.165,VisualSearch_2526_3,,2025.2.4,2026-02-25 11h39.43.499037 +0100,
tilted.xlsx,The target is tilted.,117,11,3,1,0,0,0,0,0,0,0,0,0,0,0,0,1,1,1,117,space,5.106815999999981,None,0,1,0.9018854000000829,None,space,3.9282586999997875,None,0,1,1,0,,,,,1,3,11,7,255.30941930000017,,,,,,,,,,,,,,,,,,,,,255.29335589999982,255.30941930000017,255.79373160000023,255.79899290000003,255.82036640000024,256.7274883,,,,,256.72772410000016,256.7426823999999,256.9427651000001,256.9267030000001,255.82036640000024,,,,,,,,0,1,0.9018854000000829,None,,,,,,,,856,22,M,L,2026-02-25_11h39.43.165,VisualSearch_2526_3,,2025.2.4,2026-02-25 11h39.43.499037 +0100,
tilted.xlsx,The target is tilted.,117,12,4,1,0,1,1,1,1,1,1,1,0,0,0,0,1,7,8,117,space,5.106815999999981,None,0,1,3.3736133000002155,None,space,3.9282586999997875,None,0,1,1,0,,,,,1,4,12,5,256.9427651000001,,,,,,,,,,,,,,,,,,,,,256.9275031000002,256.9427651000001,257.42629160000024,257.4317096,257.45228080000015,260.8427719000001,,,,,260.8429850000002,260.8579737,261.05788770000026,261.0417897000002,257.45228080000015,,,,,,,,0,1,3.3736133000002155,None,,,,,,,,856,22,M,L,2026-02-25_11h39.43.165,VisualSearch_2526_3,,2025.2.4,2026-02-25 11h39.43.499037 +0100,
tilted.xlsx,The target is tilted.,117,13,5,1,1,0,0,0,0,0,0,0,0,0,0,0,0,0,1,117,space,5.106815999999981,None,1,1,0.5175630999997338,None,space,3.9282586999997875,None,0,1,1,0,,,,,1,5,13,3,261.05788770000026,,,,,,,,,,,,,,,,,,,,,261.04269380000005,261.05788770000026,261.54173149999997,261.5470021000001,261.5648378000001,262.09121559999994,,,,,262.0913321000003,262.1074136000002,262.30758479999986,262.2911853999999,261.5648378000001,,,,,,,,1,1,0.5175630999997338,None,,,,,,,,856,22,M,L,2026-02-25_11h39.43.165,VisualSearch_2526_3,,2025.2.4,2026-02-25 11h39.43.499037 +0100,
tilted.xlsx,The target is tilted.,117,14,6,1,0,1,1,1,1,1,1,1,1,1,1,1,1,11,12,117,space,5.106815999999981,None,0,1,3.468102899999849,None,space,3.9282586999997875,None,0,1,1,0,,,,,1,6,14,4,262.30758479999986,,,,,,,,,,,,,,,,,,,,,262.29201409999996,262.30758479999986,262.7914675000002,262.79674079999995,262.81819829999995,266.2905977999999,,,,,266.29081640000004,266.30602850000014,266.5058825000001,266.49011759999985,262.81819829999995,,,,,,,,0,1,3.468102899999849,None,,,,,,,,856,22,M,L,2026-02-25_11h39.43.165,VisualSearch_2526_3,,2025.2.4,2026-02-25 11h39.43.499037 +0100,
tilted.xlsx,The target is tilted.,117,15,7,1,1,1,1,1,1,1,1,1,1,1,1,1,0,11,12,117,space,5.106815999999981,None,1,1,0.695180100000016,None,space,3.9282586999997875,None,0,1,1,0,,,,,1,7,15,0,266.5058825000001,,,,,,,,,,,,,,,,,,,,,266.4909394000001,266.5058825000001,266.98973750000005,266.99508990000004,267.01670019999983,267.7226856000002,,,,,267.72279849999995,267.7385236,267.9390788999999,267.92291590000013,267.01670019999983,,,,,,,,1,1,0.695180100000016,None,,,,,,,,856,22,M,L,2026-02-25_11h39.43.165,VisualSearch_2526_3,,2025.2.4,2026-02-25 11h39.43.499037 +0100,
tilted.xlsx,The target is tilted.,117,16,0,2,0,1,1,1,1,1,1,1,0,0,0,0,1,7,8,117,space,5.106815999999981,None,0,1,1.838831300000038,None,space,3.9282586999997875,None,0,1,1,0,,,,,2,0,16,5,267.9390788999999,,,,,,,,,,,,,,,,,,,,,267.9237920999999,267.9390788999999,268.42283799999996,268.4280815000002,268.44948109999996,270.30554630000006,,,,,270.30575880000015,270.32164379999995,270.5215022000002,270.5057557,268.44948109999996,,,,,,,,0,1,1.838831300000038,None,,,,,,,,856,22,M,L,2026-02-25_11h39.43.165,VisualSearch_2526_3,,2025.2.4,2026-02-25 11h39.43.499037 +0100,
tilted.xlsx,The target is tilted.,117,17,1,2,1,1,1,1,1,1,1,1,0,0,0,0,0,7,8,117,space,5.106815999999981,None,0,0,3.334375800000089,None,space,3.9282586999997875,None,0,1,1,0,,,,,2,1,17,1,270.5215022000002,,,,,,,,,,,,,,,,,,,,,270.50657450000017,270.5215022000002,271.0054359999999,271.01076539999985,271.0323698000002,274.3711002,,,,,274.37129219999997,274.38683330000003,274.5869299000001,274.57088539999995,271.0323698000002,,,,,,,,0,0,3.334375800000089,None,,,,,,,,856,22,M,L,2026-02-25_11h39.43.165,VisualSearch_2526_3,,2025.2.4,2026-02-25 11h39.43.499037 +0100,
tilted.xlsx,The target is tilted.,117,18,2,2,0,1,1,1,0,0,0,0,0,0,0,0,1,3,4,117,space,5.106815999999981,None,0,1,0.7279241999999613,None,space,3.9282586999997875,None,0,1,1,0,,,,,2,2,18,6,274.5869299000001,,,,,,,,,,,,,,,,,,,,,274.57172119999996,274.5869299000001,275.07060189999993,275.0757822999999,275.0972065000001,275.8371892,,,,,275.83733329999995,275.8531901000001,276.05320440000014,276.037151,275.0972065000001,,,,,,,,0,1,0.7279241999999613,None,,,,,,,,856,22,M,L,2026-02-25_11h39.43.165,VisualSearch_2526_3,,2025.2.4,2026-02-25 11h39.43.499037 +0100,
tilted.xlsx,The target is tilted.,117,19,3,2,0,0,0,0,0,0,0,0,0,0,0,0,1,1,1,117,space,5.106815999999981,None,0,1,0.5138594000000012,None,space,3.9282586999997875,None,0,1,1,0,,,,,2,3,19,7,276.05320440000014,,,,,,,,,,,,,,,,,,,,,276.0379966999999,276.05320440000014,276.5368650999999,276.54143920000024,276.55276790000016,277.07047599999987,,,,,277.0706902000002,277.0859504,277.2861286000002,277.2696486,276.55276790000016,,,,,,,,0,1,0.5138594000000012,None,,,,,,,,856,22,M,L,2026-02-25_11h39.43.165,VisualSearch_2526_3,,2025.2.4,2026-02-25 11h39.43.499037 +0100,
tilted.xlsx,The target is tilted.,117,20,4,2,1,1,1,1,1,1,1,1,1,1,1,1,0,11,12,117,space,5.106815999999981,None,1,1,0.8414905999998155,None,space,3.9282586999997875,None,0,1,1,0,,,,,2,4,20,0,277.2861286000002,,,,,,,,,,,,,,,,,,,,,277.2705132000001,277.2861286000002,277.76954509999996,277.77477180000005,277.7970067000001,278.652916,,,,,278.6530591999999,278.66881839999996,278.8688612000001,278.8529143999999,277.7970067000001,,,,,,,,1,1,0.8414905999998155,None,,,,,,,,856,22,M,L,2026-02-25_11h39.43.165,VisualSearch_2526_3,,2025.2.4,2026-02-25 11h39.43.499037 +0100,
tilted.xlsx,The target is tilted.,117,21,5,2,1,1,1,1,0,0,0,0,0,0,0,0,0,3,4,117,space,5.106815999999981,None,1,1,1.203050500000245,None,space,3.9282586999997875,None,0,1,1,0,,,,,2,5,21,2,278.8688612000001,,,,,,,,,,,,,,,,,,,,,278.8537163000001,278.8688612000001,279.3526366000001,279.3578950000001,279.3798741999999,280.58638269999983,,,,,280.5866142,280.60173350000014,280.8016140999998,280.78547690000005,279.3798741999999,,,,,,,,1,1,1.203050500000245,None,,,,,,,,856,22,M,L,2026-02-25_11h39.43.165,VisualSearch_2526_3,,2025.2.4,2026-02-25 11h39.43.499037 +0100,
tilted.xlsx,The target is tilted.,117,22,6,2,0,1,1,1,1,1,1,1,1,1,1,1,1,11,12,117,space,5.106815999999981,None,0,1,2.8057060000001,None,space,3.9282586999997875,None,0,1,1,0,,,,,2,6,22,4,280.8016140999998,,,,,,,,,,,,,,,,,,,,,280.7862989,280.8016140999998,281.2854278,281.2906502000001,281.3117658000001,284.13502629999994,,,,,284.1352833000001,284.15037570000004,284.3502266999999,284.3342348000001,281.3117658000001,,,,,,,,0,1,2.8057060000001,None,,,,,,,,856,22,M,L,2026-02-25_11h39.43.165,VisualSearch_2526_3,,2025.2.4,2026-02-25 11h39.43.499037 +0100,
tilted.xlsx,The target is tilted.,117,23,7,2,1,0,0,0,0,0,0,0,0,0,0,0,0,0,1,117,space,5.106815999999981,None,1,1,0.636228200000005,None,space,3.9282586999997875,None,0,1,1,0,,,,,2,7,23,3,284.3502266999999,,,,,,,,,,,,,,,,,,,,,284.3351367999999,284.3502266999999,284.83425510000006,284.83979850000014,284.86168399999997,285.5010407,,,,,285.5012535999999,285.51664170000004,285.7167195000002,285.70056810000005,284.86168399999997,,,,,,,,1,1,0.636228200000005,None,,,,,,,,856,22,M,L,2026-02-25_11h39.43.165,VisualSearch_2526_3,,2025.2.4,2026-02-25 11h39.43.499037 +0100,
tilted.xlsx,The target is tilted.,117,24,0,3,0,1,1,1,1,1,1,1,1,1,1,1,1,11,12,117,space,5.106815999999981,None,0,1,2.098599500000091,None,space,3.9282586999997875,None,0,1,1,0,,,,,3,0,24,4,285.7167195000002,,,,,,,,,,,,,,,,,,,,,285.701368,285.7167195000002,286.2002569000001,286.205551,286.2257039000001,288.3337655,,,,,288.3339876,288.3488362000003,288.54837769999995,288.5328878999999,286.2257039000001,,,,,,,,0,1,2.098599500000091,None,,,,,,,,856,22,M,L,2026-02-25_11h39.43.165,VisualSearch_2526_3,,2025.2.4,2026-02-25 11h39.43.499037 +0100,
tilted.xlsx,The target is tilted.,117,25,1,3,0,1,1,1,1,1,1,1,0,0,0,0,1,7,8,117,space,5.106815999999981,None,1,0,0.9575090000003001,None,space,3.9282586999997875,None,0,1,1,0,,,,,3,1,25,5,288.54837769999995,,,,,,,,,,,,,,,,,,,,,288.5337349000001,288.54837769999995,289.03250149999985,289.0377871999999,289.05930679999983,290.03331830000025,,,,,290.0335463000001,290.0484056999999,290.2484364000002,290.2324186999999,289.05930679999983,,,,,,,,1,0,0.9575090000003001,None,,,,,,,,856,22,M,L,2026-02-25_11h39.43.165,VisualSearch_2526_3,,2025.2.4,2026-02-25 11h39.43.499037 +0100,
tilted.xlsx,The target is tilted.,117,26,2,3,0,0,0,0,0,0,0,0,0,0,0,0,1,1,1,117,space,5.106815999999981,None,0,1,0.7036487000000307,None,space,3.9282586999997875,None,0,1,1,0,,,,,3,2,26,7,290.2484364000002,,,,,,,,,,,,,,,,,,,,,290.23321840000017,290.2484364000002,290.7320826,290.73735209999995,290.75454020000006,291.46642950000023,,,,,291.4666536,291.4814228,291.6813367999998,291.6651992000002,290.75454020000006,,,,,,,,0,1,0.7036487000000307,None,,,,,,,,856,22,M,L,2026-02-25_11h39.43.165,VisualSearch_2526_3,,2025.2.4,2026-02-25 11h39.43.499037 +0100,
tilted.xlsx,The target is tilted.,117,27,3,3,1,0,0,0,0,0,0,0,0,0,0,0,0,0,1,117,space,5.106815999999981,None,1,1,0.39808270000003176,None,space,3.9282586999997875,None,0,1,1,0,,,,,3,3,27,3,291.6813367999998,,,,,,,,,,,,,,,,,,,,,291.66605770000024,291.6813367999998,292.16524470000013,292.17058739999993,292.1922534999999,292.59875390000025,,,,,292.59894350000013,292.6141455000002,292.81431269999985,292.7982692999999,292.1922534999999,,,,,,,,1,1,0.39808270000003176,None,,,,,,,,856,22,M,L,2026-02-25_11h39.43.165,VisualSearch_2526_3,,2025.2.4,2026-02-25 11h39.43.499037 +0100,
tilted.xlsx,The target is tilted.,117,28,4,3,0,1,1,1,0,0,0,0,0,0,0,0,1,3,4,117,space,5.106815999999981,None,0,1,0.7712341000001288,None,space,3.9282586999997875,None,0,1,1,0,,,,,3,4,28,6,292.81431269999985,,,,,,,,,,,,,,,,,,,,,292.7990785000002,292.81431269999985,293.2981278000002,293.30347059999986,293.3198809999999,294.0982537,,,,,294.09844920000023,294.11354280000023,294.31345520000013,294.29823110000007,293.3198809999999,,,,,,,,0,1,0.7712341000001288,None,,,,,,,,856,22,M,L,2026-02-25_11h39.43.165,VisualSearch_2526_3,,2025.2.4,2026-02-25 11h39.43.499037 +0100,
tilted.xlsx,The target is tilted.,117,29,5,3,1,1,1,1,1,1,1,1,0,0,0,0,0,7,8,117,space,5.106815999999981,None,1,1,0.6767342000002827,None,space,3.9282586999997875,None,0,1,1,0,,,,,3,5,29,1,294.31345520000013,,,,,,,,,,,,,,,,,,,,,294.2990556999998,294.31345520000013,294.7977363,294.80308590000004,294.82473329999993,295.5146359999999,,,,,295.51487799999995,295.52974559999984,295.72997510000005,295.7140730000001,294.82473329999993,,,,,,,,1,1,0.6767342000002827,None,,,,,,,,856,22,M,L,2026-02-25_11h39.43.165,VisualSearch_2526_3,,2025.2.4,2026-02-25 11h39.43.499037 +0100,
tilted.xlsx,The target is tilted.,117,30,6,3,1,1,1,1,1,1,1,1,1,1,1,1,0,11,12,117,space,5.106815999999981,None,1,1,1.966629699999885,None,space,3.9282586999997875,None,0,1,1,0,,,,,3,6,30,0,295.72997510000005,,,,,,,,,,,,,,,,,,,,,295.71485829999983,295.72997510000005,296.21397639999986,296.21925409999994,296.23976159999984,298.2138229000002,,,,,298.2140623999999,298.22899499999994,298.42875000000004,298.4126999,296.23976159999984,,,,,,,,1,1,1.966629699999885,None,,,,,,,,856,22,M,L,2026-02-25_11h39.43.165,VisualSearch_2526_3,,2025.2.4,2026-02-25 11h39.43.499037 +0100,
tilted.xlsx,The target is tilted.,117,31,7,3,1,1,1,1,0,0,0,0,0,0,0,0,0,3,4,117,space,5.106815999999981,None,1,1,1.262341699999979,None,space,3.9282586999997875,None,0,1,1,0,,,,,3,7,31,2,298.42875000000004,,,,,,,,,,,,,,,,,,,,,298.4132757000002,298.42875000000004,298.91312300000027,298.91835990000027,298.93932010000026,300.2131899000001,,,,,300.2134126000001,300.22821580000027,300.4286004999999,300.4125257999999,298.93932010000026,,,,,,,,1,1,1.262341699999979,None,,,,,,,,856,22,M,L,2026-02-25_11h39.43.165,VisualSearch_2526_3,,2025.2.4,2026-02-25 11h39.43.499037 +0100,
tilted.xlsx,The target is tilted.,117,32,0,4,1,1,1,1,1,1,1,1,1,1,1,1,0,11,12,117,space,5.106815999999981,None,1,1,2.0543416999998954,None,space,3.9282586999997875,None,0,1,1,0,,,,,4,0,32,0,300.4286004999999,,,,,,,,,,,,,,,,,,,,,300.41333380000015,300.4286004999999,300.9123156999999,300.91757140000027,300.9387987,302.9956947999999,,,,,302.9959137999999,303.0108699000002,303.2107897000001,303.1948961000003,300.9387987,,,,,,,,1,1,2.0543416999998954,None,,,,,,,,856,22,M,L,2026-02-25_11h39.43.165,VisualSearch_2526_3,,2025.2.4,2026-02-25 11h39.43.499037 +0100,
tilted.xlsx,The target is tilted.,117,33,1,4,1,1,1,1,0,0,0,0,0,0,0,0,0,3,4,117,space,5.106815999999981,None,1,1,0.7696570999996766,None,space,3.9282586999997875,None,0,1,1,0,,,,,4,1,33,2,303.2107897000001,,,,,,,,,,,,,,,,,,,,,303.1957289000002,303.2107897000001,303.6947215,303.7001900999999,303.72182920000023,304.4950210000002,,,,,304.49525129999984,304.5102584000001,304.7101173000001,304.69425,303.72182920000023,,,,,,,,1,1,0.7696570999996766,None,,,,,,,,856,22,M,L,2026-02-25_11h39.43.165,VisualSearch_2526_3,,2025.2.4,2026-02-25 11h39.43.499037 +0100,
