file_name,block_instructions,target_example,thisN,thisTrialN,thisRepN,target_presence,opacity_1,opacity_2,opacity_3,opacity_4,opacity_5,opacity_6,opacity_7,opacity_8,opacity_9,opacity_10,opacity_11,opacity_12,n_distract,n_items,target_ori,key_resp_4.keys,key_resp_4.rt,key_resp_4.duration,key_resp.keys,key_resp.corr,key_resp.rt,key_resp.duration,key_resp_5.keys,key_resp_5.rt,key_resp_5.duration,blocks.thisRepN,blocks.thisTrialN,blocks.thisN,blocks.thisIndex,practice_trials.thisRepN,practice_trials.thisTrialN,practice_trials.thisN,practice_trials.thisIndex,trials.thisRepN,trials.thisTrialN,trials.thisN,trials.thisIndex,thisRow.t,notes,Welcome.started,WelcomeText.started,key_resp_2.started,Welcome.stopped,key_resp_2.keys,key_resp_2.rt,key_resp_2.duration,InformedConsent.started,text_4.started,InformedConsent.stopped,key_resp_6.keys,key_resp_6.rt,key_resp_6.duration,key_resp_4.started,example_target.started,text_3.started,blocks.key_resp_4.keys,blocks.key_resp_4.rt,blocks.key_resp_4.duration,FixCross.started,fixCross.started,FixCross.stopped,Stimulus.started,key_resp.started,Stimulus.stopped,practice_trials.key_resp.keys,practice_trials.key_resp.corr,practice_trials.key_resp.rt,practice_trials.key_resp.duration,BlankScreen.started,text.started,text.stopped,BlankScreen.stopped,fixCross.stopped,ExperimentStart.started,text_2.started,key_resp_5.started,ExperimentStart.stopped,blocks.key_resp_5.keys,blocks.key_resp_5.rt,blocks.key_resp_5.duration,trials.key_resp.keys,trials.key_resp.corr,trials.key_resp.rt,trials.key_resp.duration,Thanks.started,ThankYou.started,key_resp_3.started,Thanks.stopped,key_resp_3.keys,key_resp_3.rt,key_resp_3.duration,participant,leeftijd,gender,links/rechtshandig,date,expName,expVersion,psychopyVersion,expStart,
,,,,,,,,,,,,,,,,,,,,,,,,,,,,,,,,,,,,,,,,,,,,,,0.034057900000334485,0.051054999999905704,0.051054999999905704,21.218388100000084,space,21.145365299999867,None,,,,,,,,,,,,,,,,,,,,,,,,,,,,,,,,,,,,,,,,,,,,,,857,22,M,R,2026-02-25_11h51.24.037,VisualSearch_2526_3,,2025.2.4,2026-02-25 11h51.24.376087 +0100,
,,,,,,,,,,,,,,,,,,,,,,,,,,,,,,,,,,,,,,,,,,,,,,,,,,,,,21.218550399999913,21.226872100000037,29.39904400000023,y,8.17734530000007,None,,,,,,,,,,,,,,,,,,,,,,,,,,,,,,,,,,,,,,,,857,22,M,R,2026-02-25_11h51.24.037,VisualSearch_2526_3,,2025.2.4,2026-02-25 11h51.24.376087 +0100,
tilted.xlsx,The target is tilted.,117,0,0,0,0,1,1,1,1,1,1,1,1,1,1,1,1,11,12,117,space,7.7882311999997,None,0,1,3.0538283999999294,None,,,,0,0,0,0,0,0,0,4,,,,,37.28136260000019,,,,,,,,,,,,,,,29.44950480000034,29.44950480000034,29.44950480000034,space,7.7882311999997,None,37.2755830000001,37.28136260000019,37.76176609999993,37.76746080000021,37.788893700000244,40.84506529999999,0,1,3.0538283999999294,None,40.84529390000034,40.860502400000314,41.060324100000344,41.04415960000006,,,,,,,,,,,,,,,,,,,,857,22,M,R,2026-02-25_11h51.24.037,VisualSearch_2526_3,,2025.2.4,2026-02-25 11h51.24.376087 +0100,
tilted.xlsx,The target is tilted.,117,1,1,0,1,0,0,0,0,0,0,0,0,0,0,0,0,0,1,117,space,7.7882311999997,None,1,1,0.6832937999997739,None,,,,0,0,0,0,0,1,1,3,,,,,41.060324100000344,,,,,,,,,,,,,,,,,,,,,41.0449407000001,41.060324100000344,41.54429660000005,41.54956179999999,41.57069709999996,42.26115230000005,1,1,0.6832937999997739,None,42.261384100000214,42.27638120000029,42.47656580000012,42.46044389999997,41.57069709999996,,,,,,,,,,,,,,,,,,,857,22,M,R,2026-02-25_11h51.24.037,VisualSearch_2526_3,,2025.2.4,2026-02-25 11h51.24.376087 +0100,
tilted.xlsx,The target is tilted.,117,2,2,0,0,1,1,1,1,1,1,1,0,0,0,0,1,7,8,117,space,7.7882311999997,None,0,1,1.699055099999896,None,,,,0,0,0,0,0,2,2,5,,,,,42.47656580000012,,,,,,,,,,,,,,,,,,,,,42.461188799999945,42.47656580000012,42.960424800000055,42.96580600000016,42.986952499999916,44.69371840000031,0,1,1.699055099999896,None,44.6939411000003,44.708733400000256,44.909166599999935,44.89278039999999,42.986952499999916,,,,,,,,,,,,,,,,,,,857,22,M,R,2026-02-25_11h51.24.037,VisualSearch_2526_3,,2025.2.4,2026-02-25 11h51.24.376087 +0100,
tilted.xlsx,The target is tilted.,117,3,3,0,0,1,1,1,0,0,0,0,0,0,0,0,1,3,4,117,space,7.7882311999997,None,0,1,0.8859779000003982,None,,,,0,0,0,0,0,3,3,6,,,,,44.909166599999935,,,,,,,,,,,,,,,,,,,,,44.89353130000018,44.909166599999935,45.393103899999915,45.398779800000284,45.42046610000034,46.30987619999996,0,1,0.8859779000003982,None,46.31012839999994,46.32456090000005,46.52504649999992,46.50917400000026,45.42046610000034,,,,,,,,,,,,,,,,,,,857,22,M,R,2026-02-25_11h51.24.037,VisualSearch_2526_3,,2025.2.4,2026-02-25 11h51.24.376087 +0100,
tilted.xlsx,The target is tilted.,117,4,4,0,1,1,1,1,0,0,0,0,0,0,0,0,0,3,4,117,space,7.7882311999997,None,1,1,0.7840716000000612,None,,,,0,0,0,0,0,4,4,2,,,,,46.52504649999992,,,,,,,,,,,,,,,,,,,,,46.509919399999944,46.52504649999992,47.00915639999994,47.01464540000006,47.03629920000003,47.82600380000031,1,1,0.7840716000000612,None,47.8262407000002,47.840775699999995,48.04111640000019,48.02497200000016,47.03629920000003,,,,,,,,,,,,,,,,,,,857,22,M,R,2026-02-25_11h51.24.037,VisualSearch_2526_3,,2025.2.4,2026-02-25 11h51.24.376087 +0100,
tilted.xlsx,The target is tilted.,117,5,5,0,1,1,1,1,1,1,1,1,0,0,0,0,0,7,8,117,space,7.7882311999997,None,1,1,0.871073300000262,None,,,,0,0,0,0,0,5,5,1,,,,,48.04111640000019,,,,,,,,,,,,,,,,,,,,,48.025664400000096,48.04111640000019,48.52518280000004,48.53022970000029,48.54092900000023,49.425054400000136,1,1,0.871073300000262,None,49.42526970000017,49.44052670000019,49.640861900000345,49.62449349999997,48.54092900000023,,,,,,,,,,,,,,,,,,,857,22,M,R,2026-02-25_11h51.24.037,VisualSearch_2526_3,,2025.2.4,2026-02-25 11h51.24.376087 +0100,
tilted.xlsx,The target is tilted.,117,6,6,0,0,0,0,0,0,0,0,0,0,0,0,0,1,1,1,117,space,7.7882311999997,None,0,1,0.704692299999806,None,,,,0,0,0,0,0,6,6,7,,,,,49.640861900000345,,,,,,,,,,,,,,,,,,,,,49.625219500000185,49.640861900000345,50.12470160000021,50.13008370000034,50.152856000000156,50.87379770000007,0,1,0.704692299999806,None,50.87391430000025,50.89028290000033,,51.07422160000033,50.152856000000156,,,,,,,,,,,,,,,,,,,857,22,M,R,2026-02-25_11h51.24.037,VisualSearch_2526_3,,2025.2.4,2026-02-25 11h51.24.376087 +0100,
tilted.xlsx,The target is tilted.,117,7,7,0,1,1,1,1,1,1,1,1,1,1,1,1,0,11,12,117,space,7.7882311999997,None,1,1,2.1245358000001033,None,,,,0,0,0,0,0,7,7,0,,,,,51.09050620000016,,,,,,,,,,,,,,,,,,,,,51.07503570000017,51.09050620000016,51.573852400000305,51.57935120000002,51.600742999999966,53.740346800000225,1,1,2.1245358000001033,None,53.740562899999986,53.75567709999996,53.95583050000005,53.93992789999993,51.600742999999966,,,,,,,,,,,,,,,,,,,857,22,M,R,2026-02-25_11h51.24.037,VisualSearch_2526_3,,2025.2.4,2026-02-25 11h51.24.376087 +0100,
tilted.xlsx,The target is tilted.,117,0,0,0,1,1,1,1,0,0,0,0,0,0,0,0,0,3,4,117,space,7.7882311999997,None,1,1,1.0373580000000402,None,space,1.9660116000000016,None,0,0,0,0,,,,,0,0,0,2,55.94483820000005,,,,,,,,,,,,,,,,,,,,,55.94092470000032,55.94483820000005,56.43907360000003,56.445727499999975,56.46653090000018,57.506166699999994,,,,,57.50642020000032,57.52146900000025,57.7213684000003,57.70531090000031,,53.94780270000001,53.95583050000005,53.95583050000005,55.92311719999998,space,1.9660116000000016,None,1,1,1.0373580000000402,None,,,,,,,,857,22,M,R,2026-02-25_11h51.24.037,VisualSearch_2526_3,,2025.2.4,2026-02-25 11h51.24.376087 +0100,
tilted.xlsx,The target is tilted.,117,1,1,0,1,0,0,0,0,0,0,0,0,0,0,0,0,0,1,117,space,7.7882311999997,None,1,1,0.6153411000000233,None,space,1.9660116000000016,None,0,0,0,0,,,,,0,1,1,3,57.7213684000003,,,,,,,,,,,,,,,,,,,,,57.70614000000023,57.7213684000003,58.20510680000007,58.21078660000012,58.2324094999999,58.8557581,,,,,58.85599140000022,58.87080560000004,59.071192599999904,59.05502620000016,58.2324094999999,,,,,,,,1,1,0.6153411000000233,None,,,,,,,,857,22,M,R,2026-02-25_11h51.24.037,VisualSearch_2526_3,,2025.2.4,2026-02-25 11h51.24.376087 +0100,
tilted.xlsx,The target is tilted.,117,2,2,0,1,1,1,1,1,1,1,1,1,1,1,1,0,11,12,117,space,7.7882311999997,None,0,0,2.0376784999998563,None,space,1.9660116000000016,None,0,0,0,0,,,,,0,2,2,0,59.071192599999904,,,,,,,,,,,,,,,,,,,,,59.055884700000206,59.071192599999904,59.55506770000011,59.560568500000045,59.58211849999998,61.62133040000026,,,,,61.62153080000007,61.63657319999993,61.836934400000246,61.82095590000017,59.58211849999998,,,,,,,,0,0,2.0376784999998563,None,,,,,,,,857,22,M,R,2026-02-25_11h51.24.037,VisualSearch_2526_3,,2025.2.4,2026-02-25 11h51.24.376087 +0100,
tilted.xlsx,The target is tilted.,117,3,3,0,0,0,0,0,0,0,0,0,0,0,0,0,1,1,1,117,space,7.7882311999997,None,0,1,0.6476134000004095,None,space,1.9660116000000016,None,0,0,0,0,,,,,0,3,3,7,61.836934400000246,,,,,,,,,,,,,,,,,,,,,61.821762500000204,61.836934400000246,62.32079500000009,62.32623280000007,62.34722330000022,63.00415320000002,,,,,63.00437550000015,63.019163599999956,63.21988820000024,63.20388200000025,62.34722330000022,,,,,,,,0,1,0.6476134000004095,None,,,,,,,,857,22,M,R,2026-02-25_11h51.24.037,VisualSearch_2526_3,,2025.2.4,2026-02-25 11h51.24.376087 +0100,
tilted.xlsx,The target is tilted.,117,4,4,0,0,1,1,1,1,1,1,1,0,0,0,0,1,7,8,117,space,7.7882311999997,None,0,1,1.605449800000315,None,space,1.9660116000000016,None,0,0,0,0,,,,,0,4,4,5,63.21988820000024,,,,,,,,,,,,,,,,,,,,,63.2047335000002,63.21988820000024,63.70331179999994,63.70874099999992,63.731017000000065,65.35236650000024,,,,,65.35248989999991,65.36892890000036,,65.552776,63.731017000000065,,,,,,,,0,1,1.605449800000315,None,,,,,,,,857,22,M,R,2026-02-25_11h51.24.037,VisualSearch_2526_3,,2025.2.4,2026-02-25 11h51.24.376087 +0100,
tilted.xlsx,The target is tilted.,117,5,5,0,0,1,1,1,1,1,1,1,1,1,1,1,1,11,12,117,space,7.7882311999997,None,0,1,3.114444700000149,None,space,1.9660116000000016,None,0,0,0,0,,,,,0,5,5,4,65.56914860000006,,,,,,,,,,,,,,,,,,,,,65.55368990000034,65.56914860000006,66.05274230000032,66.05820410000024,66.07901170000014,69.20248170000013,,,,,69.2027323000002,69.21713249999993,69.41781560000027,69.40172920000032,66.07901170000014,,,,,,,,0,1,3.114444700000149,None,,,,,,,,857,22,M,R,2026-02-25_11h51.24.037,VisualSearch_2526_3,,2025.2.4,2026-02-25 11h51.24.376087 +0100,
tilted.xlsx,The target is tilted.,117,6,6,0,0,1,1,1,0,0,0,0,0,0,0,0,1,3,4,117,space,7.7882311999997,None,0,1,0.8102613000000929,None,space,1.9660116000000016,None,0,0,0,0,,,,,0,6,6,6,69.41781560000027,,,,,,,,,,,,,,,,,,,,,69.40269970000008,69.41781560000027,69.9016544000001,69.90715480000017,69.93068730000005,70.75203959999999,,,,,70.75226500000008,70.76690670000016,70.9671373000001,70.9508737000001,69.93068730000005,,,,,,,,0,1,0.8102613000000929,None,,,,,,,,857,22,M,R,2026-02-25_11h51.24.037,VisualSearch_2526_3,,2025.2.4,2026-02-25 11h51.24.376087 +0100,
tilted.xlsx,The target is tilted.,117,7,7,0,1,1,1,1,1,1,1,1,0,0,0,0,0,7,8,117,space,7.7882311999997,None,0,0,1.631988800000272,None,space,1.9660116000000016,None,0,0,0,0,,,,,0,7,7,1,70.9671373000001,,,,,,,,,,,,,,,,,,,,,70.95145159999993,70.9671373000001,71.45109170000023,71.45661109999992,71.47841470000003,73.11799400000018,,,,,73.11822250000023,73.13280299999997,73.33325890000015,73.31693970000015,71.47841470000003,,,,,,,,0,0,1.631988800000272,None,,,,,,,,857,22,M,R,2026-02-25_11h51.24.037,VisualSearch_2526_3,,2025.2.4,2026-02-25 11h51.24.376087 +0100,
tilted.xlsx,The target is tilted.,117,8,0,1,1,1,1,1,1,1,1,1,1,1,1,1,0,11,12,117,space,7.7882311999997,None,1,1,2.6353486000002704,None,space,1.9660116000000016,None,0,0,0,0,,,,,1,0,8,0,73.33325890000015,,,,,,,,,,,,,,,,,,,,,73.3178270000003,73.33325890000015,73.81694689999995,73.82155060000014,73.83292930000016,76.48297170000023,,,,,76.48320150000018,76.49829480000017,76.6988351,76.6823803000002,73.83292930000016,,,,,,,,1,1,2.6353486000002704,None,,,,,,,,857,22,M,R,2026-02-25_11h51.24.037,VisualSearch_2526_3,,2025.2.4,2026-02-25 11h51.24.376087 +0100,
tilted.xlsx,The target is tilted.,117,9,1,1,0,1,1,1,1,1,1,1,0,0,0,0,1,7,8,117,space,7.7882311999997,None,0,1,2.5708709000000454,None,space,1.9660116000000016,None,0,0,0,0,,,,,1,1,9,5,76.6988351,,,,,,,,,,,,,,,,,,,,,76.68322720000015,76.6988351,77.18261780000012,77.18790040000022,77.20184760000029,79.78244739999991,,,,,79.78267069999993,79.79730950000021,79.99776070000007,79.9817038000001,77.20184760000029,,,,,,,,0,1,2.5708709000000454,None,,,,,,,,857,22,M,R,2026-02-25_11h51.24.037,VisualSearch_2526_3,,2025.2.4,2026-02-25 11h51.24.376087 +0100,
tilted.xlsx,The target is tilted.,117,10,2,1,1,0,0,0,0,0,0,0,0,0,0,0,0,0,1,117,space,7.7882311999997,None,1,1,0.7914774000000762,None,space,1.9660116000000016,None,0,0,0,0,,,,,1,2,10,3,79.99776070000007,,,,,,,,,,,,,,,,,,,,,79.9825066000003,79.99776070000007,80.48156000000017,80.48691880000024,80.50780680000025,81.31516680000004,,,,,81.3154214000001,81.33010779999995,81.53056570000035,81.5144651999999,80.50780680000025,,,,,,,,1,1,0.7914774000000762,None,,,,,,,,857,22,M,R,2026-02-25_11h51.24.037,VisualSearch_2526_3,,2025.2.4,2026-02-25 11h51.24.376087 +0100,
tilted.xlsx,The target is tilted.,117,11,3,1,1,1,1,1,0,0,0,0,0,0,0,0,0,3,4,117,space,7.7882311999997,None,1,1,1.2489690000002156,None,space,1.9660116000000016,None,0,0,0,0,,,,,1,3,11,2,81.53056570000035,,,,,,,,,,,,,,,,,,,,,81.51527030000034,81.53056570000035,82.01441460000024,82.02003110000032,82.04143180000028,83.29833820000022,,,,,83.29856810000001,83.31256350000012,83.51329720000012,83.49728080000023,82.04143180000028,,,,,,,,1,1,1.2489690000002156,None,,,,,,,,857,22,M,R,2026-02-25_11h51.24.037,VisualSearch_2526_3,,2025.2.4,2026-02-25 11h51.24.376087 +0100,
tilted.xlsx,The target is tilted.,117,12,4,1,0,0,0,0,0,0,0,0,0,0,0,0,1,1,1,117,space,7.7882311999997,None,0,1,0.9892389999999978,None,space,1.9660116000000016,None,0,0,0,0,,,,,1,4,12,7,83.51329720000012,,,,,,,,,,,,,,,,,,,,,83.4981213000001,83.51329720000012,83.99695689999999,84.00225560000035,84.0233959000002,85.02928210000027,,,,,85.02941090000013,85.04580209999995,,85.22973700000011,84.0233959000002,,,,,,,,0,1,0.9892389999999978,None,,,,,,,,857,22,M,R,2026-02-25_11h51.24.037,VisualSearch_2526_3,,2025.2.4,2026-02-25 11h51.24.376087 +0100,
tilted.xlsx,The target is tilted.,117,13,5,1,1,1,1,1,1,1,1,1,0,0,0,0,0,7,8,117,space,7.7882311999997,None,1,1,2.560786300000018,None,space,1.9660116000000016,None,0,0,0,0,,,,,1,5,13,1,85.24595390000013,,,,,,,,,,,,,,,,,,,,,85.23063540000021,85.24595390000013,85.72953529999995,85.73505520000026,85.75680510000029,88.32942940000021,,,,,88.32966560000023,88.34448610000027,88.54457820000016,88.52877690000014,,,,,,,,,1,1,2.560786300000018,None,,,,,,,,857,22,M,R,2026-02-25_11h51.24.037,VisualSearch_2526_3,,2025.2.4,2026-02-25 11h51.24.376087 +0100,
tilted.xlsx,The target is tilted.,117,14,6,1,0,1,1,1,1,1,1,1,1,1,1,1,1,11,12,117,space,7.7882311999997,None,0,1,4.723624099999597,None,space,1.9660116000000016,None,0,0,0,0,,,,,1,6,14,4,88.54457820000016,,,,,,,,,,,,,,,,,,,,,88.52961129999994,88.54457820000016,89.02876140000035,89.03413159999991,89.05571290000034,93.79315720000022,,,,,93.79328179999993,93.80953610000006,,93.99357020000025,89.05571290000034,,,,,,,,0,1,4.723624099999597,None,,,,,,,,857,22,M,R,2026-02-25_11h51.24.037,VisualSearch_2526_3,,2025.2.4,2026-02-25 11h51.24.376087 +0100,
tilted.xlsx,The target is tilted.,117,15,7,1,0,1,1,1,0,0,0,0,0,0,0,0,1,3,4,117,space,7.7882311999997,None,0,1,1.4647233000000597,None,space,1.9660116000000016,None,0,0,0,0,,,,,1,7,15,6,94.00989490000029,,,,,,,,,,,,,,,,,,,,,93.99450819999993,94.00989490000029,94.49346839999998,94.49894190000032,94.51976229999991,95.99342220000017,,,,,95.99361679999993,96.00867240000025,96.20912739999994,96.1928210000001,94.51976229999991,,,,,,,,0,1,1.4647233000000597,None,,,,,,,,857,22,M,R,2026-02-25_11h51.24.037,VisualSearch_2526_3,,2025.2.4,2026-02-25 11h51.24.376087 +0100,
tilted.xlsx,The target is tilted.,117,16,0,2,1,1,1,1,1,1,1,1,1,1,1,1,0,11,12,117,space,7.7882311999997,None,1,1,0.8729884000003949,None,space,1.9660116000000016,None,0,0,0,0,,,,,2,0,16,0,96.20912739999994,,,,,,,,,,,,,,,,,,,,,96.1937911,96.20912739999994,96.69293870000001,96.69853230000035,96.72022390000029,97.60946439999998,,,,,97.60969049999994,97.62476770000012,97.82530709999992,97.80929659999993,96.72022390000029,,,,,,,,1,1,0.8729884000003949,None,,,,,,,,857,22,M,R,2026-02-25_11h51.24.037,VisualSearch_2526_3,,2025.2.4,2026-02-25 11h51.24.376087 +0100,
tilted.xlsx,The target is tilted.,117,17,1,2,0,0,0,0,0,0,0,0,0,0,0,0,1,1,1,117,space,7.7882311999997,None,0,1,1.289354099999855,None,space,1.9660116000000016,None,0,0,0,0,,,,,2,1,17,7,97.82530709999992,,,,,,,,,,,,,,,,,,,,,97.8101300000003,97.82530709999992,98.30865459999995,98.3141528000001,98.33314509999991,99.62593779999997,,,,,99.62616640000033,99.64053820000026,99.84124620000011,99.82504530000006,98.33314509999991,,,,,,,,0,1,1.289354099999855,None,,,,,,,,857,22,M,R,2026-02-25_11h51.24.037,VisualSearch_2526_3,,2025.2.4,2026-02-25 11h51.24.376087 +0100,
tilted.xlsx,The target is tilted.,117,18,2,2,1,0,0,0,0,0,0,0,0,0,0,0,0,0,1,117,space,7.7882311999997,None,1,1,0.6499073999998473,None,space,1.9660116000000016,None,0,0,0,0,,,,,2,2,18,3,99.84124620000011,,,,,,,,,,,,,,,,,,,,,99.82591430000002,99.84124620000011,100.32474760000014,100.33018590000029,100.35184840000011,101.00849730000027,,,,,101.00872770000024,101.02339699999993,101.22416659999999,101.20812290000003,100.35184840000011,,,,,,,,1,1,0.6499073999998473,None,,,,,,,,857,22,M,R,2026-02-25_11h51.24.037,VisualSearch_2526_3,,2025.2.4,2026-02-25 11h51.24.376087 +0100,
tilted.xlsx,The target is tilted.,117,19,3,2,1,1,1,1,0,0,0,0,0,0,0,0,0,3,4,117,space,7.7882311999997,None,0,0,4.435373900000286,None,space,1.9660116000000016,None,0,0,0,0,,,,,2,3,19,2,101.22416659999999,,,,,,,,,,,,,,,,,,,,,101.20892470000035,101.22416659999999,101.7079106000001,101.7125658,101.7238255000002,106.1732492000001,,,,,106.1734819000003,106.18875560000015,106.38917040000024,106.37315160000026,101.7238255000002,,,,,,,,0,0,4.435373900000286,None,,,,,,,,857,22,M,R,2026-02-25_11h51.24.037,VisualSearch_2526_3,,2025.2.4,2026-02-25 11h51.24.376087 +0100,
tilted.xlsx,The target is tilted.,117,20,4,2,0,1,1,1,0,0,0,0,0,0,0,0,1,3,4,117,space,7.7882311999997,None,0,1,1.3324987999999394,None,space,1.9660116000000016,None,0,0,0,0,,,,,2,4,20,6,106.38917040000024,,,,,,,,,,,,,,,,,,,,,106.37400640000033,106.38917040000024,106.87296379999998,106.87842769999997,106.90065080000022,108.23937280000018,,,,,108.23960930000021,108.2546969,108.45474020000029,108.43898830000035,106.90065080000022,,,,,,,,0,1,1.3324987999999394,None,,,,,,,,857,22,M,R,2026-02-25_11h51.24.037,VisualSearch_2526_3,,2025.2.4,2026-02-25 11h51.24.376087 +0100,
tilted.xlsx,The target is tilted.,117,21,5,2,0,1,1,1,1,1,1,1,0,0,0,0,1,7,8,117,space,7.7882311999997,None,0,1,3.3602818000003936,None,space,1.9660116000000016,None,0,0,0,0,,,,,2,5,21,5,108.45474020000029,,,,,,,,,,,,,,,,,,,,,108.43980820000024,108.45474020000029,108.93893950000029,108.94447179999997,108.96050280000009,112.33730930000002,,,,,112.33745970000018,112.35321190000013,112.55339090000007,112.53773480000018,108.96050280000009,,,,,,,,0,1,3.3602818000003936,None,,,,,,,,857,22,M,R,2026-02-25_11h51.24.037,VisualSearch_2526_3,,2025.2.4,2026-02-25 11h51.24.376087 +0100,
tilted.xlsx,The target is tilted.,117,22,6,2,0,1,1,1,1,1,1,1,1,1,1,1,1,11,12,117,space,7.7882311999997,None,0,1,3.024808099999973,None,space,1.9660116000000016,None,0,0,0,0,,,,,2,6,22,4,112.55339090000007,,,,,,,,,,,,,,,,,,,,,112.53855890000023,112.55339090000007,113.0376239000002,113.04293499999994,113.06425930000023,116.10345430000007,,,,,116.10370880000028,116.11882920000016,116.3192025000003,116.30314590000035,113.06425930000023,,,,,,,,0,1,3.024808099999973,None,,,,,,,,857,22,M,R,2026-02-25_11h51.24.037,VisualSearch_2526_3,,2025.2.4,2026-02-25 11h51.24.376087 +0100,
tilted.xlsx,The target is tilted.,117,23,7,2,1,1,1,1,1,1,1,1,0,0,0,0,0,7,8,117,space,7.7882311999997,None,0,0,2.2144858000001477,None,space,1.9660116000000016,None,0,0,0,0,,,,,2,7,23,1,116.3192025000003,,,,,,,,,,,,,,,,,,,,,116.30397070000026,116.3192025000003,116.80304860000024,116.80941910000001,116.82979220000016,119.0528377999999,,,,,119.05309549999993,119.06782320000002,119.26824870000019,119.25179740000021,116.82979220000016,,,,,,,,0,0,2.2144858000001477,None,,,,,,,,857,22,M,R,2026-02-25_11h51.24.037,VisualSearch_2526_3,,2025.2.4,2026-02-25 11h51.24.376087 +0100,
tilted.xlsx,The target is tilted.,117,24,0,3,0,1,1,1,0,0,0,0,0,0,0,0,1,3,4,117,space,7.7882311999997,None,0,1,1.135679699999855,None,space,1.9660116000000016,None,0,0,0,0,,,,,3,0,24,6,119.26824870000019,,,,,,,,,,,,,,,,,,,,,119.25264800000014,119.26824870000019,119.75204410000015,119.75759070000004,119.77989660000003,120.91896210000004,,,,,120.91921700000012,120.9339302000003,121.13404340000034,121.11834240000007,119.77989660000003,,,,,,,,0,1,1.135679699999855,None,,,,,,,,857,22,M,R,2026-02-25_11h51.24.037,VisualSearch_2526_3,,2025.2.4,2026-02-25 11h51.24.376087 +0100,
tilted.xlsx,The target is tilted.,117,25,1,3,0,1,1,1,1,1,1,1,1,1,1,1,1,11,12,117,space,7.7882311999997,None,0,1,3.889604099999815,None,space,1.9660116000000016,None,0,0,0,0,,,,,3,1,25,4,121.13404340000034,,,,,,,,,,,,,,,,,,,,,121.11916800000017,121.13404340000034,121.61786290000009,121.62354770000002,121.64491150000003,125.54945190000035,,,,,125.54957800000011,125.5654913000003,,125.74980129999994,121.64491150000003,,,,,,,,0,1,3.889604099999815,None,,,,,,,,857,22,M,R,2026-02-25_11h51.24.037,VisualSearch_2526_3,,2025.2.4,2026-02-25 11h51.24.376087 +0100,
tilted.xlsx,The target is tilted.,117,26,2,3,1,1,1,1,1,1,1,1,0,0,0,0,0,7,8,117,space,7.7882311999997,None,1,1,0.6667895999999018,None,space,1.9660116000000016,None,0,0,0,0,,,,,3,2,26,1,125.76604210000005,,,,,,,,,,,,,,,,,,,,,125.75068250000004,125.76604210000005,126.2499329000002,126.25540290000026,126.27673219999997,126.94965920000004,,,,,126.9498208,126.9650773000003,127.16553720000002,127.14936949999992,126.27673219999997,,,,,,,,1,1,0.6667895999999018,None,,,,,,,,857,22,M,R,2026-02-25_11h51.24.037,VisualSearch_2526_3,,2025.2.4,2026-02-25 11h51.24.376087 +0100,
tilted.xlsx,The target is tilted.,117,27,3,3,1,1,1,1,0,0,0,0,0,0,0,0,0,3,4,117,space,7.7882311999997,None,1,1,1.0999154999999519,None,space,1.9660116000000016,None,0,0,0,0,,,,,3,3,27,2,127.16553720000002,,,,,,,,,,,,,,,,,,,,,127.1502101000001,127.16553720000002,127.64955050000026,127.65500530000008,127.67569460000004,128.78294730000016,,,,,128.78318650000028,128.79800049999994,128.99839950000023,128.98202750000019,127.67569460000004,,,,,,,,1,1,1.0999154999999519,None,,,,,,,,857,22,M,R,2026-02-25_11h51.24.037,VisualSearch_2526_3,,2025.2.4,2026-02-25 11h51.24.376087 +0100,
tilted.xlsx,The target is tilted.,117,28,4,3,1,1,1,1,1,1,1,1,1,1,1,1,0,11,12,117,space,7.7882311999997,None,1,1,1.8211510999999518,None,space,1.9660116000000016,None,0,0,0,0,,,,,3,4,28,0,128.99839950000023,,,,,,,,,,,,,,,,,,,,,128.98284749999993,128.99839950000023,129.4822767999999,129.48771410000018,129.50907700000016,131.33142450000014,,,,,131.33155530000022,131.34703420000005,131.5475437,131.5314387000003,129.50907700000016,,,,,,,,1,1,1.8211510999999518,None,,,,,,,,857,22,M,R,2026-02-25_11h51.24.037,VisualSearch_2526_3,,2025.2.4,2026-02-25 11h51.24.376087 +0100,
tilted.xlsx,The target is tilted.,117,29,5,3,1,0,0,0,0,0,0,0,0,0,0,0,0,0,1,117,space,7.7882311999997,None,1,1,0.5763345999998819,None,space,1.9660116000000016,None,0,0,0,0,,,,,3,5,29,3,131.5475437,,,,,,,,,,,,,,,,,,,,,131.53229310000006,131.5475437,132.0315028,132.0370353000003,132.05807670000013,132.6478221000002,,,,,132.64804700000013,132.66332060000013,132.86354900000015,132.84789249999994,132.05807670000013,,,,,,,,1,1,0.5763345999998819,None,,,,,,,,857,22,M,R,2026-02-25_11h51.24.037,VisualSearch_2526_3,,2025.2.4,2026-02-25 11h51.24.376087 +0100,
tilted.xlsx,The target is tilted.,117,30,6,3,0,0,0,0,0,0,0,0,0,0,0,0,1,1,1,117,space,7.7882311999997,None,0,1,0.6547619000002669,None,space,1.9660116000000016,None,0,0,0,0,,,,,3,6,30,7,132.86354900000015,,,,,,,,,,,,,,,,,,,,,132.84871449999991,132.86354900000015,133.34756620000007,133.35305749999998,133.3734217000001,134.03123840000035,,,,,134.03145889999996,134.04599180000014,134.24666260000004,134.23074940000015,133.3734217000001,,,,,,,,0,1,0.6547619000002669,None,,,,,,,,857,22,M,R,2026-02-25_11h51.24.037,VisualSearch_2526_3,,2025.2.4,2026-02-25 11h51.24.376087 +0100,
tilted.xlsx,The target is tilted.,117,31,7,3,0,1,1,1,1,1,1,1,0,0,0,0,1,7,8,117,space,7.7882311999997,None,0,1,2.427158700000291,None,space,1.9660116000000016,None,0,0,0,0,,,,,3,7,31,5,134.24666260000004,,,,,,,,,,,,,,,,,,,,,134.23158220000005,134.24666260000004,134.73055040000008,134.7359722000001,134.75725710000006,137.19645770000034,,,,,137.1967665000002,137.21187640000016,137.4123886000002,137.3959103000002,134.75725710000006,,,,,,,,0,1,2.427158700000291,None,,,,,,,,857,22,M,R,2026-02-25_11h51.24.037,VisualSearch_2526_3,,2025.2.4,2026-02-25 11h51.24.376087 +0100,
tilted.xlsx,The target is tilted.,117,32,0,4,0,1,1,1,0,0,0,0,0,0,0,0,1,3,4,117,space,7.7882311999997,None,0,1,1.0107872999997198,None,space,1.9660116000000016,None,0,0,0,0,,,,,4,0,32,6,137.4123886000002,,,,,,,,,,,,,,,,,,,,,137.39674839999998,137.4123886000002,137.89597760000015,137.9014975,137.9219860000003,138.94507169999997,,,,,138.94519320000018,138.9611818000003,139.16188160000002,139.14543679999997,137.9219860000003,,,,,,,,0,1,1.0107872999997198,None,,,,,,,,857,22,M,R,2026-02-25_11h51.24.037,VisualSearch_2526_3,,2025.2.4,2026-02-25 11h51.24.376087 +0100,
tilted.xlsx,The target is tilted.,117,33,1,4,0,0,0,0,0,0,0,0,0,0,0,0,1,1,1,117,space,7.7882311999997,None,0,1,0.6772571999999855,None,space,1.9660116000000016,None,0,0,0,0,,,,,4,1,33,7,139.16188160000002,,,,,,,,,,,,,,,,,,,,,139.1463159,139.16188160000002,139.64523009999994,139.6506142000003,139.67145789999995,140.36132810000026,,,,,140.3614493,140.3774258000003,,140.56172360000028,139.67145789999995,,,,,,,,0,1,0.6772571999999855,None,,,,,,,,857,22,M,R,2026-02-25_11h51.24.037,VisualSearch_2526_3,,2025.2.4,2026-02-25 11h51.24.376087 +0100,
tilted.xlsx,The target is tilted.,117,34,2,4,0,1,1,1,1,1,1,1,0,0,0,0,1,7,8,117,space,7.7882311999997,None,0,1,2.21879220000028,None,space,1.9660116000000016,None,0,0,0,0,,,,,4,2,34,5,140.5780353,,,,,,,,,,,,,,,,,,,,,140.5627069000002,140.5780353,141.06182480000007,141.06742470000017,141.08975020000025,143.31183869999995,,,,,143.3120670000003,143.32670690000032,143.52701370000023,143.51103379999995,141.08975020000025,,,,,,,,0,1,2.21879220000028,None,,,,,,,,857,22,M,R,2026-02-25_11h51.24.037,VisualSearch_2526_3,,2025.2.4,2026-02-25 11h51.24.376087 +0100,
tilted.xlsx,The target is tilted.,117,35,3,4,1,1,1,1,1,1,1,1,0,0,0,0,0,7,8,117,space,7.7882311999997,None,0,0,2.3848899000004167,None,space,1.9660116000000016,None,0,0,0,0,,,,,4,3,35,1,143.52701370000023,,,,,,,,,,,,,,,,,,,,,143.51191259999996,143.52701370000023,144.01085349999994,144.01652390000027,144.03892910000013,146.42730849999998,,,,,146.42756970000028,146.44229769999993,146.64257140000018,146.62653630000023,144.03892910000013,,,,,,,,0,0,2.3848899000004167,None,,,,,,,,857,22,M,R,2026-02-25_11h51.24.037,VisualSearch_2526_3,,2025.2.4,2026-02-25 11h51.24.376087 +0100,
tilted.xlsx,The target is tilted.,117,36,4,4,0,1,1,1,1,1,1,1,1,1,1,1,1,11,12,117,space,7.7882311999997,None,0,1,4.226172000000133,None,space,1.9660116000000016,None,0,0,0,0,,,,,4,4,36,4,146.64257140000018,,,,,,,,,,,,,,,,,,,,,146.62743769999997,146.64257140000018,147.12642380000034,147.1318028999999,147.1531358000002,151.39248350000025,,,,,151.3927063000001,151.407381,151.60774390000006,151.59170530000029,147.1531358000002,,,,,,,,0,1,4.226172000000133,None,,,,,,,,857,22,M,R,2026-02-25_11h51.24.037,VisualSearch_2526_3,,2025.2.4,2026-02-25 11h51.24.376087 +0100,
tilted.xlsx,The target is tilted.,117,37,5,4,1,0,0,0,0,0,0,0,0,0,0,0,0,0,1,117,space,7.7882311999997,None,1,1,0.5213459000001421,None,space,1.9660116000000016,None,0,0,0,0,,,,,4,5,37,3,151.60774390000006,,,,,,,,,,,,,,,,,,,,,151.59251489999997,151.60774390000006,152.09140300000035,152.09687759999997,152.1177662,152.64151680000032,,,,,152.6417392000003,152.6569324000002,152.85727620000034,152.84126659999993,152.1177662,,,,,,,,1,1,0.5213459000001421,None,,,,,,,,857,22,M,R,2026-02-25_11h51.24.037,VisualSearch_2526_3,,2025.2.4,2026-02-25 11h51.24.376087 +0100,
tilted.xlsx,The target is tilted.,117,38,6,4,1,1,1,1,0,0,0,0,0,0,0,0,0,3,4,117,space,7.7882311999997,None,1,1,0.9279144000001907,None,space,1.9660116000000016,None,0,0,0,0,,,,,4,6,38,2,152.85727620000034,,,,,,,,,,,,,,,,,,,,,152.84211099999993,152.85727620000034,153.3407646999999,153.3461514999999,153.36789790000012,154.3070044000001,,,,,154.30712360000007,154.3227555000003,154.5230561000003,154.5075022000001,153.36789790000012,,,,,,,,1,1,0.9279144000001907,None,,,,,,,,857,22,M,R,2026-02-25_11h51.24.037,VisualSearch_2526_3,,2025.2.4,2026-02-25 11h51.24.376087 +0100,
tilted.xlsx,The target is tilted.,117,39,7,4,1,1,1,1,1,1,1,1,1,1,1,1,0,11,12,117,space,7.7882311999997,None,1,1,2.812166900000193,None,space,1.9660116000000016,None,0,0,0,0,,,,,4,7,39,0,154.5230561000003,,,,,,,,,,,,,,,,,,,,,154.5083754000002,154.5230561000003,155.0072841000001,155.01257480000004,155.03168170000026,157.85635460000003,,,,,157.8566023000003,157.87190490000012,158.0723135000003,158.05614360000027,155.03168170000026,,,,,,,,1,1,2.812166900000193,None,,,,,,,,857,22,M,R,2026-02-25_11h51.24.037,VisualSearch_2526_3,,2025.2.4,2026-02-25 11h51.24.376087 +0100,
tilted.xlsx,The target is tilted.,117,40,0,5,1,1,1,1,0,0,0,0,0,0,0,0,0,3,4,117,space,7.7882311999997,None,1,1,1.3436088999997082,None,space,1.9660116000000016,None,0,0,0,0,,,,,5,0,40,2,158.0723135000003,,,,,,,,,,,,,,,,,,,,,158.0569886000003,158.0723135000003,158.5559145000002,158.56139940000003,158.58286270000008,159.93902879999996,,,,,159.93925850000005,159.9545360000002,160.15455930000007,160.13882620000004,158.58286270000008,,,,,,,,1,1,1.3436088999997082,None,,,,,,,,857,22,M,R,2026-02-25_11h51.24.037,VisualSearch_2526_3,,2025.2.4,2026-02-25 11h51.24.376087 +0100,
tilted.xlsx,The target is tilted.,117,41,1,5,1,1,1,1,1,1,1,1,0,0,0,0,0,7,8,117,space,7.7882311999997,None,1,1,2.138088400000015,None,space,1.9660116000000016,None,0,0,0,0,,,,,5,1,41,1,160.15455930000007,,,,,,,,,,,,,,,,,,,,,160.1396580999999,160.15455930000007,160.63876819999996,160.64422779999995,160.6633452000001,162.8041685000003,,,,,162.80428990000019,162.82002710000006,163.02066379999997,163.00466350000033,160.6633452000001,,,,,,,,1,1,2.138088400000015,None,,,,,,,,857,22,M,R,2026-02-25_11h51.24.037,VisualSearch_2526_3,,2025.2.4,2026-02-25 11h51.24.376087 +0100,
tilted.xlsx,The target is tilted.,117,42,2,5,1,1,1,1,1,1,1,1,1,1,1,1,0,11,12,117,space,7.7882311999997,None,1,1,3.427172900000187,None,space,1.9660116000000016,None,0,0,0,0,,,,,5,2,42,0,163.02066379999997,,,,,,,,,,,,,,,,,,,,,163.00554170000032,163.02066379999997,163.50408749999997,163.5095993,163.53075669999998,166.9701196000001,,,,,166.97034480000002,166.98553560000028,167.1859002000001,167.17001879999998,163.53075669999998,,,,,,,,1,1,3.427172900000187,None,,,,,,,,857,22,M,R,2026-02-25_11h51.24.037,VisualSearch_2526_3,,2025.2.4,2026-02-25 11h51.24.376087 +0100,
tilted.xlsx,The target is tilted.,117,43,3,5,0,0,0,0,0,0,0,0,0,0,0,0,1,1,1,117,space,7.7882311999997,None,0,1,0.7254866999996921,None,space,1.9660116000000016,None,0,0,0,0,,,,,5,3,43,7,167.1859002000001,,,,,,,,,,,,,,,,,,,,,167.1708722000003,167.1859002000001,167.66979549999996,167.67525290000003,167.69574950000015,168.43626799999993,,,,,168.43649360000018,168.4516375000003,168.65207039999996,168.63577720000012,167.69574950000015,,,,,,,,0,1,0.7254866999996921,None,,,,,,,,857,22,M,R,2026-02-25_11h51.24.037,VisualSearch_2526_3,,2025.2.4,2026-02-25 11h51.24.376087 +0100,
tilted.xlsx,The target is tilted.,117,44,4,5,0,1,1,1,1,1,1,1,1,1,1,1,1,11,12,117,space,7.7882311999997,None,0,1,4.530919000000267,None,space,1.9660116000000016,None,0,0,0,0,,,,,5,4,44,4,168.65207039999996,,,,,,,,,,,,,,,,,,,,,168.63662479999994,168.65207039999996,169.13579770000024,169.1412766000003,169.16287550000015,173.70166860000018,,,,,173.70192290000023,173.7167144,173.91713750000008,173.90108009999994,169.16287550000015,,,,,,,,0,1,4.530919000000267,None,,,,,,,,857,22,M,R,2026-02-25_11h51.24.037,VisualSearch_2526_3,,2025.2.4,2026-02-25 11h51.24.376087 +0100,
tilted.xlsx,The target is tilted.,117,45,5,5,0,1,1,1,0,0,0,0,0,0,0,0,1,3,4,117,space,7.7882311999997,None,0,1,1.2055562999998983,None,space,1.9660116000000016,None,0,0,0,0,,,,,5,5,45,6,173.91713750000008,,,,,,,,,,,,,,,,,,,,,173.90193420000014,173.91713750000008,174.40059629999996,174.4059801000003,174.42308290000028,175.6344064,,,,,175.63469020000002,175.64941660000022,175.84980480000013,175.8336145000003,174.42308290000028,,,,,,,,0,1,1.2055562999998983,None,,,,,,,,857,22,M,R,2026-02-25_11h51.24.037,VisualSearch_2526_3,,2025.2.4,2026-02-25 11h51.24.376087 +0100,
tilted.xlsx,The target is tilted.,117,46,6,5,1,0,0,0,0,0,0,0,0,0,0,0,0,0,1,117,space,7.7882311999997,None,1,1,0.6670714000001681,None,space,1.9660116000000016,None,0,0,0,0,,,,,5,6,46,3,175.84980480000013,,,,,,,,,,,,,,,,,,,,,175.8345158000002,175.84980480000013,176.33363869999994,176.3391120000001,176.36079670000026,177.03361620000032,,,,,177.03384080000023,177.0486807000002,177.24908520000008,177.2333507000003,176.36079670000026,,,,,,,,1,1,0.6670714000001681,None,,,,,,,,857,22,M,R,2026-02-25_11h51.24.037,VisualSearch_2526_3,,2025.2.4,2026-02-25 11h51.24.376087 +0100,
tilted.xlsx,The target is tilted.,117,47,7,5,0,1,1,1,1,1,1,1,0,0,0,0,1,7,8,117,space,7.7882311999997,None,0,1,2.2044472999996287,None,space,1.9660116000000016,None,0,0,0,0,,,,,5,7,47,5,177.24908520000008,,,,,,,,,,,,,,,,,,,,,177.23415330000034,177.24908520000008,177.73322690000032,177.73861450000004,177.76006940000025,179.96648270000014,,,,,179.96672639999997,179.98134860000027,180.1817014000003,180.16532370000004,177.76006940000025,,,,,,,,0,1,2.2044472999996287,None,,,,,,,,857,22,M,R,2026-02-25_11h51.24.037,VisualSearch_2526_3,,2025.2.4,2026-02-25 11h51.24.376087 +0100,
tilted.xlsx,The target is tilted.,117,48,0,6,0,1,1,1,1,1,1,1,1,1,1,1,1,11,12,117,space,7.7882311999997,None,0,1,2.6354338999999527,None,space,1.9660116000000016,None,0,0,0,0,,,,,6,0,48,4,180.1817014000003,,,,,,,,,,,,,,,,,,,,,180.16615320000028,180.1817014000003,180.66515500000014,180.67058309999993,180.69074619999992,183.33171040000025,,,,,183.3319150000002,183.34678050000002,183.54732200000035,183.53125120000004,180.69074619999992,,,,,,,,0,1,2.6354338999999527,None,,,,,,,,857,22,M,R,2026-02-25_11h51.24.037,VisualSearch_2526_3,,2025.2.4,2026-02-25 11h51.24.376087 +0100,
tilted.xlsx,The target is tilted.,117,49,1,6,0,0,0,0,0,0,0,0,0,0,0,0,1,1,1,117,space,7.7882311999997,None,0,1,0.6751991000000999,None,space,1.9660116000000016,None,0,0,0,0,,,,,6,1,49,7,183.54732200000035,,,,,,,,,,,,,,,,,,,,,183.5320670000001,183.54732200000035,184.0312600000002,184.03677659999994,184.0588305000001,184.74695199999996,,,,,184.7470771000003,184.76291040000024,,184.9474270999999,184.0588305000001,,,,,,,,0,1,0.6751991000000999,None,,,,,,,,857,22,M,R,2026-02-25_11h51.24.037,VisualSearch_2526_3,,2025.2.4,2026-02-25 11h51.24.376087 +0100,
tilted.xlsx,The target is tilted.,117,50,2,6,1,0,0,0,0,0,0,0,0,0,0,0,0,0,1,117,space,7.7882311999997,None,1,1,0.5366994999999406,None,space,1.9660116000000016,None,0,0,0,0,,,,,6,2,50,3,184.96352240000033,,,,,,,,,,,,,,,,,,,,,184.94835730000023,184.96352240000033,185.44732569999996,185.45281410000007,185.47439160000022,186.01433210000005,,,,,186.014541,186.02929170000016,186.2298141000001,186.2137362000003,185.47439160000022,,,,,,,,1,1,0.5366994999999406,None,,,,,,,,857,22,M,R,2026-02-25_11h51.24.037,VisualSearch_2526_3,,2025.2.4,2026-02-25 11h51.24.376087 +0100,
tilted.xlsx,The target is tilted.,117,51,3,6,1,1,1,1,1,1,1,1,0,0,0,0,0,7,8,117,space,7.7882311999997,None,1,1,0.7159237999999277,None,space,1.9660116000000016,None,0,0,0,0,,,,,6,3,51,1,186.2298141000001,,,,,,,,,,,,,,,,,,,,,186.21455950000018,186.2298141000001,186.7132789000002,186.71866990000035,186.73971560000018,187.46401229999992,,,,,187.46423920000007,187.47893330000034,187.6789329000003,187.66324720000011,186.73971560000018,,,,,,,,1,1,0.7159237999999277,None,,,,,,,,857,22,M,R,2026-02-25_11h51.24.037,VisualSearch_2526_3,,2025.2.4,2026-02-25 11h51.24.376087 +0100,
tilted.xlsx,The target is tilted.,117,52,4,6,0,1,1,1,0,0,0,0,0,0,0,0,1,3,4,117,space,7.7882311999997,None,0,1,0.8991158000003452,None,space,1.9660116000000016,None,0,0,0,0,,,,,6,4,52,6,187.6789329000003,,,,,,,,,,,,,,,,,,,,,187.66410050000013,187.6789329000003,188.1631784000001,188.1685766999999,188.18654570000035,189.0966609000002,,,,,189.09689640000033,189.1117105000003,189.31183220000003,189.29591280000022,188.18654570000035,,,,,,,,0,1,0.8991158000003452,None,,,,,,,,857,22,M,R,2026-02-25_11h51.24.037,VisualSearch_2526_3,,2025.2.4,2026-02-25 11h51.24.376087 +0100,
tilted.xlsx,The target is tilted.,117,53,5,6,0,1,1,1,1,1,1,1,0,0,0,0,1,7,8,117,space,7.7882311999997,None,0,1,2.44830759999968,None,space,1.9660116000000016,None,0,0,0,0,,,,,6,5,53,5,189.31183220000003,,,,,,,,,,,,,,,,,,,,,189.2967934000003,189.31183220000003,189.79588740000008,189.80061130000013,189.81173430000035,192.26192790000005,,,,,192.2621226000001,192.27729480000016,192.4777954000001,192.46176370000012,189.81173430000035,,,,,,,,0,1,2.44830759999968,None,,,,,,,,857,22,M,R,2026-02-25_11h51.24.037,VisualSearch_2526_3,,2025.2.4,2026-02-25 11h51.24.376087 +0100,
tilted.xlsx,The target is tilted.,117,54,6,6,1,1,1,1,0,0,0,0,0,0,0,0,0,3,4,117,space,7.7882311999997,None,1,1,0.6481375000003027,None,space,1.9660116000000016,None,0,0,0,0,,,,,6,6,54,2,192.4777954000001,,,,,,,,,,,,,,,,,,,,,192.4625685000001,192.4777954000001,192.96116960000018,192.96516800000018,192.97740550000026,193.6287408000003,,,,,193.62898620000033,193.64360420000003,193.84393390000014,193.8277367999999,192.97740550000026,,,,,,,,1,1,0.6481375000003027,None,,,,,,,,857,22,M,R,2026-02-25_11h51.24.037,VisualSearch_2526_3,,2025.2.4,2026-02-25 11h51.24.376087 +0100,
tilted.xlsx,The target is tilted.,117,55,7,6,1,1,1,1,1,1,1,1,1,1,1,1,0,11,12,117,space,7.7882311999997,None,1,1,2.120626899999934,None,space,1.9660116000000016,None,0,0,0,0,,,,,6,7,55,0,193.84393390000014,,,,,,,,,,,,,,,,,,,,,193.82858810000016,193.84393390000014,194.3277409000002,194.3331561,194.353967,196.4774494000003,,,,,196.47767900000008,196.49267839999993,196.69307320000007,196.67688709999993,194.353967,,,,,,,,1,1,2.120626899999934,None,,,,,,,,857,22,M,R,2026-02-25_11h51.24.037,VisualSearch_2526_3,,2025.2.4,2026-02-25 11h51.24.376087 +0100,
tilted.xlsx,The target is tilted.,117,56,0,7,0,1,1,1,1,1,1,1,1,1,1,1,1,11,12,117,space,7.7882311999997,None,0,1,3.7975798000002214,None,space,1.9660116000000016,None,0,0,0,0,,,,,7,0,56,4,196.69307320000007,,,,,,,,,,,,,,,,,,,,,196.67773380000017,196.69307320000007,197.17676269999993,197.182057,197.20363750000024,201.00966580000022,,,,,201.00989690000006,201.02443200000016,201.22454130000006,201.20883649999996,197.20363750000024,,,,,,,,0,1,3.7975798000002214,None,,,,,,,,857,22,M,R,2026-02-25_11h51.24.037,VisualSearch_2526_3,,2025.2.4,2026-02-25 11h51.24.376087 +0100,
tilted.xlsx,The target is tilted.,117,57,1,7,0,0,0,0,0,0,0,0,0,0,0,0,1,1,1,117,space,7.7882311999997,None,0,1,0.6378411999999116,None,space,1.9660116000000016,None,0,0,0,0,,,,,7,1,57,7,201.22454130000006,,,,,,,,,,,,,,,,,,,,,201.20964490000006,201.22454130000006,201.7083176000001,201.7137772000001,201.73526500000025,202.37544180000032,,,,,202.37565380000024,202.3904437000001,202.5911175000001,202.57508640000015,201.73526500000025,,,,,,,,0,1,0.6378411999999116,None,,,,,,,,857,22,M,R,2026-02-25_11h51.24.037,VisualSearch_2526_3,,2025.2.4,2026-02-25 11h51.24.376087 +0100,
tilted.xlsx,The target is tilted.,117,58,2,7,0,1,1,1,1,1,1,1,0,0,0,0,1,7,8,117,space,7.7882311999997,None,0,1,2.7682079999999587,None,space,1.9660116000000016,None,0,0,0,0,,,,,7,2,58,5,202.5911175000001,,,,,,,,,,,,,,,,,,,,,202.57589340000004,202.5911175000001,203.07495280000012,203.0805647000002,203.1024735000001,205.8744816000003,,,,,205.8747311000002,205.88931649999995,206.08996750000006,206.07393840000032,203.1024735000001,,,,,,,,0,1,2.7682079999999587,None,,,,,,,,857,22,M,R,2026-02-25_11h51.24.037,VisualSearch_2526_3,,2025.2.4,2026-02-25 11h51.24.376087 +0100,
tilted.xlsx,The target is tilted.,117,59,3,7,1,1,1,1,0,0,0,0,0,0,0,0,0,3,4,117,space,7.7882311999997,None,1,1,0.5819464000001062,None,space,1.9660116000000016,None,0,0,0,0,,,,,7,3,59,2,206.08996750000006,,,,,,,,,,,,,,,,,,,,,206.07474410000032,206.08996750000006,206.57379119999996,206.5791653000001,206.59985860000006,207.19067859999996,,,,,207.1908757000001,207.20572149999998,207.40584400000034,207.38979150000023,206.59985860000006,,,,,,,,1,1,0.5819464000001062,None,,,,,,,,857,22,M,R,2026-02-25_11h51.24.037,VisualSearch_2526_3,,2025.2.4,2026-02-25 11h51.24.376087 +0100,
tilted.xlsx,The target is tilted.,117,60,4,7,1,1,1,1,1,1,1,1,1,1,1,1,0,11,12,117,space,7.7882311999997,None,0,0,1.9965047999999115,None,space,1.9660116000000016,None,0,0,0,0,,,,,7,4,60,0,207.40584400000034,,,,,,,,,,,,,,,,,,,,,207.39061850000007,207.40584400000034,207.8898806000002,207.89521920000016,207.9168020000002,209.92291449999993,,,,,209.92313850000028,209.93822950000003,210.13864779999994,210.12263570000005,207.9168020000002,,,,,,,,0,0,1.9965047999999115,None,,,,,,,,857,22,M,R,2026-02-25_11h51.24.037,VisualSearch_2526_3,,2025.2.4,2026-02-25 11h51.24.376087 +0100,
tilted.xlsx,The target is tilted.,117,61,5,7,1,1,1,1,1,1,1,1,0,0,0,0,0,7,8,117,space,7.7882311999997,None,0,0,2.1783981999997195,None,space,1.9660116000000016,None,0,0,0,0,,,,,7,5,61,1,210.13864779999994,,,,,,,,,,,,,,,,,,,,,210.12346990000015,210.13864779999994,210.62251360000027,210.62793370000009,210.64945460000035,212.83903240000018,,,,,212.8392785000001,212.8539684000002,213.0543689000001,213.03821349999998,210.64945460000035,,,,,,,,0,0,2.1783981999997195,None,,,,,,,,857,22,M,R,2026-02-25_11h51.24.037,VisualSearch_2526_3,,2025.2.4,2026-02-25 11h51.24.376087 +0100,
tilted.xlsx,The target is tilted.,117,62,6,7,0,1,1,1,0,0,0,0,0,0,0,0,1,3,4,117,space,7.7882311999997,None,0,1,0.6623445999998694,None,space,1.9660116000000016,None,0,0,0,0,,,,,7,6,62,6,213.0543689000001,,,,,,,,,,,,,,,,,,,,,213.03913910000028,213.0543689000001,213.53814910000028,213.54364410000017,213.56528830000025,214.23827819999997,,,,,214.23849880000034,214.25352509999993,214.45354440000028,214.43788330000007,213.56528830000025,,,,,,,,0,1,0.6623445999998694,None,,,,,,,,857,22,M,R,2026-02-25_11h51.24.037,VisualSearch_2526_3,,2025.2.4,2026-02-25 11h51.24.376087 +0100,
tilted.xlsx,The target is tilted.,117,63,7,7,1,0,0,0,0,0,0,0,0,0,0,0,0,0,1,117,space,7.7882311999997,None,1,1,0.6255258999999569,None,space,1.9660116000000016,None,0,0,0,0,,,,,7,7,63,3,214.45354440000028,,,,,,,,,,,,,,,,,,,,,214.4386856000001,214.45354440000028,214.93733310000016,214.9408059000002,214.95518820000007,215.58822970000028,,,,,215.5884535,215.60276449999992,215.8032705999999,215.7873915,214.95518820000007,,,,,,,,1,1,0.6255258999999569,None,,,,,,,,857,22,M,R,2026-02-25_11h51.24.037,VisualSearch_2526_3,,2025.2.4,2026-02-25 11h51.24.376087 +0100,
tilted.xlsx,The target is tilted.,117,64,0,8,0,0,0,0,0,0,0,0,0,0,0,0,1,1,1,117,space,7.7882311999997,None,0,1,0.5577369000002363,None,space,1.9660116000000016,None,0,0,0,0,,,,,8,0,64,7,215.8032705999999,,,,,,,,,,,,,,,,,,,,,215.7882136000003,215.8032705999999,216.28726069999993,216.29264610000018,216.31443350000018,216.88717369999995,,,,,216.88739650000025,216.9025657000002,217.10300910000024,217.08663800000022,216.31443350000018,,,,,,,,0,1,0.5577369000002363,None,,,,,,,,857,22,M,R,2026-02-25_11h51.24.037,VisualSearch_2526_3,,2025.2.4,2026-02-25 11h51.24.376087 +0100,
tilted.xlsx,The target is tilted.,117,65,1,8,1,1,1,1,1,1,1,1,0,0,0,0,0,7,8,117,space,7.7882311999997,None,0,0,2.239987800000108,None,space,1.9660116000000016,None,0,0,0,0,,,,,8,1,65,1,217.10300910000024,,,,,,,,,,,,,,,,,,,,,217.08756930000027,217.10300910000024,217.5867991,217.5922069000003,217.61291819999997,219.87037770000006,,,,,219.8705491999999,219.88574259999996,220.0849516000003,220.06854280000016,217.61291819999997,,,,,,,,0,0,2.239987800000108,None,,,,,,,,857,22,M,R,2026-02-25_11h51.24.037,VisualSearch_2526_3,,2025.2.4,2026-02-25 11h51.24.376087 +0100,
tilted.xlsx,The target is tilted.,117,66,2,8,0,1,1,1,1,1,1,1,1,1,1,1,1,11,12,117,space,7.7882311999997,None,0,1,2.2199180999996315,None,space,1.9660116000000016,None,0,0,0,0,,,,,8,2,66,4,220.0849516000003,,,,,,,,,,,,,,,,,,,,,220.06891720000021,220.0849516000003,220.5692899999999,220.57468470000003,220.59592040000007,222.81903779999993,,,,,222.81929059999993,222.83411879999994,223.03449850000015,223.01840540000012,220.59592040000007,,,,,,,,0,1,2.2199180999996315,None,,,,,,,,857,22,M,R,2026-02-25_11h51.24.037,VisualSearch_2526_3,,2025.2.4,2026-02-25 11h51.24.376087 +0100,
tilted.xlsx,The target is tilted.,117,67,3,8,0,1,1,1,1,1,1,1,0,0,0,0,1,7,8,117,space,7.7882311999997,None,0,1,1.8170915000000605,None,space,1.9660116000000016,None,0,0,0,0,,,,,8,3,67,5,223.03449850000015,,,,,,,,,,,,,,,,,,,,,223.01925280000023,223.03449850000015,223.51825740000004,223.5236804000001,223.54506130000027,225.3681220000003,,,,,225.36838269999998,225.38322620000008,225.58358679999992,225.567501,223.54506130000027,,,,,,,,0,1,1.8170915000000605,None,,,,,,,,857,22,M,R,2026-02-25_11h51.24.037,VisualSearch_2526_3,,2025.2.4,2026-02-25 11h51.24.376087 +0100,
tilted.xlsx,The target is tilted.,117,68,4,8,1,1,1,1,1,1,1,1,1,1,1,1,0,11,12,117,space,7.7882311999997,None,1,1,1.5346402999998645,None,space,1.9660116000000016,None,0,0,0,0,,,,,8,4,68,0,225.58358679999992,,,,,,,,,,,,,,,,,,,,,225.56831869999996,225.58358679999992,226.06738739999992,226.07280330000003,226.09297490000017,227.6344211999999,,,,,227.63466130000006,227.64888610000025,227.84960950000004,227.8335503000003,226.09297490000017,,,,,,,,1,1,1.5346402999998645,None,,,,,,,,857,22,M,R,2026-02-25_11h51.24.037,VisualSearch_2526_3,,2025.2.4,2026-02-25 11h51.24.376087 +0100,
tilted.xlsx,The target is tilted.,117,69,5,8,1,0,0,0,0,0,0,0,0,0,0,0,0,0,1,117,space,7.7882311999997,None,1,1,0.5312074000003122,None,space,1.9660116000000016,None,0,0,0,0,,,,,8,5,69,3,227.84960950000004,,,,,,,,,,,,,,,,,,,,,227.83436810000012,227.84960950000004,228.3333845000002,228.33880990000034,228.3609392000003,228.90014830000018,,,,,228.90036400000008,228.91512289999991,229.11571189999995,229.09980339999993,228.3609392000003,,,,,,,,1,1,0.5312074000003122,None,,,,,,,,857,22,M,R,2026-02-25_11h51.24.037,VisualSearch_2526_3,,2025.2.4,2026-02-25 11h51.24.376087 +0100,
tilted.xlsx,The target is tilted.,117,70,6,8,1,1,1,1,0,0,0,0,0,0,0,0,0,3,4,117,space,7.7882311999997,None,1,1,0.5742341999998644,None,space,1.9660116000000016,None,0,0,0,0,,,,,8,6,70,2,229.11571189999995,,,,,,,,,,,,,,,,,,,,,229.1006486000001,229.11571189999995,229.59975470000018,229.60515639999994,229.62670079999998,230.2162946000003,,,,,230.21651569999995,230.2315523000002,230.43214269999999,230.4159870000003,229.62670079999998,,,,,,,,1,1,0.5742341999998644,None,,,,,,,,857,22,M,R,2026-02-25_11h51.24.037,VisualSearch_2526_3,,2025.2.4,2026-02-25 11h51.24.376087 +0100,
tilted.xlsx,The target is tilted.,117,71,7,8,0,1,1,1,0,0,0,0,0,0,0,0,1,3,4,117,space,7.7882311999997,None,0,1,0.9023196999996799,None,space,1.9660116000000016,None,0,0,0,0,,,,,8,7,71,6,230.43214269999999,,,,,,,,,,,,,,,,,,,,,230.41678219999994,230.43214269999999,230.91583330000003,230.9211521000002,230.94159160000027,231.84943500000008,,,,,231.8496954000002,231.86443290000034,232.06450930000028,232.04843210000035,230.94159160000027,,,,,,,,0,1,0.9023196999996799,None,,,,,,,,857,22,M,R,2026-02-25_11h51.24.037,VisualSearch_2526_3,,2025.2.4,2026-02-25 11h51.24.376087 +0100,
tilted.xlsx,The target is tilted.,117,72,0,9,1,1,1,1,1,1,1,1,0,0,0,0,0,7,8,117,space,7.7882311999997,None,1,1,2.7678780999999617,None,space,1.9660116000000016,None,0,0,0,0,,,,,9,0,72,1,232.06450930000028,,,,,,,,,,,,,,,,,,,,,232.04925520000006,232.06450930000028,232.54874070000005,232.5540586000002,232.5745810000003,235.34826920000023,,,,,235.3485069000003,235.3633479,235.56362510000008,235.54730500000005,232.5745810000003,,,,,,,,1,1,2.7678780999999617,None,,,,,,,,857,22,M,R,2026-02-25_11h51.24.037,VisualSearch_2526_3,,2025.2.4,2026-02-25 11h51.24.376087 +0100,
tilted.xlsx,The target is tilted.,117,73,1,9,0,1,1,1,0,0,0,0,0,0,0,0,1,3,4,117,space,7.7882311999997,None,0,1,1.7024091999996926,None,space,1.9660116000000016,None,0,0,0,0,,,,,9,1,73,6,235.56362510000008,,,,,,,,,,,,,,,,,,,,,235.54812840000022,235.56362510000008,236.04749660000016,236.05297880000035,236.07444030000033,237.78115100000014,,,,,237.78138900000022,237.79581610000014,237.99620060000007,237.98016580000012,236.07444030000033,,,,,,,,0,1,1.7024091999996926,None,,,,,,,,857,22,M,R,2026-02-25_11h51.24.037,VisualSearch_2526_3,,2025.2.4,2026-02-25 11h51.24.376087 +0100,
tilted.xlsx,The target is tilted.,117,74,2,9,1,1,1,1,0,0,0,0,0,0,0,0,0,3,4,117,space,7.7882311999997,None,1,1,1.6503293000000667,None,space,1.9660116000000016,None,0,0,0,0,,,,,9,2,74,2,237.99620060000007,,,,,,,,,,,,,,,,,,,,,237.98098580000033,237.99620060000007,238.48017560000017,238.48549140000023,238.5041295000001,240.16344350000008,,,,,240.16370000000006,240.17812090000007,240.37876340000003,240.3626921,238.5041295000001,,,,,,,,1,1,1.6503293000000667,None,,,,,,,,857,22,M,R,2026-02-25_11h51.24.037,VisualSearch_2526_3,,2025.2.4,2026-02-25 11h51.24.376087 +0100,
tilted.xlsx,The target is tilted.,117,75,3,9,0,1,1,1,1,1,1,1,1,1,1,1,1,11,12,117,space,7.7882311999997,None,0,1,2.8178233000003274,None,space,1.9660116000000016,None,0,0,0,0,,,,,9,3,75,4,240.37876340000003,,,,,,,,,,,,,,,,,,,,,240.36352579999993,240.37876340000003,240.86204150000003,240.8666771000003,240.88571020000018,243.71194120000018,,,,,243.7121357000001,243.72718720000012,243.92741139999998,243.91144609999992,240.88571020000018,,,,,,,,0,1,2.8178233000003274,None,,,,,,,,857,22,M,R,2026-02-25_11h51.24.037,VisualSearch_2526_3,,2025.2.4,2026-02-25 11h51.24.376087 +0100,
tilted.xlsx,The target is tilted.,117,76,4,9,0,1,1,1,1,1,1,1,0,0,0,0,1,7,8,117,space,7.7882311999997,None,0,1,1.6095743000000766,None,space,1.9660116000000016,None,0,0,0,0,,,,,9,4,76,5,243.92741139999998,,,,,,,,,,,,,,,,,,,,,243.91233770000008,243.92741139999998,244.41148340000018,244.4169608000002,244.43407200000001,246.06010860000015,,,,,246.06022819999998,246.07670480000024,,246.2606168000002,244.43407200000001,,,,,,,,0,1,1.6095743000000766,None,,,,,,,,857,22,M,R,2026-02-25_11h51.24.037,VisualSearch_2526_3,,2025.2.4,2026-02-25 11h51.24.376087 +0100,
tilted.xlsx,The target is tilted.,117,77,5,9,1,1,1,1,1,1,1,1,1,1,1,1,0,11,12,117,space,7.7882311999997,None,1,1,1.2654821999999513,None,space,1.9660116000000016,None,0,0,0,0,,,,,9,5,77,0,246.27684309999995,,,,,,,,,,,,,,,,,,,,,246.26152420000017,246.27684309999995,246.76058630000034,246.76600290000033,246.78784780000024,248.06090010000025,,,,,248.06113210000012,248.0758796,248.27584049999996,248.2600755000003,246.78784780000024,,,,,,,,1,1,1.2654821999999513,None,,,,,,,,857,22,M,R,2026-02-25_11h51.24.037,VisualSearch_2526_3,,2025.2.4,2026-02-25 11h51.24.376087 +0100,
tilted.xlsx,The target is tilted.,117,78,6,9,0,0,0,0,0,0,0,0,0,0,0,0,1,1,1,117,space,7.7882311999997,None,0,1,0.5696201999999175,None,space,1.9660116000000016,None,0,0,0,0,,,,,9,6,78,7,248.27584049999996,,,,,,,,,,,,,,,,,,,,,248.26092010000002,248.27584049999996,248.76006929999994,248.76539860000003,248.7825154000002,249.36046810000016,,,,,249.36071260000017,249.37513639999997,249.57565790000035,249.55975020000005,248.7825154000002,,,,,,,,0,1,0.5696201999999175,None,,,,,,,,857,22,M,R,2026-02-25_11h51.24.037,VisualSearch_2526_3,,2025.2.4,2026-02-25 11h51.24.376087 +0100,
tilted.xlsx,The target is tilted.,117,79,7,9,1,0,0,0,0,0,0,0,0,0,0,0,0,0,1,117,space,7.7882311999997,None,1,1,0.5032661000000189,None,space,1.9660116000000016,None,0,0,0,0,,,,,9,7,79,3,249.57565790000035,,,,,,,,,,,,,,,,,,,,,249.56061120000004,249.57565790000035,250.05959500000017,250.06498839999995,250.08260390000032,250.59340800000018,,,,,250.59364090000008,250.60834520000026,250.80878100000018,250.7927823,250.08260390000032,,,,,,,,1,1,0.5032661000000189,None,,,,,,,,857,22,M,R,2026-02-25_11h51.24.037,VisualSearch_2526_3,,2025.2.4,2026-02-25 11h51.24.376087 +0100,
tilted.xlsx,The target is tilted.,117,80,0,10,1,1,1,1,1,1,1,1,0,0,0,0,0,7,8,117,space,7.7882311999997,None,1,1,0.9897408000001633,None,space,1.9660116000000016,None,0,0,0,0,,,,,10,0,80,1,250.80878100000018,,,,,,,,,,,,,,,,,,,,,250.79362100000026,250.80878100000018,251.29249100000015,251.2977748000003,251.31983800000035,252.32566339999994,,,,,252.32588060000035,252.3411140000003,252.5414436000001,252.5251720000001,251.31983800000035,,,,,,,,1,1,0.9897408000001633,None,,,,,,,,857,22,M,R,2026-02-25_11h51.24.037,VisualSearch_2526_3,,2025.2.4,2026-02-25 11h51.24.376087 +0100,
tilted.xlsx,The target is tilted.,117,81,1,10,1,1,1,1,0,0,0,0,0,0,0,0,0,3,4,117,space,7.7882311999997,None,1,1,0.9894205000000511,None,space,1.9660116000000016,None,0,0,0,0,,,,,10,1,81,2,252.5414436000001,,,,,,,,,,,,,,,,,,,,,252.52603630000021,252.5414436000001,253.0249600000002,253.0303570000001,253.05147579999993,254.04242120000026,,,,,254.0426364,254.05721979999998,254.2576325,254.24161010000034,253.05147579999993,,,,,,,,1,1,0.9894205000000511,None,,,,,,,,857,22,M,R,2026-02-25_11h51.24.037,VisualSearch_2526_3,,2025.2.4,2026-02-25 11h51.24.376087 +0100,
tilted.xlsx,The target is tilted.,117,82,2,10,1,0,0,0,0,0,0,0,0,0,0,0,0,0,1,117,space,7.7882311999997,None,1,1,0.5017379000000801,None,space,1.9660116000000016,None,0,0,0,0,,,,,10,2,82,3,254.2576325,,,,,,,,,,,,,,,,,,,,,254.24241819999997,254.2576325,254.7405358000001,254.74326070000006,254.7568157999999,255.27459339999996,,,,,255.27478960000008,255.29005529999995,255.4905450000001,255.47454310000012,254.7568157999999,,,,,,,,1,1,0.5017379000000801,None,,,,,,,,857,22,M,R,2026-02-25_11h51.24.037,VisualSearch_2526_3,,2025.2.4,2026-02-25 11h51.24.376087 +0100,
tilted.xlsx,The target is tilted.,117,83,3,10,0,1,1,1,1,1,1,1,1,1,1,1,1,11,12,117,space,7.7882311999997,None,0,1,3.095079199999873,None,space,1.9660116000000016,None,0,0,0,0,,,,,10,3,83,4,255.4905450000001,,,,,,,,,,,,,,,,,,,,,255.47535740000012,255.4905450000001,255.97344220000014,255.97648200000003,255.98982100000012,259.0902575,,,,,259.0904587,259.10596239999995,259.3060117,259.28999569999996,255.98982100000012,,,,,,,,0,1,3.095079199999873,None,,,,,,,,857,22,M,R,2026-02-25_11h51.24.037,VisualSearch_2526_3,,2025.2.4,2026-02-25 11h51.24.376087 +0100,
tilted.xlsx,The target is tilted.,117,84,4,10,0,1,1,1,1,1,1,1,0,0,0,0,1,7,8,117,space,7.7882311999997,None,0,1,2.260403199999928,None,space,1.9660116000000016,None,0,0,0,0,,,,,10,4,84,5,259.3060117,,,,,,,,,,,,,,,,,,,,,259.2907960000002,259.3060117,259.7893974000003,259.79469990000007,259.81797159999996,262.08976600000005,,,,,262.08998580000025,262.1047149000001,262.30465790000017,262.28864440000007,259.81797159999996,,,,,,,,0,1,2.260403199999928,None,,,,,,,,857,22,M,R,2026-02-25_11h51.24.037,VisualSearch_2526_3,,2025.2.4,2026-02-25 11h51.24.376087 +0100,
tilted.xlsx,The target is tilted.,117,85,5,10,0,1,1,1,0,0,0,0,0,0,0,0,1,3,4,117,space,7.7882311999997,None,0,1,1.1279159999999138,None,space,1.9660116000000016,None,0,0,0,0,,,,,10,5,85,6,262.30465790000017,,,,,,,,,,,,,,,,,,,,,262.28947900000003,262.30465790000017,262.7888404,262.7942573,262.8155572999999,263.9553966000003,,,,,263.95562070000005,263.9711731000002,264.1710625999999,264.1549954000002,262.8155572999999,,,,,,,,0,1,1.1279159999999138,None,,,,,,,,857,22,M,R,2026-02-25_11h51.24.037,VisualSearch_2526_3,,2025.2.4,2026-02-25 11h51.24.376087 +0100,
tilted.xlsx,The target is tilted.,117,86,6,10,1,1,1,1,1,1,1,1,1,1,1,1,0,11,12,117,space,7.7882311999997,None,1,1,0.7230869999998504,None,space,1.9660116000000016,None,0,0,0,0,,,,,10,6,86,0,264.1710625999999,,,,,,,,,,,,,,,,,,,,,264.15582010000026,264.1710625999999,264.6548422000001,264.6600602000003,264.6807369000003,265.42059930000005,,,,,265.4206975000002,265.43651249999994,265.63656820000006,265.6201863000001,264.6807369000003,,,,,,,,1,1,0.7230869999998504,None,,,,,,,,857,22,M,R,2026-02-25_11h51.24.037,VisualSearch_2526_3,,2025.2.4,2026-02-25 11h51.24.376087 +0100,
tilted.xlsx,The target is tilted.,117,87,7,10,0,0,0,0,0,0,0,0,0,0,0,0,1,1,1,117,space,7.7882311999997,None,0,1,0.930392799999936,None,space,1.9660116000000016,None,0,0,0,0,,,,,10,7,87,7,265.63656820000006,,,,,,,,,,,,,,,,,,,,,265.62065140000004,265.63656820000006,266.1199861,266.12270860000035,266.13639250000006,267.07110409999996,,,,,267.07132100000035,267.08643200000006,267.28651630000013,267.2707598000002,266.13639250000006,,,,,,,,0,1,0.930392799999936,None,,,,,,,,857,22,M,R,2026-02-25_11h51.24.037,VisualSearch_2526_3,,2025.2.4,2026-02-25 11h51.24.376087 +0100,
tilted.xlsx,The target is tilted.,117,88,0,11,0,1,1,1,1,1,1,1,1,1,1,1,1,11,12,117,space,7.7882311999997,None,0,1,3.5601394999998774,None,space,1.9660116000000016,None,0,0,0,0,,,,,11,0,88,4,267.28651630000013,,,,,,,,,,,,,,,,,,,,,267.2717239000003,267.28651630000013,267.77064999999993,267.77596600000015,267.7974803000002,271.37011200000006,,,,,271.3703553,271.3853312000001,271.58531919999996,271.56929990000026,267.7974803000002,,,,,,,,0,1,3.5601394999998774,None,,,,,,,,857,22,M,R,2026-02-25_11h51.24.037,VisualSearch_2526_3,,2025.2.4,2026-02-25 11h51.24.376087 +0100,
tilted.xlsx,The target is tilted.,117,89,1,11,1,0,0,0,0,0,0,0,0,0,0,0,0,0,1,117,space,7.7882311999997,None,1,1,0.5332554000001437,None,space,1.9660116000000016,None,0,0,0,0,,,,,11,1,89,3,271.58531919999996,,,,,,,,,,,,,,,,,,,,,271.57021220000024,271.58531919999996,272.0687833000002,272.0740181000001,272.09497950000014,272.6353919000003,,,,,272.63553500000035,272.65097430000014,272.8509296000002,272.8345911000001,272.09497950000014,,,,,,,,1,1,0.5332554000001437,None,,,,,,,,857,22,M,R,2026-02-25_11h51.24.037,VisualSearch_2526_3,,2025.2.4,2026-02-25 11h51.24.376087 +0100,
tilted.xlsx,The target is tilted.,117,90,2,11,1,1,1,1,1,1,1,1,1,1,1,1,0,11,12,117,space,7.7882311999997,None,1,1,1.1694334999997409,None,space,1.9660116000000016,None,0,0,0,0,,,,,11,2,90,0,272.8509296000002,,,,,,,,,,,,,,,,,,,,,272.8350648999999,272.8509296000002,273.33469490000016,273.33814580000035,273.3523702000002,274.5347584000001,,,,,274.5348785000001,274.5503521999999,274.75029459999996,274.7339317000001,273.3523702000002,,,,,,,,1,1,1.1694334999997409,None,,,,,,,,857,22,M,R,2026-02-25_11h51.24.037,VisualSearch_2526_3,,2025.2.4,2026-02-25 11h51.24.376087 +0100,
tilted.xlsx,The target is tilted.,117,91,3,11,0,0,0,0,0,0,0,0,0,0,0,0,1,1,1,117,space,7.7882311999997,None,0,1,0.612801500000387,None,space,1.9660116000000016,None,0,0,0,0,,,,,11,3,91,7,274.75029459999996,,,,,,,,,,,,,,,,,,,,,274.7344069999999,274.75029459999996,275.23477189999994,275.2400791,275.26145350000024,275.8839820000003,,,,,275.88410810000005,275.8997988000001,276.1000530000001,276.0834224,275.26145350000024,,,,,,,,0,1,0.612801500000387,None,,,,,,,,857,22,M,R,2026-02-25_11h51.24.037,VisualSearch_2526_3,,2025.2.4,2026-02-25 11h51.24.376087 +0100,
tilted.xlsx,The target is tilted.,117,92,4,11,1,1,1,1,1,1,1,1,0,0,0,0,0,7,8,117,space,7.7882311999997,None,1,1,1.1523941999998897,None,space,1.9660116000000016,None,0,0,0,0,,,,,11,4,92,1,276.1000530000001,,,,,,,,,,,,,,,,,,,,,276.08387429999993,276.1000530000001,276.5834689000003,276.58618860000024,276.5999981,277.76768440000023,,,,,277.7678794000003,277.78318750000017,277.98323830000027,277.9671661000002,276.5999981,,,,,,,,1,1,1.1523941999998897,None,,,,,,,,857,22,M,R,2026-02-25_11h51.24.037,VisualSearch_2526_3,,2025.2.4,2026-02-25 11h51.24.376087 +0100,
tilted.xlsx,The target is tilted.,117,93,5,11,0,1,1,1,0,0,0,0,0,0,0,0,1,3,4,117,space,7.7882311999997,None,0,1,0.8115429999998014,None,space,1.9660116000000016,None,0,0,0,0,,,,,11,5,93,6,277.98323830000027,,,,,,,,,,,,,,,,,,,,,277.96798620000027,277.98323830000027,278.46702400000004,278.4724116000002,278.4929010999999,279.31725570000026,,,,,279.3174935000002,279.33262170000035,279.53285380000034,279.51660100000026,278.4929010999999,,,,,,,,0,1,0.8115429999998014,None,,,,,,,,857,22,M,R,2026-02-25_11h51.24.037,VisualSearch_2526_3,,2025.2.4,2026-02-25 11h51.24.376087 +0100,
tilted.xlsx,The target is tilted.,117,94,6,11,1,1,1,1,0,0,0,0,0,0,0,0,0,3,4,117,space,7.7882311999997,None,0,0,0.7232923000001392,None,space,1.9660116000000016,None,0,0,0,0,,,,,11,6,94,2,279.53285380000034,,,,,,,,,,,,,,,,,,,,,279.51749100000006,279.53285380000034,280.01650599999994,280.0213607999999,280.0324587,280.7668281000001,,,,,280.76707320000014,280.7822175000001,280.98230250000006,280.96586160000015,280.0324587,,,,,,,,0,0,0.7232923000001392,None,,,,,,,,857,22,M,R,2026-02-25_11h51.24.037,VisualSearch_2526_3,,2025.2.4,2026-02-25 11h51.24.376087 +0100,
tilted.xlsx,The target is tilted.,117,95,7,11,0,1,1,1,1,1,1,1,0,0,0,0,1,7,8,117,space,7.7882311999997,None,0,1,1.9317667999998775,None,space,1.9660116000000016,None,0,0,0,0,,,,,11,7,95,5,280.98230250000006,,,,,,,,,,,,,,,,,,,,,280.9666199000003,280.98230250000006,281.4658420999999,281.4712711000002,281.4920625,283.4326781,,,,,283.4329481,283.44802800000025,283.6481146000001,283.63195650000034,281.4920625,,,,,,,,0,1,1.9317667999998775,None,,,,,,,,857,22,M,R,2026-02-25_11h51.24.037,VisualSearch_2526_3,,2025.2.4,2026-02-25 11h51.24.376087 +0100,
tilted.xlsx,The target is tilted.,117,96,0,12,0,1,1,1,0,0,0,0,0,0,0,0,1,3,4,117,space,7.7882311999997,None,0,1,1.1577360000001136,None,space,1.9660116000000016,None,0,0,0,0,,,,,12,0,96,6,283.6481146000001,,,,,,,,,,,,,,,,,,,,,283.63279809999995,283.6481146000001,284.13096600000017,284.1335260999999,284.14766320000035,285.31434100000024,,,,,285.3144671,285.33013470000014,,285.5154520000001,284.14766320000035,,,,,,,,0,1,1.1577360000001136,None,,,,,,,,857,22,M,R,2026-02-25_11h51.24.037,VisualSearch_2526_3,,2025.2.4,2026-02-25 11h51.24.376087 +0100,
tilted.xlsx,The target is tilted.,117,97,1,12,1,1,1,1,0,0,0,0,0,0,0,0,0,3,4,117,space,7.7882311999997,None,1,1,1.173646600000211,None,space,1.9660116000000016,None,0,0,0,0,,,,,12,1,97,2,285.5300376,,,,,,,,,,,,,,,,,,,,,285.5161450999999,285.5300376,286.0135709000001,286.01631240000006,286.03000770000017,287.2131757000002,,,,,287.21329319999995,287.22955530000036,287.4298670000003,287.41328710000016,286.03000770000017,,,,,,,,1,1,1.173646600000211,None,,,,,,,,857,22,M,R,2026-02-25_11h51.24.037,VisualSearch_2526_3,,2025.2.4,2026-02-25 11h51.24.376087 +0100,
tilted.xlsx,The target is tilted.,117,98,2,12,0,1,1,1,1,1,1,1,0,0,0,0,1,7,8,117,space,7.7882311999997,None,0,1,1.176397199999883,None,space,1.9660116000000016,None,0,0,0,0,,,,,12,2,98,5,287.4298670000003,,,,,,,,,,,,,,,,,,,,,287.41371660000004,287.4298670000003,287.9137152000003,287.91959640000005,287.94110580000006,289.1308047000002,,,,,289.1310659999999,289.1459715000001,289.3461563999999,289.3301872000002,287.94110580000006,,,,,,,,0,1,1.176397199999883,None,,,,,,,,857,22,M,R,2026-02-25_11h51.24.037,VisualSearch_2526_3,,2025.2.4,2026-02-25 11h51.24.376087 +0100,
tilted.xlsx,The target is tilted.,117,99,3,12,1,1,1,1,1,1,1,1,0,0,0,0,0,7,8,117,space,7.7882311999997,None,1,1,1.2645007000000987,None,space,1.9660116000000016,None,0,0,0,0,,,,,12,3,99,1,289.3461563999999,,,,,,,,,,,,,,,,,,,,,289.3311415000003,289.3461563999999,289.82986200000005,289.8351437000001,289.8574377,291.13028110000005,,,,,291.13050010000006,291.1454779999999,291.3451563000003,291.32941729999993,289.8574377,,,,,,,,1,1,1.2645007000000987,None,,,,,,,,857,22,M,R,2026-02-25_11h51.24.037,VisualSearch_2526_3,,2025.2.4,2026-02-25 11h51.24.376087 +0100,
tilted.xlsx,The target is tilted.,117,100,4,12,1,0,0,0,0,0,0,0,0,0,0,0,0,0,1,117,space,7.7882311999997,None,1,1,0.528836400000273,None,space,1.9660116000000016,None,0,0,0,0,,,,,12,4,100,3,291.3451563000003,,,,,,,,,,,,,,,,,,,,,291.3302504000003,291.3451563000003,291.82938860000013,291.8346335000001,291.8555550000001,292.3962340000003,,,,,292.39643720000004,292.41186770000013,292.61175159999993,292.5954002000003,291.8555550000001,,,,,,,,1,1,0.528836400000273,None,,,,,,,,857,22,M,R,2026-02-25_11h51.24.037,VisualSearch_2526_3,,2025.2.4,2026-02-25 11h51.24.376087 +0100,
tilted.xlsx,The target is tilted.,117,101,5,12,1,1,1,1,1,1,1,1,1,1,1,1,0,11,12,117,space,7.7882311999997,None,0,0,2.5257486000000426,None,space,1.9660116000000016,None,0,0,0,0,,,,,12,5,101,0,292.61175159999993,,,,,,,,,,,,,,,,,,,,,292.59621990000005,292.61175159999993,293.09526830000004,293.1013114000002,293.1226495000001,295.6621444000002,,,,,295.66236419999996,295.67740900000035,295.8770635000001,295.86122079999996,293.1226495000001,,,,,,,,0,0,2.5257486000000426,None,,,,,,,,857,22,M,R,2026-02-25_11h51.24.037,VisualSearch_2526_3,,2025.2.4,2026-02-25 11h51.24.376087 +0100,
tilted.xlsx,The target is tilted.,117,102,6,12,0,0,0,0,0,0,0,0,0,0,0,0,1,1,1,117,space,7.7882311999997,None,0,1,0.6308554000002005,None,space,1.9660116000000016,None,0,0,0,0,,,,,12,6,102,7,295.8770635000001,,,,,,,,,,,,,,,,,,,,,295.86205689999997,295.8770635000001,296.36114810000026,296.3660734,296.37695870000016,297.01101470000003,,,,,297.0112042999999,297.02684309999995,297.22695139999996,297.2109158000003,296.37695870000016,,,,,,,,0,1,0.6308554000002005,None,,,,,,,,857,22,M,R,2026-02-25_11h51.24.037,VisualSearch_2526_3,,2025.2.4,2026-02-25 11h51.24.376087 +0100,
tilted.xlsx,The target is tilted.,117,103,7,12,0,1,1,1,1,1,1,1,1,1,1,1,1,11,12,117,space,7.7882311999997,None,0,1,2.3655925000002753,None,space,1.9660116000000016,None,0,0,0,0,,,,,12,7,103,4,297.22695139999996,,,,,,,,,,,,,,,,,,,,,297.21175280000034,297.22695139999996,297.71056610000005,297.71586780000007,297.7375336,300.11056240000016,,,,,300.11081749999994,300.12592870000026,300.32590389999996,300.3100208000001,297.7375336,,,,,,,,0,1,2.3655925000002753,None,,,,,,,,857,22,M,R,2026-02-25_11h51.24.037,VisualSearch_2526_3,,2025.2.4,2026-02-25 11h51.24.376087 +0100,
tilted.xlsx,The target is tilted.,117,104,0,13,0,1,1,1,0,0,0,0,0,0,0,0,1,3,4,117,space,7.7882311999997,None,0,1,0.9233558000000812,None,space,1.9660116000000016,None,0,0,0,0,,,,,13,0,104,6,300.32590389999996,,,,,,,,,,,,,,,,,,,,,300.31084150000015,300.32590389999996,300.80961479999996,300.81495680000035,300.83644159999994,301.7759083000001,,,,,301.7760693,301.79199040000003,301.99211160000004,301.9757585000002,300.83644159999994,,,,,,,,0,1,0.9233558000000812,None,,,,,,,,857,22,M,R,2026-02-25_11h51.24.037,VisualSearch_2526_3,,2025.2.4,2026-02-25 11h51.24.376087 +0100,
tilted.xlsx,The target is tilted.,117,105,1,13,1,1,1,1,1,1,1,1,1,1,1,1,0,11,12,117,space,7.7882311999997,None,0,0,2.857773400000042,None,space,1.9660116000000016,None,0,0,0,0,,,,,13,1,105,0,301.99211160000004,,,,,,,,,,,,,,,,,,,,,301.97652000000016,301.99211160000004,302.4754392,302.480681,302.5019790000001,305.3755675000002,,,,,305.3758063,305.3907118000002,305.5905769000001,305.5744924999999,302.5019790000001,,,,,,,,0,0,2.857773400000042,None,,,,,,,,857,22,M,R,2026-02-25_11h51.24.037,VisualSearch_2526_3,,2025.2.4,2026-02-25 11h51.24.376087 +0100,
tilted.xlsx,The target is tilted.,117,106,2,13,1,1,1,1,1,1,1,1,0,0,0,0,0,7,8,117,space,7.7882311999997,None,1,1,1.004079400000137,None,space,1.9660116000000016,None,0,0,0,0,,,,,13,2,106,1,305.5905769000001,,,,,,,,,,,,,,,,,,,,,305.5753434000003,305.5905769000001,306.07481800000005,306.08045390000007,306.10088859999996,307.10803620000024,,,,,307.10825520000026,307.12365290000025,307.32356070000014,307.30756840000004,306.10088859999996,,,,,,,,1,1,1.004079400000137,None,,,,,,,,857,22,M,R,2026-02-25_11h51.24.037,VisualSearch_2526_3,,2025.2.4,2026-02-25 11h51.24.376087 +0100,
tilted.xlsx,The target is tilted.,117,107,3,13,0,1,1,1,1,1,1,1,0,0,0,0,1,7,8,117,space,7.7882311999997,None,0,1,2.114266200000202,None,space,1.9660116000000016,None,0,0,0,0,,,,,13,3,107,5,307.32356070000014,,,,,,,,,,,,,,,,,,,,,307.3084242,307.32356070000014,307.80734140000004,307.81278420000035,307.8339231,309.95698760000005,,,,,309.9572099000002,309.97271219999993,310.17266040000004,310.15603520000013,307.8339231,,,,,,,,0,1,2.114266200000202,None,,,,,,,,857,22,M,R,2026-02-25_11h51.24.037,VisualSearch_2526_3,,2025.2.4,2026-02-25 11h51.24.376087 +0100,
tilted.xlsx,The target is tilted.,117,108,4,13,1,0,0,0,0,0,0,0,0,0,0,0,0,0,1,117,space,7.7882311999997,None,1,1,0.6075258999999278,None,space,1.9660116000000016,None,0,0,0,0,,,,,13,4,108,3,310.17266040000004,,,,,,,,,,,,,,,,,,,,,310.15632970000024,310.17266040000004,310.656164,310.6615237000001,310.6824835000002,311.30748270000004,,,,,311.3077045,311.3223788,311.5221848000001,311.5062968000002,310.6824835000002,,,,,,,,1,1,0.6075258999999278,None,,,,,,,,857,22,M,R,2026-02-25_11h51.24.037,VisualSearch_2526_3,,2025.2.4,2026-02-25 11h51.24.376087 +0100,
tilted.xlsx,The target is tilted.,117,109,5,13,0,1,1,1,1,1,1,1,1,1,1,1,1,11,12,117,space,7.7882311999997,None,0,1,2.3135222999999314,None,space,1.9660116000000016,None,0,0,0,0,,,,,13,5,109,4,311.5221848000001,,,,,,,,,,,,,,,,,,,,,311.50711060000003,311.5221848000001,312.00597670000025,312.0114125,312.03244380000024,314.3556762000003,,,,,314.3558723000001,314.3709775000002,314.57140470000013,314.55516690000013,312.03244380000024,,,,,,,,0,1,2.3135222999999314,None,,,,,,,,857,22,M,R,2026-02-25_11h51.24.037,VisualSearch_2526_3,,2025.2.4,2026-02-25 11h51.24.376087 +0100,
tilted.xlsx,The target is tilted.,117,110,6,13,1,1,1,1,0,0,0,0,0,0,0,0,0,3,4,117,space,7.7882311999997,None,0,0,0.8362714999998389,None,space,1.9660116000000016,None,0,0,0,0,,,,,13,6,110,2,314.57140470000013,,,,,,,,,,,,,,,,,,,,,314.5559992000003,314.57140470000013,315.05452760000026,315.0572334000003,315.0707417000003,315.92265799999996,,,,,315.9228900000003,315.9374673000002,316.1375091,316.1215522000002,315.0707417000003,,,,,,,,0,0,0.8362714999998389,None,,,,,,,,857,22,M,R,2026-02-25_11h51.24.037,VisualSearch_2526_3,,2025.2.4,2026-02-25 11h51.24.376087 +0100,
tilted.xlsx,The target is tilted.,117,111,7,13,0,0,0,0,0,0,0,0,0,0,0,0,1,1,1,117,space,7.7882311999997,None,0,1,0.8409455999999409,None,space,1.9660116000000016,None,0,0,0,0,,,,,13,7,111,7,316.1375091,,,,,,,,,,,,,,,,,,,,,316.1224090999999,316.1375091,316.6212154,316.62614329999997,316.6370529999999,317.4883256000003,,,,,317.4885463999999,317.5033456000001,317.70329660000016,317.68752650000033,316.6370529999999,,,,,,,,0,1,0.8409455999999409,None,,,,,,,,857,22,M,R,2026-02-25_11h51.24.037,VisualSearch_2526_3,,2025.2.4,2026-02-25 11h51.24.376087 +0100,
tilted.xlsx,The target is tilted.,117,112,0,14,0,1,1,1,0,0,0,0,0,0,0,0,1,3,4,117,space,7.7882311999997,None,0,1,1.0266844000002493,None,space,1.9660116000000016,None,0,0,0,0,,,,,14,0,112,6,317.70329660000016,,,,,,,,,,,,,,,,,,,,,317.6883350000003,317.70329660000016,318.1875312000002,318.19288910000023,318.2148870000001,319.25499089999994,,,,,319.2552538,319.2695047000002,319.4697242000002,319.4536651000003,318.2148870000001,,,,,,,,0,1,1.0266844000002493,None,,,,,,,,857,22,M,R,2026-02-25_11h51.24.037,VisualSearch_2526_3,,2025.2.4,2026-02-25 11h51.24.376087 +0100,
tilted.xlsx,The target is tilted.,117,113,1,14,0,0,0,0,0,0,0,0,0,0,0,0,1,1,1,117,space,7.7882311999997,None,0,1,0.5020652999996855,None,space,1.9660116000000016,None,0,0,0,0,,,,,14,1,113,7,319.4697242000002,,,,,,,,,,,,,,,,,,,,,319.4545231000002,319.4697242000002,319.9536571000003,319.9591115000003,319.98022760000003,320.48693300000014,,,,,320.48715470000025,320.50267810000014,320.7027389,320.68655949999993,319.98022760000003,,,,,,,,0,1,0.5020652999996855,None,,,,,,,,857,22,M,R,2026-02-25_11h51.24.037,VisualSearch_2526_3,,2025.2.4,2026-02-25 11h51.24.376087 +0100,
tilted.xlsx,The target is tilted.,117,114,2,14,0,1,1,1,1,1,1,1,0,0,0,0,1,7,8,117,space,7.7882311999997,None,0,1,2.1547340000001896,None,space,1.9660116000000016,None,0,0,0,0,,,,,14,2,114,5,320.7027389,,,,,,,,,,,,,,,,,,,,,320.68738650000023,320.7027389,321.18645289999995,321.1918718000002,321.2126827000002,323.3696837000002,,,,,323.3699424000001,323.3848624000002,323.5848040000001,323.56911390000005,321.2126827000002,,,,,,,,0,1,2.1547340000001896,None,,,,,,,,857,22,M,R,2026-02-25_11h51.24.037,VisualSearch_2526_3,,2025.2.4,2026-02-25 11h51.24.376087 +0100,
tilted.xlsx,The target is tilted.,117,115,3,14,1,0,0,0,0,0,0,0,0,0,0,0,0,0,1,117,space,7.7882311999997,None,1,1,0.5189104999999472,None,space,1.9660116000000016,None,0,0,0,0,,,,,14,3,115,3,323.5848040000001,,,,,,,,,,,,,,,,,,,,,323.5699353,323.5848040000001,324.0689889,324.0743147000003,324.09562559999995,324.61888720000024,,,,,324.61910609999995,324.6346219000002,324.83451920000016,324.81864050000013,324.09562559999995,,,,,,,,1,1,0.5189104999999472,None,,,,,,,,857,22,M,R,2026-02-25_11h51.24.037,VisualSearch_2526_3,,2025.2.4,2026-02-25 11h51.24.376087 +0100,
tilted.xlsx,The target is tilted.,117,116,4,14,0,1,1,1,1,1,1,1,1,1,1,1,1,11,12,117,space,7.7882311999997,None,0,1,3.4949320000000625,None,space,1.9660116000000016,None,0,0,0,0,,,,,14,4,116,4,324.83451920000016,,,,,,,,,,,,,,,,,,,,,324.8194929000001,324.83451920000016,325.3184403,325.32381280000027,325.34508129999995,328.8512998000001,,,,,328.85152719999996,328.8665633999999,329.0662265000001,329.0505865,325.34508129999995,,,,,,,,0,1,3.4949320000000625,None,,,,,,,,857,22,M,R,2026-02-25_11h51.24.037,VisualSearch_2526_3,,2025.2.4,2026-02-25 11h51.24.376087 +0100,
tilted.xlsx,The target is tilted.,117,117,5,14,1,1,1,1,0,0,0,0,0,0,0,0,0,3,4,117,space,7.7882311999997,None,1,1,0.8141540000001442,None,space,1.9660116000000016,None,0,0,0,0,,,,,14,5,117,2,329.0662265000001,,,,,,,,,,,,,,,,,,,,,329.05144640000026,329.0662265000001,329.5500244,329.5554414000003,329.57689660000005,330.4008031000003,,,,,330.4010212000003,330.41586929999994,330.6160904000003,330.59961380000004,329.57689660000005,,,,,,,,1,1,0.8141540000001442,None,,,,,,,,857,22,M,R,2026-02-25_11h51.24.037,VisualSearch_2526_3,,2025.2.4,2026-02-25 11h51.24.376087 +0100,
tilted.xlsx,The target is tilted.,117,118,6,14,1,1,1,1,1,1,1,1,1,1,1,1,0,11,12,117,space,7.7882311999997,None,0,0,2.9486855000000105,None,space,1.9660116000000016,None,0,0,0,0,,,,,14,6,118,0,330.6160904000003,,,,,,,,,,,,,,,,,,,,,330.60043680000035,330.6160904000003,331.0997400000001,331.1050484000002,331.1265057999999,334.08263990000023,,,,,334.08283870000014,334.0981719000001,334.2974567000001,334.2814128,331.1265057999999,,,,,,,,0,0,2.9486855000000105,None,,,,,,,,857,22,M,R,2026-02-25_11h51.24.037,VisualSearch_2526_3,,2025.2.4,2026-02-25 11h51.24.376087 +0100,
tilted.xlsx,The target is tilted.,117,119,7,14,1,1,1,1,1,1,1,1,0,0,0,0,0,7,8,117,space,7.7882311999997,None,1,1,1.563036000000011,None,space,1.9660116000000016,None,0,0,0,0,,,,,14,7,119,1,334.2974567000001,,,,,,,,,,,,,,,,,,,,,334.28191190000007,334.2974567000001,334.7819518000001,334.78662060000033,334.7975280999999,336.36506020000024,,,,,336.3652996999999,336.3808846000002,336.6023786999999,336.56447070000013,334.7975280999999,,,,,,,,1,1,1.563036000000011,None,,,,,,,,857,22,M,R,2026-02-25_11h51.24.037,VisualSearch_2526_3,,2025.2.4,2026-02-25 11h51.24.376087 +0100,
tilted.xlsx,The target is tilted.,117,0,0,0,,,,,,,,,,,,,,,,,space,7.7882311999997,None,,,,,space,1.9660116000000016,None,0,0,0,0,,,,,,,,,,,,,,,,,,,,,,,,,,,,,,,,,,,,,,,,,,,,,,,,,,,,,,,,,,,,,,,857,22,M,R,2026-02-25_11h51.24.037,VisualSearch_2526_3,,2025.2.4,2026-02-25 11h51.24.376087 +0100,
vertical.xlsx,The target is tilted.,135,0,0,0,1,1,1,1,0,0,0,0,0,0,0,0,0,3,4,135,space,4.895705899999939,None,1,1,0.7397915999999896,None,,,,0,1,1,1,0,0,0,2,,,,,341.5481485,,,,,,,,,,,,,,,336.6023786999999,336.6023786999999,336.6023786999999,space,4.895705899999939,None,341.5442654000003,341.5481485,342.02852580000035,342.0313587999999,342.0455058000002,342.79655980000007,1,1,0.7397915999999896,None,342.79680180000014,342.8121576000003,343.0120329000001,342.99598460000016,,,,,,,,,,,,,,,,,,,,857,22,M,R,2026-02-25_11h51.24.037,VisualSearch_2526_3,,2025.2.4,2026-02-25 11h51.24.376087 +0100,
vertical.xlsx,The target is tilted.,135,1,1,0,1,1,1,1,1,1,1,1,1,1,1,1,0,11,12,135,space,4.895705899999939,None,1,1,0.5994734999999309,None,,,,0,1,1,1,0,1,1,0,,,,,343.0120329000001,,,,,,,,,,,,,,,,,,,,,342.9967594,343.0120329000001,343.4955347,343.5010153000003,343.5230412000001,344.1293694000001,1,1,0.5994734999999309,None,344.1295557000003,344.1445510000003,344.3447325000002,344.3285114,343.5230412000001,,,,,,,,,,,,,,,,,,,857,22,M,R,2026-02-25_11h51.24.037,VisualSearch_2526_3,,2025.2.4,2026-02-25 11h51.24.376087 +0100,
vertical.xlsx,The target is tilted.,135,2,2,0,1,1,1,1,1,1,1,1,0,0,0,0,0,7,8,135,space,4.895705899999939,None,1,1,1.0200704000003498,None,,,,0,1,1,1,0,2,2,1,,,,,344.3447325000002,,,,,,,,,,,,,,,,,,,,,344.32927440000003,344.3447325000002,344.8288797,344.83416320000015,344.8556208,345.87912570000026,1,1,1.0200704000003498,None,345.8793347000001,345.8944875000002,346.09445600000026,346.07837210000025,344.8556208,,,,,,,,,,,,,,,,,,,857,22,M,R,2026-02-25_11h51.24.037,VisualSearch_2526_3,,2025.2.4,2026-02-25 11h51.24.376087 +0100,
vertical.xlsx,The target is tilted.,135,3,3,0,1,0,0,0,0,0,0,0,0,0,0,0,0,0,1,135,space,4.895705899999939,None,1,1,0.49089749999984633,None,,,,0,1,1,1,0,3,3,3,,,,,346.09445600000026,,,,,,,,,,,,,,,,,,,,,346.0791128999999,346.09445600000026,346.5782104,346.58348560000013,346.60467800000015,347.11205599999994,1,1,0.49089749999984633,None,347.1122676,347.127258,347.3273600000002,347.3113078000001,346.60467800000015,,,,,,,,,,,,,,,,,,,857,22,M,R,2026-02-25_11h51.24.037,VisualSearch_2526_3,,2025.2.4,2026-02-25 11h51.24.376087 +0100,
vertical.xlsx,The target is tilted.,135,4,4,0,0,0,0,0,0,0,0,0,0,0,0,0,1,1,1,135,space,4.895705899999939,None,0,1,0.5525630999995883,None,,,,0,1,1,1,0,4,4,7,,,,,347.3273600000002,,,,,,,,,,,,,,,,,,,,,347.3120472999999,347.3273600000002,347.8107450000002,347.8160619,347.8373772,348.3944859000003,0,1,0.5525630999995883,None,348.39469020000024,348.4101734000001,348.61029180000014,348.594462,347.8373772,,,,,,,,,,,,,,,,,,,857,22,M,R,2026-02-25_11h51.24.037,VisualSearch_2526_3,,2025.2.4,2026-02-25 11h51.24.376087 +0100,
vertical.xlsx,The target is tilted.,135,5,5,0,0,1,1,1,0,0,0,0,0,0,0,0,1,3,4,135,space,4.895705899999939,None,0,1,0.7721885999999358,None,,,,0,1,1,1,0,5,5,6,,,,,348.61029180000014,,,,,,,,,,,,,,,,,,,,,348.5952867000001,348.61029180000014,349.0940620000001,349.0995097,349.1211166000003,349.9110595000002,0,1,0.7721885999999358,None,349.91128700000036,349.92616810000027,350.12643860000026,350.1104755000001,349.1211166000003,,,,,,,,,,,,,,,,,,,857,22,M,R,2026-02-25_11h51.24.037,VisualSearch_2526_3,,2025.2.4,2026-02-25 11h51.24.376087 +0100,
vertical.xlsx,The target is tilted.,135,6,6,0,0,1,1,1,1,1,1,1,1,1,1,1,1,11,12,135,space,4.895705899999939,None,0,1,1.9223789000002398,None,,,,0,1,1,1,0,6,6,4,,,,,350.12643860000026,,,,,,,,,,,,,,,,,,,,,350.11122300000034,350.12643860000026,350.6102486,350.6155689000002,350.6370122000003,352.57595470000024,0,1,1.9223789000002398,None,352.5760714000003,352.5919804,352.7920217000001,352.7759795000002,350.6370122000003,,,,,,,,,,,,,,,,,,,857,22,M,R,2026-02-25_11h51.24.037,VisualSearch_2526_3,,2025.2.4,2026-02-25 11h51.24.376087 +0100,
vertical.xlsx,The target is tilted.,135,7,7,0,0,1,1,1,1,1,1,1,0,0,0,0,1,7,8,135,space,4.895705899999939,None,0,1,1.0029260999999678,None,,,,0,1,1,1,0,7,7,5,,,,,352.7920217000001,,,,,,,,,,,,,,,,,,,,,352.77675850000014,352.7920217000001,353.2757995000002,353.2810545000002,353.3031995000001,354.30965110000034,0,1,1.0029260999999678,None,354.3098672000001,354.3247308,354.5247738000003,354.5087871999999,353.3031995000001,,,,,,,,,,,,,,,,,,,857,22,M,R,2026-02-25_11h51.24.037,VisualSearch_2526_3,,2025.2.4,2026-02-25 11h51.24.376087 +0100,
vertical.xlsx,The target is tilted.,135,0,0,0,0,0,0,0,0,0,0,0,0,0,0,0,1,1,1,135,space,4.895705899999939,None,0,1,0.5898222999999234,None,space,1.9252814999999828,None,0,1,1,1,,,,,0,0,0,7,356.49512920000006,,,,,,,,,,,,,,,,,,,,,356.4908883000003,356.49512920000006,356.9744556999999,356.97982260000026,357.0002932000002,357.5912490999999,,,,,357.59139330000016,357.60728259999996,357.80702870000005,357.7914049000001,,354.5164219000003,354.5247738000003,354.5247738000003,356.4586792,space,1.9252814999999828,None,0,1,0.5898222999999234,None,,,,,,,,857,22,M,R,2026-02-25_11h51.24.037,VisualSearch_2526_3,,2025.2.4,2026-02-25 11h51.24.376087 +0100,
vertical.xlsx,The target is tilted.,135,1,1,0,0,1,1,1,0,0,0,0,0,0,0,0,1,3,4,135,space,4.895705899999939,None,0,1,0.6078916999999819,None,space,1.9252814999999828,None,0,1,1,1,,,,,0,1,1,6,357.80702870000005,,,,,,,,,,,,,,,,,,,,,357.79226880000033,357.80702870000005,358.2910237000001,358.2963261,358.31775319999997,358.9414690000003,,,,,358.94168930000023,358.9565941000001,359.15682110000034,359.1408070000002,358.31775319999997,,,,,,,,0,1,0.6078916999999819,None,,,,,,,,857,22,M,R,2026-02-25_11h51.24.037,VisualSearch_2526_3,,2025.2.4,2026-02-25 11h51.24.376087 +0100,
vertical.xlsx,The target is tilted.,135,2,2,0,1,1,1,1,1,1,1,1,1,1,1,1,0,11,12,135,space,4.895705899999939,None,1,1,0.8039300000000367,None,space,1.9252814999999828,None,0,1,1,1,,,,,0,2,2,0,359.15682110000034,,,,,,,,,,,,,,,,,,,,,359.1417053,359.15682110000034,359.64060689999997,359.64592949999997,359.6670647000001,360.47438779999993,,,,,360.47461310000017,360.48972140000024,360.68961160000026,360.6736278000003,359.6670647000001,,,,,,,,1,1,0.8039300000000367,None,,,,,,,,857,22,M,R,2026-02-25_11h51.24.037,VisualSearch_2526_3,,2025.2.4,2026-02-25 11h51.24.376087 +0100,
vertical.xlsx,The target is tilted.,135,3,3,0,0,1,1,1,1,1,1,1,0,0,0,0,1,7,8,135,space,4.895705899999939,None,0,1,1.7536141000000498,None,space,1.9252814999999828,None,0,1,1,1,,,,,0,3,3,5,360.68961160000026,,,,,,,,,,,,,,,,,,,,,360.67450370000006,360.68961160000026,361.17352010000013,361.1789765000003,361.2002301000002,362.95620880000024,,,,,362.95644340000035,362.9720166000002,363.1721958000003,363.1559536,361.2002301000002,,,,,,,,0,1,1.7536141000000498,None,,,,,,,,857,22,M,R,2026-02-25_11h51.24.037,VisualSearch_2526_3,,2025.2.4,2026-02-25 11h51.24.376087 +0100,
vertical.xlsx,The target is tilted.,135,4,4,0,1,1,1,1,0,0,0,0,0,0,0,0,0,3,4,135,space,4.895705899999939,None,1,1,0.65729040000042,None,space,1.9252814999999828,None,0,1,1,1,,,,,0,4,4,2,363.1721958000003,,,,,,,,,,,,,,,,,,,,,363.1568259999999,363.1721958000003,363.65587440000036,363.66105030000017,363.68151979999993,364.35643230000005,,,,,364.35666560000027,364.37157130000014,364.57180719999997,364.5552923,363.68151979999993,,,,,,,,1,1,0.65729040000042,None,,,,,,,,857,22,M,R,2026-02-25_11h51.24.037,VisualSearch_2526_3,,2025.2.4,2026-02-25 11h51.24.376087 +0100,
vertical.xlsx,The target is tilted.,135,5,5,0,1,1,1,1,1,1,1,1,0,0,0,0,0,7,8,135,space,4.895705899999939,None,1,1,1.3361881000000722,None,space,1.9252814999999828,None,0,1,1,1,,,,,0,5,5,1,364.57180719999997,,,,,,,,,,,,,,,,,,,,,364.5561345000001,364.57180719999997,365.0551210000003,365.0603785000003,365.08117100000027,366.42180929999995,,,,,366.4220312000002,366.4375414000001,366.6377457000003,366.62174380000033,365.08117100000027,,,,,,,,1,1,1.3361881000000722,None,,,,,,,,857,22,M,R,2026-02-25_11h51.24.037,VisualSearch_2526_3,,2025.2.4,2026-02-25 11h51.24.376087 +0100,
vertical.xlsx,The target is tilted.,135,6,6,0,0,1,1,1,1,1,1,1,1,1,1,1,1,11,12,135,space,4.895705899999939,None,0,1,1.765120599999591,None,space,1.9252814999999828,None,0,1,1,1,,,,,0,6,6,4,366.6377457000003,,,,,,,,,,,,,,,,,,,,,366.6225763000002,366.6377457000003,367.12161160000005,367.12687780000033,367.1472033,368.92157700000007,,,,,368.92179540000006,368.9366531999999,369.13691310000013,369.1208472000003,367.1472033,,,,,,,,0,1,1.765120599999591,None,,,,,,,,857,22,M,R,2026-02-25_11h51.24.037,VisualSearch_2526_3,,2025.2.4,2026-02-25 11h51.24.376087 +0100,
vertical.xlsx,The target is tilted.,135,7,7,0,1,0,0,0,0,0,0,0,0,0,0,0,0,0,1,135,space,4.895705899999939,None,1,1,0.5164565000000039,None,space,1.9252814999999828,None,0,1,1,1,,,,,0,7,7,3,369.13691310000013,,,,,,,,,,,,,,,,,,,,,369.1216797000002,369.13691310000013,369.62071319999995,369.6264636000001,369.64665719999994,370.17107699999997,,,,,370.17133490000015,370.1862698,370.38619180000023,370.3703942000002,369.64665719999994,,,,,,,,1,1,0.5164565000000039,None,,,,,,,,857,22,M,R,2026-02-25_11h51.24.037,VisualSearch_2526_3,,2025.2.4,2026-02-25 11h51.24.376087 +0100,
vertical.xlsx,The target is tilted.,135,8,0,1,0,1,1,1,0,0,0,0,0,0,0,0,1,3,4,135,space,4.895705899999939,None,0,1,0.6331842999998116,None,space,1.9252814999999828,None,0,1,1,1,,,,,1,0,8,6,370.38619180000023,,,,,,,,,,,,,,,,,,,,,370.37119500000017,370.38619180000023,370.87036260000013,370.87527560000035,370.886117,371.5365168000003,,,,,371.5366544000003,371.5525786000003,371.75276060000033,371.7365841999999,370.886117,,,,,,,,0,1,0.6331842999998116,None,,,,,,,,857,22,M,R,2026-02-25_11h51.24.037,VisualSearch_2526_3,,2025.2.4,2026-02-25 11h51.24.376087 +0100,
vertical.xlsx,The target is tilted.,135,9,1,1,1,1,1,1,1,1,1,1,1,1,1,1,0,11,12,135,space,4.895705899999939,None,1,1,0.9465566999997463,None,space,1.9252814999999828,None,0,1,1,1,,,,,1,1,9,0,371.75276060000033,,,,,,,,,,,,,,,,,,,,,371.7374612000003,371.75276060000033,372.2364735000001,372.2416496999999,372.2615330000003,373.21991160000016,,,,,373.2201263000002,373.2351971000003,373.4353236000002,373.41929180000034,372.2615330000003,,,,,,,,1,1,0.9465566999997463,None,,,,,,,,857,22,M,R,2026-02-25_11h51.24.037,VisualSearch_2526_3,,2025.2.4,2026-02-25 11h51.24.376087 +0100,
vertical.xlsx,The target is tilted.,135,10,2,1,0,1,1,1,1,1,1,1,1,1,1,1,1,11,12,135,space,4.895705899999939,None,0,1,1.3615981000002648,None,space,1.9252814999999828,None,0,1,1,1,,,,,1,2,10,4,373.4353236000002,,,,,,,,,,,,,,,,,,,,,373.4201499999999,373.4353236000002,373.91933040000004,373.92467860000033,373.9467558000001,375.3194384000003,,,,,375.3196825,375.3345776000001,375.5345030000003,375.5187430000001,373.9467558000001,,,,,,,,0,1,1.3615981000002648,None,,,,,,,,857,22,M,R,2026-02-25_11h51.24.037,VisualSearch_2526_3,,2025.2.4,2026-02-25 11h51.24.376087 +0100,
vertical.xlsx,The target is tilted.,135,11,3,1,0,0,0,0,0,0,0,0,0,0,0,0,1,1,1,135,space,4.895705899999939,None,0,1,0.5591934000003675,None,space,1.9252814999999828,None,0,1,1,1,,,,,1,3,11,7,375.5345030000003,,,,,,,,,,,,,,,,,,,,,375.51969180000015,375.5345030000003,376.01869780000015,376.02392260000033,376.0448452999999,376.6189019000003,,,,,376.6191351000002,376.6341867000001,376.83441360000006,376.8182830999999,376.0448452999999,,,,,,,,0,1,0.5591934000003675,None,,,,,,,,857,22,M,R,2026-02-25_11h51.24.037,VisualSearch_2526_3,,2025.2.4,2026-02-25 11h51.24.376087 +0100,
vertical.xlsx,The target is tilted.,135,12,4,1,1,1,1,1,1,1,1,1,0,0,0,0,0,7,8,135,space,4.895705899999939,None,1,1,0.719612099999722,None,space,1.9252814999999828,None,0,1,1,1,,,,,1,4,12,1,376.83441360000006,,,,,,,,,,,,,,,,,,,,,376.81908440000007,376.83441360000006,377.3181373000002,377.32356660000005,377.3440799,378.0683044000002,,,,,378.0685289000003,378.08398350000016,378.2839060000001,378.2678278000003,377.3440799,,,,,,,,1,1,0.719612099999722,None,,,,,,,,857,22,M,R,2026-02-25_11h51.24.037,VisualSearch_2526_3,,2025.2.4,2026-02-25 11h51.24.376087 +0100,
vertical.xlsx,The target is tilted.,135,13,5,1,1,0,0,0,0,0,0,0,0,0,0,0,0,0,1,135,space,4.895705899999939,None,1,1,0.5004242999998496,None,space,1.9252814999999828,None,0,1,1,1,,,,,1,5,13,3,378.2839060000001,,,,,,,,,,,,,,,,,,,,,378.2686384000003,378.2839060000001,378.7677933,378.7731037000003,378.7950215999999,379.30145040000025,,,,,379.3016981999999,379.31651520000014,379.5168813,379.50075730000026,378.7950215999999,,,,,,,,1,1,0.5004242999998496,None,,,,,,,,857,22,M,R,2026-02-25_11h51.24.037,VisualSearch_2526_3,,2025.2.4,2026-02-25 11h51.24.376087 +0100,
vertical.xlsx,The target is tilted.,135,14,6,1,1,1,1,1,0,0,0,0,0,0,0,0,0,3,4,135,space,4.895705899999939,None,1,1,0.7295282000000043,None,space,1.9252814999999828,None,0,1,1,1,,,,,1,6,14,2,379.5168813,,,,,,,,,,,,,,,,,,,,,379.50159440000016,379.5168813,380.00071270000035,380.00606910000033,380.0266824,380.76776599999994,,,,,380.76797920000035,380.7831529,380.98305500000015,380.96663860000035,380.0266824,,,,,,,,1,1,0.7295282000000043,None,,,,,,,,857,22,M,R,2026-02-25_11h51.24.037,VisualSearch_2526_3,,2025.2.4,2026-02-25 11h51.24.376087 +0100,
vertical.xlsx,The target is tilted.,135,15,7,1,0,1,1,1,1,1,1,1,0,0,0,0,1,7,8,135,space,4.895705899999939,None,0,1,1.219513200000165,None,space,1.9252814999999828,None,0,1,1,1,,,,,1,7,15,5,380.98305500000015,,,,,,,,,,,,,,,,,,,,,380.96745390000024,380.98305500000015,381.4666467000002,381.47200220000013,381.49440989999994,382.71720670000013,,,,,382.7174259000003,382.7324483000002,382.93204130000004,382.91605900000013,381.49440989999994,,,,,,,,0,1,1.219513200000165,None,,,,,,,,857,22,M,R,2026-02-25_11h51.24.037,VisualSearch_2526_3,,2025.2.4,2026-02-25 11h51.24.376087 +0100,
vertical.xlsx,The target is tilted.,135,16,0,2,0,1,1,1,1,1,1,1,0,0,0,0,1,7,8,135,space,4.895705899999939,None,0,1,1.0949335000000247,None,space,1.9252814999999828,None,0,1,1,1,,,,,2,0,16,5,382.93204130000004,,,,,,,,,,,,,,,,,,,,,382.9169498000001,382.93204130000004,383.4159675000001,383.4213265000003,383.44357530000025,384.5484814000001,,,,,384.5486100000003,384.56442210000023,384.7650094999999,384.7485001,383.44357530000025,,,,,,,,0,1,1.0949335000000247,None,,,,,,,,857,22,M,R,2026-02-25_11h51.24.037,VisualSearch_2526_3,,2025.2.4,2026-02-25 11h51.24.376087 +0100,
vertical.xlsx,The target is tilted.,135,17,1,2,0,1,1,1,0,0,0,0,0,0,0,0,1,3,4,135,space,4.895705899999939,None,0,1,0.628970599999775,None,space,1.9252814999999828,None,0,1,1,1,,,,,2,1,17,6,384.7650094999999,,,,,,,,,,,,,,,,,,,,,384.74892769999997,384.7650094999999,385.2486285,385.25395019999996,385.2750398000003,385.91495010000017,,,,,385.9150778000003,385.93120590000035,386.13130550000005,386.11494410000023,385.2750398000003,,,,,,,,0,1,0.628970599999775,None,,,,,,,,857,22,M,R,2026-02-25_11h51.24.037,VisualSearch_2526_3,,2025.2.4,2026-02-25 11h51.24.376087 +0100,
vertical.xlsx,The target is tilted.,135,18,2,2,1,1,1,1,1,1,1,1,1,1,1,1,0,11,12,135,space,4.895705899999939,None,0,0,2.090305400000034,None,space,1.9252814999999828,None,0,1,1,1,,,,,2,2,18,0,386.13130550000005,,,,,,,,,,,,,,,,,,,,,386.1157996000002,386.13130550000005,386.61508090000007,386.62026960000003,386.6310289000003,388.73179170000003,,,,,388.73200799999995,388.74680990000024,388.94698080000035,388.9305410000002,386.6310289000003,,,,,,,,0,0,2.090305400000034,None,,,,,,,,857,22,M,R,2026-02-25_11h51.24.037,VisualSearch_2526_3,,2025.2.4,2026-02-25 11h51.24.376087 +0100,
vertical.xlsx,The target is tilted.,135,19,3,2,1,0,0,0,0,0,0,0,0,0,0,0,0,0,1,135,space,4.895705899999939,None,1,1,0.5453978000000461,None,space,1.9252814999999828,None,0,1,1,1,,,,,2,3,19,3,388.94698080000035,,,,,,,,,,,,,,,,,,,,,388.9313838000003,388.94698080000035,389.43103070000006,389.4363735000002,389.4583077000002,390.0141343,,,,,390.0142796,390.03007479999997,390.2300129,390.2138353,389.4583077000002,,,,,,,,1,1,0.5453978000000461,None,,,,,,,,857,22,M,R,2026-02-25_11h51.24.037,VisualSearch_2526_3,,2025.2.4,2026-02-25 11h51.24.376087 +0100,
vertical.xlsx,The target is tilted.,135,20,4,2,1,1,1,1,1,1,1,1,0,0,0,0,0,7,8,135,space,4.895705899999939,None,1,1,1.2093252999998185,None,space,1.9252814999999828,None,0,1,1,1,,,,,2,4,20,1,390.2300129,,,,,,,,,,,,,,,,,,,,,390.2146964000003,390.2300129,390.7134952000001,390.7188188,390.73975150000024,391.96401490000017,,,,,391.96428220000007,391.9790997,392.17945069999996,392.16333810000015,390.73975150000024,,,,,,,,1,1,1.2093252999998185,None,,,,,,,,857,22,M,R,2026-02-25_11h51.24.037,VisualSearch_2526_3,,2025.2.4,2026-02-25 11h51.24.376087 +0100,
vertical.xlsx,The target is tilted.,135,21,5,2,0,0,0,0,0,0,0,0,0,0,0,0,1,1,1,135,space,4.895705899999939,None,0,1,0.5230288000002474,None,space,1.9252814999999828,None,0,1,1,1,,,,,2,5,21,7,392.17945069999996,,,,,,,,,,,,,,,,,,,,,392.1641373000002,392.17945069999996,392.66295850000006,392.6682701,392.69019100000014,393.2303132000002,,,,,393.2305329999999,393.24558260000003,393.44552650000014,393.4293236000003,392.69019100000014,,,,,,,,0,1,0.5230288000002474,None,,,,,,,,857,22,M,R,2026-02-25_11h51.24.037,VisualSearch_2526_3,,2025.2.4,2026-02-25 11h51.24.376087 +0100,
vertical.xlsx,The target is tilted.,135,22,6,2,0,1,1,1,1,1,1,1,1,1,1,1,1,11,12,135,space,4.895705899999939,None,0,1,1.5203260000002956,None,space,1.9252814999999828,None,0,1,1,1,,,,,2,6,22,4,393.44552650000014,,,,,,,,,,,,,,,,,,,,,393.43021,393.44552650000014,393.92940990000034,393.93469380000033,393.95515220000016,395.4790974000002,,,,,395.47931370000015,395.4949005000003,395.69454829999995,395.6785010000003,393.95515220000016,,,,,,,,0,1,1.5203260000002956,None,,,,,,,,857,22,M,R,2026-02-25_11h51.24.037,VisualSearch_2526_3,,2025.2.4,2026-02-25 11h51.24.376087 +0100,
vertical.xlsx,The target is tilted.,135,23,7,2,1,1,1,1,0,0,0,0,0,0,0,0,0,3,4,135,space,4.895705899999939,None,1,1,0.7059828000001289,None,space,1.9252814999999828,None,0,1,1,1,,,,,2,7,23,2,395.69454829999995,,,,,,,,,,,,,,,,,,,,,395.67934590000004,395.69454829999995,396.1786615000001,396.1840135000002,396.2057927000001,396.9285877000002,,,,,396.92878020000035,396.94414589999997,397.144178,397.1277091000002,396.2057927000001,,,,,,,,1,1,0.7059828000001289,None,,,,,,,,857,22,M,R,2026-02-25_11h51.24.037,VisualSearch_2526_3,,2025.2.4,2026-02-25 11h51.24.376087 +0100,
vertical.xlsx,The target is tilted.,135,24,0,3,1,0,0,0,0,0,0,0,0,0,0,0,0,0,1,135,space,4.895705899999939,None,1,1,0.42280170000003636,None,space,1.9252814999999828,None,0,1,1,1,,,,,3,0,24,3,397.144178,,,,,,,,,,,,,,,,,,,,,397.1282341000001,397.144178,397.62723300000016,397.6300713999999,397.64390730000014,398.0779057,,,,,398.0780672000001,398.0939247000001,398.2940910000002,398.27769119999994,397.64390730000014,,,,,,,,1,1,0.42280170000003636,None,,,,,,,,857,22,M,R,2026-02-25_11h51.24.037,VisualSearch_2526_3,,2025.2.4,2026-02-25 11h51.24.376087 +0100,
vertical.xlsx,The target is tilted.,135,25,1,3,0,1,1,1,0,0,0,0,0,0,0,0,1,3,4,135,space,4.895705899999939,None,0,1,1.1037611000001561,None,space,1.9252814999999828,None,0,1,1,1,,,,,3,1,25,6,398.2940910000002,,,,,,,,,,,,,,,,,,,,,398.27856010000005,398.2940910000002,398.7777768000001,398.7831719999999,398.80441470000005,399.91169070000024,,,,,399.91192520000004,399.9264857000003,400.12674700000025,400.1107549000003,398.80441470000005,,,,,,,,0,1,1.1037611000001561,None,,,,,,,,857,22,M,R,2026-02-25_11h51.24.037,VisualSearch_2526_3,,2025.2.4,2026-02-25 11h51.24.376087 +0100,
vertical.xlsx,The target is tilted.,135,26,2,3,1,1,1,1,0,0,0,0,0,0,0,0,0,3,4,135,space,4.895705899999939,None,1,1,0.8544952000002013,None,space,1.9252814999999828,None,0,1,1,1,,,,,3,2,26,2,400.12674700000025,,,,,,,,,,,,,,,,,,,,,400.1115837000002,400.12674700000025,400.6106195000002,400.6159028000002,400.63569750000033,401.49326169999995,,,,,401.4934094,401.50959650000004,401.7096468,401.69338560000006,400.63569750000033,,,,,,,,1,1,0.8544952000002013,None,,,,,,,,857,22,M,R,2026-02-25_11h51.24.037,VisualSearch_2526_3,,2025.2.4,2026-02-25 11h51.24.376087 +0100,
vertical.xlsx,The target is tilted.,135,27,3,3,1,1,1,1,1,1,1,1,1,1,1,1,0,11,12,135,space,4.895705899999939,None,0,0,1.1440278999998554,None,space,1.9252814999999828,None,0,1,1,1,,,,,3,3,27,0,401.7096468,,,,,,,,,,,,,,,,,,,,,401.6942533000001,401.7096468,402.1934887000002,402.19875219999994,402.2210414000001,403.37631550000015,,,,,403.37646220000033,403.39235830000007,403.59197110000014,403.57607469999994,402.2210414000001,,,,,,,,0,0,1.1440278999998554,None,,,,,,,,857,22,M,R,2026-02-25_11h51.24.037,VisualSearch_2526_3,,2025.2.4,2026-02-25 11h51.24.376087 +0100,
vertical.xlsx,The target is tilted.,135,28,4,3,0,1,1,1,1,1,1,1,0,0,0,0,1,7,8,135,space,4.895705899999939,None,0,1,1.1862095000001318,None,space,1.9252814999999828,None,0,1,1,1,,,,,3,4,28,5,403.59197110000014,,,,,,,,,,,,,,,,,,,,,403.5769301,403.59197110000014,404.07615590000023,404.08159650000016,404.1029129000003,405.29267930000015,,,,,405.29291650000005,405.30840400000034,405.50835589999997,405.49221720000014,404.1029129000003,,,,,,,,0,1,1.1862095000001318,None,,,,,,,,857,22,M,R,2026-02-25_11h51.24.037,VisualSearch_2526_3,,2025.2.4,2026-02-25 11h51.24.376087 +0100,
vertical.xlsx,The target is tilted.,135,29,5,3,1,1,1,1,1,1,1,1,0,0,0,0,0,7,8,135,space,4.895705899999939,None,1,1,0.746756699999878,None,space,1.9252814999999828,None,0,1,1,1,,,,,3,5,29,1,405.50835589999997,,,,,,,,,,,,,,,,,,,,,405.49305330000016,405.50835589999997,405.9922467000001,405.99732059999997,406.0080017,406.7589359000003,,,,,406.75915520000035,406.77433930000007,406.97440380000035,406.9581240000002,406.0080017,,,,,,,,1,1,0.746756699999878,None,,,,,,,,857,22,M,R,2026-02-25_11h51.24.037,VisualSearch_2526_3,,2025.2.4,2026-02-25 11h51.24.376087 +0100,
vertical.xlsx,The target is tilted.,135,30,6,3,0,1,1,1,1,1,1,1,1,1,1,1,1,11,12,135,space,4.895705899999939,None,0,1,1.2550958000001629,None,space,1.9252814999999828,None,0,1,1,1,,,,,3,6,30,4,406.97440380000035,,,,,,,,,,,,,,,,,,,,,406.9589231,406.97440380000035,407.4583849999999,407.4637206000002,407.48503359999995,408.7418657000003,,,,,408.7421155000002,408.7570218999999,408.95685010000034,408.9412390000002,407.48503359999995,,,,,,,,0,1,1.2550958000001629,None,,,,,,,,857,22,M,R,2026-02-25_11h51.24.037,VisualSearch_2526_3,,2025.2.4,2026-02-25 11h51.24.376087 +0100,
vertical.xlsx,The target is tilted.,135,31,7,3,0,0,0,0,0,0,0,0,0,0,0,0,1,1,1,135,space,4.895705899999939,None,0,1,0.6007659000001695,None,space,1.9252814999999828,None,0,1,1,1,,,,,3,7,31,7,408.95685010000034,,,,,,,,,,,,,,,,,,,,,408.9420528999999,408.95685010000034,409.4410803999999,409.44644610000023,409.4670914000003,410.0745096999999,,,,,410.0747043000001,410.08995970000024,410.29018010000027,410.27403900000036,409.4670914000003,,,,,,,,0,1,0.6007659000001695,None,,,,,,,,857,22,M,R,2026-02-25_11h51.24.037,VisualSearch_2526_3,,2025.2.4,2026-02-25 11h51.24.376087 +0100,
vertical.xlsx,The target is tilted.,135,32,0,4,0,0,0,0,0,0,0,0,0,0,0,0,1,1,1,135,space,4.895705899999939,None,0,1,0.4982049000000188,None,space,1.9252814999999828,None,0,1,1,1,,,,,4,0,32,7,410.29018010000027,,,,,,,,,,,,,,,,,,,,,410.27486020000015,410.29018010000027,410.7739739000003,410.7793064000002,410.8004960000003,411.3070980000002,,,,,411.30730870000025,411.32309090000035,411.5231202,411.5069142000002,410.8004960000003,,,,,,,,0,1,0.4982049000000188,None,,,,,,,,857,22,M,R,2026-02-25_11h51.24.037,VisualSearch_2526_3,,2025.2.4,2026-02-25 11h51.24.376087 +0100,
vertical.xlsx,The target is tilted.,135,33,1,4,1,1,1,1,1,1,1,1,1,1,1,1,0,11,12,135,space,4.895705899999939,None,1,1,0.795984800000042,None,space,1.9252814999999828,None,0,1,1,1,,,,,4,1,33,0,411.5231202,,,,,,,,,,,,,,,,,,,,,411.50778089999994,411.5231202,412.00684470000033,412.01212970000006,412.0330606000002,412.84068060000027,,,,,412.8409007,412.8559236000001,413.05586070000027,413.03980619999993,412.0330606000002,,,,,,,,1,1,0.795984800000042,None,,,,,,,,857,22,M,R,2026-02-25_11h51.24.037,VisualSearch_2526_3,,2025.2.4,2026-02-25 11h51.24.376087 +0100,
vertical.xlsx,The target is tilted.,135,34,2,4,0,1,1,1,0,0,0,0,0,0,0,0,1,3,4,135,space,4.895705899999939,None,0,1,0.5509024999996655,None,space,1.9252814999999828,None,0,1,1,1,,,,,4,2,34,6,413.05586070000027,,,,,,,,,,,,,,,,,,,,,413.0406312,413.05586070000027,413.5397591000001,413.5450447000003,413.5661719,414.12316660000033,,,,,414.1233615000001,414.1388460000003,414.3387279000003,414.3225772999999,413.5661719,,,,,,,,0,1,0.5509024999996655,None,,,,,,,,857,22,M,R,2026-02-25_11h51.24.037,VisualSearch_2526_3,,2025.2.4,2026-02-25 11h51.24.376087 +0100,
vertical.xlsx,The target is tilted.,135,35,3,4,0,1,1,1,1,1,1,1,1,1,1,1,1,11,12,135,space,4.895705899999939,None,0,1,1.1566922000001796,None,space,1.9252814999999828,None,0,1,1,1,,,,,4,3,35,4,414.3387279000003,,,,,,,,,,,,,,,,,,,,,414.32342229999995,414.3387279000003,414.8226453000002,414.8279483000001,414.8492331000002,416.02215810000007,,,,,416.02230320000035,416.0381477000001,416.23824460000014,416.2222019999999,414.8492331000002,,,,,,,,0,1,1.1566922000001796,None,,,,,,,,857,22,M,R,2026-02-25_11h51.24.037,VisualSearch_2526_3,,2025.2.4,2026-02-25 11h51.24.376087 +0100,
