file_name,block_instructions,target_example,thisN,thisTrialN,thisRepN,target_presence,opacity_1,opacity_2,opacity_3,opacity_4,opacity_5,opacity_6,opacity_7,opacity_8,opacity_9,opacity_10,opacity_11,opacity_12,n_distract,n_items,target_ori,key_resp_4.keys,key_resp_4.rt,key_resp_4.duration,key_resp.keys,key_resp.corr,key_resp.rt,key_resp.duration,key_resp_5.keys,key_resp_5.rt,key_resp_5.duration,blocks.thisRepN,blocks.thisTrialN,blocks.thisN,blocks.thisIndex,practice_trials.thisRepN,practice_trials.thisTrialN,practice_trials.thisN,practice_trials.thisIndex,trials.thisRepN,trials.thisTrialN,trials.thisN,trials.thisIndex,thisRow.t,notes,Welcome.started,WelcomeText.started,key_resp_2.started,Welcome.stopped,key_resp_2.keys,key_resp_2.rt,key_resp_2.duration,InformedConsent.started,text_4.started,InformedConsent.stopped,key_resp_6.keys,key_resp_6.rt,key_resp_6.duration,key_resp_4.started,example_target.started,text_3.started,blocks.key_resp_4.keys,blocks.key_resp_4.rt,blocks.key_resp_4.duration,FixCross.started,fixCross.started,FixCross.stopped,Stimulus.started,key_resp.started,Stimulus.stopped,practice_trials.key_resp.keys,practice_trials.key_resp.corr,practice_trials.key_resp.rt,practice_trials.key_resp.duration,BlankScreen.started,text.started,text.stopped,BlankScreen.stopped,fixCross.stopped,ExperimentStart.started,text_2.started,key_resp_5.started,ExperimentStart.stopped,blocks.key_resp_5.keys,blocks.key_resp_5.rt,blocks.key_resp_5.duration,trials.key_resp.keys,trials.key_resp.corr,trials.key_resp.rt,trials.key_resp.duration,Thanks.started,ThankYou.started,key_resp_3.started,Thanks.stopped,key_resp_3.keys,key_resp_3.rt,key_resp_3.duration,participant,leeftijd,gender,links/rechtshandig,date,expName,expVersion,psychopyVersion,expStart,
,,,,,,,,,,,,,,,,,,,,,,,,,,,,,,,,,,,,,,,,,,,,,,0.03527829999984533,0.055741000000125496,0.055741000000125496,33.72171909999997,space,33.641817400000036,None,,,,,,,,,,,,,,,,,,,,,,,,,,,,,,,,,,,,,,,,,,,,,,858,20,M,L,2026-02-25_12h03.44.513,VisualSearch_2526_3,,2025.2.4,2026-02-25 12h03.44.879002 +0100,
,,,,,,,,,,,,,,,,,,,,,,,,,,,,,,,,,,,,,,,,,,,,,,,,,,,,,33.72197090000009,33.72986209999999,48.36673229999997,y,14.64178289999927,None,,,,,,,,,,,,,,,,,,,,,,,,,,,,,,,,,,,,,,,,858,20,M,L,2026-02-25_12h03.44.513,VisualSearch_2526_3,,2025.2.4,2026-02-25 12h03.44.879002 +0100,
tilted.xlsx,The target is tilted.,117,0,0,0,1,1,1,1,0,0,0,0,0,0,0,0,0,3,4,117,space,12.510214599999927,None,1,1,1.6842274000000543,None,,,,0,0,0,0,0,0,0,2,,,,,60.964672099999916,,,,,,,,,,,,,,,48.41492879999987,48.41492879999987,48.41492879999987,space,12.510214599999927,None,60.95907299999999,60.964672099999916,61.44439659999989,61.45003270000052,61.47211860000061,63.161392400000295,1,1,1.6842274000000543,None,63.16371150000032,63.17678419999993,63.377020200000516,63.36103860000003,,,,,,,,,,,,,,,,,,,,858,20,M,L,2026-02-25_12h03.44.513,VisualSearch_2526_3,,2025.2.4,2026-02-25 12h03.44.879002 +0100,
tilted.xlsx,The target is tilted.,117,1,1,0,0,1,1,1,1,1,1,1,1,1,1,1,1,11,12,117,space,12.510214599999927,None,1,0,6.35832930000015,None,,,,0,0,0,0,0,1,1,4,,,,,63.377020200000516,,,,,,,,,,,,,,,,,,,,,63.36178569999993,63.377020200000516,63.86083419999977,63.866249400000015,63.888678500000424,70.25990530000036,1,0,6.35832930000015,None,70.26014360000045,70.27469850000034,70.47465079999984,70.45828990000064,63.888678500000424,,,,,,,,,,,,,,,,,,,858,20,M,L,2026-02-25_12h03.44.513,VisualSearch_2526_3,,2025.2.4,2026-02-25 12h03.44.879002 +0100,
tilted.xlsx,The target is tilted.,117,2,2,0,1,0,0,0,0,0,0,0,0,0,0,0,0,0,1,117,space,12.510214599999927,None,0,0,1.2612466000000495,None,,,,0,0,0,0,0,2,2,3,,,,,70.47465079999984,,,,,,,,,,,,,,,,,,,,,70.45881910000026,70.47465079999984,70.9585388000005,70.96394880000025,70.98584810000011,72.25873539999975,0,0,1.2612466000000495,None,72.25895260000016,72.27365710000049,72.47376989999975,72.45763960000022,70.98584810000011,,,,,,,,,,,,,,,,,,,858,20,M,L,2026-02-25_12h03.44.513,VisualSearch_2526_3,,2025.2.4,2026-02-25 12h03.44.879002 +0100,
tilted.xlsx,The target is tilted.,117,3,3,0,1,1,1,1,1,1,1,1,0,0,0,0,0,7,8,117,space,12.510214599999927,None,1,1,6.497612900000604,None,,,,0,0,0,0,0,3,3,1,,,,,72.47376989999975,,,,,,,,,,,,,,,,,,,,,72.45839609999985,72.47376989999975,72.95787350000046,72.9628518999998,72.97334870000032,79.47301750000042,1,1,6.497612900000604,None,79.47325210000054,79.48768480000035,79.68789740000011,79.67254830000002,72.97334870000032,,,,,,,,,,,,,,,,,,,858,20,M,L,2026-02-25_12h03.44.513,VisualSearch_2526_3,,2025.2.4,2026-02-25 12h03.44.879002 +0100,
tilted.xlsx,The target is tilted.,117,4,4,0,0,0,0,0,0,0,0,0,0,0,0,0,1,1,1,117,space,12.510214599999927,None,0,1,1.1355418000002828,None,,,,0,0,0,0,0,4,4,7,,,,,79.68789740000011,,,,,,,,,,,,,,,,,,,,,79.67356629999995,79.68789740000011,80.17221940000036,80.17747700000018,80.19895980000001,81.33882770000037,0,1,1.1355418000002828,None,81.33904560000065,81.35412489999999,81.55440640000052,81.5382098,80.19895980000001,,,,,,,,,,,,,,,,,,,858,20,M,L,2026-02-25_12h03.44.513,VisualSearch_2526_3,,2025.2.4,2026-02-25 12h03.44.879002 +0100,
tilted.xlsx,The target is tilted.,117,5,5,0,0,1,1,1,0,0,0,0,0,0,0,0,1,3,4,117,space,12.510214599999927,None,0,1,1.7598290000005363,None,,,,0,0,0,0,0,5,5,6,,,,,81.55440640000052,,,,,,,,,,,,,,,,,,,,,81.53909290000047,81.55440640000052,82.03821609999977,82.0435778000001,82.06570569999985,83.8377429000002,0,1,1.7598290000005363,None,83.83796150000035,83.85308170000008,84.05364329999975,84.03748710000036,82.06570569999985,,,,,,,,,,,,,,,,,,,858,20,M,L,2026-02-25_12h03.44.513,VisualSearch_2526_3,,2025.2.4,2026-02-25 12h03.44.879002 +0100,
tilted.xlsx,The target is tilted.,117,6,6,0,0,1,1,1,1,1,1,1,0,0,0,0,1,7,8,117,space,12.510214599999927,None,1,0,3.151395699999739,None,,,,0,0,0,0,0,6,6,5,,,,,84.05364329999975,,,,,,,,,,,,,,,,,,,,,84.03821470000003,84.05364329999975,84.53745609999987,84.54302040000039,84.56447430000026,87.72004500000003,1,0,3.151395699999739,None,87.72026160000041,87.73524689999977,87.9357442999999,87.91967240000031,84.56447430000026,,,,,,,,,,,,,,,,,,,858,20,M,L,2026-02-25_12h03.44.513,VisualSearch_2526_3,,2025.2.4,2026-02-25 12h03.44.879002 +0100,
tilted.xlsx,The target is tilted.,117,7,7,0,1,1,1,1,1,1,1,1,1,1,1,1,0,11,12,117,space,12.510214599999927,None,1,1,10.733017800000198,None,,,,0,0,0,0,0,7,7,0,,,,,87.9357442999999,,,,,,,,,,,,,,,,,,,,,87.92043449999983,87.9357442999999,88.41931120000027,88.42470420000063,88.44712990000062,99.18393560000004,1,1,10.733017800000198,None,99.18432610000036,99.19823140000062,99.39824070000031,99.38260640000044,88.44712990000062,,,,,,,,,,,,,,,,,,,858,20,M,L,2026-02-25_12h03.44.513,VisualSearch_2526_3,,2025.2.4,2026-02-25 12h03.44.879002 +0100,
tilted.xlsx,The target is tilted.,117,0,0,0,1,1,1,1,0,0,0,0,0,0,0,0,0,3,4,117,space,12.510214599999927,None,1,1,2.310140599999613,None,space,2.416063500000746,None,0,0,0,0,,,,,0,0,0,2,101.8560594999999,,,,,,,,,,,,,,,,,,,,,101.85185900000033,101.8560594999999,102.3313476000003,102.3369260999998,102.35809979999976,104.68148410000049,,,,,104.68176459999995,104.696328,104.89676210000016,104.88042769999993,,99.39043339999989,99.39824070000031,99.39824070000031,101.81550849999985,space,2.416063500000746,None,1,1,2.310140599999613,None,,,,,,,,858,20,M,L,2026-02-25_12h03.44.513,VisualSearch_2526_3,,2025.2.4,2026-02-25 12h03.44.879002 +0100,
tilted.xlsx,The target is tilted.,117,1,1,0,0,1,1,1,0,0,0,0,0,0,0,0,1,3,4,117,space,12.510214599999927,None,0,1,1.2285283000001073,None,space,2.416063500000746,None,0,0,0,0,,,,,0,1,1,6,104.89676210000016,,,,,,,,,,,,,,,,,,,,,104.88129350000054,104.89676210000016,105.38061420000031,105.38687819999996,105.40821570000026,106.6382924999998,,,,,106.63841039999988,106.64535150000029,106.84609920000003,106.83011729999998,105.40821570000026,,,,,,,,0,1,1.2285283000001073,None,,,,,,,,858,20,M,L,2026-02-25_12h03.44.513,VisualSearch_2526_3,,2025.2.4,2026-02-25 12h03.44.879002 +0100,
tilted.xlsx,The target is tilted.,117,2,2,0,1,1,1,1,1,1,1,1,1,1,1,1,0,11,12,117,space,12.510214599999927,None,1,1,2.0352443000001585,None,space,2.416063500000746,None,0,0,0,0,,,,,0,2,2,0,106.84609920000003,,,,,,,,,,,,,,,,,,,,,106.83104110000022,106.84609920000003,107.32979100000011,107.33475790000011,107.34582039999987,109.39533300000039,,,,,109.3954534000004,109.41183499999988,109.61198659999991,109.59569629999987,107.34582039999987,,,,,,,,1,1,2.0352443000001585,None,,,,,,,,858,20,M,L,2026-02-25_12h03.44.513,VisualSearch_2526_3,,2025.2.4,2026-02-25 12h03.44.879002 +0100,
tilted.xlsx,The target is tilted.,117,3,3,0,0,1,1,1,1,1,1,1,1,1,1,1,1,11,12,117,space,12.510214599999927,None,0,1,6.610273899999811,None,space,2.416063500000746,None,0,0,0,0,,,,,0,3,3,4,109.61198659999991,,,,,,,,,,,,,,,,,,,,,109.59653290000006,109.61198659999991,110.09563600000001,110.10112130000016,110.12293769999997,116.74409509999987,,,,,116.74432290000004,116.75919680000061,116.95959889999995,116.94354750000002,110.12293769999997,,,,,,,,0,1,6.610273899999811,None,,,,,,,,858,20,M,L,2026-02-25_12h03.44.513,VisualSearch_2526_3,,2025.2.4,2026-02-25 12h03.44.879002 +0100,
tilted.xlsx,The target is tilted.,117,4,4,0,1,1,1,1,1,1,1,1,0,0,0,0,0,7,8,117,space,12.510214599999927,None,1,1,1.0498165999997582,None,space,2.416063500000746,None,0,0,0,0,,,,,0,4,4,1,116.95959889999995,,,,,,,,,,,,,,,,,,,,,116.94434830000046,116.95959889999995,117.44340019999981,117.44901329999993,117.47110990000056,118.52660939999987,,,,,118.52685329999986,118.54197540000041,118.74239339999986,118.72627620000003,117.47110990000056,,,,,,,,1,1,1.0498165999997582,None,,,,,,,,858,20,M,L,2026-02-25_12h03.44.513,VisualSearch_2526_3,,2025.2.4,2026-02-25 12h03.44.879002 +0100,
tilted.xlsx,The target is tilted.,117,5,5,0,1,0,0,0,0,0,0,0,0,0,0,0,0,0,1,117,space,12.510214599999927,None,1,1,0.8757709000001341,None,space,2.416063500000746,None,0,0,0,0,,,,,0,5,5,3,118.74239339999986,,,,,,,,,,,,,,,,,,,,,118.72708670000065,118.74239339999986,119.22619579999991,119.23135270000057,119.24189960000058,120.12534469999991,,,,,120.12548270000025,120.1410734000001,120.34105020000061,120.32471900000019,119.24189960000058,,,,,,,,1,1,0.8757709000001341,None,,,,,,,,858,20,M,L,2026-02-25_12h03.44.513,VisualSearch_2526_3,,2025.2.4,2026-02-25 12h03.44.879002 +0100,
tilted.xlsx,The target is tilted.,117,6,6,0,0,0,0,0,0,0,0,0,0,0,0,0,1,1,1,117,space,12.510214599999927,None,0,1,0.6341747999995277,None,space,2.416063500000746,None,0,0,0,0,,,,,0,6,6,7,120.34105020000061,,,,,,,,,,,,,,,,,,,,,120.32516320000013,120.34105020000061,120.82502490000024,120.82683850000012,120.84090830000059,121.49136610000005,,,,,121.49148500000047,121.50732250000056,121.7072546999998,121.69088439999996,120.84090830000059,,,,,,,,0,1,0.6341747999995277,None,,,,,,,,858,20,M,L,2026-02-25_12h03.44.513,VisualSearch_2526_3,,2025.2.4,2026-02-25 12h03.44.879002 +0100,
tilted.xlsx,The target is tilted.,117,7,7,0,0,1,1,1,1,1,1,1,0,0,0,0,1,7,8,117,space,12.510214599999927,None,0,1,5.210069000000658,None,space,2.416063500000746,None,0,0,0,0,,,,,0,7,7,5,121.7072546999998,,,,,,,,,,,,,,,,,,,,,121.69131540000035,121.7072546999998,122.19083599999976,122.19365569999991,122.20764860000054,127.42409560000033,,,,,127.42431740000029,127.43896899999982,127.63933960000031,127.62313470000026,122.20764860000054,,,,,,,,0,1,5.210069000000658,None,,,,,,,,858,20,M,L,2026-02-25_12h03.44.513,VisualSearch_2526_3,,2025.2.4,2026-02-25 12h03.44.879002 +0100,
tilted.xlsx,The target is tilted.,117,8,0,1,0,1,1,1,1,1,1,1,1,1,1,1,1,11,12,117,space,12.510214599999927,None,0,1,5.9113680999998905,None,space,2.416063500000746,None,0,0,0,0,,,,,1,0,8,4,127.63933960000031,,,,,,,,,,,,,,,,,,,,,127.62398519999988,127.63933960000031,128.12287389999983,128.12842210000053,128.15076360000057,134.07192740000028,,,,,134.07215110000016,134.08685109999988,134.28732760000003,134.27090820000012,128.15076360000057,,,,,,,,0,1,5.9113680999998905,None,,,,,,,,858,20,M,L,2026-02-25_12h03.44.513,VisualSearch_2526_3,,2025.2.4,2026-02-25 12h03.44.879002 +0100,
tilted.xlsx,The target is tilted.,117,9,1,1,1,1,1,1,0,0,0,0,0,0,0,0,0,3,4,117,space,12.510214599999927,None,1,1,1.3707856000000902,None,space,2.416063500000746,None,0,0,0,0,,,,,1,1,9,2,134.28732760000003,,,,,,,,,,,,,,,,,,,,,134.2717518999998,134.28732760000003,134.77107119999982,134.77626070000042,134.7868765000003,136.17054559999997,,,,,136.1707494000002,136.1858639000002,136.38631270000042,136.37056180000036,134.7868765000003,,,,,,,,1,1,1.3707856000000902,None,,,,,,,,858,20,M,L,2026-02-25_12h03.44.513,VisualSearch_2526_3,,2025.2.4,2026-02-25 12h03.44.879002 +0100,
tilted.xlsx,The target is tilted.,117,10,2,1,0,0,0,0,0,0,0,0,0,0,0,0,1,1,1,117,space,12.510214599999927,None,0,1,0.6704107999994449,None,space,2.416063500000746,None,0,0,0,0,,,,,1,2,10,7,136.38631270000042,,,,,,,,,,,,,,,,,,,,,136.3713744000006,136.38631270000042,136.8700546,136.8753783000002,136.89715650000016,137.57103090000055,,,,,137.57133560000057,137.5856491000004,137.78609770000003,137.76994150000064,136.89715650000016,,,,,,,,0,1,0.6704107999994449,None,,,,,,,,858,20,M,L,2026-02-25_12h03.44.513,VisualSearch_2526_3,,2025.2.4,2026-02-25 12h03.44.879002 +0100,
tilted.xlsx,The target is tilted.,117,11,3,1,1,0,0,0,0,0,0,0,0,0,0,0,0,0,1,117,space,12.510214599999927,None,1,1,0.7289651999999478,None,space,2.416063500000746,None,0,0,0,0,,,,,1,3,11,3,137.78609770000003,,,,,,,,,,,,,,,,,,,,,137.7707916999998,137.78609770000003,138.2698973000006,138.27520840000034,138.29701209999985,139.0370214000004,,,,,139.03723979999995,139.05190740000035,139.25232890000007,139.23625129999982,138.29701209999985,,,,,,,,1,1,0.7289651999999478,None,,,,,,,,858,20,M,L,2026-02-25_12h03.44.513,VisualSearch_2526_3,,2025.2.4,2026-02-25 12h03.44.879002 +0100,
tilted.xlsx,The target is tilted.,117,12,4,1,0,1,1,1,1,1,1,1,0,0,0,0,1,7,8,117,space,12.510214599999927,None,0,1,4.401303700000426,None,space,2.416063500000746,None,0,0,0,0,,,,,1,4,12,5,139.25232890000007,,,,,,,,,,,,,,,,,,,,,139.23710610000035,139.25232890000007,139.73601260000032,139.74150400000053,139.7637082000001,144.16795319999983,,,,,144.16807510000035,144.1832445,144.38369169999987,144.36775240000043,139.7637082000001,,,,,,,,0,1,4.401303700000426,None,,,,,,,,858,20,M,L,2026-02-25_12h03.44.513,VisualSearch_2526_3,,2025.2.4,2026-02-25 12h03.44.879002 +0100,
tilted.xlsx,The target is tilted.,117,13,5,1,0,1,1,1,0,0,0,0,0,0,0,0,1,3,4,117,space,12.510214599999927,None,0,1,1.6722343999999794,None,space,2.416063500000746,None,0,0,0,0,,,,,1,5,13,6,144.38369169999987,,,,,,,,,,,,,,,,,,,,,144.3686256000001,144.38369169999987,144.86848960000043,144.87386950000018,144.89226830000007,146.56807220000064,,,,,146.56829670000025,146.58245380000062,146.78295720000006,146.76716130000023,144.89226830000007,,,,,,,,0,1,1.6722343999999794,None,,,,,,,,858,20,M,L,2026-02-25_12h03.44.513,VisualSearch_2526_3,,2025.2.4,2026-02-25 12h03.44.879002 +0100,
tilted.xlsx,The target is tilted.,117,14,6,1,1,1,1,1,1,1,1,1,1,1,1,1,0,11,12,117,space,12.510214599999927,None,1,1,2.28328109999984,None,space,2.416063500000746,None,0,0,0,0,,,,,1,6,14,0,146.78295720000006,,,,,,,,,,,,,,,,,,,,,146.76796090000062,146.78295720000006,147.26661440000044,147.27200559999983,147.29353510000055,149.58321930000056,,,,,149.58343820000027,149.59846749999997,149.79897100000017,149.78281659999993,147.29353510000055,,,,,,,,1,1,2.28328109999984,None,,,,,,,,858,20,M,L,2026-02-25_12h03.44.513,VisualSearch_2526_3,,2025.2.4,2026-02-25 12h03.44.879002 +0100,
tilted.xlsx,The target is tilted.,117,15,7,1,1,1,1,1,1,1,1,1,0,0,0,0,0,7,8,117,space,12.510214599999927,None,1,1,2.1017350000001898,None,space,2.416063500000746,None,0,0,0,0,,,,,1,7,15,1,149.79897100000017,,,,,,,,,,,,,,,,,,,,,149.78366000000005,149.79897100000017,150.28220760000022,150.2862251000006,150.30694110000059,152.41586580000057,,,,,152.4161184000004,152.43086630000016,152.63136209999993,152.61526310000045,150.30694110000059,,,,,,,,1,1,2.1017350000001898,None,,,,,,,,858,20,M,L,2026-02-25_12h03.44.513,VisualSearch_2526_3,,2025.2.4,2026-02-25 12h03.44.879002 +0100,
tilted.xlsx,The target is tilted.,117,16,0,2,1,1,1,1,1,1,1,1,0,0,0,0,0,7,8,117,space,12.510214599999927,None,0,0,2.122409799999332,None,space,2.416063500000746,None,0,0,0,0,,,,,2,0,16,1,152.63136209999993,,,,,,,,,,,,,,,,,,,,,152.61607000000004,152.63136209999993,153.1151464000004,153.12054340000032,153.1423777,155.28043350000007,,,,,155.28055330000007,155.2967177999999,,155.4807853000002,153.1423777,,,,,,,,0,0,2.122409799999332,None,,,,,,,,858,20,M,L,2026-02-25_12h03.44.513,VisualSearch_2526_3,,2025.2.4,2026-02-25 12h03.44.879002 +0100,
tilted.xlsx,The target is tilted.,117,17,1,2,1,0,0,0,0,0,0,0,0,0,0,0,0,0,1,117,space,12.510214599999927,None,1,1,0.8972857999997359,None,space,2.416063500000746,None,0,0,0,0,,,,,2,1,17,3,155.49706640000022,,,,,,,,,,,,,,,,,,,,,155.48169460000008,155.49706640000022,155.9808578000002,155.98620579999988,156.00794889999997,156.9143363000003,,,,,156.91456860000017,156.92915210000046,157.1295756999998,157.11341110000012,156.00794889999997,,,,,,,,1,1,0.8972857999997359,None,,,,,,,,858,20,M,L,2026-02-25_12h03.44.513,VisualSearch_2526_3,,2025.2.4,2026-02-25 12h03.44.879002 +0100,
tilted.xlsx,The target is tilted.,117,18,2,2,0,1,1,1,1,1,1,1,1,1,1,1,1,11,12,117,space,12.510214599999927,None,0,1,6.488805899999534,None,space,2.416063500000746,None,0,0,0,0,,,,,2,2,18,4,157.1295756999998,,,,,,,,,,,,,,,,,,,,,157.11424309999984,157.1295756999998,157.6134437999999,157.61892660000012,157.63975889999983,164.14494430000013,,,,,164.1451715000003,164.16007480000007,164.3608417000005,164.34460540000055,157.63975889999983,,,,,,,,0,1,6.488805899999534,None,,,,,,,,858,20,M,L,2026-02-25_12h03.44.513,VisualSearch_2526_3,,2025.2.4,2026-02-25 12h03.44.879002 +0100,
tilted.xlsx,The target is tilted.,117,19,3,2,0,1,1,1,0,0,0,0,0,0,0,0,1,3,4,117,space,12.510214599999927,None,0,1,1.3012020999995002,None,space,2.416063500000746,None,0,0,0,0,,,,,2,3,19,6,164.3608417000005,,,,,,,,,,,,,,,,,,,,,164.34545380000054,164.3608417000005,164.84441349999997,164.8501769000004,164.8721899000002,166.17774180000015,,,,,166.1779647000003,166.1927555000002,166.39321740000014,166.37724489999982,164.8721899000002,,,,,,,,0,1,1.3012020999995002,None,,,,,,,,858,20,M,L,2026-02-25_12h03.44.513,VisualSearch_2526_3,,2025.2.4,2026-02-25 12h03.44.879002 +0100,
tilted.xlsx,The target is tilted.,117,20,4,2,1,1,1,1,0,0,0,0,0,0,0,0,0,3,4,117,space,12.510214599999927,None,1,1,1.316052000000127,None,space,2.416063500000746,None,0,0,0,0,,,,,2,4,20,2,166.39321740000014,,,,,,,,,,,,,,,,,,,,,166.37812600000052,166.39321740000014,166.8773302999998,166.88235470000018,166.89351559999977,168.2108275999999,,,,,168.2110485000003,168.22573720000037,168.4261919999999,168.41003890000047,166.89351559999977,,,,,,,,1,1,1.316052000000127,None,,,,,,,,858,20,M,L,2026-02-25_12h03.44.513,VisualSearch_2526_3,,2025.2.4,2026-02-25 12h03.44.879002 +0100,
tilted.xlsx,The target is tilted.,117,21,5,2,1,1,1,1,1,1,1,1,1,1,1,1,0,11,12,117,space,12.510214599999927,None,1,1,1.9682369000001927,None,space,2.416063500000746,None,0,0,0,0,,,,,2,5,21,0,168.4261919999999,,,,,,,,,,,,,,,,,,,,,168.41085600000042,168.4261919999999,168.91003530000035,168.91537299999982,168.93754059999992,170.90965719999986,,,,,170.9098825000001,170.9249122000001,171.12525760000062,171.1091989000006,168.93754059999992,,,,,,,,1,1,1.9682369000001927,None,,,,,,,,858,20,M,L,2026-02-25_12h03.44.513,VisualSearch_2526_3,,2025.2.4,2026-02-25 12h03.44.879002 +0100,
tilted.xlsx,The target is tilted.,117,22,6,2,0,0,0,0,0,0,0,0,0,0,0,0,1,1,1,117,space,12.510214599999927,None,0,1,1.061254199999894,None,space,2.416063500000746,None,0,0,0,0,,,,,2,6,22,7,171.12525760000062,,,,,,,,,,,,,,,,,,,,,171.11001360000046,171.12525760000062,171.60906500000056,171.61459950000062,171.63691930000005,172.70944260000033,,,,,172.70966540000063,172.72431300000062,172.92460550000033,172.90866180000012,171.63691930000005,,,,,,,,0,1,1.061254199999894,None,,,,,,,,858,20,M,L,2026-02-25_12h03.44.513,VisualSearch_2526_3,,2025.2.4,2026-02-25 12h03.44.879002 +0100,
tilted.xlsx,The target is tilted.,117,23,7,2,0,1,1,1,1,1,1,1,0,0,0,0,1,7,8,117,space,12.510214599999927,None,0,1,4.408833199999208,None,space,2.416063500000746,None,0,0,0,0,,,,,2,7,23,5,172.92460550000033,,,,,,,,,,,,,,,,,,,,,172.90946500000064,172.92460550000033,173.40855759999977,173.41374520000045,173.43526420000035,177.8570878999999,,,,,177.85732610000014,177.87251629999992,178.07283879999977,178.05657539999993,173.43526420000035,,,,,,,,0,1,4.408833199999208,None,,,,,,,,858,20,M,L,2026-02-25_12h03.44.513,VisualSearch_2526_3,,2025.2.4,2026-02-25 12h03.44.879002 +0100,
tilted.xlsx,The target is tilted.,117,24,0,3,1,1,1,1,1,1,1,1,1,1,1,1,0,11,12,117,space,12.510214599999927,None,1,1,3.24578240000028,None,space,2.416063500000746,None,0,0,0,0,,,,,3,0,24,0,178.07283879999977,,,,,,,,,,,,,,,,,,,,,178.05743669999993,178.07283879999977,178.55676260000018,178.56228569999985,178.58327660000032,181.83962280000014,,,,,181.83988320000026,181.85455319999983,182.05497900000046,182.03906150000057,178.58327660000032,,,,,,,,1,1,3.24578240000028,None,,,,,,,,858,20,M,L,2026-02-25_12h03.44.513,VisualSearch_2526_3,,2025.2.4,2026-02-25 12h03.44.879002 +0100,
tilted.xlsx,The target is tilted.,117,25,1,3,0,1,1,1,1,1,1,1,1,1,1,1,1,11,12,117,space,12.510214599999927,None,0,1,6.167254399999365,None,space,2.416063500000746,None,0,0,0,0,,,,,3,1,25,4,182.05497900000046,,,,,,,,,,,,,,,,,,,,,182.03991300000052,182.05497900000046,182.53897360000065,182.5443597000003,182.56627819999994,188.73709289999988,,,,,188.73731970000063,188.7524795999998,188.95280619999994,188.9366742000002,182.56627819999994,,,,,,,,0,1,6.167254399999365,None,,,,,,,,858,20,M,L,2026-02-25_12h03.44.513,VisualSearch_2526_3,,2025.2.4,2026-02-25 12h03.44.879002 +0100,
tilted.xlsx,The target is tilted.,117,26,2,3,0,0,0,0,0,0,0,0,0,0,0,0,1,1,1,117,space,12.510214599999927,None,0,1,1.4815256000001682,None,space,2.416063500000746,None,0,0,0,0,,,,,3,2,26,7,188.95280619999994,,,,,,,,,,,,,,,,,,,,,188.93758909999997,188.95280619999994,189.4365746000003,189.44188450000001,189.46391060000042,190.95337440000003,,,,,190.9536136000006,190.96803379999983,191.16823320000003,191.15231630000017,189.46391060000042,,,,,,,,0,1,1.4815256000001682,None,,,,,,,,858,20,M,L,2026-02-25_12h03.44.513,VisualSearch_2526_3,,2025.2.4,2026-02-25 12h03.44.879002 +0100,
tilted.xlsx,The target is tilted.,117,27,3,3,0,1,1,1,0,0,0,0,0,0,0,0,1,3,4,117,space,12.510214599999927,None,0,1,1.669187200000124,None,space,2.416063500000746,None,0,0,0,0,,,,,3,3,27,6,191.16823320000003,,,,,,,,,,,,,,,,,,,,,191.15312280000035,191.16823320000003,191.65254580000055,191.65790360000028,191.67984119999983,193.35269359999984,,,,,193.35293120000006,193.3675659999999,193.56755190000058,193.55151260000002,191.67984119999983,,,,,,,,0,1,1.669187200000124,None,,,,,,,,858,20,M,L,2026-02-25_12h03.44.513,VisualSearch_2526_3,,2025.2.4,2026-02-25 12h03.44.879002 +0100,
tilted.xlsx,The target is tilted.,117,28,4,3,1,1,1,1,0,0,0,0,0,0,0,0,0,3,4,117,space,12.510214599999927,None,1,1,0.9371784000004482,None,space,2.416063500000746,None,0,0,0,0,,,,,3,4,28,2,193.56755190000058,,,,,,,,,,,,,,,,,,,,,193.5523315999999,193.56755190000058,194.05160590000014,194.05703150000045,194.07869879999998,195.01875970000037,,,,,195.01898810000057,195.03337319999991,195.23397680000016,195.2180210000006,194.07869879999998,,,,,,,,1,1,0.9371784000004482,None,,,,,,,,858,20,M,L,2026-02-25_12h03.44.513,VisualSearch_2526_3,,2025.2.4,2026-02-25 12h03.44.879002 +0100,
tilted.xlsx,The target is tilted.,117,29,5,3,1,0,0,0,0,0,0,0,0,0,0,0,0,0,1,117,space,12.510214599999927,None,1,1,0.7525949999999284,None,space,2.416063500000746,None,0,0,0,0,,,,,3,5,29,3,195.23397680000016,,,,,,,,,,,,,,,,,,,,,195.21881810000014,195.23397680000016,195.71800130000065,195.7233857000001,195.7443499000001,196.50121970000055,,,,,196.50147970000035,196.5165551,196.71696479999991,196.70092320000003,195.7443499000001,,,,,,,,1,1,0.7525949999999284,None,,,,,,,,858,20,M,L,2026-02-25_12h03.44.513,VisualSearch_2526_3,,2025.2.4,2026-02-25 12h03.44.879002 +0100,
tilted.xlsx,The target is tilted.,117,30,6,3,0,1,1,1,1,1,1,1,0,0,0,0,1,7,8,117,space,12.510214599999927,None,0,1,3.7363633000004484,None,space,2.416063500000746,None,0,0,0,0,,,,,3,6,30,5,196.71696479999991,,,,,,,,,,,,,,,,,,,,,196.70172660000026,196.71696479999991,197.20071740000003,197.20603550000033,197.22355169999992,200.96675420000065,,,,,200.96702970000024,200.9814092000006,201.1821434000003,201.16605510000045,197.22355169999992,,,,,,,,0,1,3.7363633000004484,None,,,,,,,,858,20,M,L,2026-02-25_12h03.44.513,VisualSearch_2526_3,,2025.2.4,2026-02-25 12h03.44.879002 +0100,
tilted.xlsx,The target is tilted.,117,31,7,3,1,1,1,1,1,1,1,1,0,0,0,0,0,7,8,117,space,12.510214599999927,None,1,1,2.2219075000002704,None,space,2.416063500000746,None,0,0,0,0,,,,,3,7,31,1,201.1821434000003,,,,,,,,,,,,,,,,,,,,,201.16687619999993,201.1821434000003,201.6659735000003,201.67134480000004,201.6930000000002,203.9322812999999,,,,,203.9325447000001,203.94733220000035,204.14785260000008,204.13187060000018,201.6930000000002,,,,,,,,1,1,2.2219075000002704,None,,,,,,,,858,20,M,L,2026-02-25_12h03.44.513,VisualSearch_2526_3,,2025.2.4,2026-02-25 12h03.44.879002 +0100,
tilted.xlsx,The target is tilted.,117,32,0,4,0,0,0,0,0,0,0,0,0,0,0,0,1,1,1,117,space,12.510214599999927,None,0,1,0.7345390000000407,None,space,2.416063500000746,None,0,0,0,0,,,,,4,0,32,7,204.14785260000008,,,,,,,,,,,,,,,,,,,,,204.1326927,204.14785260000008,204.63161560000026,204.63698410000052,204.65876879999996,205.39864790000047,,,,,205.39890699999978,205.4136128,205.6139561,205.59798320000027,204.65876879999996,,,,,,,,0,1,0.7345390000000407,None,,,,,,,,858,20,M,L,2026-02-25_12h03.44.513,VisualSearch_2526_3,,2025.2.4,2026-02-25 12h03.44.879002 +0100,
tilted.xlsx,The target is tilted.,117,33,1,4,1,1,1,1,0,0,0,0,0,0,0,0,0,3,4,117,space,12.510214599999927,None,1,1,1.109704800000145,None,space,2.416063500000746,None,0,0,0,0,,,,,4,1,33,2,205.6139561,,,,,,,,,,,,,,,,,,,,,205.5988040000002,205.6139561,206.09784469999977,206.1031995000003,206.12491560000035,207.2474726999999,,,,,207.2476704999999,207.2627351000001,207.46304430000055,207.44732999999997,206.12491560000035,,,,,,,,1,1,1.109704800000145,None,,,,,,,,858,20,M,L,2026-02-25_12h03.44.513,VisualSearch_2526_3,,2025.2.4,2026-02-25 12h03.44.879002 +0100,
tilted.xlsx,The target is tilted.,117,34,2,4,0,1,1,1,0,0,0,0,0,0,0,0,1,3,4,117,space,12.510214599999927,None,0,1,0.9809096999997564,None,space,2.416063500000746,None,0,0,0,0,,,,,4,2,34,6,207.46304430000055,,,,,,,,,,,,,,,,,,,,,207.4481593999999,207.46304430000055,207.94721930000014,207.95191890000024,207.9630305999999,208.94729740000002,,,,,208.94754180000018,208.96216450000065,209.16291180000007,209.14668419999998,207.9630305999999,,,,,,,,0,1,0.9809096999997564,None,,,,,,,,858,20,M,L,2026-02-25_12h03.44.513,VisualSearch_2526_3,,2025.2.4,2026-02-25 12h03.44.879002 +0100,
tilted.xlsx,The target is tilted.,117,35,3,4,0,1,1,1,1,1,1,1,0,0,0,0,1,7,8,117,space,12.510214599999927,None,0,1,3.5094067999998515,None,space,2.416063500000746,None,0,0,0,0,,,,,4,3,35,5,209.16291180000007,,,,,,,,,,,,,,,,,,,,,209.14753759999985,209.16291180000007,209.64665120000063,209.65199089999987,209.6733009999998,213.19540570000026,,,,,213.19561870000052,213.21098390000043,213.4114614,213.39543610000055,209.6733009999998,,,,,,,,0,1,3.5094067999998515,None,,,,,,,,858,20,M,L,2026-02-25_12h03.44.513,VisualSearch_2526_3,,2025.2.4,2026-02-25 12h03.44.879002 +0100,
tilted.xlsx,The target is tilted.,117,36,4,4,1,1,1,1,1,1,1,1,1,1,1,1,0,11,12,117,space,12.510214599999927,None,1,1,2.283031199999641,None,space,2.416063500000746,None,0,0,0,0,,,,,4,4,36,0,213.4114614,,,,,,,,,,,,,,,,,,,,,213.39623570000003,213.4114614,213.89514390000022,213.90072750000036,213.9227864000004,216.21177440000065,,,,,216.21202559999983,216.22677300000032,216.4272202000002,216.41107160000047,213.9227864000004,,,,,,,,1,1,2.283031199999641,None,,,,,,,,858,20,M,L,2026-02-25_12h03.44.513,VisualSearch_2526_3,,2025.2.4,2026-02-25 12h03.44.879002 +0100,
tilted.xlsx,The target is tilted.,117,37,5,4,1,1,1,1,1,1,1,1,0,0,0,0,0,7,8,117,space,12.510214599999927,None,1,1,2.307876099999703,None,space,2.416063500000746,None,0,0,0,0,,,,,4,5,37,1,216.4272202000002,,,,,,,,,,,,,,,,,,,,,216.41195270000026,216.4272202000002,216.91103360000034,216.91632730000038,216.93747940000048,219.26042980000057,,,,,219.2606611000001,219.27575380000053,219.47616149999976,219.45972700000038,216.93747940000048,,,,,,,,1,1,2.307876099999703,None,,,,,,,,858,20,M,L,2026-02-25_12h03.44.513,VisualSearch_2526_3,,2025.2.4,2026-02-25 12h03.44.879002 +0100,
tilted.xlsx,The target is tilted.,117,38,6,4,1,0,0,0,0,0,0,0,0,0,0,0,0,0,1,117,space,12.510214599999927,None,1,1,1.0990075999998226,None,space,2.416063500000746,None,0,0,0,0,,,,,4,6,38,3,219.47616149999976,,,,,,,,,,,,,,,,,,,,,219.4604706,219.47616149999976,219.96004859999994,219.9653229000005,219.9871432,221.09371379999993,,,,,221.09393309999996,221.10858069999995,221.30893670000023,221.29285030000028,219.9871432,,,,,,,,1,1,1.0990075999998226,None,,,,,,,,858,20,M,L,2026-02-25_12h03.44.513,VisualSearch_2526_3,,2025.2.4,2026-02-25 12h03.44.879002 +0100,
tilted.xlsx,The target is tilted.,117,39,7,4,0,1,1,1,1,1,1,1,1,1,1,1,1,11,12,117,space,12.510214599999927,None,0,1,5.350419899999906,None,space,2.416063500000746,None,0,0,0,0,,,,,4,7,39,4,221.30893670000023,,,,,,,,,,,,,,,,,,,,,221.29366430000027,221.30893670000023,221.79268200000024,221.79793400000017,221.81952309999997,227.17457580000064,,,,,227.17479809999986,227.18956049999997,227.39033149999977,227.37384500000007,221.81952309999997,,,,,,,,0,1,5.350419899999906,None,,,,,,,,858,20,M,L,2026-02-25_12h03.44.513,VisualSearch_2526_3,,2025.2.4,2026-02-25 12h03.44.879002 +0100,
tilted.xlsx,The target is tilted.,117,40,0,5,0,1,1,1,1,1,1,1,0,0,0,0,1,7,8,117,space,12.510214599999927,None,0,1,4.23062039999968,None,space,2.416063500000746,None,0,0,0,0,,,,,5,0,40,5,227.39033149999977,,,,,,,,,,,,,,,,,,,,,227.3746686000004,227.39033149999977,227.87375729999985,227.87920759999997,227.9011956000004,232.13979000000018,,,,,232.13998410000022,232.1548717000005,232.3550224999999,232.3391384000006,227.9011956000004,,,,,,,,0,1,4.23062039999968,None,,,,,,,,858,20,M,L,2026-02-25_12h03.44.513,VisualSearch_2526_3,,2025.2.4,2026-02-25 12h03.44.879002 +0100,
tilted.xlsx,The target is tilted.,117,41,1,5,1,0,0,0,0,0,0,0,0,0,0,0,0,0,1,117,space,12.510214599999927,None,1,1,0.8121930999996039,None,space,2.416063500000746,None,0,0,0,0,,,,,5,1,41,3,232.3550224999999,,,,,,,,,,,,,,,,,,,,,232.33998969999993,232.3550224999999,232.83911870000065,232.84456020000016,232.86668009999994,233.68946080000023,,,,,233.6896966000004,233.7041061,233.90479930000038,233.88864660000036,232.86668009999994,,,,,,,,1,1,0.8121930999996039,None,,,,,,,,858,20,M,L,2026-02-25_12h03.44.513,VisualSearch_2526_3,,2025.2.4,2026-02-25 12h03.44.879002 +0100,
tilted.xlsx,The target is tilted.,117,42,2,5,0,1,1,1,0,0,0,0,0,0,0,0,1,3,4,117,space,12.510214599999927,None,0,1,2.6253711999997904,None,space,2.416063500000746,None,0,0,0,0,,,,,5,2,42,6,233.90479930000038,,,,,,,,,,,,,,,,,,,,,233.88950310000018,233.90479930000038,234.38866510000025,234.39394960000027,234.41523419999976,237.05366200000026,,,,,237.05378519999977,237.07005220000065,,237.2539185000005,234.41523419999976,,,,,,,,0,1,2.6253711999997904,None,,,,,,,,858,20,M,L,2026-02-25_12h03.44.513,VisualSearch_2526_3,,2025.2.4,2026-02-25 12h03.44.879002 +0100,
tilted.xlsx,The target is tilted.,117,43,3,5,0,0,0,0,0,0,0,0,0,0,0,0,1,1,1,117,space,12.510214599999927,None,0,1,0.7514070999995965,None,space,2.416063500000746,None,0,0,0,0,,,,,5,3,43,7,237.27044900000055,,,,,,,,,,,,,,,,,,,,,237.2547714000002,237.27044900000055,237.75394460000007,237.7592795999999,237.78111630000058,238.53771680000045,,,,,238.53796450000027,238.55285569999978,238.7528768000002,238.73711139999978,237.78111630000058,,,,,,,,0,1,0.7514070999995965,None,,,,,,,,858,20,M,L,2026-02-25_12h03.44.513,VisualSearch_2526_3,,2025.2.4,2026-02-25 12h03.44.879002 +0100,
tilted.xlsx,The target is tilted.,117,44,4,5,1,1,1,1,1,1,1,1,0,0,0,0,0,7,8,117,space,12.510214599999927,None,1,1,1.4493255000006684,None,space,2.416063500000746,None,0,0,0,0,,,,,5,4,44,1,238.7528768000002,,,,,,,,,,,,,,,,,,,,,238.7380079000004,238.7528768000002,239.23711509999976,239.24247879999984,239.25795720000042,240.71920520000003,,,,,240.71932670000024,240.73567619999994,240.93573840000045,240.91946160000043,239.25795720000042,,,,,,,,1,1,1.4493255000006684,None,,,,,,,,858,20,M,L,2026-02-25_12h03.44.513,VisualSearch_2526_3,,2025.2.4,2026-02-25 12h03.44.879002 +0100,
tilted.xlsx,The target is tilted.,117,45,5,5,0,1,1,1,1,1,1,1,1,1,1,1,1,11,12,117,space,12.510214599999927,None,0,1,5.808322500000031,None,space,2.416063500000746,None,0,0,0,0,,,,,5,5,45,4,240.93573840000045,,,,,,,,,,,,,,,,,,,,,240.92033410000022,240.93573840000045,241.41969280000012,241.42499860000044,241.44613990000016,247.26700540000002,,,,,247.2671261000005,247.28305189999992,,247.4673410000005,241.44613990000016,,,,,,,,0,1,5.808322500000031,None,,,,,,,,858,20,M,L,2026-02-25_12h03.44.513,VisualSearch_2526_3,,2025.2.4,2026-02-25 12h03.44.879002 +0100,
tilted.xlsx,The target is tilted.,117,46,6,5,1,1,1,1,0,0,0,0,0,0,0,0,0,3,4,117,space,12.510214599999927,None,1,1,1.0565659000003507,None,space,2.416063500000746,None,0,0,0,0,,,,,5,6,46,2,247.4835678999998,,,,,,,,,,,,,,,,,,,,,247.46828770000047,247.4835678999998,247.9669345000002,247.9695883000004,247.98313659999985,249.05136579999999,,,,,249.05166520000057,249.06577629999992,249.2662332,249.25045899999986,247.98313659999985,,,,,,,,1,1,1.0565659000003507,None,,,,,,,,858,20,M,L,2026-02-25_12h03.44.513,VisualSearch_2526_3,,2025.2.4,2026-02-25 12h03.44.879002 +0100,
tilted.xlsx,The target is tilted.,117,47,7,5,1,1,1,1,1,1,1,1,1,1,1,1,0,11,12,117,space,12.510214599999927,None,1,1,1.3850023000004512,None,space,2.416063500000746,None,0,0,0,0,,,,,5,7,47,0,249.2662332,,,,,,,,,,,,,,,,,,,,,249.2512897000006,249.2662332,249.75032050000027,249.7555639000002,249.77729890000046,251.16668870000012,,,,,251.16690990000006,251.18204539999988,251.38247279999996,251.3664864000002,249.77729890000046,,,,,,,,1,1,1.3850023000004512,None,,,,,,,,858,20,M,L,2026-02-25_12h03.44.513,VisualSearch_2526_3,,2025.2.4,2026-02-25 12h03.44.879002 +0100,
tilted.xlsx,The target is tilted.,117,48,0,6,0,1,1,1,1,1,1,1,0,0,0,0,1,7,8,117,space,12.510214599999927,None,0,1,3.3564859000007345,None,space,2.416063500000746,None,0,0,0,0,,,,,6,0,48,5,251.38247279999996,,,,,,,,,,,,,,,,,,,,,251.3672948000003,251.38247279999996,251.86620800000037,251.8715086000002,251.89246259999982,255.26529649999975,,,,,255.26552210000045,255.2807211999998,255.4811539000002,255.4650003000006,251.89246259999982,,,,,,,,0,1,3.3564859000007345,None,,,,,,,,858,20,M,L,2026-02-25_12h03.44.513,VisualSearch_2526_3,,2025.2.4,2026-02-25 12h03.44.879002 +0100,
tilted.xlsx,The target is tilted.,117,49,1,6,0,1,1,1,1,1,1,1,1,1,1,1,1,11,12,117,space,12.510214599999927,None,0,1,4.3514414000001125,None,space,2.416063500000746,None,0,0,0,0,,,,,6,1,49,4,255.4811539000002,,,,,,,,,,,,,,,,,,,,,255.4658231000003,255.4811539000002,255.9648474000005,255.97015550000015,255.99204540000028,260.3470404999998,,,,,260.34726150000006,260.3620484000003,260.5628488000002,260.54664870000033,255.99204540000028,,,,,,,,0,1,4.3514414000001125,None,,,,,,,,858,20,M,L,2026-02-25_12h03.44.513,VisualSearch_2526_3,,2025.2.4,2026-02-25 12h03.44.879002 +0100,
tilted.xlsx,The target is tilted.,117,50,2,6,1,1,1,1,1,1,1,1,0,0,0,0,0,7,8,117,space,12.510214599999927,None,1,1,3.3819915000003675,None,space,2.416063500000746,None,0,0,0,0,,,,,6,2,50,1,260.5628488000002,,,,,,,,,,,,,,,,,,,,,260.5475204000004,260.5628488000002,261.04666309999993,261.0516815000001,261.06262460000016,264.4462228000002,,,,,264.4464637000001,264.4607138000001,264.66147940000064,264.64531890000035,261.06262460000016,,,,,,,,1,1,3.3819915000003675,None,,,,,,,,858,20,M,L,2026-02-25_12h03.44.513,VisualSearch_2526_3,,2025.2.4,2026-02-25 12h03.44.879002 +0100,
tilted.xlsx,The target is tilted.,117,51,3,6,1,1,1,1,1,1,1,1,1,1,1,1,0,11,12,117,space,12.510214599999927,None,1,1,2.401487299999644,None,space,2.416063500000746,None,0,0,0,0,,,,,6,3,51,0,264.66147940000064,,,,,,,,,,,,,,,,,,,,,264.6461487000006,264.66147940000064,265.14489109999977,265.1502111,265.1720524000002,267.57809630000065,,,,,267.57831739999983,267.5934365000003,267.7933920000005,267.77733830000034,265.1720524000002,,,,,,,,1,1,2.401487299999644,None,,,,,,,,858,20,M,L,2026-02-25_12h03.44.513,VisualSearch_2526_3,,2025.2.4,2026-02-25 12h03.44.879002 +0100,
tilted.xlsx,The target is tilted.,117,52,4,6,1,0,0,0,0,0,0,0,0,0,0,0,0,0,1,117,space,12.510214599999927,None,1,1,0.5157214999999269,None,space,2.416063500000746,None,0,0,0,0,,,,,6,4,52,3,267.7933920000005,,,,,,,,,,,,,,,,,,,,,267.7781829000005,267.7933920000005,268.2774989999998,268.28279759999987,268.30403860000024,268.8277364000005,,,,,268.82793330000004,268.8428334,269.04300890000013,269.0273490999998,268.30403860000024,,,,,,,,1,1,0.5157214999999269,None,,,,,,,,858,20,M,L,2026-02-25_12h03.44.513,VisualSearch_2526_3,,2025.2.4,2026-02-25 12h03.44.879002 +0100,
tilted.xlsx,The target is tilted.,117,53,5,6,1,1,1,1,0,0,0,0,0,0,0,0,0,3,4,117,space,12.510214599999927,None,1,1,1.2059877000001507,None,space,2.416063500000746,None,0,0,0,0,,,,,6,5,53,2,269.04300890000013,,,,,,,,,,,,,,,,,,,,,269.02814430000035,269.04300890000013,269.52703350000047,269.53236090000064,269.55435600000055,270.7767700000004,,,,,270.7769853,270.79234890000043,270.9928068999998,270.9767173,269.55435600000055,,,,,,,,1,1,1.2059877000001507,None,,,,,,,,858,20,M,L,2026-02-25_12h03.44.513,VisualSearch_2526_3,,2025.2.4,2026-02-25 12h03.44.879002 +0100,
tilted.xlsx,The target is tilted.,117,54,6,6,0,0,0,0,0,0,0,0,0,0,0,0,1,1,1,117,space,12.510214599999927,None,0,1,0.70123650000005,None,space,2.416063500000746,None,0,0,0,0,,,,,6,6,54,7,270.9928068999998,,,,,,,,,,,,,,,,,,,,,270.97753980000016,270.9928068999998,271.47659029999977,271.48191490000045,271.5032314,272.20985500000006,,,,,272.2100752000006,272.2252090000002,272.4255887999998,272.4096029000002,271.5032314,,,,,,,,0,1,0.70123650000005,None,,,,,,,,858,20,M,L,2026-02-25_12h03.44.513,VisualSearch_2526_3,,2025.2.4,2026-02-25 12h03.44.879002 +0100,
tilted.xlsx,The target is tilted.,117,55,7,6,0,1,1,1,0,0,0,0,0,0,0,0,1,3,4,117,space,12.510214599999927,None,0,1,2.094582800000353,None,space,2.416063500000746,None,0,0,0,0,,,,,6,7,55,6,272.4255887999998,,,,,,,,,,,,,,,,,,,,,272.4104017999998,272.4255887999998,272.9094178000005,272.9148283000004,272.93725670000003,275.0426586000003,,,,,275.0428966999998,275.05732799999987,275.25799780000034,275.24198220000017,272.93725670000003,,,,,,,,0,1,2.094582800000353,None,,,,,,,,858,20,M,L,2026-02-25_12h03.44.513,VisualSearch_2526_3,,2025.2.4,2026-02-25 12h03.44.879002 +0100,
tilted.xlsx,The target is tilted.,117,56,0,7,0,0,0,0,0,0,0,0,0,0,0,0,1,1,1,117,space,12.510214599999927,None,0,1,1.0868041999992784,None,space,2.416063500000746,None,0,0,0,0,,,,,7,0,56,7,275.25799780000034,,,,,,,,,,,,,,,,,,,,,275.2427834,275.25799780000034,275.7415157000005,275.74683000000005,275.7688195999999,276.8588862000006,,,,,276.8591058000002,276.87371520000033,277.07391929999994,277.05783539999993,275.7688195999999,,,,,,,,0,1,1.0868041999992784,None,,,,,,,,858,20,M,L,2026-02-25_12h03.44.513,VisualSearch_2526_3,,2025.2.4,2026-02-25 12h03.44.879002 +0100,
tilted.xlsx,The target is tilted.,117,57,1,7,1,0,0,0,0,0,0,0,0,0,0,0,0,0,1,117,space,12.510214599999927,None,1,1,0.908198000000084,None,space,2.416063500000746,None,0,0,0,0,,,,,7,1,57,3,277.07391929999994,,,,,,,,,,,,,,,,,,,,,277.0586815000006,277.07391929999994,277.5575239,277.5629773999999,277.5850177000002,278.50807200000054,,,,,278.50842550000016,278.5229194000003,278.7232719000003,278.70754579999993,277.5850177000002,,,,,,,,1,1,0.908198000000084,None,,,,,,,,858,20,M,L,2026-02-25_12h03.44.513,VisualSearch_2526_3,,2025.2.4,2026-02-25 12h03.44.879002 +0100,
tilted.xlsx,The target is tilted.,117,58,2,7,1,1,1,1,1,1,1,1,0,0,0,0,0,7,8,117,space,12.510214599999927,None,0,0,4.191115099999479,None,space,2.416063500000746,None,0,0,0,0,,,,,7,2,58,1,278.7232719000003,,,,,,,,,,,,,,,,,,,,,278.7083358,278.7232719000003,279.2069978999998,279.2133055000004,279.2338165000001,283.43922550000025,,,,,283.4394288000003,283.45461160000013,283.6551263000001,283.6390744999999,279.2338165000001,,,,,,,,0,0,4.191115099999479,None,,,,,,,,858,20,M,L,2026-02-25_12h03.44.513,VisualSearch_2526_3,,2025.2.4,2026-02-25 12h03.44.879002 +0100,
tilted.xlsx,The target is tilted.,117,59,3,7,1,1,1,1,0,0,0,0,0,0,0,0,0,3,4,117,space,12.510214599999927,None,1,1,1.1701193999997486,None,space,2.416063500000746,None,0,0,0,0,,,,,7,3,59,2,283.6551263000001,,,,,,,,,,,,,,,,,,,,,283.63976920000005,283.6551263000001,284.1390523,284.1443790000003,284.1661761000005,285.3395083000005,,,,,285.3397278000002,285.3542341000002,285.5545959000001,285.5386980000003,284.1661761000005,,,,,,,,1,1,1.1701193999997486,None,,,,,,,,858,20,M,L,2026-02-25_12h03.44.513,VisualSearch_2526_3,,2025.2.4,2026-02-25 12h03.44.879002 +0100,
tilted.xlsx,The target is tilted.,117,60,4,7,1,1,1,1,1,1,1,1,1,1,1,1,0,11,12,117,space,12.510214599999927,None,1,1,2.669647800000348,None,space,2.416063500000746,None,0,0,0,0,,,,,7,4,60,0,285.5545959000001,,,,,,,,,,,,,,,,,,,,,285.5395328000004,285.5545959000001,286.03849400000036,286.0437974000006,286.0611288,288.7380284999999,,,,,288.7382722000002,288.7530334000003,288.9532675999999,288.93755930000043,286.0611288,,,,,,,,1,1,2.669647800000348,None,,,,,,,,858,20,M,L,2026-02-25_12h03.44.513,VisualSearch_2526_3,,2025.2.4,2026-02-25 12h03.44.879002 +0100,
tilted.xlsx,The target is tilted.,117,61,5,7,0,1,1,1,1,1,1,1,0,0,0,0,1,7,8,117,space,12.510214599999927,None,0,1,3.640341299999818,None,space,2.416063500000746,None,0,0,0,0,,,,,7,5,61,5,288.9532675999999,,,,,,,,,,,,,,,,,,,,,288.93839990000015,288.9532675999999,289.43742029999976,289.4428372000002,289.4592382999999,293.1028707000005,,,,,293.1031191000002,293.11810890000015,293.3188402000005,293.3026969000002,289.4592382999999,,,,,,,,0,1,3.640341299999818,None,,,,,,,,858,20,M,L,2026-02-25_12h03.44.513,VisualSearch_2526_3,,2025.2.4,2026-02-25 12h03.44.879002 +0100,
tilted.xlsx,The target is tilted.,117,62,6,7,0,1,1,1,0,0,0,0,0,0,0,0,1,3,4,117,space,12.510214599999927,None,0,1,1.0062109999998938,None,space,2.416063500000746,None,0,0,0,0,,,,,7,6,62,6,293.3188402000005,,,,,,,,,,,,,,,,,,,,,293.3034865999998,293.3188402000005,293.80250849999993,293.8078217000002,293.82964549999997,294.85175590000017,,,,,294.85190220000004,294.86761990000014,295.06829480000033,295.0522404000003,293.82964549999997,,,,,,,,0,1,1.0062109999998938,None,,,,,,,,858,20,M,L,2026-02-25_12h03.44.513,VisualSearch_2526_3,,2025.2.4,2026-02-25 12h03.44.879002 +0100,
tilted.xlsx,The target is tilted.,117,63,7,7,0,1,1,1,1,1,1,1,1,1,1,1,1,11,12,117,space,12.510214599999927,None,0,1,4.535354900000129,None,space,2.416063500000746,None,0,0,0,0,,,,,7,7,63,4,295.06829480000033,,,,,,,,,,,,,,,,,,,,,295.0530249000003,295.06829480000033,295.5516254000004,295.55671189999975,295.56792099999984,300.1173002000005,,,,,300.1175258000003,300.1326869000004,300.3328857000006,300.31695260000015,295.56792099999984,,,,,,,,0,1,4.535354900000129,None,,,,,,,,858,20,M,L,2026-02-25_12h03.44.513,VisualSearch_2526_3,,2025.2.4,2026-02-25 12h03.44.879002 +0100,
tilted.xlsx,The target is tilted.,117,64,0,8,1,0,0,0,0,0,0,0,0,0,0,0,0,0,1,117,space,12.510214599999927,None,1,1,0.6627472000000125,None,space,2.416063500000746,None,0,0,0,0,,,,,8,0,64,3,300.3328857000006,,,,,,,,,,,,,,,,,,,,,300.31779390000065,300.3328857000006,300.8168863000001,300.8222087000004,300.8433248000001,301.5173534000005,,,,,301.5176005000003,301.5322610000003,301.73279960000036,301.71658579999985,300.8433248000001,,,,,,,,1,1,0.6627472000000125,None,,,,,,,,858,20,M,L,2026-02-25_12h03.44.513,VisualSearch_2526_3,,2025.2.4,2026-02-25 12h03.44.879002 +0100,
tilted.xlsx,The target is tilted.,117,65,1,8,0,1,1,1,0,0,0,0,0,0,0,0,1,3,4,117,space,12.510214599999927,None,0,1,1.8769414999997025,None,space,2.416063500000746,None,0,0,0,0,,,,,8,1,65,6,301.73279960000036,,,,,,,,,,,,,,,,,,,,,301.7174315000002,301.73279960000036,302.2156554000003,302.2183184000005,302.2320329000004,304.1164974000003,,,,,304.1167568999999,304.1311719000005,304.33184600000004,304.3154819000001,302.2320329000004,,,,,,,,0,1,1.8769414999997025,None,,,,,,,,858,20,M,L,2026-02-25_12h03.44.513,VisualSearch_2526_3,,2025.2.4,2026-02-25 12h03.44.879002 +0100,
tilted.xlsx,The target is tilted.,117,66,2,8,0,0,0,0,0,0,0,0,0,0,0,0,1,1,1,117,space,12.510214599999927,None,0,1,0.9728781000003437,None,space,2.416063500000746,None,0,0,0,0,,,,,8,2,66,7,304.33184600000004,,,,,,,,,,,,,,,,,,,,,304.31631149999976,304.33184600000004,304.8156445000004,304.82095050000044,304.8419049000004,305.83200529999976,,,,,305.8322181000003,305.84718260000045,306.0479900999999,306.0319242000005,304.8419049000004,,,,,,,,0,1,0.9728781000003437,None,,,,,,,,858,20,M,L,2026-02-25_12h03.44.513,VisualSearch_2526_3,,2025.2.4,2026-02-25 12h03.44.879002 +0100,
tilted.xlsx,The target is tilted.,117,67,3,8,1,1,1,1,1,1,1,1,1,1,1,1,0,11,12,117,space,12.510214599999927,None,1,1,5.260869999999159,None,space,2.416063500000746,None,0,0,0,0,,,,,8,3,67,0,306.0479900999999,,,,,,,,,,,,,,,,,,,,,306.03275570000005,306.0479900999999,306.5318226999998,306.5372431000005,306.5587593999999,311.8304732000006,,,,,311.8306670000002,311.8453184,312.0460410000005,312.03006970000024,306.5587593999999,,,,,,,,1,1,5.260869999999159,None,,,,,,,,858,20,M,L,2026-02-25_12h03.44.513,VisualSearch_2526_3,,2025.2.4,2026-02-25 12h03.44.879002 +0100,
tilted.xlsx,The target is tilted.,117,68,4,8,1,1,1,1,0,0,0,0,0,0,0,0,0,3,4,117,space,12.510214599999927,None,1,1,1.370711200000187,None,space,2.416063500000746,None,0,0,0,0,,,,,8,4,68,2,312.0460410000005,,,,,,,,,,,,,,,,,,,,,312.03090669999983,312.0460410000005,312.5298432999998,312.5352485000003,312.5568834000005,313.9299531000006,,,,,313.93020720000004,313.9450155000004,314.14534860000003,314.1292499000001,312.5568834000005,,,,,,,,1,1,1.370711200000187,None,,,,,,,,858,20,M,L,2026-02-25_12h03.44.513,VisualSearch_2526_3,,2025.2.4,2026-02-25 12h03.44.879002 +0100,
tilted.xlsx,The target is tilted.,117,69,5,8,0,1,1,1,1,1,1,1,1,1,1,1,1,11,12,117,space,12.510214599999927,None,0,1,5.726434600000175,None,space,2.416063500000746,None,0,0,0,0,,,,,8,5,69,4,314.14534860000003,,,,,,,,,,,,,,,,,,,,,314.1301276000004,314.14534860000003,314.62908060000063,314.6342830000003,314.65554070000053,320.39415890000055,,,,,320.39438000000064,320.4094989000005,320.6099668000006,320.59361439999975,314.65554070000053,,,,,,,,0,1,5.726434600000175,None,,,,,,,,858,20,M,L,2026-02-25_12h03.44.513,VisualSearch_2526_3,,2025.2.4,2026-02-25 12h03.44.879002 +0100,
tilted.xlsx,The target is tilted.,117,70,6,8,1,1,1,1,1,1,1,1,0,0,0,0,0,7,8,117,space,12.510214599999927,None,1,1,1.2199220000002242,None,space,2.416063500000746,None,0,0,0,0,,,,,8,6,70,1,320.6099668000006,,,,,,,,,,,,,,,,,,,,,320.5944897999998,320.6099668000006,321.0934496,321.0988819000004,321.1208851000001,322.3440049000001,,,,,322.3442190000005,322.35892160000003,322.5592679000001,322.5431872999998,321.1208851000001,,,,,,,,1,1,1.2199220000002242,None,,,,,,,,858,20,M,L,2026-02-25_12h03.44.513,VisualSearch_2526_3,,2025.2.4,2026-02-25 12h03.44.879002 +0100,
tilted.xlsx,The target is tilted.,117,71,7,8,0,1,1,1,1,1,1,1,0,0,0,0,1,7,8,117,space,12.510214599999927,None,0,1,3.5853078000000096,None,space,2.416063500000746,None,0,0,0,0,,,,,8,7,71,5,322.5592679000001,,,,,,,,,,,,,,,,,,,,,322.54398290000063,322.5592679000001,323.04325510000035,323.04818049999994,323.05875920000017,326.6586795000003,,,,,326.65889440000046,326.67402670000047,326.8744617000002,326.85839339999984,323.05875920000017,,,,,,,,0,1,3.5853078000000096,None,,,,,,,,858,20,M,L,2026-02-25_12h03.44.513,VisualSearch_2526_3,,2025.2.4,2026-02-25 12h03.44.879002 +0100,
tilted.xlsx,The target is tilted.,117,72,0,9,0,0,0,0,0,0,0,0,0,0,0,0,1,1,1,117,space,12.510214599999927,None,0,1,0.7906109999994442,None,space,2.416063500000746,None,0,0,0,0,,,,,9,0,72,7,326.8744617000002,,,,,,,,,,,,,,,,,,,,,326.85920460000034,326.8744617000002,327.3583956000002,327.36341470000025,327.3741359000005,328.1753152000001,,,,,328.1755592999998,328.1899725000003,328.39059129999987,328.3745284000006,327.3741359000005,,,,,,,,0,1,0.7906109999994442,None,,,,,,,,858,20,M,L,2026-02-25_12h03.44.513,VisualSearch_2526_3,,2025.2.4,2026-02-25 12h03.44.879002 +0100,
tilted.xlsx,The target is tilted.,117,73,1,9,0,1,1,1,1,1,1,1,1,1,1,1,1,11,12,117,space,12.510214599999927,None,0,1,6.308074399999896,None,space,2.416063500000746,None,0,0,0,0,,,,,9,1,73,4,328.39059129999987,,,,,,,,,,,,,,,,,,,,,328.3754434000002,328.39059129999987,328.87434610000037,328.8796501000006,328.9011768999999,335.22254090000024,,,,,335.2227733999998,335.2378883000001,335.4380196000002,335.42237320000004,328.9011768999999,,,,,,,,0,1,6.308074399999896,None,,,,,,,,858,20,M,L,2026-02-25_12h03.44.513,VisualSearch_2526_3,,2025.2.4,2026-02-25 12h03.44.879002 +0100,
tilted.xlsx,The target is tilted.,117,74,2,9,1,0,0,0,0,0,0,0,0,0,0,0,0,0,1,117,space,12.510214599999927,None,1,1,0.8055736999995133,None,space,2.416063500000746,None,0,0,0,0,,,,,9,2,74,3,335.4380196000002,,,,,,,,,,,,,,,,,,,,,335.4231619000002,335.4380196000002,335.9222540999999,335.9274879000004,335.94875130000037,336.7557974000001,,,,,336.7560198000001,336.77059069999996,336.97127940000064,336.95511460000034,335.94875130000037,,,,,,,,1,1,0.8055736999995133,None,,,,,,,,858,20,M,L,2026-02-25_12h03.44.513,VisualSearch_2526_3,,2025.2.4,2026-02-25 12h03.44.879002 +0100,
tilted.xlsx,The target is tilted.,117,75,3,9,0,1,1,1,1,1,1,1,0,0,0,0,1,7,8,117,space,12.510214599999927,None,0,1,6.159456700000192,None,space,2.416063500000746,None,0,0,0,0,,,,,9,3,75,5,336.97127940000064,,,,,,,,,,,,,,,,,,,,,336.9559829,336.97127940000064,337.4547037000002,337.45987890000015,337.4809690000002,343.65264060000027,,,,,343.6527579000003,343.66882930000065,343.8687034000004,343.8530292000005,337.4809690000002,,,,,,,,0,1,6.159456700000192,None,,,,,,,,858,20,M,L,2026-02-25_12h03.44.513,VisualSearch_2526_3,,2025.2.4,2026-02-25 12h03.44.879002 +0100,
tilted.xlsx,The target is tilted.,117,76,4,9,1,1,1,1,1,1,1,1,0,0,0,0,0,7,8,117,space,12.510214599999927,None,1,1,2.7040391999998974,None,space,2.416063500000746,None,0,0,0,0,,,,,9,4,76,1,343.8687034000004,,,,,,,,,,,,,,,,,,,,,343.85384049999993,343.8687034000004,344.3528274,344.35810910000055,344.3798347000002,347.08576150000044,,,,,347.08597720000034,347.1008103000004,347.3012365000004,347.28511460000027,344.3798347000002,,,,,,,,1,1,2.7040391999998974,None,,,,,,,,858,20,M,L,2026-02-25_12h03.44.513,VisualSearch_2526_3,,2025.2.4,2026-02-25 12h03.44.879002 +0100,
tilted.xlsx,The target is tilted.,117,77,5,9,1,1,1,1,1,1,1,1,1,1,1,1,0,11,12,117,space,12.510214599999927,None,1,1,2.1532014000003983,None,space,2.416063500000746,None,0,0,0,0,,,,,9,5,77,0,347.3012365000004,,,,,,,,,,,,,,,,,,,,,347.2859120000003,347.3012365000004,347.78490450000027,347.79019119999975,347.81191840000065,349.9683792000005,,,,,349.96859330000007,349.9832255000001,350.18363450000015,350.1675885000004,347.81191840000065,,,,,,,,1,1,2.1532014000003983,None,,,,,,,,858,20,M,L,2026-02-25_12h03.44.513,VisualSearch_2526_3,,2025.2.4,2026-02-25 12h03.44.879002 +0100,
tilted.xlsx,The target is tilted.,117,78,6,9,0,1,1,1,0,0,0,0,0,0,0,0,1,3,4,117,space,12.510214599999927,None,0,1,1.5998183000001518,None,space,2.416063500000746,None,0,0,0,0,,,,,9,6,78,6,350.18363450000015,,,,,,,,,,,,,,,,,,,,,350.16837510000005,350.18363450000015,350.6670488999998,350.6723122000003,350.69350159999976,352.30061660000047,,,,,352.30080629999975,352.3158462000001,352.51622450000013,352.5001090000005,350.69350159999976,,,,,,,,0,1,1.5998183000001518,None,,,,,,,,858,20,M,L,2026-02-25_12h03.44.513,VisualSearch_2526_3,,2025.2.4,2026-02-25 12h03.44.879002 +0100,
tilted.xlsx,The target is tilted.,117,79,7,9,1,1,1,1,0,0,0,0,0,0,0,0,0,3,4,117,space,12.510214599999927,None,1,1,0.9481691999999384,None,space,2.416063500000746,None,0,0,0,0,,,,,9,7,79,2,352.51622450000013,,,,,,,,,,,,,,,,,,,,,352.5010663000003,352.51622450000013,353.0000237000004,353.00541150000026,353.02705030000016,353.9835831999999,,,,,353.9838440000003,353.99822700000004,354.1989844999998,354.18297770000027,353.02705030000016,,,,,,,,1,1,0.9481691999999384,None,,,,,,,,858,20,M,L,2026-02-25_12h03.44.513,VisualSearch_2526_3,,2025.2.4,2026-02-25 12h03.44.879002 +0100,
tilted.xlsx,The target is tilted.,117,80,0,10,1,1,1,1,0,0,0,0,0,0,0,0,0,3,4,117,space,12.510214599999927,None,1,1,1.433143299999756,None,space,2.416063500000746,None,0,0,0,0,,,,,10,0,80,2,354.1989844999998,,,,,,,,,,,,,,,,,,,,,354.1837669000006,354.1989844999998,354.6828252000005,354.68806029999996,354.7093958000005,356.14954060000036,,,,,356.14978659999997,356.1645042,356.36486890000015,356.3488113000003,354.7093958000005,,,,,,,,1,1,1.433143299999756,None,,,,,,,,858,20,M,L,2026-02-25_12h03.44.513,VisualSearch_2526_3,,2025.2.4,2026-02-25 12h03.44.879002 +0100,
tilted.xlsx,The target is tilted.,117,81,1,10,0,1,1,1,1,1,1,1,1,1,1,1,1,11,12,117,space,12.510214599999927,None,0,1,7.1362670999997135,None,space,2.416063500000746,None,0,0,0,0,,,,,10,1,81,4,356.36486890000015,,,,,,,,,,,,,,,,,,,,,356.34962799999994,356.36486890000015,356.84884020000027,356.85405530000025,356.87561800000003,364.01304789999995,,,,,364.0131964000002,364.02865070000007,364.22866820000036,364.2126827000002,356.87561800000003,,,,,,,,0,1,7.1362670999997135,None,,,,,,,,858,20,M,L,2026-02-25_12h03.44.513,VisualSearch_2526_3,,2025.2.4,2026-02-25 12h03.44.879002 +0100,
tilted.xlsx,The target is tilted.,117,82,2,10,1,0,0,0,0,0,0,0,0,0,0,0,0,0,1,117,space,12.510214599999927,None,1,1,0.5619242000002487,None,space,2.416063500000746,None,0,0,0,0,,,,,10,2,82,3,364.22866820000036,,,,,,,,,,,,,,,,,,,,,364.2134977000005,364.22866820000036,364.7128109000005,364.71803739999996,364.73977170000035,365.3120378000003,,,,,365.31215280000015,365.3279295000002,,365.51233109999976,364.73977170000035,,,,,,,,1,1,0.5619242000002487,None,,,,,,,,858,20,M,L,2026-02-25_12h03.44.513,VisualSearch_2526_3,,2025.2.4,2026-02-25 12h03.44.879002 +0100,
tilted.xlsx,The target is tilted.,117,83,3,10,0,0,0,0,0,0,0,0,0,0,0,0,1,1,1,117,space,12.510214599999927,None,0,1,0.6449737000002642,None,space,2.416063500000746,None,0,0,0,0,,,,,10,3,83,7,365.5286255000001,,,,,,,,,,,,,,,,,,,,,365.5131833000005,365.5286255000001,366.0124543000002,366.01768979999997,366.03875770000013,366.69561740000063,,,,,366.6958327000002,366.71099930000037,366.91149140000016,366.89538040000025,366.03875770000013,,,,,,,,0,1,0.6449737000002642,None,,,,,,,,858,20,M,L,2026-02-25_12h03.44.513,VisualSearch_2526_3,,2025.2.4,2026-02-25 12h03.44.879002 +0100,
tilted.xlsx,The target is tilted.,117,84,4,10,0,1,1,1,1,1,1,1,0,0,0,0,1,7,8,117,space,12.510214599999927,None,0,1,3.67105409999931,None,space,2.416063500000746,None,0,0,0,0,,,,,10,4,84,5,366.91149140000016,,,,,,,,,,,,,,,,,,,,,366.8962706000002,366.91149140000016,367.39485909999985,367.40005139999994,367.41713830000026,371.09433720000015,,,,,371.0945535000001,371.10978390000037,371.3099632000003,371.2930406000005,367.41713830000026,,,,,,,,0,1,3.67105409999931,None,,,,,,,,858,20,M,L,2026-02-25_12h03.44.513,VisualSearch_2526_3,,2025.2.4,2026-02-25 12h03.44.879002 +0100,
tilted.xlsx,The target is tilted.,117,85,5,10,1,1,1,1,1,1,1,1,0,0,0,0,0,7,8,117,space,12.510214599999927,None,1,1,3.7989440999999715,None,space,2.416063500000746,None,0,0,0,0,,,,,10,5,85,1,371.3099632000003,,,,,,,,,,,,,,,,,,,,,371.2933793000002,371.3099632000003,371.79358990000037,371.79887940000026,371.82031989999996,375.62665170000037,,,,,375.6268675000001,375.64164040000014,375.8416590000006,375.8258691000001,371.82031989999996,,,,,,,,1,1,3.7989440999999715,None,,,,,,,,858,20,M,L,2026-02-25_12h03.44.513,VisualSearch_2526_3,,2025.2.4,2026-02-25 12h03.44.879002 +0100,
tilted.xlsx,The target is tilted.,117,86,6,10,0,1,1,1,0,0,0,0,0,0,0,0,1,3,4,117,space,12.510214599999927,None,0,1,0.9131742999998096,None,space,2.416063500000746,None,0,0,0,0,,,,,10,6,86,6,375.8416590000006,,,,,,,,,,,,,,,,,,,,,375.8266641,375.8416590000006,376.3257164000006,376.3309841,376.3489804000001,377.27602620000016,,,,,377.2762591999999,377.29109570000037,377.49141659999987,377.4752024999998,376.3489804000001,,,,,,,,0,1,0.9131742999998096,None,,,,,,,,858,20,M,L,2026-02-25_12h03.44.513,VisualSearch_2526_3,,2025.2.4,2026-02-25 12h03.44.879002 +0100,
tilted.xlsx,The target is tilted.,117,87,7,10,1,1,1,1,1,1,1,1,1,1,1,1,0,11,12,117,space,12.510214599999927,None,1,1,6.460455799999181,None,space,2.416063500000746,None,0,0,0,0,,,,,10,7,87,0,377.49141659999987,,,,,,,,,,,,,,,,,,,,,377.47605920000024,377.49141659999987,377.97504070000014,377.98092129999986,378.0025316000001,384.47291459999997,,,,,384.4730454999999,384.4888492,384.688975,384.6727496000003,378.0025316000001,,,,,,,,1,1,6.460455799999181,None,,,,,,,,858,20,M,L,2026-02-25_12h03.44.513,VisualSearch_2526_3,,2025.2.4,2026-02-25 12h03.44.879002 +0100,
tilted.xlsx,The target is tilted.,117,88,0,11,1,1,1,1,0,0,0,0,0,0,0,0,0,3,4,117,space,12.510214599999927,None,1,1,0.8702035999995132,None,space,2.416063500000746,None,0,0,0,0,,,,,11,0,88,2,384.688975,,,,,,,,,,,,,,,,,,,,,384.6735926000001,384.688975,385.1727780000001,385.1779557,385.1998800000001,386.07323859999997,,,,,386.07345050000004,386.08844060000047,386.2881748,386.2724552999998,385.1998800000001,,,,,,,,1,1,0.8702035999995132,None,,,,,,,,858,20,M,L,2026-02-25_12h03.44.513,VisualSearch_2526_3,,2025.2.4,2026-02-25 12h03.44.879002 +0100,
tilted.xlsx,The target is tilted.,117,89,1,11,0,1,1,1,0,0,0,0,0,0,0,0,1,3,4,117,space,12.510214599999927,None,0,1,1.06686770000033,None,space,2.416063500000746,None,0,0,0,0,,,,,11,1,89,6,386.2881748,,,,,,,,,,,,,,,,,,,,,386.2732775000004,386.2881748,386.7719579000004,386.7771661000006,386.79887359999975,387.87209580000035,,,,,387.8722865,387.88783180000064,388.08786060000057,388.07172189999983,386.79887359999975,,,,,,,,0,1,1.06686770000033,None,,,,,,,,858,20,M,L,2026-02-25_12h03.44.513,VisualSearch_2526_3,,2025.2.4,2026-02-25 12h03.44.879002 +0100,
tilted.xlsx,The target is tilted.,117,90,2,11,1,1,1,1,1,1,1,1,0,0,0,0,0,7,8,117,space,12.510214599999927,None,1,1,1.340177400000357,None,space,2.416063500000746,None,0,0,0,0,,,,,11,2,90,1,388.08786060000057,,,,,,,,,,,,,,,,,,,,,388.0725669000003,388.08786060000057,388.5714611000003,388.5766140000005,388.5976307000001,389.95453330000055,,,,,389.95467689999987,389.97054949999983,390.1706223000001,390.1544622000001,388.5976307000001,,,,,,,,1,1,1.340177400000357,None,,,,,,,,858,20,M,L,2026-02-25_12h03.44.513,VisualSearch_2526_3,,2025.2.4,2026-02-25 12h03.44.879002 +0100,
tilted.xlsx,The target is tilted.,117,91,3,11,1,0,0,0,0,0,0,0,0,0,0,0,0,0,1,117,space,12.510214599999927,None,1,1,0.8153236999996807,None,space,2.416063500000746,None,0,0,0,0,,,,,11,3,91,3,390.1706223000001,,,,,,,,,,,,,,,,,,,,,390.1552830999999,390.1706223000001,390.65443909999976,390.65961210000023,390.68019939999976,391.50417500000003,,,,,391.50436270000046,391.52000769999995,391.72010070000033,391.7040379,390.68019939999976,,,,,,,,1,1,0.8153236999996807,None,,,,,,,,858,20,M,L,2026-02-25_12h03.44.513,VisualSearch_2526_3,,2025.2.4,2026-02-25 12h03.44.879002 +0100,
tilted.xlsx,The target is tilted.,117,92,4,11,0,0,0,0,0,0,0,0,0,0,0,0,1,1,1,117,space,12.510214599999927,None,0,1,0.5721800000001167,None,space,2.416063500000746,None,0,0,0,0,,,,,11,4,92,7,391.72010070000033,,,,,,,,,,,,,,,,,,,,,391.70483349999995,391.72010070000033,392.2037237000004,392.2088429000005,392.2253848999999,392.8033452999998,,,,,392.8034711999999,392.8193869000006,393.0195457,393.00346530000024,392.2253848999999,,,,,,,,0,1,0.5721800000001167,None,,,,,,,,858,20,M,L,2026-02-25_12h03.44.513,VisualSearch_2526_3,,2025.2.4,2026-02-25 12h03.44.879002 +0100,
tilted.xlsx,The target is tilted.,117,93,5,11,0,1,1,1,1,1,1,1,1,1,1,1,1,11,12,117,space,12.510214599999927,None,0,1,7.490943400000106,None,space,2.416063500000746,None,0,0,0,0,,,,,11,5,93,4,393.0195457,,,,,,,,,,,,,,,,,,,,,393.0043262999998,393.0195457,393.5034628000003,393.5085826000004,393.52937440000005,401.0349745000003,,,,,401.0352259000001,401.0500184000002,401.2503514,401.23406630000045,393.52937440000005,,,,,,,,0,1,7.490943400000106,None,,,,,,,,858,20,M,L,2026-02-25_12h03.44.513,VisualSearch_2526_3,,2025.2.4,2026-02-25 12h03.44.879002 +0100,
tilted.xlsx,The target is tilted.,117,94,6,11,1,1,1,1,1,1,1,1,1,1,1,1,0,11,12,117,space,12.510214599999927,None,0,0,5.046789600000011,None,space,2.416063500000746,None,0,0,0,0,,,,,11,6,94,0,401.2503514,,,,,,,,,,,,,,,,,,,,,401.2349752,401.2503514,401.73387020000064,401.73908759999995,401.76124620000064,406.8162768000002,,,,,406.8165092999998,406.8316267,407.03180410000004,407.0157470000004,401.76124620000064,,,,,,,,0,0,5.046789600000011,None,,,,,,,,858,20,M,L,2026-02-25_12h03.44.513,VisualSearch_2526_3,,2025.2.4,2026-02-25 12h03.44.879002 +0100,
tilted.xlsx,The target is tilted.,117,95,7,11,0,1,1,1,1,1,1,1,0,0,0,0,1,7,8,117,space,12.510214599999927,None,0,1,4.618258600000445,None,space,2.416063500000746,None,0,0,0,0,,,,,11,7,95,5,407.03180410000004,,,,,,,,,,,,,,,,,,,,,407.0165551,407.03180410000004,407.51552360000005,407.52089160000014,407.5426330999999,412.16411210000024,,,,,412.1643062000003,412.1798716000003,412.38006870000027,412.36366090000047,407.5426330999999,,,,,,,,0,1,4.618258600000445,None,,,,,,,,858,20,M,L,2026-02-25_12h03.44.513,VisualSearch_2526_3,,2025.2.4,2026-02-25 12h03.44.879002 +0100,
tilted.xlsx,The target is tilted.,117,96,0,12,0,1,1,1,1,1,1,1,0,0,0,0,1,7,8,117,space,12.510214599999927,None,0,1,3.3048918999993475,None,space,2.416063500000746,None,0,0,0,0,,,,,12,0,96,5,412.38006870000027,,,,,,,,,,,,,,,,,,,,,412.36447229999976,412.38006870000027,412.8639368000004,412.86927749999995,412.89160770000035,416.2132992000006,,,,,416.2135569000002,416.22842180000043,416.42867600000045,416.4123352000006,412.89160770000035,,,,,,,,0,1,3.3048918999993475,None,,,,,,,,858,20,M,L,2026-02-25_12h03.44.513,VisualSearch_2526_3,,2025.2.4,2026-02-25 12h03.44.879002 +0100,
tilted.xlsx,The target is tilted.,117,97,1,12,0,0,0,0,0,0,0,0,0,0,0,0,1,1,1,117,space,12.510214599999927,None,0,1,0.8010189000005994,None,space,2.416063500000746,None,0,0,0,0,,,,,12,1,97,7,416.42867600000045,,,,,,,,,,,,,,,,,,,,,416.4131621000006,416.42867600000045,416.9123567000006,416.9175648999999,416.93875970000045,417.74633280000035,,,,,417.7465467000002,417.7612411,417.9614333999998,417.9454488000001,416.93875970000045,,,,,,,,0,1,0.8010189000005994,None,,,,,,,,858,20,M,L,2026-02-25_12h03.44.513,VisualSearch_2526_3,,2025.2.4,2026-02-25 12h03.44.879002 +0100,
tilted.xlsx,The target is tilted.,117,98,2,12,1,1,1,1,0,0,0,0,0,0,0,0,0,3,4,117,space,12.510214599999927,None,1,1,0.8506943000002138,None,space,2.416063500000746,None,0,0,0,0,,,,,12,2,98,2,417.9614333999998,,,,,,,,,,,,,,,,,,,,,417.9462871000005,417.9614333999998,418.4453573999999,418.4506538000005,418.4723948000001,419.3289150999999,,,,,419.32914470000014,419.34415030000036,419.54365980000057,419.5273060999998,418.4723948000001,,,,,,,,1,1,0.8506943000002138,None,,,,,,,,858,20,M,L,2026-02-25_12h03.44.513,VisualSearch_2526_3,,2025.2.4,2026-02-25 12h03.44.879002 +0100,
tilted.xlsx,The target is tilted.,117,99,3,12,1,0,0,0,0,0,0,0,0,0,0,0,0,0,1,117,space,12.510214599999927,None,1,1,0.6866274000003614,None,space,2.416063500000746,None,0,0,0,0,,,,,12,3,99,3,419.54365980000057,,,,,,,,,,,,,,,,,,,,,419.5277629000002,419.54365980000057,420.02780110000003,420.03316880000057,420.0547869000002,420.7448037000004,,,,,420.7451093999998,420.7605887999998,420.9599285000004,420.9436090999998,420.0547869000002,,,,,,,,1,1,0.6866274000003614,None,,,,,,,,858,20,M,L,2026-02-25_12h03.44.513,VisualSearch_2526_3,,2025.2.4,2026-02-25 12h03.44.879002 +0100,
tilted.xlsx,The target is tilted.,117,100,4,12,0,1,1,1,0,0,0,0,0,0,0,0,1,3,4,117,space,12.510214599999927,None,0,1,1.1415643999998792,None,space,2.416063500000746,None,0,0,0,0,,,,,12,4,100,6,420.9599285000004,,,,,,,,,,,,,,,,,,,,,420.94395989999975,420.9599285000004,421.44417330000033,421.44950359999984,421.47064800000044,422.6280375000006,,,,,422.62825169999996,422.6429960000005,422.84290930000043,422.8272243000001,421.47064800000044,,,,,,,,0,1,1.1415643999998792,None,,,,,,,,858,20,M,L,2026-02-25_12h03.44.513,VisualSearch_2526_3,,2025.2.4,2026-02-25 12h03.44.879002 +0100,
tilted.xlsx,The target is tilted.,117,101,5,12,1,1,1,1,1,1,1,1,0,0,0,0,0,7,8,117,space,12.510214599999927,None,1,1,1.9033162000005177,None,space,2.416063500000746,None,0,0,0,0,,,,,12,5,101,1,422.84290930000043,,,,,,,,,,,,,,,,,,,,,422.8280427999998,422.84290930000043,423.32701970000016,423.33236900000065,423.3481677,425.26045820000036,,,,,425.2606778999998,425.27536560000044,425.4757948000006,425.4593181,423.3481677,,,,,,,,1,1,1.9033162000005177,None,,,,,,,,858,20,M,L,2026-02-25_12h03.44.513,VisualSearch_2526_3,,2025.2.4,2026-02-25 12h03.44.879002 +0100,
tilted.xlsx,The target is tilted.,117,102,6,12,0,1,1,1,1,1,1,1,1,1,1,1,1,11,12,117,space,12.510214599999927,None,0,1,5.1535211000000345,None,space,2.416063500000746,None,0,0,0,0,,,,,12,6,102,4,425.4757948000006,,,,,,,,,,,,,,,,,,,,,425.45994770000016,425.4757948000006,425.95952130000023,425.9646431000001,425.98311550000017,431.14147589999993,,,,,431.14171140000053,431.1570679000006,431.3571834000004,431.34119180000016,425.98311550000017,,,,,,,,0,1,5.1535211000000345,None,,,,,,,,858,20,M,L,2026-02-25_12h03.44.513,VisualSearch_2526_3,,2025.2.4,2026-02-25 12h03.44.879002 +0100,
tilted.xlsx,The target is tilted.,117,103,7,12,1,1,1,1,1,1,1,1,1,1,1,1,0,11,12,117,space,12.510214599999927,None,1,1,2.7653282000001127,None,space,2.416063500000746,None,0,0,0,0,,,,,12,7,103,0,431.3571834000004,,,,,,,,,,,,,,,,,,,,,431.3419856999999,431.3571834000004,431.8410293000006,431.84633829999984,431.8679895000005,434.6404312000004,,,,,434.64064490000055,434.65592449999986,434.8559617000001,434.83961700000054,431.8679895000005,,,,,,,,1,1,2.7653282000001127,None,,,,,,,,858,20,M,L,2026-02-25_12h03.44.513,VisualSearch_2526_3,,2025.2.4,2026-02-25 12h03.44.879002 +0100,
tilted.xlsx,The target is tilted.,117,104,0,13,1,1,1,1,1,1,1,1,1,1,1,1,0,11,12,117,space,12.510214599999927,None,1,1,1.961148399999729,None,space,2.416063500000746,None,0,0,0,0,,,,,13,0,104,0,434.8559617000001,,,,,,,,,,,,,,,,,,,,,434.8404285000006,434.8559617000001,435.33992020000005,435.3450262000006,435.3666475,437.33992579999995,,,,,437.3401389999999,437.35485190000054,437.55499620000046,437.5389560000003,435.3666475,,,,,,,,1,1,1.961148399999729,None,,,,,,,,858,20,M,L,2026-02-25_12h03.44.513,VisualSearch_2526_3,,2025.2.4,2026-02-25 12h03.44.879002 +0100,
tilted.xlsx,The target is tilted.,117,105,1,13,0,1,1,1,0,0,0,0,0,0,0,0,1,3,4,117,space,12.510214599999927,None,0,1,1.0696868000004542,None,space,2.416063500000746,None,0,0,0,0,,,,,13,1,105,6,437.55499620000046,,,,,,,,,,,,,,,,,,,,,437.53979489999983,437.55499620000046,438.0390326000006,438.04423959999986,438.0661710000004,439.1394191999998,,,,,439.1396491000005,439.1547221999999,439.3545586,439.33861160000015,438.0661710000004,,,,,,,,0,1,1.0696868000004542,None,,,,,,,,858,20,M,L,2026-02-25_12h03.44.513,VisualSearch_2526_3,,2025.2.4,2026-02-25 12h03.44.879002 +0100,
tilted.xlsx,The target is tilted.,117,106,2,13,0,0,0,0,0,0,0,0,0,0,0,0,1,1,1,117,space,12.510214599999927,None,0,1,0.6095261000000392,None,space,2.416063500000746,None,0,0,0,0,,,,,13,2,106,7,439.3545586,,,,,,,,,,,,,,,,,,,,,439.33943940000063,439.3545586,439.8382499999998,439.84383720000005,439.8555206000001,440.4715127999998,,,,,440.47165680000035,440.48726200000056,440.68723469999986,440.6713853000001,439.8555206000001,,,,,,,,0,1,0.6095261000000392,None,,,,,,,,858,20,M,L,2026-02-25_12h03.44.513,VisualSearch_2526_3,,2025.2.4,2026-02-25 12h03.44.879002 +0100,
tilted.xlsx,The target is tilted.,117,107,3,13,0,1,1,1,1,1,1,1,1,1,1,1,1,11,12,117,space,12.510214599999927,None,0,1,5.984832000000097,None,space,2.416063500000746,None,0,0,0,0,,,,,13,3,107,4,440.68723469999986,,,,,,,,,,,,,,,,,,,,,440.67221680000057,440.68723469999986,441.17138090000026,441.17665490000036,441.19845330000044,447.18669090000003,,,,,447.1869052000002,447.20190300000013,447.40170670000043,447.38584270000047,441.19845330000044,,,,,,,,0,1,5.984832000000097,None,,,,,,,,858,20,M,L,2026-02-25_12h03.44.513,VisualSearch_2526_3,,2025.2.4,2026-02-25 12h03.44.879002 +0100,
tilted.xlsx,The target is tilted.,117,108,4,13,1,1,1,1,0,0,0,0,0,0,0,0,0,3,4,117,space,12.510214599999927,None,1,1,1.0599578999999721,None,space,2.416063500000746,None,0,0,0,0,,,,,13,4,108,2,447.40170670000043,,,,,,,,,,,,,,,,,,,,,447.3867211000006,447.40170670000043,447.8856160000005,447.89111850000063,447.91381530000035,448.98583169999984,,,,,448.98602110000047,449.0011721999999,449.2009889000001,449.18496680000044,447.91381530000035,,,,,,,,1,1,1.0599578999999721,None,,,,,,,,858,20,M,L,2026-02-25_12h03.44.513,VisualSearch_2526_3,,2025.2.4,2026-02-25 12h03.44.879002 +0100,
tilted.xlsx,The target is tilted.,117,109,5,13,1,1,1,1,1,1,1,1,0,0,0,0,0,7,8,117,space,12.510214599999927,None,1,1,2.2172278999996706,None,space,2.416063500000746,None,0,0,0,0,,,,,13,5,109,1,449.2009889000001,,,,,,,,,,,,,,,,,,,,,449.18588330000057,449.2009889000001,449.68507370000043,449.6903825999998,449.7119792000003,451.9348342000003,,,,,451.93503860000055,451.9504353000002,452.1504295000004,452.1341344000002,449.7119792000003,,,,,,,,1,1,2.2172278999996706,None,,,,,,,,858,20,M,L,2026-02-25_12h03.44.513,VisualSearch_2526_3,,2025.2.4,2026-02-25 12h03.44.879002 +0100,
tilted.xlsx,The target is tilted.,117,110,6,13,1,0,0,0,0,0,0,0,0,0,0,0,0,0,1,117,space,12.510214599999927,None,1,1,0.8365288999993936,None,space,2.416063500000746,None,0,0,0,0,,,,,13,6,110,3,452.1504295000004,,,,,,,,,,,,,,,,,,,,,452.13506750000033,452.1504295000004,452.6340522999999,452.6392872000006,452.6607439999998,453.5008036999998,,,,,453.5010170000005,453.51648000000023,453.71653550000065,453.7003362000005,452.6607439999998,,,,,,,,1,1,0.8365288999993936,None,,,,,,,,858,20,M,L,2026-02-25_12h03.44.513,VisualSearch_2526_3,,2025.2.4,2026-02-25 12h03.44.879002 +0100,
tilted.xlsx,The target is tilted.,117,111,7,13,0,1,1,1,1,1,1,1,0,0,0,0,1,7,8,117,space,12.510214599999927,None,0,1,2.9717430999999124,None,space,2.416063500000746,None,0,0,0,0,,,,,13,7,111,5,453.71653550000065,,,,,,,,,,,,,,,,,,,,,453.7012193999999,453.71653550000065,454.2005211000005,454.2059839000003,454.2270196999998,457.2166672000003,,,,,457.2169098000004,457.23172410000006,457.43209040000056,457.41583360000004,454.2270196999998,,,,,,,,0,1,2.9717430999999124,None,,,,,,,,858,20,M,L,2026-02-25_12h03.44.513,VisualSearch_2526_3,,2025.2.4,2026-02-25 12h03.44.879002 +0100,
tilted.xlsx,The target is tilted.,117,112,0,14,1,1,1,1,0,0,0,0,0,0,0,0,0,3,4,117,space,12.510214599999927,None,1,1,1.0375169999997524,None,space,2.416063500000746,None,0,0,0,0,,,,,14,0,112,2,457.43209040000056,,,,,,,,,,,,,,,,,,,,,457.4166919999998,457.43209040000056,457.9158113000003,457.92109470000014,457.94268120000015,458.9828449000006,,,,,458.9830664000001,458.9980030000006,459.1977886000004,459.1818242999998,457.94268120000015,,,,,,,,1,1,1.0375169999997524,None,,,,,,,,858,20,M,L,2026-02-25_12h03.44.513,VisualSearch_2526_3,,2025.2.4,2026-02-25 12h03.44.879002 +0100,
tilted.xlsx,The target is tilted.,117,113,1,14,1,1,1,1,1,1,1,1,0,0,0,0,0,7,8,117,space,12.510214599999927,None,0,0,1.6846670999993876,None,space,2.416063500000746,None,0,0,0,0,,,,,14,1,113,1,459.1977886000004,,,,,,,,,,,,,,,,,,,,,459.1827881999998,459.1977886000004,459.68186650000007,459.68728830000055,459.7092954999998,461.39825550000023,,,,,461.3984731999999,461.41398200000003,461.6138848999999,461.5979216000005,459.7092954999998,,,,,,,,0,0,1.6846670999993876,None,,,,,,,,858,20,M,L,2026-02-25_12h03.44.513,VisualSearch_2526_3,,2025.2.4,2026-02-25 12h03.44.879002 +0100,
tilted.xlsx,The target is tilted.,117,114,2,14,1,1,1,1,1,1,1,1,1,1,1,1,0,11,12,117,space,12.510214599999927,None,1,1,5.376456599999983,None,space,2.416063500000746,None,0,0,0,0,,,,,14,2,114,0,461.6138848999999,,,,,,,,,,,,,,,,,,,,,461.59873440000047,461.6138848999999,462.0978200999998,462.1032608000005,462.1257491000006,467.51250919999984,,,,,467.5126618000004,467.5286071999999,467.7285090000005,467.712442,462.1257491000006,,,,,,,,1,1,5.376456599999983,None,,,,,,,,858,20,M,L,2026-02-25_12h03.44.513,VisualSearch_2526_3,,2025.2.4,2026-02-25 12h03.44.879002 +0100,
tilted.xlsx,The target is tilted.,117,115,3,14,1,0,0,0,0,0,0,0,0,0,0,0,0,0,1,117,space,12.510214599999927,None,1,1,0.5152945999998337,None,space,2.416063500000746,None,0,0,0,0,,,,,14,3,115,3,467.7285090000005,,,,,,,,,,,,,,,,,,,,,467.71333649999997,467.7285090000005,468.21187400000053,468.2144982,468.2282316000001,468.74705189999986,,,,,468.74719090000053,468.76286919999984,,468.96186790000047,468.2282316000001,,,,,,,,1,1,0.5152945999998337,None,,,,,,,,858,20,M,L,2026-02-25_12h03.44.513,VisualSearch_2526_3,,2025.2.4,2026-02-25 12h03.44.879002 +0100,
tilted.xlsx,The target is tilted.,117,116,4,14,0,1,1,1,1,1,1,1,1,1,1,1,1,11,12,117,space,12.510214599999927,None,0,1,5.056693300000006,None,space,2.416063500000746,None,0,0,0,0,,,,,14,4,116,4,468.97828370000025,,,,,,,,,,,,,,,,,,,,,468.96276110000053,468.97828370000025,469.46145030000025,469.4654033000006,469.48482520000016,474.5439928000005,,,,,474.5441961000006,474.5595742000005,474.75968770000054,474.74362440000004,,,,,,,,,0,1,5.056693300000006,None,,,,,,,,858,20,M,L,2026-02-25_12h03.44.513,VisualSearch_2526_3,,2025.2.4,2026-02-25 12h03.44.879002 +0100,
tilted.xlsx,The target is tilted.,117,117,5,14,0,1,1,1,1,1,1,1,0,0,0,0,1,7,8,117,space,12.510214599999927,None,0,1,4.635929799999758,None,space,2.416063500000746,None,0,0,0,0,,,,,14,5,117,5,474.75968770000054,,,,,,,,,,,,,,,,,,,,,474.74442780000027,474.75968770000054,475.2432131000005,475.24838,475.2702030999999,479.9090532,,,,,479.9092448000001,479.92427860000043,480.1245503,480.10837580000043,475.2702030999999,,,,,,,,0,1,4.635929799999758,None,,,,,,,,858,20,M,L,2026-02-25_12h03.44.513,VisualSearch_2526_3,,2025.2.4,2026-02-25 12h03.44.879002 +0100,
tilted.xlsx,The target is tilted.,117,118,6,14,0,0,0,0,0,0,0,0,0,0,0,0,1,1,1,117,space,12.510214599999927,None,0,1,0.7011455000001661,None,space,2.416063500000746,None,0,0,0,0,,,,,14,6,118,7,480.1245503,,,,,,,,,,,,,,,,,,,,,480.1092159,480.1245503,480.6084273000006,480.6130497000004,480.6242579,481.34212260000004,,,,,481.34243830000014,481.3571671999998,481.5574956999999,481.54146260000016,480.6242579,,,,,,,,0,1,0.7011455000001661,None,,,,,,,,858,20,M,L,2026-02-25_12h03.44.513,VisualSearch_2526_3,,2025.2.4,2026-02-25 12h03.44.879002 +0100,
tilted.xlsx,The target is tilted.,117,119,7,14,0,1,1,1,0,0,0,0,0,0,0,0,1,3,4,117,space,12.510214599999927,None,0,1,1.4331672999996954,None,space,2.416063500000746,None,0,0,0,0,,,,,14,7,119,6,481.5574956999999,,,,,,,,,,,,,,,,,,,,,481.54229080000005,481.5574956999999,482.04129660000035,482.04706480000004,482.0678447999999,483.50801969999975,,,,,483.5082518999998,483.52321850000044,483.7453464,483.707445,482.0678447999999,,,,,,,,0,1,1.4331672999996954,None,,,,,,,,858,20,M,L,2026-02-25_12h03.44.513,VisualSearch_2526_3,,2025.2.4,2026-02-25 12h03.44.879002 +0100,
tilted.xlsx,The target is tilted.,117,0,0,0,,,,,,,,,,,,,,,,,space,12.510214599999927,None,,,,,space,2.416063500000746,None,0,0,0,0,,,,,,,,,,,,,,,,,,,,,,,,,,,,,,,,,,,,,,,,,,,,,,,,,,,,,,,,,,,,,,,858,20,M,L,2026-02-25_12h03.44.513,VisualSearch_2526_3,,2025.2.4,2026-02-25 12h03.44.879002 +0100,
vertical.xlsx,The target is tilted.,135,0,0,0,0,1,1,1,1,1,1,1,1,1,1,1,1,11,12,135,space,6.9503509999995,None,0,1,2.7997341000000233,None,,,,0,1,1,1,0,0,0,4,,,,,490.73932220000006,,,,,,,,,,,,,,,483.7453464,483.7453464,483.7453464,space,6.9503509999995,None,490.7349288000005,490.73932220000006,491.22120450000057,491.2265083000002,491.24815949999993,494.0543389000004,0,1,2.7997341000000233,None,494.0545501000006,494.0700655999999,494.26962020000065,494.25358550000055,,,,,,,,,,,,,,,,,,,,858,20,M,L,2026-02-25_12h03.44.513,VisualSearch_2526_3,,2025.2.4,2026-02-25 12h03.44.879002 +0100,
vertical.xlsx,The target is tilted.,135,1,1,0,1,1,1,1,1,1,1,1,1,1,1,1,0,11,12,135,space,6.9503509999995,None,1,1,0.7630671999995684,None,,,,0,1,1,1,0,1,1,0,,,,,494.26962020000065,,,,,,,,,,,,,,,,,,,,,494.2543394000004,494.26962020000065,494.75347130000046,494.7587766000006,494.7803399000004,495.5540858000004,1,1,0.7630671999995684,None,495.5543195,495.56924100000015,495.7695660999998,495.7534402000001,494.7803399000004,,,,,,,,,,,,,,,,,,,858,20,M,L,2026-02-25_12h03.44.513,VisualSearch_2526_3,,2025.2.4,2026-02-25 12h03.44.879002 +0100,
vertical.xlsx,The target is tilted.,135,2,2,0,0,0,0,0,0,0,0,0,0,0,0,0,1,1,1,135,space,6.9503509999995,None,0,1,0.5374944999994113,None,,,,0,1,1,1,0,2,2,7,,,,,495.7695660999998,,,,,,,,,,,,,,,,,,,,,495.75422160000016,495.7695660999998,496.25311260000035,496.2584691000002,496.2791610000004,496.8200880000004,0,1,0.5374944999994113,None,496.8202964000002,496.8355575000005,497.0358285000002,497.01975889999994,496.2791610000004,,,,,,,,,,,,,,,,,,,858,20,M,L,2026-02-25_12h03.44.513,VisualSearch_2526_3,,2025.2.4,2026-02-25 12h03.44.879002 +0100,
vertical.xlsx,The target is tilted.,135,3,3,0,0,1,1,1,1,1,1,1,0,0,0,0,1,7,8,135,space,6.9503509999995,None,0,1,1.9265378000000055,None,,,,0,1,1,1,0,3,3,5,,,,,497.0358285000002,,,,,,,,,,,,,,,,,,,,,497.0205252000005,497.0358285000002,497.5196517000004,497.5249029000006,497.5464621000001,499.48611020000044,0,1,1.9265378000000055,None,499.48632630000066,499.50167130000045,499.7011424000002,499.68545340000037,497.5464621000001,,,,,,,,,,,,,,,,,,,858,20,M,L,2026-02-25_12h03.44.513,VisualSearch_2526_3,,2025.2.4,2026-02-25 12h03.44.879002 +0100,
vertical.xlsx,The target is tilted.,135,4,4,0,1,1,1,1,0,0,0,0,0,0,0,0,0,3,4,135,space,6.9503509999995,None,1,1,0.7449274999999034,None,,,,0,1,1,1,0,4,4,2,,,,,499.7011424000002,,,,,,,,,,,,,,,,,,,,,499.68620100000044,499.7011424000002,500.1852931000003,500.1904504000004,500.2116205000002,500.9691106,1,1,0.7449274999999034,None,500.9693130000005,500.9842017000001,501.18433170000026,501.1680127999998,500.2116205000002,,,,,,,,,,,,,,,,,,,858,20,M,L,2026-02-25_12h03.44.513,VisualSearch_2526_3,,2025.2.4,2026-02-25 12h03.44.879002 +0100,
vertical.xlsx,The target is tilted.,135,5,5,0,1,1,1,1,1,1,1,1,0,0,0,0,0,7,8,135,space,6.9503509999995,None,1,1,1.0185240000000704,None,,,,0,1,1,1,0,5,5,1,,,,,501.18433170000026,,,,,,,,,,,,,,,,,,,,,501.1688030000005,501.18433170000026,501.6682963000003,501.6734858,501.6951704000003,502.7179305999998,1,1,1.0185240000000704,None,502.7186902000003,502.73372070000005,502.9337618999998,502.9178808000006,501.6951704000003,,,,,,,,,,,,,,,,,,,858,20,M,L,2026-02-25_12h03.44.513,VisualSearch_2526_3,,2025.2.4,2026-02-25 12h03.44.879002 +0100,
vertical.xlsx,The target is tilted.,135,6,6,0,0,1,1,1,0,0,0,0,0,0,0,0,1,3,4,135,space,6.9503509999995,None,0,1,0.7757776999997077,None,,,,0,1,1,1,0,6,6,6,,,,,502.9337618999998,,,,,,,,,,,,,,,,,,,,,502.91861700000027,502.9337618999998,503.41765810000015,503.4228462000001,503.4446699,504.2343600000004,0,1,0.7757776999997077,None,504.23459020000064,504.2497318000005,504.4500656,504.4336088,503.4446699,,,,,,,,,,,,,,,,,,,858,20,M,L,2026-02-25_12h03.44.513,VisualSearch_2526_3,,2025.2.4,2026-02-25 12h03.44.879002 +0100,
vertical.xlsx,The target is tilted.,135,7,7,0,1,0,0,0,0,0,0,0,0,0,0,0,0,0,1,135,space,6.9503509999995,None,1,1,0.524572100000114,None,,,,0,1,1,1,0,7,7,3,,,,,504.4500656,,,,,,,,,,,,,,,,,,,,,504.4343720000006,504.4500656,504.9334882000003,504.93870479999987,504.9598448000006,505.50101900000027,1,1,0.524572100000114,None,505.5012241000004,505.51640450000014,505.7163921000001,505.70028120000006,504.9598448000006,,,,,,,,,,,,,,,,,,,858,20,M,L,2026-02-25_12h03.44.513,VisualSearch_2526_3,,2025.2.4,2026-02-25 12h03.44.879002 +0100,
vertical.xlsx,The target is tilted.,135,0,0,0,1,1,1,1,1,1,1,1,1,1,1,1,0,11,12,135,space,6.9503509999995,None,1,1,1.3137118000004193,None,space,1.0564054000005854,None,0,1,1,1,,,,,0,0,0,0,506.8079824000006,,,,,,,,,,,,,,,,,,,,,506.8035624000004,506.8079824000006,507.2993438000003,507.3047559000006,507.3270339999999,508.65002490000006,,,,,508.65024170000015,508.6649584000006,508.8652497000003,508.84921510000004,,505.70808959999977,505.7163921000001,505.7163921000001,506.78241380000054,space,1.0564054000005854,None,1,1,1.3137118000004193,None,,,,,,,,858,20,M,L,2026-02-25_12h03.44.513,VisualSearch_2526_3,,2025.2.4,2026-02-25 12h03.44.879002 +0100,
vertical.xlsx,The target is tilted.,135,1,1,0,1,0,0,0,0,0,0,0,0,0,0,0,0,0,1,135,space,6.9503509999995,None,1,1,0.5464770000007775,None,space,1.0564054000005854,None,0,1,1,1,,,,,0,1,1,3,508.8652497000003,,,,,,,,,,,,,,,,,,,,,508.8500359999998,508.8652497000003,509.34903209999993,509.35423230000015,509.37510180000027,509.9327987000006,,,,,509.93304979999994,509.94786470000054,510.1481150999998,510.1321976999998,509.37510180000027,,,,,,,,1,1,0.5464770000007775,None,,,,,,,,858,20,M,L,2026-02-25_12h03.44.513,VisualSearch_2526_3,,2025.2.4,2026-02-25 12h03.44.879002 +0100,
vertical.xlsx,The target is tilted.,135,2,2,0,1,1,1,1,0,0,0,0,0,0,0,0,0,3,4,135,space,6.9503509999995,None,1,1,0.5477822000002561,None,space,1.0564054000005854,None,0,1,1,1,,,,,0,2,2,2,510.1481150999998,,,,,,,,,,,,,,,,,,,,,510.1329940000005,510.1481150999998,510.6319540000004,510.63717369999995,510.65790430000015,511.2156595000006,,,,,511.2158982000001,511.23088110000026,511.4311136000006,511.41498330000013,510.65790430000015,,,,,,,,1,1,0.5477822000002561,None,,,,,,,,858,20,M,L,2026-02-25_12h03.44.513,VisualSearch_2526_3,,2025.2.4,2026-02-25 12h03.44.879002 +0100,
vertical.xlsx,The target is tilted.,135,3,3,0,0,1,1,1,0,0,0,0,0,0,0,0,1,3,4,135,space,6.9503509999995,None,0,1,0.7950667000004614,None,space,1.0564054000005854,None,0,1,1,1,,,,,0,3,3,6,511.4311136000006,,,,,,,,,,,,,,,,,,,,,511.4158001000005,511.4311136000006,511.9148234000004,511.92011,511.94150739999986,512.7486198000006,,,,,512.7488346999999,512.7639270999998,512.9637799000002,512.9478921,511.94150739999986,,,,,,,,0,1,0.7950667000004614,None,,,,,,,,858,20,M,L,2026-02-25_12h03.44.513,VisualSearch_2526_3,,2025.2.4,2026-02-25 12h03.44.879002 +0100,
vertical.xlsx,The target is tilted.,135,4,4,0,0,1,1,1,1,1,1,1,0,0,0,0,1,7,8,135,space,6.9503509999995,None,0,1,1.5135903999998845,None,space,1.0564054000005854,None,0,1,1,1,,,,,0,4,4,5,512.9637799000002,,,,,,,,,,,,,,,,,,,,,512.9487285000005,512.9637799000002,513.4479036000002,513.4532176000002,513.4656269000006,514.9812552000003,,,,,514.9814838000002,514.9965507000006,515.1965125000006,515.1803546000001,513.4656269000006,,,,,,,,0,1,1.5135903999998845,None,,,,,,,,858,20,M,L,2026-02-25_12h03.44.513,VisualSearch_2526_3,,2025.2.4,2026-02-25 12h03.44.879002 +0100,
vertical.xlsx,The target is tilted.,135,5,5,0,0,0,0,0,0,0,0,0,0,0,0,0,1,1,1,135,space,6.9503509999995,None,0,1,0.5782963000001473,None,space,1.0564054000005854,None,0,1,1,1,,,,,0,5,5,7,515.1965125000006,,,,,,,,,,,,,,,,,,,,,515.1811908,515.1965125000006,515.6800112999999,515.6852574000004,515.7064314999998,516.2968043999999,,,,,516.2969936,516.3128195999998,516.5128795,516.4967328000002,515.7064314999998,,,,,,,,0,1,0.5782963000001473,None,,,,,,,,858,20,M,L,2026-02-25_12h03.44.513,VisualSearch_2526_3,,2025.2.4,2026-02-25 12h03.44.879002 +0100,
vertical.xlsx,The target is tilted.,135,6,6,0,0,1,1,1,1,1,1,1,1,1,1,1,1,11,12,135,space,6.9503509999995,None,0,1,1.5387046000005284,None,space,1.0564054000005854,None,0,1,1,1,,,,,0,6,6,4,516.5128795,,,,,,,,,,,,,,,,,,,,,516.4975289000004,516.5128795,516.9965422000005,517.0018105999998,517.0247328000005,518.5802162,,,,,518.5804294999998,518.5950640000001,518.7952452999998,518.7788638000002,517.0247328000005,,,,,,,,0,1,1.5387046000005284,None,,,,,,,,858,20,M,L,2026-02-25_12h03.44.513,VisualSearch_2526_3,,2025.2.4,2026-02-25 12h03.44.879002 +0100,
vertical.xlsx,The target is tilted.,135,7,7,0,1,1,1,1,1,1,1,1,0,0,0,0,0,7,8,135,space,6.9503509999995,None,1,1,2.5071196999997483,None,space,1.0564054000005854,None,0,1,1,1,,,,,0,7,7,1,518.7952452999998,,,,,,,,,,,,,,,,,,,,,518.7796738000006,518.7952452999998,519.2791748,519.2844489999998,519.3060648999999,521.8290419000004,,,,,521.8292613000003,521.8442688000005,522.0442713000002,522.0283969000002,519.3060648999999,,,,,,,,1,1,2.5071196999997483,None,,,,,,,,858,20,M,L,2026-02-25_12h03.44.513,VisualSearch_2526_3,,2025.2.4,2026-02-25 12h03.44.879002 +0100,
vertical.xlsx,The target is tilted.,135,8,0,1,1,1,1,1,1,1,1,1,0,0,0,0,0,7,8,135,space,6.9503509999995,None,1,1,1.1900325000005978,None,space,1.0564054000005854,None,0,1,1,1,,,,,1,0,8,1,522.0442713000002,,,,,,,,,,,,,,,,,,,,,522.0292221,522.0442713000002,522.5279762999999,522.5325969000005,522.5437456,523.7449797999998,,,,,523.7452201000006,523.7604038999998,523.9603198000004,523.9441350000006,522.5437456,,,,,,,,1,1,1.1900325000005978,None,,,,,,,,858,20,M,L,2026-02-25_12h03.44.513,VisualSearch_2526_3,,2025.2.4,2026-02-25 12h03.44.879002 +0100,
vertical.xlsx,The target is tilted.,135,9,1,1,0,1,1,1,1,1,1,1,0,0,0,0,1,7,8,135,space,6.9503509999995,None,0,1,1.6985008000001471,None,space,1.0564054000005854,None,0,1,1,1,,,,,1,1,9,5,523.9603198000004,,,,,,,,,,,,,,,,,,,,,523.9450212000002,523.9603198000004,524.4441133,524.4494054000006,524.4616655,526.1770108000001,,,,,526.1771560000007,526.1927879000004,526.3927228000002,526.3767588000001,524.4616655,,,,,,,,0,1,1.6985008000001471,None,,,,,,,,858,20,M,L,2026-02-25_12h03.44.513,VisualSearch_2526_3,,2025.2.4,2026-02-25 12h03.44.879002 +0100,
vertical.xlsx,The target is tilted.,135,10,2,1,0,0,0,0,0,0,0,0,0,0,0,0,1,1,1,135,space,6.9503509999995,None,0,1,0.5538839000000735,None,space,1.0564054000005854,None,0,1,1,1,,,,,1,2,10,7,526.3927228000002,,,,,,,,,,,,,,,,,,,,,526.377657,526.3927228000002,526.8767416000001,526.8820071,526.8996127,527.4595801000005,,,,,527.4597267999998,527.4756394000005,527.6757717999999,527.6596084000003,526.8996127,,,,,,,,0,1,0.5538839000000735,None,,,,,,,,858,20,M,L,2026-02-25_12h03.44.513,VisualSearch_2526_3,,2025.2.4,2026-02-25 12h03.44.879002 +0100,
vertical.xlsx,The target is tilted.,135,11,3,1,1,0,0,0,0,0,0,0,0,0,0,0,0,0,1,135,space,6.9503509999995,None,1,1,0.4741671000001588,None,space,1.0564054000005854,None,0,1,1,1,,,,,1,3,11,3,527.6757717999999,,,,,,,,,,,,,,,,,,,,,527.6604901000001,527.6757717999999,528.1596387,528.1648492000004,528.1862437,528.6758420000006,,,,,528.6759726,528.6918604000002,528.8920877,528.8760564000004,528.1862437,,,,,,,,1,1,0.4741671000001588,None,,,,,,,,858,20,M,L,2026-02-25_12h03.44.513,VisualSearch_2526_3,,2025.2.4,2026-02-25 12h03.44.879002 +0100,
vertical.xlsx,The target is tilted.,135,12,4,1,1,1,1,1,0,0,0,0,0,0,0,0,0,3,4,135,space,6.9503509999995,None,1,1,0.6324791000006371,None,space,1.0564054000005854,None,0,1,1,1,,,,,1,4,12,2,528.8920877,,,,,,,,,,,,,,,,,,,,,528.8768723000003,528.8920877,529.3758924000003,529.3810720000001,529.4019931000003,530.0426912000003,,,,,530.0429388000002,530.0582914000006,530.2583499000002,530.2422556000001,529.4019931000003,,,,,,,,1,1,0.6324791000006371,None,,,,,,,,858,20,M,L,2026-02-25_12h03.44.513,VisualSearch_2526_3,,2025.2.4,2026-02-25 12h03.44.879002 +0100,
vertical.xlsx,The target is tilted.,135,13,5,1,0,1,1,1,1,1,1,1,1,1,1,1,1,11,12,135,space,6.9503509999995,None,0,1,2.4293695000005755,None,space,1.0564054000005854,None,0,1,1,1,,,,,1,5,13,4,530.2583499000002,,,,,,,,,,,,,,,,,,,,,530.2430481000001,530.2583499000002,530.7420896000003,530.7472132000003,530.7681616999998,533.2083325000003,,,,,533.2085286000001,533.2238857000002,533.4238759999998,533.4079100999998,530.7681616999998,,,,,,,,0,1,2.4293695000005755,None,,,,,,,,858,20,M,L,2026-02-25_12h03.44.513,VisualSearch_2526_3,,2025.2.4,2026-02-25 12h03.44.879002 +0100,
vertical.xlsx,The target is tilted.,135,14,6,1,1,1,1,1,1,1,1,1,1,1,1,1,0,11,12,135,space,6.9503509999995,None,1,1,0.6705333999998402,None,space,1.0564054000005854,None,0,1,1,1,,,,,1,6,14,0,533.4238759999998,,,,,,,,,,,,,,,,,,,,,533.4087980000004,533.4238759999998,533.9077017999998,533.9130274999998,533.9345635999998,534.6078499000005,,,,,534.6080517,534.6234189000006,534.8231057000003,534.8074506000003,533.9345635999998,,,,,,,,1,1,0.6705333999998402,None,,,,,,,,858,20,M,L,2026-02-25_12h03.44.513,VisualSearch_2526_3,,2025.2.4,2026-02-25 12h03.44.879002 +0100,
vertical.xlsx,The target is tilted.,135,15,7,1,0,1,1,1,0,0,0,0,0,0,0,0,1,3,4,135,space,6.9503509999995,None,0,1,0.7371416999994835,None,space,1.0564054000005854,None,0,1,1,1,,,,,1,7,15,6,534.8231057000003,,,,,,,,,,,,,,,,,,,,,534.8083535000005,534.8231057000003,535.3073265000003,535.3125684000006,535.3343583000005,536.0745033000003,,,,,536.0747388,536.0894144000004,536.2896477000004,536.2735413,535.3343583000005,,,,,,,,0,1,0.7371416999994835,None,,,,,,,,858,20,M,L,2026-02-25_12h03.44.513,VisualSearch_2526_3,,2025.2.4,2026-02-25 12h03.44.879002 +0100,
vertical.xlsx,The target is tilted.,135,16,0,2,1,1,1,1,0,0,0,0,0,0,0,0,0,3,4,135,space,6.9503509999995,None,1,1,0.7174179000003278,None,space,1.0564054000005854,None,0,1,1,1,,,,,2,0,16,2,536.2896477000004,,,,,,,,,,,,,,,,,,,,,536.2743717000003,536.2896477000004,536.7735793000002,536.7787718,536.8014633000003,537.5235290999999,,,,,537.5237455000006,537.5391329000004,537.7392906000005,537.7234404999999,536.8014633000003,,,,,,,,1,1,0.7174179000003278,None,,,,,,,,858,20,M,L,2026-02-25_12h03.44.513,VisualSearch_2526_3,,2025.2.4,2026-02-25 12h03.44.879002 +0100,
vertical.xlsx,The target is tilted.,135,17,1,2,1,1,1,1,1,1,1,1,0,0,0,0,0,7,8,135,space,6.9503509999995,None,1,1,0.8003042999998797,None,space,1.0564054000005854,None,0,1,1,1,,,,,2,1,17,1,537.7392906000005,,,,,,,,,,,,,,,,,,,,,537.7242534000006,537.7392906000005,538.2230401000006,538.2283836000006,538.2500848999998,539.0567056,,,,,539.0569328000001,539.0720246000001,539.2720332999997,539.2560106999999,538.2500848999998,,,,,,,,1,1,0.8003042999998797,None,,,,,,,,858,20,M,L,2026-02-25_12h03.44.513,VisualSearch_2526_3,,2025.2.4,2026-02-25 12h03.44.879002 +0100,
vertical.xlsx,The target is tilted.,135,18,2,2,0,0,0,0,0,0,0,0,0,0,0,0,1,1,1,135,space,6.9503509999995,None,0,1,0.665939200000139,None,space,1.0564054000005854,None,0,1,1,1,,,,,2,2,18,7,539.2720332999997,,,,,,,,,,,,,,,,,,,,,539.2568058000006,539.2720332999997,539.7558544000003,539.7610309000002,539.7824762999999,540.4561854000003,,,,,540.4564356999999,540.4713584000001,540.6712194000002,540.6555155000005,539.7824762999999,,,,,,,,0,1,0.665939200000139,None,,,,,,,,858,20,M,L,2026-02-25_12h03.44.513,VisualSearch_2526_3,,2025.2.4,2026-02-25 12h03.44.879002 +0100,
vertical.xlsx,The target is tilted.,135,19,3,2,1,0,0,0,0,0,0,0,0,0,0,0,0,0,1,135,space,6.9503509999995,None,1,1,0.5579320999995616,None,space,1.0564054000005854,None,0,1,1,1,,,,,2,3,19,3,540.6712194000002,,,,,,,,,,,,,,,,,,,,,540.6563740000001,540.6712194000002,541.1552966999998,541.1603859000006,541.1712244,541.7388369999999,,,,,541.7390283000004,541.7544493000005,541.9544362000006,541.9384306000002,541.1712244,,,,,,,,1,1,0.5579320999995616,None,,,,,,,,858,20,M,L,2026-02-25_12h03.44.513,VisualSearch_2526_3,,2025.2.4,2026-02-25 12h03.44.879002 +0100,
vertical.xlsx,The target is tilted.,135,20,4,2,1,1,1,1,1,1,1,1,1,1,1,1,0,11,12,135,space,6.9503509999995,None,1,1,1.5438764999998966,None,space,1.0564054000005854,None,0,1,1,1,,,,,2,4,20,0,541.9544362000006,,,,,,,,,,,,,,,,,,,,,541.9392260000004,541.9544362000006,542.4383409000002,542.4436058000001,542.4655548000001,544.0217460000003,,,,,544.0219621000006,544.0372151000001,544.2370571000001,544.2211267000002,542.4655548000001,,,,,,,,1,1,1.5438764999998966,None,,,,,,,,858,20,M,L,2026-02-25_12h03.44.513,VisualSearch_2526_3,,2025.2.4,2026-02-25 12h03.44.879002 +0100,
vertical.xlsx,The target is tilted.,135,21,5,2,0,1,1,1,0,0,0,0,0,0,0,0,1,3,4,135,space,6.9503509999995,None,0,1,0.59882590000052,None,space,1.0564054000005854,None,0,1,1,1,,,,,2,5,21,6,544.2370571000001,,,,,,,,,,,,,,,,,,,,,544.2219525999999,544.2370571000001,544.7209435000004,544.7261609000007,544.7484149000002,545.3543694999998,,,,,545.3545862999999,545.3699760999998,545.5700029,545.5536459000004,544.7484149000002,,,,,,,,0,1,0.59882590000052,None,,,,,,,,858,20,M,L,2026-02-25_12h03.44.513,VisualSearch_2526_3,,2025.2.4,2026-02-25 12h03.44.879002 +0100,
vertical.xlsx,The target is tilted.,135,22,6,2,0,1,1,1,1,1,1,1,0,0,0,0,1,7,8,135,space,6.9503509999995,None,0,1,2.06607829999939,None,space,1.0564054000005854,None,0,1,1,1,,,,,2,6,22,5,545.5700029,,,,,,,,,,,,,,,,,,,,,545.5545745999998,545.5700029,546.0534853999998,546.0588066999999,546.0805900000005,548.1536216000004,,,,,548.1538553999999,548.1689695000005,548.3690500000002,548.3525611000005,546.0805900000005,,,,,,,,0,1,2.06607829999939,None,,,,,,,,858,20,M,L,2026-02-25_12h03.44.513,VisualSearch_2526_3,,2025.2.4,2026-02-25 12h03.44.879002 +0100,
vertical.xlsx,The target is tilted.,135,23,7,2,0,1,1,1,1,1,1,1,1,1,1,1,1,11,12,135,space,6.9503509999995,None,0,1,1.5333118000007744,None,space,1.0564054000005854,None,0,1,1,1,,,,,2,7,23,4,548.3690500000002,,,,,,,,,,,,,,,,,,,,,548.353376,548.3690500000002,548.8529906000003,548.8583024999998,548.8795154999998,550.4188297000001,,,,,550.4189825000003,550.4344570000003,550.6349360000004,550.6190683000004,548.8795154999998,,,,,,,,0,1,1.5333118000007744,None,,,,,,,,858,20,M,L,2026-02-25_12h03.44.513,VisualSearch_2526_3,,2025.2.4,2026-02-25 12h03.44.879002 +0100,
vertical.xlsx,The target is tilted.,135,24,0,3,0,1,1,1,0,0,0,0,0,0,0,0,1,3,4,135,space,6.9503509999995,None,0,1,0.6236716000003071,None,space,1.0564054000005854,None,0,1,1,1,,,,,3,0,24,6,550.6349360000004,,,,,,,,,,,,,,,,,,,,,550.6199538000001,550.6349360000004,551.1188651000002,551.1241508000003,551.1447859,551.7852860000003,,,,,551.7854772000001,551.8012015000004,552.0012543000003,551.9849568,551.1447859,,,,,,,,0,1,0.6236716000003071,None,,,,,,,,858,20,M,L,2026-02-25_12h03.44.513,VisualSearch_2526_3,,2025.2.4,2026-02-25 12h03.44.879002 +0100,
vertical.xlsx,The target is tilted.,135,25,1,3,1,1,1,1,1,1,1,1,0,0,0,0,0,7,8,135,space,6.9503509999995,None,1,1,0.9756778999999369,None,space,1.0564054000005854,None,0,1,1,1,,,,,3,1,25,1,552.0012543000003,,,,,,,,,,,,,,,,,,,,,551.9858754000006,552.0012543000003,552.4850125000003,552.4902116000003,552.5113914000003,553.5020162000001,,,,,553.5022294,553.5170431000006,553.7174013000003,553.7013371000003,552.5113914000003,,,,,,,,1,1,0.9756778999999369,None,,,,,,,,858,20,M,L,2026-02-25_12h03.44.513,VisualSearch_2526_3,,2025.2.4,2026-02-25 12h03.44.879002 +0100,
vertical.xlsx,The target is tilted.,135,26,2,3,1,0,0,0,0,0,0,0,0,0,0,0,0,0,1,135,space,6.9503509999995,None,1,1,0.5147409000001062,None,space,1.0564054000005854,None,0,1,1,1,,,,,3,2,26,3,553.7174013000003,,,,,,,,,,,,,,,,,,,,,553.7021350000005,553.7174013000003,554.2003105000003,554.2023317000003,554.2164506999998,554.7344738000002,,,,,554.7346711,554.7501296,554.9502810000004,554.9341517000003,554.2164506999998,,,,,,,,1,1,0.5147409000001062,None,,,,,,,,858,20,M,L,2026-02-25_12h03.44.513,VisualSearch_2526_3,,2025.2.4,2026-02-25 12h03.44.879002 +0100,
vertical.xlsx,The target is tilted.,135,27,3,3,0,1,1,1,1,1,1,1,0,0,0,0,1,7,8,135,space,6.9503509999995,None,0,1,1.3631859999995868,None,space,1.0564054000005854,None,0,1,1,1,,,,,3,3,27,5,554.9502810000004,,,,,,,,,,,,,,,,,,,,,554.9349456,554.9502810000004,555.4336948,555.4390977000003,555.4573298000005,556.8341301999999,,,,,556.8343596000004,556.8496800000003,557.0494436999998,557.0335830000004,555.4573298000005,,,,,,,,0,1,1.3631859999995868,None,,,,,,,,858,20,M,L,2026-02-25_12h03.44.513,VisualSearch_2526_3,,2025.2.4,2026-02-25 12h03.44.879002 +0100,
vertical.xlsx,The target is tilted.,135,28,4,3,0,1,1,1,1,1,1,1,1,1,1,1,1,11,12,135,space,6.9503509999995,None,0,1,2.3279309999998077,None,space,1.0564054000005854,None,0,1,1,1,,,,,3,4,28,4,557.0494436999998,,,,,,,,,,,,,,,,,,,,,557.0343806000001,557.0494436999998,557.5334037000002,557.5387302999998,557.5612121000004,559.8999285999998,,,,,559.9001438000005,559.9150344999998,560.1152127000005,560.0988317000001,557.5612121000004,,,,,,,,0,1,2.3279309999998077,None,,,,,,,,858,20,M,L,2026-02-25_12h03.44.513,VisualSearch_2526_3,,2025.2.4,2026-02-25 12h03.44.879002 +0100,
vertical.xlsx,The target is tilted.,135,29,5,3,0,0,0,0,0,0,0,0,0,0,0,0,1,1,1,135,space,6.9503509999995,None,0,1,0.4809411000005639,None,space,1.0564054000005854,None,0,1,1,1,,,,,3,5,29,7,560.1152127000005,,,,,,,,,,,,,,,,,,,,,560.0996626000006,560.1152127000005,560.5990413,560.6043151000003,560.6260785000004,561.1156062999999,,,,,561.1158082000002,561.1314828000004,561.3315868999998,561.3154067000005,560.6260785000004,,,,,,,,0,1,0.4809411000005639,None,,,,,,,,858,20,M,L,2026-02-25_12h03.44.513,VisualSearch_2526_3,,2025.2.4,2026-02-25 12h03.44.879002 +0100,
vertical.xlsx,The target is tilted.,135,30,6,3,1,1,1,1,0,0,0,0,0,0,0,0,0,3,4,135,space,6.9503509999995,None,1,1,0.52932569999939,None,space,1.0564054000005854,None,0,1,1,1,,,,,3,6,30,2,561.3315868999998,,,,,,,,,,,,,,,,,,,,,561.3162705000004,561.3315868999998,561.8152434000003,561.8204513000001,561.8422786000001,562.3824653000001,,,,,562.3826786999998,562.3974832000004,562.5978284000003,562.5816818000003,561.8422786000001,,,,,,,,1,1,0.52932569999939,None,,,,,,,,858,20,M,L,2026-02-25_12h03.44.513,VisualSearch_2526_3,,2025.2.4,2026-02-25 12h03.44.879002 +0100,
vertical.xlsx,The target is tilted.,135,31,7,3,1,1,1,1,1,1,1,1,1,1,1,1,0,11,12,135,space,6.9503509999995,None,1,1,1.425818700000491,None,space,1.0564054000005854,None,0,1,1,1,,,,,3,7,31,0,562.5978284000003,,,,,,,,,,,,,,,,,,,,,562.5824772000005,562.5978284000003,563.0815969000005,563.0865014999999,563.0973639000003,564.5317062000004,,,,,564.5319679000004,564.5467839000003,564.7466494,564.7306201000001,563.0973639000003,,,,,,,,1,1,1.425818700000491,None,,,,,,,,858,20,M,L,2026-02-25_12h03.44.513,VisualSearch_2526_3,,2025.2.4,2026-02-25 12h03.44.879002 +0100,
vertical.xlsx,The target is tilted.,135,32,0,4,1,1,1,1,0,0,0,0,0,0,0,0,0,3,4,135,space,6.9503509999995,None,1,1,0.5434640000003128,None,space,1.0564054000005854,None,0,1,1,1,,,,,4,0,32,2,564.7466494,,,,,,,,,,,,,,,,,,,,,564.7314303000003,564.7466494,565.2306937000003,565.2359366999999,565.2569606000006,565.8141391999998,,,,,565.8143098999999,565.8296575000004,566.0298994000004,566.0135638000002,565.2569606000006,,,,,,,,1,1,0.5434640000003128,None,,,,,,,,858,20,M,L,2026-02-25_12h03.44.513,VisualSearch_2526_3,,2025.2.4,2026-02-25 12h03.44.879002 +0100,
vertical.xlsx,The target is tilted.,135,33,1,4,1,1,1,1,1,1,1,1,1,1,1,1,0,11,12,135,space,6.9503509999995,None,1,1,0.903233299999556,None,space,1.0564054000005854,None,0,1,1,1,,,,,4,1,33,0,566.0298994000004,,,,,,,,,,,,,,,,,,,,,566.0144029000003,566.0298994000004,566.5134066999999,566.5187285000002,566.5401566999999,567.4471534000004,,,,,567.4473696000005,567.4625459999997,567.6627274000002,567.6463816000005,566.5401566999999,,,,,,,,1,1,0.903233299999556,None,,,,,,,,858,20,M,L,2026-02-25_12h03.44.513,VisualSearch_2526_3,,2025.2.4,2026-02-25 12h03.44.879002 +0100,
vertical.xlsx,The target is tilted.,135,34,2,4,0,1,1,1,0,0,0,0,0,0,0,0,1,3,4,135,space,6.9503509999995,None,0,1,0.5911679999999251,None,space,1.0564054000005854,None,0,1,1,1,,,,,4,2,34,6,567.6627274000002,,,,,,,,,,,,,,,,,,,,,567.6472425000002,567.6627274000002,568.1466553999999,568.1519656,568.1728264000003,568.7805429,,,,,568.7807561999998,568.7956144,568.9956569000005,568.9796532999999,568.1728264000003,,,,,,,,0,1,0.5911679999999251,None,,,,,,,,858,20,M,L,2026-02-25_12h03.44.513,VisualSearch_2526_3,,2025.2.4,2026-02-25 12h03.44.879002 +0100,
