file_name,block_instructions,target_example,thisN,thisTrialN,thisRepN,target_presence,opacity_1,opacity_2,opacity_3,opacity_4,opacity_5,opacity_6,opacity_7,opacity_8,opacity_9,opacity_10,opacity_11,opacity_12,n_distract,n_items,target_ori,key_resp_4.keys,key_resp_4.rt,key_resp_4.duration,key_resp.keys,key_resp.corr,key_resp.rt,key_resp.duration,key_resp_5.keys,key_resp_5.rt,key_resp_5.duration,blocks.thisRepN,blocks.thisTrialN,blocks.thisN,blocks.thisIndex,practice_trials.thisRepN,practice_trials.thisTrialN,practice_trials.thisN,practice_trials.thisIndex,trials.thisRepN,trials.thisTrialN,trials.thisN,trials.thisIndex,thisRow.t,notes,Welcome.started,WelcomeText.started,key_resp_2.started,Welcome.stopped,key_resp_2.keys,key_resp_2.rt,key_resp_2.duration,InformedConsent.started,text_4.started,InformedConsent.stopped,key_resp_6.keys,key_resp_6.rt,key_resp_6.duration,key_resp_4.started,example_target.started,text_3.started,blocks.key_resp_4.keys,blocks.key_resp_4.rt,blocks.key_resp_4.duration,FixCross.started,fixCross.started,FixCross.stopped,Stimulus.started,key_resp.started,Stimulus.stopped,practice_trials.key_resp.keys,practice_trials.key_resp.corr,practice_trials.key_resp.rt,practice_trials.key_resp.duration,BlankScreen.started,text.started,text.stopped,BlankScreen.stopped,fixCross.stopped,ExperimentStart.started,text_2.started,key_resp_5.started,ExperimentStart.stopped,blocks.key_resp_5.keys,blocks.key_resp_5.rt,blocks.key_resp_5.duration,trials.key_resp.keys,trials.key_resp.corr,trials.key_resp.rt,trials.key_resp.duration,Thanks.started,ThankYou.started,key_resp_3.started,Thanks.stopped,key_resp_3.keys,key_resp_3.rt,key_resp_3.duration,participant,leeftijd,gender,links/rechtshandig,date,expName,expVersion,psychopyVersion,expStart,
,,,,,,,,,,,,,,,,,,,,,,,,,,,,,,,,,,,,,,,,,,,,,,0.033286900000348396,0.05477670000072976,0.05477670000072976,37.045789000000696,space,36.95941500000026,None,,,,,,,,,,,,,,,,,,,,,,,,,,,,,,,,,,,,,,,,,,,,,,859,21,M,R,2026-02-25_12h16.58.817,VisualSearch_2526_3,,2025.2.4,2026-02-25 12h16.59.226820 +0100,
,,,,,,,,,,,,,,,,,,,,,,,,,,,,,,,,,,,,,,,,,,,,,,,,,,,,,37.04596280000078,37.05630689999998,45.52501610000036,y,8.472781100000248,None,,,,,,,,,,,,,,,,,,,,,,,,,,,,,,,,,,,,,,,,859,21,M,R,2026-02-25_12h16.58.817,VisualSearch_2526_3,,2025.2.4,2026-02-25 12h16.59.226820 +0100,
tilted.xlsx,The target is tilted.,117,0,0,0,0,1,1,1,0,0,0,0,0,0,0,0,1,3,4,117,space,5.59246660000008,None,0,1,1.1731999999992695,None,,,,0,0,0,0,0,0,0,6,,,,,51.19450159999997,,,,,,,,,,,,,,,45.55653060000077,45.55653060000077,45.55653060000077,space,5.59246660000008,None,51.18838020000021,51.19450159999997,51.671899900000426,51.67740120000053,51.68834969999989,52.872744799999964,0,1,1.1731999999992695,None,52.87300090000008,52.88813389999996,53.08820410000044,53.07211180000013,,,,,,,,,,,,,,,,,,,,859,21,M,R,2026-02-25_12h16.58.817,VisualSearch_2526_3,,2025.2.4,2026-02-25 12h16.59.226820 +0100,
tilted.xlsx,The target is tilted.,117,1,1,0,1,0,0,0,0,0,0,0,0,0,0,0,0,0,1,117,space,5.59246660000008,None,1,1,0.6363838999996005,None,,,,0,0,0,0,0,1,1,3,,,,,53.08820410000044,,,,,,,,,,,,,,,,,,,,,53.072851800000535,53.08820410000044,53.57196460000068,53.577355100000204,53.59874430000036,54.23862160000044,1,1,0.6363838999996005,None,54.23885539999992,54.25431740000022,54.45429080000031,54.43823060000068,53.59874430000036,,,,,,,,,,,,,,,,,,,859,21,M,R,2026-02-25_12h16.58.817,VisualSearch_2526_3,,2025.2.4,2026-02-25 12h16.59.226820 +0100,
tilted.xlsx,The target is tilted.,117,2,2,0,1,1,1,1,1,1,1,1,1,1,1,1,0,11,12,117,space,5.59246660000008,None,1,1,1.556796800000484,None,,,,0,0,0,0,0,2,2,0,,,,,54.45429080000031,,,,,,,,,,,,,,,,,,,,,54.43906430000061,54.45429080000031,54.93812700000035,54.943658200000755,54.964876000000004,56.53681360000064,1,1,1.556796800000484,None,56.536929200000486,56.55297590000009,56.7532326999999,56.737189299999955,54.964876000000004,,,,,,,,,,,,,,,,,,,859,21,M,R,2026-02-25_12h16.58.817,VisualSearch_2526_3,,2025.2.4,2026-02-25 12h16.59.226820 +0100,
tilted.xlsx,The target is tilted.,117,3,3,0,0,1,1,1,1,1,1,1,0,0,0,0,1,7,8,117,space,5.59246660000008,None,0,1,2.033127200000308,None,,,,0,0,0,0,0,3,3,5,,,,,56.7532326999999,,,,,,,,,,,,,,,,,,,,,56.73794369999996,56.7532326999999,57.23714110000037,57.242657200000394,57.264270300000135,59.3039217000005,0,1,2.033127200000308,None,59.30415979999998,59.318894200000614,59.51943030000075,59.50333090000004,,,,,,,,,,,,,,,,,,,,859,21,M,R,2026-02-25_12h16.58.817,VisualSearch_2526_3,,2025.2.4,2026-02-25 12h16.59.226820 +0100,
tilted.xlsx,The target is tilted.,117,4,4,0,1,1,1,1,1,1,1,1,0,0,0,0,0,7,8,117,space,5.59246660000008,None,1,1,0.8668467000006785,None,,,,0,0,0,0,0,4,4,1,,,,,59.51943030000075,,,,,,,,,,,,,,,,,,,,,59.504091900000276,59.51943030000075,60.00315050000063,60.0085523000007,60.02625220000027,60.90361120000034,1,1,0.8668467000006785,None,60.90382730000056,60.91848690000006,61.11890390000008,61.10244700000021,60.02625220000027,,,,,,,,,,,,,,,,,,,859,21,M,R,2026-02-25_12h16.58.817,VisualSearch_2526_3,,2025.2.4,2026-02-25 12h16.59.226820 +0100,
tilted.xlsx,The target is tilted.,117,5,5,0,0,1,1,1,1,1,1,1,1,1,1,1,1,11,12,117,space,5.59246660000008,None,0,1,2.3244611000000077,None,,,,0,0,0,0,0,5,5,4,,,,,61.11890390000008,,,,,,,,,,,,,,,,,,,,,61.103207699999984,61.11890390000008,61.602687999999944,61.607648600000175,61.61848630000077,63.952291100000366,0,1,2.3244611000000077,None,63.95309249999991,63.96714410000004,64.1679279,64.15190280000024,61.61848630000077,,,,,,,,,,,,,,,,,,,859,21,M,R,2026-02-25_12h16.58.817,VisualSearch_2526_3,,2025.2.4,2026-02-25 12h16.59.226820 +0100,
tilted.xlsx,The target is tilted.,117,6,6,0,1,1,1,1,0,0,0,0,0,0,0,0,0,3,4,117,space,5.59246660000008,None,1,1,0.6864556000000448,None,,,,0,0,0,0,0,6,6,2,,,,,64.1679279,,,,,,,,,,,,,,,,,,,,,64.15265100000033,64.1679279,64.6516717000004,64.65708919999997,64.67885540000043,65.36861800000042,1,1,0.6864556000000448,None,65.36886420000064,65.38369270000021,65.58399710000049,65.56799240000055,64.67885540000043,,,,,,,,,,,,,,,,,,,859,21,M,R,2026-02-25_12h16.58.817,VisualSearch_2526_3,,2025.2.4,2026-02-25 12h16.59.226820 +0100,
tilted.xlsx,The target is tilted.,117,7,7,0,0,0,0,0,0,0,0,0,0,0,0,0,1,1,1,117,space,5.59246660000008,None,0,1,0.6323450999998386,None,,,,0,0,0,0,0,7,7,7,,,,,65.58399710000049,,,,,,,,,,,,,,,,,,,,,65.56878440000037,65.58399710000049,66.0678983000007,66.07323350000024,66.09390350000012,66.73421320000034,0,1,0.6323450999998386,None,66.73436519999996,66.74969050000072,66.9500293000001,66.9340302999999,66.09390350000012,,,,,,,,,,,,,,,,,,,859,21,M,R,2026-02-25_12h16.58.817,VisualSearch_2526_3,,2025.2.4,2026-02-25 12h16.59.226820 +0100,
tilted.xlsx,The target is tilted.,117,0,0,0,0,1,1,1,0,0,0,0,0,0,0,0,1,3,4,117,space,5.59246660000008,None,0,1,1.1335888000003251,None,space,2.0901551999995718,None,0,0,0,0,,,,,0,0,0,6,69.0910169000008,,,,,,,,,,,,,,,,,,,,,69.08637460000045,69.0910169000008,69.56648850000056,69.57204440000078,69.59396500000003,70.73432410000078,,,,,70.73454960000072,70.7482585000007,70.94909129999996,70.9329631999999,,66.94202330000007,66.9500293000001,66.9500293000001,69.05068220000067,space,2.0901551999995718,None,0,1,1.1335888000003251,None,,,,,,,,859,21,M,R,2026-02-25_12h16.58.817,VisualSearch_2526_3,,2025.2.4,2026-02-25 12h16.59.226820 +0100,
tilted.xlsx,The target is tilted.,117,1,1,0,0,0,0,0,0,0,0,0,0,0,0,0,1,1,1,117,space,5.59246660000008,None,0,1,0.5010237000005873,None,space,2.0901551999995718,None,0,0,0,0,,,,,0,1,1,7,70.94909129999996,,,,,,,,,,,,,,,,,,,,,70.93376950000038,70.94909129999996,71.4327929000001,71.43821389999994,71.45996820000073,71.9665300000006,,,,,71.96728330000042,71.98116910000044,72.18175840000004,72.16534180000053,71.45996820000073,,,,,,,,0,1,0.5010237000005873,None,,,,,,,,859,21,M,R,2026-02-25_12h16.58.817,VisualSearch_2526_3,,2025.2.4,2026-02-25 12h16.59.226820 +0100,
tilted.xlsx,The target is tilted.,117,2,2,0,1,0,0,0,0,0,0,0,0,0,0,0,0,0,1,117,space,5.59246660000008,None,1,1,0.557312599999932,None,space,2.0901551999995718,None,0,0,0,0,,,,,0,2,2,3,72.18175840000004,,,,,,,,,,,,,,,,,,,,,72.1662366999999,72.18175840000004,72.6655767000002,72.67104110000037,72.69279360000019,73.26561810000021,,,,,73.26584230000026,73.2810614,73.48151180000059,73.46548380000058,72.69279360000019,,,,,,,,1,1,0.557312599999932,None,,,,,,,,859,21,M,R,2026-02-25_12h16.58.817,VisualSearch_2526_3,,2025.2.4,2026-02-25 12h16.59.226820 +0100,
tilted.xlsx,The target is tilted.,117,3,3,0,1,1,1,1,1,1,1,1,0,0,0,0,0,7,8,117,space,5.59246660000008,None,1,1,0.6457789000005505,None,space,2.0901551999995718,None,0,0,0,0,,,,,0,3,3,1,73.48151180000059,,,,,,,,,,,,,,,,,,,,,73.46627080000053,73.48151180000059,73.96538210000017,73.97087120000015,73.99226950000048,74.64885970000068,,,,,74.64909210000042,74.66363630000069,74.86431540000012,74.84826430000066,73.99226950000048,,,,,,,,1,1,0.6457789000005505,None,,,,,,,,859,21,M,R,2026-02-25_12h16.58.817,VisualSearch_2526_3,,2025.2.4,2026-02-25 12h16.59.226820 +0100,
tilted.xlsx,The target is tilted.,117,4,4,0,0,1,1,1,1,1,1,1,1,1,1,1,1,11,12,117,space,5.59246660000008,None,0,1,1.738183299999946,None,space,2.0901551999995718,None,0,0,0,0,,,,,0,4,4,4,74.86431540000012,,,,,,,,,,,,,,,,,,,,,74.84906900000078,74.86431540000012,75.34830039999997,75.35382500000014,75.37500120000004,77.1146959000007,,,,,77.11502860000019,77.12983570000051,77.33023850000063,77.31400890000077,75.37500120000004,,,,,,,,0,1,1.738183299999946,None,,,,,,,,859,21,M,R,2026-02-25_12h16.58.817,VisualSearch_2526_3,,2025.2.4,2026-02-25 12h16.59.226820 +0100,
tilted.xlsx,The target is tilted.,117,5,5,0,0,1,1,1,1,1,1,1,0,0,0,0,1,7,8,117,space,5.59246660000008,None,0,1,2.1606909000001906,None,space,2.0901551999995718,None,0,0,0,0,,,,,0,5,5,5,77.33023850000063,,,,,,,,,,,,,,,,,,,,,77.31490510000003,77.33023850000063,77.81408050000027,77.81947780000064,77.84092790000068,80.01320390000001,,,,,80.01343320000069,80.02877780000017,80.22912780000024,80.21291330000076,77.84092790000068,,,,,,,,0,1,2.1606909000001906,None,,,,,,,,859,21,M,R,2026-02-25_12h16.58.817,VisualSearch_2526_3,,2025.2.4,2026-02-25 12h16.59.226820 +0100,
tilted.xlsx,The target is tilted.,117,6,6,0,1,1,1,1,1,1,1,1,1,1,1,1,0,11,12,117,space,5.59246660000008,None,1,1,1.6362699000001157,None,space,2.0901551999995718,None,0,0,0,0,,,,,0,6,6,0,80.22912780000024,,,,,,,,,,,,,,,,,,,,,80.21377350000057,80.22912780000024,80.71311229999992,80.71812150000005,80.72894710000037,82.37929050000002,,,,,82.3795196000001,82.39473240000007,82.59517400000004,82.57924810000077,80.72894710000037,,,,,,,,1,1,1.6362699000001157,None,,,,,,,,859,21,M,R,2026-02-25_12h16.58.817,VisualSearch_2526_3,,2025.2.4,2026-02-25 12h16.59.226820 +0100,
tilted.xlsx,The target is tilted.,117,7,7,0,1,1,1,1,0,0,0,0,0,0,0,0,0,3,4,117,space,5.59246660000008,None,1,1,1.0997856000003594,None,space,2.0901551999995718,None,0,0,0,0,,,,,0,7,7,2,82.59517400000004,,,,,,,,,,,,,,,,,,,,,82.5800964,82.59517400000004,83.07862130000012,83.08402910000041,83.10578119999991,84.21251830000074,,,,,84.2127803000003,84.22755839999991,84.42788840000048,84.41166670000075,83.10578119999991,,,,,,,,1,1,1.0997856000003594,None,,,,,,,,859,21,M,R,2026-02-25_12h16.58.817,VisualSearch_2526_3,,2025.2.4,2026-02-25 12h16.59.226820 +0100,
tilted.xlsx,The target is tilted.,117,8,0,1,1,0,0,0,0,0,0,0,0,0,0,0,0,0,1,117,space,5.59246660000008,None,1,1,0.5600930000000517,None,space,2.0901551999995718,None,0,0,0,0,,,,,1,0,8,3,84.42788840000048,,,,,,,,,,,,,,,,,,,,,84.41253460000007,84.42788840000048,84.91178160000072,84.91730270000062,84.93907380000019,85.51082630000019,,,,,85.51094610000018,85.5272702000002,,85.71120070000052,84.93907380000019,,,,,,,,1,1,0.5600930000000517,None,,,,,,,,859,21,M,R,2026-02-25_12h16.58.817,VisualSearch_2526_3,,2025.2.4,2026-02-25 12h16.59.226820 +0100,
tilted.xlsx,The target is tilted.,117,9,1,1,0,1,1,1,1,1,1,1,0,0,0,0,1,7,8,117,space,5.59246660000008,None,0,1,2.5720660999995744,None,space,2.0901551999995718,None,0,0,0,0,,,,,1,1,9,5,85.72748300000057,,,,,,,,,,,,,,,,,,,,,85.7120788000002,85.72748300000057,86.21122860000014,86.21664250000049,86.23743710000053,88.81084809999993,,,,,88.81104500000038,88.82574990000012,89.02639930000078,89.01024899999993,86.23743710000053,,,,,,,,0,1,2.5720660999995744,None,,,,,,,,859,21,M,R,2026-02-25_12h16.58.817,VisualSearch_2526_3,,2025.2.4,2026-02-25 12h16.59.226820 +0100,
tilted.xlsx,The target is tilted.,117,10,2,1,1,1,1,1,1,1,1,1,0,0,0,0,0,7,8,117,space,5.59246660000008,None,1,1,1.4595422000002145,None,space,2.0901551999995718,None,0,0,0,0,,,,,1,2,10,1,89.02639930000078,,,,,,,,,,,,,,,,,,,,,89.0111149000004,89.02639930000078,89.51023710000027,89.51566270000058,89.53729740000017,91.0090637000003,,,,,91.00918189999993,91.02505569999994,,91.20937529999992,89.53729740000017,,,,,,,,1,1,1.4595422000002145,None,,,,,,,,859,21,M,R,2026-02-25_12h16.58.817,VisualSearch_2526_3,,2025.2.4,2026-02-25 12h16.59.226820 +0100,
tilted.xlsx,The target is tilted.,117,11,3,1,1,1,1,1,0,0,0,0,0,0,0,0,0,3,4,117,space,5.59246660000008,None,1,1,0.8238320000000385,None,space,2.0901551999995718,None,0,0,0,0,,,,,1,3,11,2,91.22572790000049,,,,,,,,,,,,,,,,,,,,,91.21024750000015,91.22572790000049,91.70956470000056,91.71496990000014,91.7359193000002,92.57534160000068,,,,,92.57546340000044,92.59121370000048,92.7917264000007,92.77575650000017,91.7359193000002,,,,,,,,1,1,0.8238320000000385,None,,,,,,,,859,21,M,R,2026-02-25_12h16.58.817,VisualSearch_2526_3,,2025.2.4,2026-02-25 12h16.59.226820 +0100,
tilted.xlsx,The target is tilted.,117,12,4,1,0,1,1,1,0,0,0,0,0,0,0,0,1,3,4,117,space,5.59246660000008,None,0,1,0.8801500999998098,None,space,2.0901551999995718,None,0,0,0,0,,,,,1,4,12,6,92.7917264000007,,,,,,,,,,,,,,,,,,,,,92.7766231000005,92.7917264000007,93.27529390000018,93.28069550000055,93.30217960000027,94.19255650000014,,,,,94.1928138000003,94.20756660000006,94.40801650000049,94.39197150000018,93.30217960000027,,,,,,,,0,1,0.8801500999998098,None,,,,,,,,859,21,M,R,2026-02-25_12h16.58.817,VisualSearch_2526_3,,2025.2.4,2026-02-25 12h16.59.226820 +0100,
tilted.xlsx,The target is tilted.,117,13,5,1,0,0,0,0,0,0,0,0,0,0,0,0,1,1,1,117,space,5.59246660000008,None,0,1,0.6705455000001166,None,space,2.0901551999995718,None,0,0,0,0,,,,,1,5,13,7,94.40801650000049,,,,,,,,,,,,,,,,,,,,,94.39276390000032,94.40801650000049,94.8916048000001,94.8970715000005,94.9185236000003,95.59210800000074,,,,,95.59235620000072,95.60682780000025,95.80742160000045,95.79143460000068,94.9185236000003,,,,,,,,0,1,0.6705455000001166,None,,,,,,,,859,21,M,R,2026-02-25_12h16.58.817,VisualSearch_2526_3,,2025.2.4,2026-02-25 12h16.59.226820 +0100,
tilted.xlsx,The target is tilted.,117,14,6,1,1,1,1,1,1,1,1,1,1,1,1,1,0,11,12,117,space,5.59246660000008,None,1,1,1.5025464000000284,None,space,2.0901551999995718,None,0,0,0,0,,,,,1,6,14,0,95.80742160000045,,,,,,,,,,,,,,,,,,,,,95.79225110000061,95.80742160000045,96.29103699999996,96.29646760000014,96.31776760000048,97.82430629999999,,,,,97.82450710000012,97.83965350000017,98.03990820000035,98.02398790000007,96.31776760000048,,,,,,,,1,1,1.5025464000000284,None,,,,,,,,859,21,M,R,2026-02-25_12h16.58.817,VisualSearch_2526_3,,2025.2.4,2026-02-25 12h16.59.226820 +0100,
tilted.xlsx,The target is tilted.,117,15,7,1,0,1,1,1,1,1,1,1,1,1,1,1,1,11,12,117,space,5.59246660000008,None,0,1,1.982830400000239,None,space,2.0901551999995718,None,0,0,0,0,,,,,1,7,15,4,98.03990820000035,,,,,,,,,,,,,,,,,,,,,98.02485419999994,98.03990820000035,98.52401060000011,98.52942870000061,98.55161060000046,100.54048039999998,,,,,100.54074700000001,100.55552400000033,100.75601950000055,100.73994570000013,98.55161060000046,,,,,,,,0,1,1.982830400000239,None,,,,,,,,859,21,M,R,2026-02-25_12h16.58.817,VisualSearch_2526_3,,2025.2.4,2026-02-25 12h16.59.226820 +0100,
tilted.xlsx,The target is tilted.,117,16,0,2,1,0,0,0,0,0,0,0,0,0,0,0,0,0,1,117,space,5.59246660000008,None,1,1,0.6217415000000983,None,space,2.0901551999995718,None,0,0,0,0,,,,,2,0,16,3,100.75601950000055,,,,,,,,,,,,,,,,,,,,,100.74080420000064,100.75601950000055,101.23983930000031,101.2453101000001,101.26695120000022,101.89013940000041,,,,,101.89037970000027,101.9050756000006,102.10547430000042,102.08953760000077,101.26695120000022,,,,,,,,1,1,0.6217415000000983,None,,,,,,,,859,21,M,R,2026-02-25_12h16.58.817,VisualSearch_2526_3,,2025.2.4,2026-02-25 12h16.59.226820 +0100,
tilted.xlsx,The target is tilted.,117,17,1,2,1,1,1,1,1,1,1,1,0,0,0,0,0,7,8,117,space,5.59246660000008,None,0,0,2.683947999999873,None,space,2.0901551999995718,None,0,0,0,0,,,,,2,1,17,1,102.10547430000042,,,,,,,,,,,,,,,,,,,,,102.09037890000036,102.10547430000042,102.58946689999993,102.5949081000008,102.61674200000016,105.30541090000042,,,,,105.30563700000039,105.32069010000032,105.52112860000034,105.5049368,102.61674200000016,,,,,,,,0,0,2.683947999999873,None,,,,,,,,859,21,M,R,2026-02-25_12h16.58.817,VisualSearch_2526_3,,2025.2.4,2026-02-25 12h16.59.226820 +0100,
tilted.xlsx,The target is tilted.,117,18,2,2,1,1,1,1,0,0,0,0,0,0,0,0,0,3,4,117,space,5.59246660000008,None,1,1,0.7291949000000386,None,space,2.0901551999995718,None,0,0,0,0,,,,,2,2,18,2,105.52112860000034,,,,,,,,,,,,,,,,,,,,,105.5057566000005,105.52112860000034,106.0049155000006,106.01037050000014,106.02859940000053,106.77172800000062,,,,,106.77200560000074,106.78671759999997,106.98732350000046,106.97076930000003,106.02859940000053,,,,,,,,1,1,0.7291949000000386,None,,,,,,,,859,21,M,R,2026-02-25_12h16.58.817,VisualSearch_2526_3,,2025.2.4,2026-02-25 12h16.59.226820 +0100,
tilted.xlsx,The target is tilted.,117,19,3,2,0,0,0,0,0,0,0,0,0,0,0,0,1,1,1,117,space,5.59246660000008,None,0,1,0.6530510000002323,None,space,2.0901551999995718,None,0,0,0,0,,,,,2,3,19,7,106.98732350000046,,,,,,,,,,,,,,,,,,,,,106.97156790000008,106.98732350000046,107.47110659999998,107.47661900000003,107.4979312000005,108.15436610000052,,,,,108.15458790000048,108.16978139999992,108.3701458000005,108.35411810000005,107.4979312000005,,,,,,,,0,1,0.6530510000002323,None,,,,,,,,859,21,M,R,2026-02-25_12h16.58.817,VisualSearch_2526_3,,2025.2.4,2026-02-25 12h16.59.226820 +0100,
tilted.xlsx,The target is tilted.,117,20,4,2,0,1,1,1,1,1,1,1,0,0,0,0,1,7,8,117,space,5.59246660000008,None,0,1,2.460180400000354,None,space,2.0901551999995718,None,0,0,0,0,,,,,2,4,20,5,108.3701458000005,,,,,,,,,,,,,,,,,,,,,108.35491290000027,108.3701458000005,108.85377020000033,108.85933870000008,108.88088850000076,111.35323750000043,,,,,111.35346190000018,111.36860419999994,111.56916060000003,111.55304909999995,108.88088850000076,,,,,,,,0,1,2.460180400000354,None,,,,,,,,859,21,M,R,2026-02-25_12h16.58.817,VisualSearch_2526_3,,2025.2.4,2026-02-25 12h16.59.226820 +0100,
tilted.xlsx,The target is tilted.,117,21,5,2,1,1,1,1,1,1,1,1,1,1,1,1,0,11,12,117,space,5.59246660000008,None,1,1,1.019251699999586,None,space,2.0901551999995718,None,0,0,0,0,,,,,2,5,21,0,111.56916060000003,,,,,,,,,,,,,,,,,,,,,111.55386369999997,111.56916060000003,112.05297990000054,112.0583845000001,112.08010840000043,113.10265630000049,,,,,113.10278079999989,113.11782029999995,113.31853980000051,113.30248420000044,112.08010840000043,,,,,,,,1,1,1.019251699999586,None,,,,,,,,859,21,M,R,2026-02-25_12h16.58.817,VisualSearch_2526_3,,2025.2.4,2026-02-25 12h16.59.226820 +0100,
tilted.xlsx,The target is tilted.,117,22,6,2,0,1,1,1,1,1,1,1,1,1,1,1,1,11,12,117,space,5.59246660000008,None,0,1,2.3134797000002436,None,space,2.0901551999995718,None,0,0,0,0,,,,,2,6,22,4,113.31853980000051,,,,,,,,,,,,,,,,,,,,,113.30328270000064,113.31853980000051,113.80239040000015,113.80789690000074,113.83019469999999,116.15218679999998,,,,,116.15243140000075,116.16708530000051,116.36744520000047,116.35129420000067,113.83019469999999,,,,,,,,0,1,2.3134797000002436,None,,,,,,,,859,21,M,R,2026-02-25_12h16.58.817,VisualSearch_2526_3,,2025.2.4,2026-02-25 12h16.59.226820 +0100,
tilted.xlsx,The target is tilted.,117,23,7,2,0,1,1,1,0,0,0,0,0,0,0,0,1,3,4,117,space,5.59246660000008,None,0,1,0.9229927000005773,None,space,2.0901551999995718,None,0,0,0,0,,,,,2,7,23,6,116.36744520000047,,,,,,,,,,,,,,,,,,,,,116.35211920000074,116.36744520000047,116.85137910000049,116.8567167000001,116.87836370000059,117.81696350000038,,,,,117.8171228000001,117.83334190000005,,118.0173450000002,116.87836370000059,,,,,,,,0,1,0.9229927000005773,None,,,,,,,,859,21,M,R,2026-02-25_12h16.58.817,VisualSearch_2526_3,,2025.2.4,2026-02-25 12h16.59.226820 +0100,
tilted.xlsx,The target is tilted.,117,24,0,3,0,0,0,0,0,0,0,0,0,0,0,0,1,1,1,117,space,5.59246660000008,None,0,1,0.6414463999999498,None,space,2.0901551999995718,None,0,0,0,0,,,,,3,0,24,7,118.03350580000006,,,,,,,,,,,,,,,,,,,,,118.01822570000058,118.03350580000006,118.51741610000045,118.52289960000053,118.54475260000072,119.20099190000019,,,,,119.20126210000035,119.21598840000024,119.41646570000012,119.40006900000026,118.54475260000072,,,,,,,,0,1,0.6414463999999498,None,,,,,,,,859,21,M,R,2026-02-25_12h16.58.817,VisualSearch_2526_3,,2025.2.4,2026-02-25 12h16.59.226820 +0100,
tilted.xlsx,The target is tilted.,117,25,1,3,0,1,1,1,0,0,0,0,0,0,0,0,1,3,4,117,space,5.59246660000008,None,0,1,0.831296299999849,None,space,2.0901551999995718,None,0,0,0,0,,,,,3,1,25,6,119.41646570000012,,,,,,,,,,,,,,,,,,,,,119.4008603000002,119.41646570000012,119.9003145000006,119.90570320000006,119.92740550000053,120.76741110000057,,,,,120.76763500000015,120.78199089999998,120.9827709000001,120.96664770000007,119.92740550000053,,,,,,,,0,1,0.831296299999849,None,,,,,,,,859,21,M,R,2026-02-25_12h16.58.817,VisualSearch_2526_3,,2025.2.4,2026-02-25 12h16.59.226820 +0100,
tilted.xlsx,The target is tilted.,117,26,2,3,1,1,1,1,1,1,1,1,0,0,0,0,0,7,8,117,space,5.59246660000008,None,1,1,1.1535213999995904,None,space,2.0901551999995718,None,0,0,0,0,,,,,3,2,26,1,120.9827709000001,,,,,,,,,,,,,,,,,,,,,120.96746750000057,120.9827709000001,121.46626610000021,121.47171230000004,121.49317990000054,122.65002020000065,,,,,122.6502730000002,122.66491730000052,122.86545340000066,122.84940710000046,121.49317990000054,,,,,,,,1,1,1.1535213999995904,None,,,,,,,,859,21,M,R,2026-02-25_12h16.58.817,VisualSearch_2526_3,,2025.2.4,2026-02-25 12h16.59.226820 +0100,
tilted.xlsx,The target is tilted.,117,27,3,3,1,0,0,0,0,0,0,0,0,0,0,0,0,0,1,117,space,5.59246660000008,None,1,1,0.5811929000001328,None,space,2.0901551999995718,None,0,0,0,0,,,,,3,3,27,3,122.86545340000066,,,,,,,,,,,,,,,,,,,,,122.85020650000024,122.86545340000066,123.3484283000007,123.35115990000031,123.36496700000043,123.94965930000035,,,,,123.94988470000044,123.9644842000007,124.16495410000061,124.14896230000068,123.36496700000043,,,,,,,,1,1,0.5811929000001328,None,,,,,,,,859,21,M,R,2026-02-25_12h16.58.817,VisualSearch_2526_3,,2025.2.4,2026-02-25 12h16.59.226820 +0100,
tilted.xlsx,The target is tilted.,117,28,4,3,0,1,1,1,1,1,1,1,0,0,0,0,1,7,8,117,space,5.59246660000008,None,0,1,1.8920001999995293,None,space,2.0901551999995718,None,0,0,0,0,,,,,3,4,28,5,124.16495410000061,,,,,,,,,,,,,,,,,,,,,124.14979480000056,124.16495410000061,124.64865240000017,124.65401470000052,124.67512960000022,126.58157200000005,,,,,126.58181090000016,126.59695470000042,126.79748160000054,126.78150460000052,124.67512960000022,,,,,,,,0,1,1.8920001999995293,None,,,,,,,,859,21,M,R,2026-02-25_12h16.58.817,VisualSearch_2526_3,,2025.2.4,2026-02-25 12h16.59.226820 +0100,
tilted.xlsx,The target is tilted.,117,29,5,3,1,1,1,1,1,1,1,1,1,1,1,1,0,11,12,117,space,5.59246660000008,None,1,1,0.8568347000000358,None,space,2.0901551999995718,None,0,0,0,0,,,,,3,5,29,0,126.79748160000054,,,,,,,,,,,,,,,,,,,,,126.78232389999994,126.79748160000054,127.28128060000017,127.28678209999998,127.30847580000045,128.18015080000077,,,,,128.18026869999994,128.19671650000055,,128.38063150000016,127.30847580000045,,,,,,,,1,1,0.8568347000000358,None,,,,,,,,859,21,M,R,2026-02-25_12h16.58.817,VisualSearch_2526_3,,2025.2.4,2026-02-25 12h16.59.226820 +0100,
tilted.xlsx,The target is tilted.,117,30,6,3,0,1,1,1,1,1,1,1,1,1,1,1,1,11,12,117,space,5.59246660000008,None,0,1,1.8546057000003202,None,space,2.0901551999995718,None,0,0,0,0,,,,,3,6,30,4,128.39698700000008,,,,,,,,,,,,,,,,,,,,,128.38160900000003,128.39698700000008,128.8804608999999,128.8859456,128.90708110000014,130.76395550000052,,,,,130.76419460000034,130.77900540000064,130.97942580000017,130.96309910000036,,,,,,,,,0,1,1.8546057000003202,None,,,,,,,,859,21,M,R,2026-02-25_12h16.58.817,VisualSearch_2526_3,,2025.2.4,2026-02-25 12h16.59.226820 +0100,
tilted.xlsx,The target is tilted.,117,31,7,3,1,1,1,1,0,0,0,0,0,0,0,0,0,3,4,117,space,5.59246660000008,None,1,1,0.8619748999999501,None,space,2.0901551999995718,None,0,0,0,0,,,,,3,7,31,2,130.97942580000017,,,,,,,,,,,,,,,,,,,,,130.9639216000005,130.97942580000017,131.46328390000053,131.46870320000016,131.48588420000033,132.3630105000002,,,,,132.36327230000006,132.37848140000006,132.57899369999996,132.5625069000007,131.48588420000033,,,,,,,,1,1,0.8619748999999501,None,,,,,,,,859,21,M,R,2026-02-25_12h16.58.817,VisualSearch_2526_3,,2025.2.4,2026-02-25 12h16.59.226820 +0100,
tilted.xlsx,The target is tilted.,117,32,0,4,0,1,1,1,1,1,1,1,0,0,0,0,1,7,8,117,space,5.59246660000008,None,0,1,1.196378999999979,None,space,2.0901551999995718,None,0,0,0,0,,,,,4,0,32,5,132.57899369999996,,,,,,,,,,,,,,,,,,,,,132.56333059999997,132.57899369999996,133.0621441000003,133.06516230000034,133.0800315000006,134.2795498000005,,,,,134.27979070000038,134.29420350000055,134.49497360000078,134.47895990000052,133.0800315000006,,,,,,,,0,1,1.196378999999979,None,,,,,,,,859,21,M,R,2026-02-25_12h16.58.817,VisualSearch_2526_3,,2025.2.4,2026-02-25 12h16.59.226820 +0100,
tilted.xlsx,The target is tilted.,117,33,1,4,0,0,0,0,0,0,0,0,0,0,0,0,1,1,1,117,space,5.59246660000008,None,0,1,0.8277888000002349,None,space,2.0901551999995718,None,0,0,0,0,,,,,4,1,33,7,134.49497360000078,,,,,,,,,,,,,,,,,,,,,134.4798636000005,134.49497360000078,134.9788152000001,134.98427720000018,135.00458330000038,135.8453554000007,,,,,135.84564760000012,135.86062120000042,136.06116700000075,136.04508330000044,135.00458330000038,,,,,,,,0,1,0.8277888000002349,None,,,,,,,,859,21,M,R,2026-02-25_12h16.58.817,VisualSearch_2526_3,,2025.2.4,2026-02-25 12h16.59.226820 +0100,
tilted.xlsx,The target is tilted.,117,34,2,4,0,1,1,1,0,0,0,0,0,0,0,0,1,3,4,117,space,5.59246660000008,None,0,1,1.6922307000004366,None,space,2.0901551999995718,None,0,0,0,0,,,,,4,2,34,6,136.06116700000075,,,,,,,,,,,,,,,,,,,,,136.0458789000004,136.06116700000075,136.54487380000046,136.55044670000007,136.5721151000007,138.27695210000002,,,,,138.27707400000054,138.29311790000065,,138.47738030000073,136.5721151000007,,,,,,,,0,1,1.6922307000004366,None,,,,,,,,859,21,M,R,2026-02-25_12h16.58.817,VisualSearch_2526_3,,2025.2.4,2026-02-25 12h16.59.226820 +0100,
tilted.xlsx,The target is tilted.,117,35,3,4,1,1,1,1,0,0,0,0,0,0,0,0,0,3,4,117,space,5.59246660000008,None,1,1,0.7659356000003754,None,space,2.0901551999995718,None,0,0,0,0,,,,,4,3,35,2,138.49347660000058,,,,,,,,,,,,,,,,,,,,,138.4783191000006,138.49347660000058,138.97751440000047,138.98290720000023,139.0041325000002,139.77783760000057,,,,,139.77806070000042,139.79249419999996,139.99305619999996,139.9767885000001,139.0041325000002,,,,,,,,1,1,0.7659356000003754,None,,,,,,,,859,21,M,R,2026-02-25_12h16.58.817,VisualSearch_2526_3,,2025.2.4,2026-02-25 12h16.59.226820 +0100,
tilted.xlsx,The target is tilted.,117,36,4,4,0,1,1,1,1,1,1,1,1,1,1,1,1,11,12,117,space,5.59246660000008,None,0,1,1.9900641000003816,None,space,2.0901551999995718,None,0,0,0,0,,,,,4,4,36,4,139.99305619999996,,,,,,,,,,,,,,,,,,,,,139.97760110000036,139.99305619999996,140.47693660000004,140.48247210000045,140.5041525000006,142.5101198000002,,,,,142.51043150000078,142.52526579999994,142.7254296000001,142.7092261000007,140.5041525000006,,,,,,,,0,1,1.9900641000003816,None,,,,,,,,859,21,M,R,2026-02-25_12h16.58.817,VisualSearch_2526_3,,2025.2.4,2026-02-25 12h16.59.226820 +0100,
tilted.xlsx,The target is tilted.,117,37,5,4,1,1,1,1,1,1,1,1,1,1,1,1,0,11,12,117,space,5.59246660000008,None,1,1,1.3248053999996046,None,space,2.0901551999995718,None,0,0,0,0,,,,,4,5,37,0,142.7254296000001,,,,,,,,,,,,,,,,,,,,,142.71004270000049,142.7254296000001,143.20953260000078,143.21496540000044,143.23691710000003,144.57570190000024,,,,,144.57592280000063,144.59090300000025,144.7916094000002,144.77543440000045,143.23691710000003,,,,,,,,1,1,1.3248053999996046,None,,,,,,,,859,21,M,R,2026-02-25_12h16.58.817,VisualSearch_2526_3,,2025.2.4,2026-02-25 12h16.59.226820 +0100,
tilted.xlsx,The target is tilted.,117,38,6,4,1,1,1,1,1,1,1,1,0,0,0,0,0,7,8,117,space,5.59246660000008,None,1,1,0.9855459999998857,None,space,2.0901551999995718,None,0,0,0,0,,,,,4,6,38,1,144.7916094000002,,,,,,,,,,,,,,,,,,,,,144.77626899999996,144.7916094000002,145.27535080000052,145.28048730000046,145.29130310000073,146.29199870000048,,,,,146.29222110000046,146.30733730000065,146.5074226000006,146.49173000000064,145.29130310000073,,,,,,,,1,1,0.9855459999998857,None,,,,,,,,859,21,M,R,2026-02-25_12h16.58.817,VisualSearch_2526_3,,2025.2.4,2026-02-25 12h16.59.226820 +0100,
tilted.xlsx,The target is tilted.,117,39,7,4,1,0,0,0,0,0,0,0,0,0,0,0,0,0,1,117,space,5.59246660000008,None,1,1,0.5655538000000888,None,space,2.0901551999995718,None,0,0,0,0,,,,,4,7,39,3,146.5074226000006,,,,,,,,,,,,,,,,,,,,,146.49257450000005,146.5074226000006,146.99154100000032,146.99696610000046,147.01786570000058,147.5911716999999,,,,,147.59129140000005,147.60659149999992,147.80722980000064,147.7912978000004,147.01786570000058,,,,,,,,1,1,0.5655538000000888,None,,,,,,,,859,21,M,R,2026-02-25_12h16.58.817,VisualSearch_2526_3,,2025.2.4,2026-02-25 12h16.59.226820 +0100,
tilted.xlsx,The target is tilted.,117,40,0,5,0,0,0,0,0,0,0,0,0,0,0,0,1,1,1,117,space,5.59246660000008,None,1,0,0.5110921000004964,None,space,2.0901551999995718,None,0,0,0,0,,,,,5,0,40,7,147.80722980000064,,,,,,,,,,,,,,,,,,,,,147.79208720000042,147.80722980000064,148.29113980000056,148.29647290000048,148.3177310000001,148.84025270000075,,,,,148.8403732000006,148.8567582000005,,149.04061570000067,148.3177310000001,,,,,,,,1,0,0.5110921000004964,None,,,,,,,,859,21,M,R,2026-02-25_12h16.58.817,VisualSearch_2526_3,,2025.2.4,2026-02-25 12h16.59.226820 +0100,
tilted.xlsx,The target is tilted.,117,41,1,5,1,1,1,1,1,1,1,1,1,1,1,1,0,11,12,117,space,5.59246660000008,None,1,1,1.657654900000125,None,space,2.0901551999995718,None,0,0,0,0,,,,,5,1,41,0,149.05691389999993,,,,,,,,,,,,,,,,,,,,,149.04148370000075,149.05691389999993,149.54047230000015,149.54585980000047,149.56653390000065,151.24018010000054,,,,,151.24040030000015,151.25552490000064,151.4561422000006,151.44011950000004,149.56653390000065,,,,,,,,1,1,1.657654900000125,None,,,,,,,,859,21,M,R,2026-02-25_12h16.58.817,VisualSearch_2526_3,,2025.2.4,2026-02-25 12h16.59.226820 +0100,
tilted.xlsx,The target is tilted.,117,42,2,5,0,1,1,1,0,0,0,0,0,0,0,0,1,3,4,117,space,5.59246660000008,None,0,1,0.8790753000002951,None,space,2.0901551999995718,None,0,0,0,0,,,,,5,2,42,6,151.4561422000006,,,,,,,,,,,,,,,,,,,,,151.44093920000068,151.4561422000006,151.93999480000002,151.9453854000003,151.96299660000022,152.85635189999994,,,,,152.85657770000034,152.87174830000004,153.07238180000058,153.05623790000027,151.96299660000022,,,,,,,,0,1,0.8790753000002951,None,,,,,,,,859,21,M,R,2026-02-25_12h16.58.817,VisualSearch_2526_3,,2025.2.4,2026-02-25 12h16.59.226820 +0100,
tilted.xlsx,The target is tilted.,117,43,3,5,0,1,1,1,1,1,1,1,0,0,0,0,1,7,8,117,space,5.59246660000008,None,0,1,2.5148920000001453,None,space,2.0901551999995718,None,0,0,0,0,,,,,5,3,43,5,153.07238180000058,,,,,,,,,,,,,,,,,,,,,153.0570574000003,153.07238180000058,153.5561957,153.56184120000034,153.58312660000047,156.1059597000003,,,,,156.10618370000066,156.12082420000024,156.32120960000066,156.30511300000035,153.58312660000047,,,,,,,,0,1,2.5148920000001453,None,,,,,,,,859,21,M,R,2026-02-25_12h16.58.817,VisualSearch_2526_3,,2025.2.4,2026-02-25 12h16.59.226820 +0100,
tilted.xlsx,The target is tilted.,117,44,4,5,0,1,1,1,1,1,1,1,1,1,1,1,1,11,12,117,space,5.59246660000008,None,0,1,2.485105300000214,None,space,2.0901551999995718,None,0,0,0,0,,,,,5,4,44,4,156.32120960000066,,,,,,,,,,,,,,,,,,,,,156.3059611000008,156.32120960000066,156.8050088,156.8104759000007,156.8244336000007,159.32119540000076,,,,,159.32139320000078,159.33604790000027,159.53679490000013,159.5209592000001,156.8244336000007,,,,,,,,0,1,2.485105300000214,None,,,,,,,,859,21,M,R,2026-02-25_12h16.58.817,VisualSearch_2526_3,,2025.2.4,2026-02-25 12h16.59.226820 +0100,
tilted.xlsx,The target is tilted.,117,45,5,5,1,1,1,1,0,0,0,0,0,0,0,0,0,3,4,117,space,5.59246660000008,None,1,1,0.82774419999987,None,space,2.0901551999995718,None,0,0,0,0,,,,,5,5,45,2,159.53679490000013,,,,,,,,,,,,,,,,,,,,,159.52229970000008,159.53679490000013,160.02060750000055,160.02600220000022,160.0477221000001,160.8873061000004,,,,,160.88750060000075,160.90247590000035,161.10252970000056,161.08701130000009,160.0477221000001,,,,,,,,1,1,0.82774419999987,None,,,,,,,,859,21,M,R,2026-02-25_12h16.58.817,VisualSearch_2526_3,,2025.2.4,2026-02-25 12h16.59.226820 +0100,
tilted.xlsx,The target is tilted.,117,46,6,5,1,1,1,1,1,1,1,1,0,0,0,0,0,7,8,117,space,5.59246660000008,None,1,1,1.1531857999998465,None,space,2.0901551999995718,None,0,0,0,0,,,,,5,6,46,1,161.10252970000056,,,,,,,,,,,,,,,,,,,,,161.08783490000042,161.10252970000056,161.5867629000004,161.59227180000016,161.6098176000005,162.7702407000006,,,,,162.77049050000005,162.78522560000056,162.98564800000077,162.96963210000013,161.6098176000005,,,,,,,,1,1,1.1531857999998465,None,,,,,,,,859,21,M,R,2026-02-25_12h16.58.817,VisualSearch_2526_3,,2025.2.4,2026-02-25 12h16.59.226820 +0100,
tilted.xlsx,The target is tilted.,117,47,7,5,1,0,0,0,0,0,0,0,0,0,0,0,0,0,1,117,space,5.59246660000008,None,1,1,0.6849060999993526,None,space,2.0901551999995718,None,0,0,0,0,,,,,5,7,47,3,162.98564800000077,,,,,,,,,,,,,,,,,,,,,162.9704339,162.98564800000077,163.4695300000003,163.47476069999993,163.49518230000012,164.1860374000007,,,,,164.18623540000044,164.2011306000004,164.40183419999994,164.38564720000068,163.49518230000012,,,,,,,,1,1,0.6849060999993526,None,,,,,,,,859,21,M,R,2026-02-25_12h16.58.817,VisualSearch_2526_3,,2025.2.4,2026-02-25 12h16.59.226820 +0100,
tilted.xlsx,The target is tilted.,117,48,0,6,1,1,1,1,0,0,0,0,0,0,0,0,0,3,4,117,space,5.59246660000008,None,1,1,0.8278795999995054,None,space,2.0901551999995718,None,0,0,0,0,,,,,6,0,48,2,164.40183419999994,,,,,,,,,,,,,,,,,,,,,164.38660310000068,164.40183419999994,164.8857078000001,164.8911594000001,164.91285510000034,165.7525658000004,,,,,165.75329610000063,165.76755760000015,165.9680500000004,165.9520063,164.91285510000034,,,,,,,,1,1,0.8278795999995054,None,,,,,,,,859,21,M,R,2026-02-25_12h16.58.817,VisualSearch_2526_3,,2025.2.4,2026-02-25 12h16.59.226820 +0100,
tilted.xlsx,The target is tilted.,117,49,1,6,0,1,1,1,1,1,1,1,1,1,1,1,1,11,12,117,space,5.59246660000008,None,0,1,2.1254223999994792,None,space,2.0901551999995718,None,0,0,0,0,,,,,6,1,49,4,165.9680500000004,,,,,,,,,,,,,,,,,,,,,165.95280559999992,165.9680500000004,166.45171630000004,166.4571106000003,166.4773857,168.61710120000043,,,,,168.61722510000072,168.6335723000002,,168.8174751000006,166.4773857,,,,,,,,0,1,2.1254223999994792,None,,,,,,,,859,21,M,R,2026-02-25_12h16.58.817,VisualSearch_2526_3,,2025.2.4,2026-02-25 12h16.59.226820 +0100,
tilted.xlsx,The target is tilted.,117,50,2,6,1,1,1,1,1,1,1,1,0,0,0,0,0,7,8,117,space,5.59246660000008,None,1,1,2.227168999999776,None,space,2.0901551999995718,None,0,0,0,0,,,,,6,2,50,1,168.83370340000056,,,,,,,,,,,,,,,,,,,,,168.81834900000013,168.83370340000056,169.3175968000005,169.32294890000048,169.34356019999996,171.58280860000013,,,,,171.5829302000002,171.59917270000005,171.79934610000055,171.7827797,169.34356019999996,,,,,,,,1,1,2.227168999999776,None,,,,,,,,859,21,M,R,2026-02-25_12h16.58.817,VisualSearch_2526_3,,2025.2.4,2026-02-25 12h16.59.226820 +0100,
tilted.xlsx,The target is tilted.,117,51,3,6,0,1,1,1,0,0,0,0,0,0,0,0,1,3,4,117,space,5.59246660000008,None,0,1,0.865394099999321,None,space,2.0901551999995718,None,0,0,0,0,,,,,6,3,51,6,171.79934610000055,,,,,,,,,,,,,,,,,,,,,171.7832269999999,171.79934610000055,172.2833197,172.28870580000057,172.31042750000051,173.18358979999994,,,,,173.18383540000013,173.1982508000001,173.3990518999999,173.38294580000002,172.31042750000051,,,,,,,,0,1,0.865394099999321,None,,,,,,,,859,21,M,R,2026-02-25_12h16.58.817,VisualSearch_2526_3,,2025.2.4,2026-02-25 12h16.59.226820 +0100,
tilted.xlsx,The target is tilted.,117,52,4,6,1,0,0,0,0,0,0,0,0,0,0,0,0,0,1,117,space,5.59246660000008,None,1,1,0.612358100000165,None,space,2.0901551999995718,None,0,0,0,0,,,,,6,4,52,3,173.3990518999999,,,,,,,,,,,,,,,,,,,,,173.38376140000037,173.3990518999999,173.88278030000038,173.888148,173.90522380000039,174.53267320000032,,,,,174.53289070000028,174.5477662000003,174.7481512000004,174.73233190000064,173.90522380000039,,,,,,,,1,1,0.612358100000165,None,,,,,,,,859,21,M,R,2026-02-25_12h16.58.817,VisualSearch_2526_3,,2025.2.4,2026-02-25 12h16.59.226820 +0100,
tilted.xlsx,The target is tilted.,117,53,5,6,0,0,0,0,0,0,0,0,0,0,0,0,1,1,1,117,space,5.59246660000008,None,0,1,0.5853305999999066,None,space,2.0901551999995718,None,0,0,0,0,,,,,6,5,53,7,174.7481512000004,,,,,,,,,,,,,,,,,,,,,174.73317380000026,174.7481512000004,175.2324176000002,175.2377851000001,175.25494849999995,175.84974200000033,,,,,175.84996500000034,175.86436440000034,176.06475450000016,176.04867670000021,175.25494849999995,,,,,,,,0,1,0.5853305999999066,None,,,,,,,,859,21,M,R,2026-02-25_12h16.58.817,VisualSearch_2526_3,,2025.2.4,2026-02-25 12h16.59.226820 +0100,
tilted.xlsx,The target is tilted.,117,54,6,6,0,1,1,1,1,1,1,1,0,0,0,0,1,7,8,117,space,5.59246660000008,None,0,1,2.526867000000493,None,space,2.0901551999995718,None,0,0,0,0,,,,,6,6,54,5,176.06475450000016,,,,,,,,,,,,,,,,,,,,,176.04950760000065,176.06475450000016,176.54856569999993,176.55364820000068,176.56394780000028,179.09838949999994,,,,,179.09861510000064,179.1129776000007,179.3133869000003,179.29777090000061,176.56394780000028,,,,,,,,0,1,2.526867000000493,None,,,,,,,,859,21,M,R,2026-02-25_12h16.58.817,VisualSearch_2526_3,,2025.2.4,2026-02-25 12h16.59.226820 +0100,
tilted.xlsx,The target is tilted.,117,55,7,6,1,1,1,1,1,1,1,1,1,1,1,1,0,11,12,117,space,5.59246660000008,None,1,1,1.6850887999999031,None,space,2.0901551999995718,None,0,0,0,0,,,,,6,7,55,0,179.3133869000003,,,,,,,,,,,,,,,,,,,,,179.29860370000006,179.3133869000003,179.7973191000001,179.8026746000005,179.82430139999997,181.51393840000037,,,,,181.51416130000052,181.5288868000007,181.72959710000032,181.71334710000065,179.82430139999997,,,,,,,,1,1,1.6850887999999031,None,,,,,,,,859,21,M,R,2026-02-25_12h16.58.817,VisualSearch_2526_3,,2025.2.4,2026-02-25 12h16.59.226820 +0100,
tilted.xlsx,The target is tilted.,117,56,0,7,0,0,0,0,0,0,0,0,0,0,0,0,1,1,1,117,space,5.59246660000008,None,0,1,0.6337102999996205,None,space,2.0901551999995718,None,0,0,0,0,,,,,7,0,56,7,181.72959710000032,,,,,,,,,,,,,,,,,,,,,181.71418950000043,181.72959710000032,182.2134500000002,182.21887340000012,182.24115640000036,182.88037390000045,,,,,182.88065189999998,182.8953547000001,183.09592770000017,183.07988690000002,182.24115640000036,,,,,,,,0,1,0.6337102999996205,None,,,,,,,,859,21,M,R,2026-02-25_12h16.58.817,VisualSearch_2526_3,,2025.2.4,2026-02-25 12h16.59.226820 +0100,
tilted.xlsx,The target is tilted.,117,57,1,7,1,1,1,1,1,1,1,1,0,0,0,0,0,7,8,117,space,5.59246660000008,None,1,1,1.6518820999999662,None,space,2.0901551999995718,None,0,0,0,0,,,,,7,1,57,1,183.09592770000017,,,,,,,,,,,,,,,,,,,,,183.08075439999993,183.09592770000017,183.57965260000037,183.5851820000007,183.60688740000023,185.26269670000056,,,,,185.26291550000042,185.27793070000007,185.47836780000034,185.46239010000045,183.60688740000023,,,,,,,,1,1,1.6518820999999662,None,,,,,,,,859,21,M,R,2026-02-25_12h16.58.817,VisualSearch_2526_3,,2025.2.4,2026-02-25 12h16.59.226820 +0100,
tilted.xlsx,The target is tilted.,117,58,2,7,0,1,1,1,1,1,1,1,0,0,0,0,1,7,8,117,space,5.59246660000008,None,0,1,1.8871338999997533,None,space,2.0901551999995718,None,0,0,0,0,,,,,7,2,58,5,185.47836780000034,,,,,,,,,,,,,,,,,,,,,185.46321620000072,185.47836780000034,185.96220070000072,185.96894310000062,185.99065980000069,187.8947818000006,,,,,187.89498260000073,187.91029880000042,188.1108189000006,188.09493530000054,185.99065980000069,,,,,,,,0,1,1.8871338999997533,None,,,,,,,,859,21,M,R,2026-02-25_12h16.58.817,VisualSearch_2526_3,,2025.2.4,2026-02-25 12h16.59.226820 +0100,
tilted.xlsx,The target is tilted.,117,59,3,7,0,1,1,1,1,1,1,1,1,1,1,1,1,11,12,117,space,5.59246660000008,None,0,1,2.2638012999996135,None,space,2.0901551999995718,None,0,0,0,0,,,,,7,3,59,4,188.1108189000006,,,,,,,,,,,,,,,,,,,,,188.09627230000024,188.1108189000006,188.59433489999992,188.5998711000002,188.62154290000035,190.8932519,,,,,190.89337260000048,190.90912500000013,191.10953570000038,191.0936231000005,188.62154290000035,,,,,,,,0,1,2.2638012999996135,None,,,,,,,,859,21,M,R,2026-02-25_12h16.58.817,VisualSearch_2526_3,,2025.2.4,2026-02-25 12h16.59.226820 +0100,
tilted.xlsx,The target is tilted.,117,60,4,7,1,1,1,1,1,1,1,1,1,1,1,1,0,11,12,117,space,5.59246660000008,None,1,1,0.7159497000002375,None,space,2.0901551999995718,None,0,0,0,0,,,,,7,4,60,0,191.10953570000038,,,,,,,,,,,,,,,,,,,,,191.09446000000025,191.10953570000038,191.59336090000033,191.5989464000004,191.6206699000004,192.3439599000003,,,,,192.34421139999995,192.35865140000078,192.55931469999996,192.5433649000006,191.6206699000004,,,,,,,,1,1,0.7159497000002375,None,,,,,,,,859,21,M,R,2026-02-25_12h16.58.817,VisualSearch_2526_3,,2025.2.4,2026-02-25 12h16.59.226820 +0100,
tilted.xlsx,The target is tilted.,117,61,5,7,0,1,1,1,0,0,0,0,0,0,0,0,1,3,4,117,space,5.59246660000008,None,0,1,0.8030800000005911,None,space,2.0901551999995718,None,0,0,0,0,,,,,7,5,61,6,192.55931469999996,,,,,,,,,,,,,,,,,,,,,192.5441552000002,192.55931469999996,193.0432381999999,193.04868650000026,193.06897160000062,193.87627890000022,,,,,193.87648810000064,193.8915461000006,194.09219070000017,194.07613590000074,193.06897160000062,,,,,,,,0,1,0.8030800000005911,None,,,,,,,,859,21,M,R,2026-02-25_12h16.58.817,VisualSearch_2526_3,,2025.2.4,2026-02-25 12h16.59.226820 +0100,
tilted.xlsx,The target is tilted.,117,62,6,7,1,1,1,1,0,0,0,0,0,0,0,0,0,3,4,117,space,5.59246660000008,None,1,1,0.8517062999999325,None,space,2.0901551999995718,None,0,0,0,0,,,,,7,6,62,2,194.09219070000017,,,,,,,,,,,,,,,,,,,,,194.0769261000005,194.09219070000017,194.5760848,194.58116370000062,194.59189779999997,195.4590807000004,,,,,195.45931050000036,195.47452479999993,195.6750062000001,195.65900760000022,194.59189779999997,,,,,,,,1,1,0.8517062999999325,None,,,,,,,,859,21,M,R,2026-02-25_12h16.58.817,VisualSearch_2526_3,,2025.2.4,2026-02-25 12h16.59.226820 +0100,
tilted.xlsx,The target is tilted.,117,63,7,7,1,0,0,0,0,0,0,0,0,0,0,0,0,0,1,117,space,5.59246660000008,None,1,1,0.7148870999999417,None,space,2.0901551999995718,None,0,0,0,0,,,,,7,7,63,3,195.6750062000001,,,,,,,,,,,,,,,,,,,,,195.65989940000054,195.6750062000001,196.15850920000048,196.1639986,196.18565920000037,196.9092470000005,,,,,196.90948410000055,196.92413870000019,197.1245785000001,197.1085638000004,196.18565920000037,,,,,,,,1,1,0.7148870999999417,None,,,,,,,,859,21,M,R,2026-02-25_12h16.58.817,VisualSearch_2526_3,,2025.2.4,2026-02-25 12h16.59.226820 +0100,
tilted.xlsx,The target is tilted.,117,64,0,8,1,1,1,1,0,0,0,0,0,0,0,0,0,3,4,117,space,5.59246660000008,None,1,1,0.7846982000000935,None,space,2.0901551999995718,None,0,0,0,0,,,,,8,0,64,2,197.1245785000001,,,,,,,,,,,,,,,,,,,,,197.10935150000023,197.1245785000001,197.60728390000077,197.61004310000044,197.62396320000062,198.42482780000046,,,,,198.42504940000072,198.4401740000003,198.64071710000007,198.62470360000043,197.62396320000062,,,,,,,,1,1,0.7846982000000935,None,,,,,,,,859,21,M,R,2026-02-25_12h16.58.817,VisualSearch_2526_3,,2025.2.4,2026-02-25 12h16.59.226820 +0100,
tilted.xlsx,The target is tilted.,117,65,1,8,1,0,0,0,0,0,0,0,0,0,0,0,0,0,1,117,space,5.59246660000008,None,1,1,0.6626787000004697,None,space,2.0901551999995718,None,0,0,0,0,,,,,8,1,65,3,198.64071710000007,,,,,,,,,,,,,,,,,,,,,198.62553280000066,198.64071710000007,199.12449379999998,199.12980440000047,199.14984390000063,199.82450490000065,,,,,199.82472010000038,199.8397988000006,200.04024260000006,200.02401820000068,199.14984390000063,,,,,,,,1,1,0.6626787000004697,None,,,,,,,,859,21,M,R,2026-02-25_12h16.58.817,VisualSearch_2526_3,,2025.2.4,2026-02-25 12h16.59.226820 +0100,
tilted.xlsx,The target is tilted.,117,66,2,8,1,1,1,1,1,1,1,1,0,0,0,0,0,7,8,117,space,5.59246660000008,None,1,1,1.665871199999856,None,space,2.0901551999995718,None,0,0,0,0,,,,,8,2,66,1,200.04024260000006,,,,,,,,,,,,,,,,,,,,,200.02486520000002,200.04024260000006,200.5237227000007,200.5291156000003,200.54991400000017,202.22385530000065,,,,,202.22407360000034,202.23906260000058,202.4394643000005,202.4234051000003,200.54991400000017,,,,,,,,1,1,1.665871199999856,None,,,,,,,,859,21,M,R,2026-02-25_12h16.58.817,VisualSearch_2526_3,,2025.2.4,2026-02-25 12h16.59.226820 +0100,
tilted.xlsx,The target is tilted.,117,67,3,8,1,1,1,1,1,1,1,1,1,1,1,1,0,11,12,117,space,5.59246660000008,None,1,1,0.8810136000001876,None,space,2.0901551999995718,None,0,0,0,0,,,,,8,3,67,0,202.4394643000005,,,,,,,,,,,,,,,,,,,,,202.4242079000005,202.4394643000005,202.92328930000076,202.92870230000062,202.95018230000005,203.84025650000058,,,,,203.8405399000003,203.85524010000063,204.05559450000055,204.0394294000007,202.95018230000005,,,,,,,,1,1,0.8810136000001876,None,,,,,,,,859,21,M,R,2026-02-25_12h16.58.817,VisualSearch_2526_3,,2025.2.4,2026-02-25 12h16.59.226820 +0100,
tilted.xlsx,The target is tilted.,117,68,4,8,0,0,0,0,0,0,0,0,0,0,0,0,1,1,1,117,space,5.59246660000008,None,0,1,0.6826224999995247,None,space,2.0901551999995718,None,0,0,0,0,,,,,8,4,68,7,204.05559450000055,,,,,,,,,,,,,,,,,,,,,204.0402979999999,204.05559450000055,204.53950729999997,204.5448675000007,204.56698060000053,205.25583760000063,,,,,205.25600020000002,205.2712048000003,205.47183910000058,205.45571460000065,204.56698060000053,,,,,,,,0,1,0.6826224999995247,None,,,,,,,,859,21,M,R,2026-02-25_12h16.58.817,VisualSearch_2526_3,,2025.2.4,2026-02-25 12h16.59.226820 +0100,
tilted.xlsx,The target is tilted.,117,69,5,8,0,1,1,1,1,1,1,1,0,0,0,0,1,7,8,117,space,5.59246660000008,None,0,1,1.9230790999999954,None,space,2.0901551999995718,None,0,0,0,0,,,,,8,5,69,5,205.47183910000058,,,,,,,,,,,,,,,,,,,,,205.45658540000022,205.47183910000058,205.95567460000075,205.96095740000055,205.98258200000055,207.92186850000053,,,,,207.9220817000005,207.93724380000003,208.13763780000045,208.12121050000042,205.98258200000055,,,,,,,,0,1,1.9230790999999954,None,,,,,,,,859,21,M,R,2026-02-25_12h16.58.817,VisualSearch_2526_3,,2025.2.4,2026-02-25 12h16.59.226820 +0100,
tilted.xlsx,The target is tilted.,117,70,6,8,0,1,1,1,0,0,0,0,0,0,0,0,1,3,4,117,space,5.59246660000008,None,0,1,1.0633832000003167,None,space,2.0901551999995718,None,0,0,0,0,,,,,8,6,70,6,208.13763780000045,,,,,,,,,,,,,,,,,,,,,208.12175070000012,208.13763780000045,208.62152310000056,208.62674040000002,208.64773289999994,209.72171350000008,,,,,209.72193420000076,209.7366288000003,209.93703860000005,209.9208220999999,208.64773289999994,,,,,,,,0,1,1.0633832000003167,None,,,,,,,,859,21,M,R,2026-02-25_12h16.58.817,VisualSearch_2526_3,,2025.2.4,2026-02-25 12h16.59.226820 +0100,
tilted.xlsx,The target is tilted.,117,71,7,8,0,1,1,1,1,1,1,1,1,1,1,1,1,11,12,117,space,5.59246660000008,None,0,1,2.758908199999496,None,space,2.0901551999995718,None,0,0,0,0,,,,,8,7,71,4,209.93703860000005,,,,,,,,,,,,,,,,,,,,,209.92165640000076,209.93703860000005,210.42083720000028,210.42684250000002,210.44879730000048,213.2191029000005,,,,,213.2192197000004,213.2356032000007,213.4359199999999,213.41943059999994,210.44879730000048,,,,,,,,0,1,2.758908199999496,None,,,,,,,,859,21,M,R,2026-02-25_12h16.58.817,VisualSearch_2526_3,,2025.2.4,2026-02-25 12h16.59.226820 +0100,
tilted.xlsx,The target is tilted.,117,72,0,9,0,1,1,1,0,0,0,0,0,0,0,0,1,3,4,117,space,5.59246660000008,None,0,1,1.0048440999999002,None,space,2.0901551999995718,None,0,0,0,0,,,,,9,0,72,6,213.4359199999999,,,,,,,,,,,,,,,,,,,,,213.42023340000014,213.4359199999999,213.91943400000036,213.92494830000032,213.94476340000074,214.95302540000012,,,,,214.95324340000025,214.96828470000037,215.16844220000075,215.15265679999993,,,,,,,,,0,1,1.0048440999999002,None,,,,,,,,859,21,M,R,2026-02-25_12h16.58.817,VisualSearch_2526_3,,2025.2.4,2026-02-25 12h16.59.226820 +0100,
tilted.xlsx,The target is tilted.,117,73,1,9,0,1,1,1,1,1,1,1,0,0,0,0,1,7,8,117,space,5.59246660000008,None,0,1,1.9092390000005253,None,space,2.0901551999995718,None,0,0,0,0,,,,,9,1,73,5,215.16844220000075,,,,,,,,,,,,,,,,,,,,,215.15346730000056,215.16844220000075,215.6525399000002,215.65797100000054,215.67934110000078,217.6019767000007,,,,,217.60219020000022,217.61743100000058,217.8173843000004,217.8014116000004,215.67934110000078,,,,,,,,0,1,1.9092390000005253,None,,,,,,,,859,21,M,R,2026-02-25_12h16.58.817,VisualSearch_2526_3,,2025.2.4,2026-02-25 12h16.59.226820 +0100,
tilted.xlsx,The target is tilted.,117,74,2,9,1,1,1,1,1,1,1,1,1,1,1,1,0,11,12,117,space,5.59246660000008,None,1,1,1.8785189000000173,None,space,2.0901551999995718,None,0,0,0,0,,,,,9,2,74,0,217.8173843000004,,,,,,,,,,,,,,,,,,,,,217.8022350000001,217.8173843000004,218.3016336999999,218.30691449999995,218.32863580000048,220.21832460000041,,,,,220.2185411999999,220.23320710000007,220.43355560000055,220.41766290000032,218.32863580000048,,,,,,,,1,1,1.8785189000000173,None,,,,,,,,859,21,M,R,2026-02-25_12h16.58.817,VisualSearch_2526_3,,2025.2.4,2026-02-25 12h16.59.226820 +0100,
tilted.xlsx,The target is tilted.,117,75,3,9,1,0,0,0,0,0,0,0,0,0,0,0,0,0,1,117,space,5.59246660000008,None,1,1,0.6862693999992189,None,space,2.0901551999995718,None,0,0,0,0,,,,,9,3,75,3,220.43355560000055,,,,,,,,,,,,,,,,,,,,,220.41849189999994,220.43355560000055,220.91742520000025,220.92277560000002,220.9407742000003,221.63403160000053,,,,,221.63424680000026,221.64915850000034,221.8498397000003,221.83344060000036,220.9407742000003,,,,,,,,1,1,0.6862693999992189,None,,,,,,,,859,21,M,R,2026-02-25_12h16.58.817,VisualSearch_2526_3,,2025.2.4,2026-02-25 12h16.59.226820 +0100,
tilted.xlsx,The target is tilted.,117,76,4,9,0,1,1,1,1,1,1,1,1,1,1,1,1,11,12,117,space,5.59246660000008,None,0,1,2.8009228999999323,None,space,2.0901551999995718,None,0,0,0,0,,,,,9,4,76,4,221.8498397000003,,,,,,,,,,,,,,,,,,,,,221.8343316999999,221.8498397000003,222.33327940000072,222.3385302000006,222.3600488000002,225.1668193000005,,,,,225.16705690000072,225.18161880000025,225.38208329999998,225.36601090000022,222.3600488000002,,,,,,,,0,1,2.8009228999999323,None,,,,,,,,859,21,M,R,2026-02-25_12h16.58.817,VisualSearch_2526_3,,2025.2.4,2026-02-25 12h16.59.226820 +0100,
tilted.xlsx,The target is tilted.,117,77,5,9,1,1,1,1,1,1,1,1,0,0,0,0,0,7,8,117,space,5.59246660000008,None,1,1,1.0890595999999277,None,space,2.0901551999995718,None,0,0,0,0,,,,,9,5,77,1,225.38208329999998,,,,,,,,,,,,,,,,,,,,,225.36680370000067,225.38208329999998,225.8656473000001,225.8709730999999,225.89268320000065,226.9988968000007,,,,,226.99911180000072,227.01424900000075,227.21472390000054,227.1987340000005,225.89268320000065,,,,,,,,1,1,1.0890595999999277,None,,,,,,,,859,21,M,R,2026-02-25_12h16.58.817,VisualSearch_2526_3,,2025.2.4,2026-02-25 12h16.59.226820 +0100,
tilted.xlsx,The target is tilted.,117,78,6,9,0,0,0,0,0,0,0,0,0,0,0,0,1,1,1,117,space,5.59246660000008,None,0,1,0.7244633999998769,None,space,2.0901551999995718,None,0,0,0,0,,,,,9,6,78,7,227.21472390000054,,,,,,,,,,,,,,,,,,,,,227.19952400000057,227.21472390000054,227.6985377000001,227.7044665000003,227.7265154000006,228.4651644000005,,,,,228.46544350000022,228.48051170000053,228.6808077000005,228.66490980000071,227.7265154000006,,,,,,,,0,1,0.7244633999998769,None,,,,,,,,859,21,M,R,2026-02-25_12h16.58.817,VisualSearch_2526_3,,2025.2.4,2026-02-25 12h16.59.226820 +0100,
tilted.xlsx,The target is tilted.,117,79,7,9,1,1,1,1,0,0,0,0,0,0,0,0,0,3,4,117,space,5.59246660000008,None,1,1,0.9939476999998078,None,space,2.0901551999995718,None,0,0,0,0,,,,,9,7,79,2,228.6808077000005,,,,,,,,,,,,,,,,,,,,,228.66570200000024,228.6808077000005,229.16476839999996,229.17033260000062,229.19242720000057,230.1982439000003,,,,,230.19849410000006,230.21317010000075,230.4136483000002,230.39773850000074,229.19242720000057,,,,,,,,1,1,0.9939476999998078,None,,,,,,,,859,21,M,R,2026-02-25_12h16.58.817,VisualSearch_2526_3,,2025.2.4,2026-02-25 12h16.59.226820 +0100,
tilted.xlsx,The target is tilted.,117,80,0,10,1,1,1,1,0,0,0,0,0,0,0,0,0,3,4,117,space,5.59246660000008,None,1,1,0.7471046999999089,None,space,2.0901551999995718,None,0,0,0,0,,,,,10,0,80,2,230.4136483000002,,,,,,,,,,,,,,,,,,,,,230.39852680000058,230.4136483000002,230.89757050000026,230.90285910000057,230.9248673000002,231.6812899000006,,,,,231.68150590000005,231.69615560000057,231.89664090000042,231.88016380000045,230.9248673000002,,,,,,,,1,1,0.7471046999999089,None,,,,,,,,859,21,M,R,2026-02-25_12h16.58.817,VisualSearch_2526_3,,2025.2.4,2026-02-25 12h16.59.226820 +0100,
tilted.xlsx,The target is tilted.,117,81,1,10,1,1,1,1,1,1,1,1,1,1,1,1,0,11,12,117,space,5.59246660000008,None,1,1,2.1901771000002555,None,space,2.0901551999995718,None,0,0,0,0,,,,,10,1,81,0,231.89664090000042,,,,,,,,,,,,,,,,,,,,,231.88101520000055,231.89664090000042,232.3804050000008,232.3856482000001,232.40705810000054,234.6122172000005,,,,,234.61229730000014,234.62878850000016,,234.81264040000042,232.40705810000054,,,,,,,,1,1,2.1901771000002555,None,,,,,,,,859,21,M,R,2026-02-25_12h16.58.817,VisualSearch_2526_3,,2025.2.4,2026-02-25 12h16.59.226820 +0100,
tilted.xlsx,The target is tilted.,117,82,2,10,0,1,1,1,0,0,0,0,0,0,0,0,1,3,4,117,space,5.59246660000008,None,0,1,0.8648744000001898,None,space,2.0901551999995718,None,0,0,0,0,,,,,10,2,82,6,234.82897950000006,,,,,,,,,,,,,,,,,,,,,234.81351050000012,234.82897950000006,235.31246740000006,235.31784000000061,235.33907010000075,236.21308300000055,,,,,236.2133029000006,236.22802630000024,236.4282602000003,236.41241830000035,,,,,,,,,0,1,0.8648744000001898,None,,,,,,,,859,21,M,R,2026-02-25_12h16.58.817,VisualSearch_2526_3,,2025.2.4,2026-02-25 12h16.59.226820 +0100,
tilted.xlsx,The target is tilted.,117,83,3,10,0,0,0,0,0,0,0,0,0,0,0,0,1,1,1,117,space,5.59246660000008,None,0,1,0.5512258000007932,None,space,2.0901551999995718,None,0,0,0,0,,,,,10,3,83,7,236.4282602000003,,,,,,,,,,,,,,,,,,,,,236.41321779999998,236.4282602000003,236.91227630000049,236.91752200000064,236.93861110000034,237.49570519999997,,,,,237.49592050000047,237.51091970000016,237.7114119000007,237.69490829999995,236.93861110000034,,,,,,,,0,1,0.5512258000007932,None,,,,,,,,859,21,M,R,2026-02-25_12h16.58.817,VisualSearch_2526_3,,2025.2.4,2026-02-25 12h16.59.226820 +0100,
tilted.xlsx,The target is tilted.,117,84,4,10,0,1,1,1,1,1,1,1,0,0,0,0,1,7,8,117,space,5.59246660000008,None,0,1,1.4904183999997258,None,space,2.0901551999995718,None,0,0,0,0,,,,,10,4,84,5,237.7114119000007,,,,,,,,,,,,,,,,,,,,,237.6957183000004,237.7114119000007,238.19509480000033,238.20046060000004,238.22184300000026,239.72834450000028,,,,,239.72856390000015,239.7436400000006,239.94384310000078,239.9279957000008,238.22184300000026,,,,,,,,0,1,1.4904183999997258,None,,,,,,,,859,21,M,R,2026-02-25_12h16.58.817,VisualSearch_2526_3,,2025.2.4,2026-02-25 12h16.59.226820 +0100,
tilted.xlsx,The target is tilted.,117,85,5,10,1,0,0,0,0,0,0,0,0,0,0,0,0,0,1,117,space,5.59246660000008,None,1,1,0.6420103000000381,None,space,2.0901551999995718,None,0,0,0,0,,,,,10,5,85,3,239.94384310000078,,,,,,,,,,,,,,,,,,,,,239.92880910000076,239.94384310000078,240.42761800000062,240.43293960000028,240.45453240000006,241.11118010000064,,,,,241.1113987000008,241.12692960000004,241.32679929999995,241.31075039999996,240.45453240000006,,,,,,,,1,1,0.6420103000000381,None,,,,,,,,859,21,M,R,2026-02-25_12h16.58.817,VisualSearch_2526_3,,2025.2.4,2026-02-25 12h16.59.226820 +0100,
tilted.xlsx,The target is tilted.,117,86,6,10,1,1,1,1,1,1,1,1,0,0,0,0,0,7,8,117,space,5.59246660000008,None,0,0,2.0934833000001163,None,space,2.0901551999995718,None,0,0,0,0,,,,,10,6,86,1,241.32679929999995,,,,,,,,,,,,,,,,,,,,,241.3115596000007,241.32679929999995,241.8106125000004,241.81596470000022,241.83375510000042,243.94388040000013,,,,,243.94414159999997,243.95905459999994,244.1590154000005,244.14321760000075,241.83375510000042,,,,,,,,0,0,2.0934833000001163,None,,,,,,,,859,21,M,R,2026-02-25_12h16.58.817,VisualSearch_2526_3,,2025.2.4,2026-02-25 12h16.59.226820 +0100,
tilted.xlsx,The target is tilted.,117,87,7,10,0,1,1,1,1,1,1,1,1,1,1,1,1,11,12,117,space,5.59246660000008,None,0,1,2.206909900000028,None,space,2.0901551999995718,None,0,0,0,0,,,,,10,7,87,4,244.1590154000005,,,,,,,,,,,,,,,,,,,,,244.14402539999992,244.1590154000005,244.64294810000047,244.64806250000038,244.65868910000063,246.8761069000002,,,,,246.87635580000006,246.8915575000001,247.09167720000005,247.07558460000018,244.65868910000063,,,,,,,,0,1,2.206909900000028,None,,,,,,,,859,21,M,R,2026-02-25_12h16.58.817,VisualSearch_2526_3,,2025.2.4,2026-02-25 12h16.59.226820 +0100,
tilted.xlsx,The target is tilted.,117,88,0,11,0,1,1,1,1,1,1,1,1,1,1,1,1,11,12,117,space,5.59246660000008,None,0,1,2.195620599999529,None,space,2.0901551999995718,None,0,0,0,0,,,,,11,0,88,4,247.09167720000005,,,,,,,,,,,,,,,,,,,,,247.07637280000017,247.09167720000005,247.57546490000004,247.58079520000047,247.5985027000006,249.8083383000003,,,,,249.80853300000035,249.82395950000046,250.02389310000035,250.0080396000003,247.5985027000006,,,,,,,,0,1,2.195620599999529,None,,,,,,,,859,21,M,R,2026-02-25_12h16.58.817,VisualSearch_2526_3,,2025.2.4,2026-02-25 12h16.59.226820 +0100,
tilted.xlsx,The target is tilted.,117,89,1,11,0,0,0,0,0,0,0,0,0,0,0,0,1,1,1,117,space,5.59246660000008,None,0,1,0.6520411000001332,None,space,2.0901551999995718,None,0,0,0,0,,,,,11,1,89,7,250.02389310000035,,,,,,,,,,,,,,,,,,,,,250.00886530000025,250.02389310000035,250.50786289999996,250.51322980000077,250.5345700000007,251.19119920000048,,,,,251.1914194000001,251.2067715000003,251.40685360000043,251.39084940000066,250.5345700000007,,,,,,,,0,1,0.6520411000001332,None,,,,,,,,859,21,M,R,2026-02-25_12h16.58.817,VisualSearch_2526_3,,2025.2.4,2026-02-25 12h16.59.226820 +0100,
tilted.xlsx,The target is tilted.,117,90,2,11,1,1,1,1,0,0,0,0,0,0,0,0,0,3,4,117,space,5.59246660000008,None,1,1,0.747436600000583,None,space,2.0901551999995718,None,0,0,0,0,,,,,11,2,90,2,251.40685360000043,,,,,,,,,,,,,,,,,,,,,251.3916360000003,251.40685360000043,251.8907702000006,251.8957921000001,251.90650020000066,252.65731010000036,,,,,252.65752560000055,252.67296090000036,252.87271730000066,252.85699730000033,251.90650020000066,,,,,,,,1,1,0.747436600000583,None,,,,,,,,859,21,M,R,2026-02-25_12h16.58.817,VisualSearch_2526_3,,2025.2.4,2026-02-25 12h16.59.226820 +0100,
tilted.xlsx,The target is tilted.,117,91,3,11,1,1,1,1,1,1,1,1,0,0,0,0,0,7,8,117,space,5.59246660000008,None,1,1,1.2616648000002897,None,space,2.0901551999995718,None,0,0,0,0,,,,,11,3,91,1,252.87271730000066,,,,,,,,,,,,,,,,,,,,,252.8579391000003,252.87271730000066,253.35689490000004,253.36218910000025,253.3788242999999,254.65718280000056,,,,,254.6573965000007,254.67230740000014,254.87249240000074,254.85646140000063,253.3788242999999,,,,,,,,1,1,1.2616648000002897,None,,,,,,,,859,21,M,R,2026-02-25_12h16.58.817,VisualSearch_2526_3,,2025.2.4,2026-02-25 12h16.59.226820 +0100,
tilted.xlsx,The target is tilted.,117,92,4,11,0,1,1,1,1,1,1,1,0,0,0,0,1,7,8,117,space,5.59246660000008,None,0,1,1.6564637999999832,None,space,2.0901551999995718,None,0,0,0,0,,,,,11,4,92,5,254.87249240000074,,,,,,,,,,,,,,,,,,,,,254.85727720000068,254.87249240000074,255.35629360000075,255.36159860000043,255.3831123,257.0563393000002,,,,,257.05655580000075,257.0713992000001,257.2716138000005,257.2555798000003,255.3831123,,,,,,,,0,1,1.6564637999999832,None,,,,,,,,859,21,M,R,2026-02-25_12h16.58.817,VisualSearch_2526_3,,2025.2.4,2026-02-25 12h16.59.226820 +0100,
tilted.xlsx,The target is tilted.,117,93,5,11,1,0,0,0,0,0,0,0,0,0,0,0,0,0,1,117,space,5.59246660000008,None,1,1,0.54430930000035,None,space,2.0901551999995718,None,0,0,0,0,,,,,11,5,93,3,257.2716138000005,,,,,,,,,,,,,,,,,,,,,257.2563760000003,257.2716138000005,257.7554050000008,257.76072920000024,257.77833910000027,258.3392620000004,,,,,258.3394799000007,258.35433439999997,258.55444290000014,258.53843290000077,257.77833910000027,,,,,,,,1,1,0.54430930000035,None,,,,,,,,859,21,M,R,2026-02-25_12h16.58.817,VisualSearch_2526_3,,2025.2.4,2026-02-25 12h16.59.226820 +0100,
tilted.xlsx,The target is tilted.,117,94,6,11,0,1,1,1,0,0,0,0,0,0,0,0,1,3,4,117,space,5.59246660000008,None,0,1,0.8757037000004857,None,space,2.0901551999995718,None,0,0,0,0,,,,,11,6,94,6,258.55444290000014,,,,,,,,,,,,,,,,,,,,,258.53928540000015,258.55444290000014,259.03830460000063,259.043584,259.0648564000003,259.9552612000007,,,,,259.95550960000037,259.97045479999997,260.17074670000056,260.15460540000004,259.0648564000003,,,,,,,,0,1,0.8757037000004857,None,,,,,,,,859,21,M,R,2026-02-25_12h16.58.817,VisualSearch_2526_3,,2025.2.4,2026-02-25 12h16.59.226820 +0100,
tilted.xlsx,The target is tilted.,117,95,7,11,1,1,1,1,1,1,1,1,1,1,1,1,0,11,12,117,space,5.59246660000008,None,1,1,1.1283660999997664,None,space,2.0901551999995718,None,0,0,0,0,,,,,11,7,95,0,260.17074670000056,,,,,,,,,,,,,,,,,,,,,260.15538990000005,260.17074670000056,260.65430820000074,260.65989590000027,260.6814492000003,261.82166320000033,,,,,261.8218818000005,261.83680989999993,262.03675569999996,262.0207838000006,260.6814492000003,,,,,,,,1,1,1.1283660999997664,None,,,,,,,,859,21,M,R,2026-02-25_12h16.58.817,VisualSearch_2526_3,,2025.2.4,2026-02-25 12h16.59.226820 +0100,
tilted.xlsx,The target is tilted.,117,96,0,12,0,0,0,0,0,0,0,0,0,0,0,0,1,1,1,117,space,5.59246660000008,None,0,1,0.5571280999993178,None,space,2.0901551999995718,None,0,0,0,0,,,,,12,0,96,7,262.03675569999996,,,,,,,,,,,,,,,,,,,,,262.02159819999997,262.03675569999996,262.52053930000056,262.52584090000073,262.5470906999999,263.1210295000001,,,,,263.12124570000015,263.1364641,263.3363926000002,263.32038640000064,262.5470906999999,,,,,,,,0,1,0.5571280999993178,None,,,,,,,,859,21,M,R,2026-02-25_12h16.58.817,VisualSearch_2526_3,,2025.2.4,2026-02-25 12h16.59.226820 +0100,
tilted.xlsx,The target is tilted.,117,97,1,12,1,1,1,1,1,1,1,1,1,1,1,1,0,11,12,117,space,5.59246660000008,None,1,1,1.7067254000003231,None,space,2.0901551999995718,None,0,0,0,0,,,,,12,1,97,0,263.3363926000002,,,,,,,,,,,,,,,,,,,,,263.3212463,263.3363926000002,263.82018229999994,263.8254996000005,263.84676750000017,265.56963200000064,,,,,265.56977670000015,265.5854919000003,265.7854788000004,265.76946990000033,263.84676750000017,,,,,,,,1,1,1.7067254000003231,None,,,,,,,,859,21,M,R,2026-02-25_12h16.58.817,VisualSearch_2526_3,,2025.2.4,2026-02-25 12h16.59.226820 +0100,
tilted.xlsx,The target is tilted.,117,98,2,12,0,1,1,1,0,0,0,0,0,0,0,0,1,3,4,117,space,5.59246660000008,None,0,1,0.8345326999997269,None,space,2.0901551999995718,None,0,0,0,0,,,,,12,2,98,6,265.7854788000004,,,,,,,,,,,,,,,,,,,,,265.7702726000007,265.7854788000004,266.2684749,266.27114900000015,266.2852158000005,267.1362375000008,,,,,267.1364510000003,267.1518392000007,267.35171230000014,267.33547480000016,266.2852158000005,,,,,,,,0,1,0.8345326999997269,None,,,,,,,,859,21,M,R,2026-02-25_12h16.58.817,VisualSearch_2526_3,,2025.2.4,2026-02-25 12h16.59.226820 +0100,
tilted.xlsx,The target is tilted.,117,99,3,12,1,1,1,1,1,1,1,1,0,0,0,0,0,7,8,117,space,5.59246660000008,None,1,1,0.9521803999996337,None,space,2.0901551999995718,None,0,0,0,0,,,,,12,3,99,1,267.35171230000014,,,,,,,,,,,,,,,,,,,,,267.3363371000005,267.35171230000014,267.8355121000004,267.8408291000005,267.86222890000045,268.8187510000007,,,,,268.8189549000008,268.8342674000005,269.03440150000006,269.01842660000057,267.86222890000045,,,,,,,,1,1,0.9521803999996337,None,,,,,,,,859,21,M,R,2026-02-25_12h16.58.817,VisualSearch_2526_3,,2025.2.4,2026-02-25 12h16.59.226820 +0100,
tilted.xlsx,The target is tilted.,117,100,4,12,0,1,1,1,1,1,1,1,1,1,1,1,1,11,12,117,space,5.59246660000008,None,0,1,2.325622999999723,None,space,2.0901551999995718,None,0,0,0,0,,,,,12,4,100,4,269.03440150000006,,,,,,,,,,,,,,,,,,,,,269.0192405000007,269.03440150000006,269.5182685,269.5235601000004,269.5449535000007,271.8847861000004,,,,,271.8850405000003,271.89991460000056,272.1001666000002,272.0841282000001,269.5449535000007,,,,,,,,0,1,2.325622999999723,None,,,,,,,,859,21,M,R,2026-02-25_12h16.58.817,VisualSearch_2526_3,,2025.2.4,2026-02-25 12h16.59.226820 +0100,
tilted.xlsx,The target is tilted.,117,101,5,12,1,0,0,0,0,0,0,0,0,0,0,0,0,0,1,117,space,5.59246660000008,None,1,1,0.7241154000003007,None,space,2.0901551999995718,None,0,0,0,0,,,,,12,5,101,3,272.1001666000002,,,,,,,,,,,,,,,,,,,,,272.0849141000008,272.1001666000002,272.5836087000007,272.5888448000005,272.61001190000025,273.35099549999995,,,,,273.35121160000017,273.3661249000006,273.56633280000005,273.55027169999994,272.61001190000025,,,,,,,,1,1,0.7241154000003007,None,,,,,,,,859,21,M,R,2026-02-25_12h16.58.817,VisualSearch_2526_3,,2025.2.4,2026-02-25 12h16.59.226820 +0100,
tilted.xlsx,The target is tilted.,117,102,6,12,1,1,1,1,0,0,0,0,0,0,0,0,0,3,4,117,space,5.59246660000008,None,1,1,0.6810826000000816,None,space,2.0901551999995718,None,0,0,0,0,,,,,12,6,102,2,273.56633280000005,,,,,,,,,,,,,,,,,,,,,273.5510576000006,273.56633280000005,274.05018010000003,274.05555450000065,274.0771101,274.76689500000066,,,,,274.7671100000007,274.7825977000002,274.9826552000004,274.96664390000024,274.0771101,,,,,,,,1,1,0.6810826000000816,None,,,,,,,,859,21,M,R,2026-02-25_12h16.58.817,VisualSearch_2526_3,,2025.2.4,2026-02-25 12h16.59.226820 +0100,
tilted.xlsx,The target is tilted.,117,103,7,12,0,1,1,1,1,1,1,1,0,0,0,0,1,7,8,117,space,5.59246660000008,None,1,0,1.2193733000003704,None,space,2.0901551999995718,None,0,0,0,0,,,,,12,7,103,5,274.9826552000004,,,,,,,,,,,,,,,,,,,,,274.96747159999995,274.9826552000004,275.46631890000026,275.4716919000002,275.4931052000002,276.7161455000005,,,,,276.71637940000073,276.73168280000027,276.9319451000001,276.91556089999995,275.4931052000002,,,,,,,,1,0,1.2193733000003704,None,,,,,,,,859,21,M,R,2026-02-25_12h16.58.817,VisualSearch_2526_3,,2025.2.4,2026-02-25 12h16.59.226820 +0100,
tilted.xlsx,The target is tilted.,117,104,0,13,0,1,1,1,1,1,1,1,0,0,0,0,1,7,8,117,space,5.59246660000008,None,0,1,1.8947578000006615,None,space,2.0901551999995718,None,0,0,0,0,,,,,13,0,104,5,276.9319451000001,,,,,,,,,,,,,,,,,,,,,276.91639250000026,276.9319451000001,277.41567360000045,277.4210825,277.44235540000045,279.34924410000076,,,,,279.3494604000007,279.3640561000002,279.56425670000044,279.54809449999993,277.44235540000045,,,,,,,,0,1,1.8947578000006615,None,,,,,,,,859,21,M,R,2026-02-25_12h16.58.817,VisualSearch_2526_3,,2025.2.4,2026-02-25 12h16.59.226820 +0100,
tilted.xlsx,The target is tilted.,117,105,1,13,1,0,0,0,0,0,0,0,0,0,0,0,0,0,1,117,space,5.59246660000008,None,1,1,0.7419530999995914,None,space,2.0901551999995718,None,0,0,0,0,,,,,13,1,105,3,279.56425670000044,,,,,,,,,,,,,,,,,,,,,279.5489533,279.56425670000044,280.0482299000005,280.0535639,280.07448400000067,280.8319269000003,,,,,280.8321418000005,280.8473603000002,281.0469079000004,281.0312141000004,280.07448400000067,,,,,,,,1,1,0.7419530999995914,None,,,,,,,,859,21,M,R,2026-02-25_12h16.58.817,VisualSearch_2526_3,,2025.2.4,2026-02-25 12h16.59.226820 +0100,
tilted.xlsx,The target is tilted.,117,106,2,13,0,1,1,1,0,0,0,0,0,0,0,0,1,3,4,117,space,5.59246660000008,None,0,1,0.8574773000000278,None,space,2.0901551999995718,None,0,0,0,0,,,,,13,2,106,6,281.0469079000004,,,,,,,,,,,,,,,,,,,,,281.03202220000003,281.0469079000004,281.5311443999999,281.53676799999994,281.55825880000066,282.43134830000054,,,,,282.4315817000006,282.44650880000063,282.64661350000006,282.6303424000007,281.55825880000066,,,,,,,,0,1,0.8574773000000278,None,,,,,,,,859,21,M,R,2026-02-25_12h16.58.817,VisualSearch_2526_3,,2025.2.4,2026-02-25 12h16.59.226820 +0100,
tilted.xlsx,The target is tilted.,117,107,3,13,1,1,1,1,0,0,0,0,0,0,0,0,0,3,4,117,space,5.59246660000008,None,1,1,1.097953999999845,None,space,2.0901551999995718,None,0,0,0,0,,,,,13,3,107,2,282.64661350000006,,,,,,,,,,,,,,,,,,,,,282.63116230000014,282.64661350000006,283.1304921000001,283.1357754999999,283.1570220000003,284.26395390000016,,,,,284.26418060000015,284.2795192000003,284.4795333000002,284.4631795000005,283.1570220000003,,,,,,,,1,1,1.097953999999845,None,,,,,,,,859,21,M,R,2026-02-25_12h16.58.817,VisualSearch_2526_3,,2025.2.4,2026-02-25 12h16.59.226820 +0100,
tilted.xlsx,The target is tilted.,117,108,4,13,1,1,1,1,1,1,1,1,0,0,0,0,0,7,8,117,space,5.59246660000008,None,1,1,0.9064625999999407,None,space,2.0901551999995718,None,0,0,0,0,,,,,13,4,108,1,284.4795333000002,,,,,,,,,,,,,,,,,,,,,284.46404370000073,284.4795333000002,284.9632679000006,284.9681677000008,284.9790579999999,285.89691330000005,,,,,285.8971272000008,285.91202240000075,286.1120784000004,286.0960958000005,284.9790579999999,,,,,,,,1,1,0.9064625999999407,None,,,,,,,,859,21,M,R,2026-02-25_12h16.58.817,VisualSearch_2526_3,,2025.2.4,2026-02-25 12h16.59.226820 +0100,
tilted.xlsx,The target is tilted.,117,109,5,13,1,1,1,1,1,1,1,1,1,1,1,1,0,11,12,117,space,5.59246660000008,None,1,1,1.2209416999994573,None,space,2.0901551999995718,None,0,0,0,0,,,,,13,5,109,0,286.1120784000004,,,,,,,,,,,,,,,,,,,,,286.09725890000027,286.1120784000004,286.5960965000004,286.6013717000005,286.6227736000001,287.8460848000004,,,,,287.8463260000008,287.8615479,288.0616778000003,288.04567769999994,286.6227736000001,,,,,,,,1,1,1.2209416999994573,None,,,,,,,,859,21,M,R,2026-02-25_12h16.58.817,VisualSearch_2526_3,,2025.2.4,2026-02-25 12h16.59.226820 +0100,
tilted.xlsx,The target is tilted.,117,110,6,13,0,0,0,0,0,0,0,0,0,0,0,0,1,1,1,117,space,5.59246660000008,None,0,1,0.6634371999998621,None,space,2.0901551999995718,None,0,0,0,0,,,,,13,6,110,7,288.0616778000003,,,,,,,,,,,,,,,,,,,,,288.04650780000065,288.0616778000003,288.54543580000063,288.55060589999994,288.57122270000036,289.24572979999994,,,,,289.2460030000002,289.26102270000047,289.4610339999999,289.44479580000007,288.57122270000036,,,,,,,,0,1,0.6634371999998621,None,,,,,,,,859,21,M,R,2026-02-25_12h16.58.817,VisualSearch_2526_3,,2025.2.4,2026-02-25 12h16.59.226820 +0100,
tilted.xlsx,The target is tilted.,117,111,7,13,0,1,1,1,1,1,1,1,1,1,1,1,1,11,12,117,space,5.59246660000008,None,0,1,2.2216394000006403,None,space,2.0901551999995718,None,0,0,0,0,,,,,13,7,111,4,289.4610339999999,,,,,,,,,,,,,,,,,,,,,289.4456274000004,289.4610339999999,289.94488360000014,289.9503199999999,289.9723279,292.21142260000033,,,,,292.2116676000005,292.22679360000075,292.42685280000023,292.4108919,289.9723279,,,,,,,,0,1,2.2216394000006403,None,,,,,,,,859,21,M,R,2026-02-25_12h16.58.817,VisualSearch_2526_3,,2025.2.4,2026-02-25 12h16.59.226820 +0100,
tilted.xlsx,The target is tilted.,117,112,0,14,0,1,1,1,0,0,0,0,0,0,0,0,1,3,4,117,space,5.59246660000008,None,0,1,0.8070766000000731,None,space,2.0901551999995718,None,0,0,0,0,,,,,14,0,112,6,292.42685280000023,,,,,,,,,,,,,,,,,,,,,292.4117163000001,292.42685280000023,292.9106575000005,292.9159380000001,292.9373247000003,293.7609816000004,,,,,293.7612224000004,293.77610110000023,293.97642799999994,293.9602801000001,292.9373247000003,,,,,,,,0,1,0.8070766000000731,None,,,,,,,,859,21,M,R,2026-02-25_12h16.58.817,VisualSearch_2526_3,,2025.2.4,2026-02-25 12h16.59.226820 +0100,
tilted.xlsx,The target is tilted.,117,113,1,14,1,1,1,1,1,1,1,1,0,0,0,0,0,7,8,117,space,5.59246660000008,None,0,0,1.858980199999678,None,space,2.0901551999995718,None,0,0,0,0,,,,,14,1,113,1,293.97642799999994,,,,,,,,,,,,,,,,,,,,,293.96106170000076,293.97642799999994,294.4600375,294.4653696000005,294.48650140000063,296.3594109000005,,,,,296.3595279000001,296.3754366000003,296.57512140000017,296.5595224000008,294.48650140000063,,,,,,,,0,0,1.858980199999678,None,,,,,,,,859,21,M,R,2026-02-25_12h16.58.817,VisualSearch_2526_3,,2025.2.4,2026-02-25 12h16.59.226820 +0100,
tilted.xlsx,The target is tilted.,117,114,2,14,0,1,1,1,1,1,1,1,1,1,1,1,1,11,12,117,space,5.59246660000008,None,0,1,2.4460761999998795,None,space,2.0901551999995718,None,0,0,0,0,,,,,14,2,114,4,296.57512140000017,,,,,,,,,,,,,,,,,,,,,296.56035690000044,296.57512140000017,297.0593643000002,297.0646239000007,297.08612360000006,299.54208090000066,,,,,299.5423202000002,299.5574591000004,299.7577914000003,299.74181279999993,297.08612360000006,,,,,,,,0,1,2.4460761999998795,None,,,,,,,,859,21,M,R,2026-02-25_12h16.58.817,VisualSearch_2526_3,,2025.2.4,2026-02-25 12h16.59.226820 +0100,
tilted.xlsx,The target is tilted.,117,115,3,14,1,1,1,1,0,0,0,0,0,0,0,0,0,3,4,117,space,5.59246660000008,None,1,1,0.837160799999765,None,space,2.0901551999995718,None,0,0,0,0,,,,,14,3,115,2,299.7577914000003,,,,,,,,,,,,,,,,,,,,,299.74259690000054,299.7577914000003,300.2416774000003,300.2468723000002,300.26762940000026,301.1082784,,,,,301.1084942000007,301.1240020000005,301.3235616000002,301.3077733,300.26762940000026,,,,,,,,1,1,0.837160799999765,None,,,,,,,,859,21,M,R,2026-02-25_12h16.58.817,VisualSearch_2526_3,,2025.2.4,2026-02-25 12h16.59.226820 +0100,
tilted.xlsx,The target is tilted.,117,116,4,14,1,1,1,1,1,1,1,1,1,1,1,1,0,11,12,117,space,5.59246660000008,None,1,1,1.171993100000691,None,space,2.0901551999995718,None,0,0,0,0,,,,,14,4,116,0,301.3235616000002,,,,,,,,,,,,,,,,,,,,,301.3086659999999,301.3235616000002,301.8077950000006,301.81297859999995,301.8336196,303.0085708000006,,,,,303.0087889000006,303.0233310000003,303.22289790000013,303.20726770000056,301.8336196,,,,,,,,1,1,1.171993100000691,None,,,,,,,,859,21,M,R,2026-02-25_12h16.58.817,VisualSearch_2526_3,,2025.2.4,2026-02-25 12h16.59.226820 +0100,
tilted.xlsx,The target is tilted.,117,117,5,14,0,1,1,1,1,1,1,1,0,0,0,0,1,7,8,117,space,5.59246660000008,None,0,1,2.790962299999592,None,space,2.0901551999995718,None,0,0,0,0,,,,,14,5,117,5,303.22289790000013,,,,,,,,,,,,,,,,,,,,,303.20807570000034,303.22289790000013,303.70721180000055,303.7122033000005,303.7226270000001,306.5232082000002,,,,,306.52345870000045,306.5386832000004,306.73893210000006,306.7228734,303.7226270000001,,,,,,,,0,1,2.790962299999592,None,,,,,,,,859,21,M,R,2026-02-25_12h16.58.817,VisualSearch_2526_3,,2025.2.4,2026-02-25 12h16.59.226820 +0100,
tilted.xlsx,The target is tilted.,117,118,6,14,0,0,0,0,0,0,0,0,0,0,0,0,1,1,1,117,space,5.59246660000008,None,0,1,0.6845749000003707,None,space,2.0901551999995718,None,0,0,0,0,,,,,14,6,118,7,306.73893210000006,,,,,,,,,,,,,,,,,,,,,306.72372580000047,306.73893210000006,307.2227369000002,307.2279638,307.2501540000003,307.9394886,,,,,307.93970380000064,307.9547532000006,308.1550772999999,308.13905030000024,307.2501540000003,,,,,,,,0,1,0.6845749000003707,None,,,,,,,,859,21,M,R,2026-02-25_12h16.58.817,VisualSearch_2526_3,,2025.2.4,2026-02-25 12h16.59.226820 +0100,
tilted.xlsx,The target is tilted.,117,119,7,14,1,0,0,0,0,0,0,0,0,0,0,0,0,0,1,117,space,5.59246660000008,None,1,1,0.5267038000001776,None,space,2.0901551999995718,None,0,0,0,0,,,,,14,7,119,3,308.1550772999999,,,,,,,,,,,,,,,,,,,,,308.13989240000046,308.1550772999999,308.63815180000074,308.6404005000004,308.6547111,309.1890175000008,,,,,309.1892306,309.20472580000023,309.4286517999999,309.3885284000007,308.6547111,,,,,,,,1,1,0.5267038000001776,None,,,,,,,,859,21,M,R,2026-02-25_12h16.58.817,VisualSearch_2526_3,,2025.2.4,2026-02-25 12h16.59.226820 +0100,
tilted.xlsx,The target is tilted.,117,0,0,0,,,,,,,,,,,,,,,,,space,5.59246660000008,None,,,,,space,2.0901551999995718,None,0,0,0,0,,,,,,,,,,,,,,,,,,,,,,,,,,,,,,,,,,,,,,,,,,,,,,,,,,,,,,,,,,,,,,,859,21,M,R,2026-02-25_12h16.58.817,VisualSearch_2526_3,,2025.2.4,2026-02-25 12h16.59.226820 +0100,
vertical.xlsx,The target is tilted.,135,0,0,0,0,0,0,0,0,0,0,0,0,0,0,0,1,1,1,135,space,3.9983819000008225,None,0,1,0.5773856000005253,None,,,,0,1,1,1,0,0,0,7,,,,,313.4721866,,,,,,,,,,,,,,,309.4286517999999,309.4286517999999,309.4286517999999,space,3.9983819000008225,None,313.4678790000007,313.4721866,313.9531956000001,313.9586398000001,313.9802116000001,314.56972660000065,0,1,0.5773856000005253,None,314.5698463000008,314.58559480000076,314.7858608000006,314.7693384000004,,,,,,,,,,,,,,,,,,,,859,21,M,R,2026-02-25_12h16.58.817,VisualSearch_2526_3,,2025.2.4,2026-02-25 12h16.59.226820 +0100,
vertical.xlsx,The target is tilted.,135,1,1,0,0,1,1,1,0,0,0,0,0,0,0,0,1,3,4,135,space,3.9983819000008225,None,0,1,0.8263656999997693,None,,,,0,1,1,1,0,1,1,6,,,,,314.7858608000006,,,,,,,,,,,,,,,,,,,,,314.7697364000005,314.7858608000006,315.2688941000006,315.2716344999999,315.2856122000003,316.1203957000007,0,1,0.8263656999997693,None,316.1206043000002,316.13581650000015,316.33564920000026,316.31929880000007,315.2856122000003,,,,,,,,,,,,,,,,,,,859,21,M,R,2026-02-25_12h16.58.817,VisualSearch_2526_3,,2025.2.4,2026-02-25 12h16.59.226820 +0100,
vertical.xlsx,The target is tilted.,135,2,2,0,1,1,1,1,0,0,0,0,0,0,0,0,0,3,4,135,space,3.9983819000008225,None,1,1,0.6116461000001436,None,,,,0,1,1,1,0,2,2,2,,,,,316.33564920000026,,,,,,,,,,,,,,,,,,,,,316.320068,316.33564920000026,316.81874530000005,316.82186810000076,316.83648130000074,317.4529399000003,1,1,0.6116461000001436,None,317.4531483999999,317.4686975000004,317.66864970000006,317.65267760000006,316.83648130000074,,,,,,,,,,,,,,,,,,,859,21,M,R,2026-02-25_12h16.58.817,VisualSearch_2526_3,,2025.2.4,2026-02-25 12h16.59.226820 +0100,
vertical.xlsx,The target is tilted.,135,3,3,0,1,1,1,1,1,1,1,1,1,1,1,1,0,11,12,135,space,3.9983819000008225,None,1,1,0.578425600000628,None,,,,0,1,1,1,0,3,3,0,,,,,317.66864970000006,,,,,,,,,,,,,,,,,,,,,317.65348170000016,317.66864970000006,318.15248820000033,318.1577290000005,318.1790991000007,318.76952340000025,1,1,0.578425600000628,None,318.7697375000007,318.78463310000006,318.98451190000014,318.96856110000044,318.1790991000007,,,,,,,,,,,,,,,,,,,859,21,M,R,2026-02-25_12h16.58.817,VisualSearch_2526_3,,2025.2.4,2026-02-25 12h16.59.226820 +0100,
vertical.xlsx,The target is tilted.,135,4,4,0,1,1,1,1,1,1,1,1,0,0,0,0,0,7,8,135,space,3.9983819000008225,None,0,0,0.8332110000001194,None,,,,0,1,1,1,0,4,4,1,,,,,318.98451190000014,,,,,,,,,,,,,,,,,,,,,318.96932749999996,318.98451190000014,319.4687001000002,319.4735977,319.4842139000002,320.33535220000067,0,0,0.8332110000001194,None,320.3355612000005,320.3509537,320.55103300000064,320.53499510000074,319.4842139000002,,,,,,,,,,,,,,,,,,,859,21,M,R,2026-02-25_12h16.58.817,VisualSearch_2526_3,,2025.2.4,2026-02-25 12h16.59.226820 +0100,
vertical.xlsx,The target is tilted.,135,5,5,0,0,1,1,1,1,1,1,1,1,1,1,1,1,11,12,135,space,3.9983819000008225,None,0,1,1.4698960999994597,None,,,,0,1,1,1,0,5,5,4,,,,,320.55103300000064,,,,,,,,,,,,,,,,,,,,,320.53583380000055,320.55103300000064,321.03478410000025,321.0401460000003,321.05767860000014,322.53530649999993,0,1,1.4698960999994597,None,322.5355261000004,322.54997000000003,322.7503381000006,322.73410010000043,321.05767860000014,,,,,,,,,,,,,,,,,,,859,21,M,R,2026-02-25_12h16.58.817,VisualSearch_2526_3,,2025.2.4,2026-02-25 12h16.59.226820 +0100,
vertical.xlsx,The target is tilted.,135,6,6,0,0,1,1,1,1,1,1,1,0,0,0,0,1,7,8,135,space,3.9983819000008225,None,0,1,1.3239903000003324,None,,,,0,1,1,1,0,6,6,5,,,,,322.7503381000006,,,,,,,,,,,,,,,,,,,,,322.7348928000001,322.7503381000006,323.2337952000007,323.2392004000003,323.2603760000002,324.60093099999995,0,1,1.3239903000003324,None,324.60116710000057,324.6159307000007,324.8159860000005,324.8002830000005,323.2603760000002,,,,,,,,,,,,,,,,,,,859,21,M,R,2026-02-25_12h16.58.817,VisualSearch_2526_3,,2025.2.4,2026-02-25 12h16.59.226820 +0100,
vertical.xlsx,The target is tilted.,135,7,7,0,1,0,0,0,0,0,0,0,0,0,0,0,0,0,1,135,space,3.9983819000008225,None,1,1,0.49818649999997433,None,,,,0,1,1,1,0,7,7,3,,,,,324.8159860000005,,,,,,,,,,,,,,,,,,,,,324.80104740000024,324.8159860000005,325.3001582000006,325.30557970000064,325.32703180000044,325.8339543000002,1,1,0.49818649999997433,None,325.8341612000004,325.8493395000005,326.04882309999994,326.03279870000006,325.32703180000044,,,,,,,,,,,,,,,,,,,859,21,M,R,2026-02-25_12h16.58.817,VisualSearch_2526_3,,2025.2.4,2026-02-25 12h16.59.226820 +0100,
vertical.xlsx,The target is tilted.,135,0,0,0,1,1,1,1,1,1,1,1,1,1,1,1,0,11,12,135,space,3.9983819000008225,None,1,1,0.9562765999999101,None,space,1.5186625000005733,None,0,1,1,1,,,,,0,0,0,0,327.6220131,,,,,,,,,,,,,,,,,,,,,327.6181118000004,327.6220131,328.0984999000002,328.1023218,328.1149245000006,329.08287930000006,,,,,329.0830971000005,329.0980139000003,329.29795620000004,329.2821533000006,,326.0404870000002,326.04882309999994,326.04882309999994,327.5827297000005,space,1.5186625000005733,None,1,1,0.9562765999999101,None,,,,,,,,859,21,M,R,2026-02-25_12h16.58.817,VisualSearch_2526_3,,2025.2.4,2026-02-25 12h16.59.226820 +0100,
vertical.xlsx,The target is tilted.,135,1,1,0,1,0,0,0,0,0,0,0,0,0,0,0,0,0,1,135,space,3.9983819000008225,None,1,1,0.5480516999996325,None,space,1.5186625000005733,None,0,1,1,1,,,,,0,1,1,3,329.29795620000004,,,,,,,,,,,,,,,,,,,,,329.28294020000067,329.29795620000004,329.7820563000005,329.7869128000002,329.7975565000006,330.34880240000075,,,,,330.34901810000065,330.3642135,330.56436180000037,330.54841380000016,329.7975565000006,,,,,,,,1,1,0.5480516999996325,None,,,,,,,,859,21,M,R,2026-02-25_12h16.58.817,VisualSearch_2526_3,,2025.2.4,2026-02-25 12h16.59.226820 +0100,
vertical.xlsx,The target is tilted.,135,2,2,0,1,1,1,1,1,1,1,1,0,0,0,0,0,7,8,135,space,3.9983819000008225,None,0,0,1.2763764999999694,None,space,1.5186625000005733,None,0,1,1,1,,,,,0,2,2,1,330.56436180000037,,,,,,,,,,,,,,,,,,,,,330.54926520000026,330.56436180000037,331.0483107,331.0536215000002,331.0746927,332.3650204000005,,,,,332.36527470000055,332.3801392000005,332.5804022000002,332.5643729000003,331.0746927,,,,,,,,0,0,1.2763764999999694,None,,,,,,,,859,21,M,R,2026-02-25_12h16.58.817,VisualSearch_2526_3,,2025.2.4,2026-02-25 12h16.59.226820 +0100,
vertical.xlsx,The target is tilted.,135,3,3,0,0,1,1,1,1,1,1,1,0,0,0,0,1,7,8,135,space,3.9983819000008225,None,0,1,1.602078299999448,None,space,1.5186625000005733,None,0,1,1,1,,,,,0,3,3,5,332.5804022000002,,,,,,,,,,,,,,,,,,,,,332.5651641000004,332.5804022000002,333.06388830000014,333.0698501000006,333.0908397000003,334.6973962000002,,,,,334.6976150999999,334.7127896000002,334.9127406000007,334.8970532000003,333.0908397000003,,,,,,,,0,1,1.602078299999448,None,,,,,,,,859,21,M,R,2026-02-25_12h16.58.817,VisualSearch_2526_3,,2025.2.4,2026-02-25 12h16.59.226820 +0100,
vertical.xlsx,The target is tilted.,135,4,4,0,0,1,1,1,1,1,1,1,1,1,1,1,1,11,12,135,space,3.9983819000008225,None,0,1,1.9005234000005657,None,space,1.5186625000005733,None,0,1,1,1,,,,,0,4,4,4,334.9127406000007,,,,,,,,,,,,,,,,,,,,,334.8978803,334.9127406000007,335.39679650000016,335.40210040000056,335.4232152000004,337.3300644000001,,,,,337.33032150000054,337.3453790000003,337.5455541000001,337.52948820000074,335.4232152000004,,,,,,,,0,1,1.9005234000005657,None,,,,,,,,859,21,M,R,2026-02-25_12h16.58.817,VisualSearch_2526_3,,2025.2.4,2026-02-25 12h16.59.226820 +0100,
vertical.xlsx,The target is tilted.,135,5,5,0,1,1,1,1,0,0,0,0,0,0,0,0,0,3,4,135,space,3.9983819000008225,None,1,1,0.7930205999991813,None,space,1.5186625000005733,None,0,1,1,1,,,,,0,5,5,2,337.5455541000001,,,,,,,,,,,,,,,,,,,,,337.5302754000004,337.5455541000001,338.0292603000007,338.03457830000025,338.05176800000027,338.84623700000066,,,,,338.8464760000006,338.8613729000008,339.06170810000003,339.04521139999997,338.05176800000027,,,,,,,,1,1,0.7930205999991813,None,,,,,,,,859,21,M,R,2026-02-25_12h16.58.817,VisualSearch_2526_3,,2025.2.4,2026-02-25 12h16.59.226820 +0100,
vertical.xlsx,The target is tilted.,135,6,6,0,0,0,0,0,0,0,0,0,0,0,0,0,1,1,1,135,space,3.9983819000008225,None,0,1,0.508212800000365,None,space,1.5186625000005733,None,0,1,1,1,,,,,0,6,6,7,339.06170810000003,,,,,,,,,,,,,,,,,,,,,339.0461129000005,339.06170810000003,339.5454569000003,339.5507870000001,339.57224250000036,340.0959505000001,,,,,340.09616710000046,340.1112126000007,340.3109890000005,340.29517120000037,339.57224250000036,,,,,,,,0,1,0.508212800000365,None,,,,,,,,859,21,M,R,2026-02-25_12h16.58.817,VisualSearch_2526_3,,2025.2.4,2026-02-25 12h16.59.226820 +0100,
vertical.xlsx,The target is tilted.,135,7,7,0,0,1,1,1,0,0,0,0,0,0,0,0,1,3,4,135,space,3.9983819000008225,None,0,1,0.8059837999999218,None,space,1.5186625000005733,None,0,1,1,1,,,,,0,7,7,6,340.3109890000005,,,,,,,,,,,,,,,,,,,,,340.29597660000036,340.3109890000005,340.79491099999996,340.8001647000001,340.8213507999999,341.6454016000007,,,,,341.64563220000036,341.66043250000075,341.8607875000007,341.84464730000036,340.8213507999999,,,,,,,,0,1,0.8059837999999218,None,,,,,,,,859,21,M,R,2026-02-25_12h16.58.817,VisualSearch_2526_3,,2025.2.4,2026-02-25 12h16.59.226820 +0100,
vertical.xlsx,The target is tilted.,135,8,0,1,1,0,0,0,0,0,0,0,0,0,0,0,0,0,1,135,space,3.9983819000008225,None,1,1,0.5404117000007318,None,space,1.5186625000005733,None,0,1,1,1,,,,,1,0,8,3,341.8607875000007,,,,,,,,,,,,,,,,,,,,,341.84551980000015,341.8607875000007,342.3443987999999,342.34983510000075,342.37132910000037,342.92835920000016,,,,,342.92858980000074,342.9437181000003,343.14349949999996,343.1275458,342.37132910000037,,,,,,,,1,1,0.5404117000007318,None,,,,,,,,859,21,M,R,2026-02-25_12h16.58.817,VisualSearch_2526_3,,2025.2.4,2026-02-25 12h16.59.226820 +0100,
vertical.xlsx,The target is tilted.,135,9,1,1,0,0,0,0,0,0,0,0,0,0,0,0,1,1,1,135,space,3.9983819000008225,None,0,1,0.4974512999997387,None,space,1.5186625000005733,None,0,1,1,1,,,,,1,1,9,7,343.14349949999996,,,,,,,,,,,,,,,,,,,,,343.12843430000066,343.14349949999996,343.6271532999999,343.6317003000004,343.64325740000004,344.14423440000064,,,,,344.1444487000008,344.15970990000005,344.3599245000005,344.34350240000003,343.64325740000004,,,,,,,,0,1,0.4974512999997387,None,,,,,,,,859,21,M,R,2026-02-25_12h16.58.817,VisualSearch_2526_3,,2025.2.4,2026-02-25 12h16.59.226820 +0100,
vertical.xlsx,The target is tilted.,135,10,2,1,0,1,1,1,1,1,1,1,0,0,0,0,1,7,8,135,space,3.9983819000008225,None,0,1,1.1416466999999102,None,space,1.5186625000005733,None,0,1,1,1,,,,,1,2,10,5,344.3599245000005,,,,,,,,,,,,,,,,,,,,,344.3443578000006,344.3599245000005,344.8435466000001,344.84885870000016,344.8705682,346.0273147000007,,,,,346.0275375000001,346.0423137000007,346.2426316000001,346.22665490000054,344.8705682,,,,,,,,0,1,1.1416466999999102,None,,,,,,,,859,21,M,R,2026-02-25_12h16.58.817,VisualSearch_2526_3,,2025.2.4,2026-02-25 12h16.59.226820 +0100,
vertical.xlsx,The target is tilted.,135,11,3,1,0,1,1,1,1,1,1,1,1,1,1,1,1,11,12,135,space,3.9983819000008225,None,0,1,1.198054299999967,None,space,1.5186625000005733,None,0,1,1,1,,,,,1,3,11,4,346.2426316000001,,,,,,,,,,,,,,,,,,,,,346.2274477000001,346.2426316000001,346.7264141000005,346.73139549999996,346.74223920000077,347.94380360000014,,,,,347.9440190000005,347.9584033000001,348.1587135,348.14271140000074,346.74223920000077,,,,,,,,0,1,1.198054299999967,None,,,,,,,,859,21,M,R,2026-02-25_12h16.58.817,VisualSearch_2526_3,,2025.2.4,2026-02-25 12h16.59.226820 +0100,
vertical.xlsx,The target is tilted.,135,12,4,1,0,1,1,1,0,0,0,0,0,0,0,0,1,3,4,135,space,3.9983819000008225,None,0,1,0.6450409999997646,None,space,1.5186625000005733,None,0,1,1,1,,,,,1,4,12,6,348.1587135,,,,,,,,,,,,,,,,,,,,,348.1435040000006,348.1587135,348.64255030000004,348.6479358000006,348.66939850000017,349.3262580999999,,,,,349.3264736000001,349.3416922000006,349.54133450000063,349.5255539,348.66939850000017,,,,,,,,0,1,0.6450409999997646,None,,,,,,,,859,21,M,R,2026-02-25_12h16.58.817,VisualSearch_2526_3,,2025.2.4,2026-02-25 12h16.59.226820 +0100,
vertical.xlsx,The target is tilted.,135,13,5,1,1,1,1,1,1,1,1,1,1,1,1,1,0,11,12,135,space,3.9983819000008225,None,1,1,1.1419556999999259,None,space,1.5186625000005733,None,0,1,1,1,,,,,1,5,13,0,349.54133450000063,,,,,,,,,,,,,,,,,,,,,349.5263715000001,349.54133450000063,350.0255130000005,350.0308491000005,350.0515983000005,351.20880380000017,,,,,351.20905350000066,351.22415750000073,351.4243086000006,351.40842040000007,350.0515983000005,,,,,,,,1,1,1.1419556999999259,None,,,,,,,,859,21,M,R,2026-02-25_12h16.58.817,VisualSearch_2526_3,,2025.2.4,2026-02-25 12h16.59.226820 +0100,
vertical.xlsx,The target is tilted.,135,14,6,1,1,1,1,1,1,1,1,1,0,0,0,0,0,7,8,135,space,3.9983819000008225,None,1,1,1.2556171000005634,None,space,1.5186625000005733,None,0,1,1,1,,,,,1,6,14,1,351.4243086000006,,,,,,,,,,,,,,,,,,,,,351.40927790000023,351.4243086000006,351.90806300000077,351.9133916999999,351.93072680000023,353.1916446000005,,,,,353.1918701000004,353.2068108000003,353.4070681000003,353.3910104000006,351.93072680000023,,,,,,,,1,1,1.2556171000005634,None,,,,,,,,859,21,M,R,2026-02-25_12h16.58.817,VisualSearch_2526_3,,2025.2.4,2026-02-25 12h16.59.226820 +0100,
vertical.xlsx,The target is tilted.,135,15,7,1,1,1,1,1,0,0,0,0,0,0,0,0,0,3,4,135,space,3.9983819000008225,None,1,1,0.5963811999999962,None,space,1.5186625000005733,None,0,1,1,1,,,,,1,7,15,2,353.4070681000003,,,,,,,,,,,,,,,,,,,,,353.39180380000016,353.4070681000003,353.8909414,353.89637370000037,353.9175092000005,354.52425780000067,,,,,354.5244786000003,354.5398130000003,354.73997730000065,354.72353569999996,353.9175092000005,,,,,,,,1,1,0.5963811999999962,None,,,,,,,,859,21,M,R,2026-02-25_12h16.58.817,VisualSearch_2526_3,,2025.2.4,2026-02-25 12h16.59.226820 +0100,
vertical.xlsx,The target is tilted.,135,16,0,2,0,1,1,1,1,1,1,1,0,0,0,0,1,7,8,135,space,3.9983819000008225,None,0,1,1.342484300000251,None,space,1.5186625000005733,None,0,1,1,1,,,,,2,0,16,5,354.73997730000065,,,,,,,,,,,,,,,,,,,,,354.72436050000033,354.73997730000065,355.22337659999994,355.22866930000055,355.25012120000065,356.6068820999999,,,,,356.60711549999996,356.6222473000007,356.8225897000002,356.8064862000001,355.25012120000065,,,,,,,,0,1,1.342484300000251,None,,,,,,,,859,21,M,R,2026-02-25_12h16.58.817,VisualSearch_2526_3,,2025.2.4,2026-02-25 12h16.59.226820 +0100,
vertical.xlsx,The target is tilted.,135,17,1,2,1,1,1,1,0,0,0,0,0,0,0,0,0,3,4,135,space,3.9983819000008225,None,1,1,0.6875092000000222,None,space,1.5186625000005733,None,0,1,1,1,,,,,2,1,17,2,356.8225897000002,,,,,,,,,,,,,,,,,,,,,356.8074565000006,356.8225897000002,357.3064056000003,357.3116923000007,357.33238960000017,358.0232224000001,,,,,358.02345420000074,358.0387055000001,358.23877510000057,358.22279830000025,357.33238960000017,,,,,,,,1,1,0.6875092000000222,None,,,,,,,,859,21,M,R,2026-02-25_12h16.58.817,VisualSearch_2526_3,,2025.2.4,2026-02-25 12h16.59.226820 +0100,
vertical.xlsx,The target is tilted.,135,18,2,2,1,0,0,0,0,0,0,0,0,0,0,0,0,0,1,135,space,3.9983819000008225,None,1,1,0.5712348000006386,None,space,1.5186625000005733,None,0,1,1,1,,,,,2,2,18,3,358.23877510000057,,,,,,,,,,,,,,,,,,,,,358.22365960000025,358.23877510000057,358.72258050000073,358.7281146000005,358.74962159999995,359.32236190000003,,,,,359.3225545000005,359.3382954000008,359.5383625000004,359.52232640000057,358.74962159999995,,,,,,,,1,1,0.5712348000006386,None,,,,,,,,859,21,M,R,2026-02-25_12h16.58.817,VisualSearch_2526_3,,2025.2.4,2026-02-25 12h16.59.226820 +0100,
vertical.xlsx,The target is tilted.,135,19,3,2,1,1,1,1,1,1,1,1,0,0,0,0,0,7,8,135,space,3.9983819000008225,None,1,1,0.7233987999998135,None,space,1.5186625000005733,None,0,1,1,1,,,,,2,3,19,1,359.5383625000004,,,,,,,,,,,,,,,,,,,,,359.5231956000007,359.5383625000004,360.0212233000002,360.02403180000056,360.0376130000004,360.77246360000026,,,,,360.77270920000046,360.78774690000046,360.98794850000013,360.9718862,360.0376130000004,,,,,,,,1,1,0.7233987999998135,None,,,,,,,,859,21,M,R,2026-02-25_12h16.58.817,VisualSearch_2526_3,,2025.2.4,2026-02-25 12h16.59.226820 +0100,
vertical.xlsx,The target is tilted.,135,20,4,2,1,1,1,1,1,1,1,1,1,1,1,1,0,11,12,135,space,3.9983819000008225,None,1,1,0.8257014999999228,None,space,1.5186625000005733,None,0,1,1,1,,,,,2,4,20,0,360.98794850000013,,,,,,,,,,,,,,,,,,,,,360.97272950000024,360.98794850000013,361.47163140000066,361.47691380000015,361.49271410000074,362.3218916000005,,,,,362.3221179000002,362.33744939999997,362.5373176000003,362.5213498000003,361.49271410000074,,,,,,,,1,1,0.8257014999999228,None,,,,,,,,859,21,M,R,2026-02-25_12h16.58.817,VisualSearch_2526_3,,2025.2.4,2026-02-25 12h16.59.226820 +0100,
vertical.xlsx,The target is tilted.,135,21,5,2,0,1,1,1,0,0,0,0,0,0,0,0,1,3,4,135,space,3.9983819000008225,None,0,1,0.6263103000001138,None,space,1.5186625000005733,None,0,1,1,1,,,,,2,5,21,6,362.5373176000003,,,,,,,,,,,,,,,,,,,,,362.52218730000004,362.5373176000003,363.0211932000002,363.02645310000025,363.04453379999995,363.68798980000065,,,,,363.6881811000003,363.70325219999995,363.90346800000043,363.88736289999997,363.04453379999995,,,,,,,,0,1,0.6263103000001138,None,,,,,,,,859,21,M,R,2026-02-25_12h16.58.817,VisualSearch_2526_3,,2025.2.4,2026-02-25 12h16.59.226820 +0100,
vertical.xlsx,The target is tilted.,135,22,6,2,0,0,0,0,0,0,0,0,0,0,0,0,1,1,1,135,space,3.9983819000008225,None,0,1,0.522371099999873,None,space,1.5186625000005733,None,0,1,1,1,,,,,2,6,22,7,363.90346800000043,,,,,,,,,,,,,,,,,,,,,363.8881973000007,363.90346800000043,364.38738580000063,364.3929725000007,364.41393620000053,364.93762530000004,,,,,364.9378458000001,364.9527899000004,365.1530638000004,365.1367393999999,364.41393620000053,,,,,,,,0,1,0.522371099999873,None,,,,,,,,859,21,M,R,2026-02-25_12h16.58.817,VisualSearch_2526_3,,2025.2.4,2026-02-25 12h16.59.226820 +0100,
vertical.xlsx,The target is tilted.,135,23,7,2,0,1,1,1,1,1,1,1,1,1,1,1,1,11,12,135,space,3.9983819000008225,None,0,1,1.2009242000003724,None,space,1.5186625000005733,None,0,1,1,1,,,,,2,7,23,4,365.1530638000004,,,,,,,,,,,,,,,,,,,,,365.1376084000003,365.1530638000004,365.6369209000004,365.6423381000004,365.65995530000055,366.8704991000004,,,,,366.87074610000036,366.8857908,367.0858877999999,367.06951970000046,365.65995530000055,,,,,,,,0,1,1.2009242000003724,None,,,,,,,,859,21,M,R,2026-02-25_12h16.58.817,VisualSearch_2526_3,,2025.2.4,2026-02-25 12h16.59.226820 +0100,
vertical.xlsx,The target is tilted.,135,24,0,3,0,1,1,1,0,0,0,0,0,0,0,0,1,3,4,135,space,3.9983819000008225,None,0,1,0.6715426000000662,None,space,1.5186625000005733,None,0,1,1,1,,,,,3,0,24,6,367.0858877999999,,,,,,,,,,,,,,,,,,,,,367.0703889000006,367.0858877999999,367.56954339999993,367.5749562000001,367.5962881000005,368.26982940000016,,,,,368.2700496000007,368.2853574999999,368.48544930000025,368.4694573000006,367.5962881000005,,,,,,,,0,1,0.6715426000000662,None,,,,,,,,859,21,M,R,2026-02-25_12h16.58.817,VisualSearch_2526_3,,2025.2.4,2026-02-25 12h16.59.226820 +0100,
vertical.xlsx,The target is tilted.,135,25,1,3,0,1,1,1,1,1,1,1,1,1,1,1,1,11,12,135,space,3.9983819000008225,None,0,1,0.9326101999995444,None,space,1.5186625000005733,None,0,1,1,1,,,,,3,1,25,4,368.48544930000025,,,,,,,,,,,,,,,,,,,,,368.47028150000006,368.48544930000025,368.9692780000005,368.9747089000002,368.99631130000034,369.9361779999999,,,,,369.93641240000034,369.9512485000005,370.15154280000024,370.13530400000036,368.99631130000034,,,,,,,,0,1,0.9326101999995444,None,,,,,,,,859,21,M,R,2026-02-25_12h16.58.817,VisualSearch_2526_3,,2025.2.4,2026-02-25 12h16.59.226820 +0100,
vertical.xlsx,The target is tilted.,135,26,2,3,0,1,1,1,1,1,1,1,0,0,0,0,1,7,8,135,space,3.9983819000008225,None,0,1,1.0129618000000846,None,space,1.5186625000005733,None,0,1,1,1,,,,,3,2,26,5,370.15154280000024,,,,,,,,,,,,,,,,,,,,,370.1361386000008,370.15154280000024,370.63537460000043,370.6411764000004,370.6630998999999,371.6857454000001,,,,,371.6859629999999,371.70108430000073,371.9010060999999,371.8848566000006,370.6630998999999,,,,,,,,0,1,1.0129618000000846,None,,,,,,,,859,21,M,R,2026-02-25_12h16.58.817,VisualSearch_2526_3,,2025.2.4,2026-02-25 12h16.59.226820 +0100,
vertical.xlsx,The target is tilted.,135,27,3,3,1,0,0,0,0,0,0,0,0,0,0,0,0,0,1,135,space,3.9983819000008225,None,1,1,0.6152782999997726,None,space,1.5186625000005733,None,0,1,1,1,,,,,3,3,27,3,371.9010060999999,,,,,,,,,,,,,,,,,,,,,371.8856691000001,371.9010060999999,372.38470980000056,372.39010880000023,372.41081250000025,373.03501060000053,,,,,373.03523490000043,373.05015920000005,373.2505783000006,373.2344647,372.41081250000025,,,,,,,,1,1,0.6152782999997726,None,,,,,,,,859,21,M,R,2026-02-25_12h16.58.817,VisualSearch_2526_3,,2025.2.4,2026-02-25 12h16.59.226820 +0100,
vertical.xlsx,The target is tilted.,135,28,4,3,1,1,1,1,1,1,1,1,1,1,1,1,0,11,12,135,space,3.9983819000008225,None,1,1,0.8734380000005331,None,space,1.5186625000005733,None,0,1,1,1,,,,,3,4,28,0,373.2505783000006,,,,,,,,,,,,,,,,,,,,,373.23525770000015,373.2505783000006,373.73429490000035,373.73961430000054,373.7611867000005,374.65136729999995,,,,,374.65158260000044,374.66669249999995,374.8665731000001,374.85019660000034,373.7611867000005,,,,,,,,1,1,0.8734380000005331,None,,,,,,,,859,21,M,R,2026-02-25_12h16.58.817,VisualSearch_2526_3,,2025.2.4,2026-02-25 12h16.59.226820 +0100,
vertical.xlsx,The target is tilted.,135,29,5,3,1,1,1,1,1,1,1,1,0,0,0,0,0,7,8,135,space,3.9983819000008225,None,1,1,0.5538268999998763,None,space,1.5186625000005733,None,0,1,1,1,,,,,3,5,29,1,374.8665731000001,,,,,,,,,,,,,,,,,,,,,374.85103340000023,374.8665731000001,375.35045720000016,375.3558187000008,375.3768270999999,375.9338144000003,,,,,375.9340198,375.94947690000026,376.14964210000016,376.13320680000015,375.3768270999999,,,,,,,,1,1,0.5538268999998763,None,,,,,,,,859,21,M,R,2026-02-25_12h16.58.817,VisualSearch_2526_3,,2025.2.4,2026-02-25 12h16.59.226820 +0100,
vertical.xlsx,The target is tilted.,135,30,6,3,0,0,0,0,0,0,0,0,0,0,0,0,1,1,1,135,space,3.9983819000008225,None,0,1,0.703293699999449,None,space,1.5186625000005733,None,0,1,1,1,,,,,3,6,30,7,376.14964210000016,,,,,,,,,,,,,,,,,,,,,376.13406080000004,376.14964210000016,376.6333783,376.63874060000035,376.66051289999996,377.36723299999994,,,,,377.36744980000003,377.3822719,377.5824878000003,377.5663586999999,376.66051289999996,,,,,,,,0,1,0.703293699999449,None,,,,,,,,859,21,M,R,2026-02-25_12h16.58.817,VisualSearch_2526_3,,2025.2.4,2026-02-25 12h16.59.226820 +0100,
vertical.xlsx,The target is tilted.,135,31,7,3,1,1,1,1,0,0,0,0,0,0,0,0,0,3,4,135,space,3.9983819000008225,None,1,1,0.5682519000001776,None,space,1.5186625000005733,None,0,1,1,1,,,,,3,7,31,2,377.5824878000003,,,,,,,,,,,,,,,,,,,,,377.56716959999994,377.5824878000003,378.06623280000076,378.0715020000007,378.09280190000027,378.66678760000013,,,,,378.6670010000007,378.68172330000016,378.88207630000034,378.8660374000001,378.09280190000027,,,,,,,,1,1,0.5682519000001776,None,,,,,,,,859,21,M,R,2026-02-25_12h16.58.817,VisualSearch_2526_3,,2025.2.4,2026-02-25 12h16.59.226820 +0100,
vertical.xlsx,The target is tilted.,135,32,0,4,1,0,0,0,0,0,0,0,0,0,0,0,0,0,1,135,space,3.9983819000008225,None,1,1,0.7152091999996628,None,space,1.5186625000005733,None,0,1,1,1,,,,,4,0,32,3,378.88207630000034,,,,,,,,,,,,,,,,,,,,,378.8668879000006,378.88207630000034,379.3654997000003,379.37092230000053,379.3920936000004,380.1155462000006,,,,,380.11566519999997,380.13153200000033,380.331631,380.31553090000034,379.3920936000004,,,,,,,,1,1,0.7152091999996628,None,,,,,,,,859,21,M,R,2026-02-25_12h16.58.817,VisualSearch_2526_3,,2025.2.4,2026-02-25 12h16.59.226820 +0100,
vertical.xlsx,The target is tilted.,135,33,1,4,1,1,1,1,1,1,1,1,0,0,0,0,0,7,8,135,space,3.9983819000008225,None,1,1,0.6042434999999386,None,space,1.5186625000005733,None,0,1,1,1,,,,,4,1,33,1,380.331631,,,,,,,,,,,,,,,,,,,,,380.31632720000016,380.331631,380.8154103000006,380.8207691000007,380.8379012000005,381.44888850000007,,,,,381.44907970000077,381.4641165000003,381.6643885000003,381.64841310000065,380.8379012000005,,,,,,,,1,1,0.6042434999999386,None,,,,,,,,859,21,M,R,2026-02-25_12h16.58.817,VisualSearch_2526_3,,2025.2.4,2026-02-25 12h16.59.226820 +0100,
