file_name,block_instructions,target_example,thisN,thisTrialN,thisRepN,target_presence,opacity_1,opacity_2,opacity_3,opacity_4,opacity_5,opacity_6,opacity_7,opacity_8,opacity_9,opacity_10,opacity_11,opacity_12,n_distract,n_items,target_ori,key_resp_4.keys,key_resp_4.rt,key_resp_4.duration,key_resp.keys,key_resp.corr,key_resp.rt,key_resp.duration,key_resp_5.keys,key_resp_5.rt,key_resp_5.duration,blocks.thisRepN,blocks.thisTrialN,blocks.thisN,blocks.thisIndex,practice_trials.thisRepN,practice_trials.thisTrialN,practice_trials.thisN,practice_trials.thisIndex,trials.thisRepN,trials.thisTrialN,trials.thisN,trials.thisIndex,thisRow.t,notes,Welcome.started,WelcomeText.started,key_resp_2.started,Welcome.stopped,key_resp_2.keys,key_resp_2.rt,key_resp_2.duration,InformedConsent.started,text_4.started,InformedConsent.stopped,key_resp_6.keys,key_resp_6.rt,key_resp_6.duration,key_resp_4.started,example_target.started,text_3.started,blocks.key_resp_4.keys,blocks.key_resp_4.rt,blocks.key_resp_4.duration,FixCross.started,fixCross.started,FixCross.stopped,Stimulus.started,key_resp.started,Stimulus.stopped,practice_trials.key_resp.keys,practice_trials.key_resp.corr,practice_trials.key_resp.rt,practice_trials.key_resp.duration,BlankScreen.started,text.started,text.stopped,BlankScreen.stopped,fixCross.stopped,ExperimentStart.started,text_2.started,key_resp_5.started,ExperimentStart.stopped,blocks.key_resp_5.keys,blocks.key_resp_5.rt,blocks.key_resp_5.duration,trials.key_resp.keys,trials.key_resp.corr,trials.key_resp.rt,trials.key_resp.duration,Thanks.started,ThankYou.started,key_resp_3.started,Thanks.stopped,key_resp_3.keys,key_resp_3.rt,key_resp_3.duration,participant,leeftijd,gender,links/rechtshandig,date,expName,expVersion,psychopyVersion,expStart,
,,,,,,,,,,,,,,,,,,,,,,,,,,,,,,,,,,,,,,,,,,,,,,0.031639799999993556,0.05934049999996205,0.05934049999996205,73.73042469999996,space,73.54565760000003,None,,,,,,,,,,,,,,,,,,,,,,,,,,,,,,,,,,,,,,,,,,,,,,861,26,V,R,2026-02-18_11h11.13.951,VisualSearch_2526_3,,2025.2.4,2026-02-18 11h11.14.713855 +0100,
,,,,,,,,,,,,,,,,,,,,,,,,,,,,,,,,,,,,,,,,,,,,,,,,,,,,,73.73050169999999,73.7368285,99.84649000000002,y,26.10685680000006,None,,,,,,,,,,,,,,,,,,,,,,,,,,,,,,,,,,,,,,,,861,26,V,R,2026-02-18_11h11.13.951,VisualSearch_2526_3,,2025.2.4,2026-02-18 11h11.14.713855 +0100,
vertical.xlsx,The target is tilted.,135,0,0,0,0,1,1,1,1,1,1,1,1,1,1,1,1,11,12,135,space,9.648324399999979,None,0,1,3.13503999999989,None,,,,0,0,0,1,0,0,0,4,,,,,109.71038959999998,,,,,,,,,,,,,,,99.99207690000003,99.99207690000003,99.99207690000003,space,9.648324399999979,None,109.7053472,109.71038959999998,110.1579812,110.16308289999995,110.18253900000002,113.32403450000004,0,1,3.13503999999989,None,113.32423510000001,113.33955019999996,113.53961379999998,113.52360969999995,,,,,,,,,,,,,,,,,,,,861,26,V,R,2026-02-18_11h11.13.951,VisualSearch_2526_3,,2025.2.4,2026-02-18 11h11.14.713855 +0100,
vertical.xlsx,The target is tilted.,135,1,1,0,0,1,1,1,0,0,0,0,0,0,0,0,1,3,4,135,space,9.648324399999979,None,0,1,1.4880873000000747,None,,,,0,0,0,1,0,1,1,6,,,,,113.53961379999998,,,,,,,,,,,,,,,,,,,,,113.52434860000005,113.53961379999998,114.02309630000002,114.02789540000003,114.04666399999996,115.53941269999996,0,1,1.4880873000000747,None,115.53960300000006,115.55487219999998,115.75499690000004,115.73909849999995,114.04666399999996,,,,,,,,,,,,,,,,,,,861,26,V,R,2026-02-18_11h11.13.951,VisualSearch_2526_3,,2025.2.4,2026-02-18 11h11.14.713855 +0100,
vertical.xlsx,The target is tilted.,135,2,2,0,1,1,1,1,1,1,1,1,1,1,1,1,0,11,12,135,space,9.648324399999979,None,1,1,1.7062471000000414,None,,,,0,0,0,1,0,2,2,0,,,,,115.75499690000004,,,,,,,,,,,,,,,,,,,,,115.73984959999996,115.75499690000004,116.23884139999996,116.24367470000004,116.26269969999998,117.9720337,1,1,1.7062471000000414,None,117.97223199999996,117.98671139999999,118.18738389999999,118.17125650000003,116.26269969999998,,,,,,,,,,,,,,,,,,,861,26,V,R,2026-02-18_11h11.13.951,VisualSearch_2526_3,,2025.2.4,2026-02-18 11h11.14.713855 +0100,
vertical.xlsx,The target is tilted.,135,3,3,0,1,1,1,1,1,1,1,1,0,0,0,0,0,7,8,135,space,9.648324399999979,None,1,1,1.892507099999989,None,,,,0,0,0,1,0,3,3,1,,,,,118.18738389999999,,,,,,,,,,,,,,,,,,,,,118.17194310000002,118.18738389999999,118.6709343,118.67461449999996,118.68703760000005,120.58737529999996,1,1,1.892507099999989,None,120.58756589999996,120.60236350000002,120.80286690000003,120.78679220000004,118.68703760000005,,,,,,,,,,,,,,,,,,,861,26,V,R,2026-02-18_11h11.13.951,VisualSearch_2526_3,,2025.2.4,2026-02-18 11h11.14.713855 +0100,
vertical.xlsx,The target is tilted.,135,4,4,0,0,1,1,1,1,1,1,1,0,0,0,0,1,7,8,135,space,9.648324399999979,None,0,1,2.4021472000000585,None,,,,0,0,0,1,0,4,4,5,,,,,120.80286690000003,,,,,,,,,,,,,,,,,,,,,120.78749130000006,120.80286690000003,121.28610660000004,121.29086919999997,121.30970339999999,123.71839729999999,0,1,2.4021472000000585,None,123.71851430000004,123.73435789999996,123.93414510000002,123.9179054,121.30970339999999,,,,,,,,,,,,,,,,,,,861,26,V,R,2026-02-18_11h11.13.951,VisualSearch_2526_3,,2025.2.4,2026-02-18 11h11.14.713855 +0100,
vertical.xlsx,The target is tilted.,135,5,5,0,1,0,0,0,0,0,0,0,0,0,0,0,0,0,1,135,space,9.648324399999979,None,1,1,0.9415754000000334,None,,,,0,0,0,1,0,5,5,3,,,,,123.93414510000002,,,,,,,,,,,,,,,,,,,,,123.91832850000003,123.93414510000002,124.41771070000004,124.42047720000005,124.43392140000003,125.38421549999998,1,1,0.9415754000000334,None,125.38431049999997,125.40010759999996,125.600097,125.58369649999997,124.43392140000003,,,,,,,,,,,,,,,,,,,861,26,V,R,2026-02-18_11h11.13.951,VisualSearch_2526_3,,2025.2.4,2026-02-18 11h11.14.713855 +0100,
vertical.xlsx,The target is tilted.,135,6,6,0,1,1,1,1,0,0,0,0,0,0,0,0,0,3,4,135,space,9.648324399999979,None,1,1,0.8067351000000826,None,,,,0,0,0,1,0,6,6,2,,,,,125.600097,,,,,,,,,,,,,,,,,,,,,125.58410409999999,125.600097,126.08349190000001,126.08748720000006,126.10211990000005,126.91789319999998,1,1,0.8067351000000826,None,126.91808509999998,126.93294900000001,127.13272730000006,127.11654569999996,126.10211990000005,,,,,,,,,,,,,,,,,,,861,26,V,R,2026-02-18_11h11.13.951,VisualSearch_2526_3,,2025.2.4,2026-02-18 11h11.14.713855 +0100,
vertical.xlsx,The target is tilted.,135,7,7,0,0,0,0,0,0,0,0,0,0,0,0,0,1,1,1,135,space,9.648324399999979,None,0,1,0.6777655000000777,None,,,,0,0,0,1,0,7,7,7,,,,,127.13272730000006,,,,,,,,,,,,,,,,,,,,,127.11707220000005,127.13272730000006,127.61694910000006,127.62233089999995,127.63618299999996,128.31725140000003,0,1,0.6777655000000777,None,128.31744260000005,128.33232339999995,128.5337502,128.51674130000004,127.63618299999996,,,,,,,,,,,,,,,,,,,861,26,V,R,2026-02-18_11h11.13.951,VisualSearch_2526_3,,2025.2.4,2026-02-18 11h11.14.713855 +0100,
vertical.xlsx,The target is tilted.,135,0,0,0,1,0,0,0,0,0,0,0,0,0,0,0,0,0,1,135,space,9.648324399999979,None,1,1,0.6166540000000396,None,space,5.555095800000004,None,0,0,0,1,,,,,0,0,0,3,134.1234346,,,,,,,,,,,,,,,,,,,,,134.11876500000005,134.1234346,134.61302460000002,134.61635509999996,134.63034349999998,135.26332750000006,,,,,135.26347009999995,135.27892789999999,135.47917329999996,135.4632719,,128.5253609,128.5337502,128.5337502,134.09715489999996,space,5.555095800000004,None,1,1,0.6166540000000396,None,,,,,,,,861,26,V,R,2026-02-18_11h11.13.951,VisualSearch_2526_3,,2025.2.4,2026-02-18 11h11.14.713855 +0100,
vertical.xlsx,The target is tilted.,135,1,1,0,0,0,0,0,0,0,0,0,0,0,0,0,1,1,1,135,space,9.648324399999979,None,0,1,0.8767900999999938,None,space,5.555095800000004,None,0,0,0,1,,,,,0,1,1,7,135.47917329999996,,,,,,,,,,,,,,,,,,,,,135.4640455,135.47917329999996,135.9628629,135.96629380000002,135.98045409999997,136.86219489999996,,,,,136.86232800000005,136.87817500000006,137.07806830000004,137.06170099999997,135.98045409999997,,,,,,,,0,1,0.8767900999999938,None,,,,,,,,861,26,V,R,2026-02-18_11h11.13.951,VisualSearch_2526_3,,2025.2.4,2026-02-18 11h11.14.713855 +0100,
vertical.xlsx,The target is tilted.,135,2,2,0,1,1,1,1,1,1,1,1,1,1,1,1,0,11,12,135,space,9.648324399999979,None,1,1,0.8584195999999338,None,space,5.555095800000004,None,0,0,0,1,,,,,0,2,2,0,137.07806830000004,,,,,,,,,,,,,,,,,,,,,137.0621704,137.07806830000004,137.5616238,137.56437770000002,137.57794769999998,138.4449631,,,,,138.44508729999995,138.46083120000003,138.66084490000003,138.64444119999996,137.57794769999998,,,,,,,,1,1,0.8584195999999338,None,,,,,,,,861,26,V,R,2026-02-18_11h11.13.951,VisualSearch_2526_3,,2025.2.4,2026-02-18 11h11.14.713855 +0100,
vertical.xlsx,The target is tilted.,135,3,3,0,0,1,1,1,0,0,0,0,0,0,0,0,1,3,4,135,space,9.648324399999979,None,0,1,1.027914600000031,None,space,5.555095800000004,None,0,0,0,1,,,,,0,3,3,6,138.66084490000003,,,,,,,,,,,,,,,,,,,,,138.64496180000003,138.66084490000003,139.14426820000006,139.14703859999997,139.16062699999998,140.19414689999996,,,,,140.19427359999997,140.21008440000003,140.40995450000003,140.39369799999997,139.16062699999998,,,,,,,,0,1,1.027914600000031,None,,,,,,,,861,26,V,R,2026-02-18_11h11.13.951,VisualSearch_2526_3,,2025.2.4,2026-02-18 11h11.14.713855 +0100,
vertical.xlsx,The target is tilted.,135,4,4,0,1,1,1,1,1,1,1,1,0,0,0,0,0,7,8,135,space,9.648324399999979,None,1,1,1.5184706999999662,None,space,5.555095800000004,None,0,0,0,1,,,,,0,4,4,1,140.40995450000003,,,,,,,,,,,,,,,,,,,,,140.39417330000003,140.40995450000003,140.89351920000001,140.8962838,140.90981880000004,142.44324129999995,,,,,142.44340050000005,142.45906090000005,142.65893949999997,142.6425226,140.90981880000004,,,,,,,,1,1,1.5184706999999662,None,,,,,,,,861,26,V,R,2026-02-18_11h11.13.951,VisualSearch_2526_3,,2025.2.4,2026-02-18 11h11.14.713855 +0100,
vertical.xlsx,The target is tilted.,135,5,5,0,1,1,1,1,0,0,0,0,0,0,0,0,0,3,4,135,space,9.648324399999979,None,1,1,1.2475605999999289,None,space,5.555095800000004,None,0,0,0,1,,,,,0,5,5,2,142.65893949999997,,,,,,,,,,,,,,,,,,,,,142.64298459999998,142.65893949999997,143.14245119999998,143.14520679999998,143.15878569999995,144.40978340000004,,,,,144.4100135,144.42478630000005,144.62509260000002,144.60945490000006,143.15878569999995,,,,,,,,1,1,1.2475605999999289,None,,,,,,,,861,26,V,R,2026-02-18_11h11.13.951,VisualSearch_2526_3,,2025.2.4,2026-02-18 11h11.14.713855 +0100,
vertical.xlsx,The target is tilted.,135,6,6,0,0,1,1,1,1,1,1,1,1,1,1,1,1,11,12,135,space,9.648324399999979,None,0,1,2.542058099999963,None,space,5.555095800000004,None,0,0,0,1,,,,,0,6,6,4,144.62509260000002,,,,,,,,,,,,,,,,,,,,,144.6102644,144.62509260000002,145.10920999999996,145.1146453,145.13530830000002,147.69113019999998,,,,,147.69138599999997,147.70681330000002,147.90678749999995,147.89132789999996,145.13530830000002,,,,,,,,0,1,2.542058099999963,None,,,,,,,,861,26,V,R,2026-02-18_11h11.13.951,VisualSearch_2526_3,,2025.2.4,2026-02-18 11h11.14.713855 +0100,
vertical.xlsx,The target is tilted.,135,7,7,0,0,1,1,1,1,1,1,1,0,0,0,0,1,7,8,135,space,9.648324399999979,None,0,1,2.008502500000077,None,space,5.555095800000004,None,0,0,0,1,,,,,0,7,7,5,147.90678749999995,,,,,,,,,,,,,,,,,,,,,147.89226380000002,147.90678749999995,148.39098220000005,148.39634560000002,148.41558229999998,150.43989539999995,,,,,150.44014019999997,150.45552580000003,150.65580309999996,150.6401131,148.41558229999998,,,,,,,,0,1,2.008502500000077,None,,,,,,,,861,26,V,R,2026-02-18_11h11.13.951,VisualSearch_2526_3,,2025.2.4,2026-02-18 11h11.14.713855 +0100,
vertical.xlsx,The target is tilted.,135,8,0,1,1,1,1,1,1,1,1,1,0,0,0,0,0,7,8,135,space,9.648324399999979,None,1,1,0.797381200000018,None,space,5.555095800000004,None,0,0,0,1,,,,,1,0,8,1,150.65580309999996,,,,,,,,,,,,,,,,,,,,,150.64086680000003,150.65580309999996,151.1392657,151.14343210000004,151.16313430000002,151.97320709999997,,,,,151.97340929999996,151.98819939999998,152.18823240000006,152.17202039999995,151.16313430000002,,,,,,,,1,1,0.797381200000018,None,,,,,,,,861,26,V,R,2026-02-18_11h11.13.951,VisualSearch_2526_3,,2025.2.4,2026-02-18 11h11.14.713855 +0100,
vertical.xlsx,The target is tilted.,135,9,1,1,0,0,0,0,0,0,0,0,0,0,0,0,1,1,1,135,space,9.648324399999979,None,0,1,0.6918653000000177,None,space,5.555095800000004,None,0,0,0,1,,,,,1,1,9,7,152.18823240000006,,,,,,,,,,,,,,,,,,,,,152.1727925,152.18823240000006,152.67190019999998,152.6766083,152.69586790000005,153.38906629999997,,,,,153.38926700000002,153.40426979999995,153.60475429999997,153.58867429999998,152.69586790000005,,,,,,,,0,1,0.6918653000000177,None,,,,,,,,861,26,V,R,2026-02-18_11h11.13.951,VisualSearch_2526_3,,2025.2.4,2026-02-18 11h11.14.713855 +0100,
vertical.xlsx,The target is tilted.,135,10,2,1,0,1,1,1,1,1,1,1,1,1,1,1,1,11,12,135,space,9.648324399999979,None,0,1,2.2369928000000527,None,space,5.555095800000004,None,0,0,0,1,,,,,1,2,10,4,153.60475429999997,,,,,,,,,,,,,,,,,,,,,153.58961339999996,153.60475429999997,154.08821890000002,154.09300740000003,154.11232500000006,156.35492780000004,,,,,156.3551357,156.36955439999997,156.56989650000003,156.55376360000002,154.11232500000006,,,,,,,,0,1,2.2369928000000527,None,,,,,,,,861,26,V,R,2026-02-18_11h11.13.951,VisualSearch_2526_3,,2025.2.4,2026-02-18 11h11.14.713855 +0100,
vertical.xlsx,The target is tilted.,135,11,3,1,1,0,0,0,0,0,0,0,0,0,0,0,0,0,1,135,space,9.648324399999979,None,1,1,0.6551957000000357,None,space,5.555095800000004,None,0,0,0,1,,,,,1,3,11,3,156.56989650000003,,,,,,,,,,,,,,,,,,,,,156.55451719999996,156.56989650000003,157.0536644,157.05846599999995,157.07743040000003,157.73667469999998,,,,,157.73685680000006,157.752248,157.95225170000003,157.9361093,157.07743040000003,,,,,,,,1,1,0.6551957000000357,None,,,,,,,,861,26,V,R,2026-02-18_11h11.13.951,VisualSearch_2526_3,,2025.2.4,2026-02-18 11h11.14.713855 +0100,
vertical.xlsx,The target is tilted.,135,12,4,1,0,1,1,1,0,0,0,0,0,0,0,0,1,3,4,135,space,9.648324399999979,None,0,1,0.9682133999999678,None,space,5.555095800000004,None,0,0,0,1,,,,,1,4,12,6,157.95225170000003,,,,,,,,,,,,,,,,,,,,,157.93686260000004,157.95225170000003,158.43649240000002,158.44150130000003,158.46012659999997,159.4361894,,,,,159.43639470000005,159.45147399999996,159.65134290000003,159.63544790000003,158.46012659999997,,,,,,,,0,1,0.9682133999999678,None,,,,,,,,861,26,V,R,2026-02-18_11h11.13.951,VisualSearch_2526_3,,2025.2.4,2026-02-18 11h11.14.713855 +0100,
vertical.xlsx,The target is tilted.,135,13,5,1,1,1,1,1,0,0,0,0,0,0,0,0,0,3,4,135,space,9.648324399999979,None,1,1,1.057557000000088,None,space,5.555095800000004,None,0,0,0,1,,,,,1,5,13,2,159.65134290000003,,,,,,,,,,,,,,,,,,,,,159.6359132,159.65134290000003,160.13544079999997,160.14011349999998,160.15897010000003,161.21897939999997,,,,,161.21919649999995,161.23383090000004,161.43450429999996,161.41844790000005,160.15897010000003,,,,,,,,1,1,1.057557000000088,None,,,,,,,,861,26,V,R,2026-02-18_11h11.13.951,VisualSearch_2526_3,,2025.2.4,2026-02-18 11h11.14.713855 +0100,
vertical.xlsx,The target is tilted.,135,14,6,1,1,1,1,1,1,1,1,1,1,1,1,1,0,11,12,135,space,9.648324399999979,None,0,0,1.285124499999938,None,space,5.555095800000004,None,0,0,0,1,,,,,1,6,14,0,161.43450429999996,,,,,,,,,,,,,,,,,,,,,161.41922499999998,161.43450429999996,161.91778620000002,161.92260720000002,161.9419461,163.2347112,,,,,163.23491350000006,163.24967960000004,163.45023100000003,163.43400510000004,161.9419461,,,,,,,,0,0,1.285124499999938,None,,,,,,,,861,26,V,R,2026-02-18_11h11.13.951,VisualSearch_2526_3,,2025.2.4,2026-02-18 11h11.14.713855 +0100,
vertical.xlsx,The target is tilted.,135,15,7,1,0,1,1,1,1,1,1,1,0,0,0,0,1,7,8,135,space,9.648324399999979,None,0,1,1.0293519000000515,None,space,5.555095800000004,None,0,0,0,1,,,,,1,7,15,5,163.45023100000003,,,,,,,,,,,,,,,,,,,,,163.43479709999997,163.45023100000003,163.9334553,163.93648029999997,163.94959159999996,164.983475,,,,,164.98367810000002,164.99882890000003,165.1992861,165.18315340000004,163.94959159999996,,,,,,,,0,1,1.0293519000000515,None,,,,,,,,861,26,V,R,2026-02-18_11h11.13.951,VisualSearch_2526_3,,2025.2.4,2026-02-18 11h11.14.713855 +0100,
vertical.xlsx,The target is tilted.,135,16,0,2,1,1,1,1,1,1,1,1,1,1,1,1,0,11,12,135,space,9.648324399999979,None,1,1,0.8875713999999562,None,space,5.555095800000004,None,0,0,0,1,,,,,2,0,16,0,165.1992861,,,,,,,,,,,,,,,,,,,,,165.18396640000003,165.1992861,165.6832511,165.68800510000005,165.70714640000006,166.59919230000003,,,,,166.59934950000002,166.61475659999996,166.81512320000002,166.79926269999999,165.70714640000006,,,,,,,,1,1,0.8875713999999562,None,,,,,,,,861,26,V,R,2026-02-18_11h11.13.951,VisualSearch_2526_3,,2025.2.4,2026-02-18 11h11.14.713855 +0100,
vertical.xlsx,The target is tilted.,135,17,1,2,0,0,0,0,0,0,0,0,0,0,0,0,1,1,1,135,space,9.648324399999979,None,0,1,0.7590271999999914,None,space,5.555095800000004,None,0,0,0,1,,,,,2,1,17,7,166.81512320000002,,,,,,,,,,,,,,,,,,,,,166.79999959999998,166.81512320000002,167.29889809999997,167.30370449999998,167.32308009999997,168.09800440000004,,,,,168.09808310000005,168.11456510000005,,168.29826960000003,167.32308009999997,,,,,,,,0,1,0.7590271999999914,None,,,,,,,,861,26,V,R,2026-02-18_11h11.13.951,VisualSearch_2526_3,,2025.2.4,2026-02-18 11h11.14.713855 +0100,
vertical.xlsx,The target is tilted.,135,18,2,2,0,1,1,1,0,0,0,0,0,0,0,0,1,3,4,135,space,9.648324399999979,None,0,1,1.3804274000000305,None,space,5.555095800000004,None,0,0,0,1,,,,,2,2,18,6,168.3147619,,,,,,,,,,,,,,,,,,,,,168.29903060000004,168.3147619,168.7978266,168.80347940000001,168.8221767,170.21437990000004,,,,,170.2145441,170.22987539999997,170.4303532,170.41426980000006,168.8221767,,,,,,,,0,1,1.3804274000000305,None,,,,,,,,861,26,V,R,2026-02-18_11h11.13.951,VisualSearch_2526_3,,2025.2.4,2026-02-18 11h11.14.713855 +0100,
vertical.xlsx,The target is tilted.,135,19,3,2,0,1,1,1,1,1,1,1,1,1,1,1,1,11,12,135,space,9.648324399999979,None,0,1,2.644994499999939,None,space,5.555095800000004,None,0,0,0,1,,,,,2,3,19,4,170.4303532,,,,,,,,,,,,,,,,,,,,,170.41555789999995,170.4303532,170.91390969999998,170.91867820000004,170.9372618,173.59597580000002,,,,,173.59616960000005,173.6116879,173.81208170000002,173.79593820000002,170.9372618,,,,,,,,0,1,2.644994499999939,None,,,,,,,,861,26,V,R,2026-02-18_11h11.13.951,VisualSearch_2526_3,,2025.2.4,2026-02-18 11h11.14.713855 +0100,
vertical.xlsx,The target is tilted.,135,20,4,2,0,1,1,1,1,1,1,1,0,0,0,0,1,7,8,135,space,9.648324399999979,None,0,1,1.8754914999999528,None,space,5.555095800000004,None,0,0,0,1,,,,,2,4,20,5,173.81208170000002,,,,,,,,,,,,,,,,,,,,,173.79671340000004,173.81208170000002,174.29552869999998,174.3008006,174.3201411,176.21129059999998,,,,,176.21144749999996,176.22710719999998,176.4275993,176.41155460000004,174.3201411,,,,,,,,0,1,1.8754914999999528,None,,,,,,,,861,26,V,R,2026-02-18_11h11.13.951,VisualSearch_2526_3,,2025.2.4,2026-02-18 11h11.14.713855 +0100,
vertical.xlsx,The target is tilted.,135,21,5,2,1,0,0,0,0,0,0,0,0,0,0,0,0,0,1,135,space,9.648324399999979,None,1,1,0.5089165000000548,None,space,5.555095800000004,None,0,0,0,1,,,,,2,5,21,3,176.4275993,,,,,,,,,,,,,,,,,,,,,176.4122638,176.4275993,176.91093750000005,176.91573789999995,176.93473359999996,177.44502839999996,,,,,177.44525710000005,177.45990300000005,177.66041289999998,177.64426579999997,176.93473359999996,,,,,,,,1,1,0.5089165000000548,None,,,,,,,,861,26,V,R,2026-02-18_11h11.13.951,VisualSearch_2526_3,,2025.2.4,2026-02-18 11h11.14.713855 +0100,
vertical.xlsx,The target is tilted.,135,22,6,2,1,1,1,1,0,0,0,0,0,0,0,0,0,3,4,135,space,9.648324399999979,None,1,1,0.567050199999926,None,space,5.555095800000004,None,0,0,0,1,,,,,2,6,22,2,177.66041289999998,,,,,,,,,,,,,,,,,,,,,177.64503969999998,177.66041289999998,178.14402819999998,178.1487495,178.16785700000003,178.74437339999997,,,,,178.74457429999995,178.7593074,178.95950200000004,178.94345599999997,178.16785700000003,,,,,,,,1,1,0.567050199999926,None,,,,,,,,861,26,V,R,2026-02-18_11h11.13.951,VisualSearch_2526_3,,2025.2.4,2026-02-18 11h11.14.713855 +0100,
vertical.xlsx,The target is tilted.,135,23,7,2,1,1,1,1,1,1,1,1,0,0,0,0,0,7,8,135,space,9.648324399999979,None,1,1,2.0219710999999734,None,space,5.555095800000004,None,0,0,0,1,,,,,2,7,23,1,178.95950200000004,,,,,,,,,,,,,,,,,,,,,178.94420730000002,178.95950200000004,179.44306259999996,179.4458866,179.45889439999996,181.49311690000002,,,,,181.49332049999998,181.50817419999998,181.70853880000004,181.69208349999997,179.45889439999996,,,,,,,,1,1,2.0219710999999734,None,,,,,,,,861,26,V,R,2026-02-18_11h11.13.951,VisualSearch_2526_3,,2025.2.4,2026-02-18 11h11.14.713855 +0100,
vertical.xlsx,The target is tilted.,135,24,0,3,0,0,0,0,0,0,0,0,0,0,0,0,1,1,1,135,space,9.648324399999979,None,0,1,0.5673365000000103,None,space,5.555095800000004,None,0,0,0,1,,,,,3,0,24,7,181.70853880000004,,,,,,,,,,,,,,,,,,,,,181.69283470000005,181.70853880000004,182.19220259999997,182.1968511,182.21489640000004,182.79251899999997,,,,,182.7927029,182.80755280000005,183.0080507,182.99198909999996,182.21489640000004,,,,,,,,0,1,0.5673365000000103,None,,,,,,,,861,26,V,R,2026-02-18_11h11.13.951,VisualSearch_2526_3,,2025.2.4,2026-02-18 11h11.14.713855 +0100,
vertical.xlsx,The target is tilted.,135,25,1,3,0,1,1,1,0,0,0,0,0,0,0,0,1,3,4,135,space,9.648324399999979,None,0,1,0.8753513999999996,None,space,5.555095800000004,None,0,0,0,1,,,,,3,1,25,6,183.0080507,,,,,,,,,,,,,,,,,,,,,182.99286500000005,183.0080507,183.49177740000005,183.49698609999996,183.51618710000002,184.40783250000004,,,,,184.40805360000002,184.42347830000006,184.62396609999996,184.60776150000004,183.51618710000002,,,,,,,,0,1,0.8753513999999996,None,,,,,,,,861,26,V,R,2026-02-18_11h11.13.951,VisualSearch_2526_3,,2025.2.4,2026-02-18 11h11.14.713855 +0100,
vertical.xlsx,The target is tilted.,135,26,2,3,0,1,1,1,1,1,1,1,1,1,1,1,1,11,12,135,space,9.648324399999979,None,0,1,2.598705999999993,None,space,5.555095800000004,None,0,0,0,1,,,,,3,2,26,4,184.62396609999996,,,,,,,,,,,,,,,,,,,,,184.60869019999996,184.62396609999996,185.10752690000004,185.11226380000005,185.13186789999997,187.74027579999995,,,,,187.74047819999998,187.75533170000006,187.95553170000005,187.93978149999998,185.13186789999997,,,,,,,,0,1,2.598705999999993,None,,,,,,,,861,26,V,R,2026-02-18_11h11.13.951,VisualSearch_2526_3,,2025.2.4,2026-02-18 11h11.14.713855 +0100,
vertical.xlsx,The target is tilted.,135,27,3,3,0,1,1,1,1,1,1,1,0,0,0,0,1,7,8,135,space,9.648324399999979,None,0,1,2.2923772999999983,None,space,5.555095800000004,None,0,0,0,1,,,,,3,3,27,5,187.95553170000005,,,,,,,,,,,,,,,,,,,,,187.94058970000003,187.95553170000005,188.4396081,188.44516840000006,188.46439650000002,190.77112450000004,,,,,190.77124949999995,190.78755820000003,190.9873334,190.97160910000002,188.46439650000002,,,,,,,,0,1,2.2923772999999983,None,,,,,,,,861,26,V,R,2026-02-18_11h11.13.951,VisualSearch_2526_3,,2025.2.4,2026-02-18 11h11.14.713855 +0100,
vertical.xlsx,The target is tilted.,135,28,4,3,1,1,1,1,1,1,1,1,1,1,1,1,0,11,12,135,space,9.648324399999979,None,1,1,2.2257735000000594,None,space,5.555095800000004,None,0,0,0,1,,,,,3,4,28,0,190.9873334,,,,,,,,,,,,,,,,,,,,,190.97245099999998,190.9873334,191.47131390000004,191.47621070000002,191.49509079999996,193.7369777,,,,,193.73718150000002,193.75254040000004,193.95288470000003,193.9367873,191.49509079999996,,,,,,,,1,1,2.2257735000000594,None,,,,,,,,861,26,V,R,2026-02-18_11h11.13.951,VisualSearch_2526_3,,2025.2.4,2026-02-18 11h11.14.713855 +0100,
vertical.xlsx,The target is tilted.,135,29,5,3,1,1,1,1,1,1,1,1,0,0,0,0,0,7,8,135,space,9.648324399999979,None,1,1,0.5924545999999964,None,space,5.555095800000004,None,0,0,0,1,,,,,3,5,29,1,193.95288470000003,,,,,,,,,,,,,,,,,,,,,193.93761359999996,193.95288470000003,194.43659300000002,194.44138669999995,194.45988980000004,195.05366000000004,,,,,195.05386850000002,195.068672,195.26869220000003,195.25300000000004,194.45988980000004,,,,,,,,1,1,0.5924545999999964,None,,,,,,,,861,26,V,R,2026-02-18_11h11.13.951,VisualSearch_2526_3,,2025.2.4,2026-02-18 11h11.14.713855 +0100,
vertical.xlsx,The target is tilted.,135,30,6,3,1,0,0,0,0,0,0,0,0,0,0,0,0,0,1,135,space,9.648324399999979,None,1,1,0.5841750999999249,None,space,5.555095800000004,None,0,0,0,1,,,,,3,6,30,3,195.26869220000003,,,,,,,,,,,,,,,,,,,,,195.25376159999996,195.26869220000003,195.75277540000002,195.75749940000003,195.77670320000004,196.3698121,,,,,196.37002570000004,196.38466949999997,196.58481789999996,196.5690148,195.77670320000004,,,,,,,,1,1,0.5841750999999249,None,,,,,,,,861,26,V,R,2026-02-18_11h11.13.951,VisualSearch_2526_3,,2025.2.4,2026-02-18 11h11.14.713855 +0100,
vertical.xlsx,The target is tilted.,135,31,7,3,1,1,1,1,0,0,0,0,0,0,0,0,0,3,4,135,space,9.648324399999979,None,1,1,0.817287599999986,None,space,5.555095800000004,None,0,0,0,1,,,,,3,7,31,2,196.58481789999996,,,,,,,,,,,,,,,,,,,,,196.5697493,196.58481789999996,197.06848230000003,197.07250520000002,197.09020929999997,197.91840060000004,,,,,197.91852630000005,197.93393730000003,198.1341956,198.1175439,197.09020929999997,,,,,,,,1,1,0.817287599999986,None,,,,,,,,861,26,V,R,2026-02-18_11h11.13.951,VisualSearch_2526_3,,2025.2.4,2026-02-18 11h11.14.713855 +0100,
vertical.xlsx,The target is tilted.,135,32,0,4,1,1,1,1,1,1,1,1,0,0,0,0,0,7,8,135,space,9.648324399999979,None,0,0,1.8794151000000738,None,space,5.555095800000004,None,0,0,0,1,,,,,4,0,32,1,198.1341956,,,,,,,,,,,,,,,,,,,,,198.11799040000005,198.1341956,198.6180918,198.62314349999997,198.63615830000003,200.5176566,,,,,200.51788980000003,200.5327714,200.73327289999997,200.7170595,198.63615830000003,,,,,,,,0,0,1.8794151000000738,None,,,,,,,,861,26,V,R,2026-02-18_11h11.13.951,VisualSearch_2526_3,,2025.2.4,2026-02-18 11h11.14.713855 +0100,
vertical.xlsx,The target is tilted.,135,33,1,4,0,1,1,1,0,0,0,0,0,0,0,0,1,3,4,135,space,9.648324399999979,None,0,1,0.781906299999946,None,space,5.555095800000004,None,0,0,0,1,,,,,4,1,33,6,200.73327289999997,,,,,,,,,,,,,,,,,,,,,200.71782589999998,200.73327289999997,201.21683389999998,201.22162649999996,201.24170370000002,202.0326685,,,,,202.03276500000004,202.04868039999997,202.24854200000004,202.23220609999998,201.24170370000002,,,,,,,,0,1,0.781906299999946,None,,,,,,,,861,26,V,R,2026-02-18_11h11.13.951,VisualSearch_2526_3,,2025.2.4,2026-02-18 11h11.14.713855 +0100,
vertical.xlsx,The target is tilted.,135,34,2,4,1,0,0,0,0,0,0,0,0,0,0,0,0,0,1,135,space,9.648324399999979,None,1,1,0.8973133000000644,None,space,5.555095800000004,None,0,0,0,1,,,,,4,2,34,3,202.24854200000004,,,,,,,,,,,,,,,,,,,,,202.23280239999997,202.24854200000004,202.73266880000006,202.7380415,202.75716190000003,203.66606920000004,,,,,203.66627340000002,203.6812258,203.88190780000002,203.86557089999997,202.75716190000003,,,,,,,,1,1,0.8973133000000644,None,,,,,,,,861,26,V,R,2026-02-18_11h11.13.951,VisualSearch_2526_3,,2025.2.4,2026-02-18 11h11.14.713855 +0100,
vertical.xlsx,The target is tilted.,135,35,3,4,0,0,0,0,0,0,0,0,0,0,0,0,1,1,1,135,space,9.648324399999979,None,0,1,0.6899247000000059,None,space,5.555095800000004,None,0,0,0,1,,,,,4,3,35,7,203.88190780000002,,,,,,,,,,,,,,,,,,,,,203.86643200000003,203.88190780000002,204.36540679999996,204.37041739999995,204.3890199,205.08229330000006,,,,,205.08252860000005,205.0975085,205.29774959999997,205.28201880000006,204.3890199,,,,,,,,0,1,0.6899247000000059,None,,,,,,,,861,26,V,R,2026-02-18_11h11.13.951,VisualSearch_2526_3,,2025.2.4,2026-02-18 11h11.14.713855 +0100,
vertical.xlsx,The target is tilted.,135,36,4,4,1,1,1,1,1,1,1,1,1,1,1,1,0,11,12,135,space,9.648324399999979,None,1,1,0.8307949000000008,None,space,5.555095800000004,None,0,0,0,1,,,,,4,4,36,0,205.29774959999997,,,,,,,,,,,,,,,,,,,,,205.2828323,205.29774959999997,205.7815789,205.78657199999998,205.806694,206.647916,,,,,206.64806969999995,206.66329199999996,206.86391960000003,206.84764770000004,205.806694,,,,,,,,1,1,0.8307949000000008,None,,,,,,,,861,26,V,R,2026-02-18_11h11.13.951,VisualSearch_2526_3,,2025.2.4,2026-02-18 11h11.14.713855 +0100,
vertical.xlsx,The target is tilted.,135,37,5,4,0,1,1,1,1,1,1,1,1,1,1,1,1,11,12,135,space,9.648324399999979,None,0,1,2.320941199999993,None,space,5.555095800000004,None,0,0,0,1,,,,,4,5,37,4,206.86391960000003,,,,,,,,,,,,,,,,,,,,,206.84838920000004,206.86391960000003,207.34700369999996,207.34982449999995,207.36395530000004,209.69698800000003,,,,,209.69719069999996,209.71204999999998,209.91248710000002,209.89620290000005,207.36395530000004,,,,,,,,0,1,2.320941199999993,None,,,,,,,,861,26,V,R,2026-02-18_11h11.13.951,VisualSearch_2526_3,,2025.2.4,2026-02-18 11h11.14.713855 +0100,
vertical.xlsx,The target is tilted.,135,38,6,4,0,1,1,1,1,1,1,1,0,0,0,0,1,7,8,135,space,9.648324399999979,None,0,1,1.8394766000000118,None,space,5.555095800000004,None,0,0,0,1,,,,,4,6,38,5,209.91248710000002,,,,,,,,,,,,,,,,,,,,,209.89695900000004,209.91248710000002,210.3960111,210.40075190000005,210.41912460000003,212.26161590000004,,,,,212.2617398,212.27733409999996,212.47768629999996,212.4616863,210.41912460000003,,,,,,,,0,1,1.8394766000000118,None,,,,,,,,861,26,V,R,2026-02-18_11h11.13.951,VisualSearch_2526_3,,2025.2.4,2026-02-18 11h11.14.713855 +0100,
vertical.xlsx,The target is tilted.,135,39,7,4,1,1,1,1,0,0,0,0,0,0,0,0,0,3,4,135,space,9.648324399999979,None,1,1,0.7665503000000626,None,space,5.555095800000004,None,0,0,0,1,,,,,4,7,39,2,212.47768629999996,,,,,,,,,,,,,,,,,,,,,212.46255770000005,212.47768629999996,212.96182150000004,212.96742259999996,212.9817944,213.76125839999997,,,,,213.76146330000006,213.77680469999996,213.97720030000005,213.96113409999998,212.9817944,,,,,,,,1,1,0.7665503000000626,None,,,,,,,,861,26,V,R,2026-02-18_11h11.13.951,VisualSearch_2526_3,,2025.2.4,2026-02-18 11h11.14.713855 +0100,
vertical.xlsx,The target is tilted.,135,40,0,5,1,1,1,1,1,1,1,1,0,0,0,0,0,7,8,135,space,9.648324399999979,None,1,1,0.6926237999999785,None,space,5.555095800000004,None,0,0,0,1,,,,,5,0,40,1,213.97720030000005,,,,,,,,,,,,,,,,,,,,,213.9618779,213.97720030000005,214.46066299999995,214.46558319999997,214.48476140000002,215.1945088,,,,,215.19471480000004,215.20934169999998,215.40993690000005,215.3938607,214.48476140000002,,,,,,,,1,1,0.6926237999999785,None,,,,,,,,861,26,V,R,2026-02-18_11h11.13.951,VisualSearch_2526_3,,2025.2.4,2026-02-18 11h11.14.713855 +0100,
vertical.xlsx,The target is tilted.,135,41,1,5,0,1,1,1,1,1,1,1,1,1,1,1,1,11,12,135,space,9.648324399999979,None,0,1,2.7860153999999966,None,space,5.555095800000004,None,0,0,0,1,,,,,5,1,41,4,215.40993690000005,,,,,,,,,,,,,,,,,,,,,215.39459069999998,215.40993690000005,215.89365050000004,215.89835319999997,215.9166517,218.7092983,,,,,218.7095018,218.72470709999993,218.92491500000006,218.90846319999991,215.9166517,,,,,,,,0,1,2.7860153999999966,None,,,,,,,,861,26,V,R,2026-02-18_11h11.13.951,VisualSearch_2526_3,,2025.2.4,2026-02-18 11h11.14.713855 +0100,
vertical.xlsx,The target is tilted.,135,42,2,5,1,0,0,0,0,0,0,0,0,0,0,0,0,0,1,135,space,9.648324399999979,None,1,1,0.5722275999999056,None,space,5.555095800000004,None,0,0,0,1,,,,,5,2,42,3,218.92491500000006,,,,,,,,,,,,,,,,,,,,,218.9092988,218.92491500000006,219.40865540000004,219.41329859999996,219.43291849999991,220.0086523,,,,,220.00885689999996,220.02377290000004,220.22447149999994,220.2082499999999,219.43291849999991,,,,,,,,1,1,0.5722275999999056,None,,,,,,,,861,26,V,R,2026-02-18_11h11.13.951,VisualSearch_2526_3,,2025.2.4,2026-02-18 11h11.14.713855 +0100,
vertical.xlsx,The target is tilted.,135,43,3,5,0,1,1,1,1,1,1,1,0,0,0,0,1,7,8,135,space,9.648324399999979,None,0,1,1.9657439000000068,None,space,5.555095800000004,None,0,0,0,1,,,,,5,3,43,5,220.22447149999994,,,,,,,,,,,,,,,,,,,,,220.2090204000001,220.22447149999994,220.7074525999999,220.71014420000006,220.72451509999996,222.70676720000006,,,,,222.70691979999992,222.7226576999999,222.92308430000003,222.90677570000003,220.72451509999996,,,,,,,,0,1,1.9657439000000068,None,,,,,,,,861,26,V,R,2026-02-18_11h11.13.951,VisualSearch_2526_3,,2025.2.4,2026-02-18 11h11.14.713855 +0100,
vertical.xlsx,The target is tilted.,135,44,4,5,0,0,0,0,0,0,0,0,0,0,0,0,1,1,1,135,space,9.648324399999979,None,0,1,0.6633032000002004,None,space,5.555095800000004,None,0,0,0,1,,,,,5,4,44,7,222.92308430000003,,,,,,,,,,,,,,,,,,,,,222.9075299000001,222.92308430000003,223.40680969999994,223.41159470000002,223.4307389999999,224.1059029999999,,,,,224.10603809999998,224.1224721000001,224.3225058999999,224.3062617999999,223.4307389999999,,,,,,,,0,1,0.6633032000002004,None,,,,,,,,861,26,V,R,2026-02-18_11h11.13.951,VisualSearch_2526_3,,2025.2.4,2026-02-18 11h11.14.713855 +0100,
vertical.xlsx,The target is tilted.,135,45,5,5,1,1,1,1,1,1,1,1,1,1,1,1,0,11,12,135,space,9.648324399999979,None,1,1,1.5866808000000674,None,space,5.555095800000004,None,0,0,0,1,,,,,5,5,45,0,224.3225058999999,,,,,,,,,,,,,,,,,,,,,224.3070335,224.3225058999999,224.80610909999996,224.8108440000001,224.82911330000002,226.42275259999997,,,,,226.42295390000004,226.4377809,226.63818779999997,226.62212169999998,224.82911330000002,,,,,,,,1,1,1.5866808000000674,None,,,,,,,,861,26,V,R,2026-02-18_11h11.13.951,VisualSearch_2526_3,,2025.2.4,2026-02-18 11h11.14.713855 +0100,
vertical.xlsx,The target is tilted.,135,46,6,5,1,1,1,1,0,0,0,0,0,0,0,0,0,3,4,135,space,9.648324399999979,None,1,1,0.5231850000000122,None,space,5.555095800000004,None,0,0,0,1,,,,,5,6,46,2,226.63818779999997,,,,,,,,,,,,,,,,,,,,,226.6228390000001,226.63818779999997,227.12189669999998,227.1265688000001,227.14541710000003,227.67184739999993,,,,,227.67205809999996,227.68717650000008,227.88765919999992,227.87151399999993,227.14541710000003,,,,,,,,1,1,0.5231850000000122,None,,,,,,,,861,26,V,R,2026-02-18_11h11.13.951,VisualSearch_2526_3,,2025.2.4,2026-02-18 11h11.14.713855 +0100,
vertical.xlsx,The target is tilted.,135,47,7,5,0,1,1,1,0,0,0,0,0,0,0,0,1,3,4,135,space,9.648324399999979,None,0,1,0.8686629000001176,None,space,5.555095800000004,None,0,0,0,1,,,,,5,7,47,6,227.88765919999992,,,,,,,,,,,,,,,,,,,,,227.87237830000004,227.88765919999992,228.37125949999995,228.37642129999995,228.39575519999994,229.27105570000003,,,,,229.27125879999994,229.2864701000001,229.48692430000006,229.47082,228.39575519999994,,,,,,,,0,1,0.8686629000001176,None,,,,,,,,861,26,V,R,2026-02-18_11h11.13.951,VisualSearch_2526_3,,2025.2.4,2026-02-18 11h11.14.713855 +0100,
vertical.xlsx,The target is tilted.,135,48,0,6,1,0,0,0,0,0,0,0,0,0,0,0,0,0,1,135,space,9.648324399999979,None,1,1,0.5190964000000804,None,space,5.555095800000004,None,0,0,0,1,,,,,6,0,48,3,229.48692430000006,,,,,,,,,,,,,,,,,,,,,229.4715303999999,229.48692430000006,229.97054830000002,229.97541840000008,229.9943444999999,230.52089490000003,,,,,230.52110040000002,230.5359366,230.73629589999996,230.72011629999997,229.9943444999999,,,,,,,,1,1,0.5190964000000804,None,,,,,,,,861,26,V,R,2026-02-18_11h11.13.951,VisualSearch_2526_3,,2025.2.4,2026-02-18 11h11.14.713855 +0100,
vertical.xlsx,The target is tilted.,135,49,1,6,1,1,1,1,1,1,1,1,0,0,0,0,0,7,8,135,space,9.648324399999979,None,0,0,1.7387518000000455,None,space,5.555095800000004,None,0,0,0,1,,,,,6,1,49,1,230.73629589999996,,,,,,,,,,,,,,,,,,,,,230.7208685999999,230.73629589999996,231.2199819,231.22480429999996,231.24386950000007,232.98610529999996,,,,,232.9863072999999,233.0014673999999,233.20190490000005,233.18533950000005,231.24386950000007,,,,,,,,0,0,1.7387518000000455,None,,,,,,,,861,26,V,R,2026-02-18_11h11.13.951,VisualSearch_2526_3,,2025.2.4,2026-02-18 11h11.14.713855 +0100,
vertical.xlsx,The target is tilted.,135,50,2,6,0,1,1,1,1,1,1,1,0,0,0,0,1,7,8,135,space,9.648324399999979,None,0,1,1.2849589999998443,None,space,5.555095800000004,None,0,0,0,1,,,,,6,2,50,5,233.20190490000005,,,,,,,,,,,,,,,,,,,,,233.1861060000001,233.20190490000005,233.68554910000012,233.69098140000006,233.71006149999994,235.00222570000005,,,,,235.0024502000001,235.01715450000006,235.2176606999999,235.2011422999999,233.71006149999994,,,,,,,,0,1,1.2849589999998443,None,,,,,,,,861,26,V,R,2026-02-18_11h11.13.951,VisualSearch_2526_3,,2025.2.4,2026-02-18 11h11.14.713855 +0100,
vertical.xlsx,The target is tilted.,135,51,3,6,0,0,0,0,0,0,0,0,0,0,0,0,1,1,1,135,space,9.648324399999979,None,0,1,0.7199201000000812,None,space,5.555095800000004,None,0,0,0,1,,,,,6,3,51,7,235.2176606999999,,,,,,,,,,,,,,,,,,,,,235.20189619999996,235.2176606999999,235.70118150000008,235.7058234000001,235.7225088,236.45154709999997,,,,,236.45175749999999,236.4666522,236.6670036999999,236.65098710000007,235.7225088,,,,,,,,0,1,0.7199201000000812,None,,,,,,,,861,26,V,R,2026-02-18_11h11.13.951,VisualSearch_2526_3,,2025.2.4,2026-02-18 11h11.14.713855 +0100,
vertical.xlsx,The target is tilted.,135,52,4,6,1,1,1,1,1,1,1,1,1,1,1,1,0,11,12,135,space,9.648324399999979,None,1,1,0.8010756999999558,None,space,5.555095800000004,None,0,0,0,1,,,,,6,4,52,0,236.6670036999999,,,,,,,,,,,,,,,,,,,,,236.6518403,236.6670036999999,237.15062669999998,237.15530280000007,237.17438349999998,237.9842149000001,,,,,237.9844516999999,237.9992009,238.19950240000003,238.18353430000002,237.17438349999998,,,,,,,,1,1,0.8010756999999558,None,,,,,,,,861,26,V,R,2026-02-18_11h11.13.951,VisualSearch_2526_3,,2025.2.4,2026-02-18 11h11.14.713855 +0100,
vertical.xlsx,The target is tilted.,135,53,5,6,1,1,1,1,0,0,0,0,0,0,0,0,0,3,4,135,space,9.648324399999979,None,1,1,0.6804220000001351,None,space,5.555095800000004,None,0,0,0,1,,,,,6,5,53,2,238.19950240000003,,,,,,,,,,,,,,,,,,,,,238.18427040000006,238.19950240000003,238.6833034000001,238.6881080999999,238.7079685000001,239.40023070000007,,,,,239.40049139999996,239.41513880000002,239.61553479999998,239.5995679,238.7079685000001,,,,,,,,1,1,0.6804220000001351,None,,,,,,,,861,26,V,R,2026-02-18_11h11.13.951,VisualSearch_2526_3,,2025.2.4,2026-02-18 11h11.14.713855 +0100,
vertical.xlsx,The target is tilted.,135,54,6,6,0,1,1,1,0,0,0,0,0,0,0,0,1,3,4,135,space,9.648324399999979,None,0,1,1.06376350000005,None,space,5.555095800000004,None,0,0,0,1,,,,,6,6,54,6,239.61553479999998,,,,,,,,,,,,,,,,,,,,,239.6004066999999,239.61553479999998,240.0993430000001,240.10396029999993,240.11499030000004,241.1823938,,,,,241.1825999,241.19768539999995,241.39809910000008,241.3820905,240.11499030000004,,,,,,,,0,1,1.06376350000005,None,,,,,,,,861,26,V,R,2026-02-18_11h11.13.951,VisualSearch_2526_3,,2025.2.4,2026-02-18 11h11.14.713855 +0100,
vertical.xlsx,The target is tilted.,135,55,7,6,0,1,1,1,1,1,1,1,1,1,1,1,1,11,12,135,space,9.648324399999979,None,0,1,1.7765810999999303,None,space,5.555095800000004,None,0,0,0,1,,,,,6,7,55,4,241.39809910000008,,,,,,,,,,,,,,,,,,,,,241.38280020000002,241.39809910000008,241.88180119999993,241.88655070000004,241.9069844999999,243.69756890000008,,,,,243.6977844999999,243.71322310000005,243.91382720000001,243.89751019999994,241.9069844999999,,,,,,,,0,1,1.7765810999999303,None,,,,,,,,861,26,V,R,2026-02-18_11h11.13.951,VisualSearch_2526_3,,2025.2.4,2026-02-18 11h11.14.713855 +0100,
vertical.xlsx,The target is tilted.,135,56,0,7,1,1,1,1,1,1,1,1,1,1,1,1,0,11,12,135,space,9.648324399999979,None,1,1,0.8697059000000991,None,space,5.555095800000004,None,0,0,0,1,,,,,7,0,56,0,243.91382720000001,,,,,,,,,,,,,,,,,,,,,243.89828039999998,243.91382720000001,244.3970870999999,244.40183879999995,244.4212844000001,245.29746709999995,,,,,245.29766689999997,245.31250909999994,245.5130196,245.4967391,244.4212844000001,,,,,,,,1,1,0.8697059000000991,None,,,,,,,,861,26,V,R,2026-02-18_11h11.13.951,VisualSearch_2526_3,,2025.2.4,2026-02-18 11h11.14.713855 +0100,
vertical.xlsx,The target is tilted.,135,57,1,7,0,1,1,1,1,1,1,1,0,0,0,0,1,7,8,135,space,9.648324399999979,None,0,1,1.6750660000000153,None,space,5.555095800000004,None,0,0,0,1,,,,,7,1,57,5,245.5130196,,,,,,,,,,,,,,,,,,,,,245.49746030000006,245.5130196,245.99677659999998,246.0019557999999,246.02106490000006,247.71227799999997,,,,,247.71247459999995,247.72799540000005,247.9285605,247.91236260000005,246.02106490000006,,,,,,,,0,1,1.6750660000000153,None,,,,,,,,861,26,V,R,2026-02-18_11h11.13.951,VisualSearch_2526_3,,2025.2.4,2026-02-18 11h11.14.713855 +0100,
vertical.xlsx,The target is tilted.,135,58,2,7,0,1,1,1,0,0,0,0,0,0,0,0,1,3,4,135,space,9.648324399999979,None,0,1,0.9869648999999754,None,space,5.555095800000004,None,0,0,0,1,,,,,7,2,58,6,247.9285605,,,,,,,,,,,,,,,,,,,,,247.91312349999998,247.9285605,248.4122222000001,248.4170876999999,248.4363191,249.42893350000008,,,,,249.4291399000001,249.4437557000001,249.64451639999993,249.62828910000007,248.4363191,,,,,,,,0,1,0.9869648999999754,None,,,,,,,,861,26,V,R,2026-02-18_11h11.13.951,VisualSearch_2526_3,,2025.2.4,2026-02-18 11h11.14.713855 +0100,
vertical.xlsx,The target is tilted.,135,59,3,7,1,0,0,0,0,0,0,0,0,0,0,0,0,0,1,135,space,9.648324399999979,None,1,1,0.8239596000000802,None,space,5.555095800000004,None,0,0,0,1,,,,,7,3,59,3,249.64451639999993,,,,,,,,,,,,,,,,,,,,,249.6290202,249.64451639999993,250.1279922000001,250.13287620000006,250.1465409,250.978294,,,,,250.9784913000001,250.99323449999997,251.19367340000008,251.17718420000006,250.1465409,,,,,,,,1,1,0.8239596000000802,None,,,,,,,,861,26,V,R,2026-02-18_11h11.13.951,VisualSearch_2526_3,,2025.2.4,2026-02-18 11h11.14.713855 +0100,
vertical.xlsx,The target is tilted.,135,60,4,7,0,0,0,0,0,0,0,0,0,0,0,0,1,1,1,135,space,9.648324399999979,None,0,1,0.5871618999999555,None,space,5.555095800000004,None,0,0,0,1,,,,,7,4,60,7,251.19367340000008,,,,,,,,,,,,,,,,,,,,,251.17798199999993,251.19367340000008,251.67737050000005,251.68219440000007,251.6957781000001,252.29438890000006,,,,,252.29463639999994,252.30935920000002,252.5098041000001,252.49373820000005,251.6957781000001,,,,,,,,0,1,0.5871618999999555,None,,,,,,,,861,26,V,R,2026-02-18_11h11.13.951,VisualSearch_2526_3,,2025.2.4,2026-02-18 11h11.14.713855 +0100,
vertical.xlsx,The target is tilted.,135,61,5,7,1,1,1,1,0,0,0,0,0,0,0,0,0,3,4,135,space,9.648324399999979,None,1,1,1.3626096999998936,None,space,5.555095800000004,None,0,0,0,1,,,,,7,5,61,2,252.5098041000001,,,,,,,,,,,,,,,,,,,,,252.4945434000001,252.5098041000001,252.9931085999999,252.99788850000004,253.0169982,254.3921894,,,,,254.39231100000006,254.4086792999999,254.60873319999996,254.59220030000006,253.0169982,,,,,,,,1,1,1.3626096999998936,None,,,,,,,,861,26,V,R,2026-02-18_11h11.13.951,VisualSearch_2526_3,,2025.2.4,2026-02-18 11h11.14.713855 +0100,
vertical.xlsx,The target is tilted.,135,62,6,7,1,1,1,1,1,1,1,1,0,0,0,0,0,7,8,135,space,9.648324399999979,None,1,1,0.9199982000000091,None,space,5.555095800000004,None,0,0,0,1,,,,,7,6,62,1,254.60873319999996,,,,,,,,,,,,,,,,,,,,,254.5929489,254.60873319999996,255.0924139000001,255.0977352,255.11737510000012,256.04251769999996,,,,,256.0427159999999,256.0576570999999,256.2573388999999,256.24202319999995,255.11737510000012,,,,,,,,1,1,0.9199982000000091,None,,,,,,,,861,26,V,R,2026-02-18_11h11.13.951,VisualSearch_2526_3,,2025.2.4,2026-02-18 11h11.14.713855 +0100,
vertical.xlsx,The target is tilted.,135,63,7,7,0,1,1,1,1,1,1,1,1,1,1,1,1,11,12,135,space,9.648324399999979,None,0,1,4.816533599999957,None,space,5.555095800000004,None,0,0,0,1,,,,,7,7,63,4,256.2573388999999,,,,,,,,,,,,,,,,,,,,,256.24278290000007,256.2573388999999,256.7409582,256.7438167,256.75765550000006,261.58957480000004,,,,,261.5897703999999,261.6049763000001,261.80539180000005,261.7892964,256.75765550000006,,,,,,,,0,1,4.816533599999957,None,,,,,,,,861,26,V,R,2026-02-18_11h11.13.951,VisualSearch_2526_3,,2025.2.4,2026-02-18 11h11.14.713855 +0100,
vertical.xlsx,The target is tilted.,135,64,0,8,1,1,1,1,1,1,1,1,1,1,1,1,0,11,12,135,space,9.648324399999979,None,1,1,1.2069401000001108,None,space,5.555095800000004,None,0,0,0,1,,,,,8,0,64,0,261.80539180000005,,,,,,,,,,,,,,,,,,,,,261.7900563999999,261.80539180000005,262.2890024999999,262.2938196,262.31294890000004,263.5226739,,,,,263.5228844999999,263.5375366999999,263.73805919999995,263.72190739999996,262.31294890000004,,,,,,,,1,1,1.2069401000001108,None,,,,,,,,861,26,V,R,2026-02-18_11h11.13.951,VisualSearch_2526_3,,2025.2.4,2026-02-18 11h11.14.713855 +0100,
vertical.xlsx,The target is tilted.,135,65,1,8,1,1,1,1,1,1,1,1,0,0,0,0,0,7,8,135,space,9.648324399999979,None,1,1,1.622844700000087,None,space,5.555095800000004,None,0,0,0,1,,,,,8,1,65,1,263.73805919999995,,,,,,,,,,,,,,,,,,,,,263.72269099999994,263.73805919999995,264.22138599999994,264.2255012999999,264.24398870000005,265.8711395,,,,,265.8713709000001,265.88632329999996,266.0869763999999,266.07051950000005,264.24398870000005,,,,,,,,1,1,1.622844700000087,None,,,,,,,,861,26,V,R,2026-02-18_11h11.13.951,VisualSearch_2526_3,,2025.2.4,2026-02-18 11h11.14.713855 +0100,
vertical.xlsx,The target is tilted.,135,66,2,8,0,0,0,0,0,0,0,0,0,0,0,0,1,1,1,135,space,9.648324399999979,None,0,1,0.6089821999999003,None,space,5.555095800000004,None,0,0,0,1,,,,,8,2,66,7,266.0869763999999,,,,,,,,,,,,,,,,,,,,,266.07124640000006,266.0869763999999,266.57061440000007,266.5754541000001,266.5908038,267.2039271000001,,,,,267.2041291999999,267.2190562999999,267.4195291000001,267.40329070000007,266.5908038,,,,,,,,0,1,0.6089821999999003,None,,,,,,,,861,26,V,R,2026-02-18_11h11.13.951,VisualSearch_2526_3,,2025.2.4,2026-02-18 11h11.14.713855 +0100,
vertical.xlsx,The target is tilted.,135,67,3,8,0,1,1,1,0,0,0,0,0,0,0,0,1,3,4,135,space,9.648324399999979,None,0,1,1.294942199999923,None,space,5.555095800000004,None,0,0,0,1,,,,,8,3,67,6,267.4195291000001,,,,,,,,,,,,,,,,,,,,,267.40437440000005,267.4195291000001,267.9033905000001,267.90812529999994,267.9229544,269.21899039999994,,,,,269.2191103,269.23487520000003,269.4347828,269.4185729000001,267.9229544,,,,,,,,0,1,1.294942199999923,None,,,,,,,,861,26,V,R,2026-02-18_11h11.13.951,VisualSearch_2526_3,,2025.2.4,2026-02-18 11h11.14.713855 +0100,
vertical.xlsx,The target is tilted.,135,68,4,8,0,1,1,1,1,1,1,1,1,1,1,1,1,11,12,135,space,9.648324399999979,None,0,1,2.662982399999919,None,space,5.555095800000004,None,0,0,0,1,,,,,8,4,68,4,269.4347828,,,,,,,,,,,,,,,,,,,,,269.41894950000005,269.4347828,269.9190490000001,269.9246498,269.9450836000001,272.61804299999994,,,,,272.6182388,272.6335011000001,272.83379650000006,272.8177713,269.9450836000001,,,,,,,,0,1,2.662982399999919,None,,,,,,,,861,26,V,R,2026-02-18_11h11.13.951,VisualSearch_2526_3,,2025.2.4,2026-02-18 11h11.14.713855 +0100,
vertical.xlsx,The target is tilted.,135,69,5,8,0,1,1,1,1,1,1,1,0,0,0,0,1,7,8,135,space,9.648324399999979,None,0,1,1.9274078999999347,None,space,5.555095800000004,None,0,0,0,1,,,,,8,5,69,5,272.83379650000006,,,,,,,,,,,,,,,,,,,,,272.8185389,272.83379650000006,273.3170921000001,273.3198933000001,273.33344740000007,275.2668473000001,,,,,275.2670416000001,275.28209990000005,275.4829709999999,275.46647929999995,273.33344740000007,,,,,,,,0,1,1.9274078999999347,None,,,,,,,,861,26,V,R,2026-02-18_11h11.13.951,VisualSearch_2526_3,,2025.2.4,2026-02-18 11h11.14.713855 +0100,
vertical.xlsx,The target is tilted.,135,70,6,8,1,1,1,1,0,0,0,0,0,0,0,0,0,3,4,135,space,9.648324399999979,None,1,1,0.6214987000000747,None,space,5.555095800000004,None,0,0,0,1,,,,,8,6,70,2,275.4829709999999,,,,,,,,,,,,,,,,,,,,,275.46724169999993,275.4829709999999,275.9657837,275.96859229999995,275.9823108999999,276.6159037,,,,,276.6161095,276.63162910000005,276.8321175000001,276.8156249000001,275.9823108999999,,,,,,,,1,1,0.6214987000000747,None,,,,,,,,861,26,V,R,2026-02-18_11h11.13.951,VisualSearch_2526_3,,2025.2.4,2026-02-18 11h11.14.713855 +0100,
vertical.xlsx,The target is tilted.,135,71,7,8,1,0,0,0,0,0,0,0,0,0,0,0,0,0,1,135,space,9.648324399999979,None,1,1,0.4911529999999402,None,space,5.555095800000004,None,0,0,0,1,,,,,8,7,71,3,276.8321175000001,,,,,,,,,,,,,,,,,,,,,276.8163508,276.8321175000001,277.3155747999999,277.3211312000001,277.3404988,277.84876299999996,,,,,277.8489918,277.8643732999999,278.0648903000001,278.04866059999995,277.3404988,,,,,,,,1,1,0.4911529999999402,None,,,,,,,,861,26,V,R,2026-02-18_11h11.13.951,VisualSearch_2526_3,,2025.2.4,2026-02-18 11h11.14.713855 +0100,
vertical.xlsx,The target is tilted.,135,72,0,9,0,0,0,0,0,0,0,0,0,0,0,0,1,1,1,135,space,9.648324399999979,None,0,1,0.5336632999999438,None,space,5.555095800000004,None,0,0,0,1,,,,,9,0,72,7,278.0648903000001,,,,,,,,,,,,,,,,,,,,,278.0494199,278.0648903000001,278.5485736999999,278.5539475999999,278.57308209999997,279.1156065,,,,,279.1158098000001,279.1305427,279.33093759999997,279.3149611000001,278.57308209999997,,,,,,,,0,1,0.5336632999999438,None,,,,,,,,861,26,V,R,2026-02-18_11h11.13.951,VisualSearch_2526_3,,2025.2.4,2026-02-18 11h11.14.713855 +0100,
vertical.xlsx,The target is tilted.,135,73,1,9,1,1,1,1,0,0,0,0,0,0,0,0,0,3,4,135,space,9.648324399999979,None,1,1,0.5707219999999325,None,space,5.555095800000004,None,0,0,0,1,,,,,9,1,73,2,279.33093759999997,,,,,,,,,,,,,,,,,,,,,279.3157622000001,279.33093759999997,279.8146148999999,279.8192507000001,279.8381672999999,280.4148593,,,,,280.4150546999999,280.4299117999999,280.63037770000005,280.6139447999999,279.8381672999999,,,,,,,,1,1,0.5707219999999325,None,,,,,,,,861,26,V,R,2026-02-18_11h11.13.951,VisualSearch_2526_3,,2025.2.4,2026-02-18 11h11.14.713855 +0100,
vertical.xlsx,The target is tilted.,135,74,2,9,1,1,1,1,1,1,1,1,0,0,0,0,0,7,8,135,space,9.648324399999979,None,1,1,1.2080164000001332,None,space,5.555095800000004,None,0,0,0,1,,,,,9,2,74,1,280.63037770000005,,,,,,,,,,,,,,,,,,,,,280.6146742000001,280.63037770000005,281.1140130000001,281.1197050999999,281.138107,282.3628512,,,,,282.3629724,282.37932150000006,282.5792584999999,282.5629699000001,281.138107,,,,,,,,1,1,1.2080164000001332,None,,,,,,,,861,26,V,R,2026-02-18_11h11.13.951,VisualSearch_2526_3,,2025.2.4,2026-02-18 11h11.14.713855 +0100,
vertical.xlsx,The target is tilted.,135,75,3,9,0,1,1,1,1,1,1,1,1,1,1,1,1,11,12,135,space,9.648324399999979,None,0,1,5.18777,None,space,5.555095800000004,None,0,0,0,1,,,,,9,3,75,4,282.5792584999999,,,,,,,,,,,,,,,,,,,,,282.5637798,282.5792584999999,283.0631584,283.06790980000005,283.08656070000006,288.2777100999999,,,,,288.2779043999999,288.2930584999999,288.4934472,288.4770605000001,283.08656070000006,,,,,,,,0,1,5.18777,None,,,,,,,,861,26,V,R,2026-02-18_11h11.13.951,VisualSearch_2526_3,,2025.2.4,2026-02-18 11h11.14.713855 +0100,
vertical.xlsx,The target is tilted.,135,76,4,9,1,1,1,1,1,1,1,1,1,1,1,1,0,11,12,135,space,9.648324399999979,None,1,1,1.0086045999998987,None,space,5.555095800000004,None,0,0,0,1,,,,,9,4,76,0,288.4934472,,,,,,,,,,,,,,,,,,,,,288.4777825000001,288.4934472,288.9770066000001,288.9816426,289.0002583999999,290.0263170999999,,,,,290.02646490000006,290.0426001999999,290.24260879999997,290.2264944000001,289.0002583999999,,,,,,,,1,1,1.0086045999998987,None,,,,,,,,861,26,V,R,2026-02-18_11h11.13.951,VisualSearch_2526_3,,2025.2.4,2026-02-18 11h11.14.713855 +0100,
vertical.xlsx,The target is tilted.,135,77,5,9,0,1,1,1,1,1,1,1,0,0,0,0,1,7,8,135,space,9.648324399999979,None,0,1,1.771445999999969,None,space,5.555095800000004,None,0,0,0,1,,,,,9,5,77,5,290.24260879999997,,,,,,,,,,,,,,,,,,,,,290.2272605999999,290.24260879999997,290.7261949000001,290.7309158999999,290.7500761000001,292.5258031000001,,,,,292.5259992000001,292.54112940000005,292.7412532000001,292.7253604,290.7500761000001,,,,,,,,0,1,1.771445999999969,None,,,,,,,,861,26,V,R,2026-02-18_11h11.13.951,VisualSearch_2526_3,,2025.2.4,2026-02-18 11h11.14.713855 +0100,
vertical.xlsx,The target is tilted.,135,78,6,9,1,0,0,0,0,0,0,0,0,0,0,0,0,0,1,135,space,9.648324399999979,None,1,1,0.5701748999999836,None,space,5.555095800000004,None,0,0,0,1,,,,,9,6,78,3,292.7412532000001,,,,,,,,,,,,,,,,,,,,,292.7261231,292.7412532000001,293.2253217,293.2301181,293.2491437000001,293.8254936000001,,,,,293.8256864,293.8405061000001,294.0408318,294.0244459999999,293.2491437000001,,,,,,,,1,1,0.5701748999999836,None,,,,,,,,861,26,V,R,2026-02-18_11h11.13.951,VisualSearch_2526_3,,2025.2.4,2026-02-18 11h11.14.713855 +0100,
vertical.xlsx,The target is tilted.,135,79,7,9,0,1,1,1,0,0,0,0,0,0,0,0,1,3,4,135,space,9.648324399999979,None,0,1,1.292684300000019,None,space,5.555095800000004,None,0,0,0,1,,,,,9,7,79,6,294.0408318,,,,,,,,,,,,,,,,,,,,,294.02487999999994,294.0408318,294.5244175,294.52918410000007,294.5402426999999,295.8412390000001,,,,,295.84144689999994,295.8562787000001,296.0566649,296.0406241999999,294.5402426999999,,,,,,,,0,1,1.292684300000019,None,,,,,,,,861,26,V,R,2026-02-18_11h11.13.951,VisualSearch_2526_3,,2025.2.4,2026-02-18 11h11.14.713855 +0100,
vertical.xlsx,The target is tilted.,135,80,0,10,1,1,1,1,1,1,1,1,0,0,0,0,0,7,8,135,space,9.648324399999979,None,1,1,1.238836499999934,None,space,5.555095800000004,None,0,0,0,1,,,,,10,0,80,1,296.0566649,,,,,,,,,,,,,,,,,,,,,296.0413481999999,296.0566649,296.5402944,296.54500929999995,296.5640138000001,297.80670839999993,,,,,297.8069026999999,297.8219789,298.0225048,298.0062740999999,296.5640138000001,,,,,,,,1,1,1.238836499999934,None,,,,,,,,861,26,V,R,2026-02-18_11h11.13.951,VisualSearch_2526_3,,2025.2.4,2026-02-18 11h11.14.713855 +0100,
vertical.xlsx,The target is tilted.,135,81,1,10,0,1,1,1,1,1,1,1,0,0,0,0,1,7,8,135,space,9.648324399999979,None,0,1,1.2801617000000078,None,space,5.555095800000004,None,0,0,0,1,,,,,10,1,81,5,298.0225048,,,,,,,,,,,,,,,,,,,,,298.0070985,298.0225048,298.50587659999997,298.5105318000001,298.5297112999999,299.82159419999994,,,,,299.8217138,299.83806720000007,,300.0218529000001,298.5297112999999,,,,,,,,0,1,1.2801617000000078,None,,,,,,,,861,26,V,R,2026-02-18_11h11.13.951,VisualSearch_2526_3,,2025.2.4,2026-02-18 11h11.14.713855 +0100,
vertical.xlsx,The target is tilted.,135,82,2,10,1,1,1,1,1,1,1,1,1,1,1,1,0,11,12,135,space,9.648324399999979,None,1,1,1.1367098000000624,None,space,5.555095800000004,None,0,0,0,1,,,,,10,2,82,0,300.0381929,,,,,,,,,,,,,,,,,,,,,300.0226376999999,300.0381929,300.5219081,300.5273241,300.5462749999999,301.6882158000001,,,,,301.6884081999999,301.7037047000001,301.90414450000003,301.887872,,,,,,,,,1,1,1.1367098000000624,None,,,,,,,,861,26,V,R,2026-02-18_11h11.13.951,VisualSearch_2526_3,,2025.2.4,2026-02-18 11h11.14.713855 +0100,
vertical.xlsx,The target is tilted.,135,83,3,10,1,1,1,1,0,0,0,0,0,0,0,0,0,3,4,135,space,9.648324399999979,None,0,0,0.6568285999999262,None,space,5.555095800000004,None,0,0,0,1,,,,,10,3,83,2,301.90414450000003,,,,,,,,,,,,,,,,,,,,,301.88863160000005,301.90414450000003,302.3876594999999,302.3924273,302.4118217,303.0707858999999,,,,,303.0709787999999,303.0866473000001,303.2867695,303.27025419999995,302.4118217,,,,,,,,0,0,0.6568285999999262,None,,,,,,,,861,26,V,R,2026-02-18_11h11.13.951,VisualSearch_2526_3,,2025.2.4,2026-02-18 11h11.14.713855 +0100,
vertical.xlsx,The target is tilted.,135,84,4,10,0,1,1,1,1,1,1,1,1,1,1,1,1,11,12,135,space,9.648324399999979,None,0,1,2.538891299999932,None,space,5.555095800000004,None,0,0,0,1,,,,,10,4,84,4,303.2867695,,,,,,,,,,,,,,,,,,,,,303.2710151000001,303.2867695,303.7706472,303.7756749,303.79470059999994,306.3362360000001,,,,,306.33644559999993,306.35192699999993,306.5518866,306.5354976000001,303.79470059999994,,,,,,,,0,1,2.538891299999932,None,,,,,,,,861,26,V,R,2026-02-18_11h11.13.951,VisualSearch_2526_3,,2025.2.4,2026-02-18 11h11.14.713855 +0100,
vertical.xlsx,The target is tilted.,135,85,5,10,0,1,1,1,0,0,0,0,0,0,0,0,1,3,4,135,space,9.648324399999979,None,0,1,0.7842514999999821,None,space,5.555095800000004,None,0,0,0,1,,,,,10,5,85,6,306.5518866,,,,,,,,,,,,,,,,,,,,,306.53622229999996,306.5518866,307.0353497000001,307.0401136999999,307.0588992999999,307.8520363,,,,,307.8522303,307.86780180000005,308.06755010000006,308.0518405,307.0588992999999,,,,,,,,0,1,0.7842514999999821,None,,,,,,,,861,26,V,R,2026-02-18_11h11.13.951,VisualSearch_2526_3,,2025.2.4,2026-02-18 11h11.14.713855 +0100,
vertical.xlsx,The target is tilted.,135,86,6,10,1,0,0,0,0,0,0,0,0,0,0,0,0,0,1,135,space,9.648324399999979,None,1,1,0.6283143000000564,None,space,5.555095800000004,None,0,0,0,1,,,,,10,6,86,3,308.06755010000006,,,,,,,,,,,,,,,,,,,,,308.0525798000001,308.06755010000006,308.5516290999999,308.55638309999995,308.5753348999999,309.2184853000001,,,,,309.2186798,309.2339311999999,309.4340727000001,309.4176987000001,308.5753348999999,,,,,,,,1,1,0.6283143000000564,None,,,,,,,,861,26,V,R,2026-02-18_11h11.13.951,VisualSearch_2526_3,,2025.2.4,2026-02-18 11h11.14.713855 +0100,
vertical.xlsx,The target is tilted.,135,87,7,10,0,0,0,0,0,0,0,0,0,0,0,0,1,1,1,135,space,9.648324399999979,None,0,1,0.4937377999999626,None,space,5.555095800000004,None,0,0,0,1,,,,,10,7,87,7,309.4340727000001,,,,,,,,,,,,,,,,,,,,,309.4184436999999,309.4340727000001,309.9175508999999,309.92247670000006,309.9415481000001,310.45142740000006,,,,,310.4516347000001,310.46639849999997,310.66660490000004,310.65027409999993,309.9415481000001,,,,,,,,0,1,0.4937377999999626,None,,,,,,,,861,26,V,R,2026-02-18_11h11.13.951,VisualSearch_2526_3,,2025.2.4,2026-02-18 11h11.14.713855 +0100,
vertical.xlsx,The target is tilted.,135,88,0,11,0,1,1,1,1,1,1,1,0,0,0,0,1,7,8,135,space,9.648324399999979,None,0,1,1.692725499999824,None,space,5.555095800000004,None,0,0,0,1,,,,,11,0,88,5,310.66660490000004,,,,,,,,,,,,,,,,,,,,,310.65101649999997,310.66660490000004,311.1504225000001,311.1551191000001,311.1738901000001,312.8838098000001,,,,,312.8840138999999,312.8990215000001,313.09899500000006,313.0823694999999,311.1738901000001,,,,,,,,0,1,1.692725499999824,None,,,,,,,,861,26,V,R,2026-02-18_11h11.13.951,VisualSearch_2526_3,,2025.2.4,2026-02-18 11h11.14.713855 +0100,
vertical.xlsx,The target is tilted.,135,89,1,11,0,0,0,0,0,0,0,0,0,0,0,0,1,1,1,135,space,9.648324399999979,None,0,1,0.5380689999999504,None,space,5.555095800000004,None,0,0,0,1,,,,,11,1,89,7,313.09899500000006,,,,,,,,,,,,,,,,,,,,,313.0829142,313.09899500000006,313.5822564,313.5869729000001,313.6037905999999,314.1492146999999,,,,,314.1494078999999,314.1647918000001,314.36479080000004,314.3489079000001,313.6037905999999,,,,,,,,0,1,0.5380689999999504,None,,,,,,,,861,26,V,R,2026-02-18_11h11.13.951,VisualSearch_2526_3,,2025.2.4,2026-02-18 11h11.14.713855 +0100,
vertical.xlsx,The target is tilted.,135,90,2,11,0,1,1,1,1,1,1,1,1,1,1,1,1,11,12,135,space,9.648324399999979,None,0,1,2.9614721000000372,None,space,5.555095800000004,None,0,0,0,1,,,,,11,2,90,4,314.36479080000004,,,,,,,,,,,,,,,,,,,,,314.34966770000005,314.36479080000004,314.8483908999999,314.85235639999996,314.87075260000006,317.84794469999997,,,,,317.8481388,317.86343250000004,318.0633375,318.0467845999999,314.87075260000006,,,,,,,,0,1,2.9614721000000372,None,,,,,,,,861,26,V,R,2026-02-18_11h11.13.951,VisualSearch_2526_3,,2025.2.4,2026-02-18 11h11.14.713855 +0100,
vertical.xlsx,The target is tilted.,135,91,3,11,1,1,1,1,1,1,1,1,0,0,0,0,0,7,8,135,space,9.648324399999979,None,1,1,1.057247800000141,None,space,5.555095800000004,None,0,0,0,1,,,,,11,3,91,1,318.0633375,,,,,,,,,,,,,,,,,,,,,318.0475377,318.0633375,318.5469336000001,318.5515329,318.5625428999999,319.6300133,,,,,319.6302085,319.6459361,319.8458361999999,319.82981960000006,318.5625428999999,,,,,,,,1,1,1.057247800000141,None,,,,,,,,861,26,V,R,2026-02-18_11h11.13.951,VisualSearch_2526_3,,2025.2.4,2026-02-18 11h11.14.713855 +0100,
vertical.xlsx,The target is tilted.,135,92,4,11,1,1,1,1,1,1,1,1,1,1,1,1,0,11,12,135,space,9.648324399999979,None,1,1,2.6140282999999727,None,space,5.555095800000004,None,0,0,0,1,,,,,11,4,92,0,319.8458361999999,,,,,,,,,,,,,,,,,,,,,319.8305433999999,319.8458361999999,320.3295977,320.33429219999994,320.35333620000006,322.97889269999996,,,,,322.97908570000004,322.9941752,323.1941729,323.1784310999999,320.35333620000006,,,,,,,,1,1,2.6140282999999727,None,,,,,,,,861,26,V,R,2026-02-18_11h11.13.951,VisualSearch_2526_3,,2025.2.4,2026-02-18 11h11.14.713855 +0100,
vertical.xlsx,The target is tilted.,135,93,5,11,1,0,0,0,0,0,0,0,0,0,0,0,0,0,1,135,space,9.648324399999979,None,1,1,0.4722282999998697,None,space,5.555095800000004,None,0,0,0,1,,,,,11,5,93,3,323.1941729,,,,,,,,,,,,,,,,,,,,,323.1792373999999,323.1941729,323.6784075999999,323.6837350999999,323.70091780000007,324.17828239999994,,,,,324.17848950000007,324.193659,324.393861,324.37788090000004,323.70091780000007,,,,,,,,1,1,0.4722282999998697,None,,,,,,,,861,26,V,R,2026-02-18_11h11.13.951,VisualSearch_2526_3,,2025.2.4,2026-02-18 11h11.14.713855 +0100,
vertical.xlsx,The target is tilted.,135,94,6,11,0,1,1,1,0,0,0,0,0,0,0,0,1,3,4,135,space,9.648324399999979,None,0,1,1.1706226999999672,None,space,5.555095800000004,None,0,0,0,1,,,,,11,6,94,6,324.393861,,,,,,,,,,,,,,,,,,,,,324.3786772000001,324.393861,324.87742490000005,324.88212909999993,324.90077470000006,326.07695420000005,,,,,326.07709120000004,326.0929291,326.2929921,326.2767965999999,324.90077470000006,,,,,,,,0,1,1.1706226999999672,None,,,,,,,,861,26,V,R,2026-02-18_11h11.13.951,VisualSearch_2526_3,,2025.2.4,2026-02-18 11h11.14.713855 +0100,
vertical.xlsx,The target is tilted.,135,95,7,11,1,1,1,1,0,0,0,0,0,0,0,0,0,3,4,135,space,9.648324399999979,None,1,1,0.5285910000000058,None,space,5.555095800000004,None,0,0,0,1,,,,,11,7,95,2,326.2929921,,,,,,,,,,,,,,,,,,,,,326.27755060000004,326.2929921,326.77655989999994,326.7812715,326.80035840000005,327.3436018,,,,,327.3437964,327.3591361000001,327.5586925,327.54290749999996,326.80035840000005,,,,,,,,1,1,0.5285910000000058,None,,,,,,,,861,26,V,R,2026-02-18_11h11.13.951,VisualSearch_2526_3,,2025.2.4,2026-02-18 11h11.14.713855 +0100,
vertical.xlsx,The target is tilted.,135,96,0,12,1,1,1,1,0,0,0,0,0,0,0,0,0,3,4,135,space,9.648324399999979,None,1,1,1.5102143999999953,None,space,5.555095800000004,None,0,0,0,1,,,,,12,0,96,2,327.5586925,,,,,,,,,,,,,,,,,,,,,327.5436826,327.5586925,328.04281059999994,328.04746090000003,328.06752959999994,329.59275090000006,,,,,329.5929543,329.6077986,329.8079823999999,329.79157710000004,328.06752959999994,,,,,,,,1,1,1.5102143999999953,None,,,,,,,,861,26,V,R,2026-02-18_11h11.13.951,VisualSearch_2526_3,,2025.2.4,2026-02-18 11h11.14.713855 +0100,
vertical.xlsx,The target is tilted.,135,97,1,12,0,1,1,1,0,0,0,0,0,0,0,0,1,3,4,135,space,9.648324399999979,None,0,1,1.2819079999999303,None,space,5.555095800000004,None,0,0,0,1,,,,,12,1,97,6,329.8079823999999,,,,,,,,,,,,,,,,,,,,,329.7920085999999,329.8079823999999,330.2913375999999,330.29598039999996,330.3150155999999,331.6083619000001,,,,,331.6085561,331.62349889999996,331.8238398000001,331.80763460000003,330.3150155999999,,,,,,,,0,1,1.2819079999999303,None,,,,,,,,861,26,V,R,2026-02-18_11h11.13.951,VisualSearch_2526_3,,2025.2.4,2026-02-18 11h11.14.713855 +0100,
vertical.xlsx,The target is tilted.,135,98,2,12,1,1,1,1,1,1,1,1,1,1,1,1,0,11,12,135,space,9.648324399999979,None,1,1,0.736169400000108,None,space,5.555095800000004,None,0,0,0,1,,,,,12,2,98,0,331.8238398000001,,,,,,,,,,,,,,,,,,,,,331.8084063000001,331.8238398000001,332.3073881,332.31274039999994,332.3316027999999,333.07433549999996,,,,,333.0745294000001,333.0899365,333.2897908,333.2735745,332.3316027999999,,,,,,,,1,1,0.736169400000108,None,,,,,,,,861,26,V,R,2026-02-18_11h11.13.951,VisualSearch_2526_3,,2025.2.4,2026-02-18 11h11.14.713855 +0100,
vertical.xlsx,The target is tilted.,135,99,3,12,0,1,1,1,1,1,1,1,0,0,0,0,1,7,8,135,space,9.648324399999979,None,0,1,1.187232700000095,None,space,5.555095800000004,None,0,0,0,1,,,,,12,3,99,5,333.2897908,,,,,,,,,,,,,,,,,,,,,333.2743217,333.2897908,333.7734117,333.7782176999999,333.79695130000005,334.9901683999999,,,,,334.99035950000007,335.0055737,335.20548269999995,335.18953439999996,333.79695130000005,,,,,,,,0,1,1.187232700000095,None,,,,,,,,861,26,V,R,2026-02-18_11h11.13.951,VisualSearch_2526_3,,2025.2.4,2026-02-18 11h11.14.713855 +0100,
vertical.xlsx,The target is tilted.,135,100,4,12,1,0,0,0,0,0,0,0,0,0,0,0,0,0,1,135,space,9.648324399999979,None,1,1,0.4436392000000069,None,space,5.555095800000004,None,0,0,0,1,,,,,12,4,100,3,335.20548269999995,,,,,,,,,,,,,,,,,,,,,335.190257,335.20548269999995,335.6887669,335.6915044,335.7051818,336.1559304,,,,,336.1561243000001,336.1718648000001,336.3717567000001,336.3553388,335.7051818,,,,,,,,1,1,0.4436392000000069,None,,,,,,,,861,26,V,R,2026-02-18_11h11.13.951,VisualSearch_2526_3,,2025.2.4,2026-02-18 11h11.14.713855 +0100,
vertical.xlsx,The target is tilted.,135,101,5,12,1,1,1,1,1,1,1,1,0,0,0,0,0,7,8,135,space,9.648324399999979,None,1,1,2.1655288000001747,None,space,5.555095800000004,None,0,0,0,1,,,,,12,5,101,1,336.3717567000001,,,,,,,,,,,,,,,,,,,,,336.35606959999996,336.3717567000001,336.85483380000005,336.8576694000001,336.8720456000001,339.0549917999999,,,,,339.0551872000001,339.07033509999997,339.2700342999999,339.2543092000001,336.8720456000001,,,,,,,,1,1,2.1655288000001747,None,,,,,,,,861,26,V,R,2026-02-18_11h11.13.951,VisualSearch_2526_3,,2025.2.4,2026-02-18 11h11.14.713855 +0100,
vertical.xlsx,The target is tilted.,135,102,6,12,0,0,0,0,0,0,0,0,0,0,0,0,1,1,1,135,space,9.648324399999979,None,0,1,0.698225599999887,None,space,5.555095800000004,None,0,0,0,1,,,,,12,6,102,7,339.2700342999999,,,,,,,,,,,,,,,,,,,,,339.2550704,339.2700342999999,339.7541318000001,339.75880770000003,339.7782428999999,340.48771469999997,,,,,340.48796390000007,340.50324019999994,340.7030170999999,340.6868938,339.7782428999999,,,,,,,,0,1,0.698225599999887,None,,,,,,,,861,26,V,R,2026-02-18_11h11.13.951,VisualSearch_2526_3,,2025.2.4,2026-02-18 11h11.14.713855 +0100,
vertical.xlsx,The target is tilted.,135,103,7,12,0,1,1,1,1,1,1,1,1,1,1,1,1,11,12,135,space,9.648324399999979,None,1,0,2.507989200000111,None,space,5.555095800000004,None,0,0,0,1,,,,,12,7,103,4,340.7030170999999,,,,,,,,,,,,,,,,,,,,,340.6876500000001,340.7030170999999,341.1869226000001,341.19145890000004,341.2028227999999,343.7195179,,,,,343.71971740000004,343.734688,343.9347623000001,343.9188658999999,341.2028227999999,,,,,,,,1,0,2.507989200000111,None,,,,,,,,861,26,V,R,2026-02-18_11h11.13.951,VisualSearch_2526_3,,2025.2.4,2026-02-18 11h11.14.713855 +0100,
vertical.xlsx,The target is tilted.,135,104,0,13,0,1,1,1,1,1,1,1,0,0,0,0,1,7,8,135,space,9.648324399999979,None,0,1,2.506542399999944,None,space,5.555095800000004,None,0,0,0,1,,,,,13,0,104,5,343.9347623000001,,,,,,,,,,,,,,,,,,,,,343.9195883,343.9347623000001,344.4186876000001,344.4232975,344.44158100000004,346.95206800000005,,,,,346.95227049999994,346.9667766,347.16659329999993,347.15099899999996,344.44158100000004,,,,,,,,0,1,2.506542399999944,None,,,,,,,,861,26,V,R,2026-02-18_11h11.13.951,VisualSearch_2526_3,,2025.2.4,2026-02-18 11h11.14.713855 +0100,
vertical.xlsx,The target is tilted.,135,105,1,13,0,0,0,0,0,0,0,0,0,0,0,0,1,1,1,135,space,9.648324399999979,None,0,1,0.7871585999998842,None,space,5.555095800000004,None,0,0,0,1,,,,,13,1,105,7,347.16659329999993,,,,,,,,,,,,,,,,,,,,,347.1518413000001,347.16659329999993,347.6505012,347.655342,347.6744248,348.46689620000006,,,,,348.4670323,348.4828084999999,348.6827920999999,348.6665485000001,347.6744248,,,,,,,,0,1,0.7871585999998842,None,,,,,,,,861,26,V,R,2026-02-18_11h11.13.951,VisualSearch_2526_3,,2025.2.4,2026-02-18 11h11.14.713855 +0100,
vertical.xlsx,The target is tilted.,135,106,2,13,1,1,1,1,1,1,1,1,1,1,1,1,0,11,12,135,space,9.648324399999979,None,1,1,0.9676925999999639,None,space,5.555095800000004,None,0,0,0,1,,,,,13,2,106,0,348.6827920999999,,,,,,,,,,,,,,,,,,,,,348.6673287000001,348.6827920999999,349.1664363,349.17116110000006,349.1903869,350.1664668000001,,,,,350.1666619,350.1821209,350.3821759,350.3657375,349.1903869,,,,,,,,1,1,0.9676925999999639,None,,,,,,,,861,26,V,R,2026-02-18_11h11.13.951,VisualSearch_2526_3,,2025.2.4,2026-02-18 11h11.14.713855 +0100,
vertical.xlsx,The target is tilted.,135,107,3,13,0,1,1,1,0,0,0,0,0,0,0,0,1,3,4,135,space,9.648324399999979,None,0,1,1.0943939000001137,None,space,5.555095800000004,None,0,0,0,1,,,,,13,3,107,6,350.3821759,,,,,,,,,,,,,,,,,,,,,350.3665582000001,350.3821759,350.8654024,350.87010469999996,350.8886219000001,351.9987142,,,,,351.9989175999999,352.01467589999993,352.2146696,352.1983993000001,350.8886219000001,,,,,,,,0,1,1.0943939000001137,None,,,,,,,,861,26,V,R,2026-02-18_11h11.13.951,VisualSearch_2526_3,,2025.2.4,2026-02-18 11h11.14.713855 +0100,
vertical.xlsx,The target is tilted.,135,108,4,13,1,1,1,1,1,1,1,1,0,0,0,0,0,7,8,135,space,9.648324399999979,None,1,1,1.9289936000000125,None,space,5.555095800000004,None,0,0,0,1,,,,,13,4,108,1,352.2146696,,,,,,,,,,,,,,,,,,,,,352.19915059999994,352.2146696,352.69777610000006,352.70241269999997,352.7207719999999,354.6645515,,,,,354.6647476999999,354.6800628000001,354.88005169999997,354.8638303,352.7207719999999,,,,,,,,1,1,1.9289936000000125,None,,,,,,,,861,26,V,R,2026-02-18_11h11.13.951,VisualSearch_2526_3,,2025.2.4,2026-02-18 11h11.14.713855 +0100,
vertical.xlsx,The target is tilted.,135,109,5,13,0,1,1,1,1,1,1,1,1,1,1,1,1,11,12,135,space,9.648324399999979,None,0,1,3.100020099999938,None,space,5.555095800000004,None,0,0,0,1,,,,,13,5,109,4,354.88005169999997,,,,,,,,,,,,,,,,,,,,,354.8645962999999,354.88005169999997,355.3634701000001,355.36666650000006,355.37971089999996,358.4959047,,,,,358.4961017999999,358.51174889999993,358.71158719999994,358.6954618,355.37971089999996,,,,,,,,0,1,3.100020099999938,None,,,,,,,,861,26,V,R,2026-02-18_11h11.13.951,VisualSearch_2526_3,,2025.2.4,2026-02-18 11h11.14.713855 +0100,
vertical.xlsx,The target is tilted.,135,110,6,13,1,0,0,0,0,0,0,0,0,0,0,0,0,0,1,135,space,9.648324399999979,None,1,1,0.531409000000167,None,space,5.555095800000004,None,0,0,0,1,,,,,13,6,110,3,358.71158719999994,,,,,,,,,,,,,,,,,,,,,358.6963671000001,358.71158719999994,359.195387,359.2001058000001,359.21924119999994,359.7621475000001,,,,,359.76232030000006,359.77768489999994,359.9776684000001,359.9616235000001,359.21924119999994,,,,,,,,1,1,0.531409000000167,None,,,,,,,,861,26,V,R,2026-02-18_11h11.13.951,VisualSearch_2526_3,,2025.2.4,2026-02-18 11h11.14.713855 +0100,
vertical.xlsx,The target is tilted.,135,111,7,13,1,1,1,1,0,0,0,0,0,0,0,0,0,3,4,135,space,9.648324399999979,None,1,1,0.6114527999998245,None,space,5.555095800000004,None,0,0,0,1,,,,,13,7,111,2,359.9776684000001,,,,,,,,,,,,,,,,,,,,,359.9623613000001,359.9776684000001,360.46139560000006,360.46646009999995,360.4856347,361.11109039999997,,,,,361.1112121000001,361.1270416,361.3271256999999,361.3110289000001,360.4856347,,,,,,,,1,1,0.6114527999998245,None,,,,,,,,861,26,V,R,2026-02-18_11h11.13.951,VisualSearch_2526_3,,2025.2.4,2026-02-18 11h11.14.713855 +0100,
vertical.xlsx,The target is tilted.,135,112,0,14,0,1,1,1,1,1,1,1,0,0,0,0,1,7,8,135,space,9.648324399999979,None,0,1,3.1193986000000677,None,space,5.555095800000004,None,0,0,0,1,,,,,14,0,112,5,361.3271256999999,,,,,,,,,,,,,,,,,,,,,361.31182820000004,361.3271256999999,361.8103871999999,361.81529380000006,361.83406149999996,364.9596782000001,,,,,364.9598561,364.9753768999999,365.17498550000005,365.1592244000001,361.83406149999996,,,,,,,,0,1,3.1193986000000677,None,,,,,,,,861,26,V,R,2026-02-18_11h11.13.951,VisualSearch_2526_3,,2025.2.4,2026-02-18 11h11.14.713855 +0100,
vertical.xlsx,The target is tilted.,135,113,1,14,0,1,1,1,0,0,0,0,0,0,0,0,1,3,4,135,space,9.648324399999979,None,0,1,1.0557564000000639,None,space,5.555095800000004,None,0,0,0,1,,,,,14,1,113,6,365.17498550000005,,,,,,,,,,,,,,,,,,,,,365.15994969999997,365.17498550000005,365.65905440000006,365.66381479999995,365.68295639999997,366.74204910000003,,,,,366.74224660000004,366.75786270000003,366.957909,366.9417000000001,365.68295639999997,,,,,,,,0,1,1.0557564000000639,None,,,,,,,,861,26,V,R,2026-02-18_11h11.13.951,VisualSearch_2526_3,,2025.2.4,2026-02-18 11h11.14.713855 +0100,
vertical.xlsx,The target is tilted.,135,114,2,14,0,0,0,0,0,0,0,0,0,0,0,0,1,1,1,135,space,9.648324399999979,None,0,1,0.6271272999999837,None,space,5.555095800000004,None,0,0,0,1,,,,,14,2,114,7,366.957909,,,,,,,,,,,,,,,,,,,,,366.9424736000001,366.957909,367.44160379999994,367.4469409000001,367.4660409999999,368.10741699999994,,,,,368.10753950000003,368.1237507999999,368.3238578999999,368.3077487999999,367.4660409999999,,,,,,,,0,1,0.6271272999999837,None,,,,,,,,861,26,V,R,2026-02-18_11h11.13.951,VisualSearch_2526_3,,2025.2.4,2026-02-18 11h11.14.713855 +0100,
vertical.xlsx,The target is tilted.,135,115,3,14,1,0,0,0,0,0,0,0,0,0,0,0,0,0,1,135,space,9.648324399999979,None,1,1,0.5583540000000085,None,space,5.555095800000004,None,0,0,0,1,,,,,14,3,115,3,368.3238578999999,,,,,,,,,,,,,,,,,,,,,368.30850510000005,368.3238578999999,368.80749190000006,368.8122608000001,368.8310452999999,369.3913135,,,,,369.39154540000004,369.4063648000001,369.60662950000005,369.59046149999995,368.8310452999999,,,,,,,,1,1,0.5583540000000085,None,,,,,,,,861,26,V,R,2026-02-18_11h11.13.951,VisualSearch_2526_3,,2025.2.4,2026-02-18 11h11.14.713855 +0100,
vertical.xlsx,The target is tilted.,135,116,4,14,1,1,1,1,1,1,1,1,1,1,1,1,0,11,12,135,space,9.648324399999979,None,1,1,0.6882009999999354,None,space,5.555095800000004,None,0,0,0,1,,,,,14,4,116,0,369.60662950000005,,,,,,,,,,,,,,,,,,,,,369.59123,369.60662950000005,370.0903699999999,370.0951508999999,370.11410649999993,370.8074369000001,,,,,370.80766659999995,370.82249909999996,371.02265609999995,371.0065110999999,370.11410649999993,,,,,,,,1,1,0.6882009999999354,None,,,,,,,,861,26,V,R,2026-02-18_11h11.13.951,VisualSearch_2526_3,,2025.2.4,2026-02-18 11h11.14.713855 +0100,
vertical.xlsx,The target is tilted.,135,117,5,14,1,1,1,1,0,0,0,0,0,0,0,0,0,3,4,135,space,9.648324399999979,None,1,1,0.8638925000000199,None,space,5.555095800000004,None,0,0,0,1,,,,,14,5,117,2,371.02265609999995,,,,,,,,,,,,,,,,,,,,,371.0072748,371.02265609999995,371.50597089999997,371.5106347000001,371.52953479999996,372.40606090000006,,,,,372.4062391,372.4219846000001,372.6215698000001,372.6055220999999,371.52953479999996,,,,,,,,1,1,0.8638925000000199,None,,,,,,,,861,26,V,R,2026-02-18_11h11.13.951,VisualSearch_2526_3,,2025.2.4,2026-02-18 11h11.14.713855 +0100,
vertical.xlsx,The target is tilted.,135,118,6,14,1,1,1,1,1,1,1,1,0,0,0,0,0,7,8,135,space,9.648324399999979,None,1,1,0.7639039000000594,None,space,5.555095800000004,None,0,0,0,1,,,,,14,6,118,1,372.6215698000001,,,,,,,,,,,,,,,,,,,,,372.60626849999994,372.6215698000001,373.1054260000001,373.1101301000001,373.12901480000005,373.9059539,,,,,373.9061637,373.9213245000001,374.12119770000004,374.1052333,373.12901480000005,,,,,,,,1,1,0.7639039000000594,None,,,,,,,,861,26,V,R,2026-02-18_11h11.13.951,VisualSearch_2526_3,,2025.2.4,2026-02-18 11h11.14.713855 +0100,
vertical.xlsx,The target is tilted.,135,119,7,14,0,1,1,1,1,1,1,1,1,1,1,1,1,11,12,135,space,9.648324399999979,None,0,1,2.7586169999999584,None,space,5.555095800000004,None,0,0,0,1,,,,,14,7,119,4,374.12119770000004,,,,,,,,,,,,,,,,,,,,,374.1059884000001,374.12119770000004,374.6047295000001,374.60944259999997,374.6288443000001,377.4043405,,,,,377.4045632,377.4197707999999,377.6428685000001,377.6035878,374.6288443000001,,,,,,,,0,1,2.7586169999999584,None,,,,,,,,861,26,V,R,2026-02-18_11h11.13.951,VisualSearch_2526_3,,2025.2.4,2026-02-18 11h11.14.713855 +0100,
vertical.xlsx,The target is tilted.,135,0,0,0,,,,,,,,,,,,,,,,,space,9.648324399999979,None,,,,,space,5.555095800000004,None,0,0,0,1,,,,,,,,,,,,,,,,,,,,,,,,,,,,,,,,,,,,,,,,,,,,,,,,,,,,,,,,,,,,,,,861,26,V,R,2026-02-18_11h11.13.951,VisualSearch_2526_3,,2025.2.4,2026-02-18 11h11.14.713855 +0100,
tilted.xlsx,The target is tilted.,117,0,0,0,0,1,1,1,0,0,0,0,0,0,0,0,1,3,4,117,space,9.974401799999896,None,1,0,3.4723100999999588,None,,,,0,1,1,0,0,0,0,6,,,,,387.6907395999999,,,,,,,,,,,,,,,377.6428685000001,377.6428685000001,377.6428685000001,space,9.974401799999896,None,387.68724799999995,387.6907395999999,388.1485015999999,388.15323450000005,388.1719806000001,391.64757899999995,1,0,3.4723100999999588,None,391.6477774,391.6632918,391.86325310000007,391.84685420000005,,,,,,,,,,,,,,,,,,,,861,26,V,R,2026-02-18_11h11.13.951,VisualSearch_2526_3,,2025.2.4,2026-02-18 11h11.14.713855 +0100,
tilted.xlsx,The target is tilted.,117,1,1,0,1,0,0,0,0,0,0,0,0,0,0,0,0,0,1,117,space,9.974401799999896,None,1,1,0.9295798999999079,None,,,,0,1,1,0,0,1,1,3,,,,,391.86325310000007,,,,,,,,,,,,,,,,,,,,,391.84761159999994,391.86325310000007,392.3468058000001,392.3515296999999,392.37063020000005,393.3136821999999,1,1,0.9295798999999079,None,393.3138712,393.3288488999999,393.5291211000001,393.5130762000001,392.37063020000005,,,,,,,,,,,,,,,,,,,861,26,V,R,2026-02-18_11h11.13.951,VisualSearch_2526_3,,2025.2.4,2026-02-18 11h11.14.713855 +0100,
tilted.xlsx,The target is tilted.,117,2,2,0,1,1,1,1,1,1,1,1,0,0,0,0,0,7,8,117,space,9.974401799999896,None,1,1,1.1372433000001365,None,,,,0,1,1,0,0,2,2,1,,,,,393.5291211000001,,,,,,,,,,,,,,,,,,,,,393.51374669999996,393.5291211000001,394.0128453,394.0175220000001,394.03618129999995,395.1793685,1,1,1.1372433000001365,None,395.1795529000001,395.1951061,395.3949190000001,395.37884280000003,394.03618129999995,,,,,,,,,,,,,,,,,,,861,26,V,R,2026-02-18_11h11.13.951,VisualSearch_2526_3,,2025.2.4,2026-02-18 11h11.14.713855 +0100,
tilted.xlsx,The target is tilted.,117,3,3,0,0,1,1,1,1,1,1,1,1,1,1,1,1,11,12,117,space,9.974401799999896,None,0,1,11.208122200000162,None,,,,0,1,1,0,0,3,3,4,,,,,395.3949190000001,,,,,,,,,,,,,,,,,,,,,395.3795181999999,395.3949190000001,395.8785978000001,395.88330070000006,395.90195330000006,407.12395420000007,0,1,11.208122200000162,None,407.12413059999994,407.1395146,407.3395204000001,407.3234956000001,395.90195330000006,,,,,,,,,,,,,,,,,,,861,26,V,R,2026-02-18_11h11.13.951,VisualSearch_2526_3,,2025.2.4,2026-02-18 11h11.14.713855 +0100,
tilted.xlsx,The target is tilted.,117,4,4,0,1,1,1,1,0,0,0,0,0,0,0,0,0,3,4,117,space,9.974401799999896,None,0,0,2.7322865000001,None,,,,0,1,1,0,0,4,4,2,,,,,407.3395204000001,,,,,,,,,,,,,,,,,,,,,407.3242189,407.3395204000001,407.82326549999993,407.8279686000001,407.84877159999996,410.58856220000007,0,0,2.7322865000001,None,410.58871750000003,410.6045575999999,410.8047019999999,410.78804519999994,407.84877159999996,,,,,,,,,,,,,,,,,,,861,26,V,R,2026-02-18_11h11.13.951,VisualSearch_2526_3,,2025.2.4,2026-02-18 11h11.14.713855 +0100,
tilted.xlsx,The target is tilted.,117,5,5,0,0,1,1,1,1,1,1,1,0,0,0,0,1,7,8,117,space,9.974401799999896,None,1,0,2.0169071999998778,None,,,,0,1,1,0,0,5,5,5,,,,,410.8047019999999,,,,,,,,,,,,,,,,,,,,,410.7887347000001,410.8047019999999,411.2883575000001,411.2931019,411.31244059999995,413.33764870000005,1,0,2.0169071999998778,None,413.33783700000004,413.3530868,413.5533077,413.5371986,411.31244059999995,,,,,,,,,,,,,,,,,,,861,26,V,R,2026-02-18_11h11.13.951,VisualSearch_2526_3,,2025.2.4,2026-02-18 11h11.14.713855 +0100,
tilted.xlsx,The target is tilted.,117,6,6,0,0,0,0,0,0,0,0,0,0,0,0,0,1,1,1,117,space,9.974401799999896,None,1,0,1.539619700000003,None,,,,0,1,1,0,0,6,6,7,,,,,413.5533077,,,,,,,,,,,,,,,,,,,,,413.53800049999995,413.5533077,414.0369948,414.0417224,414.06082719999995,415.6035449000001,1,0,1.539619700000003,None,415.6037300999999,415.6186975999999,415.81910300000004,415.80347140000003,414.06082719999995,,,,,,,,,,,,,,,,,,,861,26,V,R,2026-02-18_11h11.13.951,VisualSearch_2526_3,,2025.2.4,2026-02-18 11h11.14.713855 +0100,
tilted.xlsx,The target is tilted.,117,7,7,0,1,1,1,1,1,1,1,1,1,1,1,1,0,11,12,117,space,9.974401799999896,None,1,1,2.3251509000001533,None,,,,0,1,1,0,0,7,7,0,,,,,415.81910300000004,,,,,,,,,,,,,,,,,,,,,415.8042023999999,415.81910300000004,416.3026972,416.30732609999995,416.3263228999999,418.6688855,1,1,2.3251509000001533,None,418.6690741,418.68401719999997,418.88442469999995,418.86801059999993,416.3263228999999,,,,,,,,,,,,,,,,,,,861,26,V,R,2026-02-18_11h11.13.951,VisualSearch_2526_3,,2025.2.4,2026-02-18 11h11.14.713855 +0100,
tilted.xlsx,The target is tilted.,117,0,0,0,0,1,1,1,1,1,1,1,1,1,1,1,1,11,12,117,space,9.974401799999896,None,1,0,1.2829193999998552,None,space,7.229231599999821,None,0,1,1,0,,,,,0,0,0,4,426.1523402,,,,,,,,,,,,,,,,,,,,,426.1480815,426.1523402,426.6310667,426.6358488000001,426.65450340000007,427.9479859999999,,,,,427.9481786000001,427.963651,428.16348089999997,428.14729869999996,,418.87506570000005,418.88442469999995,418.88442469999995,426.11537369999996,space,7.229231599999821,None,1,0,1.2829193999998552,None,,,,,,,,861,26,V,R,2026-02-18_11h11.13.951,VisualSearch_2526_3,,2025.2.4,2026-02-18 11h11.14.713855 +0100,
tilted.xlsx,The target is tilted.,117,1,1,0,0,1,1,1,1,1,1,1,0,0,0,0,1,7,8,117,space,9.974401799999896,None,1,0,0.9363799000000199,None,space,7.229231599999821,None,0,1,1,0,,,,,0,1,1,5,428.16348089999997,,,,,,,,,,,,,,,,,,,,,428.14807199999996,428.16348089999997,428.64700519999997,428.6515769,428.6700247000001,429.6136842000001,,,,,429.6138747,429.6293424999999,429.82932989999995,429.8132011,428.6700247000001,,,,,,,,1,0,0.9363799000000199,None,,,,,,,,861,26,V,R,2026-02-18_11h11.13.951,VisualSearch_2526_3,,2025.2.4,2026-02-18 11h11.14.713855 +0100,
tilted.xlsx,The target is tilted.,117,2,2,0,0,1,1,1,0,0,0,0,0,0,0,0,1,3,4,117,space,9.974401799999896,None,1,0,1.684754699999985,None,space,7.229231599999821,None,0,1,1,0,,,,,0,2,2,6,429.82932989999995,,,,,,,,,,,,,,,,,,,,,429.8139549,429.82932989999995,430.3129271,430.3177837999999,430.3367198000001,432.0294666,,,,,432.02965889999996,432.0446414999999,432.2442515,432.2280267000001,430.3367198000001,,,,,,,,1,0,1.684754699999985,None,,,,,,,,861,26,V,R,2026-02-18_11h11.13.951,VisualSearch_2526_3,,2025.2.4,2026-02-18 11h11.14.713855 +0100,
tilted.xlsx,The target is tilted.,117,3,3,0,1,1,1,1,0,0,0,0,0,0,0,0,0,3,4,117,space,9.974401799999896,None,1,1,1.1297661000000971,None,space,7.229231599999821,None,0,1,1,0,,,,,0,3,3,2,432.2442515,,,,,,,,,,,,,,,,,,,,,432.2284654,432.2442515,432.7277124,432.7304088000001,432.74410510000007,433.8774971,,,,,433.8776155999999,433.89344830000005,434.0934600999999,434.0770606000001,432.74410510000007,,,,,,,,1,1,1.1297661000000971,None,,,,,,,,861,26,V,R,2026-02-18_11h11.13.951,VisualSearch_2526_3,,2025.2.4,2026-02-18 11h11.14.713855 +0100,
tilted.xlsx,The target is tilted.,117,4,4,0,1,1,1,1,1,1,1,1,0,0,0,0,0,7,8,117,space,9.974401799999896,None,1,1,1.0552535000001626,None,space,7.229231599999821,None,0,1,1,0,,,,,0,4,4,1,434.0934600999999,,,,,,,,,,,,,,,,,,,,,434.0775374,434.0934600999999,434.5776148,434.5830045,434.6034657,435.6611094,,,,,435.6613213999999,435.6763418999999,435.8762606,435.8604399999999,434.6034657,,,,,,,,1,1,1.0552535000001626,None,,,,,,,,861,26,V,R,2026-02-18_11h11.13.951,VisualSearch_2526_3,,2025.2.4,2026-02-18 11h11.14.713855 +0100,
tilted.xlsx,The target is tilted.,117,5,5,0,1,1,1,1,1,1,1,1,1,1,1,1,0,11,12,117,space,9.974401799999896,None,1,1,3.0600273999998535,None,space,7.229231599999821,None,0,1,1,0,,,,,0,5,5,0,435.8762606,,,,,,,,,,,,,,,,,,,,,435.8612091,435.8762606,436.35996320000004,436.3631795000001,436.37671380000006,439.4425011000001,,,,,439.4427046999999,439.4583396999999,439.6582125,439.6421866999999,436.37671380000006,,,,,,,,1,1,3.0600273999998535,None,,,,,,,,861,26,V,R,2026-02-18_11h11.13.951,VisualSearch_2526_3,,2025.2.4,2026-02-18 11h11.14.713855 +0100,
tilted.xlsx,The target is tilted.,117,6,6,0,0,0,0,0,0,0,0,0,0,0,0,0,1,1,1,117,space,9.974401799999896,None,1,0,0.910247100000106,None,space,7.229231599999821,None,0,1,1,0,,,,,0,6,6,7,439.6582125,,,,,,,,,,,,,,,,,,,,,439.6430216000001,439.6582125,440.1419722999999,440.1468195,440.16646360000004,441.0921493000001,,,,,441.0923548999999,441.10746169999993,441.30756339999994,441.2915029999999,440.16646360000004,,,,,,,,1,0,0.910247100000106,None,,,,,,,,861,26,V,R,2026-02-18_11h11.13.951,VisualSearch_2526_3,,2025.2.4,2026-02-18 11h11.14.713855 +0100,
tilted.xlsx,The target is tilted.,117,7,7,0,1,0,0,0,0,0,0,0,0,0,0,0,0,0,1,117,space,9.974401799999896,None,1,1,0.6218564999999217,None,space,7.229231599999821,None,0,1,1,0,,,,,0,7,7,3,441.30756339999994,,,,,,,,,,,,,,,,,,,,,441.29230989999996,441.30756339999994,441.79091560000006,441.79618030000006,441.8150986999999,442.44110090000004,,,,,442.4413162000001,442.45660569999995,442.6569033999999,442.64063699999997,441.8150986999999,,,,,,,,1,1,0.6218564999999217,None,,,,,,,,861,26,V,R,2026-02-18_11h11.13.951,VisualSearch_2526_3,,2025.2.4,2026-02-18 11h11.14.713855 +0100,
tilted.xlsx,The target is tilted.,117,8,0,1,1,0,0,0,0,0,0,0,0,0,0,0,0,0,1,117,space,9.974401799999896,None,1,1,0.6113476000000446,None,space,7.229231599999821,None,0,1,1,0,,,,,1,0,8,3,442.6569033999999,,,,,,,,,,,,,,,,,,,,,442.6414023,442.6569033999999,443.1405709999999,443.14538560000005,443.1643122999999,443.79088939999997,,,,,443.79112050000003,443.8057016,444.0062304999999,443.9901361,443.1643122999999,,,,,,,,1,1,0.6113476000000446,None,,,,,,,,861,26,V,R,2026-02-18_11h11.13.951,VisualSearch_2526_3,,2025.2.4,2026-02-18 11h11.14.713855 +0100,
tilted.xlsx,The target is tilted.,117,9,1,1,0,0,0,0,0,0,0,0,0,0,0,0,1,1,1,117,space,9.974401799999896,None,1,0,1.3539857000000666,None,space,7.229231599999821,None,0,1,1,0,,,,,1,1,9,7,444.0062304999999,,,,,,,,,,,,,,,,,,,,,443.99091539999995,444.0062304999999,444.4898427999999,444.4945491000001,444.51405079999995,445.8730699,,,,,445.87327600000003,445.88864280000007,446.0886527,446.0722558,444.51405079999995,,,,,,,,1,0,1.3539857000000666,None,,,,,,,,861,26,V,R,2026-02-18_11h11.13.951,VisualSearch_2526_3,,2025.2.4,2026-02-18 11h11.14.713855 +0100,
tilted.xlsx,The target is tilted.,117,10,2,1,0,1,1,1,1,1,1,1,1,1,1,1,1,11,12,117,space,9.974401799999896,None,1,0,2.6949910000000727,None,space,7.229231599999821,None,0,1,1,0,,,,,1,2,10,4,446.0886527,,,,,,,,,,,,,,,,,,,,,446.0731297,446.0886527,446.5718876000001,446.5765160000001,446.5961996000001,449.3039738,,,,,449.3040931999999,449.31982500000004,449.5197555,449.5035175999999,446.5961996000001,,,,,,,,1,0,2.6949910000000727,None,,,,,,,,861,26,V,R,2026-02-18_11h11.13.951,VisualSearch_2526_3,,2025.2.4,2026-02-18 11h11.14.713855 +0100,
tilted.xlsx,The target is tilted.,117,11,3,1,1,1,1,1,1,1,1,1,0,0,0,0,0,7,8,117,space,9.974401799999896,None,1,1,2.7780791000000136,None,space,7.229231599999821,None,0,1,1,0,,,,,1,3,11,1,449.5197555,,,,,,,,,,,,,,,,,,,,,449.50386860000003,449.5197555,450.00336919999995,450.0065439,450.0195573000001,452.80357649999996,,,,,452.8038927,452.81888690000005,453.01897529999997,453.0028471999999,450.0195573000001,,,,,,,,1,1,2.7780791000000136,None,,,,,,,,861,26,V,R,2026-02-18_11h11.13.951,VisualSearch_2526_3,,2025.2.4,2026-02-18 11h11.14.713855 +0100,
tilted.xlsx,The target is tilted.,117,12,4,1,1,1,1,1,0,0,0,0,0,0,0,0,0,3,4,117,space,9.974401799999896,None,1,1,1.5853834000001825,None,space,7.229231599999821,None,0,1,1,0,,,,,1,4,12,2,453.01897529999997,,,,,,,,,,,,,,,,,,,,,453.00365209999995,453.01897529999997,453.5025601,453.50723070000004,453.5263775000001,455.11907999999994,,,,,455.11930789999997,455.1341827000001,455.3341797999999,455.31850699999995,453.5263775000001,,,,,,,,1,1,1.5853834000001825,None,,,,,,,,861,26,V,R,2026-02-18_11h11.13.951,VisualSearch_2526_3,,2025.2.4,2026-02-18 11h11.14.713855 +0100,
tilted.xlsx,The target is tilted.,117,13,5,1,0,1,1,1,0,0,0,0,0,0,0,0,1,3,4,117,space,9.974401799999896,None,1,0,4.563110800000004,None,space,7.229231599999821,None,0,1,1,0,,,,,1,5,13,6,455.3341797999999,,,,,,,,,,,,,,,,,,,,,455.31931039999995,455.3341797999999,455.8183182,455.82320619999996,455.8343411000001,460.39978769999993,,,,,460.3999931999999,460.4154088,460.6151681000001,460.5994214,455.8343411000001,,,,,,,,1,0,4.563110800000004,None,,,,,,,,861,26,V,R,2026-02-18_11h11.13.951,VisualSearch_2526_3,,2025.2.4,2026-02-18 11h11.14.713855 +0100,
tilted.xlsx,The target is tilted.,117,14,6,1,0,1,1,1,1,1,1,1,0,0,0,0,1,7,8,117,space,9.974401799999896,None,1,0,3.4617000000000644,None,space,7.229231599999821,None,0,1,1,0,,,,,1,6,14,5,460.6151681000001,,,,,,,,,,,,,,,,,,,,,460.6002698,460.6151681000001,461.0987629000001,461.1027762000001,461.11466859999996,464.58094860000006,,,,,464.5811953,464.59655969999994,464.79681129999994,464.7806848,461.11466859999996,,,,,,,,1,0,3.4617000000000644,None,,,,,,,,861,26,V,R,2026-02-18_11h11.13.951,VisualSearch_2526_3,,2025.2.4,2026-02-18 11h11.14.713855 +0100,
tilted.xlsx,The target is tilted.,117,15,7,1,1,1,1,1,1,1,1,1,1,1,1,1,0,11,12,117,space,9.974401799999896,None,1,1,1.2353610000000117,None,space,7.229231599999821,None,0,1,1,0,,,,,1,7,15,0,464.79681129999994,,,,,,,,,,,,,,,,,,,,,464.78146059999995,464.79681129999994,465.28053539999996,465.2851631000001,465.3035106,466.54699989999995,,,,,466.5471903,466.5626336,466.76264289999995,466.74648909999996,465.3035106,,,,,,,,1,1,1.2353610000000117,None,,,,,,,,861,26,V,R,2026-02-18_11h11.13.951,VisualSearch_2526_3,,2025.2.4,2026-02-18 11h11.14.713855 +0100,
tilted.xlsx,The target is tilted.,117,16,0,2,1,1,1,1,1,1,1,1,0,0,0,0,0,7,8,117,space,9.974401799999896,None,1,1,2.7316531000001305,None,space,7.229231599999821,None,0,1,1,0,,,,,2,0,16,1,466.76264289999995,,,,,,,,,,,,,,,,,,,,,466.7473666000001,466.76264289999995,467.24589560000004,467.2505592,467.27022420000003,470.0118556,,,,,470.01204830000006,470.02763630000004,470.2273950000001,470.2117596999999,467.27022420000003,,,,,,,,1,1,2.7316531000001305,None,,,,,,,,861,26,V,R,2026-02-18_11h11.13.951,VisualSearch_2526_3,,2025.2.4,2026-02-18 11h11.14.713855 +0100,
tilted.xlsx,The target is tilted.,117,17,1,2,1,0,0,0,0,0,0,0,0,0,0,0,0,0,1,117,space,9.974401799999896,None,1,1,0.8556994999999006,None,space,7.229231599999821,None,0,1,1,0,,,,,2,1,17,3,470.2273950000001,,,,,,,,,,,,,,,,,,,,,470.2125691000001,470.2273950000001,470.7114100000001,470.71599390000006,470.72728340000003,471.5946839999999,,,,,471.59488839999995,471.60999330000004,471.8104593999999,471.79458120000004,470.72728340000003,,,,,,,,1,1,0.8556994999999006,None,,,,,,,,861,26,V,R,2026-02-18_11h11.13.951,VisualSearch_2526_3,,2025.2.4,2026-02-18 11h11.14.713855 +0100,
tilted.xlsx,The target is tilted.,117,18,2,2,1,1,1,1,0,0,0,0,0,0,0,0,0,3,4,117,space,9.974401799999896,None,1,1,0.8996137999999974,None,space,7.229231599999821,None,0,1,1,0,,,,,2,2,18,2,471.8104593999999,,,,,,,,,,,,,,,,,,,,,471.7955030999999,471.8104593999999,472.29400880000003,472.29868209999995,472.3160028,473.22686909999993,,,,,473.22699119999993,473.24289410000006,473.44296299999996,473.42671229999996,472.3160028,,,,,,,,1,1,0.8996137999999974,None,,,,,,,,861,26,V,R,2026-02-18_11h11.13.951,VisualSearch_2526_3,,2025.2.4,2026-02-18 11h11.14.713855 +0100,
tilted.xlsx,The target is tilted.,117,19,3,2,0,0,0,0,0,0,0,0,0,0,0,0,1,1,1,117,space,9.974401799999896,None,0,1,3.2721429000000626,None,space,7.229231599999821,None,0,1,1,0,,,,,2,3,19,7,473.44296299999996,,,,,,,,,,,,,,,,,,,,,473.42749249999997,473.44296299999996,473.92625240000007,473.9309223,473.94956550000006,477.22526719999996,,,,,477.22547570000006,477.2411099000001,477.44070239999996,477.42464930000006,473.94956550000006,,,,,,,,0,1,3.2721429000000626,None,,,,,,,,861,26,V,R,2026-02-18_11h11.13.951,VisualSearch_2526_3,,2025.2.4,2026-02-18 11h11.14.713855 +0100,
tilted.xlsx,The target is tilted.,117,20,4,2,0,1,1,1,1,1,1,1,0,0,0,0,1,7,8,117,space,9.974401799999896,None,1,0,4.222615600000154,None,space,7.229231599999821,None,0,1,1,0,,,,,2,4,20,5,477.44070239999996,,,,,,,,,,,,,,,,,,,,,477.42538420000005,477.44070239999996,477.9248665,477.9295833000001,477.94868900000006,482.1735105,,,,,482.1736776,482.188713,482.38855209999997,482.3729909000001,477.94868900000006,,,,,,,,1,0,4.222615600000154,None,,,,,,,,861,26,V,R,2026-02-18_11h11.13.951,VisualSearch_2526_3,,2025.2.4,2026-02-18 11h11.14.713855 +0100,
tilted.xlsx,The target is tilted.,117,21,5,2,1,1,1,1,1,1,1,1,1,1,1,1,0,11,12,117,space,9.974401799999896,None,1,1,2.007408800000121,None,space,7.229231599999821,None,0,1,1,0,,,,,2,5,21,0,482.38855209999997,,,,,,,,,,,,,,,,,,,,,482.37370480000004,482.38855209999997,482.8724032,482.8771899999999,482.89610070000003,484.90493889999993,,,,,484.9051158,484.9205654,485.1209544000001,485.1049539999999,482.89610070000003,,,,,,,,1,1,2.007408800000121,None,,,,,,,,861,26,V,R,2026-02-18_11h11.13.951,VisualSearch_2526_3,,2025.2.4,2026-02-18 11h11.14.713855 +0100,
tilted.xlsx,The target is tilted.,117,22,6,2,0,1,1,1,1,1,1,1,1,1,1,1,1,11,12,117,space,9.974401799999896,None,1,0,4.033813499999951,None,space,7.229231599999821,None,0,1,1,0,,,,,2,6,22,4,485.1209544000001,,,,,,,,,,,,,,,,,,,,,485.10572709999997,485.1209544000001,485.6046541999999,485.6094622999999,485.6277302000001,489.66962280000007,,,,,489.6697681999999,489.68516380000005,489.88549390000003,489.8693771999999,485.6277302000001,,,,,,,,1,0,4.033813499999951,None,,,,,,,,861,26,V,R,2026-02-18_11h11.13.951,VisualSearch_2526_3,,2025.2.4,2026-02-18 11h11.14.713855 +0100,
tilted.xlsx,The target is tilted.,117,23,7,2,0,1,1,1,0,0,0,0,0,0,0,0,1,3,4,117,space,9.974401799999896,None,1,0,2.326605700000073,None,space,7.229231599999821,None,0,1,1,0,,,,,2,7,23,6,489.88549390000003,,,,,,,,,,,,,,,,,,,,,489.87008579999997,489.88549390000003,490.36886030000005,490.3736515999999,490.39271329999997,492.7352608000001,,,,,492.7354562999999,492.75068970000007,492.95066429999997,492.9343626,490.39271329999997,,,,,,,,1,0,2.326605700000073,None,,,,,,,,861,26,V,R,2026-02-18_11h11.13.951,VisualSearch_2526_3,,2025.2.4,2026-02-18 11h11.14.713855 +0100,
tilted.xlsx,The target is tilted.,117,24,0,3,1,1,1,1,1,1,1,1,0,0,0,0,0,7,8,117,space,9.974401799999896,None,1,1,2.8341762999998537,None,space,7.229231599999821,None,0,1,1,0,,,,,3,0,24,1,492.95066429999997,,,,,,,,,,,,,,,,,,,,,492.9348763999999,492.95066429999997,493.43347829999993,493.4364997,493.4502883,496.3002991000001,,,,,496.30049170000007,496.3157027,496.51573499999995,496.49960480000004,493.4502883,,,,,,,,1,1,2.8341762999998537,None,,,,,,,,861,26,V,R,2026-02-18_11h11.13.951,VisualSearch_2526_3,,2025.2.4,2026-02-18 11h11.14.713855 +0100,
tilted.xlsx,The target is tilted.,117,25,1,3,0,1,1,1,1,1,1,1,1,1,1,1,1,11,12,117,space,9.974401799999896,None,1,0,1.241503499999908,None,space,7.229231599999821,None,0,1,1,0,,,,,3,1,25,4,496.51573499999995,,,,,,,,,,,,,,,,,,,,,496.5003847999999,496.51573499999995,496.9991152,497.00392020000004,497.0228319,498.26525560000005,,,,,498.265402,498.2814682999999,498.4816943000001,498.4653691000001,497.0228319,,,,,,,,1,0,1.241503499999908,None,,,,,,,,861,26,V,R,2026-02-18_11h11.13.951,VisualSearch_2526_3,,2025.2.4,2026-02-18 11h11.14.713855 +0100,
tilted.xlsx,The target is tilted.,117,26,2,3,1,1,1,1,1,1,1,1,1,1,1,1,0,11,12,117,space,9.974401799999896,None,1,1,6.278209800000013,None,space,7.229231599999821,None,0,1,1,0,,,,,3,2,26,0,498.4816943000001,,,,,,,,,,,,,,,,,,,,,498.4662826000001,498.4816943000001,498.96476929999994,498.9694663,498.98811150000006,505.2789441,,,,,505.27910169999996,505.29484030000003,505.49496610000006,505.4789555,498.98811150000006,,,,,,,,1,1,6.278209800000013,None,,,,,,,,861,26,V,R,2026-02-18_11h11.13.951,VisualSearch_2526_3,,2025.2.4,2026-02-18 11h11.14.713855 +0100,
tilted.xlsx,The target is tilted.,117,27,3,3,0,1,1,1,0,0,0,0,0,0,0,0,1,3,4,117,space,9.974401799999896,None,1,0,4.337397500000179,None,space,7.229231599999821,None,0,1,1,0,,,,,3,3,27,6,505.49496610000006,,,,,,,,,,,,,,,,,,,,,505.4796595,505.49496610000006,505.9787354,505.9835782,506.00331359999996,510.34398379999993,,,,,510.3441780999999,510.35913589999996,510.5594332999999,510.5430721,506.00331359999996,,,,,,,,1,0,4.337397500000179,None,,,,,,,,861,26,V,R,2026-02-18_11h11.13.951,VisualSearch_2526_3,,2025.2.4,2026-02-18 11h11.14.713855 +0100,
tilted.xlsx,The target is tilted.,117,28,4,3,0,0,0,0,0,0,0,0,0,0,0,0,1,1,1,117,space,9.974401799999896,None,1,0,1.3093332999999348,None,space,7.229231599999821,None,0,1,1,0,,,,,3,4,28,7,510.5594332999999,,,,,,,,,,,,,,,,,,,,,510.5440248,510.5594332999999,511.04268479999996,511.0474818,511.06706699999995,512.3929515,,,,,512.3931460000001,512.4085419,512.6085837999999,512.5925573,511.06706699999995,,,,,,,,1,0,1.3093332999999348,None,,,,,,,,861,26,V,R,2026-02-18_11h11.13.951,VisualSearch_2526_3,,2025.2.4,2026-02-18 11h11.14.713855 +0100,
tilted.xlsx,The target is tilted.,117,29,5,3,1,1,1,1,0,0,0,0,0,0,0,0,0,3,4,117,space,9.974401799999896,None,1,1,1.2634077000000161,None,space,7.229231599999821,None,0,1,1,0,,,,,3,5,29,2,512.6085837999999,,,,,,,,,,,,,,,,,,,,,512.5933554000001,512.6085837999999,513.0921619999999,513.0968533,513.1161181,514.3921568000001,,,,,514.3923549000001,514.4075898000001,514.6076098000001,514.5917351,513.1161181,,,,,,,,1,1,1.2634077000000161,None,,,,,,,,861,26,V,R,2026-02-18_11h11.13.951,VisualSearch_2526_3,,2025.2.4,2026-02-18 11h11.14.713855 +0100,
tilted.xlsx,The target is tilted.,117,30,6,3,1,0,0,0,0,0,0,0,0,0,0,0,0,0,1,117,space,9.974401799999896,None,1,1,0.7748661999999058,None,space,7.229231599999821,None,0,1,1,0,,,,,3,6,30,3,514.6076098000001,,,,,,,,,,,,,,,,,,,,,514.5925787000001,514.6076098000001,515.0913700000001,515.0965194,515.1155176,515.9081251,,,,,515.9083164000001,515.9235801,516.1232453,516.1073999,515.1155176,,,,,,,,1,1,0.7748661999999058,None,,,,,,,,861,26,V,R,2026-02-18_11h11.13.951,VisualSearch_2526_3,,2025.2.4,2026-02-18 11h11.14.713855 +0100,
tilted.xlsx,The target is tilted.,117,31,7,3,0,1,1,1,1,1,1,1,0,0,0,0,1,7,8,117,space,9.974401799999896,None,1,0,2.702202699999816,None,space,7.229231599999821,None,0,1,1,0,,,,,3,7,31,5,516.1232453,,,,,,,,,,,,,,,,,,,,,516.108225,516.1232453,516.6071096999999,516.6117904,516.6297408,519.3395932999999,,,,,519.3398089,519.3553841,519.5546976999999,519.5393527000001,516.6297408,,,,,,,,1,0,2.702202699999816,None,,,,,,,,861,26,V,R,2026-02-18_11h11.13.951,VisualSearch_2526_3,,2025.2.4,2026-02-18 11h11.14.713855 +0100,
tilted.xlsx,The target is tilted.,117,32,0,4,1,1,1,1,1,1,1,1,0,0,0,0,0,7,8,117,space,9.974401799999896,None,1,1,1.9695695000000342,None,space,7.229231599999821,None,0,1,1,0,,,,,4,0,32,1,519.5546976999999,,,,,,,,,,,,,,,,,,,,,519.5401747999999,519.5546976999999,520.0391479,520.0446803,520.0630194,522.0386137999999,,,,,522.0388032999999,522.0541628999999,522.2540730999999,522.2379341000001,520.0630194,,,,,,,,1,1,1.9695695000000342,None,,,,,,,,861,26,V,R,2026-02-18_11h11.13.951,VisualSearch_2526_3,,2025.2.4,2026-02-18 11h11.14.713855 +0100,
tilted.xlsx,The target is tilted.,117,33,1,4,0,1,1,1,1,1,1,1,0,0,0,0,1,7,8,117,space,9.974401799999896,None,1,0,1.2278126999999586,None,space,7.229231599999821,None,0,1,1,0,,,,,4,1,33,5,522.2540730999999,,,,,,,,,,,,,,,,,,,,,522.2386808000001,522.2540730999999,522.7373411000001,522.7402151000001,522.7536892999999,523.9877481999999,,,,,523.9879545000001,524.0032811000001,524.2031841999999,524.1870374,522.7536892999999,,,,,,,,1,0,1.2278126999999586,None,,,,,,,,861,26,V,R,2026-02-18_11h11.13.951,VisualSearch_2526_3,,2025.2.4,2026-02-18 11h11.14.713855 +0100,
tilted.xlsx,The target is tilted.,117,34,2,4,0,1,1,1,1,1,1,1,1,1,1,1,1,11,12,117,space,9.974401799999896,None,1,0,2.1962983000000804,None,space,7.229231599999821,None,0,1,1,0,,,,,4,2,34,4,524.2031841999999,,,,,,,,,,,,,,,,,,,,,524.1878641999999,524.2031841999999,524.6866459,524.6913838,524.7101385999999,526.9198455000001,,,,,526.9200390999999,526.9351197000001,527.1347569,527.1191059,524.7101385999999,,,,,,,,1,0,2.1962983000000804,None,,,,,,,,861,26,V,R,2026-02-18_11h11.13.951,VisualSearch_2526_3,,2025.2.4,2026-02-18 11h11.14.713855 +0100,
tilted.xlsx,The target is tilted.,117,35,3,4,0,0,0,0,0,0,0,0,0,0,0,0,1,1,1,117,space,9.974401799999896,None,1,0,0.7024128999998993,None,space,7.229231599999821,None,0,1,1,0,,,,,4,3,35,7,527.1347569,,,,,,,,,,,,,,,,,,,,,527.1198723,527.1347569,527.6186115999999,527.6233873000001,527.6429845,528.3523335,,,,,528.3525259,528.3679635000001,528.5674058,528.5515055000001,527.6429845,,,,,,,,1,0,0.7024128999998993,None,,,,,,,,861,26,V,R,2026-02-18_11h11.13.951,VisualSearch_2526_3,,2025.2.4,2026-02-18 11h11.14.713855 +0100,
tilted.xlsx,The target is tilted.,117,36,4,4,0,1,1,1,0,0,0,0,0,0,0,0,1,3,4,117,space,9.974401799999896,None,1,0,3.3138572999998814,None,space,7.229231599999821,None,0,1,1,0,,,,,4,4,36,6,528.5674058,,,,,,,,,,,,,,,,,,,,,528.5523290000001,528.5674058,529.0517566999999,529.0571975,529.0764832,532.4005480000001,,,,,532.4007423,532.4160380999999,532.6160294000001,532.5998687000001,529.0764832,,,,,,,,1,0,3.3138572999998814,None,,,,,,,,861,26,V,R,2026-02-18_11h11.13.951,VisualSearch_2526_3,,2025.2.4,2026-02-18 11h11.14.713855 +0100,
tilted.xlsx,The target is tilted.,117,37,5,4,1,0,0,0,0,0,0,0,0,0,0,0,0,0,1,117,space,9.974401799999896,None,1,1,0.8178981000000931,None,space,7.229231599999821,None,0,1,1,0,,,,,4,5,37,3,532.6160294000001,,,,,,,,,,,,,,,,,,,,,532.6006359,532.6160294000001,533.0994137,533.1047541,533.1238693,533.9494476,,,,,533.9495889,533.9652666,534.165172,534.1494161999999,533.1238693,,,,,,,,1,1,0.8178981000000931,None,,,,,,,,861,26,V,R,2026-02-18_11h11.13.951,VisualSearch_2526_3,,2025.2.4,2026-02-18 11h11.14.713855 +0100,
