file_name,block_instructions,target_example,thisN,thisTrialN,thisRepN,target_presence,opacity_1,opacity_2,opacity_3,opacity_4,opacity_5,opacity_6,opacity_7,opacity_8,opacity_9,opacity_10,opacity_11,opacity_12,n_distract,n_items,target_ori,key_resp_4.keys,key_resp_4.rt,key_resp_4.duration,key_resp.keys,key_resp.corr,key_resp.rt,key_resp.duration,key_resp_5.keys,key_resp_5.rt,key_resp_5.duration,blocks.thisRepN,blocks.thisTrialN,blocks.thisN,blocks.thisIndex,practice_trials.thisRepN,practice_trials.thisTrialN,practice_trials.thisN,practice_trials.thisIndex,trials.thisRepN,trials.thisTrialN,trials.thisN,trials.thisIndex,thisRow.t,notes,Welcome.started,WelcomeText.started,key_resp_2.started,Welcome.stopped,key_resp_2.keys,key_resp_2.rt,key_resp_2.duration,InformedConsent.started,text_4.started,InformedConsent.stopped,key_resp_6.keys,key_resp_6.rt,key_resp_6.duration,key_resp_4.started,example_target.started,text_3.started,blocks.key_resp_4.keys,blocks.key_resp_4.rt,blocks.key_resp_4.duration,FixCross.started,fixCross.started,FixCross.stopped,Stimulus.started,key_resp.started,Stimulus.stopped,practice_trials.key_resp.keys,practice_trials.key_resp.corr,practice_trials.key_resp.rt,practice_trials.key_resp.duration,BlankScreen.started,text.started,text.stopped,BlankScreen.stopped,fixCross.stopped,ExperimentStart.started,text_2.started,key_resp_5.started,ExperimentStart.stopped,blocks.key_resp_5.keys,blocks.key_resp_5.rt,blocks.key_resp_5.duration,trials.key_resp.keys,trials.key_resp.corr,trials.key_resp.rt,trials.key_resp.duration,Thanks.started,ThankYou.started,key_resp_3.started,Thanks.stopped,key_resp_3.keys,key_resp_3.rt,key_resp_3.duration,participant,leeftijd,gender,links/rechtshandig,date,expName,expVersion,psychopyVersion,expStart,
,,,,,,,,,,,,,,,,,,,,,,,,,,,,,,,,,,,,,,,,,,,,,,0.034615000000030705,0.04893280000010236,0.04893280000010236,112.34582169999999,space,112.26828049999995,None,,,,,,,,,,,,,,,,,,,,,,,,,,,,,,,,,,,,,,,,,,,,,,862,22,M,R,2026-02-18_11h27.25.462,VisualSearch_2526_3,,2025.2.4,2026-02-18 11h27.25.769836 +0100,
,,,,,,,,,,,,,,,,,,,,,,,,,,,,,,,,,,,,,,,,,,,,,,,,,,,,,112.34596970000007,112.35502610000003,132.20512400000007,y,19.85612900000001,None,,,,,,,,,,,,,,,,,,,,,,,,,,,,,,,,,,,,,,,,862,22,M,R,2026-02-18_11h27.25.462,VisualSearch_2526_3,,2025.2.4,2026-02-18 11h27.25.769836 +0100,
vertical.xlsx,The target is tilted.,135,0,0,0,1,1,1,1,1,1,1,1,0,0,0,0,0,7,8,135,space,12.986359600000014,None,1,1,4.205498300000045,None,,,,0,0,0,1,0,0,0,1,,,,,145.28249819999996,,,,,,,,,,,,,,,132.25234720000003,132.25234720000003,132.25234720000003,space,12.986359600000014,None,145.276836,145.28249819999996,145.7647895,145.76956040000005,145.78783680000015,149.9966151000001,1,1,4.205498300000045,None,149.99681420000002,150.01216680000016,150.21218820000013,150.19623690000003,,,,,,,,,,,,,,,,,,,,862,22,M,R,2026-02-18_11h27.25.462,VisualSearch_2526_3,,2025.2.4,2026-02-18 11h27.25.769836 +0100,
vertical.xlsx,The target is tilted.,135,1,1,0,1,1,1,1,1,1,1,1,1,1,1,1,0,11,12,135,space,12.986359600000014,None,1,1,5.92147829999999,None,,,,0,0,0,1,0,1,1,0,,,,,150.21218820000013,,,,,,,,,,,,,,,,,,,,,150.19694520000007,150.21218820000013,150.69582200000013,150.70064160000015,150.71939740000016,156.64374740000017,1,1,5.92147829999999,None,156.64392040000007,156.6594169,156.85943900000007,156.84327980000012,150.71939740000016,,,,,,,,,,,,,,,,,,,862,22,M,R,2026-02-18_11h27.25.462,VisualSearch_2526_3,,2025.2.4,2026-02-18 11h27.25.769836 +0100,
vertical.xlsx,The target is tilted.,135,2,2,0,0,1,1,1,1,1,1,1,0,0,0,0,1,7,8,135,space,12.986359600000014,None,0,1,1.953264999999874,None,,,,0,0,0,1,0,2,2,5,,,,,156.85943900000007,,,,,,,,,,,,,,,,,,,,,156.84400870000013,156.85943900000007,157.34303870000008,157.34777780000013,157.36680820000015,159.32583999999997,0,1,1.953264999999874,None,159.32603160000008,159.341093,159.5411884,159.52564080000002,157.36680820000015,,,,,,,,,,,,,,,,,,,862,22,M,R,2026-02-18_11h27.25.462,VisualSearch_2526_3,,2025.2.4,2026-02-18 11h27.25.769836 +0100,
vertical.xlsx,The target is tilted.,135,3,3,0,0,0,0,0,0,0,0,0,0,0,0,0,1,1,1,135,space,12.986359600000014,None,0,1,1.2714461999999003,None,,,,0,0,0,1,0,3,3,7,,,,,159.5411884,,,,,,,,,,,,,,,,,,,,,159.52636710000002,159.5411884,160.0248375000001,160.02957630000014,160.04868570000008,161.32508860000007,0,1,1.2714461999999003,None,161.32528079999997,161.3400541000001,161.5407838000001,161.52468569999996,160.04868570000008,,,,,,,,,,,,,,,,,,,862,22,M,R,2026-02-18_11h27.25.462,VisualSearch_2526_3,,2025.2.4,2026-02-18 11h27.25.769836 +0100,
vertical.xlsx,The target is tilted.,135,4,4,0,0,1,1,1,1,1,1,1,1,1,1,1,1,11,12,135,space,12.986359600000014,None,0,1,5.145760499999824,None,,,,0,0,0,1,0,4,4,4,,,,,161.5407838000001,,,,,,,,,,,,,,,,,,,,,161.52547720000007,161.5407838000001,162.02447370000004,162.02917260000004,162.04033760000016,167.18928640000013,0,1,5.145760499999824,None,167.18951830000015,167.20428040000002,167.40469980000012,167.38858370000003,162.04033760000016,,,,,,,,,,,,,,,,,,,862,22,M,R,2026-02-18_11h27.25.462,VisualSearch_2526_3,,2025.2.4,2026-02-18 11h27.25.769836 +0100,
vertical.xlsx,The target is tilted.,135,5,5,0,1,0,0,0,0,0,0,0,0,0,0,0,0,0,1,135,space,12.986359600000014,None,1,1,0.9074279999999817,None,,,,0,0,0,1,0,5,5,3,,,,,167.40469980000012,,,,,,,,,,,,,,,,,,,,,167.3892813,167.40469980000012,167.88823860000002,167.8930378,167.90906370000016,168.82167190000018,1,1,0.9074279999999817,None,168.82186430000002,168.83681980000006,169.03731000000016,169.02114830000005,167.90906370000016,,,,,,,,,,,,,,,,,,,862,22,M,R,2026-02-18_11h27.25.462,VisualSearch_2526_3,,2025.2.4,2026-02-18 11h27.25.769836 +0100,
vertical.xlsx,The target is tilted.,135,6,6,0,0,1,1,1,0,0,0,0,0,0,0,0,1,3,4,135,space,12.986359600000014,None,0,1,1.0059042999998837,None,,,,0,0,0,1,0,6,6,6,,,,,169.03731000000016,,,,,,,,,,,,,,,,,,,,,169.02184940000006,169.03731000000016,169.52062980000005,169.5254599,169.54506560000004,170.55420860000004,0,1,1.0059042999998837,None,170.55439820000015,170.56925560000013,170.7694116,170.75357099999997,169.54506560000004,,,,,,,,,,,,,,,,,,,862,22,M,R,2026-02-18_11h27.25.462,VisualSearch_2526_3,,2025.2.4,2026-02-18 11h27.25.769836 +0100,
vertical.xlsx,The target is tilted.,135,7,7,0,1,1,1,1,0,0,0,0,0,0,0,0,0,3,4,135,space,12.986359600000014,None,1,1,0.7809698999999455,None,,,,0,0,0,1,0,7,7,2,,,,,170.7694116,,,,,,,,,,,,,,,,,,,,,170.75428929999998,170.7694116,171.25335710000013,171.25812840000003,171.27718460000006,172.07029950000015,1,1,0.7809698999999455,None,172.0704905,172.08540370000014,172.285748,172.26979490000008,171.27718460000006,,,,,,,,,,,,,,,,,,,862,22,M,R,2026-02-18_11h27.25.462,VisualSearch_2526_3,,2025.2.4,2026-02-18 11h27.25.769836 +0100,
vertical.xlsx,The target is tilted.,135,0,0,0,1,0,0,0,0,0,0,0,0,0,0,0,0,0,1,135,space,12.986359600000014,None,1,1,0.8675650000000132,None,space,4.087247599999955,None,0,0,0,1,,,,,0,0,0,3,176.40370500000017,,,,,,,,,,,,,,,,,,,,,176.39997310000012,176.40370500000017,176.90075780000006,176.9056541,176.92474570000013,177.8010194000001,,,,,177.80121710000003,177.8158578,178.01621710000018,178.00054599999999,,172.27679190000003,172.285748,172.285748,176.38475270000004,space,4.087247599999955,None,1,1,0.8675650000000132,None,,,,,,,,862,22,M,R,2026-02-18_11h27.25.462,VisualSearch_2526_3,,2025.2.4,2026-02-18 11h27.25.769836 +0100,
vertical.xlsx,The target is tilted.,135,1,1,0,1,1,1,1,1,1,1,1,1,1,1,1,0,11,12,135,space,12.986359600000014,None,1,1,3.2536206999998285,None,space,4.087247599999955,None,0,0,0,1,,,,,0,1,1,0,178.01621710000018,,,,,,,,,,,,,,,,,,,,,178.00128610000002,178.01621710000018,178.5004358000001,178.5057670000001,178.5249464000001,181.78233260000002,,,,,181.78252599999996,181.79763309999998,181.99808600000006,181.98206070000015,178.5249464000001,,,,,,,,1,1,3.2536206999998285,None,,,,,,,,862,22,M,R,2026-02-18_11h27.25.462,VisualSearch_2526_3,,2025.2.4,2026-02-18 11h27.25.769836 +0100,
vertical.xlsx,The target is tilted.,135,2,2,0,0,1,1,1,1,1,1,1,0,0,0,0,1,7,8,135,space,12.986359600000014,None,0,1,1.9575534000000516,None,space,4.087247599999955,None,0,0,0,1,,,,,0,2,2,5,181.99808600000006,,,,,,,,,,,,,,,,,,,,,181.98283779999997,181.99808600000006,182.48143570000002,182.48614550000002,182.50402729999996,184.4648297000001,,,,,184.4650706,184.47976300000005,184.68005890000018,184.66359269999998,182.50402729999996,,,,,,,,0,1,1.9575534000000516,None,,,,,,,,862,22,M,R,2026-02-18_11h27.25.462,VisualSearch_2526_3,,2025.2.4,2026-02-18 11h27.25.769836 +0100,
vertical.xlsx,The target is tilted.,135,3,3,0,0,0,0,0,0,0,0,0,0,0,0,0,1,1,1,135,space,12.986359600000014,None,0,1,0.9726113000001533,None,space,4.087247599999955,None,0,0,0,1,,,,,0,3,3,7,184.68005890000018,,,,,,,,,,,,,,,,,,,,,184.66437370000017,184.68005890000018,185.16334110000003,185.16612670000018,185.17973230000007,186.1639428000001,,,,,186.16414680000003,186.17879230000017,186.37949449999996,186.36314160000006,185.17973230000007,,,,,,,,0,1,0.9726113000001533,None,,,,,,,,862,22,M,R,2026-02-18_11h27.25.462,VisualSearch_2526_3,,2025.2.4,2026-02-18 11h27.25.769836 +0100,
vertical.xlsx,The target is tilted.,135,4,4,0,0,1,1,1,1,1,1,1,1,1,1,1,1,11,12,135,space,12.986359600000014,None,0,1,3.7977634999999736,None,space,4.087247599999955,None,0,0,0,1,,,,,0,4,4,4,186.37949449999996,,,,,,,,,,,,,,,,,,,,,186.36399010000014,186.37949449999996,186.86291560000018,186.86754150000002,186.88617780000004,190.69499960000007,,,,,190.6952056,190.7102304,190.91077430000018,190.89456470000005,186.88617780000004,,,,,,,,0,1,3.7977634999999736,None,,,,,,,,862,22,M,R,2026-02-18_11h27.25.462,VisualSearch_2526_3,,2025.2.4,2026-02-18 11h27.25.769836 +0100,
vertical.xlsx,The target is tilted.,135,5,5,0,1,1,1,1,0,0,0,0,0,0,0,0,0,3,4,135,space,12.986359600000014,None,1,1,0.700754699999834,None,space,4.087247599999955,None,0,0,0,1,,,,,0,5,5,2,190.91077430000018,,,,,,,,,,,,,,,,,,,,,190.89536410000005,190.91077430000018,191.39437040000007,191.39895100000012,191.4103,192.12721060000013,,,,,192.12741240000014,192.14287330000002,192.34330420000015,192.32717520000006,191.4103,,,,,,,,1,1,0.700754699999834,None,,,,,,,,862,22,M,R,2026-02-18_11h27.25.462,VisualSearch_2526_3,,2025.2.4,2026-02-18 11h27.25.769836 +0100,
vertical.xlsx,The target is tilted.,135,6,6,0,0,1,1,1,0,0,0,0,0,0,0,0,1,3,4,135,space,12.986359600000014,None,0,1,0.7777963999999429,None,space,4.087247599999955,None,0,0,0,1,,,,,0,6,6,6,192.34330420000015,,,,,,,,,,,,,,,,,,,,,192.3279758000001,192.34330420000015,192.82679910000002,192.83229800000004,192.85175630000003,193.64325959999996,,,,,193.64347540000017,193.65876220000018,193.85930270000017,193.8427818,192.85175630000003,,,,,,,,0,1,0.7777963999999429,None,,,,,,,,862,22,M,R,2026-02-18_11h27.25.462,VisualSearch_2526_3,,2025.2.4,2026-02-18 11h27.25.769836 +0100,
vertical.xlsx,The target is tilted.,135,7,7,0,1,1,1,1,1,1,1,1,0,0,0,0,0,7,8,135,space,12.986359600000014,None,1,1,2.0188662000000477,None,space,4.087247599999955,None,0,0,0,1,,,,,0,7,7,1,193.85930270000017,,,,,,,,,,,,,,,,,,,,,193.84352460000014,193.85930270000017,194.34284890000004,194.34764459999997,194.36731370000007,196.3923033000001,,,,,196.39247760000012,196.40761450000014,196.60805320000009,196.5919477,194.36731370000007,,,,,,,,1,1,2.0188662000000477,None,,,,,,,,862,22,M,R,2026-02-18_11h27.25.462,VisualSearch_2526_3,,2025.2.4,2026-02-18 11h27.25.769836 +0100,
vertical.xlsx,The target is tilted.,135,8,0,1,1,1,1,1,0,0,0,0,0,0,0,0,0,3,4,135,space,12.986359600000014,None,1,1,1.000021600000082,None,space,4.087247599999955,None,0,0,0,1,,,,,1,0,8,2,196.60805320000009,,,,,,,,,,,,,,,,,,,,,196.59271839999997,196.60805320000009,197.0920195000001,197.09708360000013,197.11651359999996,198.12524440000016,,,,,198.12547949999998,198.14020920000007,198.34081809999998,198.32455210000012,197.11651359999996,,,,,,,,1,1,1.000021600000082,None,,,,,,,,862,22,M,R,2026-02-18_11h27.25.462,VisualSearch_2526_3,,2025.2.4,2026-02-18 11h27.25.769836 +0100,
vertical.xlsx,The target is tilted.,135,9,1,1,0,0,0,0,0,0,0,0,0,0,0,0,1,1,1,135,space,12.986359600000014,None,0,1,0.5668263999998544,None,space,4.087247599999955,None,0,0,0,1,,,,,1,1,9,7,198.34081809999998,,,,,,,,,,,,,,,,,,,,,198.3252569000001,198.34081809999998,198.82394130000012,198.82871380000006,198.84809540000015,199.4245174,,,,,199.4247123,199.43956350000008,199.64005050000014,199.62382380000008,198.84809540000015,,,,,,,,0,1,0.5668263999998544,None,,,,,,,,862,22,M,R,2026-02-18_11h27.25.462,VisualSearch_2526_3,,2025.2.4,2026-02-18 11h27.25.769836 +0100,
vertical.xlsx,The target is tilted.,135,10,2,1,1,1,1,1,1,1,1,1,1,1,1,1,0,11,12,135,space,12.986359600000014,None,1,1,2.108526799999936,None,space,4.087247599999955,None,0,0,0,1,,,,,1,2,10,0,199.64005050000014,,,,,,,,,,,,,,,,,,,,,199.62466510000013,199.64005050000014,200.12359420000007,200.1284882,200.14784110000005,202.27211120000015,,,,,202.27223040000013,202.28832880000004,202.48883520000004,202.4722478000001,200.14784110000005,,,,,,,,1,1,2.108526799999936,None,,,,,,,,862,22,M,R,2026-02-18_11h27.25.462,VisualSearch_2526_3,,2025.2.4,2026-02-18 11h27.25.769836 +0100,
vertical.xlsx,The target is tilted.,135,11,3,1,1,1,1,1,1,1,1,1,0,0,0,0,0,7,8,135,space,12.986359600000014,None,1,1,0.8949473999998645,None,space,4.087247599999955,None,0,0,0,1,,,,,1,3,11,1,202.48883520000004,,,,,,,,,,,,,,,,,,,,,202.47302639999998,202.48883520000004,202.97205410000015,202.97678259999998,202.99572310000008,203.90514780000012,,,,,203.9053497,203.9208774000001,204.12119389999998,204.10495660000015,202.99572310000008,,,,,,,,1,1,0.8949473999998645,None,,,,,,,,862,22,M,R,2026-02-18_11h27.25.462,VisualSearch_2526_3,,2025.2.4,2026-02-18 11h27.25.769836 +0100,
vertical.xlsx,The target is tilted.,135,12,4,1,0,1,1,1,1,1,1,1,1,1,1,1,1,11,12,135,space,12.986359600000014,None,0,1,3.0862793000001147,None,space,4.087247599999955,None,0,0,0,1,,,,,1,4,12,4,204.12119389999998,,,,,,,,,,,,,,,,,,,,,204.10569850000002,204.12119389999998,204.60501920000002,204.60988020000013,204.62903240000014,207.72083080000016,,,,,207.7210258,207.73590030000014,207.93631870000013,207.92036370000005,204.62903240000014,,,,,,,,0,1,3.0862793000001147,None,,,,,,,,862,22,M,R,2026-02-18_11h27.25.462,VisualSearch_2526_3,,2025.2.4,2026-02-18 11h27.25.769836 +0100,
vertical.xlsx,The target is tilted.,135,13,5,1,0,1,1,1,1,1,1,1,0,0,0,0,1,7,8,135,space,12.986359600000014,None,0,1,2.1744470000001,None,space,4.087247599999955,None,0,0,0,1,,,,,1,5,13,5,207.93631870000013,,,,,,,,,,,,,,,,,,,,,207.92109860000005,207.93631870000013,208.42000430000007,208.42493160000004,208.44491660000017,210.63509580000004,,,,,210.63521630000014,210.65109559999996,210.851631,210.83542650000004,208.44491660000017,,,,,,,,0,1,2.1744470000001,None,,,,,,,,862,22,M,R,2026-02-18_11h27.25.462,VisualSearch_2526_3,,2025.2.4,2026-02-18 11h27.25.769836 +0100,
vertical.xlsx,The target is tilted.,135,14,6,1,0,1,1,1,0,0,0,0,0,0,0,0,1,3,4,135,space,12.986359600000014,None,0,1,0.8269860000000335,None,space,4.087247599999955,None,0,0,0,1,,,,,1,6,14,6,210.851631,,,,,,,,,,,,,,,,,,,,,210.83619680000015,210.851631,211.3353251000001,211.3400967,211.35889900000006,212.20139370000015,,,,,212.20159560000002,212.21694630000002,212.4174865,212.40116620000003,211.35889900000006,,,,,,,,0,1,0.8269860000000335,None,,,,,,,,862,22,M,R,2026-02-18_11h27.25.462,VisualSearch_2526_3,,2025.2.4,2026-02-18 11h27.25.769836 +0100,
vertical.xlsx,The target is tilted.,135,15,7,1,1,0,0,0,0,0,0,0,0,0,0,0,0,0,1,135,space,12.986359600000014,None,1,1,0.6060719000001882,None,space,4.087247599999955,None,0,0,0,1,,,,,1,7,15,3,212.4174865,,,,,,,,,,,,,,,,,,,,,212.4018903000001,212.4174865,212.90124320000018,212.9058665,212.91723500000012,213.53479970000012,,,,,213.53499290000013,213.54988490000005,213.7503253,213.7341781,212.91723500000012,,,,,,,,1,1,0.6060719000001882,None,,,,,,,,862,22,M,R,2026-02-18_11h27.25.462,VisualSearch_2526_3,,2025.2.4,2026-02-18 11h27.25.769836 +0100,
vertical.xlsx,The target is tilted.,135,16,0,2,1,1,1,1,1,1,1,1,0,0,0,0,0,7,8,135,space,12.986359600000014,None,1,1,0.6049037999998745,None,space,4.087247599999955,None,0,0,0,1,,,,,2,0,16,1,213.7503253,,,,,,,,,,,,,,,,,,,,,213.73490960000004,213.7503253,214.23386900000014,214.23866640000006,214.25826400000005,214.86731650000002,,,,,214.8675095000001,214.88240400000018,215.08286710000016,215.06682760000012,214.25826400000005,,,,,,,,1,1,0.6049037999998745,None,,,,,,,,862,22,M,R,2026-02-18_11h27.25.462,VisualSearch_2526_3,,2025.2.4,2026-02-18 11h27.25.769836 +0100,
vertical.xlsx,The target is tilted.,135,17,1,2,0,1,1,1,1,1,1,1,1,1,1,1,1,11,12,135,space,12.986359600000014,None,0,1,1.8011741000000256,None,space,4.087247599999955,None,0,0,0,1,,,,,2,1,17,4,215.08286710000016,,,,,,,,,,,,,,,,,,,,,215.06758579999996,215.08286710000016,215.56666100000007,215.57143410000003,215.5907807000001,217.39974070000017,,,,,217.39993570000001,217.41474740000012,217.61536680000017,217.5993559000001,215.5907807000001,,,,,,,,0,1,1.8011741000000256,None,,,,,,,,862,22,M,R,2026-02-18_11h27.25.462,VisualSearch_2526_3,,2025.2.4,2026-02-18 11h27.25.769836 +0100,
vertical.xlsx,The target is tilted.,135,18,2,2,1,1,1,1,0,0,0,0,0,0,0,0,0,3,4,135,space,12.986359600000014,None,1,1,0.6839904000000843,None,space,4.087247599999955,None,0,0,0,1,,,,,2,2,18,2,217.61536680000017,,,,,,,,,,,,,,,,,,,,,217.600187,217.61536680000017,218.09875069999998,218.10394210000004,218.1229608000001,218.81571050000002,,,,,218.81592450000016,218.8308396,219.03106070000013,219.01483870000015,218.1229608000001,,,,,,,,1,1,0.6839904000000843,None,,,,,,,,862,22,M,R,2026-02-18_11h27.25.462,VisualSearch_2526_3,,2025.2.4,2026-02-18 11h27.25.769836 +0100,
vertical.xlsx,The target is tilted.,135,19,3,2,1,1,1,1,1,1,1,1,1,1,1,1,0,11,12,135,space,12.986359600000014,None,1,1,1.6368224999998802,None,space,4.087247599999955,None,0,0,0,1,,,,,2,3,19,0,219.03106070000013,,,,,,,,,,,,,,,,,,,,,219.01559930000008,219.03106070000013,219.51501730000018,219.52034170000002,219.53968670000017,221.18101780000006,,,,,221.18121110000016,221.19638970000005,221.39681200000018,221.3806373,219.53968670000017,,,,,,,,1,1,1.6368224999998802,None,,,,,,,,862,22,M,R,2026-02-18_11h27.25.462,VisualSearch_2526_3,,2025.2.4,2026-02-18 11h27.25.769836 +0100,
vertical.xlsx,The target is tilted.,135,20,4,2,0,1,1,1,1,1,1,1,0,0,0,0,1,7,8,135,space,12.986359600000014,None,0,1,1.31622080000011,None,space,4.087247599999955,None,0,0,0,1,,,,,2,4,20,5,221.39681200000018,,,,,,,,,,,,,,,,,,,,,221.38137810000012,221.39681200000018,221.88048890000005,221.8853074000001,221.89817260000018,223.22979699999996,,,,,223.22999790000017,223.24546740000005,223.44593200000008,223.42964930000016,221.89817260000018,,,,,,,,0,1,1.31622080000011,None,,,,,,,,862,22,M,R,2026-02-18_11h27.25.462,VisualSearch_2526_3,,2025.2.4,2026-02-18 11h27.25.769836 +0100,
vertical.xlsx,The target is tilted.,135,21,5,2,0,0,0,0,0,0,0,0,0,0,0,0,1,1,1,135,space,12.986359600000014,None,0,1,0.7158362000000125,None,space,4.087247599999955,None,0,0,0,1,,,,,2,5,21,7,223.44593200000008,,,,,,,,,,,,,,,,,,,,,223.43039420000014,223.44593200000008,223.92962940000007,223.93434330000014,223.95350830000007,224.6798940000001,,,,,224.6801127000001,224.69484699999998,224.89519259999997,224.87899490000018,223.95350830000007,,,,,,,,0,1,0.7158362000000125,None,,,,,,,,862,22,M,R,2026-02-18_11h27.25.462,VisualSearch_2526_3,,2025.2.4,2026-02-18 11h27.25.769836 +0100,
vertical.xlsx,The target is tilted.,135,22,6,2,1,0,0,0,0,0,0,0,0,0,0,0,0,0,1,135,space,12.986359600000014,None,1,1,0.5065468999998757,None,space,4.087247599999955,None,0,0,0,1,,,,,2,6,22,3,224.89519259999997,,,,,,,,,,,,,,,,,,,,,224.87973499999998,224.89519259999997,225.37900000000013,225.3837853,225.40266740000015,225.91228680000017,,,,,225.91300309999997,225.92762330000005,226.12795660000006,226.11195310000016,225.40266740000015,,,,,,,,1,1,0.5065468999998757,None,,,,,,,,862,22,M,R,2026-02-18_11h27.25.462,VisualSearch_2526_3,,2025.2.4,2026-02-18 11h27.25.769836 +0100,
vertical.xlsx,The target is tilted.,135,23,7,2,0,1,1,1,0,0,0,0,0,0,0,0,1,3,4,135,space,12.986359600000014,None,0,1,0.7842258999999103,None,space,4.087247599999955,None,0,0,0,1,,,,,2,7,23,6,226.12795660000006,,,,,,,,,,,,,,,,,,,,,226.11265930000013,226.12795660000006,226.61177210000005,226.61715320000008,226.63677410000014,227.42855910000003,,,,,227.42875780000008,227.44338470000002,227.6437211,227.62792809999996,226.63677410000014,,,,,,,,0,1,0.7842258999999103,None,,,,,,,,862,22,M,R,2026-02-18_11h27.25.462,VisualSearch_2526_3,,2025.2.4,2026-02-18 11h27.25.769836 +0100,
vertical.xlsx,The target is tilted.,135,24,0,3,1,1,1,1,0,0,0,0,0,0,0,0,0,3,4,135,space,12.986359600000014,None,1,1,1.176435999999967,None,space,4.087247599999955,None,0,0,0,1,,,,,3,0,24,2,227.6437211,,,,,,,,,,,,,,,,,,,,,227.62865710000005,227.6437211,228.12759060000008,228.13244580000014,228.1518231,229.34363370000005,,,,,229.34382700000015,229.35940300000016,229.55982919999997,229.54363510000007,228.1518231,,,,,,,,1,1,1.176435999999967,None,,,,,,,,862,22,M,R,2026-02-18_11h27.25.462,VisualSearch_2526_3,,2025.2.4,2026-02-18 11h27.25.769836 +0100,
vertical.xlsx,The target is tilted.,135,25,1,3,0,0,0,0,0,0,0,0,0,0,0,0,1,1,1,135,space,12.986359600000014,None,0,1,0.4670022999998764,None,space,4.087247599999955,None,0,0,0,1,,,,,3,1,25,7,229.55982919999997,,,,,,,,,,,,,,,,,,,,,229.54439720000005,229.55982919999997,230.04331200000001,230.04808390000017,230.0671996000001,230.54377440000007,,,,,230.5439699000001,230.5589139000001,230.75928799999997,230.74306939999997,230.0671996000001,,,,,,,,0,1,0.4670022999998764,None,,,,,,,,862,22,M,R,2026-02-18_11h27.25.462,VisualSearch_2526_3,,2025.2.4,2026-02-18 11h27.25.769836 +0100,
vertical.xlsx,The target is tilted.,135,26,2,3,0,1,1,1,1,1,1,1,0,0,0,0,1,7,8,135,space,12.986359600000014,None,0,1,1.9966115999998237,None,space,4.087247599999955,None,0,0,0,1,,,,,3,2,26,5,230.75928799999997,,,,,,,,,,,,,,,,,,,,,230.74385570000004,230.75928799999997,231.24280520000002,231.24746590000018,231.26630180000006,233.2754441000002,,,,,233.27564040000016,233.29073530000005,233.49139800000012,233.47527579999996,231.26630180000006,,,,,,,,0,1,1.9966115999998237,None,,,,,,,,862,22,M,R,2026-02-18_11h27.25.462,VisualSearch_2526_3,,2025.2.4,2026-02-18 11h27.25.769836 +0100,
vertical.xlsx,The target is tilted.,135,27,3,3,1,1,1,1,1,1,1,1,1,1,1,1,0,11,12,135,space,12.986359600000014,None,1,1,1.3623671999998805,None,space,4.087247599999955,None,0,0,0,1,,,,,3,3,27,0,233.49139800000012,,,,,,,,,,,,,,,,,,,,,233.47600899999998,233.49139800000012,233.97499560000006,233.97973079999997,233.9992969,235.3737443,,,,,235.37386370000013,235.3898349000001,,235.57397220000007,233.9992969,,,,,,,,1,1,1.3623671999998805,None,,,,,,,,862,22,M,R,2026-02-18_11h27.25.462,VisualSearch_2526_3,,2025.2.4,2026-02-18 11h27.25.769836 +0100,
vertical.xlsx,The target is tilted.,135,28,4,3,0,1,1,1,0,0,0,0,0,0,0,0,1,3,4,135,space,12.986359600000014,None,0,1,0.7393904000000475,None,space,4.087247599999955,None,0,0,0,1,,,,,3,4,28,6,235.59027130000004,,,,,,,,,,,,,,,,,,,,,235.5747533000001,235.59027130000004,236.07405970000013,236.07886959999996,236.09855519999996,236.84017360000007,,,,,236.84029440000018,236.85581700000012,237.05646769999998,237.0401928000001,236.09855519999996,,,,,,,,0,1,0.7393904000000475,None,,,,,,,,862,22,M,R,2026-02-18_11h27.25.462,VisualSearch_2526_3,,2025.2.4,2026-02-18 11h27.25.769836 +0100,
vertical.xlsx,The target is tilted.,135,29,5,3,1,1,1,1,1,1,1,1,0,0,0,0,0,7,8,135,space,12.986359600000014,None,1,1,0.7073585999999068,None,space,4.087247599999955,None,0,0,0,1,,,,,3,5,29,1,237.05646769999998,,,,,,,,,,,,,,,,,,,,,237.04096620000018,237.05646769999998,237.54015790000017,237.54498669999998,237.56383090000008,238.2734782,,,,,238.2736843,238.28866870000002,238.48907640000016,238.47232840000015,237.56383090000008,,,,,,,,1,1,0.7073585999999068,None,,,,,,,,862,22,M,R,2026-02-18_11h27.25.462,VisualSearch_2526_3,,2025.2.4,2026-02-18 11h27.25.769836 +0100,
vertical.xlsx,The target is tilted.,135,30,6,3,1,0,0,0,0,0,0,0,0,0,0,0,0,0,1,135,space,12.986359600000014,None,1,1,0.4503853999999592,None,space,4.087247599999955,None,0,0,0,1,,,,,3,6,30,3,238.48907640000016,,,,,,,,,,,,,,,,,,,,,238.47311680000007,238.48907640000016,238.97226309999996,238.9769695,238.9931478000001,239.45586560000015,,,,,239.45598250000012,239.47134800000003,239.6715306000001,239.65571870000008,238.9931478000001,,,,,,,,1,1,0.4503853999999592,None,,,,,,,,862,22,M,R,2026-02-18_11h27.25.462,VisualSearch_2526_3,,2025.2.4,2026-02-18 11h27.25.769836 +0100,
vertical.xlsx,The target is tilted.,135,31,7,3,0,1,1,1,1,1,1,1,1,1,1,1,1,11,12,135,space,12.986359600000014,None,0,1,2.2428101000000424,None,space,4.087247599999955,None,0,0,0,1,,,,,3,7,31,4,239.6715306000001,,,,,,,,,,,,,,,,,,,,,239.65647490000015,239.6715306000001,240.15548060000015,240.16041050000013,240.17888870000002,242.43780549999997,,,,,242.4380102,242.45340690000012,242.65390100000013,242.6378605,240.17888870000002,,,,,,,,0,1,2.2428101000000424,None,,,,,,,,862,22,M,R,2026-02-18_11h27.25.462,VisualSearch_2526_3,,2025.2.4,2026-02-18 11h27.25.769836 +0100,
vertical.xlsx,The target is tilted.,135,32,0,4,0,1,1,1,1,1,1,1,0,0,0,0,1,7,8,135,space,12.986359600000014,None,0,1,1.5443689000001086,None,space,4.087247599999955,None,0,0,0,1,,,,,4,0,32,5,242.65390100000013,,,,,,,,,,,,,,,,,,,,,242.63863620000006,242.65390100000013,243.1377526000001,243.14356580000003,243.16285820000007,244.71994250000012,,,,,244.7201669000001,244.73565980000012,244.93619310000008,244.91996990000007,243.16285820000007,,,,,,,,0,1,1.5443689000001086,None,,,,,,,,862,22,M,R,2026-02-18_11h27.25.462,VisualSearch_2526_3,,2025.2.4,2026-02-18 11h27.25.769836 +0100,
vertical.xlsx,The target is tilted.,135,33,1,4,1,0,0,0,0,0,0,0,0,0,0,0,0,0,1,135,space,12.986359600000014,None,1,1,0.3911054000000149,None,space,4.087247599999955,None,0,0,0,1,,,,,4,1,33,3,244.93619310000008,,,,,,,,,,,,,,,,,,,,,244.92073419999997,244.93619310000008,245.41973860000007,245.42443390000017,245.44319059999998,245.83677910000006,,,,,245.8369861000001,245.85169459999997,246.05218780000018,246.0361292,245.44319059999998,,,,,,,,1,1,0.3911054000000149,None,,,,,,,,862,22,M,R,2026-02-18_11h27.25.462,VisualSearch_2526_3,,2025.2.4,2026-02-18 11h27.25.769836 +0100,
vertical.xlsx,The target is tilted.,135,34,2,4,0,1,1,1,1,1,1,1,1,1,1,1,1,11,12,135,space,12.986359600000014,None,0,1,3.283614200000102,None,space,4.087247599999955,None,0,0,0,1,,,,,4,2,34,4,246.05218780000018,,,,,,,,,,,,,,,,,,,,,246.0368950000002,246.05218780000018,246.5359767,246.54070509999997,246.5593563,249.85170030000018,,,,,249.8518964,249.86675950000017,250.06681430000003,250.05082660000016,246.5593563,,,,,,,,0,1,3.283614200000102,None,,,,,,,,862,22,M,R,2026-02-18_11h27.25.462,VisualSearch_2526_3,,2025.2.4,2026-02-18 11h27.25.769836 +0100,
vertical.xlsx,The target is tilted.,135,35,3,4,0,1,1,1,0,0,0,0,0,0,0,0,1,3,4,135,space,12.986359600000014,None,0,1,0.8203260000000228,None,space,4.087247599999955,None,0,0,0,1,,,,,4,3,35,6,250.06681430000003,,,,,,,,,,,,,,,,,,,,,250.05165190000002,250.06681430000003,250.55107810000004,250.55615360000002,250.57537560000014,251.40093880000018,,,,,251.40113350000001,251.4160792,251.6164579000001,251.60037620000003,250.57537560000014,,,,,,,,0,1,0.8203260000000228,None,,,,,,,,862,22,M,R,2026-02-18_11h27.25.462,VisualSearch_2526_3,,2025.2.4,2026-02-18 11h27.25.769836 +0100,
vertical.xlsx,The target is tilted.,135,36,4,4,1,1,1,1,0,0,0,0,0,0,0,0,0,3,4,135,space,12.986359600000014,None,1,1,0.5613058999999794,None,space,4.087247599999955,None,0,0,0,1,,,,,4,4,36,2,251.6164579000001,,,,,,,,,,,,,,,,,,,,,251.6010835000002,251.6164579000001,252.0998019000001,252.10472600000003,252.12400000000002,252.69969060000017,,,,,252.6998876,252.71547480000004,252.91589710000017,252.89969889999998,252.12400000000002,,,,,,,,1,1,0.5613058999999794,None,,,,,,,,862,22,M,R,2026-02-18_11h27.25.462,VisualSearch_2526_3,,2025.2.4,2026-02-18 11h27.25.769836 +0100,
vertical.xlsx,The target is tilted.,135,37,5,4,0,0,0,0,0,0,0,0,0,0,0,0,1,1,1,135,space,12.986359600000014,None,0,1,0.49312609999992674,None,space,4.087247599999955,None,0,0,0,1,,,,,4,5,37,7,252.91589710000017,,,,,,,,,,,,,,,,,,,,,252.90048460000003,252.91589710000017,253.39953490000016,253.40468320000014,253.4248338,253.93255369999997,,,,,253.9327733,253.94820010000012,254.14860720000001,254.13220739999997,253.4248338,,,,,,,,0,1,0.49312609999992674,None,,,,,,,,862,22,M,R,2026-02-18_11h27.25.462,VisualSearch_2526_3,,2025.2.4,2026-02-18 11h27.25.769836 +0100,
vertical.xlsx,The target is tilted.,135,38,6,4,1,1,1,1,1,1,1,1,0,0,0,0,0,7,8,135,space,12.986359600000014,None,1,1,1.9215946000001622,None,space,4.087247599999955,None,0,0,0,1,,,,,4,6,38,1,254.14860720000001,,,,,,,,,,,,,,,,,,,,,254.1329889000001,254.14860720000001,254.63201000000004,254.63674070000002,254.65590300000008,256.5815358,,,,,256.5817101,256.5969821000001,256.7974819000001,256.78132870000013,254.65590300000008,,,,,,,,1,1,1.9215946000001622,None,,,,,,,,862,22,M,R,2026-02-18_11h27.25.462,VisualSearch_2526_3,,2025.2.4,2026-02-18 11h27.25.769836 +0100,
vertical.xlsx,The target is tilted.,135,39,7,4,1,1,1,1,1,1,1,1,1,1,1,1,0,11,12,135,space,12.986359600000014,None,0,0,3.2589291000001595,None,space,4.087247599999955,None,0,0,0,1,,,,,4,7,39,0,256.7974819000001,,,,,,,,,,,,,,,,,,,,,256.78205720000005,256.7974819000001,257.28075230000013,257.28550210000003,257.3047266000001,260.57964130000005,,,,,260.5798378000002,260.5951871,260.79522770000017,260.7797292,257.3047266000001,,,,,,,,0,0,3.2589291000001595,None,,,,,,,,862,22,M,R,2026-02-18_11h27.25.462,VisualSearch_2526_3,,2025.2.4,2026-02-18 11h27.25.769836 +0100,
vertical.xlsx,The target is tilted.,135,40,0,5,0,1,1,1,0,0,0,0,0,0,0,0,1,3,4,135,space,12.986359600000014,None,0,1,0.9647207000000435,None,space,4.087247599999955,None,0,0,0,1,,,,,5,0,40,6,260.79522770000017,,,,,,,,,,,,,,,,,,,,,260.7806628000001,260.79522770000017,261.2785377,261.2812940000001,261.29491400000006,262.26272730000005,,,,,262.262923,262.27759060000017,262.47821820000013,262.4620228000001,261.29491400000006,,,,,,,,0,1,0.9647207000000435,None,,,,,,,,862,22,M,R,2026-02-18_11h27.25.462,VisualSearch_2526_3,,2025.2.4,2026-02-18 11h27.25.769836 +0100,
vertical.xlsx,The target is tilted.,135,41,1,5,0,0,0,0,0,0,0,0,0,0,0,0,1,1,1,135,space,12.986359600000014,None,0,1,0.5496313999999529,None,space,4.087247599999955,None,0,0,0,1,,,,,5,1,41,7,262.47821820000013,,,,,,,,,,,,,,,,,,,,,262.4627790000002,262.47821820000013,262.9615447000001,262.9654108,262.98290050000014,263.54472140000007,,,,,263.5448978000002,263.5602695,263.7610019000001,263.74489040000003,262.98290050000014,,,,,,,,0,1,0.5496313999999529,None,,,,,,,,862,22,M,R,2026-02-18_11h27.25.462,VisualSearch_2526_3,,2025.2.4,2026-02-18 11h27.25.769836 +0100,
vertical.xlsx,The target is tilted.,135,42,2,5,1,0,0,0,0,0,0,0,0,0,0,0,0,0,1,135,space,12.986359600000014,None,1,1,0.5342456999999285,None,space,4.087247599999955,None,0,0,0,1,,,,,5,2,42,3,263.7610019000001,,,,,,,,,,,,,,,,,,,,,263.74560080000015,263.7610019000001,264.24465540000006,264.2492340000001,264.26785830000017,264.81153700000004,,,,,264.81181549999997,264.82664050000017,265.0270823000001,265.0109757,264.26785830000017,,,,,,,,1,1,0.5342456999999285,None,,,,,,,,862,22,M,R,2026-02-18_11h27.25.462,VisualSearch_2526_3,,2025.2.4,2026-02-18 11h27.25.769836 +0100,
vertical.xlsx,The target is tilted.,135,43,3,5,1,1,1,1,1,1,1,1,1,1,1,1,0,11,12,135,space,12.986359600000014,None,1,1,0.6879690999999184,None,space,4.087247599999955,None,0,0,0,1,,,,,5,3,43,0,265.0270823000001,,,,,,,,,,,,,,,,,,,,,265.01170790000015,265.0270823000001,265.5106923000001,265.5153438,265.5344198,266.22733800000015,,,,,266.2275128000001,266.2426382000001,266.4430053000001,266.4270084,265.5344198,,,,,,,,1,1,0.6879690999999184,None,,,,,,,,862,22,M,R,2026-02-18_11h27.25.462,VisualSearch_2526_3,,2025.2.4,2026-02-18 11h27.25.769836 +0100,
vertical.xlsx,The target is tilted.,135,44,4,5,1,1,1,1,1,1,1,1,0,0,0,0,0,7,8,135,space,12.986359600000014,None,1,1,0.6383185000001959,None,space,4.087247599999955,None,0,0,0,1,,,,,5,4,44,1,266.4430053000001,,,,,,,,,,,,,,,,,,,,,266.4277362,266.4430053000001,266.92656720000014,266.9313581000001,266.95203820000006,267.59360990000005,,,,,267.59380450000003,267.60850060000007,267.8089182000001,267.7925805,266.95203820000006,,,,,,,,1,1,0.6383185000001959,None,,,,,,,,862,22,M,R,2026-02-18_11h27.25.462,VisualSearch_2526_3,,2025.2.4,2026-02-18 11h27.25.769836 +0100,
vertical.xlsx,The target is tilted.,135,45,5,5,0,1,1,1,1,1,1,1,0,0,0,0,1,7,8,135,space,12.986359600000014,None,0,1,1.9692927999999483,None,space,4.087247599999955,None,0,0,0,1,,,,,5,5,45,5,267.8089182000001,,,,,,,,,,,,,,,,,,,,,267.79330200000004,267.8089182000001,268.2928584000001,268.2978015000001,268.31064979999996,270.29184610000016,,,,,270.29205990000014,270.30736920000004,270.5080082000002,270.49196000000006,268.31064979999996,,,,,,,,0,1,1.9692927999999483,None,,,,,,,,862,22,M,R,2026-02-18_11h27.25.462,VisualSearch_2526_3,,2025.2.4,2026-02-18 11h27.25.769836 +0100,
vertical.xlsx,The target is tilted.,135,46,6,5,0,1,1,1,1,1,1,1,1,1,1,1,1,11,12,135,space,12.986359600000014,None,0,1,2.007514800000081,None,space,4.087247599999955,None,0,0,0,1,,,,,5,6,46,4,270.5080082000002,,,,,,,,,,,,,,,,,,,,,270.49271479999993,270.5080082000002,270.99157960000025,270.9962902,271.01470829999994,273.0249116000002,,,,,273.0252382000001,273.03957749999995,273.2400162000001,273.2236626000001,271.01470829999994,,,,,,,,0,1,2.007514800000081,None,,,,,,,,862,22,M,R,2026-02-18_11h27.25.462,VisualSearch_2526_3,,2025.2.4,2026-02-18 11h27.25.769836 +0100,
vertical.xlsx,The target is tilted.,135,47,7,5,1,1,1,1,0,0,0,0,0,0,0,0,0,3,4,135,space,12.986359600000014,None,1,1,0.5908259999996517,None,space,4.087247599999955,None,0,0,0,1,,,,,5,7,47,2,273.2400162000001,,,,,,,,,,,,,,,,,,,,,273.22441219999996,273.2400162000001,273.7237084000001,273.72843260000013,273.7475909000002,274.34063549999996,,,,,274.3408417000003,274.35562959999993,274.5559353000001,274.53996889999985,273.7475909000002,,,,,,,,1,1,0.5908259999996517,None,,,,,,,,862,22,M,R,2026-02-18_11h27.25.462,VisualSearch_2526_3,,2025.2.4,2026-02-18 11h27.25.769836 +0100,
vertical.xlsx,The target is tilted.,135,48,0,6,1,0,0,0,0,0,0,0,0,0,0,0,0,0,1,135,space,12.986359600000014,None,1,1,0.39679749999959313,None,space,4.087247599999955,None,0,0,0,1,,,,,6,0,48,3,274.5559353000001,,,,,,,,,,,,,,,,,,,,,274.54076629999986,274.5559353000001,275.03971019999994,275.0444777,275.0635,275.47279090000006,,,,,275.4730130999999,275.4884927999999,275.68891199999985,275.6727530999999,275.0635,,,,,,,,1,1,0.39679749999959313,None,,,,,,,,862,22,M,R,2026-02-18_11h27.25.462,VisualSearch_2526_3,,2025.2.4,2026-02-18 11h27.25.769836 +0100,
vertical.xlsx,The target is tilted.,135,49,1,6,0,1,1,1,0,0,0,0,0,0,0,0,1,3,4,135,space,12.986359600000014,None,0,1,0.7288720999999896,None,space,4.087247599999955,None,0,0,0,1,,,,,6,1,49,6,275.68891199999985,,,,,,,,,,,,,,,,,,,,,275.67352670000014,275.68891199999985,276.1725705000001,276.1771630999999,276.1956568000003,276.9386778999999,,,,,276.93888119999997,276.9542401000001,277.1549262000001,277.13870040000006,276.1956568000003,,,,,,,,0,1,0.7288720999999896,None,,,,,,,,862,22,M,R,2026-02-18_11h27.25.462,VisualSearch_2526_3,,2025.2.4,2026-02-18 11h27.25.769836 +0100,
vertical.xlsx,The target is tilted.,135,50,2,6,1,1,1,1,1,1,1,1,1,1,1,1,0,11,12,135,space,12.986359600000014,None,1,1,1.0453146999998353,None,space,4.087247599999955,None,0,0,0,1,,,,,6,2,50,0,277.1549262000001,,,,,,,,,,,,,,,,,,,,,277.1394843999999,277.1549262000001,277.6386097000002,277.64436899999987,277.66368420000003,278.7208283000002,,,,,278.7209203,278.7371112000003,278.9369975000002,278.92091170000026,277.66368420000003,,,,,,,,1,1,1.0453146999998353,None,,,,,,,,862,22,M,R,2026-02-18_11h27.25.462,VisualSearch_2526_3,,2025.2.4,2026-02-18 11h27.25.769836 +0100,
vertical.xlsx,The target is tilted.,135,51,3,6,1,1,1,1,1,1,1,1,0,0,0,0,0,7,8,135,space,12.986359600000014,None,1,1,0.829285499999969,None,space,4.087247599999955,None,0,0,0,1,,,,,6,3,51,1,278.9369975000002,,,,,,,,,,,,,,,,,,,,,278.92167840000025,278.9369975000002,279.4209459000001,279.42570820000014,279.4437399000001,280.2873674,,,,,280.28756320000025,280.30290489999993,280.5029419,280.4868965000003,279.4437399000001,,,,,,,,1,1,0.829285499999969,None,,,,,,,,862,22,M,R,2026-02-18_11h27.25.462,VisualSearch_2526_3,,2025.2.4,2026-02-18 11h27.25.769836 +0100,
vertical.xlsx,The target is tilted.,135,52,4,6,0,0,0,0,0,0,0,0,0,0,0,0,1,1,1,135,space,12.986359600000014,None,0,1,0.5471926000000167,None,space,4.087247599999955,None,0,0,0,1,,,,,6,4,52,7,280.5029419,,,,,,,,,,,,,,,,,,,,,280.4876440999999,280.5029419,280.9869863000001,280.99174860000016,281.01090469999986,281.5696602999999,,,,,281.56978460000005,281.58554160000017,281.78615220000006,281.7700026,281.01090469999986,,,,,,,,0,1,0.5471926000000167,None,,,,,,,,862,22,M,R,2026-02-18_11h27.25.462,VisualSearch_2526_3,,2025.2.4,2026-02-18 11h27.25.769836 +0100,
vertical.xlsx,The target is tilted.,135,53,5,6,0,1,1,1,1,1,1,1,0,0,0,0,1,7,8,135,space,12.986359600000014,None,0,1,2.2379566999998133,None,space,4.087247599999955,None,0,0,0,1,,,,,6,5,53,5,281.78615220000006,,,,,,,,,,,,,,,,,,,,,281.7707366000002,281.78615220000006,282.26966000000016,282.2744402000001,282.29297440000005,284.53541310000014,,,,,284.53558910000015,284.5508222000001,284.7515055000001,284.7353621,282.29297440000005,,,,,,,,0,1,2.2379566999998133,None,,,,,,,,862,22,M,R,2026-02-18_11h27.25.462,VisualSearch_2526_3,,2025.2.4,2026-02-18 11h27.25.769836 +0100,
vertical.xlsx,The target is tilted.,135,54,6,6,0,1,1,1,1,1,1,1,1,1,1,1,1,11,12,135,space,12.986359600000014,None,0,1,2.5194041999998262,None,space,4.087247599999955,None,0,0,0,1,,,,,6,6,54,4,284.7515055000001,,,,,,,,,,,,,,,,,,,,,284.7361523000002,284.7515055000001,285.23492450000026,285.2395932000002,285.2588800000001,287.7844703000003,,,,,287.7846637,287.79935690000025,287.9995905000003,287.9834609000002,285.2588800000001,,,,,,,,0,1,2.5194041999998262,None,,,,,,,,862,22,M,R,2026-02-18_11h27.25.462,VisualSearch_2526_3,,2025.2.4,2026-02-18 11h27.25.769836 +0100,
vertical.xlsx,The target is tilted.,135,55,7,6,1,1,1,1,0,0,0,0,0,0,0,0,0,3,4,135,space,12.986359600000014,None,1,1,0.5036651999998867,None,space,4.087247599999955,None,0,0,0,1,,,,,6,7,55,2,287.9995905000003,,,,,,,,,,,,,,,,,,,,,287.98420390000024,287.9995905000003,288.4828599,288.48556410000015,288.49969829999986,289.0168977999999,,,,,289.01709600000027,289.03235770000015,289.23270530000013,289.21600360000025,288.49969829999986,,,,,,,,1,1,0.5036651999998867,None,,,,,,,,862,22,M,R,2026-02-18_11h27.25.462,VisualSearch_2526_3,,2025.2.4,2026-02-18 11h27.25.769836 +0100,
vertical.xlsx,The target is tilted.,135,56,0,7,1,1,1,1,1,1,1,1,1,1,1,1,0,11,12,135,space,12.986359600000014,None,1,1,0.699468600000273,None,space,4.087247599999955,None,0,0,0,1,,,,,7,0,56,0,289.23270530000013,,,,,,,,,,,,,,,,,,,,,289.2163054,289.23270530000013,289.71634370000015,289.72101610000004,289.74031790000004,290.44994139999994,,,,,290.45013380000023,290.4650850999999,290.66523089999987,290.6488979000003,289.74031790000004,,,,,,,,1,1,0.699468600000273,None,,,,,,,,862,22,M,R,2026-02-18_11h27.25.462,VisualSearch_2526_3,,2025.2.4,2026-02-18 11h27.25.769836 +0100,
vertical.xlsx,The target is tilted.,135,57,1,7,1,0,0,0,0,0,0,0,0,0,0,0,0,0,1,135,space,12.986359600000014,None,1,1,0.41694250000000466,None,space,4.087247599999955,None,0,0,0,1,,,,,7,1,57,3,290.66523089999987,,,,,,,,,,,,,,,,,,,,,290.64950550000026,290.66523089999987,291.14903630000003,291.15413939999985,291.16465700000003,291.58275930000013,,,,,291.5829535999999,291.59783070000026,291.7983605000002,291.7820438000001,291.16465700000003,,,,,,,,1,1,0.41694250000000466,None,,,,,,,,862,22,M,R,2026-02-18_11h27.25.462,VisualSearch_2526_3,,2025.2.4,2026-02-18 11h27.25.769836 +0100,
vertical.xlsx,The target is tilted.,135,58,2,7,1,1,1,1,1,1,1,1,0,0,0,0,0,7,8,135,space,12.986359600000014,None,1,1,0.9168306000001394,None,space,4.087247599999955,None,0,0,0,1,,,,,7,2,58,1,291.7983605000002,,,,,,,,,,,,,,,,,,,,,291.78284659999986,291.7983605000002,292.2813671000001,292.28605040000025,292.3044511999999,293.2320333,,,,,293.2322305,293.2470770000002,293.44745130000024,293.43100400000026,292.3044511999999,,,,,,,,1,1,0.9168306000001394,None,,,,,,,,862,22,M,R,2026-02-18_11h27.25.462,VisualSearch_2526_3,,2025.2.4,2026-02-18 11h27.25.769836 +0100,
vertical.xlsx,The target is tilted.,135,59,3,7,0,1,1,1,1,1,1,1,1,1,1,1,1,11,12,135,space,12.986359600000014,None,0,1,1.8980286999999407,None,space,4.087247599999955,None,0,0,0,1,,,,,7,3,59,4,293.44745130000024,,,,,,,,,,,,,,,,,,,,,293.4317711000001,293.44745130000024,293.9312815999999,293.9359055000002,293.9544083000003,295.8640707000002,,,,,295.8642619,295.8792054000003,296.07958970000004,296.0634200000002,293.9544083000003,,,,,,,,0,1,1.8980286999999407,None,,,,,,,,862,22,M,R,2026-02-18_11h27.25.462,VisualSearch_2526_3,,2025.2.4,2026-02-18 11h27.25.769836 +0100,
vertical.xlsx,The target is tilted.,135,60,4,7,0,1,1,1,0,0,0,0,0,0,0,0,1,3,4,135,space,12.986359600000014,None,0,1,0.6055301000001236,None,space,4.087247599999955,None,0,0,0,1,,,,,7,4,60,6,296.07958970000004,,,,,,,,,,,,,,,,,,,,,296.06418670000016,296.07958970000004,296.56321159999993,296.5678171000002,296.5793013,297.19701210000017,,,,,297.1972266999999,297.2120579,297.41219909999995,297.3961870999999,296.5793013,,,,,,,,0,1,0.6055301000001236,None,,,,,,,,862,22,M,R,2026-02-18_11h27.25.462,VisualSearch_2526_3,,2025.2.4,2026-02-18 11h27.25.769836 +0100,
vertical.xlsx,The target is tilted.,135,61,5,7,0,1,1,1,1,1,1,1,0,0,0,0,1,7,8,135,space,12.986359600000014,None,0,1,1.3494430999999167,None,space,4.087247599999955,None,0,0,0,1,,,,,7,5,61,5,297.41219909999995,,,,,,,,,,,,,,,,,,,,,297.39698870000007,297.41219909999995,297.89609270000005,297.9008577000002,297.92021720000025,299.2792950999999,,,,,299.2794897000001,299.2943538000002,299.49472230000015,299.4786491000002,297.92021720000025,,,,,,,,0,1,1.3494430999999167,None,,,,,,,,862,22,M,R,2026-02-18_11h27.25.462,VisualSearch_2526_3,,2025.2.4,2026-02-18 11h27.25.769836 +0100,
vertical.xlsx,The target is tilted.,135,62,6,7,1,1,1,1,0,0,0,0,0,0,0,0,0,3,4,135,space,12.986359600000014,None,1,1,0.873977300000206,None,space,4.087247599999955,None,0,0,0,1,,,,,7,6,62,2,299.49472230000015,,,,,,,,,,,,,,,,,,,,,299.4793966,299.49472230000015,299.9784000000002,299.9831713000001,300.0027848000002,300.87834880000014,,,,,300.8785206,300.8935508000002,301.0940570999999,301.0780907000001,300.0027848000002,,,,,,,,1,1,0.873977300000206,None,,,,,,,,862,22,M,R,2026-02-18_11h27.25.462,VisualSearch_2526_3,,2025.2.4,2026-02-18 11h27.25.769836 +0100,
vertical.xlsx,The target is tilted.,135,63,7,7,0,0,0,0,0,0,0,0,0,0,0,0,1,1,1,135,space,12.986359600000014,None,0,1,0.482760099999723,None,space,4.087247599999955,None,0,0,0,1,,,,,7,7,63,7,301.0940570999999,,,,,,,,,,,,,,,,,,,,,301.0788349000002,301.0940570999999,301.57777980000014,301.58271130000026,301.6022856000002,302.0935664000001,,,,,302.09362780000015,302.10942690000024,302.31008210000005,302.2934855000001,301.6022856000002,,,,,,,,0,1,0.482760099999723,None,,,,,,,,862,22,M,R,2026-02-18_11h27.25.462,VisualSearch_2526_3,,2025.2.4,2026-02-18 11h27.25.769836 +0100,
vertical.xlsx,The target is tilted.,135,64,0,8,1,0,0,0,0,0,0,0,0,0,0,0,0,0,1,135,space,12.986359600000014,None,1,1,0.5137353999998595,None,space,4.087247599999955,None,0,0,0,1,,,,,8,0,64,3,302.31008210000005,,,,,,,,,,,,,,,,,,,,,302.29419440000015,302.31008210000005,302.7937098,302.799033,302.81827850000013,303.34411780000005,,,,,303.34430910000015,303.3591541000003,303.5595810000002,303.54334440000025,302.81827850000013,,,,,,,,1,1,0.5137353999998595,None,,,,,,,,862,22,M,R,2026-02-18_11h27.25.462,VisualSearch_2526_3,,2025.2.4,2026-02-18 11h27.25.769836 +0100,
vertical.xlsx,The target is tilted.,135,65,1,8,0,1,1,1,1,1,1,1,1,1,1,1,1,11,12,135,space,12.986359600000014,None,0,1,2.5599498999999923,None,space,4.087247599999955,None,0,0,0,1,,,,,8,1,65,4,303.5595810000002,,,,,,,,,,,,,,,,,,,,,303.5441687,303.5595810000002,304.04317560000004,304.04785400000014,304.0592558000001,306.6254042000003,,,,,306.6255208,306.6407899000003,306.84149189999994,306.82529069999987,304.0592558000001,,,,,,,,0,1,2.5599498999999923,None,,,,,,,,862,22,M,R,2026-02-18_11h27.25.462,VisualSearch_2526_3,,2025.2.4,2026-02-18 11h27.25.769836 +0100,
vertical.xlsx,The target is tilted.,135,66,2,8,0,1,1,1,0,0,0,0,0,0,0,0,1,3,4,135,space,12.986359600000014,None,0,1,0.9001905000000079,None,space,4.087247599999955,None,0,0,0,1,,,,,8,2,66,6,306.84149189999994,,,,,,,,,,,,,,,,,,,,,306.8260179000001,306.84149189999994,307.32504970000014,307.3298096000001,307.3488911000002,308.2585977000001,,,,,308.25879020000025,308.27354489999993,308.4733997999999,308.4570848000001,307.3488911000002,,,,,,,,0,1,0.9001905000000079,None,,,,,,,,862,22,M,R,2026-02-18_11h27.25.462,VisualSearch_2526_3,,2025.2.4,2026-02-18 11h27.25.769836 +0100,
vertical.xlsx,The target is tilted.,135,67,3,8,0,0,0,0,0,0,0,0,0,0,0,0,1,1,1,135,space,12.986359600000014,None,0,1,0.639661199999864,None,space,4.087247599999955,None,0,0,0,1,,,,,8,3,67,7,308.4733997999999,,,,,,,,,,,,,,,,,,,,,308.4575133000001,308.4733997999999,308.9573094,308.9620470000002,308.9811465999999,309.6241941999999,,,,,309.6243869000002,309.6396812999999,309.8401475000003,309.82390409999994,308.9811465999999,,,,,,,,0,1,0.639661199999864,None,,,,,,,,862,22,M,R,2026-02-18_11h27.25.462,VisualSearch_2526_3,,2025.2.4,2026-02-18 11h27.25.769836 +0100,
vertical.xlsx,The target is tilted.,135,68,4,8,0,1,1,1,1,1,1,1,0,0,0,0,1,7,8,135,space,12.986359600000014,None,0,1,2.262608099999852,None,space,4.087247599999955,None,0,0,0,1,,,,,8,4,68,5,309.8401475000003,,,,,,,,,,,,,,,,,,,,,309.8246786000002,309.8401475000003,310.32337889999985,310.32800650000013,310.3469571000003,312.6226389000001,,,,,312.62284079999995,312.6382451000002,312.8387731999999,312.82219340000006,310.3469571000003,,,,,,,,0,1,2.262608099999852,None,,,,,,,,862,22,M,R,2026-02-18_11h27.25.462,VisualSearch_2526_3,,2025.2.4,2026-02-18 11h27.25.769836 +0100,
vertical.xlsx,The target is tilted.,135,69,5,8,1,1,1,1,1,1,1,1,0,0,0,0,0,7,8,135,space,12.986359600000014,None,1,1,1.3793986000000587,None,space,4.087247599999955,None,0,0,0,1,,,,,8,5,69,1,312.8387731999999,,,,,,,,,,,,,,,,,,,,,312.82298590000005,312.8387731999999,313.32207470000026,313.3268111,313.3455526,314.7377322,,,,,314.7378510000001,314.7542506000002,,314.93821920000005,313.3455526,,,,,,,,1,1,1.3793986000000587,None,,,,,,,,862,22,M,R,2026-02-18_11h27.25.462,VisualSearch_2526_3,,2025.2.4,2026-02-18 11h27.25.769836 +0100,
vertical.xlsx,The target is tilted.,135,70,6,8,1,1,1,1,1,1,1,1,1,1,1,1,0,11,12,135,space,12.986359600000014,None,1,1,1.0582675999999083,None,space,4.087247599999955,None,0,0,0,1,,,,,8,6,70,0,314.95449680000024,,,,,,,,,,,,,,,,,,,,,314.93919630000005,314.95449680000024,315.4380643000002,315.44277510000006,315.45885650000014,316.5211944,,,,,316.52138450000007,316.53645040000015,316.73626260000015,316.72094519999996,315.45885650000014,,,,,,,,1,1,1.0582675999999083,None,,,,,,,,862,22,M,R,2026-02-18_11h27.25.462,VisualSearch_2526_3,,2025.2.4,2026-02-18 11h27.25.769836 +0100,
vertical.xlsx,The target is tilted.,135,71,7,8,1,1,1,1,0,0,0,0,0,0,0,0,0,3,4,135,space,12.986359600000014,None,0,0,0.6626670000000559,None,space,4.087247599999955,None,0,0,0,1,,,,,8,7,71,2,316.73626260000015,,,,,,,,,,,,,,,,,,,,,316.72169210000015,316.73626260000015,317.2202869,317.2243504999999,317.2435527,317.9201086999999,,,,,317.92030480000017,317.93580739999993,318.1362786000002,318.12023109999996,317.2435527,,,,,,,,0,0,0.6626670000000559,None,,,,,,,,862,22,M,R,2026-02-18_11h27.25.462,VisualSearch_2526_3,,2025.2.4,2026-02-18 11h27.25.769836 +0100,
vertical.xlsx,The target is tilted.,135,72,0,9,1,1,1,1,1,1,1,1,0,0,0,0,0,7,8,135,space,12.986359600000014,None,0,0,0.9286456999998336,None,space,4.087247599999955,None,0,0,0,1,,,,,9,0,72,1,318.1362786000002,,,,,,,,,,,,,,,,,,,,,318.1209529,318.1362786000002,318.61994400000026,318.6246504000003,318.6443071000001,319.586196,,,,,319.5863993999999,319.60166760000016,319.8022398999999,319.7860859,318.6443071000001,,,,,,,,0,0,0.9286456999998336,None,,,,,,,,862,22,M,R,2026-02-18_11h27.25.462,VisualSearch_2526_3,,2025.2.4,2026-02-18 11h27.25.769836 +0100,
vertical.xlsx,The target is tilted.,135,73,1,9,0,1,1,1,0,0,0,0,0,0,0,0,1,3,4,135,space,12.986359600000014,None,0,1,2.49751040000001,None,space,4.087247599999955,None,0,0,0,1,,,,,9,1,73,6,319.8022398999999,,,,,,,,,,,,,,,,,,,,,319.78681919999985,319.8022398999999,320.28590099999997,320.29058310000005,320.3061731999999,322.8175242,,,,,322.8176000000001,322.8338947,,323.01772619999997,320.3061731999999,,,,,,,,0,1,2.49751040000001,None,,,,,,,,862,22,M,R,2026-02-18_11h27.25.462,VisualSearch_2526_3,,2025.2.4,2026-02-18 11h27.25.769836 +0100,
vertical.xlsx,The target is tilted.,135,74,2,9,1,0,0,0,0,0,0,0,0,0,0,0,0,0,1,135,space,12.986359600000014,None,1,1,0.429874099999779,None,space,4.087247599999955,None,0,0,0,1,,,,,9,2,74,3,323.03404750000004,,,,,,,,,,,,,,,,,,,,,323.01856010000006,323.03404750000004,323.51752740000006,323.52234090000024,323.5409686999999,323.98398299999985,,,,,323.98416380000003,323.9997657000001,324.19979880000005,324.1837554000001,323.5409686999999,,,,,,,,1,1,0.429874099999779,None,,,,,,,,862,22,M,R,2026-02-18_11h27.25.462,VisualSearch_2526_3,,2025.2.4,2026-02-18 11h27.25.769836 +0100,
vertical.xlsx,The target is tilted.,135,75,3,9,0,1,1,1,1,1,1,1,0,0,0,0,1,7,8,135,space,12.986359600000014,None,0,1,1.7999745000001894,None,space,4.087247599999955,None,0,0,0,1,,,,,9,3,75,5,324.19979880000005,,,,,,,,,,,,,,,,,,,,,324.18451359999995,324.19979880000005,324.6835474000002,324.68822939999995,324.70724670000004,326.5165730000001,,,,,326.51677010000026,326.53204119999987,326.73233630000027,326.71591319999993,324.70724670000004,,,,,,,,0,1,1.7999745000001894,None,,,,,,,,862,22,M,R,2026-02-18_11h27.25.462,VisualSearch_2526_3,,2025.2.4,2026-02-18 11h27.25.769836 +0100,
vertical.xlsx,The target is tilted.,135,76,4,9,0,0,0,0,0,0,0,0,0,0,0,0,1,1,1,135,space,12.986359600000014,None,0,1,0.5964519999997719,None,space,4.087247599999955,None,0,0,0,1,,,,,9,4,76,7,326.73233630000027,,,,,,,,,,,,,,,,,,,,,326.71667060000004,326.73233630000027,327.2155187000001,327.2178000000001,327.23199980000004,327.8327061000002,,,,,327.83291220000024,327.84784160000004,328.0485325000002,328.0320571,327.23199980000004,,,,,,,,0,1,0.5964519999997719,None,,,,,,,,862,22,M,R,2026-02-18_11h27.25.462,VisualSearch_2526_3,,2025.2.4,2026-02-18 11h27.25.769836 +0100,
vertical.xlsx,The target is tilted.,135,77,5,9,1,1,1,1,1,1,1,1,1,1,1,1,0,11,12,135,space,12.986359600000014,None,1,1,1.908257400000366,None,space,4.087247599999955,None,0,0,0,1,,,,,9,5,77,0,328.0485325000002,,,,,,,,,,,,,,,,,,,,,328.0328264000002,328.0485325000002,328.53175220000026,328.5364212000002,328.5553017,330.46505950000005,,,,,330.4652959000002,330.4801798000001,330.68030680000015,330.66394809999997,328.5553017,,,,,,,,1,1,1.908257400000366,None,,,,,,,,862,22,M,R,2026-02-18_11h27.25.462,VisualSearch_2526_3,,2025.2.4,2026-02-18 11h27.25.769836 +0100,
vertical.xlsx,The target is tilted.,135,78,6,9,1,1,1,1,0,0,0,0,0,0,0,0,0,3,4,135,space,12.986359600000014,None,1,1,0.672392999999829,None,space,4.087247599999955,None,0,0,0,1,,,,,9,6,78,2,330.68030680000015,,,,,,,,,,,,,,,,,,,,,330.6644355000001,330.68030680000015,331.1637578000002,331.16643290000025,331.17995399999995,331.8632970000001,,,,,331.8634134000001,331.8795826000003,332.07990799999993,332.06372510000006,331.17995399999995,,,,,,,,1,1,0.672392999999829,None,,,,,,,,862,22,M,R,2026-02-18_11h27.25.462,VisualSearch_2526_3,,2025.2.4,2026-02-18 11h27.25.769836 +0100,
vertical.xlsx,The target is tilted.,135,79,7,9,0,1,1,1,1,1,1,1,1,1,1,1,1,11,12,135,space,12.986359600000014,None,0,1,2.2332824999998593,None,space,4.087247599999955,None,0,0,0,1,,,,,9,7,79,4,332.07990799999993,,,,,,,,,,,,,,,,,,,,,332.0644898000003,332.07990799999993,332.56357920000005,332.56816030000005,332.5797014000002,334.8291428,,,,,334.8293291000002,334.84481919999985,335.04533019999985,335.0291104999999,332.5797014000002,,,,,,,,0,1,2.2332824999998593,None,,,,,,,,862,22,M,R,2026-02-18_11h27.25.462,VisualSearch_2526_3,,2025.2.4,2026-02-18 11h27.25.769836 +0100,
vertical.xlsx,The target is tilted.,135,80,0,10,1,1,1,1,0,0,0,0,0,0,0,0,0,3,4,135,space,12.986359600000014,None,1,1,0.5534910999999738,None,space,4.087247599999955,None,0,0,0,1,,,,,10,0,80,2,335.04533019999985,,,,,,,,,,,,,,,,,,,,,335.02986669999996,335.04533019999985,335.52907979999986,335.53375230000006,335.5530934000001,336.1125776000001,,,,,336.11276950000024,336.1275720000001,336.3276444999999,336.3122401000003,335.5530934000001,,,,,,,,1,1,0.5534910999999738,None,,,,,,,,862,22,M,R,2026-02-18_11h27.25.462,VisualSearch_2526_3,,2025.2.4,2026-02-18 11h27.25.769836 +0100,
vertical.xlsx,The target is tilted.,135,81,1,10,0,1,1,1,1,1,1,1,1,1,1,1,1,11,12,135,space,12.986359600000014,None,0,1,1.9634319000001597,None,space,4.087247599999955,None,0,0,0,1,,,,,10,1,81,4,336.3276444999999,,,,,,,,,,,,,,,,,,,,,336.3130901000002,336.3276444999999,336.81170799999995,336.8163483000001,336.83466010000006,338.81090900000004,,,,,338.81114390000016,338.8263892000002,339.02687500000025,339.01075430000014,336.83466010000006,,,,,,,,0,1,1.9634319000001597,None,,,,,,,,862,22,M,R,2026-02-18_11h27.25.462,VisualSearch_2526_3,,2025.2.4,2026-02-18 11h27.25.769836 +0100,
vertical.xlsx,The target is tilted.,135,82,2,10,0,0,0,0,0,0,0,0,0,0,0,0,1,1,1,135,space,12.986359600000014,None,0,1,0.5475737000001573,None,space,4.087247599999955,None,0,0,0,1,,,,,10,2,82,7,339.02687500000025,,,,,,,,,,,,,,,,,,,,,339.01152849999994,339.02687500000025,339.51072279999994,339.5155142000001,339.53435920000015,340.0938370000001,,,,,340.09400979999987,340.1091239,340.30958940000005,340.2934077000002,339.53435920000015,,,,,,,,0,1,0.5475737000001573,None,,,,,,,,862,22,M,R,2026-02-18_11h27.25.462,VisualSearch_2526_3,,2025.2.4,2026-02-18 11h27.25.769836 +0100,
vertical.xlsx,The target is tilted.,135,83,3,10,1,1,1,1,1,1,1,1,0,0,0,0,0,7,8,135,space,12.986359600000014,None,0,0,1.4065382999997382,None,space,4.087247599999955,None,0,0,0,1,,,,,10,3,83,1,340.30958940000005,,,,,,,,,,,,,,,,,,,,,340.2942206,340.30958940000005,340.7931335999999,340.7977803000001,340.8162441000002,342.2261529,,,,,342.22636260000013,342.2413419000002,342.4415870999999,342.4258662,340.8162441000002,,,,,,,,0,0,1.4065382999997382,None,,,,,,,,862,22,M,R,2026-02-18_11h27.25.462,VisualSearch_2526_3,,2025.2.4,2026-02-18 11h27.25.769836 +0100,
vertical.xlsx,The target is tilted.,135,84,4,10,0,1,1,1,0,0,0,0,0,0,0,0,1,3,4,135,space,12.986359600000014,None,0,1,0.675818000000163,None,space,4.087247599999955,None,0,0,0,1,,,,,10,4,84,6,342.4415870999999,,,,,,,,,,,,,,,,,,,,,342.42664020000007,342.4415870999999,342.9249362000003,342.92764580000016,342.9414542000002,343.6258335,,,,,343.6260227999999,343.6410185000002,343.8414092999999,343.8252209,342.9414542000002,,,,,,,,0,1,0.675818000000163,None,,,,,,,,862,22,M,R,2026-02-18_11h27.25.462,VisualSearch_2526_3,,2025.2.4,2026-02-18 11h27.25.769836 +0100,
vertical.xlsx,The target is tilted.,135,85,5,10,1,1,1,1,1,1,1,1,1,1,1,1,0,11,12,135,space,12.986359600000014,None,1,1,0.9526706999999988,None,space,4.087247599999955,None,0,0,0,1,,,,,10,5,85,0,343.8414092999999,,,,,,,,,,,,,,,,,,,,,343.82592260000024,343.8414092999999,344.32498120000014,344.32963040000027,344.3484292999999,345.3084031000001,,,,,345.30859220000025,345.3238480000002,345.52381360000004,345.50773790000017,344.3484292999999,,,,,,,,1,1,0.9526706999999988,None,,,,,,,,862,22,M,R,2026-02-18_11h27.25.462,VisualSearch_2526_3,,2025.2.4,2026-02-18 11h27.25.769836 +0100,
vertical.xlsx,The target is tilted.,135,86,6,10,0,1,1,1,1,1,1,1,0,0,0,0,1,7,8,135,space,12.986359600000014,None,0,1,1.4517800999997235,None,space,4.087247599999955,None,0,0,0,1,,,,,10,6,86,5,345.52381360000004,,,,,,,,,,,,,,,,,,,,,345.5085142999999,345.52381360000004,346.0069372999999,346.01158420000024,346.0263553000002,347.4908229,,,,,347.49101429999996,347.5062832000001,347.70569679999994,347.68942100000027,346.0263553000002,,,,,,,,0,1,1.4517800999997235,None,,,,,,,,862,22,M,R,2026-02-18_11h27.25.462,VisualSearch_2526_3,,2025.2.4,2026-02-18 11h27.25.769836 +0100,
vertical.xlsx,The target is tilted.,135,87,7,10,1,0,0,0,0,0,0,0,0,0,0,0,0,0,1,135,space,12.986359600000014,None,1,1,0.4029245000001538,None,space,4.087247599999955,None,0,0,0,1,,,,,10,7,87,3,347.70569679999994,,,,,,,,,,,,,,,,,,,,,347.68971160000024,347.70569679999994,348.1899712000002,348.19467869999994,348.20791970000005,348.62310890000003,,,,,348.6232812999999,348.6390176000002,348.8386707000002,348.8226895999999,348.20791970000005,,,,,,,,1,1,0.4029245000001538,None,,,,,,,,862,22,M,R,2026-02-18_11h27.25.462,VisualSearch_2526_3,,2025.2.4,2026-02-18 11h27.25.769836 +0100,
vertical.xlsx,The target is tilted.,135,88,0,11,0,0,0,0,0,0,0,0,0,0,0,0,1,1,1,135,space,12.986359600000014,None,0,1,0.5523608999997123,None,space,4.087247599999955,None,0,0,0,1,,,,,11,0,88,7,348.8386707000002,,,,,,,,,,,,,,,,,,,,,348.8234276999999,348.8386707000002,349.3223767000002,349.32699960000014,349.3448575,349.90642060000005,,,,,349.9066439999999,349.92150800000013,350.1214961000003,350.1051313999999,349.3448575,,,,,,,,0,1,0.5523608999997123,None,,,,,,,,862,22,M,R,2026-02-18_11h27.25.462,VisualSearch_2526_3,,2025.2.4,2026-02-18 11h27.25.769836 +0100,
vertical.xlsx,The target is tilted.,135,89,1,11,1,1,1,1,1,1,1,1,1,1,1,1,0,11,12,135,space,12.986359600000014,None,1,1,0.43330379999997604,None,space,4.087247599999955,None,0,0,0,1,,,,,11,1,89,0,350.1214961000003,,,,,,,,,,,,,,,,,,,,,350.10588570000004,350.1214961000003,350.60538040000006,350.6100340999999,350.6294501,351.0725807000001,,,,,351.0727850999999,351.08763550000026,351.2879717000003,351.27174880000007,350.6294501,,,,,,,,1,1,0.43330379999997604,None,,,,,,,,862,22,M,R,2026-02-18_11h27.25.462,VisualSearch_2526_3,,2025.2.4,2026-02-18 11h27.25.769836 +0100,
vertical.xlsx,The target is tilted.,135,90,2,11,0,1,1,1,1,1,1,1,1,1,1,1,1,11,12,135,space,12.986359600000014,None,0,1,2.5246377999997094,None,space,4.087247599999955,None,0,0,0,1,,,,,11,2,90,4,351.2879717000003,,,,,,,,,,,,,,,,,,,,,351.2725498000002,351.2879717000003,351.7715783000001,351.77604840000026,351.79439449999995,354.32108829999993,,,,,354.3213100999999,354.3361931000002,354.5362711999999,354.5197819000002,351.79439449999995,,,,,,,,0,1,2.5246377999997094,None,,,,,,,,862,22,M,R,2026-02-18_11h27.25.462,VisualSearch_2526_3,,2025.2.4,2026-02-18 11h27.25.769836 +0100,
vertical.xlsx,The target is tilted.,135,91,3,11,1,1,1,1,0,0,0,0,0,0,0,0,0,3,4,135,space,12.986359600000014,None,1,1,0.6130685000002813,None,space,4.087247599999955,None,0,0,0,1,,,,,11,3,91,2,354.5362711999999,,,,,,,,,,,,,,,,,,,,,354.5202329000001,354.5362711999999,355.0201711000002,355.0248632,355.0446588000002,355.6700897000003,,,,,355.67021420000015,355.68583730000023,355.88582070000007,355.86960729999987,355.0446588000002,,,,,,,,1,1,0.6130685000002813,None,,,,,,,,862,22,M,R,2026-02-18_11h27.25.462,VisualSearch_2526_3,,2025.2.4,2026-02-18 11h27.25.769836 +0100,
vertical.xlsx,The target is tilted.,135,92,4,11,1,1,1,1,1,1,1,1,0,0,0,0,0,7,8,135,space,12.986359600000014,None,1,1,0.7558382000001984,None,space,4.087247599999955,None,0,0,0,1,,,,,11,4,92,1,355.88582070000007,,,,,,,,,,,,,,,,,,,,,355.8703415000002,355.88582070000007,356.36935180000023,356.3740153000001,356.3928957999999,357.15278490000014,,,,,357.15298800000005,357.168582,357.3685433000003,357.35215760000006,356.3928957999999,,,,,,,,1,1,0.7558382000001984,None,,,,,,,,862,22,M,R,2026-02-18_11h27.25.462,VisualSearch_2526_3,,2025.2.4,2026-02-18 11h27.25.769836 +0100,
vertical.xlsx,The target is tilted.,135,93,5,11,0,1,1,1,1,1,1,1,0,0,0,0,1,7,8,135,space,12.986359600000014,None,0,1,1.46143660000007,None,space,4.087247599999955,None,0,0,0,1,,,,,11,5,93,5,357.3685433000003,,,,,,,,,,,,,,,,,,,,,357.3529310000001,357.3685433000003,357.8520592000002,357.85670129999994,357.87575230000016,359.35159510000017,,,,,359.3517843000002,359.36742660000004,359.5675263999999,359.55142880000017,357.87575230000016,,,,,,,,0,1,1.46143660000007,None,,,,,,,,862,22,M,R,2026-02-18_11h27.25.462,VisualSearch_2526_3,,2025.2.4,2026-02-18 11h27.25.769836 +0100,
vertical.xlsx,The target is tilted.,135,94,6,11,1,0,0,0,0,0,0,0,0,0,0,0,0,0,1,135,space,12.986359600000014,None,1,1,0.3750228999997489,None,space,4.087247599999955,None,0,0,0,1,,,,,11,6,94,3,359.5675263999999,,,,,,,,,,,,,,,,,,,,,359.55219420000026,359.5675263999999,360.0511451,360.05580299999997,360.07508770000027,360.45201740000016,,,,,360.4522121000002,360.4667043000002,360.6671170000002,360.65115549999996,360.07508770000027,,,,,,,,1,1,0.3750228999997489,None,,,,,,,,862,22,M,R,2026-02-18_11h27.25.462,VisualSearch_2526_3,,2025.2.4,2026-02-18 11h27.25.769836 +0100,
vertical.xlsx,The target is tilted.,135,95,7,11,0,1,1,1,0,0,0,0,0,0,0,0,1,3,4,135,space,12.986359600000014,None,0,1,0.522814400000243,None,space,4.087247599999955,None,0,0,0,1,,,,,11,7,95,6,360.6671170000002,,,,,,,,,,,,,,,,,,,,,360.6519783000001,360.6671170000002,361.1506529999999,361.1555390000001,361.17502549999995,361.7011073000001,,,,,361.7013217000001,361.7163834999999,361.91575720000014,361.8995061000003,361.17502549999995,,,,,,,,0,1,0.522814400000243,None,,,,,,,,862,22,M,R,2026-02-18_11h27.25.462,VisualSearch_2526_3,,2025.2.4,2026-02-18 11h27.25.769836 +0100,
vertical.xlsx,The target is tilted.,135,96,0,12,0,0,0,0,0,0,0,0,0,0,0,0,1,1,1,135,space,12.986359600000014,None,0,1,0.5192839000001186,None,space,4.087247599999955,None,0,0,0,1,,,,,12,0,96,7,361.91575720000014,,,,,,,,,,,,,,,,,,,,,361.8999317,361.91575720000014,362.39971130000026,362.40435390000016,362.4227588000001,362.95047880000016,,,,,362.95066840000004,362.9656250999999,363.16553069999986,363.1496963000002,362.4227588000001,,,,,,,,0,1,0.5192839000001186,None,,,,,,,,862,22,M,R,2026-02-18_11h27.25.462,VisualSearch_2526_3,,2025.2.4,2026-02-18 11h27.25.769836 +0100,
vertical.xlsx,The target is tilted.,135,97,1,12,1,1,1,1,0,0,0,0,0,0,0,0,0,3,4,135,space,12.986359600000014,None,1,1,0.6939857000002121,None,space,4.087247599999955,None,0,0,0,1,,,,,12,1,97,2,363.16553069999986,,,,,,,,,,,,,,,,,,,,,363.15045669999995,363.16553069999986,363.64942429999996,363.65405399999986,363.67247380000003,364.3827941000002,,,,,364.38299789999996,364.39857510000024,364.59857799999986,364.5820690000003,363.67247380000003,,,,,,,,1,1,0.6939857000002121,None,,,,,,,,862,22,M,R,2026-02-18_11h27.25.462,VisualSearch_2526_3,,2025.2.4,2026-02-18 11h27.25.769836 +0100,
vertical.xlsx,The target is tilted.,135,98,2,12,1,1,1,1,1,1,1,1,1,1,1,1,0,11,12,135,space,12.986359600000014,None,1,1,1.2376280000003135,None,space,4.087247599999955,None,0,0,0,1,,,,,12,2,98,0,364.59857799999986,,,,,,,,,,,,,,,,,,,,,364.58282669999994,364.59857799999986,365.0821633000003,365.0867915000001,365.1058547,366.3487811000002,,,,,366.3489683999999,366.36438539999995,366.56436629999985,366.5482007000003,365.1058547,,,,,,,,1,1,1.2376280000003135,None,,,,,,,,862,22,M,R,2026-02-18_11h27.25.462,VisualSearch_2526_3,,2025.2.4,2026-02-18 11h27.25.769836 +0100,
vertical.xlsx,The target is tilted.,135,99,3,12,1,1,1,1,1,1,1,1,0,0,0,0,0,7,8,135,space,12.986359600000014,None,0,0,0.9734825000000455,None,space,4.087247599999955,None,0,0,0,1,,,,,12,3,99,1,366.56436629999985,,,,,,,,,,,,,,,,,,,,,366.5489503000001,366.56436629999985,367.04791950000003,367.05292269999995,367.0719181000002,368.0481238,,,,,368.0483446999999,368.0636809,368.26353270000004,368.24748699999986,367.0719181000002,,,,,,,,0,0,0.9734825000000455,None,,,,,,,,862,22,M,R,2026-02-18_11h27.25.462,VisualSearch_2526_3,,2025.2.4,2026-02-18 11h27.25.769836 +0100,
vertical.xlsx,The target is tilted.,135,100,4,12,0,1,1,1,0,0,0,0,0,0,0,0,1,3,4,135,space,12.986359600000014,None,0,1,0.7961003000000346,None,space,4.087247599999955,None,0,0,0,1,,,,,12,4,100,6,368.26353270000004,,,,,,,,,,,,,,,,,,,,,368.24824379999995,368.26353270000004,368.7472731999999,368.75195039999994,368.7709120000002,369.58027240000024,,,,,369.5804635000002,369.5958981000001,369.7961693,369.7802417999999,368.7709120000002,,,,,,,,0,1,0.7961003000000346,None,,,,,,,,862,22,M,R,2026-02-18_11h27.25.462,VisualSearch_2526_3,,2025.2.4,2026-02-18 11h27.25.769836 +0100,
vertical.xlsx,The target is tilted.,135,101,5,12,0,1,1,1,1,1,1,1,0,0,0,0,1,7,8,135,space,12.986359600000014,None,0,1,1.3649159000001418,None,space,4.087247599999955,None,0,0,0,1,,,,,12,5,101,5,369.7961693,,,,,,,,,,,,,,,,,,,,,369.78097189999994,369.7961693,370.28011949999996,370.28509740000004,370.3041031999999,371.6793848,,,,,371.6795288999999,371.6953114999999,371.8954016,371.87935360000006,370.3041031999999,,,,,,,,0,1,1.3649159000001418,None,,,,,,,,862,22,M,R,2026-02-18_11h27.25.462,VisualSearch_2526_3,,2025.2.4,2026-02-18 11h27.25.769836 +0100,
vertical.xlsx,The target is tilted.,135,102,6,12,0,1,1,1,1,1,1,1,1,1,1,1,1,11,12,135,space,12.986359600000014,None,0,1,1.436634900000172,None,space,4.087247599999955,None,0,0,0,1,,,,,12,6,102,4,371.8954016,,,,,,,,,,,,,,,,,,,,,371.88022160000014,371.8954016,372.3785845,372.38363860000004,372.4024615000001,373.8454512999999,,,,,373.8456383,373.8609042999999,374.06109170000013,374.0447351999999,372.4024615000001,,,,,,,,0,1,1.436634900000172,None,,,,,,,,862,22,M,R,2026-02-18_11h27.25.462,VisualSearch_2526_3,,2025.2.4,2026-02-18 11h27.25.769836 +0100,
vertical.xlsx,The target is tilted.,135,103,7,12,1,0,0,0,0,0,0,0,0,0,0,0,0,0,1,135,space,12.986359600000014,None,1,1,0.4275468999999248,None,space,4.087247599999955,None,0,0,0,1,,,,,12,7,103,3,374.06109170000013,,,,,,,,,,,,,,,,,,,,,374.0454916000001,374.06109170000013,374.54464840000014,374.5491647000001,374.5605625999999,374.9948208000003,,,,,374.9950070000002,375.0102027999999,375.21054070000014,375.19433490000006,374.5605625999999,,,,,,,,1,1,0.4275468999999248,None,,,,,,,,862,22,M,R,2026-02-18_11h27.25.462,VisualSearch_2526_3,,2025.2.4,2026-02-18 11h27.25.769836 +0100,
vertical.xlsx,The target is tilted.,135,104,0,13,1,0,0,0,0,0,0,0,0,0,0,0,0,0,1,135,space,12.986359600000014,None,1,1,0.5731267000001026,None,space,4.087247599999955,None,0,0,0,1,,,,,13,0,104,3,375.21054070000014,,,,,,,,,,,,,,,,,,,,,375.19503610000015,375.21054070000014,375.6940387000002,375.69874920000007,375.7180980999999,376.2943611000003,,,,,376.29454809999993,376.3096723000001,376.50982260000023,376.4935732000001,375.7180980999999,,,,,,,,1,1,0.5731267000001026,None,,,,,,,,862,22,M,R,2026-02-18_11h27.25.462,VisualSearch_2526_3,,2025.2.4,2026-02-18 11h27.25.769836 +0100,
vertical.xlsx,The target is tilted.,135,105,1,13,0,1,1,1,0,0,0,0,0,0,0,0,1,3,4,135,space,12.986359600000014,None,0,1,0.6005960000002233,None,space,4.087247599999955,None,0,0,0,1,,,,,13,1,105,6,376.50982260000023,,,,,,,,,,,,,,,,,,,,,376.4943595000002,376.50982260000023,376.99310850000006,376.9974767000001,377.0165741000003,377.6265659000003,,,,,377.62673870000003,377.64234650000003,377.8424203000002,377.82634170000006,377.0165741000003,,,,,,,,0,1,0.6005960000002233,None,,,,,,,,862,22,M,R,2026-02-18_11h27.25.462,VisualSearch_2526_3,,2025.2.4,2026-02-18 11h27.25.769836 +0100,
vertical.xlsx,The target is tilted.,135,106,2,13,0,0,0,0,0,0,0,0,0,0,0,0,1,1,1,135,space,12.986359600000014,None,0,1,0.46564079999961905,None,space,4.087247599999955,None,0,0,0,1,,,,,13,2,106,7,377.8424203000002,,,,,,,,,,,,,,,,,,,,,377.82714820000024,377.8424203000002,378.32621540000014,378.3308262000003,378.34993370000007,378.8260722000002,,,,,378.8262066,378.84162219999985,379.0418022000001,379.0262215,378.34993370000007,,,,,,,,0,1,0.46564079999961905,None,,,,,,,,862,22,M,R,2026-02-18_11h27.25.462,VisualSearch_2526_3,,2025.2.4,2026-02-18 11h27.25.769836 +0100,
vertical.xlsx,The target is tilted.,135,107,3,13,1,1,1,1,0,0,0,0,0,0,0,0,0,3,4,135,space,12.986359600000014,None,1,1,0.5873645000001488,None,space,4.087247599999955,None,0,0,0,1,,,,,13,3,107,2,379.0418022000001,,,,,,,,,,,,,,,,,,,,,379.0270754999999,379.0418022000001,379.52569990000006,379.53037270000027,379.54937510000013,380.14254830000004,,,,,380.142795,380.15772200000015,380.3581471,380.34199300000023,379.54937510000013,,,,,,,,1,1,0.5873645000001488,None,,,,,,,,862,22,M,R,2026-02-18_11h27.25.462,VisualSearch_2526_3,,2025.2.4,2026-02-18 11h27.25.769836 +0100,
vertical.xlsx,The target is tilted.,135,108,4,13,1,1,1,1,1,1,1,1,0,0,0,0,0,7,8,135,space,12.986359600000014,None,1,1,0.5000545000002603,None,space,4.087247599999955,None,0,0,0,1,,,,,13,4,108,1,380.3581471,,,,,,,,,,,,,,,,,,,,,380.3427809000002,380.3581471,380.8417807000003,380.84645909999995,380.8619116000002,381.3753873000003,,,,,381.3755920000001,381.3908091999999,381.5909363000003,381.5747678,380.8619116000002,,,,,,,,1,1,0.5000545000002603,None,,,,,,,,862,22,M,R,2026-02-18_11h27.25.462,VisualSearch_2526_3,,2025.2.4,2026-02-18 11h27.25.769836 +0100,
vertical.xlsx,The target is tilted.,135,109,5,13,0,1,1,1,1,1,1,1,1,1,1,1,1,11,12,135,space,12.986359600000014,None,0,1,2.4534362000003966,None,space,4.087247599999955,None,0,0,0,1,,,,,13,5,109,4,381.5909363000003,,,,,,,,,,,,,,,,,,,,,381.5755335000001,381.5909363000003,382.0745005000001,382.0791400999999,382.09763279999993,384.55722249999985,,,,,384.5574088999999,384.5727693000001,384.7727069,384.7566577,382.09763279999993,,,,,,,,0,1,2.4534362000003966,None,,,,,,,,862,22,M,R,2026-02-18_11h27.25.462,VisualSearch_2526_3,,2025.2.4,2026-02-18 11h27.25.769836 +0100,
vertical.xlsx,The target is tilted.,135,110,6,13,1,1,1,1,1,1,1,1,1,1,1,1,0,11,12,135,space,12.986359600000014,None,1,1,1.7865231999999196,None,space,4.087247599999955,None,0,0,0,1,,,,,13,6,110,0,384.7727069,,,,,,,,,,,,,,,,,,,,,384.75743260000013,384.7727069,385.2562055000001,385.26104199999986,385.2799746000003,387.07256540000003,,,,,387.0727549999999,387.0880586999999,387.2881639,387.2720114000001,385.2799746000003,,,,,,,,1,1,1.7865231999999196,None,,,,,,,,862,22,M,R,2026-02-18_11h27.25.462,VisualSearch_2526_3,,2025.2.4,2026-02-18 11h27.25.769836 +0100,
vertical.xlsx,The target is tilted.,135,111,7,13,0,1,1,1,1,1,1,1,0,0,0,0,1,7,8,135,space,12.986359600000014,None,0,1,1.4093078000000787,None,space,4.087247599999955,None,0,0,0,1,,,,,13,7,111,5,387.2881639,,,,,,,,,,,,,,,,,,,,,387.2728093000003,387.2881639,387.77203299999996,387.77671250000026,387.79572029999986,389.2217244000001,,,,,389.2219204999999,389.2367185999999,389.43730260000007,389.4211499999999,387.79572029999986,,,,,,,,0,1,1.4093078000000787,None,,,,,,,,862,22,M,R,2026-02-18_11h27.25.462,VisualSearch_2526_3,,2025.2.4,2026-02-18 11h27.25.769836 +0100,
vertical.xlsx,The target is tilted.,135,112,0,14,0,1,1,1,1,1,1,1,0,0,0,0,1,7,8,135,space,12.986359600000014,None,0,1,1.5538688000001457,None,space,4.087247599999955,None,0,0,0,1,,,,,14,0,112,5,389.43730260000007,,,,,,,,,,,,,,,,,,,,,389.42228279999995,389.43730260000007,389.9210501,389.9256619,389.9446405000001,391.50409330000025,,,,,391.50428149999993,391.51932580000016,391.7196024000002,391.7034202000002,389.9446405000001,,,,,,,,0,1,1.5538688000001457,None,,,,,,,,862,22,M,R,2026-02-18_11h27.25.462,VisualSearch_2526_3,,2025.2.4,2026-02-18 11h27.25.769836 +0100,
vertical.xlsx,The target is tilted.,135,113,1,14,1,1,1,1,1,1,1,1,1,1,1,1,0,11,12,135,space,12.986359600000014,None,0,0,1.7033191999998962,None,space,4.087247599999955,None,0,0,0,1,,,,,14,1,113,0,391.7196024000002,,,,,,,,,,,,,,,,,,,,,391.7041525000002,391.7196024000002,392.2030735999999,392.2077775999999,392.2271579999999,393.93612610000014,,,,,393.9363166999999,393.9517641,394.15155789999994,394.1353861,392.2271579999999,,,,,,,,0,0,1.7033191999998962,None,,,,,,,,862,22,M,R,2026-02-18_11h27.25.462,VisualSearch_2526_3,,2025.2.4,2026-02-18 11h27.25.769836 +0100,
vertical.xlsx,The target is tilted.,135,114,2,14,1,1,1,1,0,0,0,0,0,0,0,0,0,3,4,135,space,12.986359600000014,None,1,1,0.9603970000002846,None,space,4.087247599999955,None,0,0,0,1,,,,,14,2,114,2,394.15155789999994,,,,,,,,,,,,,,,,,,,,,394.1361024,394.15155789999994,394.6352612000003,394.63996340000017,394.6581117000003,395.6354567000001,,,,,395.6356478,395.6507435000001,395.85098270000003,395.8346254999999,394.6581117000003,,,,,,,,1,1,0.9603970000002846,None,,,,,,,,862,22,M,R,2026-02-18_11h27.25.462,VisualSearch_2526_3,,2025.2.4,2026-02-18 11h27.25.769836 +0100,
vertical.xlsx,The target is tilted.,135,115,3,14,1,1,1,1,1,1,1,1,0,0,0,0,0,7,8,135,space,12.986359600000014,None,1,1,1.2775209000001269,None,space,4.087247599999955,None,0,0,0,1,,,,,14,3,115,1,395.85098270000003,,,,,,,,,,,,,,,,,,,,,395.83533490000013,395.85098270000003,396.3345829000002,396.33912639999994,396.3576025,397.65144179999993,,,,,397.6516607000001,397.6668643999999,397.86682829999995,397.8507007999999,396.3576025,,,,,,,,1,1,1.2775209000001269,None,,,,,,,,862,22,M,R,2026-02-18_11h27.25.462,VisualSearch_2526_3,,2025.2.4,2026-02-18 11h27.25.769836 +0100,
vertical.xlsx,The target is tilted.,135,116,4,14,1,0,0,0,0,0,0,0,0,0,0,0,0,0,1,135,space,12.986359600000014,None,1,1,0.6176406999998107,None,space,4.087247599999955,None,0,0,0,1,,,,,14,4,116,3,397.86682829999995,,,,,,,,,,,,,,,,,,,,,397.8514354000001,397.86682829999995,398.35003059999985,398.3546855000002,398.3724199999999,399.0007333000001,,,,,399.0009243000002,399.01607279999985,399.2158296,399.20034640000017,398.3724199999999,,,,,,,,1,1,0.6176406999998107,None,,,,,,,,862,22,M,R,2026-02-18_11h27.25.462,VisualSearch_2526_3,,2025.2.4,2026-02-18 11h27.25.769836 +0100,
vertical.xlsx,The target is tilted.,135,117,5,14,0,1,1,1,1,1,1,1,1,1,1,1,1,11,12,135,space,12.986359600000014,None,0,1,2.774495300000126,None,space,4.087247599999955,None,0,0,0,1,,,,,14,5,117,4,399.2158296,,,,,,,,,,,,,,,,,,,,,399.2011639,399.2158296,399.69977600000016,399.70440299999996,399.7228614000003,402.49915190000024,,,,,402.4993400000001,402.5146892,402.71452710000017,402.6983364,399.7228614000003,,,,,,,,0,1,2.774495300000126,None,,,,,,,,862,22,M,R,2026-02-18_11h27.25.462,VisualSearch_2526_3,,2025.2.4,2026-02-18 11h27.25.769836 +0100,
vertical.xlsx,The target is tilted.,135,118,6,14,0,0,0,0,0,0,0,0,0,0,0,0,1,1,1,135,space,12.986359600000014,None,0,1,0.4756876999999804,None,space,4.087247599999955,None,0,0,0,1,,,,,14,6,118,7,402.71452710000017,,,,,,,,,,,,,,,,,,,,,402.6991593,402.71452710000017,403.1977064,403.2008069000001,403.21397420000017,403.69815889999995,,,,,403.69834939999987,403.7139485,403.9140020000002,403.89802440000017,403.21397420000017,,,,,,,,0,1,0.4756876999999804,None,,,,,,,,862,22,M,R,2026-02-18_11h27.25.462,VisualSearch_2526_3,,2025.2.4,2026-02-18 11h27.25.769836 +0100,
vertical.xlsx,The target is tilted.,135,119,7,14,0,1,1,1,0,0,0,0,0,0,0,0,1,3,4,135,space,12.986359600000014,None,0,1,1.0141814999997223,None,space,4.087247599999955,None,0,0,0,1,,,,,14,7,119,6,403.9140020000002,,,,,,,,,,,,,,,,,,,,,403.89888080000014,403.9140020000002,404.3977520000001,404.4025422000002,404.4197065000001,405.4475044000003,,,,,405.4476967000003,405.4632902000001,405.6806836000003,405.64710070000024,404.4197065000001,,,,,,,,0,1,1.0141814999997223,None,,,,,,,,862,22,M,R,2026-02-18_11h27.25.462,VisualSearch_2526_3,,2025.2.4,2026-02-18 11h27.25.769836 +0100,
vertical.xlsx,The target is tilted.,135,0,0,0,,,,,,,,,,,,,,,,,space,12.986359600000014,None,,,,,space,4.087247599999955,None,0,0,0,1,,,,,,,,,,,,,,,,,,,,,,,,,,,,,,,,,,,,,,,,,,,,,,,,,,,,,,,,,,,,,,,862,22,M,R,2026-02-18_11h27.25.462,VisualSearch_2526_3,,2025.2.4,2026-02-18 11h27.25.769836 +0100,
tilted.xlsx,The target is tilted.,117,0,0,0,0,1,1,1,1,1,1,1,0,0,0,0,1,7,8,117,space,6.211192500000379,None,0,1,6.254674799999975,None,,,,0,1,1,0,0,0,0,5,,,,,411.9272843000001,,,,,,,,,,,,,,,405.6806836000003,405.6806836000003,405.6806836000003,space,6.211192500000379,None,411.9229978000001,411.9272843000001,412.4103287999999,412.4150492000001,412.43422840000017,418.6918241000001,0,1,6.254674799999975,None,418.69202759999985,418.70735420000005,418.9072699999999,418.8910696999999,,,,,,,,,,,,,,,,,,,,862,22,M,R,2026-02-18_11h27.25.462,VisualSearch_2526_3,,2025.2.4,2026-02-18 11h27.25.769836 +0100,
tilted.xlsx,The target is tilted.,117,1,1,0,1,1,1,1,1,1,1,1,1,1,1,1,0,11,12,117,space,6.211192500000379,None,1,1,4.998673000000053,None,,,,0,1,1,0,0,1,1,0,,,,,418.9072699999999,,,,,,,,,,,,,,,,,,,,,418.8918438000003,418.9072699999999,419.3906042000001,419.39519140000016,419.4138971,424.4226097000003,1,1,4.998673000000053,None,424.4228212999999,424.43768160000013,424.6380740000002,424.6219082,419.4138971,,,,,,,,,,,,,,,,,,,862,22,M,R,2026-02-18_11h27.25.462,VisualSearch_2526_3,,2025.2.4,2026-02-18 11h27.25.769836 +0100,
tilted.xlsx,The target is tilted.,117,2,2,0,0,1,1,1,0,0,0,0,0,0,0,0,1,3,4,117,space,6.211192500000379,None,0,1,1.7383729000002859,None,,,,0,1,1,0,0,2,2,6,,,,,424.6380740000002,,,,,,,,,,,,,,,,,,,,,424.62262269999997,424.6380740000002,425.12174830000026,425.1264754000001,425.1459075999999,426.8876883999999,0,1,1.7383729000002859,None,426.8878708,426.90344849999997,427.1035761999999,427.0873703,425.1459075999999,,,,,,,,,,,,,,,,,,,862,22,M,R,2026-02-18_11h27.25.462,VisualSearch_2526_3,,2025.2.4,2026-02-18 11h27.25.769836 +0100,
tilted.xlsx,The target is tilted.,117,3,3,0,1,0,0,0,0,0,0,0,0,0,0,0,0,0,1,117,space,6.211192500000379,None,1,1,0.8006661999997959,None,,,,0,1,1,0,0,3,3,3,,,,,427.1035761999999,,,,,,,,,,,,,,,,,,,,,427.08805430000007,427.1035761999999,427.58690660000025,427.5914915999999,427.6105253000003,428.4203868000002,1,1,0.8006661999997959,None,428.4205717000002,428.4360729000002,428.63618470000006,428.6200547000001,427.6105253000003,,,,,,,,,,,,,,,,,,,862,22,M,R,2026-02-18_11h27.25.462,VisualSearch_2526_3,,2025.2.4,2026-02-18 11h27.25.769836 +0100,
tilted.xlsx,The target is tilted.,117,4,4,0,0,1,1,1,1,1,1,1,1,1,1,1,1,11,12,117,space,6.211192500000379,None,0,1,5.46785060000002,None,,,,0,1,1,0,0,4,4,4,,,,,428.63618470000006,,,,,,,,,,,,,,,,,,,,,428.62072710000007,428.63618470000006,429.1198273000002,429.1244807999999,429.14001010000015,434.6175288000002,0,1,5.46785060000002,None,434.61771669999985,434.63302550000003,434.8331880000003,434.8172497000003,429.14001010000015,,,,,,,,,,,,,,,,,,,862,22,M,R,2026-02-18_11h27.25.462,VisualSearch_2526_3,,2025.2.4,2026-02-18 11h27.25.769836 +0100,
tilted.xlsx,The target is tilted.,117,5,5,0,1,1,1,1,0,0,0,0,0,0,0,0,0,3,4,117,space,6.211192500000379,None,1,1,1.4035957999999482,None,,,,0,1,1,0,0,5,5,2,,,,,434.8331880000003,,,,,,,,,,,,,,,,,,,,,434.8179272,434.8331880000003,435.31696560000023,435.32169799999997,435.3410572999999,436.74938959999986,1,1,1.4035957999999482,None,436.74953040000014,436.7652378999999,436.96586950000005,436.94952260000014,435.3410572999999,,,,,,,,,,,,,,,,,,,862,22,M,R,2026-02-18_11h27.25.462,VisualSearch_2526_3,,2025.2.4,2026-02-18 11h27.25.769836 +0100,
tilted.xlsx,The target is tilted.,117,6,6,0,1,1,1,1,1,1,1,1,0,0,0,0,0,7,8,117,space,6.211192500000379,None,1,1,1.9650083999999879,None,,,,0,1,1,0,0,6,6,1,,,,,436.96586950000005,,,,,,,,,,,,,,,,,,,,,436.9503425999999,436.96586950000005,437.4493592000001,437.4540334999999,437.4727392000002,439.44866160000015,1,1,1.9650083999999879,None,439.4487895,439.46441400000026,439.6641396000002,439.64802440000017,437.4727392000002,,,,,,,,,,,,,,,,,,,862,22,M,R,2026-02-18_11h27.25.462,VisualSearch_2526_3,,2025.2.4,2026-02-18 11h27.25.769836 +0100,
tilted.xlsx,The target is tilted.,117,7,7,0,0,0,0,0,0,0,0,0,0,0,0,0,1,1,1,117,space,6.211192500000379,None,0,1,0.5676113000004079,None,,,,0,1,1,0,0,7,7,7,,,,,439.6641396000002,,,,,,,,,,,,,,,,,,,,,439.64874570000006,439.6641396000002,440.14826019999987,440.15289740000003,440.1717111999999,440.7484202000003,0,1,0.5676113000004079,None,440.7486048000003,440.7640451,440.9640230000002,440.9477978000002,440.1717111999999,,,,,,,,,,,,,,,,,,,862,22,M,R,2026-02-18_11h27.25.462,VisualSearch_2526_3,,2025.2.4,2026-02-18 11h27.25.769836 +0100,
tilted.xlsx,The target is tilted.,117,0,0,0,1,1,1,1,0,0,0,0,0,0,0,0,0,3,4,117,space,6.211192500000379,None,1,1,1.9908571000000848,None,space,2.6413053999999647,None,0,1,1,0,,,,,0,0,0,2,443.6501992000001,,,,,,,,,,,,,,,,,,,,,443.6457882000002,443.6501992000001,444.12910990000023,444.13383580000004,444.15299579999987,446.14599010000006,,,,,446.14618170000017,446.16119600000025,446.3609068000003,446.3451677999999,,440.95471090000024,440.9640230000002,440.9640230000002,443.6135643,space,2.6413053999999647,None,1,1,1.9908571000000848,None,,,,,,,,862,22,M,R,2026-02-18_11h27.25.462,VisualSearch_2526_3,,2025.2.4,2026-02-18 11h27.25.769836 +0100,
tilted.xlsx,The target is tilted.,117,1,1,0,0,0,0,0,0,0,0,0,0,0,0,0,1,1,1,117,space,6.211192500000379,None,0,1,0.608041299999968,None,space,2.6413053999999647,None,0,1,1,0,,,,,0,1,1,7,446.3609068000003,,,,,,,,,,,,,,,,,,,,,446.34597529999996,446.3609068000003,446.8449903000003,446.84950219999996,446.86112500000013,447.47823059999996,,,,,447.4783481000002,447.49405230000025,447.6942101000002,447.67806889999997,446.86112500000013,,,,,,,,0,1,0.608041299999968,None,,,,,,,,862,22,M,R,2026-02-18_11h27.25.462,VisualSearch_2526_3,,2025.2.4,2026-02-18 11h27.25.769836 +0100,
tilted.xlsx,The target is tilted.,117,2,2,0,0,1,1,1,0,0,0,0,0,0,0,0,1,3,4,117,space,6.211192500000379,None,0,1,1.4268769000000248,None,space,2.6413053999999647,None,0,1,1,0,,,,,0,2,2,6,447.6942101000002,,,,,,,,,,,,,,,,,,,,,447.67881450000027,447.6942101000002,448.177496,448.18231420000006,448.2021815999999,449.6443876000001,,,,,449.6445808000001,449.6599951999999,449.85991560000025,449.8439162000002,448.2021815999999,,,,,,,,0,1,1.4268769000000248,None,,,,,,,,862,22,M,R,2026-02-18_11h27.25.462,VisualSearch_2526_3,,2025.2.4,2026-02-18 11h27.25.769836 +0100,
tilted.xlsx,The target is tilted.,117,3,3,0,0,1,1,1,1,1,1,1,1,1,1,1,1,11,12,117,space,6.211192500000379,None,0,1,2.923287800000253,None,space,2.6413053999999647,None,0,1,1,0,,,,,0,3,3,4,449.85991560000025,,,,,,,,,,,,,,,,,,,,,449.8446747999999,449.85991560000025,450.34347230000026,450.3483708000001,450.3675773000002,453.29180580000025,,,,,453.2919883000002,453.30800049999993,453.5081697000003,453.4919534000003,450.3675773000002,,,,,,,,0,1,2.923287800000253,None,,,,,,,,862,22,M,R,2026-02-18_11h27.25.462,VisualSearch_2526_3,,2025.2.4,2026-02-18 11h27.25.769836 +0100,
tilted.xlsx,The target is tilted.,117,4,4,0,1,1,1,1,1,1,1,1,0,0,0,0,0,7,8,117,space,6.211192500000379,None,0,0,2.611713100000088,None,space,2.6413053999999647,None,0,1,1,0,,,,,0,4,4,1,453.5081697000003,,,,,,,,,,,,,,,,,,,,,453.4927774999999,453.5081697000003,453.99202500000024,453.9966744999999,454.01562910000007,456.6409706000002,,,,,456.64116089999993,456.6563991999999,456.85686450000026,456.8407321000002,454.01562910000007,,,,,,,,0,0,2.611713100000088,None,,,,,,,,862,22,M,R,2026-02-18_11h27.25.462,VisualSearch_2526_3,,2025.2.4,2026-02-18 11h27.25.769836 +0100,
tilted.xlsx,The target is tilted.,117,5,5,0,1,0,0,0,0,0,0,0,0,0,0,0,0,0,1,117,space,6.211192500000379,None,1,1,0.6682645999999295,None,space,2.6413053999999647,None,0,1,1,0,,,,,0,5,5,3,456.85686450000026,,,,,,,,,,,,,,,,,,,,,456.84160959999986,456.85686450000026,457.34034510000015,457.3449868,457.36421780000023,458.0400806,,,,,458.0401953000003,458.0557732,458.25611379999987,458.2399941000001,457.36421780000023,,,,,,,,1,1,0.6682645999999295,None,,,,,,,,862,22,M,R,2026-02-18_11h27.25.462,VisualSearch_2526_3,,2025.2.4,2026-02-18 11h27.25.769836 +0100,
tilted.xlsx,The target is tilted.,117,6,6,0,0,1,1,1,1,1,1,1,0,0,0,0,1,7,8,117,space,6.211192500000379,None,0,1,2.3743561000001137,None,space,2.6413053999999647,None,0,1,1,0,,,,,0,6,6,5,458.25611379999987,,,,,,,,,,,,,,,,,,,,,458.24073699999985,458.25611379999987,458.73968949999994,458.74436470000023,458.76271980000024,461.1386150000001,,,,,461.1387582,461.1546558000002,461.3547054000003,461.33817980000026,458.76271980000024,,,,,,,,0,1,2.3743561000001137,None,,,,,,,,862,22,M,R,2026-02-18_11h27.25.462,VisualSearch_2526_3,,2025.2.4,2026-02-18 11h27.25.769836 +0100,
tilted.xlsx,The target is tilted.,117,7,7,0,1,1,1,1,1,1,1,1,1,1,1,1,0,11,12,117,space,6.211192500000379,None,0,0,3.779098299999987,None,space,2.6413053999999647,None,0,1,1,0,,,,,0,7,7,0,461.3547054000003,,,,,,,,,,,,,,,,,,,,,461.3386178000003,461.3547054000003,461.8379176000001,461.8425786999999,461.8580502000002,465.65385200000014,,,,,465.65404890000013,465.66939560000014,465.86932550000006,465.8530763000001,461.8580502000002,,,,,,,,0,0,3.779098299999987,None,,,,,,,,862,22,M,R,2026-02-18_11h27.25.462,VisualSearch_2526_3,,2025.2.4,2026-02-18 11h27.25.769836 +0100,
tilted.xlsx,The target is tilted.,117,8,0,1,0,1,1,1,0,0,0,0,0,0,0,0,1,3,4,117,space,6.211192500000379,None,0,1,1.3510679000000891,None,space,2.6413053999999647,None,0,1,1,0,,,,,1,0,8,6,465.86932550000006,,,,,,,,,,,,,,,,,,,,,465.85381789999997,465.86932550000006,466.35260500000027,466.35730750000016,466.37639379999996,467.73593800000003,,,,,467.73612960000014,467.7514699999999,467.95162559999994,467.9354943000001,466.37639379999996,,,,,,,,0,1,1.3510679000000891,None,,,,,,,,862,22,M,R,2026-02-18_11h27.25.462,VisualSearch_2526_3,,2025.2.4,2026-02-18 11h27.25.769836 +0100,
tilted.xlsx,The target is tilted.,117,9,1,1,0,1,1,1,1,1,1,1,0,0,0,0,1,7,8,117,space,6.211192500000379,None,0,1,2.780448299999989,None,space,2.6413053999999647,None,0,1,1,0,,,,,1,1,9,5,467.95162559999994,,,,,,,,,,,,,,,,,,,,,467.9362629,467.95162559999994,468.4353331,468.4400247000001,468.4595950999999,471.2512798999999,,,,,471.25146770000015,471.26647890000027,471.4667833000001,471.44977240000003,468.4595950999999,,,,,,,,0,1,2.780448299999989,None,,,,,,,,862,22,M,R,2026-02-18_11h27.25.462,VisualSearch_2526_3,,2025.2.4,2026-02-18 11h27.25.769836 +0100,
tilted.xlsx,The target is tilted.,117,10,2,1,0,0,0,0,0,0,0,0,0,0,0,0,1,1,1,117,space,6.211192500000379,None,0,1,0.5373799999997573,None,space,2.6413053999999647,None,0,1,1,0,,,,,1,2,10,7,471.4667833000001,,,,,,,,,,,,,,,,,,,,,471.45022159999985,471.4667833000001,471.9503365000003,471.9550391,471.9689080999999,472.5169093000002,,,,,472.51711120000004,472.5327149000002,472.7328162000001,472.7166399,471.9689080999999,,,,,,,,0,1,0.5373799999997573,None,,,,,,,,862,22,M,R,2026-02-18_11h27.25.462,VisualSearch_2526_3,,2025.2.4,2026-02-18 11h27.25.769836 +0100,
tilted.xlsx,The target is tilted.,117,11,3,1,1,1,1,1,0,0,0,0,0,0,0,0,0,3,4,117,space,6.211192500000379,None,1,1,0.7356992999998511,None,space,2.6413053999999647,None,0,1,1,0,,,,,1,3,11,2,472.7328162000001,,,,,,,,,,,,,,,,,,,,,472.71742960000006,472.7328162000001,473.2160319000002,473.22064269999987,473.2399449000002,473.98324049999997,,,,,473.98342560000015,473.9988977999999,474.1987835000002,474.18271470000013,473.2399449000002,,,,,,,,1,1,0.7356992999998511,None,,,,,,,,862,22,M,R,2026-02-18_11h27.25.462,VisualSearch_2526_3,,2025.2.4,2026-02-18 11h27.25.769836 +0100,
tilted.xlsx,The target is tilted.,117,12,4,1,1,1,1,1,1,1,1,1,0,0,0,0,0,7,8,117,space,6.211192500000379,None,1,1,0.7191104000003179,None,space,2.6413053999999647,None,0,1,1,0,,,,,1,4,12,1,474.1987835000002,,,,,,,,,,,,,,,,,,,,,474.18347990000007,474.1987835000002,474.6821867000001,474.6868181000002,474.70485970000004,475.43270689999986,,,,,475.43290820000016,475.44798620000006,475.64822100000015,475.6321110000001,474.70485970000004,,,,,,,,1,1,0.7191104000003179,None,,,,,,,,862,22,M,R,2026-02-18_11h27.25.462,VisualSearch_2526_3,,2025.2.4,2026-02-18 11h27.25.769836 +0100,
tilted.xlsx,The target is tilted.,117,13,5,1,1,1,1,1,1,1,1,1,1,1,1,1,0,11,12,117,space,6.211192500000379,None,1,1,2.241441399999985,None,space,2.6413053999999647,None,0,1,1,0,,,,,1,5,13,0,475.64822100000015,,,,,,,,,,,,,,,,,,,,,475.63281699999993,475.64822100000015,476.13181229999986,476.1364397,476.15485190000004,478.39757680000025,,,,,478.3977198,478.4135693999999,478.61355030000027,478.59743490000005,476.15485190000004,,,,,,,,1,1,2.241441399999985,None,,,,,,,,862,22,M,R,2026-02-18_11h27.25.462,VisualSearch_2526_3,,2025.2.4,2026-02-18 11h27.25.769836 +0100,
tilted.xlsx,The target is tilted.,117,14,6,1,1,0,0,0,0,0,0,0,0,0,0,0,0,0,1,117,space,6.211192500000379,None,1,1,0.49190249999992375,None,space,2.6413053999999647,None,0,1,1,0,,,,,1,6,14,3,478.61355030000027,,,,,,,,,,,,,,,,,,,,,478.5982150000002,478.61355030000027,479.09720859999993,479.1017625000002,479.1126474,479.6140210000001,,,,,479.6142252000002,479.6296168000001,479.8296745,479.81341739999993,479.1126474,,,,,,,,1,1,0.49190249999992375,None,,,,,,,,862,22,M,R,2026-02-18_11h27.25.462,VisualSearch_2526_3,,2025.2.4,2026-02-18 11h27.25.769836 +0100,
tilted.xlsx,The target is tilted.,117,15,7,1,0,1,1,1,1,1,1,1,1,1,1,1,1,11,12,117,space,6.211192500000379,None,0,1,2.722515999999814,None,space,2.6413053999999647,None,0,1,1,0,,,,,1,7,15,4,479.8296745,,,,,,,,,,,,,,,,,,,,,479.81418469999994,479.8296745,480.3131341999999,480.3184696999999,480.33750410000016,483.0626417000001,,,,,483.06284500000015,483.0780228000001,483.27779799999985,483.26149910000026,480.33750410000016,,,,,,,,0,1,2.722515999999814,None,,,,,,,,862,22,M,R,2026-02-18_11h27.25.462,VisualSearch_2526_3,,2025.2.4,2026-02-18 11h27.25.769836 +0100,
tilted.xlsx,The target is tilted.,117,16,0,2,1,1,1,1,1,1,1,1,1,1,1,1,0,11,12,117,space,6.211192500000379,None,1,1,2.7722444999999425,None,space,2.6413053999999647,None,0,1,1,0,,,,,2,0,16,0,483.27779799999985,,,,,,,,,,,,,,,,,,,,,483.26228689999994,483.27779799999985,483.7617415000002,483.7663210000003,483.78504,486.560745,,,,,486.5609342999999,486.57650549999994,486.77606040000023,486.7601852,483.78504,,,,,,,,1,1,2.7722444999999425,None,,,,,,,,862,22,M,R,2026-02-18_11h27.25.462,VisualSearch_2526_3,,2025.2.4,2026-02-18 11h27.25.769836 +0100,
tilted.xlsx,The target is tilted.,117,17,1,2,0,1,1,1,0,0,0,0,0,0,0,0,1,3,4,117,space,6.211192500000379,None,0,1,0.735855299999912,None,space,2.6413053999999647,None,0,1,1,0,,,,,2,1,17,6,486.77606040000023,,,,,,,,,,,,,,,,,,,,,486.7609273999999,486.77606040000023,487.2603176,487.26537440000016,487.2835448000003,488.0269857999999,,,,,488.0271745000002,488.0425336999999,488.2423481000003,488.2262956000002,487.2835448000003,,,,,,,,0,1,0.735855299999912,None,,,,,,,,862,22,M,R,2026-02-18_11h27.25.462,VisualSearch_2526_3,,2025.2.4,2026-02-18 11h27.25.769836 +0100,
tilted.xlsx,The target is tilted.,117,18,2,2,1,0,0,0,0,0,0,0,0,0,0,0,0,0,1,117,space,6.211192500000379,None,1,1,0.5753409000003558,None,space,2.6413053999999647,None,0,1,1,0,,,,,2,2,18,3,488.2423481000003,,,,,,,,,,,,,,,,,,,,,488.22705800000017,488.2423481000003,488.7261185,488.73072830000024,488.7497396000001,489.34259110000016,,,,,489.3427363000003,489.35859890000006,489.5580941999999,489.5420535999999,488.7497396000001,,,,,,,,1,1,0.5753409000003558,None,,,,,,,,862,22,M,R,2026-02-18_11h27.25.462,VisualSearch_2526_3,,2025.2.4,2026-02-18 11h27.25.769836 +0100,
tilted.xlsx,The target is tilted.,117,19,3,2,1,1,1,1,1,1,1,1,0,0,0,0,0,7,8,117,space,6.211192500000379,None,0,0,1.3057945000000473,None,space,2.6413053999999647,None,0,1,1,0,,,,,2,3,19,1,489.5580941999999,,,,,,,,,,,,,,,,,,,,,489.5428236999999,489.5580941999999,490.0419776000001,490.04661629999987,490.0655856000001,491.37457580000023,,,,,491.37469250000026,491.39104900000007,491.59085519999985,491.5742313000003,490.0655856000001,,,,,,,,0,0,1.3057945000000473,None,,,,,,,,862,22,M,R,2026-02-18_11h27.25.462,VisualSearch_2526_3,,2025.2.4,2026-02-18 11h27.25.769836 +0100,
tilted.xlsx,The target is tilted.,117,20,4,2,0,0,0,0,0,0,0,0,0,0,0,0,1,1,1,117,space,6.211192500000379,None,0,1,0.7137392999998156,None,space,2.6413053999999647,None,0,1,1,0,,,,,2,4,20,7,491.59085519999985,,,,,,,,,,,,,,,,,,,,,491.5745933999999,491.59085519999985,492.07454930000017,492.0790483000003,492.0907261,492.8078135000003,,,,,492.8080021000003,492.8236582000002,493.0236769999999,493.00757050000016,492.0907261,,,,,,,,0,1,0.7137392999998156,None,,,,,,,,862,22,M,R,2026-02-18_11h27.25.462,VisualSearch_2526_3,,2025.2.4,2026-02-18 11h27.25.769836 +0100,
tilted.xlsx,The target is tilted.,117,21,5,2,0,1,1,1,1,1,1,1,1,1,1,1,1,11,12,117,space,6.211192500000379,None,0,1,2.693163899999945,None,space,2.6413053999999647,None,0,1,1,0,,,,,2,5,21,4,493.0236769999999,,,,,,,,,,,,,,,,,,,,,493.00831930000027,493.0236769999999,493.5072619,493.5119881000003,493.53127340000015,496.2398678000002,,,,,496.24005680000005,496.25553809999997,496.4554378,496.43935220000026,493.53127340000015,,,,,,,,0,1,2.693163899999945,None,,,,,,,,862,22,M,R,2026-02-18_11h27.25.462,VisualSearch_2526_3,,2025.2.4,2026-02-18 11h27.25.769836 +0100,
tilted.xlsx,The target is tilted.,117,22,6,2,0,1,1,1,1,1,1,1,0,0,0,0,1,7,8,117,space,6.211192500000379,None,0,1,3.147908500000085,None,space,2.6413053999999647,None,0,1,1,0,,,,,2,6,22,5,496.4554378,,,,,,,,,,,,,,,,,,,,,496.44012540000017,496.4554378,496.93912449999993,496.9437863999999,496.9631873999999,500.1215144999999,,,,,500.1217018,500.13665670000023,500.3369946999999,500.32087460000025,496.9631873999999,,,,,,,,0,1,3.147908500000085,None,,,,,,,,862,22,M,R,2026-02-18_11h27.25.462,VisualSearch_2526_3,,2025.2.4,2026-02-18 11h27.25.769836 +0100,
tilted.xlsx,The target is tilted.,117,23,7,2,1,1,1,1,0,0,0,0,0,0,0,0,0,3,4,117,space,6.211192500000379,None,1,1,1.3559556999998676,None,space,2.6413053999999647,None,0,1,1,0,,,,,2,7,23,2,500.3369946999999,,,,,,,,,,,,,,,,,,,,,500.3216024999999,500.3369946999999,500.8202265000002,500.82500110000024,500.84356260000027,502.2036413000003,,,,,502.2038296000003,502.21928920000005,502.4194095999999,502.40318460000003,500.84356260000027,,,,,,,,1,1,1.3559556999998676,None,,,,,,,,862,22,M,R,2026-02-18_11h27.25.462,VisualSearch_2526_3,,2025.2.4,2026-02-18 11h27.25.769836 +0100,
tilted.xlsx,The target is tilted.,117,24,0,3,0,1,1,1,1,1,1,1,0,0,0,0,1,7,8,117,space,6.211192500000379,None,0,1,1.5870602999998482,None,space,2.6413053999999647,None,0,1,1,0,,,,,3,0,24,5,502.4194095999999,,,,,,,,,,,,,,,,,,,,,502.4039676,502.4194095999999,502.9028768999999,502.9075553,502.92625490000023,504.5192528,,,,,504.519442,504.5347284000002,504.73497999999995,504.71892980000007,502.92625490000023,,,,,,,,0,1,1.5870602999998482,None,,,,,,,,862,22,M,R,2026-02-18_11h27.25.462,VisualSearch_2526_3,,2025.2.4,2026-02-18 11h27.25.769836 +0100,
tilted.xlsx,The target is tilted.,117,25,1,3,1,0,0,0,0,0,0,0,0,0,0,0,0,0,1,117,space,6.211192500000379,None,1,1,0.46216510000022026,None,space,2.6413053999999647,None,0,1,1,0,,,,,3,1,25,3,504.73497999999995,,,,,,,,,,,,,,,,,,,,,504.7197628000001,504.73497999999995,505.2185901999999,505.2232689,505.24176539999985,505.71855530000016,,,,,505.7187528000002,505.73433750000027,505.9344633000003,505.91854290000015,505.24176539999985,,,,,,,,1,1,0.46216510000022026,None,,,,,,,,862,22,M,R,2026-02-18_11h27.25.462,VisualSearch_2526_3,,2025.2.4,2026-02-18 11h27.25.769836 +0100,
tilted.xlsx,The target is tilted.,117,26,2,3,0,1,1,1,1,1,1,1,1,1,1,1,1,11,12,117,space,6.211192500000379,None,0,1,3.3094264000001203,None,space,2.6413053999999647,None,0,1,1,0,,,,,3,2,26,4,505.9344633000003,,,,,,,,,,,,,,,,,,,,,505.91941759999986,505.9344633000003,506.41811680000023,506.42258130000005,506.4338057000002,509.7504881000002,,,,,509.7506999,509.76590409999994,509.96596269999986,509.9495592999999,506.4338057000002,,,,,,,,0,1,3.3094264000001203,None,,,,,,,,862,22,M,R,2026-02-18_11h27.25.462,VisualSearch_2526_3,,2025.2.4,2026-02-18 11h27.25.769836 +0100,
tilted.xlsx,The target is tilted.,117,27,3,3,1,1,1,1,1,1,1,1,1,1,1,1,0,11,12,117,space,6.211192500000379,None,0,0,4.149956899999779,None,space,2.6413053999999647,None,0,1,1,0,,,,,3,3,27,0,509.96596269999986,,,,,,,,,,,,,,,,,,,,,509.95032259999994,509.96596269999986,510.4496667000001,510.4543179,510.46556369999985,514.6315416,,,,,514.6317116000002,514.6470394999999,514.8471184000002,514.8309936000003,510.46556369999985,,,,,,,,0,0,4.149956899999779,None,,,,,,,,862,22,M,R,2026-02-18_11h27.25.462,VisualSearch_2526_3,,2025.2.4,2026-02-18 11h27.25.769836 +0100,
tilted.xlsx,The target is tilted.,117,28,4,3,1,1,1,1,1,1,1,1,0,0,0,0,0,7,8,117,space,6.211192500000379,None,1,1,1.3004314999998314,None,space,2.6413053999999647,None,0,1,1,0,,,,,3,4,28,1,514.8471184000002,,,,,,,,,,,,,,,,,,,,,514.8318206000001,514.8471184000002,515.3303008999999,515.3350102000002,515.353946,516.6637957,,,,,516.6640075000003,516.6795896000001,516.8795009000003,516.8632730000002,515.353946,,,,,,,,1,1,1.3004314999998314,None,,,,,,,,862,22,M,R,2026-02-18_11h27.25.462,VisualSearch_2526_3,,2025.2.4,2026-02-18 11h27.25.769836 +0100,
tilted.xlsx,The target is tilted.,117,29,5,3,1,1,1,1,0,0,0,0,0,0,0,0,0,3,4,117,space,6.211192500000379,None,1,1,1.4567318999997951,None,space,2.6413053999999647,None,0,1,1,0,,,,,3,5,29,2,516.8795009000003,,,,,,,,,,,,,,,,,,,,,516.8640373000001,516.8795009000003,517.3630832000001,517.3677025,517.3866571000001,518.8460087999999,,,,,518.8462201,518.8615271000001,519.0615854999999,519.0457017000001,517.3866571000001,,,,,,,,1,1,1.4567318999997951,None,,,,,,,,862,22,M,R,2026-02-18_11h27.25.462,VisualSearch_2526_3,,2025.2.4,2026-02-18 11h27.25.769836 +0100,
tilted.xlsx,The target is tilted.,117,30,6,3,0,0,0,0,0,0,0,0,0,0,0,0,1,1,1,117,space,6.211192500000379,None,0,1,0.5189456999996764,None,space,2.6413053999999647,None,0,1,1,0,,,,,3,6,30,7,519.0615854999999,,,,,,,,,,,,,,,,,,,,,519.0464313,519.0615854999999,519.5454626000003,519.5500723000002,519.5684953000002,520.0956188000002,,,,,520.0957882999999,520.1112340000002,520.3113535,520.2952089000003,519.5684953000002,,,,,,,,0,1,0.5189456999996764,None,,,,,,,,862,22,M,R,2026-02-18_11h27.25.462,VisualSearch_2526_3,,2025.2.4,2026-02-18 11h27.25.769836 +0100,
tilted.xlsx,The target is tilted.,117,31,7,3,0,1,1,1,0,0,0,0,0,0,0,0,1,3,4,117,space,6.211192500000379,None,0,1,1.6101244000001316,None,space,2.6413053999999647,None,0,1,1,0,,,,,3,7,31,6,520.3113535,,,,,,,,,,,,,,,,,,,,,520.2960326,520.3113535,520.7949138000001,520.7995677000001,520.8183903000001,522.4447360000001,,,,,522.4449268000001,522.4602542,522.6602369,522.6440362999999,520.8183903000001,,,,,,,,0,1,1.6101244000001316,None,,,,,,,,862,22,M,R,2026-02-18_11h27.25.462,VisualSearch_2526_3,,2025.2.4,2026-02-18 11h27.25.769836 +0100,
tilted.xlsx,The target is tilted.,117,32,0,4,0,1,1,1,1,1,1,1,0,0,0,0,1,7,8,117,space,6.211192500000379,None,0,1,2.9085175999998683,None,space,2.6413053999999647,None,0,1,1,0,,,,,4,0,32,5,522.6602369,,,,,,,,,,,,,,,,,,,,,522.6447759999999,522.6602369,523.1434341000001,523.1463635000002,523.1600317,526.0764108999999,,,,,526.0766101000002,526.0915908,526.2916465999999,526.275828,523.1600317,,,,,,,,0,1,2.9085175999998683,None,,,,,,,,862,22,M,R,2026-02-18_11h27.25.462,VisualSearch_2526_3,,2025.2.4,2026-02-18 11h27.25.769836 +0100,
tilted.xlsx,The target is tilted.,117,33,1,4,1,1,1,1,1,1,1,1,0,0,0,0,0,7,8,117,space,6.211192500000379,None,1,1,1.9215013000002727,None,space,2.6413053999999647,None,0,1,1,0,,,,,4,1,33,1,526.2916465999999,,,,,,,,,,,,,,,,,,,,,526.2765560999999,526.2916465999999,526.7757404000001,526.7807902000002,526.7998819000002,528.7249738000003,,,,,528.7251751000001,528.7403952000002,528.9408017000003,528.9245598,526.7998819000002,,,,,,,,1,1,1.9215013000002727,None,,,,,,,,862,22,M,R,2026-02-18_11h27.25.462,VisualSearch_2526_3,,2025.2.4,2026-02-18 11h27.25.769836 +0100,
tilted.xlsx,The target is tilted.,117,34,2,4,0,1,1,1,0,0,0,0,0,0,0,0,1,3,4,117,space,6.211192500000379,None,0,1,0.5974029999997583,None,space,2.6413053999999647,None,0,1,1,0,,,,,4,2,34,6,528.9408017000003,,,,,,,,,,,,,,,,,,,,,528.9253139,528.9408017000003,529.4243735000002,529.4289999,529.4474753000002,530.0575348,,,,,530.0577237999998,530.0732617000001,530.2730311000003,530.2572846999999,529.4474753000002,,,,,,,,0,1,0.5974029999997583,None,,,,,,,,862,22,M,R,2026-02-18_11h27.25.462,VisualSearch_2526_3,,2025.2.4,2026-02-18 11h27.25.769836 +0100,
tilted.xlsx,The target is tilted.,117,35,3,4,0,0,0,0,0,0,0,0,0,0,0,0,1,1,1,117,space,6.211192500000379,None,0,1,0.5158698000000186,None,space,2.6413053999999647,None,0,1,1,0,,,,,4,3,35,7,530.2730311000003,,,,,,,,,,,,,,,,,,,,,530.2580159000001,530.2730311000003,530.7571799,530.7618310999999,530.7805748000003,531.3069158999999,,,,,531.3070909,531.3229061,531.5228254000001,531.5067133999999,530.7805748000003,,,,,,,,0,1,0.5158698000000186,None,,,,,,,,862,22,M,R,2026-02-18_11h27.25.462,VisualSearch_2526_3,,2025.2.4,2026-02-18 11h27.25.769836 +0100,
