file_name,block_instructions,target_example,thisN,thisTrialN,thisRepN,target_presence,opacity_1,opacity_2,opacity_3,opacity_4,opacity_5,opacity_6,opacity_7,opacity_8,opacity_9,opacity_10,opacity_11,opacity_12,n_distract,n_items,target_ori,key_resp_4.keys,key_resp_4.rt,key_resp_4.duration,key_resp.keys,key_resp.corr,key_resp.rt,key_resp.duration,key_resp_5.keys,key_resp_5.rt,key_resp_5.duration,blocks.thisRepN,blocks.thisTrialN,blocks.thisN,blocks.thisIndex,practice_trials.thisRepN,practice_trials.thisTrialN,practice_trials.thisN,practice_trials.thisIndex,trials.thisRepN,trials.thisTrialN,trials.thisN,trials.thisIndex,thisRow.t,notes,Welcome.started,WelcomeText.started,key_resp_2.started,Welcome.stopped,key_resp_2.keys,key_resp_2.rt,key_resp_2.duration,InformedConsent.started,text_4.started,InformedConsent.stopped,key_resp_6.keys,key_resp_6.rt,key_resp_6.duration,key_resp_4.started,example_target.started,text_3.started,blocks.key_resp_4.keys,blocks.key_resp_4.rt,blocks.key_resp_4.duration,FixCross.started,fixCross.started,FixCross.stopped,Stimulus.started,key_resp.started,Stimulus.stopped,practice_trials.key_resp.keys,practice_trials.key_resp.corr,practice_trials.key_resp.rt,practice_trials.key_resp.duration,BlankScreen.started,text.started,text.stopped,BlankScreen.stopped,fixCross.stopped,ExperimentStart.started,text_2.started,key_resp_5.started,ExperimentStart.stopped,blocks.key_resp_5.keys,blocks.key_resp_5.rt,blocks.key_resp_5.duration,trials.key_resp.keys,trials.key_resp.corr,trials.key_resp.rt,trials.key_resp.duration,Thanks.started,ThankYou.started,key_resp_3.started,Thanks.stopped,key_resp_3.keys,key_resp_3.rt,key_resp_3.duration,participant,leeftijd,gender,links/rechtshandig,date,expName,expVersion,psychopyVersion,expStart,
,,,,,,,,,,,,,,,,,,,,,,,,,,,,,,,,,,,,,,,,,,,,,,0.02563540000028297,0.03671680000024935,0.03671680000024935,55.69336539999995,space,55.526972500000284,None,,,,,,,,,,,,,,,,,,,,,,,,,,,,,,,,,,,,,,,,,,,,,,863,26,M,R,2026-02-18_11h46.16.636,VisualSearch_2526_3,,2025.2.4,2026-02-18 11h46.17.071084 +0100,
,,,,,,,,,,,,,,,,,,,,,,,,,,,,,,,,,,,,,,,,,,,,,,,,,,,,,55.69340719999991,55.69830499999989,62.9635444999999,y,7.259653900000103,None,,,,,,,,,,,,,,,,,,,,,,,,,,,,,,,,,,,,,,,,863,26,M,R,2026-02-18_11h46.16.636,VisualSearch_2526_3,,2025.2.4,2026-02-18 11h46.17.071084 +0100,
tilted.xlsx,The target is tilted.,117,0,0,0,1,1,1,1,0,0,0,0,0,0,0,0,0,3,4,117,space,7.121492100000069,None,1,1,1.2891277999997328,None,,,,0,0,0,0,0,0,0,2,,,,,70.24388240000007,,,,,,,,,,,,,,,63.0612272000003,63.0612272000003,63.0612272000003,space,7.121492100000069,None,70.23867470000005,70.24388240000007,70.70847110000022,70.71312179999995,70.72507829999995,72.02555940000002,1,1,1.2891277999997328,None,72.0257359000002,72.04125049999993,72.24139790000027,72.22513490000028,,,,,,,,,,,,,,,,,,,,863,26,M,R,2026-02-18_11h46.16.636,VisualSearch_2526_3,,2025.2.4,2026-02-18 11h46.17.071084 +0100,
tilted.xlsx,The target is tilted.,117,1,1,0,0,1,1,1,0,0,0,0,0,0,0,0,1,3,4,117,space,7.121492100000069,None,0,1,1.4615042000000358,None,,,,0,0,0,0,0,1,1,6,,,,,72.24139790000027,,,,,,,,,,,,,,,,,,,,,72.22578229999999,72.24139790000027,72.72484680000025,72.72953009999992,72.7471942000002,74.22470120000025,0,1,1.4615042000000358,None,74.22489150000001,74.24026529999992,74.43986750000022,74.4237693,72.7471942000002,,,,,,,,,,,,,,,,,,,863,26,M,R,2026-02-18_11h46.16.636,VisualSearch_2526_3,,2025.2.4,2026-02-18 11h46.17.071084 +0100,
tilted.xlsx,The target is tilted.,117,2,2,0,0,0,0,0,0,0,0,0,0,0,0,0,1,1,1,117,space,7.121492100000069,None,0,1,1.4047809000003326,None,,,,0,0,0,0,0,2,2,7,,,,,74.43986750000022,,,,,,,,,,,,,,,,,,,,,74.42443970000022,74.43986750000022,74.9235418000003,74.92830690000028,74.94442290000006,76.35710210000025,0,1,1.4047809000003326,None,76.3572921,76.37211370000023,76.5721696999999,76.5565816000003,74.94442290000006,,,,,,,,,,,,,,,,,,,863,26,M,R,2026-02-18_11h46.16.636,VisualSearch_2526_3,,2025.2.4,2026-02-18 11h46.17.071084 +0100,
tilted.xlsx,The target is tilted.,117,3,3,0,1,0,0,0,0,0,0,0,0,0,0,0,0,0,1,117,space,7.121492100000069,None,1,1,0.6091880999997557,None,,,,0,0,0,0,0,3,3,3,,,,,76.5721696999999,,,,,,,,,,,,,,,,,,,,,76.55724710000004,76.5721696999999,77.0562874000002,77.06116789999987,77.0778935000003,77.68978370000013,1,1,0.6091880999997557,None,77.68997459999991,77.70484320000014,77.90501040000026,77.88908309999988,77.0778935000003,,,,,,,,,,,,,,,,,,,863,26,M,R,2026-02-18_11h46.16.636,VisualSearch_2526_3,,2025.2.4,2026-02-18 11h46.17.071084 +0100,
tilted.xlsx,The target is tilted.,117,4,4,0,1,1,1,1,1,1,1,1,0,0,0,0,0,7,8,117,space,7.121492100000069,None,1,1,1.3346652000000176,None,,,,0,0,0,0,0,4,4,1,,,,,77.90501040000026,,,,,,,,,,,,,,,,,,,,,77.88980960000026,77.90501040000026,78.38877630000025,78.3935876999999,78.41102790000014,79.75559750000002,1,1,1.3346652000000176,None,79.75578619999987,79.77077659999986,79.97122960000024,79.95488419999992,78.41102790000014,,,,,,,,,,,,,,,,,,,863,26,M,R,2026-02-18_11h46.16.636,VisualSearch_2526_3,,2025.2.4,2026-02-18 11h46.17.071084 +0100,
tilted.xlsx,The target is tilted.,117,5,5,0,1,1,1,1,1,1,1,1,1,1,1,1,0,11,12,117,space,7.121492100000069,None,1,1,3.1320252000000437,None,,,,0,0,0,0,0,5,5,0,,,,,79.97122960000024,,,,,,,,,,,,,,,,,,,,,79.95552959999986,79.97122960000024,80.45436389999986,80.45910420000018,80.4755812000003,83.62042800000017,1,1,3.1320252000000437,None,83.62062270000024,83.63556400000016,83.83559680000008,83.81979230000024,80.4755812000003,,,,,,,,,,,,,,,,,,,863,26,M,R,2026-02-18_11h46.16.636,VisualSearch_2526_3,,2025.2.4,2026-02-18 11h46.17.071084 +0100,
tilted.xlsx,The target is tilted.,117,6,6,0,0,1,1,1,1,1,1,1,0,0,0,0,1,7,8,117,space,7.121492100000069,None,0,1,2.638174799999888,None,,,,0,0,0,0,0,6,6,5,,,,,83.83559680000008,,,,,,,,,,,,,,,,,,,,,83.82043299999987,83.83559680000008,84.31965010000022,84.32446579999987,84.34107570000015,86.98560230000021,0,1,2.638174799999888,None,86.9857933000003,87.00067220000028,87.20121280000012,87.18501490000017,84.34107570000015,,,,,,,,,,,,,,,,,,,863,26,M,R,2026-02-18_11h46.16.636,VisualSearch_2526_3,,2025.2.4,2026-02-18 11h46.17.071084 +0100,
tilted.xlsx,The target is tilted.,117,7,7,0,0,1,1,1,1,1,1,1,1,1,1,1,1,11,12,117,space,7.121492100000069,None,0,1,3.3753200000001016,None,,,,0,0,0,0,0,7,7,4,,,,,87.20121280000012,,,,,,,,,,,,,,,,,,,,,87.1857500000001,87.20121280000012,87.68432329999996,87.68898799999988,87.70686530000012,91.08374869999989,0,1,3.3753200000001016,None,91.08395670000027,91.09853999999996,91.2993550000001,91.2830471000002,87.70686530000012,,,,,,,,,,,,,,,,,,,863,26,M,R,2026-02-18_11h46.16.636,VisualSearch_2526_3,,2025.2.4,2026-02-18 11h46.17.071084 +0100,
tilted.xlsx,The target is tilted.,117,0,0,0,0,1,1,1,1,1,1,1,1,1,1,1,1,11,12,117,space,7.121492100000069,None,0,1,2.8412192000000687,None,space,6.766818999999941,None,0,0,0,0,,,,,0,0,0,4,98.0994482000001,,,,,,,,,,,,,,,,,,,,,98.096004,98.0994482000001,98.59627350000028,98.60124170000017,98.61789020000015,101.46241499999996,,,,,101.4626189999999,101.47746009999992,101.6776404000002,101.66138520000004,,91.29054900000028,91.2993550000001,91.2993550000001,98.08046360000026,space,6.766818999999941,None,0,1,2.8412192000000687,None,,,,,,,,863,26,M,R,2026-02-18_11h46.16.636,VisualSearch_2526_3,,2025.2.4,2026-02-18 11h46.17.071084 +0100,
tilted.xlsx,The target is tilted.,117,1,1,0,0,1,1,1,0,0,0,0,0,0,0,0,1,3,4,117,space,7.121492100000069,None,0,1,1.320727899999838,None,space,6.766818999999941,None,0,0,0,0,,,,,0,1,1,6,101.6776404000002,,,,,,,,,,,,,,,,,,,,,101.66217730000017,101.6776404000002,102.16192720000026,102.1666353999999,102.18206680000003,103.51151250000021,,,,,103.51175090000015,103.5264258000002,103.72697270000026,103.71066650000012,102.18206680000003,,,,,,,,0,1,1.320727899999838,None,,,,,,,,863,26,M,R,2026-02-18_11h46.16.636,VisualSearch_2526_3,,2025.2.4,2026-02-18 11h46.17.071084 +0100,
tilted.xlsx,The target is tilted.,117,2,2,0,1,0,0,0,0,0,0,0,0,0,0,0,0,0,1,117,space,7.121492100000069,None,1,1,0.6532947000000604,None,space,6.766818999999941,None,0,0,0,0,,,,,0,2,2,3,103.72697270000026,,,,,,,,,,,,,,,,,,,,,103.71144170000025,103.72697270000026,104.21037750000005,104.21550400000024,104.23226740000018,104.89385579999998,,,,,104.89405480000005,104.90898040000002,105.1097451999999,105.09355430000005,104.23226740000018,,,,,,,,1,1,0.6532947000000604,None,,,,,,,,863,26,M,R,2026-02-18_11h46.16.636,VisualSearch_2526_3,,2025.2.4,2026-02-18 11h46.17.071084 +0100,
tilted.xlsx,The target is tilted.,117,3,3,0,1,1,1,1,0,0,0,0,0,0,0,0,0,3,4,117,space,7.121492100000069,None,1,1,0.7329554999996617,None,space,6.766818999999941,None,0,0,0,0,,,,,0,3,3,2,105.1097451999999,,,,,,,,,,,,,,,,,,,,,105.0943857000002,105.1097451999999,105.59324470000001,105.59799580000026,105.6133818000003,106.35938480000004,,,,,106.35961399999997,106.37513549999994,106.57563320000008,106.55922940000028,105.6133818000003,,,,,,,,1,1,0.7329554999996617,None,,,,,,,,863,26,M,R,2026-02-18_11h46.16.636,VisualSearch_2526_3,,2025.2.4,2026-02-18 11h46.17.071084 +0100,
tilted.xlsx,The target is tilted.,117,4,4,0,0,1,1,1,1,1,1,1,0,0,0,0,1,7,8,117,space,7.121492100000069,None,0,1,2.3671841999998833,None,space,6.766818999999941,None,0,0,0,0,,,,,0,4,4,5,106.57563320000008,,,,,,,,,,,,,,,,,,,,,106.55997620000016,106.57563320000008,107.05955110000014,107.0670685,107.08542010000019,109.45874619999995,,,,,109.45895120000023,109.4738582,109.67425409999987,109.65815780000003,107.08542010000019,,,,,,,,0,1,2.3671841999998833,None,,,,,,,,863,26,M,R,2026-02-18_11h46.16.636,VisualSearch_2526_3,,2025.2.4,2026-02-18 11h46.17.071084 +0100,
tilted.xlsx,The target is tilted.,117,5,5,0,0,0,0,0,0,0,0,0,0,0,0,0,1,1,1,117,space,7.121492100000069,None,0,1,0.7439008999999714,None,space,6.766818999999941,None,0,0,0,0,,,,,0,5,5,7,109.67425409999987,,,,,,,,,,,,,,,,,,,,,109.65889220000008,109.67425409999987,110.15796200000023,110.16282450000017,110.17959430000019,110.94067170000017,,,,,110.94087519999994,110.95643819999987,111.15693620000002,111.14084320000029,110.17959430000019,,,,,,,,0,1,0.7439008999999714,None,,,,,,,,863,26,M,R,2026-02-18_11h46.16.636,VisualSearch_2526_3,,2025.2.4,2026-02-18 11h46.17.071084 +0100,
tilted.xlsx,The target is tilted.,117,6,6,0,1,1,1,1,1,1,1,1,1,1,1,1,0,11,12,117,space,7.121492100000069,None,1,1,0.799710999999661,None,space,6.766818999999941,None,0,0,0,0,,,,,0,6,6,0,111.15693620000002,,,,,,,,,,,,,,,,,,,,,111.14166470000009,111.15693620000002,111.64058060000025,111.64530020000029,111.66055540000025,112.47337770000013,,,,,112.4735754000003,112.48902029999999,112.6895497999999,112.67324830000007,111.66055540000025,,,,,,,,1,1,0.799710999999661,None,,,,,,,,863,26,M,R,2026-02-18_11h46.16.636,VisualSearch_2526_3,,2025.2.4,2026-02-18 11h46.17.071084 +0100,
tilted.xlsx,The target is tilted.,117,7,7,0,1,1,1,1,1,1,1,1,0,0,0,0,0,7,8,117,space,7.121492100000069,None,1,1,0.9266332999995939,None,space,6.766818999999941,None,0,0,0,0,,,,,0,7,7,1,112.6895497999999,,,,,,,,,,,,,,,,,,,,,112.6740076000001,112.6895497999999,113.1731407000002,113.17793560000018,113.194391,114.1232600000003,,,,,114.12346060000027,114.13835689999996,114.33876259999988,114.32247289999987,113.194391,,,,,,,,1,1,0.9266332999995939,None,,,,,,,,863,26,M,R,2026-02-18_11h46.16.636,VisualSearch_2526_3,,2025.2.4,2026-02-18 11h46.17.071084 +0100,
tilted.xlsx,The target is tilted.,117,8,0,1,1,1,1,1,0,0,0,0,0,0,0,0,0,3,4,117,space,7.121492100000069,None,1,1,1.0503218999997443,None,space,6.766818999999941,None,0,0,0,0,,,,,1,0,8,2,114.33876259999988,,,,,,,,,,,,,,,,,,,,,114.32327299999997,114.33876259999988,114.82202150000012,114.8267393000001,114.84336519999988,115.90513580000015,,,,,115.90529779999997,115.92075280000017,116.1208816000003,116.10482400000001,114.84336519999988,,,,,,,,1,1,1.0503218999997443,None,,,,,,,,863,26,M,R,2026-02-18_11h46.16.636,VisualSearch_2526_3,,2025.2.4,2026-02-18 11h46.17.071084 +0100,
tilted.xlsx,The target is tilted.,117,9,1,1,0,1,1,1,1,1,1,1,0,0,0,0,1,7,8,117,space,7.121492100000069,None,0,1,2.0643647000001693,None,space,6.766818999999941,None,0,0,0,0,,,,,1,1,9,5,116.1208816000003,,,,,,,,,,,,,,,,,,,,,116.10556730000008,116.1208816000003,116.60508389999995,116.60978509999995,116.62057820000018,118.68802630000027,,,,,118.68823440000006,118.70300140000018,118.90297959999998,118.88729150000017,116.62057820000018,,,,,,,,0,1,2.0643647000001693,None,,,,,,,,863,26,M,R,2026-02-18_11h46.16.636,VisualSearch_2526_3,,2025.2.4,2026-02-18 11h46.17.071084 +0100,
tilted.xlsx,The target is tilted.,117,10,2,1,0,1,1,1,0,0,0,0,0,0,0,0,1,3,4,117,space,7.121492100000069,None,0,1,0.9801065999999992,None,space,6.766818999999941,None,0,0,0,0,,,,,1,2,10,6,118.90297959999998,,,,,,,,,,,,,,,,,,,,,118.88810109999986,118.90297959999998,119.38670520000005,119.39154970000027,119.40688380000029,120.40304790000027,,,,,120.40324970000029,120.41885610000008,120.61910380000018,120.60305640000024,119.40688380000029,,,,,,,,0,1,0.9801065999999992,None,,,,,,,,863,26,M,R,2026-02-18_11h46.16.636,VisualSearch_2526_3,,2025.2.4,2026-02-18 11h46.17.071084 +0100,
tilted.xlsx,The target is tilted.,117,11,3,1,1,0,0,0,0,0,0,0,0,0,0,0,0,0,1,117,space,7.121492100000069,None,1,1,0.6750990000000456,None,space,6.766818999999941,None,0,0,0,0,,,,,1,3,11,3,120.61910380000018,,,,,,,,,,,,,,,,,,,,,120.60380710000027,120.61910380000018,121.10278079999989,121.10766520000016,121.12411969999994,121.80287640000006,,,,,121.80307240000002,121.81818220000014,122.01840230000016,122.00222160000021,121.12411969999994,,,,,,,,1,1,0.6750990000000456,None,,,,,,,,863,26,M,R,2026-02-18_11h46.16.636,VisualSearch_2526_3,,2025.2.4,2026-02-18 11h46.17.071084 +0100,
tilted.xlsx,The target is tilted.,117,12,4,1,1,1,1,1,1,1,1,1,0,0,0,0,0,7,8,117,space,7.121492100000069,None,1,1,0.8140243999996528,None,space,6.766818999999941,None,0,0,0,0,,,,,1,4,12,1,122.01840230000016,,,,,,,,,,,,,,,,,,,,,122.00300040000002,122.01840230000016,122.50162850000015,122.5048655999999,122.518642,123.33590260000028,,,,,123.33611569999994,123.35082120000015,123.55103640000016,123.53471380000019,122.518642,,,,,,,,1,1,0.8140243999996528,None,,,,,,,,863,26,M,R,2026-02-18_11h46.16.636,VisualSearch_2526_3,,2025.2.4,2026-02-18 11h46.17.071084 +0100,
tilted.xlsx,The target is tilted.,117,13,5,1,0,0,0,0,0,0,0,0,0,0,0,0,1,1,1,117,space,7.121492100000069,None,0,1,0.6567763000002742,None,space,6.766818999999941,None,0,0,0,0,,,,,1,5,13,7,123.55103640000016,,,,,,,,,,,,,,,,,,,,,123.53544160000001,123.55103640000016,124.03476520000004,124.03949790000024,124.05699529999993,124.71811620000017,,,,,124.71831079999993,124.73352830000022,124.93375360000027,124.91736390000005,124.05699529999993,,,,,,,,0,1,0.6567763000002742,None,,,,,,,,863,26,M,R,2026-02-18_11h46.16.636,VisualSearch_2526_3,,2025.2.4,2026-02-18 11h46.17.071084 +0100,
tilted.xlsx,The target is tilted.,117,14,6,1,0,1,1,1,1,1,1,1,1,1,1,1,1,11,12,117,space,7.121492100000069,None,0,1,2.172822400000314,None,space,6.766818999999941,None,0,0,0,0,,,,,1,6,14,4,124.93375360000027,,,,,,,,,,,,,,,,,,,,,124.91766529999995,124.93375360000027,125.4175967000001,125.4223379,125.43881460000011,127.61720009999999,,,,,127.61739799999987,127.63220940000019,127.83253319999994,127.81658689999995,125.43881460000011,,,,,,,,0,1,2.172822400000314,None,,,,,,,,863,26,M,R,2026-02-18_11h46.16.636,VisualSearch_2526_3,,2025.2.4,2026-02-18 11h46.17.071084 +0100,
tilted.xlsx,The target is tilted.,117,15,7,1,1,1,1,1,1,1,1,1,1,1,1,1,0,11,12,117,space,7.121492100000069,None,0,0,2.341460999999981,None,space,6.766818999999941,None,0,0,0,0,,,,,1,7,15,0,127.83253319999994,,,,,,,,,,,,,,,,,,,,,127.81731530000025,127.83253319999994,128.31597250000004,128.32063130000006,128.33219950000012,130.68119789999992,,,,,130.68128019999995,130.6972496000003,130.8970878,130.88072120000015,128.33219950000012,,,,,,,,0,0,2.341460999999981,None,,,,,,,,863,26,M,R,2026-02-18_11h46.16.636,VisualSearch_2526_3,,2025.2.4,2026-02-18 11h46.17.071084 +0100,
tilted.xlsx,The target is tilted.,117,16,0,2,1,1,1,1,0,0,0,0,0,0,0,0,0,3,4,117,space,7.121492100000069,None,1,1,0.9871939999998176,None,space,6.766818999999941,None,0,0,0,0,,,,,2,0,16,2,130.8970878,,,,,,,,,,,,,,,,,,,,,130.8810609000002,130.8970878,131.38041329999987,131.38204210000004,131.3969373,132.39727940000012,,,,,132.39741570000024,132.41340690000015,132.6135916000003,132.5974524000003,131.3969373,,,,,,,,1,1,0.9871939999998176,None,,,,,,,,863,26,M,R,2026-02-18_11h46.16.636,VisualSearch_2526_3,,2025.2.4,2026-02-18 11h46.17.071084 +0100,
tilted.xlsx,The target is tilted.,117,17,1,2,0,1,1,1,1,1,1,1,0,0,0,0,1,7,8,117,space,7.121492100000069,None,0,1,2.005569899999955,None,space,6.766818999999941,None,0,0,0,0,,,,,2,1,17,5,132.6135916000003,,,,,,,,,,,,,,,,,,,,,132.59826359999988,132.6135916000003,133.0975314000002,133.10234130000026,133.11572560000013,135.13031690000025,,,,,135.13049200000023,135.14548259999992,135.34589170000027,135.3296166,133.11572560000013,,,,,,,,0,1,2.005569899999955,None,,,,,,,,863,26,M,R,2026-02-18_11h46.16.636,VisualSearch_2526_3,,2025.2.4,2026-02-18 11h46.17.071084 +0100,
tilted.xlsx,The target is tilted.,117,18,2,2,1,0,0,0,0,0,0,0,0,0,0,0,0,0,1,117,space,7.121492100000069,None,1,1,0.62102780000032,None,space,6.766818999999941,None,0,0,0,0,,,,,2,2,18,3,135.34589170000027,,,,,,,,,,,,,,,,,,,,,135.33033920000025,135.34589170000027,135.8296352000002,135.83443979999993,135.85117059999993,136.47937520000005,,,,,136.47953589999997,136.49484310000025,136.69500900000003,136.67937789999996,135.85117059999993,,,,,,,,1,1,0.62102780000032,None,,,,,,,,863,26,M,R,2026-02-18_11h46.16.636,VisualSearch_2526_3,,2025.2.4,2026-02-18 11h46.17.071084 +0100,
tilted.xlsx,The target is tilted.,117,19,3,2,0,0,0,0,0,0,0,0,0,0,0,0,1,1,1,117,space,7.121492100000069,None,0,1,0.5208898000000772,None,space,6.766818999999941,None,0,0,0,0,,,,,2,3,19,7,136.69500900000003,,,,,,,,,,,,,,,,,,,,,136.68017400000008,136.69500900000003,137.17903920000026,137.18381099999988,137.19926710000027,137.7293408999999,,,,,137.72957559999986,137.7443306,137.9445797000003,137.92801980000013,137.19926710000027,,,,,,,,0,1,0.5208898000000772,None,,,,,,,,863,26,M,R,2026-02-18_11h46.16.636,VisualSearch_2526_3,,2025.2.4,2026-02-18 11h46.17.071084 +0100,
tilted.xlsx,The target is tilted.,117,20,4,2,1,1,1,1,1,1,1,1,1,1,1,1,0,11,12,117,space,7.121492100000069,None,1,1,2.948385000000144,None,space,6.766818999999941,None,0,0,0,0,,,,,2,4,20,0,137.9445797000003,,,,,,,,,,,,,,,,,,,,,137.92847269999993,137.9445797000003,138.42824710000014,138.43149119999998,138.44391489999998,141.39321470000004,,,,,141.39334229999986,141.40929460000007,141.60987269999987,141.59314910000012,138.44391489999998,,,,,,,,1,1,2.948385000000144,None,,,,,,,,863,26,M,R,2026-02-18_11h46.16.636,VisualSearch_2526_3,,2025.2.4,2026-02-18 11h46.17.071084 +0100,
tilted.xlsx,The target is tilted.,117,21,5,2,0,1,1,1,1,1,1,1,1,1,1,1,1,11,12,117,space,7.121492100000069,None,0,1,3.341454700000213,None,space,6.766818999999941,None,0,0,0,0,,,,,2,5,21,4,141.60987269999987,,,,,,,,,,,,,,,,,,,,,141.5938927000002,141.60987269999987,142.0932256000001,142.0979453,142.11294799999996,145.45878240000002,,,,,145.45897990000003,145.4741165999999,145.67458620000025,145.6585213000003,142.11294799999996,,,,,,,,0,1,3.341454700000213,None,,,,,,,,863,26,M,R,2026-02-18_11h46.16.636,VisualSearch_2526_3,,2025.2.4,2026-02-18 11h46.17.071084 +0100,
tilted.xlsx,The target is tilted.,117,22,6,2,0,1,1,1,0,0,0,0,0,0,0,0,1,3,4,117,space,7.121492100000069,None,0,1,0.8227706000002399,None,space,6.766818999999941,None,0,0,0,0,,,,,2,6,22,6,145.67458620000025,,,,,,,,,,,,,,,,,,,,,145.65923509999993,145.67458620000025,146.15826319999996,146.1629594000001,146.18058359999986,147.00842899999998,,,,,147.0086283999999,147.02350079999997,147.22384790000024,147.2077887999999,146.18058359999986,,,,,,,,0,1,0.8227706000002399,None,,,,,,,,863,26,M,R,2026-02-18_11h46.16.636,VisualSearch_2526_3,,2025.2.4,2026-02-18 11h46.17.071084 +0100,
tilted.xlsx,The target is tilted.,117,23,7,2,1,1,1,1,1,1,1,1,0,0,0,0,0,7,8,117,space,7.121492100000069,None,1,1,1.9336367000000791,None,space,6.766818999999941,None,0,0,0,0,,,,,2,7,23,1,147.22384790000024,,,,,,,,,,,,,,,,,,,,,147.20853480000005,147.22384790000024,147.70756410000013,147.7123821,147.72924839999996,149.6738206,,,,,149.67403689999992,149.6889427000001,149.88948949999985,149.87318640000012,147.72924839999996,,,,,,,,1,1,1.9336367000000791,None,,,,,,,,863,26,M,R,2026-02-18_11h46.16.636,VisualSearch_2526_3,,2025.2.4,2026-02-18 11h46.17.071084 +0100,
tilted.xlsx,The target is tilted.,117,24,0,3,1,0,0,0,0,0,0,0,0,0,0,0,0,0,1,117,space,7.121492100000069,None,1,1,0.5577006000003166,None,space,6.766818999999941,None,0,0,0,0,,,,,3,0,24,3,149.88948949999985,,,,,,,,,,,,,,,,,,,,,149.8740084000001,149.88948949999985,150.37285800000018,150.37764700000025,150.39415820000022,150.9563102000002,,,,,150.95650810000006,150.9716229999999,151.1716719000001,151.15559370000028,150.39415820000022,,,,,,,,1,1,0.5577006000003166,None,,,,,,,,863,26,M,R,2026-02-18_11h46.16.636,VisualSearch_2526_3,,2025.2.4,2026-02-18 11h46.17.071084 +0100,
tilted.xlsx,The target is tilted.,117,25,1,3,0,1,1,1,1,1,1,1,1,1,1,1,1,11,12,117,space,7.121492100000069,None,0,1,3.5376820999999836,None,space,6.766818999999941,None,0,0,0,0,,,,,3,1,25,4,151.1716719000001,,,,,,,,,,,,,,,,,,,,,151.15633750000006,151.1716719000001,151.65575339999987,151.6604625,151.67549450000024,155.22150480000028,,,,,155.2218028000002,155.23639159999993,155.4368373000002,155.42038850000017,151.67549450000024,,,,,,,,0,1,3.5376820999999836,None,,,,,,,,863,26,M,R,2026-02-18_11h46.16.636,VisualSearch_2526_3,,2025.2.4,2026-02-18 11h46.17.071084 +0100,
tilted.xlsx,The target is tilted.,117,26,2,3,0,1,1,1,0,0,0,0,0,0,0,0,1,3,4,117,space,7.121492100000069,None,0,1,1.196310899999844,None,space,6.766818999999941,None,0,0,0,0,,,,,3,2,26,6,155.4368373000002,,,,,,,,,,,,,,,,,,,,,155.4212923,155.4368373000002,155.92069440000023,155.92602859999988,155.93983000000026,157.1532744000001,,,,,157.1534744999999,157.1688524000001,157.36942929999987,157.35319960000015,155.93983000000026,,,,,,,,0,1,1.196310899999844,None,,,,,,,,863,26,M,R,2026-02-18_11h46.16.636,VisualSearch_2526_3,,2025.2.4,2026-02-18 11h46.17.071084 +0100,
tilted.xlsx,The target is tilted.,117,27,3,3,1,1,1,1,1,1,1,1,0,0,0,0,0,7,8,117,space,7.121492100000069,None,1,1,2.17036330000019,None,space,6.766818999999941,None,0,0,0,0,,,,,3,3,27,1,157.36942929999987,,,,,,,,,,,,,,,,,,,,,157.3540309,157.36942929999987,157.85301590000017,157.8584463000002,157.87600030000021,160.0523822,,,,,160.05258129999993,160.06753879999997,160.2677206000003,160.2515745999999,157.87600030000021,,,,,,,,1,1,2.17036330000019,None,,,,,,,,863,26,M,R,2026-02-18_11h46.16.636,VisualSearch_2526_3,,2025.2.4,2026-02-18 11h46.17.071084 +0100,
tilted.xlsx,The target is tilted.,117,28,4,3,1,1,1,1,1,1,1,1,1,1,1,1,0,11,12,117,space,7.121492100000069,None,1,1,1.166360000000168,None,space,6.766818999999941,None,0,0,0,0,,,,,3,4,28,0,160.2677206000003,,,,,,,,,,,,,,,,,,,,,160.25238480000007,160.2677206000003,160.75169640000013,160.75700330000018,160.77348100000017,161.95169910000004,,,,,161.95192170000018,161.9666671,162.1670825000001,162.15100930000017,160.77348100000017,,,,,,,,1,1,1.166360000000168,None,,,,,,,,863,26,M,R,2026-02-18_11h46.16.636,VisualSearch_2526_3,,2025.2.4,2026-02-18 11h46.17.071084 +0100,
tilted.xlsx,The target is tilted.,117,29,5,3,0,1,1,1,1,1,1,1,0,0,0,0,1,7,8,117,space,7.121492100000069,None,0,1,1.4007949000001645,None,space,6.766818999999941,None,0,0,0,0,,,,,3,5,29,5,162.1670825000001,,,,,,,,,,,,,,,,,,,,,162.15171830000008,162.1670825000001,162.65029550000008,162.65522390000024,162.6710938000001,164.08345210000016,,,,,164.08358880000014,164.09898139999996,164.29957719999993,164.28328620000002,162.6710938000001,,,,,,,,0,1,1.4007949000001645,None,,,,,,,,863,26,M,R,2026-02-18_11h46.16.636,VisualSearch_2526_3,,2025.2.4,2026-02-18 11h46.17.071084 +0100,
tilted.xlsx,The target is tilted.,117,30,6,3,0,0,0,0,0,0,0,0,0,0,0,0,1,1,1,117,space,7.121492100000069,None,0,1,0.7889094000001933,None,space,6.766818999999941,None,0,0,0,0,,,,,3,6,30,7,164.29957719999993,,,,,,,,,,,,,,,,,,,,,164.28400340000007,164.29957719999993,164.78301090000014,164.78780989999996,164.80391850000024,165.5999681000003,,,,,165.6001682000001,165.61498949999987,165.8153768000002,165.7993703000002,164.80391850000024,,,,,,,,0,1,0.7889094000001933,None,,,,,,,,863,26,M,R,2026-02-18_11h46.16.636,VisualSearch_2526_3,,2025.2.4,2026-02-18 11h46.17.071084 +0100,
tilted.xlsx,The target is tilted.,117,31,7,3,1,1,1,1,0,0,0,0,0,0,0,0,0,3,4,117,space,7.121492100000069,None,1,1,1.3542022000001452,None,space,6.766818999999941,None,0,0,0,0,,,,,3,7,31,2,165.8153768000002,,,,,,,,,,,,,,,,,,,,,165.80010070000026,165.8153768000002,166.29830130000028,166.30068100000017,166.3144683999999,167.6817006000001,,,,,167.68189370000027,167.69738180000013,167.8979607000001,167.88183060000028,166.3144683999999,,,,,,,,1,1,1.3542022000001452,None,,,,,,,,863,26,M,R,2026-02-18_11h46.16.636,VisualSearch_2526_3,,2025.2.4,2026-02-18 11h46.17.071084 +0100,
tilted.xlsx,The target is tilted.,117,32,0,4,1,1,1,1,0,0,0,0,0,0,0,0,0,3,4,117,space,7.121492100000069,None,1,1,0.7444863000000623,None,space,6.766818999999941,None,0,0,0,0,,,,,4,0,32,2,167.8979607000001,,,,,,,,,,,,,,,,,,,,,167.8825651000002,167.8979607000001,168.38161160000027,168.3866455000002,168.40190690000009,169.1484233000001,,,,,169.14865390000023,169.1633726,169.36359570000013,169.3474028999999,168.40190690000009,,,,,,,,1,1,0.7444863000000623,None,,,,,,,,863,26,M,R,2026-02-18_11h46.16.636,VisualSearch_2526_3,,2025.2.4,2026-02-18 11h46.17.071084 +0100,
tilted.xlsx,The target is tilted.,117,33,1,4,1,1,1,1,1,1,1,1,1,1,1,1,0,11,12,117,space,7.121492100000069,None,1,1,2.2550068999998985,None,space,6.766818999999941,None,0,0,0,0,,,,,4,1,33,0,169.36359570000013,,,,,,,,,,,,,,,,,,,,,169.34830620000002,169.36359570000013,169.8473296000002,169.85167030000002,169.8686616,172.1303041000001,,,,,172.1305053000001,172.1453348,172.34582780000028,172.32961290000003,169.8686616,,,,,,,,1,1,2.2550068999998985,None,,,,,,,,863,26,M,R,2026-02-18_11h46.16.636,VisualSearch_2526_3,,2025.2.4,2026-02-18 11h46.17.071084 +0100,
tilted.xlsx,The target is tilted.,117,34,2,4,0,1,1,1,1,1,1,1,0,0,0,0,1,7,8,117,space,7.121492100000069,None,0,1,2.083470799999759,None,space,6.766818999999941,None,0,0,0,0,,,,,4,2,34,5,172.34582780000028,,,,,,,,,,,,,,,,,,,,,172.3303552000002,172.34582780000028,172.82948549999992,172.83415229999991,172.8512885,174.9449757000002,,,,,174.94507460000023,174.96060560000024,175.16088990000026,175.14497720000008,172.8512885,,,,,,,,0,1,2.083470799999759,None,,,,,,,,863,26,M,R,2026-02-18_11h46.16.636,VisualSearch_2526_3,,2025.2.4,2026-02-18 11h46.17.071084 +0100,
tilted.xlsx,The target is tilted.,117,35,3,4,0,0,0,0,0,0,0,0,0,0,0,0,1,1,1,117,space,7.121492100000069,None,0,1,0.5505224000003182,None,space,6.766818999999941,None,0,0,0,0,,,,,4,3,35,7,175.16088990000026,,,,,,,,,,,,,,,,,,,,,175.14572859999998,175.16088990000026,175.6445632,175.64939460000005,175.66040460000022,176.22771360000024,,,,,176.22792720000007,176.2434957999999,176.4436608000001,176.42785370000001,175.66040460000022,,,,,,,,0,1,0.5505224000003182,None,,,,,,,,863,26,M,R,2026-02-18_11h46.16.636,VisualSearch_2526_3,,2025.2.4,2026-02-18 11h46.17.071084 +0100,
tilted.xlsx,The target is tilted.,117,36,4,4,0,1,1,1,0,0,0,0,0,0,0,0,1,3,4,117,space,7.121492100000069,None,0,1,1.247363999999834,None,space,6.766818999999941,None,0,0,0,0,,,,,4,4,36,6,176.4436608000001,,,,,,,,,,,,,,,,,,,,,176.42855899999995,176.4436608000001,176.92718950000017,176.9299334000002,176.94352190000018,178.19399060000023,,,,,178.1941866000002,178.2093208000001,178.40977980000025,178.39355580000029,176.94352190000018,,,,,,,,0,1,1.247363999999834,None,,,,,,,,863,26,M,R,2026-02-18_11h46.16.636,VisualSearch_2526_3,,2025.2.4,2026-02-18 11h46.17.071084 +0100,
tilted.xlsx,The target is tilted.,117,37,5,4,1,1,1,1,1,1,1,1,0,0,0,0,0,7,8,117,space,7.121492100000069,None,0,0,1.6575950999999804,None,space,6.766818999999941,None,0,0,0,0,,,,,4,5,37,1,178.40977980000025,,,,,,,,,,,,,,,,,,,,,178.39427220000016,178.40977980000025,178.8931204999999,178.8979515000001,178.91567740000028,180.57657000000017,,,,,180.5768121000001,180.59151389999988,180.79164919999994,180.77581950000013,178.91567740000028,,,,,,,,0,0,1.6575950999999804,None,,,,,,,,863,26,M,R,2026-02-18_11h46.16.636,VisualSearch_2526_3,,2025.2.4,2026-02-18 11h46.17.071084 +0100,
tilted.xlsx,The target is tilted.,117,38,6,4,0,1,1,1,1,1,1,1,1,1,1,1,1,11,12,117,space,7.121492100000069,None,0,1,2.6103806000000986,None,space,6.766818999999941,None,0,0,0,0,,,,,4,6,38,4,180.79164919999994,,,,,,,,,,,,,,,,,,,,,180.77662370000007,180.79164919999994,181.2753372000002,181.2800201,181.2954190999999,183.90747050000027,,,,,183.9075659,183.9231823,184.12356150000005,184.10712190000004,181.2954190999999,,,,,,,,0,1,2.6103806000000986,None,,,,,,,,863,26,M,R,2026-02-18_11h46.16.636,VisualSearch_2526_3,,2025.2.4,2026-02-18 11h46.17.071084 +0100,
tilted.xlsx,The target is tilted.,117,39,7,4,1,0,0,0,0,0,0,0,0,0,0,0,0,0,1,117,space,7.121492100000069,None,1,1,0.5690615999997135,None,space,6.766818999999941,None,0,0,0,0,,,,,4,7,39,3,184.12356150000005,,,,,,,,,,,,,,,,,,,,,184.10753010000008,184.12356150000005,184.6075052000001,184.61227210000015,184.62881879999986,185.2077773000001,,,,,185.2079736999999,185.22277859999986,185.42309890000024,185.40713430000005,184.62881879999986,,,,,,,,1,1,0.5690615999997135,None,,,,,,,,863,26,M,R,2026-02-18_11h46.16.636,VisualSearch_2526_3,,2025.2.4,2026-02-18 11h46.17.071084 +0100,
tilted.xlsx,The target is tilted.,117,40,0,5,1,1,1,1,1,1,1,1,0,0,0,0,0,7,8,117,space,7.121492100000069,None,1,1,1.6635556000001088,None,space,6.766818999999941,None,0,0,0,0,,,,,5,0,40,1,185.42309890000024,,,,,,,,,,,,,,,,,,,,,185.40784780000013,185.42309890000024,185.90633190000017,185.9082238000001,185.92275169999994,187.59018000000015,,,,,187.5904098000001,187.60501310000018,187.80552350000016,187.78939480000008,185.92275169999994,,,,,,,,1,1,1.6635556000001088,None,,,,,,,,863,26,M,R,2026-02-18_11h46.16.636,VisualSearch_2526_3,,2025.2.4,2026-02-18 11h46.17.071084 +0100,
tilted.xlsx,The target is tilted.,117,41,1,5,0,1,1,1,1,1,1,1,1,1,1,1,1,11,12,117,space,7.121492100000069,None,0,1,2.5299111999997876,None,space,6.766818999999941,None,0,0,0,0,,,,,5,1,41,4,187.80552350000016,,,,,,,,,,,,,,,,,,,,,187.79010150000022,187.80552350000016,188.2892422,188.2940923000001,188.31072480000012,190.8546093,,,,,190.8548120999999,190.87020230000007,191.07066680000025,191.05439939999997,188.31072480000012,,,,,,,,0,1,2.5299111999997876,None,,,,,,,,863,26,M,R,2026-02-18_11h46.16.636,VisualSearch_2526_3,,2025.2.4,2026-02-18 11h46.17.071084 +0100,
tilted.xlsx,The target is tilted.,117,42,2,5,1,1,1,1,0,0,0,0,0,0,0,0,0,3,4,117,space,7.121492100000069,None,1,1,0.9108000000001084,None,space,6.766818999999941,None,0,0,0,0,,,,,5,2,42,2,191.07066680000025,,,,,,,,,,,,,,,,,,,,,191.05515430000014,191.07066680000025,191.55398100000002,191.5586745999999,191.57534020000003,192.50331910000023,,,,,192.50344570000016,192.51982820000012,192.7199943999999,192.70367239999996,191.57534020000003,,,,,,,,1,1,0.9108000000001084,None,,,,,,,,863,26,M,R,2026-02-18_11h46.16.636,VisualSearch_2526_3,,2025.2.4,2026-02-18 11h46.17.071084 +0100,
tilted.xlsx,The target is tilted.,117,43,3,5,0,0,0,0,0,0,0,0,0,0,0,0,1,1,1,117,space,7.121492100000069,None,0,1,0.5970441999998002,None,space,6.766818999999941,None,0,0,0,0,,,,,5,3,43,7,192.7199943999999,,,,,,,,,,,,,,,,,,,,,192.7044234,192.7199943999999,193.2036963999999,193.20871369999986,193.22479680000015,193.83636030000025,,,,,193.83652040000015,193.85215900000003,194.05257540000002,194.03654469999992,193.22479680000015,,,,,,,,0,1,0.5970441999998002,None,,,,,,,,863,26,M,R,2026-02-18_11h46.16.636,VisualSearch_2526_3,,2025.2.4,2026-02-18 11h46.17.071084 +0100,
tilted.xlsx,The target is tilted.,117,44,4,5,0,1,1,1,1,1,1,1,0,0,0,0,1,7,8,117,space,7.121492100000069,None,0,1,1.9994543000002523,None,space,6.766818999999941,None,0,0,0,0,,,,,5,4,44,5,194.05257540000002,,,,,,,,,,,,,,,,,,,,,194.03735740000002,194.05257540000002,194.53614670000024,194.54134539999995,194.5563674,196.5684338000001,,,,,196.56861000000026,196.58426310000004,196.78470370000014,196.7685666000002,194.5563674,,,,,,,,0,1,1.9994543000002523,None,,,,,,,,863,26,M,R,2026-02-18_11h46.16.636,VisualSearch_2526_3,,2025.2.4,2026-02-18 11h46.17.071084 +0100,
tilted.xlsx,The target is tilted.,117,45,5,5,1,1,1,1,1,1,1,1,1,1,1,1,0,11,12,117,space,7.121492100000069,None,1,1,0.7538150999998834,None,space,6.766818999999941,None,0,0,0,0,,,,,5,5,45,0,196.78470370000014,,,,,,,,,,,,,,,,,,,,,196.7692930000003,196.78470370000014,197.26841689999992,197.27326510000012,197.2907482999999,198.0517861000003,,,,,198.0519661000003,198.06695190000028,198.26742250000007,198.25121560000025,197.2907482999999,,,,,,,,1,1,0.7538150999998834,None,,,,,,,,863,26,M,R,2026-02-18_11h46.16.636,VisualSearch_2526_3,,2025.2.4,2026-02-18 11h46.17.071084 +0100,
tilted.xlsx,The target is tilted.,117,46,6,5,1,0,0,0,0,0,0,0,0,0,0,0,0,0,1,117,space,7.121492100000069,None,1,1,0.6015607999997883,None,space,6.766818999999941,None,0,0,0,0,,,,,5,6,46,3,198.26742250000007,,,,,,,,,,,,,,,,,,,,,198.25193070000023,198.26742250000007,198.75093470000002,198.75565899999992,198.76701649999995,199.3840467,,,,,199.3842649000003,199.39966809999987,199.60031230000004,199.58392099999992,198.76701649999995,,,,,,,,1,1,0.6015607999997883,None,,,,,,,,863,26,M,R,2026-02-18_11h46.16.636,VisualSearch_2526_3,,2025.2.4,2026-02-18 11h46.17.071084 +0100,
tilted.xlsx,The target is tilted.,117,47,7,5,0,1,1,1,0,0,0,0,0,0,0,0,1,3,4,117,space,7.121492100000069,None,0,1,1.0792513000001236,None,space,6.766818999999941,None,0,0,0,0,,,,,5,7,47,6,199.60031230000004,,,,,,,,,,,,,,,,,,,,,199.5846590000001,199.60031230000004,200.08371590000024,200.0884031999999,200.1050249,201.19979490000014,,,,,201.20000280000022,201.21552650000012,201.41599410000026,201.3997575000003,200.1050249,,,,,,,,0,1,1.0792513000001236,None,,,,,,,,863,26,M,R,2026-02-18_11h46.16.636,VisualSearch_2526_3,,2025.2.4,2026-02-18 11h46.17.071084 +0100,
tilted.xlsx,The target is tilted.,117,48,0,6,0,1,1,1,1,1,1,1,0,0,0,0,1,7,8,117,space,7.121492100000069,None,0,1,1.994307800000115,None,space,6.766818999999941,None,0,0,0,0,,,,,6,0,48,5,201.41599410000026,,,,,,,,,,,,,,,,,,,,,201.40050340000016,201.41599410000026,201.8996984999999,201.90456889999996,201.91520190000028,203.91589950000025,,,,,203.91609580000022,203.93101720000004,204.13141300000007,204.115315,201.91520190000028,,,,,,,,0,1,1.994307800000115,None,,,,,,,,863,26,M,R,2026-02-18_11h46.16.636,VisualSearch_2526_3,,2025.2.4,2026-02-18 11h46.17.071084 +0100,
tilted.xlsx,The target is tilted.,117,49,1,6,1,0,0,0,0,0,0,0,0,0,0,0,0,0,1,117,space,7.121492100000069,None,1,1,0.469264800000019,None,space,6.766818999999941,None,0,0,0,0,,,,,6,1,49,3,204.13141300000007,,,,,,,,,,,,,,,,,,,,,204.1161285000003,204.13141300000007,204.61502640000026,204.61971690000018,204.63713370000005,205.11513680000007,,,,,205.1153346000001,205.13046359999998,205.33098280000013,205.31475720000026,204.63713370000005,,,,,,,,1,1,0.469264800000019,None,,,,,,,,863,26,M,R,2026-02-18_11h46.16.636,VisualSearch_2526_3,,2025.2.4,2026-02-18 11h46.17.071084 +0100,
tilted.xlsx,The target is tilted.,117,50,2,6,0,1,1,1,1,1,1,1,1,1,1,1,1,11,12,117,space,7.121492100000069,None,0,1,2.397536400000263,None,space,6.766818999999941,None,0,0,0,0,,,,,6,2,50,4,205.33098280000013,,,,,,,,,,,,,,,,,,,,,205.3155898,205.33098280000013,205.8144367,205.81910740000012,205.8360990000001,208.24656670000013,,,,,208.2467658999999,208.2624211000002,208.46273210000027,208.44660160000012,205.8360990000001,,,,,,,,0,1,2.397536400000263,None,,,,,,,,863,26,M,R,2026-02-18_11h46.16.636,VisualSearch_2526_3,,2025.2.4,2026-02-18 11h46.17.071084 +0100,
tilted.xlsx,The target is tilted.,117,51,3,6,1,1,1,1,0,0,0,0,0,0,0,0,0,3,4,117,space,7.121492100000069,None,1,1,1.018559500000265,None,space,6.766818999999941,None,0,0,0,0,,,,,6,3,51,2,208.46273210000027,,,,,,,,,,,,,,,,,,,,,208.4473154000002,208.46273210000027,208.94634670000005,208.95102780000025,208.9676300000001,209.99585079999997,,,,,209.9960701,210.01140380000015,210.2116519000001,210.19580189999988,208.9676300000001,,,,,,,,1,1,1.018559500000265,None,,,,,,,,863,26,M,R,2026-02-18_11h46.16.636,VisualSearch_2526_3,,2025.2.4,2026-02-18 11h46.17.071084 +0100,
tilted.xlsx,The target is tilted.,117,52,4,6,0,0,0,0,0,0,0,0,0,0,0,0,1,1,1,117,space,7.121492100000069,None,0,1,0.5703734000003351,None,space,6.766818999999941,None,0,0,0,0,,,,,6,4,52,7,210.2116519000001,,,,,,,,,,,,,,,,,,,,,210.1965497000001,210.2116519000001,210.6956755000001,210.70036000000027,210.71742570000015,211.2956122999999,,,,,211.29580780000015,211.31102240000018,211.51136410000026,211.4952960999999,210.71742570000015,,,,,,,,0,1,0.5703734000003351,None,,,,,,,,863,26,M,R,2026-02-18_11h46.16.636,VisualSearch_2526_3,,2025.2.4,2026-02-18 11h46.17.071084 +0100,
tilted.xlsx,The target is tilted.,117,53,5,6,1,1,1,1,1,1,1,1,1,1,1,1,0,11,12,117,space,7.121492100000069,None,0,0,2.1667903000002298,None,space,6.766818999999941,None,0,0,0,0,,,,,6,5,53,0,211.51136410000026,,,,,,,,,,,,,,,,,,,,,211.49613670000008,211.51136410000026,211.99468680000018,211.99950309999986,212.0167752000002,214.19465560000026,,,,,214.19489490000024,214.20966799999997,214.41003950000004,214.39382980000028,212.0167752000002,,,,,,,,0,0,2.1667903000002298,None,,,,,,,,863,26,M,R,2026-02-18_11h46.16.636,VisualSearch_2526_3,,2025.2.4,2026-02-18 11h46.17.071084 +0100,
tilted.xlsx,The target is tilted.,117,54,6,6,1,1,1,1,1,1,1,1,0,0,0,0,0,7,8,117,space,7.121492100000069,None,1,1,1.0245546999999533,None,space,6.766818999999941,None,0,0,0,0,,,,,6,6,54,1,214.41003950000004,,,,,,,,,,,,,,,,,,,,,214.3945748000001,214.41003950000004,214.89361850000023,214.8984247000003,214.9097339,215.94378880000022,,,,,215.94398679999995,215.95883760000015,216.15927599999986,216.1430849000003,214.9097339,,,,,,,,1,1,1.0245546999999533,None,,,,,,,,863,26,M,R,2026-02-18_11h46.16.636,VisualSearch_2526_3,,2025.2.4,2026-02-18 11h46.17.071084 +0100,
tilted.xlsx,The target is tilted.,117,55,7,6,0,1,1,1,0,0,0,0,0,0,0,0,1,3,4,117,space,7.121492100000069,None,0,1,1.60786010000038,None,space,6.766818999999941,None,0,0,0,0,,,,,6,7,55,6,216.15927599999986,,,,,,,,,,,,,,,,,,,,,216.14389100000017,216.15927599999986,216.64288239999996,216.64752520000002,216.66292120000026,218.27687500000002,,,,,218.27707689999988,218.2911081000002,218.49121890000015,218.4751308,216.66292120000026,,,,,,,,0,1,1.60786010000038,None,,,,,,,,863,26,M,R,2026-02-18_11h46.16.636,VisualSearch_2526_3,,2025.2.4,2026-02-18 11h46.17.071084 +0100,
tilted.xlsx,The target is tilted.,117,56,0,7,1,1,1,1,0,0,0,0,0,0,0,0,0,3,4,117,space,7.121492100000069,None,1,1,0.5705527000000075,None,space,6.766818999999941,None,0,0,0,0,,,,,7,0,56,2,218.49121890000015,,,,,,,,,,,,,,,,,,,,,218.4758581000001,218.49121890000015,218.9748236999999,218.97949800000015,218.99524599999995,219.57544850000022,,,,,219.57564300000013,219.5905990000001,219.7907669000001,219.7745930000001,218.99524599999995,,,,,,,,1,1,0.5705527000000075,None,,,,,,,,863,26,M,R,2026-02-18_11h46.16.636,VisualSearch_2526_3,,2025.2.4,2026-02-18 11h46.17.071084 +0100,
tilted.xlsx,The target is tilted.,117,57,1,7,0,0,0,0,0,0,0,0,0,0,0,0,1,1,1,117,space,7.121492100000069,None,0,1,0.4972639999996318,None,space,6.766818999999941,None,0,0,0,0,,,,,7,1,57,7,219.7907669000001,,,,,,,,,,,,,,,,,,,,,219.77538929999992,219.7907669000001,220.27454579999994,220.27924930000017,220.2976291,220.8077748999999,,,,,220.80793330000006,220.82325249999985,221.02373990000024,221.0076607000001,220.2976291,,,,,,,,0,1,0.4972639999996318,None,,,,,,,,863,26,M,R,2026-02-18_11h46.16.636,VisualSearch_2526_3,,2025.2.4,2026-02-18 11h46.17.071084 +0100,
tilted.xlsx,The target is tilted.,117,58,2,7,0,1,1,1,1,1,1,1,1,1,1,1,1,11,12,117,space,7.121492100000069,None,0,1,2.812992000000122,None,space,6.766818999999941,None,0,0,0,0,,,,,7,2,58,4,221.02373990000024,,,,,,,,,,,,,,,,,,,,,221.00847040000008,221.02373990000024,221.50742119999995,221.5122024000002,221.52984210000022,224.35561170000028,,,,,224.3557533000003,224.37166460000026,224.57209760000023,224.5558734000001,221.52984210000022,,,,,,,,0,1,2.812992000000122,None,,,,,,,,863,26,M,R,2026-02-18_11h46.16.636,VisualSearch_2526_3,,2025.2.4,2026-02-18 11h46.17.071084 +0100,
tilted.xlsx,The target is tilted.,117,59,3,7,1,1,1,1,1,1,1,1,0,0,0,0,0,7,8,117,space,7.121492100000069,None,1,1,1.5773363000002973,None,space,6.766818999999941,None,0,0,0,0,,,,,7,3,59,1,224.57209760000023,,,,,,,,,,,,,,,,,,,,,224.55661670000018,224.57209760000023,225.0558114999999,225.06059940000023,225.07583740000018,226.65528570000015,,,,,226.65548040000022,226.67063140000027,226.8711171,226.85492019999992,225.07583740000018,,,,,,,,1,1,1.5773363000002973,None,,,,,,,,863,26,M,R,2026-02-18_11h46.16.636,VisualSearch_2526_3,,2025.2.4,2026-02-18 11h46.17.071084 +0100,
tilted.xlsx,The target is tilted.,117,60,4,7,0,1,1,1,0,0,0,0,0,0,0,0,1,3,4,117,space,7.121492100000069,None,0,1,1.1267995999996856,None,space,6.766818999999941,None,0,0,0,0,,,,,7,4,60,6,226.8711171,,,,,,,,,,,,,,,,,,,,,226.85574290000022,226.8711171,227.35469869999997,227.35934550000002,227.37632669999994,228.50452919999998,,,,,228.504727,228.51978980000013,228.71985810000024,228.70363180000004,227.37632669999994,,,,,,,,0,1,1.1267995999996856,None,,,,,,,,863,26,M,R,2026-02-18_11h46.16.636,VisualSearch_2526_3,,2025.2.4,2026-02-18 11h46.17.071084 +0100,
tilted.xlsx,The target is tilted.,117,61,5,7,1,0,0,0,0,0,0,0,0,0,0,0,0,0,1,117,space,7.121492100000069,None,1,1,0.5168939999998656,None,space,6.766818999999941,None,0,0,0,0,,,,,7,5,61,3,228.71985810000024,,,,,,,,,,,,,,,,,,,,,228.70398590000013,228.71985810000024,229.2038803999999,229.2085575000001,229.2265411000003,229.7537387000002,,,,,229.75393140000006,229.7691979000001,229.96970520000013,229.9534475999999,229.2265411000003,,,,,,,,1,1,0.5168939999998656,None,,,,,,,,863,26,M,R,2026-02-18_11h46.16.636,VisualSearch_2526_3,,2025.2.4,2026-02-18 11h46.17.071084 +0100,
tilted.xlsx,The target is tilted.,117,62,6,7,1,1,1,1,1,1,1,1,1,1,1,1,0,11,12,117,space,7.121492100000069,None,1,1,1.3124829000003047,None,space,6.766818999999941,None,0,0,0,0,,,,,7,6,62,0,229.96970520000013,,,,,,,,,,,,,,,,,,,,,229.95419110000012,229.96970520000013,230.45318570000018,230.45797560000028,230.4739798999999,231.8027403000001,,,,,231.80291250000028,231.81817150000006,232.01879689999987,232.0022256000002,230.4739798999999,,,,,,,,1,1,1.3124829000003047,None,,,,,,,,863,26,M,R,2026-02-18_11h46.16.636,VisualSearch_2526_3,,2025.2.4,2026-02-18 11h46.17.071084 +0100,
tilted.xlsx,The target is tilted.,117,63,7,7,0,1,1,1,1,1,1,1,0,0,0,0,1,7,8,117,space,7.121492100000069,None,0,1,1.7593335999999908,None,space,6.766818999999941,None,0,0,0,0,,,,,7,7,63,5,232.01879689999987,,,,,,,,,,,,,,,,,,,,,232.00296860000026,232.01879689999987,232.50203080000028,232.5067656000001,232.52327670000022,234.28546499999993,,,,,234.2856568000002,234.3005048,234.50103070000023,234.48476419999997,232.52327670000022,,,,,,,,0,1,1.7593335999999908,None,,,,,,,,863,26,M,R,2026-02-18_11h46.16.636,VisualSearch_2526_3,,2025.2.4,2026-02-18 11h46.17.071084 +0100,
tilted.xlsx,The target is tilted.,117,64,0,8,0,0,0,0,0,0,0,0,0,0,0,0,1,1,1,117,space,7.121492100000069,None,0,1,0.6261319999998705,None,space,6.766818999999941,None,0,0,0,0,,,,,8,0,64,7,234.50103070000023,,,,,,,,,,,,,,,,,,,,,234.48549309999999,234.50103070000023,234.9844564,234.9892101999999,235.0049022000003,235.63450310000007,,,,,235.63469510000004,235.64991400000008,235.85033509999994,235.83410460000005,235.0049022000003,,,,,,,,0,1,0.6261319999998705,None,,,,,,,,863,26,M,R,2026-02-18_11h46.16.636,VisualSearch_2526_3,,2025.2.4,2026-02-18 11h46.17.071084 +0100,
tilted.xlsx,The target is tilted.,117,65,1,8,1,1,1,1,0,0,0,0,0,0,0,0,0,3,4,117,space,7.121492100000069,None,1,1,0.8371135999996113,None,space,6.766818999999941,None,0,0,0,0,,,,,8,1,65,2,235.85033509999994,,,,,,,,,,,,,,,,,,,,,235.8348507999999,235.85033509999994,236.33395280000013,236.33862529999988,236.35695780000015,237.2005712,,,,,237.20074490000025,237.21583899999996,237.4163208,237.4002516999999,236.35695780000015,,,,,,,,1,1,0.8371135999996113,None,,,,,,,,863,26,M,R,2026-02-18_11h46.16.636,VisualSearch_2526_3,,2025.2.4,2026-02-18 11h46.17.071084 +0100,
tilted.xlsx,The target is tilted.,117,66,2,8,0,1,1,1,0,0,0,0,0,0,0,0,1,3,4,117,space,7.121492100000069,None,0,1,0.9208003000003373,None,space,6.766818999999941,None,0,0,0,0,,,,,8,2,66,6,237.4163208,,,,,,,,,,,,,,,,,,,,,237.40105549999998,237.4163208,237.89988660000017,237.9036954000003,237.9158996000001,238.84963900000002,,,,,238.84983009999996,238.86508140000024,239.06556230000024,239.0495049000001,237.9158996000001,,,,,,,,0,1,0.9208003000003373,None,,,,,,,,863,26,M,R,2026-02-18_11h46.16.636,VisualSearch_2526_3,,2025.2.4,2026-02-18 11h46.17.071084 +0100,
tilted.xlsx,The target is tilted.,117,67,3,8,1,1,1,1,1,1,1,1,1,1,1,1,0,11,12,117,space,7.121492100000069,None,1,1,0.8695577000003141,None,space,6.766818999999941,None,0,0,0,0,,,,,8,3,67,0,239.06556230000024,,,,,,,,,,,,,,,,,,,,,239.05021410000018,239.06556230000024,239.54924419999998,239.55396070000006,239.57049439999992,240.44936910000024,,,,,240.44955990000017,240.4643659000003,240.66477600000007,240.6487207,239.57049439999992,,,,,,,,1,1,0.8695577000003141,None,,,,,,,,863,26,M,R,2026-02-18_11h46.16.636,VisualSearch_2526_3,,2025.2.4,2026-02-18 11h46.17.071084 +0100,
tilted.xlsx,The target is tilted.,117,68,4,8,0,1,1,1,1,1,1,1,0,0,0,0,1,7,8,117,space,7.121492100000069,None,0,1,1.7860791999996763,None,space,6.766818999999941,None,0,0,0,0,,,,,8,4,68,5,240.66477600000007,,,,,,,,,,,,,,,,,,,,,240.64942500000006,240.66477600000007,241.14813300000014,241.1527919,241.1695135,242.96449699999994,,,,,242.9646888000002,242.9798195000003,243.1803619000002,243.16420019999987,241.1695135,,,,,,,,0,1,1.7860791999996763,None,,,,,,,,863,26,M,R,2026-02-18_11h46.16.636,VisualSearch_2526_3,,2025.2.4,2026-02-18 11h46.17.071084 +0100,
tilted.xlsx,The target is tilted.,117,69,5,8,1,1,1,1,1,1,1,1,0,0,0,0,0,7,8,117,space,7.121492100000069,None,1,1,1.2841574999997647,None,space,6.766818999999941,None,0,0,0,0,,,,,8,5,69,1,243.1803619000002,,,,,,,,,,,,,,,,,,,,,243.1649120000002,243.1803619000002,243.66400479999993,243.6686324000002,243.68460570000025,244.98047580000002,,,,,244.9806467000003,244.9956030000003,245.19612730000017,245.17961139999989,243.68460570000025,,,,,,,,1,1,1.2841574999997647,None,,,,,,,,863,26,M,R,2026-02-18_11h46.16.636,VisualSearch_2526_3,,2025.2.4,2026-02-18 11h46.17.071084 +0100,
tilted.xlsx,The target is tilted.,117,70,6,8,1,0,0,0,0,0,0,0,0,0,0,0,0,0,1,117,space,7.121492100000069,None,1,1,0.5006220000000212,None,space,6.766818999999941,None,0,0,0,0,,,,,8,6,70,3,245.19612730000017,,,,,,,,,,,,,,,,,,,,,245.1803632000001,245.19612730000017,245.6797875000002,245.68442390000018,245.70084859999997,246.21321220000027,,,,,246.21341970000003,246.2283663000003,246.42857490000006,246.4126126000001,245.70084859999997,,,,,,,,1,1,0.5006220000000212,None,,,,,,,,863,26,M,R,2026-02-18_11h46.16.636,VisualSearch_2526_3,,2025.2.4,2026-02-18 11h46.17.071084 +0100,
tilted.xlsx,The target is tilted.,117,71,7,8,0,1,1,1,1,1,1,1,1,1,1,1,1,11,12,117,space,7.121492100000069,None,0,1,3.322790000000168,None,space,6.766818999999941,None,0,0,0,0,,,,,8,7,71,4,246.42857490000006,,,,,,,,,,,,,,,,,,,,,246.4134383999999,246.42857490000006,246.9119168000002,246.91366440000002,246.92828180000015,250.26151170000003,,,,,250.2616834999999,250.27655559999994,250.47674060000008,250.46051910000006,246.92828180000015,,,,,,,,0,1,3.322790000000168,None,,,,,,,,863,26,M,R,2026-02-18_11h46.16.636,VisualSearch_2526_3,,2025.2.4,2026-02-18 11h46.17.071084 +0100,
tilted.xlsx,The target is tilted.,117,72,0,9,1,1,1,1,1,1,1,1,1,1,1,1,0,11,12,117,space,7.121492100000069,None,1,1,1.5199476000002505,None,space,6.766818999999941,None,0,0,0,0,,,,,9,0,72,0,250.47674060000008,,,,,,,,,,,,,,,,,,,,,250.46124689999988,250.47674060000008,250.96063400000003,250.9652928999999,250.9817476000003,252.51060710000002,,,,,252.5108335,252.5255830000001,252.72570739999992,252.70993829999998,250.9817476000003,,,,,,,,1,1,1.5199476000002505,None,,,,,,,,863,26,M,R,2026-02-18_11h46.16.636,VisualSearch_2526_3,,2025.2.4,2026-02-18 11h46.17.071084 +0100,
tilted.xlsx,The target is tilted.,117,73,1,9,1,1,1,1,1,1,1,1,0,0,0,0,0,7,8,117,space,7.121492100000069,None,1,1,1.4985128000002987,None,space,6.766818999999941,None,0,0,0,0,,,,,9,1,73,1,252.72570739999992,,,,,,,,,,,,,,,,,,,,,252.71063430000004,252.72570739999992,253.20961260000013,253.21425720000025,253.2298324000003,254.7424602000001,,,,,254.74265240000022,254.75799150000012,254.95814180000025,254.94146170000022,253.2298324000003,,,,,,,,1,1,1.4985128000002987,None,,,,,,,,863,26,M,R,2026-02-18_11h46.16.636,VisualSearch_2526_3,,2025.2.4,2026-02-18 11h46.17.071084 +0100,
tilted.xlsx,The target is tilted.,117,74,2,9,0,1,1,1,0,0,0,0,0,0,0,0,1,3,4,117,space,7.121492100000069,None,0,1,1.1092803999999887,None,space,6.766818999999941,None,0,0,0,0,,,,,9,2,74,6,254.95814180000025,,,,,,,,,,,,,,,,,,,,,254.9418641000002,254.95814180000025,255.44185449999986,255.44662500000004,255.4630628,256.5754366000001,,,,,256.5756472000003,256.5904482000001,256.7909644000001,256.77463510000007,255.4630628,,,,,,,,0,1,1.1092803999999887,None,,,,,,,,863,26,M,R,2026-02-18_11h46.16.636,VisualSearch_2526_3,,2025.2.4,2026-02-18 11h46.17.071084 +0100,
tilted.xlsx,The target is tilted.,117,75,3,9,0,1,1,1,1,1,1,1,0,0,0,0,1,7,8,117,space,7.121492100000069,None,0,1,2.053937700000006,None,space,6.766818999999941,None,0,0,0,0,,,,,9,3,75,5,256.7909644000001,,,,,,,,,,,,,,,,,,,,,256.7753462999999,256.7909644000001,257.2741626000002,257.27880430000005,257.2951790000002,259.35688400000026,,,,,259.3570571999999,259.3725247000002,259.5728683000002,259.55681270000014,257.2951790000002,,,,,,,,0,1,2.053937700000006,None,,,,,,,,863,26,M,R,2026-02-18_11h46.16.636,VisualSearch_2526_3,,2025.2.4,2026-02-18 11h46.17.071084 +0100,
tilted.xlsx,The target is tilted.,117,76,4,9,0,1,1,1,1,1,1,1,1,1,1,1,1,11,12,117,space,7.121492100000069,None,0,1,3.284066300000177,None,space,6.766818999999941,None,0,0,0,0,,,,,9,4,76,4,259.5728683000002,,,,,,,,,,,,,,,,,,,,,259.5575154000003,259.5728683000002,260.05658360000007,260.0612421000001,260.0769386000002,263.3723576000002,,,,,263.3725798999999,263.38728029999993,263.5877375,263.57167960000015,260.0769386000002,,,,,,,,0,1,3.284066300000177,None,,,,,,,,863,26,M,R,2026-02-18_11h46.16.636,VisualSearch_2526_3,,2025.2.4,2026-02-18 11h46.17.071084 +0100,
tilted.xlsx,The target is tilted.,117,77,5,9,0,0,0,0,0,0,0,0,0,0,0,0,1,1,1,117,space,7.121492100000069,None,0,1,1.1795142000000851,None,space,6.766818999999941,None,0,0,0,0,,,,,9,5,77,7,263.5877375,,,,,,,,,,,,,,,,,,,,,263.5724995999999,263.5877375,264.07133810000005,264.0759271000002,264.09274129999994,265.28696390000005,,,,,265.28708749999987,265.3035049,265.50355949999994,265.48728010000013,264.09274129999994,,,,,,,,0,1,1.1795142000000851,None,,,,,,,,863,26,M,R,2026-02-18_11h46.16.636,VisualSearch_2526_3,,2025.2.4,2026-02-18 11h46.17.071084 +0100,
tilted.xlsx,The target is tilted.,117,78,6,9,1,1,1,1,0,0,0,0,0,0,0,0,0,3,4,117,space,7.121492100000069,None,1,1,0.5836156000000301,None,space,6.766818999999941,None,0,0,0,0,,,,,9,6,78,2,265.50355949999994,,,,,,,,,,,,,,,,,,,,,265.4880198999999,265.50355949999994,265.98701340000025,265.9916612000002,266.00897870000017,266.6039506000002,,,,,266.6041230000001,266.6191457,266.8195082000002,266.80314739999994,266.00897870000017,,,,,,,,1,1,0.5836156000000301,None,,,,,,,,863,26,M,R,2026-02-18_11h46.16.636,VisualSearch_2526_3,,2025.2.4,2026-02-18 11h46.17.071084 +0100,
tilted.xlsx,The target is tilted.,117,79,7,9,1,0,0,0,0,0,0,0,0,0,0,0,0,0,1,117,space,7.121492100000069,None,1,1,0.5426225000001068,None,space,6.766818999999941,None,0,0,0,0,,,,,9,7,79,3,266.8195082000002,,,,,,,,,,,,,,,,,,,,,266.8038922999999,266.8195082000002,267.3031919,267.30788200000006,267.32450070000004,267.87033180000026,,,,,267.8705503000001,267.88529770000014,268.085462,268.0693053,267.32450070000004,,,,,,,,1,1,0.5426225000001068,None,,,,,,,,863,26,M,R,2026-02-18_11h46.16.636,VisualSearch_2526_3,,2025.2.4,2026-02-18 11h46.17.071084 +0100,
tilted.xlsx,The target is tilted.,117,80,0,10,1,0,0,0,0,0,0,0,0,0,0,0,0,0,1,117,space,7.121492100000069,None,1,1,1.1342351999996936,None,space,6.766818999999941,None,0,0,0,0,,,,,10,0,80,3,268.085462,,,,,,,,,,,,,,,,,,,,,268.07001690000016,268.085462,268.56910670000025,268.5739176000002,268.5852638000001,269.7352933000002,,,,,269.7354673,269.75108980000005,269.9514958,269.93478170000026,268.5852638000001,,,,,,,,1,1,1.1342351999996936,None,,,,,,,,863,26,M,R,2026-02-18_11h46.16.636,VisualSearch_2526_3,,2025.2.4,2026-02-18 11h46.17.071084 +0100,
tilted.xlsx,The target is tilted.,117,81,1,10,0,1,1,1,1,1,1,1,1,1,1,1,1,11,12,117,space,7.121492100000069,None,0,1,3.6332611999996516,None,space,6.766818999999941,None,0,0,0,0,,,,,10,1,81,4,269.9514958,,,,,,,,,,,,,,,,,,,,,269.9354880000001,269.9514958,270.4352250000002,270.43987259999994,270.4563685000003,274.10035590000007,,,,,274.1004889000001,274.1158137000002,274.31615740000007,274.29973770000015,270.4563685000003,,,,,,,,0,1,3.6332611999996516,None,,,,,,,,863,26,M,R,2026-02-18_11h46.16.636,VisualSearch_2526_3,,2025.2.4,2026-02-18 11h46.17.071084 +0100,
tilted.xlsx,The target is tilted.,117,82,2,10,1,1,1,1,0,0,0,0,0,0,0,0,0,3,4,117,space,7.121492100000069,None,1,1,0.876763999999639,None,space,6.766818999999941,None,0,0,0,0,,,,,10,2,82,2,274.31615740000007,,,,,,,,,,,,,,,,,,,,,274.30044540000017,274.31615740000007,274.8001349000001,274.80479520000017,274.8230748000001,275.7163321000003,,,,,275.71647680000024,275.7318699000002,275.9320566000001,275.91611060000014,274.8230748000001,,,,,,,,1,1,0.876763999999639,None,,,,,,,,863,26,M,R,2026-02-18_11h46.16.636,VisualSearch_2526_3,,2025.2.4,2026-02-18 11h46.17.071084 +0100,
tilted.xlsx,The target is tilted.,117,83,3,10,1,1,1,1,1,1,1,1,0,0,0,0,0,7,8,117,space,7.121492100000069,None,1,1,2.2276842000001125,None,space,6.766818999999941,None,0,0,0,0,,,,,10,3,83,1,275.9320566000001,,,,,,,,,,,,,,,,,,,,,275.91682390000005,275.9320566000001,276.41594220000025,276.42063700000017,276.43567729999995,278.6649038999999,,,,,278.6650365999999,278.68045870000014,278.88077939999994,278.8642745000002,276.43567729999995,,,,,,,,1,1,2.2276842000001125,None,,,,,,,,863,26,M,R,2026-02-18_11h46.16.636,VisualSearch_2526_3,,2025.2.4,2026-02-18 11h46.17.071084 +0100,
tilted.xlsx,The target is tilted.,117,84,4,10,0,0,0,0,0,0,0,0,0,0,0,0,1,1,1,117,space,7.121492100000069,None,0,1,0.6113875999999436,None,space,6.766818999999941,None,0,0,0,0,,,,,10,4,84,7,278.88077939999994,,,,,,,,,,,,,,,,,,,,,278.8649780999999,278.88077939999994,279.3644985000001,279.36908300000005,279.38650670000015,280.01402310000003,,,,,280.01418569999987,280.0301665000002,280.2303173999999,280.21416290000025,279.38650670000015,,,,,,,,0,1,0.6113875999999436,None,,,,,,,,863,26,M,R,2026-02-18_11h46.16.636,VisualSearch_2526_3,,2025.2.4,2026-02-18 11h46.17.071084 +0100,
tilted.xlsx,The target is tilted.,117,85,5,10,1,1,1,1,1,1,1,1,1,1,1,1,0,11,12,117,space,7.121492100000069,None,1,1,1.3082428000002437,None,space,6.766818999999941,None,0,0,0,0,,,,,10,5,85,0,280.2303173999999,,,,,,,,,,,,,,,,,,,,,280.21486730000015,280.2303173999999,280.7139123000002,280.7185494999999,280.73589900000024,282.04674969999996,,,,,282.04694150000023,282.0625677000003,282.2624826000001,282.2465474999999,280.73589900000024,,,,,,,,1,1,1.3082428000002437,None,,,,,,,,863,26,M,R,2026-02-18_11h46.16.636,VisualSearch_2526_3,,2025.2.4,2026-02-18 11h46.17.071084 +0100,
tilted.xlsx,The target is tilted.,117,86,6,10,0,1,1,1,1,1,1,1,0,0,0,0,1,7,8,117,space,7.121492100000069,None,0,1,2.4109340999998494,None,space,6.766818999999941,None,0,0,0,0,,,,,10,6,86,5,282.2624826000001,,,,,,,,,,,,,,,,,,,,,282.24725119999994,282.2624826000001,282.7463066,282.75105759999997,282.7661978000001,285.17896999999994,,,,,285.1791581000002,285.19423929999994,285.3945563000002,285.37846519999994,282.7661978000001,,,,,,,,0,1,2.4109340999998494,None,,,,,,,,863,26,M,R,2026-02-18_11h46.16.636,VisualSearch_2526_3,,2025.2.4,2026-02-18 11h46.17.071084 +0100,
tilted.xlsx,The target is tilted.,117,87,7,10,0,1,1,1,0,0,0,0,0,0,0,0,1,3,4,117,space,7.121492100000069,None,0,1,1.141502599999967,None,space,6.766818999999941,None,0,0,0,0,,,,,10,7,87,6,285.3945563000002,,,,,,,,,,,,,,,,,,,,,285.3792134999999,285.3945563000002,285.87821010000016,285.8828397000002,285.8995256000003,287.04448850000017,,,,,287.0446784999999,287.0603122000002,287.2599217000002,287.2438317000001,285.8995256000003,,,,,,,,0,1,1.141502599999967,None,,,,,,,,863,26,M,R,2026-02-18_11h46.16.636,VisualSearch_2526_3,,2025.2.4,2026-02-18 11h46.17.071084 +0100,
tilted.xlsx,The target is tilted.,117,88,0,11,0,1,1,1,0,0,0,0,0,0,0,0,1,3,4,117,space,7.121492100000069,None,0,1,1.2429994999997689,None,space,6.766818999999941,None,0,0,0,0,,,,,11,0,88,6,287.2599217000002,,,,,,,,,,,,,,,,,,,,,287.24455579999994,287.2599217000002,287.74387720000004,287.74850909999986,287.76429180000014,289.01035490000004,,,,,289.0104885999999,289.0261774999999,289.22617960000025,289.2100433999999,287.76429180000014,,,,,,,,0,1,1.2429994999997689,None,,,,,,,,863,26,M,R,2026-02-18_11h46.16.636,VisualSearch_2526_3,,2025.2.4,2026-02-18 11h46.17.071084 +0100,
tilted.xlsx,The target is tilted.,117,89,1,11,1,1,1,1,0,0,0,0,0,0,0,0,0,3,4,117,space,7.121492100000069,None,1,1,0.6893805999998222,None,space,6.766818999999941,None,0,0,0,0,,,,,11,1,89,2,289.22617960000025,,,,,,,,,,,,,,,,,,,,,289.21077060000016,289.22617960000025,289.7098163999999,289.71441830000003,289.72958719999997,290.4259162000003,,,,,290.42600790000006,290.4419269,290.6420704000002,290.62589430000025,289.72958719999997,,,,,,,,1,1,0.6893805999998222,None,,,,,,,,863,26,M,R,2026-02-18_11h46.16.636,VisualSearch_2526_3,,2025.2.4,2026-02-18 11h46.17.071084 +0100,
tilted.xlsx,The target is tilted.,117,90,2,11,0,0,0,0,0,0,0,0,0,0,0,0,1,1,1,117,space,7.121492100000069,None,0,1,0.5899949999998171,None,space,6.766818999999941,None,0,0,0,0,,,,,11,2,90,7,290.6420704000002,,,,,,,,,,,,,,,,,,,,,290.6266344999999,290.6420704000002,291.12545550000004,291.1301281000001,291.1455031999999,291.7427425000001,,,,,291.7429331000003,291.75826529999995,291.9582607000002,291.9417453000001,291.1455031999999,,,,,,,,0,1,0.5899949999998171,None,,,,,,,,863,26,M,R,2026-02-18_11h46.16.636,VisualSearch_2526_3,,2025.2.4,2026-02-18 11h46.17.071084 +0100,
tilted.xlsx,The target is tilted.,117,91,3,11,0,1,1,1,1,1,1,1,0,0,0,0,1,7,8,117,space,7.121492100000069,None,0,1,2.0859693000002153,None,space,6.766818999999941,None,0,0,0,0,,,,,11,3,91,5,291.9582607000002,,,,,,,,,,,,,,,,,,,,,291.9423286000001,291.9582607000002,292.44150179999997,292.44595930000014,292.4578362000002,294.55794990000004,,,,,294.5581427000002,294.5736677,294.7732218000001,294.75704429999996,292.4578362000002,,,,,,,,0,1,2.0859693000002153,None,,,,,,,,863,26,M,R,2026-02-18_11h46.16.636,VisualSearch_2526_3,,2025.2.4,2026-02-18 11h46.17.071084 +0100,
tilted.xlsx,The target is tilted.,117,92,4,11,1,1,1,1,1,1,1,1,1,1,1,1,0,11,12,117,space,7.121492100000069,None,1,1,2.5494580999998107,None,space,6.766818999999941,None,0,0,0,0,,,,,11,4,92,0,294.7732218000001,,,,,,,,,,,,,,,,,,,,,294.7577897000001,294.7732218000001,295.2573099000001,295.2619453000002,295.2784488000002,297.8400893000003,,,,,297.8402937000001,297.85543450000023,298.0555072000002,298.0392717,295.2784488000002,,,,,,,,1,1,2.5494580999998107,None,,,,,,,,863,26,M,R,2026-02-18_11h46.16.636,VisualSearch_2526_3,,2025.2.4,2026-02-18 11h46.17.071084 +0100,
tilted.xlsx,The target is tilted.,117,93,5,11,1,1,1,1,1,1,1,1,0,0,0,0,0,7,8,117,space,7.121492100000069,None,1,1,0.8632778000001053,None,space,6.766818999999941,None,0,0,0,0,,,,,11,5,93,1,298.0555072000002,,,,,,,,,,,,,,,,,,,,,298.0400046,298.0555072000002,298.5389610000002,298.5435881000003,298.56083100000023,299.43917850000025,,,,,299.43936870000016,299.4547656,299.6547694000001,299.63860269999986,298.56083100000023,,,,,,,,1,1,0.8632778000001053,None,,,,,,,,863,26,M,R,2026-02-18_11h46.16.636,VisualSearch_2526_3,,2025.2.4,2026-02-18 11h46.17.071084 +0100,
tilted.xlsx,The target is tilted.,117,94,6,11,1,0,0,0,0,0,0,0,0,0,0,0,0,0,1,117,space,7.121492100000069,None,1,1,0.43099990000018806,None,space,6.766818999999941,None,0,0,0,0,,,,,11,6,94,3,299.6547694000001,,,,,,,,,,,,,,,,,,,,,299.63929689999986,299.6547694000001,300.1384800000001,300.14320240000006,300.1582423,300.6045583,,,,,300.60470190000024,300.6203752000001,300.82100470000023,300.8047683,300.1582423,,,,,,,,1,1,0.43099990000018806,None,,,,,,,,863,26,M,R,2026-02-18_11h46.16.636,VisualSearch_2526_3,,2025.2.4,2026-02-18 11h46.17.071084 +0100,
tilted.xlsx,The target is tilted.,117,95,7,11,0,1,1,1,1,1,1,1,1,1,1,1,1,11,12,117,space,7.121492100000069,None,0,1,2.807753800000228,None,space,6.766818999999941,None,0,0,0,0,,,,,11,7,95,4,300.82100470000023,,,,,,,,,,,,,,,,,,,,,300.80547049999996,300.82100470000023,301.3044546000001,301.30912720000015,301.3248438999999,304.1368279000003,,,,,304.13701949999995,304.1526186000001,304.35217409999996,304.33619750000025,301.3248438999999,,,,,,,,0,1,2.807753800000228,None,,,,,,,,863,26,M,R,2026-02-18_11h46.16.636,VisualSearch_2526_3,,2025.2.4,2026-02-18 11h46.17.071084 +0100,
tilted.xlsx,The target is tilted.,117,96,0,12,0,1,1,1,0,0,0,0,0,0,0,0,1,3,4,117,space,7.121492100000069,None,0,1,0.8409615999999005,None,space,6.766818999999941,None,0,0,0,0,,,,,12,0,96,6,304.35217409999996,,,,,,,,,,,,,,,,,,,,,304.33697710000024,304.35217409999996,304.8362621000001,304.84088410000004,304.85576530000026,305.7028220000002,,,,,305.70300769999994,305.71861949999993,305.9183350000003,305.9021912000003,304.85576530000026,,,,,,,,0,1,0.8409615999999005,None,,,,,,,,863,26,M,R,2026-02-18_11h46.16.636,VisualSearch_2526_3,,2025.2.4,2026-02-18 11h46.17.071084 +0100,
tilted.xlsx,The target is tilted.,117,97,1,12,1,1,1,1,0,0,0,0,0,0,0,0,0,3,4,117,space,7.121492100000069,None,1,1,0.5441042000002199,None,space,6.766818999999941,None,0,0,0,0,,,,,12,1,97,2,305.9183350000003,,,,,,,,,,,,,,,,,,,,,305.9028966000001,305.9183350000003,306.4019923999999,306.40661820000014,306.42304839999997,306.9689936,,,,,306.96916450000026,306.98429880000003,307.18466750000016,307.16857149999987,306.42304839999997,,,,,,,,1,1,0.5441042000002199,None,,,,,,,,863,26,M,R,2026-02-18_11h46.16.636,VisualSearch_2526_3,,2025.2.4,2026-02-18 11h46.17.071084 +0100,
tilted.xlsx,The target is tilted.,117,98,2,12,0,1,1,1,1,1,1,1,1,1,1,1,1,11,12,117,space,7.121492100000069,None,0,1,2.5512055999997756,None,space,6.766818999999941,None,0,0,0,0,,,,,12,2,98,4,307.18466750000016,,,,,,,,,,,,,,,,,,,,,307.16927399999986,307.18466750000016,307.66825990000007,307.67301829999997,307.6878431,310.25117009999985,,,,,310.25139190000027,310.2665288000003,310.4660388000002,310.45003510000015,307.6878431,,,,,,,,0,1,2.5512055999997756,None,,,,,,,,863,26,M,R,2026-02-18_11h46.16.636,VisualSearch_2526_3,,2025.2.4,2026-02-18 11h46.17.071084 +0100,
tilted.xlsx,The target is tilted.,117,99,3,12,1,0,0,0,0,0,0,0,0,0,0,0,0,0,1,117,space,7.121492100000069,None,1,1,0.4963883000000351,None,space,6.766818999999941,None,0,0,0,0,,,,,12,3,99,3,310.4660388000002,,,,,,,,,,,,,,,,,,,,,310.4507475999999,310.4660388000002,310.94994510000015,310.9546267999999,310.9706934000001,311.48355900000024,,,,,311.4837318,311.4992884000003,311.69930569999997,311.68314910000026,310.9706934000001,,,,,,,,1,1,0.4963883000000351,None,,,,,,,,863,26,M,R,2026-02-18_11h46.16.636,VisualSearch_2526_3,,2025.2.4,2026-02-18 11h46.17.071084 +0100,
tilted.xlsx,The target is tilted.,117,100,4,12,0,1,1,1,1,1,1,1,0,0,0,0,1,7,8,117,space,7.121492100000069,None,0,1,2.133422800000062,None,space,6.766818999999941,None,0,0,0,0,,,,,12,4,100,5,311.69930569999997,,,,,,,,,,,,,,,,,,,,,311.68384730000025,311.69930569999997,312.18265789999987,312.1872979,312.2044913,314.34924820000015,,,,,314.3494651000001,314.36463950000007,314.5646102999999,314.5481746999999,312.2044913,,,,,,,,0,1,2.133422800000062,None,,,,,,,,863,26,M,R,2026-02-18_11h46.16.636,VisualSearch_2526_3,,2025.2.4,2026-02-18 11h46.17.071084 +0100,
tilted.xlsx,The target is tilted.,117,101,5,12,0,0,0,0,0,0,0,0,0,0,0,0,1,1,1,117,space,7.121492100000069,None,0,1,0.521438699999635,None,space,6.766818999999941,None,0,0,0,0,,,,,12,5,101,7,314.5646102999999,,,,,,,,,,,,,,,,,,,,,314.54890239999986,314.5646102999999,315.04833400000007,315.05303060000006,315.07015679999995,315.59865160000027,,,,,315.5988421000002,315.61406609999995,315.8141568000001,315.7979857999999,315.07015679999995,,,,,,,,0,1,0.521438699999635,None,,,,,,,,863,26,M,R,2026-02-18_11h46.16.636,VisualSearch_2526_3,,2025.2.4,2026-02-18 11h46.17.071084 +0100,
tilted.xlsx,The target is tilted.,117,102,6,12,1,1,1,1,1,1,1,1,1,1,1,1,0,11,12,117,space,7.121492100000069,None,1,1,1.5354864000000816,None,space,6.766818999999941,None,0,0,0,0,,,,,12,6,102,0,315.8141568000001,,,,,,,,,,,,,,,,,,,,,315.79869069999995,315.8141568000001,316.2977971999999,316.30239200000005,316.3171069,317.8639859,,,,,317.86415450000004,317.8796149,318.07975810000016,318.06326089999993,316.3171069,,,,,,,,1,1,1.5354864000000816,None,,,,,,,,863,26,M,R,2026-02-18_11h46.16.636,VisualSearch_2526_3,,2025.2.4,2026-02-18 11h46.17.071084 +0100,
tilted.xlsx,The target is tilted.,117,103,7,12,1,1,1,1,1,1,1,1,0,0,0,0,0,7,8,117,space,7.121492100000069,None,1,1,1.006599499999993,None,space,6.766818999999941,None,0,0,0,0,,,,,12,7,103,1,318.07975810000016,,,,,,,,,,,,,,,,,,,,,318.06397019999986,318.07975810000016,318.56331309999996,318.5676883000001,318.57934430000023,319.5965881000002,,,,,319.5967587,319.6122756,319.812101,319.79570790000025,318.57934430000023,,,,,,,,1,1,1.006599499999993,None,,,,,,,,863,26,M,R,2026-02-18_11h46.16.636,VisualSearch_2526_3,,2025.2.4,2026-02-18 11h46.17.071084 +0100,
tilted.xlsx,The target is tilted.,117,104,0,13,0,1,1,1,1,1,1,1,1,1,1,1,1,11,12,117,space,7.121492100000069,None,0,1,2.6050946000000295,None,space,6.766818999999941,None,0,0,0,0,,,,,13,0,104,4,319.812101,,,,,,,,,,,,,,,,,,,,,319.79642060000015,319.812101,320.29592730000013,320.30051790000016,320.31709180000007,322.927823,,,,,322.9279182,322.9435908999999,323.14408760000015,323.1280182999999,320.31709180000007,,,,,,,,0,1,2.6050946000000295,None,,,,,,,,863,26,M,R,2026-02-18_11h46.16.636,VisualSearch_2526_3,,2025.2.4,2026-02-18 11h46.17.071084 +0100,
tilted.xlsx,The target is tilted.,117,105,1,13,1,1,1,1,1,1,1,1,0,0,0,0,0,7,8,117,space,7.121492100000069,None,1,1,1.8420108000000255,None,space,6.766818999999941,None,0,0,0,0,,,,,13,1,105,1,323.14408760000015,,,,,,,,,,,,,,,,,,,,,323.1288185000003,323.14408760000015,323.62778750000007,323.63257550000026,323.6502700000001,325.4940641000003,,,,,325.49425210000027,325.50964049999993,325.70926020000024,325.69330420000006,323.6502700000001,,,,,,,,1,1,1.8420108000000255,None,,,,,,,,863,26,M,R,2026-02-18_11h46.16.636,VisualSearch_2526_3,,2025.2.4,2026-02-18 11h46.17.071084 +0100,
tilted.xlsx,The target is tilted.,117,106,2,13,1,1,1,1,0,0,0,0,0,0,0,0,0,3,4,117,space,7.121492100000069,None,0,0,0.8542358999998214,None,space,6.766818999999941,None,0,0,0,0,,,,,13,2,106,2,325.70926020000024,,,,,,,,,,,,,,,,,,,,,325.6940287000002,325.70926020000024,326.1928533999999,326.1975325000003,326.2151122999999,327.07728480000014,,,,,327.0774790999999,327.092091,327.2920749,327.2755457000003,326.2151122999999,,,,,,,,0,0,0.8542358999998214,None,,,,,,,,863,26,M,R,2026-02-18_11h46.16.636,VisualSearch_2526_3,,2025.2.4,2026-02-18 11h46.17.071084 +0100,
tilted.xlsx,The target is tilted.,117,107,3,13,1,1,1,1,1,1,1,1,1,1,1,1,0,11,12,117,space,7.121492100000069,None,1,1,1.271538899999996,None,space,6.766818999999941,None,0,0,0,0,,,,,13,3,107,0,327.2920749,,,,,,,,,,,,,,,,,,,,,327.2762152,327.2920749,327.77588400000013,327.7805570999999,327.79716910000025,329.0755183000001,,,,,329.0757287000001,329.0909945000003,329.2914344999999,329.27519630000006,327.79716910000025,,,,,,,,1,1,1.271538899999996,None,,,,,,,,863,26,M,R,2026-02-18_11h46.16.636,VisualSearch_2526_3,,2025.2.4,2026-02-18 11h46.17.071084 +0100,
tilted.xlsx,The target is tilted.,117,108,4,13,0,0,0,0,0,0,0,0,0,0,0,0,1,1,1,117,space,7.121492100000069,None,0,1,0.7495675999998639,None,space,6.766818999999941,None,0,0,0,0,,,,,13,4,108,7,329.2914344999999,,,,,,,,,,,,,,,,,,,,,329.2759659000003,329.2914344999999,329.7749990000002,329.7796315999999,329.7970878000001,330.5582193,,,,,330.5584100000001,330.5739944000002,330.7739397,330.7577819000003,329.7970878000001,,,,,,,,0,1,0.7495675999998639,None,,,,,,,,863,26,M,R,2026-02-18_11h46.16.636,VisualSearch_2526_3,,2025.2.4,2026-02-18 11h46.17.071084 +0100,
tilted.xlsx,The target is tilted.,117,109,5,13,0,1,1,1,0,0,0,0,0,0,0,0,1,3,4,117,space,7.121492100000069,None,0,1,2.2107796999998754,None,space,6.766818999999941,None,0,0,0,0,,,,,13,5,109,6,330.7739397,,,,,,,,,,,,,,,,,,,,,330.7585061,330.7739397,331.25768730000027,331.2623162,331.27769100000023,333.4900563000001,,,,,333.49022090000017,333.5060954999999,333.7059892000002,333.68985569999995,331.27769100000023,,,,,,,,0,1,2.2107796999998754,None,,,,,,,,863,26,M,R,2026-02-18_11h46.16.636,VisualSearch_2526_3,,2025.2.4,2026-02-18 11h46.17.071084 +0100,
tilted.xlsx,The target is tilted.,117,110,6,13,0,1,1,1,1,1,1,1,0,0,0,0,1,7,8,117,space,7.121492100000069,None,0,1,2.044426200000089,None,space,6.766818999999941,None,0,0,0,0,,,,,13,6,110,5,333.7059892000002,,,,,,,,,,,,,,,,,,,,,333.6905627000001,333.7059892000002,334.1886866,334.1907983000001,334.2054797999999,336.2553244999999,,,,,336.2554573000002,336.27104899999995,336.4714199,336.45516080000016,334.2054797999999,,,,,,,,0,1,2.044426200000089,None,,,,,,,,863,26,M,R,2026-02-18_11h46.16.636,VisualSearch_2526_3,,2025.2.4,2026-02-18 11h46.17.071084 +0100,
tilted.xlsx,The target is tilted.,117,111,7,13,1,0,0,0,0,0,0,0,0,0,0,0,0,0,1,117,space,7.121492100000069,None,1,1,0.559081000000333,None,space,6.766818999999941,None,0,0,0,0,,,,,13,7,111,3,336.4714199,,,,,,,,,,,,,,,,,,,,,336.45588959999986,336.4714199,336.9550097000001,336.95984580000004,336.9762023000003,337.53859379999994,,,,,337.5387813000002,337.5540957000003,337.75414649999993,337.7379371000002,336.9762023000003,,,,,,,,1,1,0.559081000000333,None,,,,,,,,863,26,M,R,2026-02-18_11h46.16.636,VisualSearch_2526_3,,2025.2.4,2026-02-18 11h46.17.071084 +0100,
tilted.xlsx,The target is tilted.,117,112,0,14,0,1,1,1,1,1,1,1,1,1,1,1,1,11,12,117,space,7.121492100000069,None,0,1,2.368433399999958,None,space,6.766818999999941,None,0,0,0,0,,,,,14,0,112,4,337.75414649999993,,,,,,,,,,,,,,,,,,,,,337.7386624999999,337.75414649999993,338.23779289999993,338.2423861000002,338.25379060000023,340.6367021000001,,,,,340.6368359000003,340.65230310000015,340.8527019000003,340.8366500000002,338.25379060000023,,,,,,,,0,1,2.368433399999958,None,,,,,,,,863,26,M,R,2026-02-18_11h46.16.636,VisualSearch_2526_3,,2025.2.4,2026-02-18 11h46.17.071084 +0100,
tilted.xlsx,The target is tilted.,117,113,1,14,1,1,1,1,1,1,1,1,1,1,1,1,0,11,12,117,space,7.121492100000069,None,1,1,1.5741188000001785,None,space,6.766818999999941,None,0,0,0,0,,,,,14,1,113,0,340.8527019000003,,,,,,,,,,,,,,,,,,,,,340.8373512000003,340.8527019000003,341.3363973999999,341.3411116000002,341.35858310000003,342.9354250000001,,,,,342.93551750000006,342.9510734999999,343.15152850000004,343.1354913,341.35858310000003,,,,,,,,1,1,1.5741188000001785,None,,,,,,,,863,26,M,R,2026-02-18_11h46.16.636,VisualSearch_2526_3,,2025.2.4,2026-02-18 11h46.17.071084 +0100,
tilted.xlsx,The target is tilted.,117,114,2,14,0,0,0,0,0,0,0,0,0,0,0,0,1,1,1,117,space,7.121492100000069,None,0,1,0.5480846000000383,None,space,6.766818999999941,None,0,0,0,0,,,,,14,2,114,7,343.15152850000004,,,,,,,,,,,,,,,,,,,,,343.13621490000014,343.15152850000004,343.6352529999999,343.63993519999985,343.65635109999994,344.2186372000001,,,,,344.21881040000017,344.23447699999997,344.4343924,344.4180994000003,343.65635109999994,,,,,,,,0,1,0.5480846000000383,None,,,,,,,,863,26,M,R,2026-02-18_11h46.16.636,VisualSearch_2526_3,,2025.2.4,2026-02-18 11h46.17.071084 +0100,
tilted.xlsx,The target is tilted.,117,115,3,14,1,0,0,0,0,0,0,0,0,0,0,0,0,0,1,117,space,7.121492100000069,None,1,1,0.5667066000000887,None,space,6.766818999999941,None,0,0,0,0,,,,,14,3,115,3,344.4343924,,,,,,,,,,,,,,,,,,,,,344.41883830000006,344.4343924,344.91748000000007,344.91961990000027,344.93409090000023,345.51766369999996,,,,,345.51774950000026,345.53325029999996,345.7337864000001,345.71773250000024,344.93409090000023,,,,,,,,1,1,0.5667066000000887,None,,,,,,,,863,26,M,R,2026-02-18_11h46.16.636,VisualSearch_2526_3,,2025.2.4,2026-02-18 11h46.17.071084 +0100,
tilted.xlsx,The target is tilted.,117,116,4,14,1,1,1,1,0,0,0,0,0,0,0,0,0,3,4,117,space,7.121492100000069,None,1,1,1.0386107999997876,None,space,6.766818999999941,None,0,0,0,0,,,,,14,4,116,2,345.7337864000001,,,,,,,,,,,,,,,,,,,,,345.7185697,345.7337864000001,346.2175351000001,346.2222789000002,346.24005350000016,347.2840395000003,,,,,347.2842119000002,347.29974459999994,347.4993708000002,347.4832437,346.24005350000016,,,,,,,,1,1,1.0386107999997876,None,,,,,,,,863,26,M,R,2026-02-18_11h46.16.636,VisualSearch_2526_3,,2025.2.4,2026-02-18 11h46.17.071084 +0100,
tilted.xlsx,The target is tilted.,117,117,5,14,0,1,1,1,1,1,1,1,0,0,0,0,1,7,8,117,space,7.121492100000069,None,0,1,1.628885099999934,None,space,6.766818999999941,None,0,0,0,0,,,,,14,5,117,5,347.4993708000002,,,,,,,,,,,,,,,,,,,,,347.48401969999986,347.4993708000002,347.98306950000006,347.98766860000023,348.0040985999999,349.64917890000015,,,,,349.6493856000002,349.6651007999999,349.86531379999997,349.84924630000023,348.0040985999999,,,,,,,,0,1,1.628885099999934,None,,,,,,,,863,26,M,R,2026-02-18_11h46.16.636,VisualSearch_2526_3,,2025.2.4,2026-02-18 11h46.17.071084 +0100,
tilted.xlsx,The target is tilted.,117,118,6,14,0,1,1,1,0,0,0,0,0,0,0,0,1,3,4,117,space,7.121492100000069,None,0,1,0.6118262999998478,None,space,6.766818999999941,None,0,0,0,0,,,,,14,6,118,6,349.86531379999997,,,,,,,,,,,,,,,,,,,,,349.84994989999996,349.86531379999997,350.3489988000001,350.3535790000001,350.37039270000014,350.9988579000001,,,,,350.99904560000004,351.0146831000002,351.2144539000001,351.1983906999999,350.37039270000014,,,,,,,,0,1,0.6118262999998478,None,,,,,,,,863,26,M,R,2026-02-18_11h46.16.636,VisualSearch_2526_3,,2025.2.4,2026-02-18 11h46.17.071084 +0100,
tilted.xlsx,The target is tilted.,117,119,7,14,1,1,1,1,1,1,1,1,0,0,0,0,0,7,8,117,space,7.121492100000069,None,0,0,2.0904669999999896,None,space,6.766818999999941,None,0,0,0,0,,,,,14,7,119,1,351.2144539000001,,,,,,,,,,,,,,,,,,,,,351.1991415000002,351.2144539000001,351.6983978000003,351.7030832999999,351.72044080000023,353.8142072999999,,,,,353.81439709999995,353.8301317999999,354.0447672999999,354.01391779999994,351.72044080000023,,,,,,,,0,0,2.0904669999999896,None,,,,,,,,863,26,M,R,2026-02-18_11h46.16.636,VisualSearch_2526_3,,2025.2.4,2026-02-18 11h46.17.071084 +0100,
tilted.xlsx,The target is tilted.,117,0,0,0,,,,,,,,,,,,,,,,,space,7.121492100000069,None,,,,,space,6.766818999999941,None,0,0,0,0,,,,,,,,,,,,,,,,,,,,,,,,,,,,,,,,,,,,,,,,,,,,,,,,,,,,,,,,,,,,,,,863,26,M,R,2026-02-18_11h46.16.636,VisualSearch_2526_3,,2025.2.4,2026-02-18 11h46.17.071084 +0100,
vertical.xlsx,The target is tilted.,135,0,0,0,0,0,0,0,0,0,0,0,0,0,0,0,1,1,1,135,space,3.6194737000000714,None,0,1,0.5548991000000569,None,,,,0,1,1,1,0,0,0,7,,,,,357.7210651999999,,,,,,,,,,,,,,,354.0447672999999,354.0447672999999,354.0447672999999,space,3.6194737000000714,None,357.71742630000017,357.7210651999999,358.1947981000003,358.19960960000026,358.2147878999999,358.77809000000025,0,1,0.5548991000000569,None,358.77822190000006,358.7940020000001,358.9940730000003,358.9779569000002,,,,,,,,,,,,,,,,,,,,863,26,M,R,2026-02-18_11h46.16.636,VisualSearch_2526_3,,2025.2.4,2026-02-18 11h46.17.071084 +0100,
vertical.xlsx,The target is tilted.,135,1,1,0,1,0,0,0,0,0,0,0,0,0,0,0,0,0,1,135,space,3.6194737000000714,None,1,1,0.49107480000020587,None,,,,0,1,1,1,0,1,1,3,,,,,358.9940730000003,,,,,,,,,,,,,,,,,,,,,358.97859900000003,358.9940730000003,359.4784066000002,359.48380110000016,359.50082109999994,359.9951455999999,1,1,0.49107480000020587,None,359.9953289,360.0105616999999,360.21061340000006,360.19444350000003,359.50082109999994,,,,,,,,,,,,,,,,,,,863,26,M,R,2026-02-18_11h46.16.636,VisualSearch_2526_3,,2025.2.4,2026-02-18 11h46.17.071084 +0100,
vertical.xlsx,The target is tilted.,135,2,2,0,1,1,1,1,0,0,0,0,0,0,0,0,0,3,4,135,space,3.6194737000000714,None,1,1,0.5624105000001691,None,,,,0,1,1,1,0,2,2,2,,,,,360.21061340000006,,,,,,,,,,,,,,,,,,,,,360.1950976000003,360.21061340000006,360.69427510000014,360.6995200000001,360.71538740000005,361.2940117000003,1,1,0.5624105000001691,None,361.29418450000003,361.3100955,361.5095784,361.4938680999999,360.71538740000005,,,,,,,,,,,,,,,,,,,863,26,M,R,2026-02-18_11h46.16.636,VisualSearch_2526_3,,2025.2.4,2026-02-18 11h46.17.071084 +0100,
vertical.xlsx,The target is tilted.,135,3,3,0,1,1,1,1,1,1,1,1,1,1,1,1,0,11,12,135,space,3.6194737000000714,None,1,1,0.9314150000000154,None,,,,0,1,1,1,0,3,3,0,,,,,361.5095784,,,,,,,,,,,,,,,,,,,,,361.4945149,361.5095784,361.9936038999999,361.998188,362.01481520000016,362.96016080000027,1,1,0.9314150000000154,None,362.96032920000016,362.9757764000001,363.17594910000025,363.1598253000002,362.01481520000016,,,,,,,,,,,,,,,,,,,863,26,M,R,2026-02-18_11h46.16.636,VisualSearch_2526_3,,2025.2.4,2026-02-18 11h46.17.071084 +0100,
vertical.xlsx,The target is tilted.,135,4,4,0,0,1,1,1,0,0,0,0,0,0,0,0,1,3,4,135,space,3.6194737000000714,None,0,1,0.9406407000001309,None,,,,0,1,1,1,0,4,4,6,,,,,363.17594910000025,,,,,,,,,,,,,,,,,,,,,363.1604751,363.17594910000025,363.65924159999986,363.6638677000001,363.67980149999994,364.62572910000017,0,1,0.9406407000001309,None,364.6259220000002,364.64145099999996,364.8415258,364.82574509999995,363.67980149999994,,,,,,,,,,,,,,,,,,,863,26,M,R,2026-02-18_11h46.16.636,VisualSearch_2526_3,,2025.2.4,2026-02-18 11h46.17.071084 +0100,
vertical.xlsx,The target is tilted.,135,5,5,0,0,1,1,1,1,1,1,1,1,1,1,1,1,11,12,135,space,3.6194737000000714,None,0,1,1.3474648000001253,None,,,,0,1,1,1,0,5,5,4,,,,,364.8415258,,,,,,,,,,,,,,,,,,,,,364.82646569999997,364.8415258,365.3255323000003,365.3301980000001,365.3482776999999,366.70811460000004,0,1,1.3474648000001253,None,366.70826810000017,366.7240898,366.9239163000002,366.9073392,365.3482776999999,,,,,,,,,,,,,,,,,,,863,26,M,R,2026-02-18_11h46.16.636,VisualSearch_2526_3,,2025.2.4,2026-02-18 11h46.17.071084 +0100,
vertical.xlsx,The target is tilted.,135,6,6,0,0,1,1,1,1,1,1,1,0,0,0,0,1,7,8,135,space,3.6194737000000714,None,0,1,1.1291544999999132,None,,,,0,1,1,1,0,6,6,5,,,,,366.9239163000002,,,,,,,,,,,,,,,,,,,,,366.90763830000014,366.9239163000002,367.40791020000006,367.4125874000001,367.4288303000003,368.57447550000006,0,1,1.1291544999999132,None,368.57466139999997,368.5900998000002,368.7901302999999,368.77405069999986,367.4288303000003,,,,,,,,,,,,,,,,,,,863,26,M,R,2026-02-18_11h46.16.636,VisualSearch_2526_3,,2025.2.4,2026-02-18 11h46.17.071084 +0100,
vertical.xlsx,The target is tilted.,135,7,7,0,1,1,1,1,1,1,1,1,0,0,0,0,0,7,8,135,space,3.6194737000000714,None,1,1,0.6388969999998153,None,,,,0,1,1,1,0,7,7,1,,,,,368.7901302999999,,,,,,,,,,,,,,,,,,,,,368.7748074000001,368.7901302999999,369.27358730000014,369.27822259999994,369.29517179999993,369.94057470000007,1,1,0.6388969999998153,None,369.94075710000016,369.9561284000001,370.1556541,370.1399286000001,369.29517179999993,,,,,,,,,,,,,,,,,,,863,26,M,R,2026-02-18_11h46.16.636,VisualSearch_2526_3,,2025.2.4,2026-02-18 11h46.17.071084 +0100,
vertical.xlsx,The target is tilted.,135,0,0,0,0,1,1,1,1,1,1,1,1,1,1,1,1,11,12,135,space,3.6194737000000714,None,0,1,1.0976488999999674,None,space,1.8693022000002202,None,0,1,1,1,,,,,0,0,0,4,372.0703825999999,,,,,,,,,,,,,,,,,,,,,372.06618130000015,372.0703825999999,372.5553281000002,372.5600422000002,372.5769083,373.6896208000003,,,,,373.68968619999987,373.7039168000001,373.9039265000001,373.8878886000002,,370.14682519999997,370.1556541,370.1556541,372.0389921000001,space,1.8693022000002202,None,0,1,1.0976488999999674,None,,,,,,,,863,26,M,R,2026-02-18_11h46.16.636,VisualSearch_2526_3,,2025.2.4,2026-02-18 11h46.17.071084 +0100,
vertical.xlsx,The target is tilted.,135,1,1,0,0,0,0,0,0,0,0,0,0,0,0,0,1,1,1,135,space,3.6194737000000714,None,0,1,0.5572163000001638,None,space,1.8693022000002202,None,0,1,1,1,,,,,0,1,1,7,373.9039265000001,,,,,,,,,,,,,,,,,,,,,373.88862689999996,373.9039265000001,374.3881148999999,374.39286119999997,374.40789410000025,374.97163660000024,,,,,374.9718259000001,374.98720379999986,375.18712140000025,375.17104740000013,374.40789410000025,,,,,,,,0,1,0.5572163000001638,None,,,,,,,,863,26,M,R,2026-02-18_11h46.16.636,VisualSearch_2526_3,,2025.2.4,2026-02-18 11h46.17.071084 +0100,
vertical.xlsx,The target is tilted.,135,2,2,0,1,1,1,1,1,1,1,1,0,0,0,0,0,7,8,135,space,3.6194737000000714,None,1,1,0.9320646000001034,None,space,1.8693022000002202,None,0,1,1,1,,,,,0,2,2,1,375.18712140000025,,,,,,,,,,,,,,,,,,,,,375.1718512000002,375.18712140000025,375.67064900000014,375.67527359999985,375.6931718999999,376.6375366000002,,,,,376.63772700000027,376.6528265000002,376.8530353000001,376.8368195000003,375.6931718999999,,,,,,,,1,1,0.9320646000001034,None,,,,,,,,863,26,M,R,2026-02-18_11h46.16.636,VisualSearch_2526_3,,2025.2.4,2026-02-18 11h46.17.071084 +0100,
vertical.xlsx,The target is tilted.,135,3,3,0,0,1,1,1,1,1,1,1,0,0,0,0,1,7,8,135,space,3.6194737000000714,None,0,1,1.0432863000000907,None,space,1.8693022000002202,None,0,1,1,1,,,,,0,3,3,5,376.8530353000001,,,,,,,,,,,,,,,,,,,,,376.83756110000013,376.8530353000001,377.33615499999996,377.3407526000001,377.3539267000001,378.4030633000002,,,,,378.4032565000002,378.4190171,378.6189370000002,378.6026996999999,377.3539267000001,,,,,,,,0,1,1.0432863000000907,None,,,,,,,,863,26,M,R,2026-02-18_11h46.16.636,VisualSearch_2526_3,,2025.2.4,2026-02-18 11h46.17.071084 +0100,
vertical.xlsx,The target is tilted.,135,4,4,0,0,1,1,1,0,0,0,0,0,0,0,0,1,3,4,135,space,3.6194737000000714,None,0,1,0.4425346000002719,None,space,1.8693022000002202,None,0,1,1,1,,,,,0,4,4,6,378.6189370000002,,,,,,,,,,,,,,,,,,,,,378.6034453000002,378.6189370000002,379.1022602000003,379.1069861000001,379.1235138000002,379.5688189000002,,,,,379.5689089000002,379.58455000000004,379.78507590000027,379.7690118999999,379.1235138000002,,,,,,,,0,1,0.4425346000002719,None,,,,,,,,863,26,M,R,2026-02-18_11h46.16.636,VisualSearch_2526_3,,2025.2.4,2026-02-18 11h46.17.071084 +0100,
vertical.xlsx,The target is tilted.,135,5,5,0,1,1,1,1,1,1,1,1,1,1,1,1,0,11,12,135,space,3.6194737000000714,None,0,0,1.5191599999998289,None,space,1.8693022000002202,None,0,1,1,1,,,,,0,5,5,0,379.78507590000027,,,,,,,,,,,,,,,,,,,,,379.7697183,379.78507590000027,380.2687853000002,380.2734905000002,380.2907399999999,381.81840569999986,,,,,381.8185790000002,381.8341544,382.03400469999997,382.0175561000001,380.2907399999999,,,,,,,,0,0,1.5191599999998289,None,,,,,,,,863,26,M,R,2026-02-18_11h46.16.636,VisualSearch_2526_3,,2025.2.4,2026-02-18 11h46.17.071084 +0100,
vertical.xlsx,The target is tilted.,135,6,6,0,1,0,0,0,0,0,0,0,0,0,0,0,0,0,1,135,space,3.6194737000000714,None,1,1,0.4267630000003919,None,space,1.8693022000002202,None,0,1,1,1,,,,,0,6,6,3,382.03400469999997,,,,,,,,,,,,,,,,,,,,,382.01831570000013,382.03400469999997,382.51780310000004,382.5225518000002,382.5390188000001,382.9674104999999,,,,,382.9676116999999,382.98329460000014,383.18352170000026,383.16719330000024,382.5390188000001,,,,,,,,1,1,0.4267630000003919,None,,,,,,,,863,26,M,R,2026-02-18_11h46.16.636,VisualSearch_2526_3,,2025.2.4,2026-02-18 11h46.17.071084 +0100,
vertical.xlsx,The target is tilted.,135,7,7,0,1,1,1,1,0,0,0,0,0,0,0,0,0,3,4,135,space,3.6194737000000714,None,0,0,0.6343501999999717,None,space,1.8693022000002202,None,0,1,1,1,,,,,0,7,7,2,383.18352170000026,,,,,,,,,,,,,,,,,,,,,383.16795090000005,383.18352170000026,383.66728980000016,383.6720863999999,383.69025980000015,384.3332069000003,,,,,384.33334520000017,384.34945530000005,384.54948779999995,384.5330971000003,383.69025980000015,,,,,,,,0,0,0.6343501999999717,None,,,,,,,,863,26,M,R,2026-02-18_11h46.16.636,VisualSearch_2526_3,,2025.2.4,2026-02-18 11h46.17.071084 +0100,
vertical.xlsx,The target is tilted.,135,8,0,1,0,1,1,1,1,1,1,1,1,1,1,1,1,11,12,135,space,3.6194737000000714,None,0,1,1.4433766000001924,None,space,1.8693022000002202,None,0,1,1,1,,,,,1,0,8,4,384.54948779999995,,,,,,,,,,,,,,,,,,,,,384.5338789000002,384.54948779999995,385.0332351000002,385.03785400000015,385.0555830000003,386.51651070000025,,,,,386.51673310000024,386.5314492000002,386.7317713000002,386.71575900000016,385.0555830000003,,,,,,,,0,1,1.4433766000001924,None,,,,,,,,863,26,M,R,2026-02-18_11h46.16.636,VisualSearch_2526_3,,2025.2.4,2026-02-18 11h46.17.071084 +0100,
vertical.xlsx,The target is tilted.,135,9,1,1,0,1,1,1,0,0,0,0,0,0,0,0,1,3,4,135,space,3.6194737000000714,None,0,1,0.8378483000001324,None,space,1.8693022000002202,None,0,1,1,1,,,,,1,1,9,6,386.7317713000002,,,,,,,,,,,,,,,,,,,,,386.7164656,386.7317713000002,387.2156041000003,387.2202207,387.23562900000024,388.0824957,,,,,388.0827024,388.0974255000001,388.29784199999995,388.2815378999999,387.23562900000024,,,,,,,,0,1,0.8378483000001324,None,,,,,,,,863,26,M,R,2026-02-18_11h46.16.636,VisualSearch_2526_3,,2025.2.4,2026-02-18 11h46.17.071084 +0100,
vertical.xlsx,The target is tilted.,135,10,2,1,0,0,0,0,0,0,0,0,0,0,0,0,1,1,1,135,space,3.6194737000000714,None,0,1,0.4193285000001197,None,space,1.8693022000002202,None,0,1,1,1,,,,,1,2,10,7,388.29784199999995,,,,,,,,,,,,,,,,,,,,,388.28234520000024,388.29784199999995,388.7816406000002,388.7862448000001,388.79741650000005,389.2318436999999,,,,,389.2320319999999,389.24742779999997,389.4473830000002,389.43125710000004,388.79741650000005,,,,,,,,0,1,0.4193285000001197,None,,,,,,,,863,26,M,R,2026-02-18_11h46.16.636,VisualSearch_2526_3,,2025.2.4,2026-02-18 11h46.17.071084 +0100,
vertical.xlsx,The target is tilted.,135,11,3,1,1,1,1,1,1,1,1,1,1,1,1,1,0,11,12,135,space,3.6194737000000714,None,1,1,0.925367599999845,None,space,1.8693022000002202,None,0,1,1,1,,,,,1,3,11,0,389.4473830000002,,,,,,,,,,,,,,,,,,,,,389.43198680000023,389.4473830000002,389.9309505000001,389.9356318,389.9515924000002,390.88078640000003,,,,,390.88097370000014,390.8967074000002,391.0963566999999,391.0802143000001,389.9515924000002,,,,,,,,1,1,0.925367599999845,None,,,,,,,,863,26,M,R,2026-02-18_11h46.16.636,VisualSearch_2526_3,,2025.2.4,2026-02-18 11h46.17.071084 +0100,
vertical.xlsx,The target is tilted.,135,12,4,1,1,1,1,1,1,1,1,1,0,0,0,0,0,7,8,135,space,3.6194737000000714,None,0,0,1.675796999999875,None,space,1.8693022000002202,None,0,1,1,1,,,,,1,4,12,1,391.0963566999999,,,,,,,,,,,,,,,,,,,,,391.08092160000024,391.0963566999999,391.5799283000001,391.58463840000013,391.60140580000007,393.28013910000027,,,,,393.28033920000007,393.2955578000001,393.4955238000002,393.47940930000004,391.60140580000007,,,,,,,,0,0,1.675796999999875,None,,,,,,,,863,26,M,R,2026-02-18_11h46.16.636,VisualSearch_2526_3,,2025.2.4,2026-02-18 11h46.17.071084 +0100,
vertical.xlsx,The target is tilted.,135,13,5,1,1,0,0,0,0,0,0,0,0,0,0,0,0,0,1,135,space,3.6194737000000714,None,1,1,0.5000965999997788,None,space,1.8693022000002202,None,0,1,1,1,,,,,1,5,13,3,393.4955238000002,,,,,,,,,,,,,,,,,,,,,393.4801112,393.4955238000002,393.97925269999996,393.9839675000003,393.9999095000003,394.51241759999994,,,,,394.51262640000004,394.5283181,394.7277245,394.7120141999999,393.9999095000003,,,,,,,,1,1,0.5000965999997788,None,,,,,,,,863,26,M,R,2026-02-18_11h46.16.636,VisualSearch_2526_3,,2025.2.4,2026-02-18 11h46.17.071084 +0100,
vertical.xlsx,The target is tilted.,135,14,6,1,0,1,1,1,1,1,1,1,0,0,0,0,1,7,8,135,space,3.6194737000000714,None,0,1,1.29590029999963,None,space,1.8693022000002202,None,0,1,1,1,,,,,1,6,14,5,394.7277245,,,,,,,,,,,,,,,,,,,,,394.7127601000002,394.7277245,395.2118875000001,395.2166035,395.23316190000014,396.54444420000027,,,,,396.5445232000002,396.56033130000014,396.76028799999995,396.74449830000003,395.23316190000014,,,,,,,,0,1,1.29590029999963,None,,,,,,,,863,26,M,R,2026-02-18_11h46.16.636,VisualSearch_2526_3,,2025.2.4,2026-02-18 11h46.17.071084 +0100,
vertical.xlsx,The target is tilted.,135,15,7,1,1,1,1,1,0,0,0,0,0,0,0,0,0,3,4,135,space,3.6194737000000714,None,1,1,0.5742817999998806,None,space,1.8693022000002202,None,0,1,1,1,,,,,1,7,15,2,396.76028799999995,,,,,,,,,,,,,,,,,,,,,396.74523640000007,396.76028799999995,397.2443822,397.2490237000002,397.26501510000026,397.84449380000024,,,,,397.8446850999999,397.8601441999999,398.06005540000024,398.0439822000003,397.26501510000026,,,,,,,,1,1,0.5742817999998806,None,,,,,,,,863,26,M,R,2026-02-18_11h46.16.636,VisualSearch_2526_3,,2025.2.4,2026-02-18 11h46.17.071084 +0100,
vertical.xlsx,The target is tilted.,135,16,0,2,0,0,0,0,0,0,0,0,0,0,0,0,1,1,1,135,space,3.6194737000000714,None,0,1,0.5664907999998832,None,space,1.8693022000002202,None,0,1,1,1,,,,,2,0,16,7,398.06005540000024,,,,,,,,,,,,,,,,,,,,,398.04468610000004,398.06005540000024,398.5436042000001,398.5483078000002,398.56382540000004,399.1440729000001,,,,,399.14426589999994,399.15955220000023,399.3595255,399.3430536999999,398.56382540000004,,,,,,,,0,1,0.5664907999998832,None,,,,,,,,863,26,M,R,2026-02-18_11h46.16.636,VisualSearch_2526_3,,2025.2.4,2026-02-18 11h46.17.071084 +0100,
vertical.xlsx,The target is tilted.,135,17,1,2,0,1,1,1,0,0,0,0,0,0,0,0,1,3,4,135,space,3.6194737000000714,None,0,1,0.5126292999998441,None,space,1.8693022000002202,None,0,1,1,1,,,,,2,1,17,6,399.3595255,,,,,,,,,,,,,,,,,,,,,399.3437626,399.3595255,399.8427182999999,399.8475020000001,399.8588982000001,400.3762191999999,,,,,400.37639390000004,400.39206379999996,400.59214599999996,400.5762043,399.8588982000001,,,,,,,,0,1,0.5126292999998441,None,,,,,,,,863,26,M,R,2026-02-18_11h46.16.636,VisualSearch_2526_3,,2025.2.4,2026-02-18 11h46.17.071084 +0100,
vertical.xlsx,The target is tilted.,135,18,2,2,1,0,0,0,0,0,0,0,0,0,0,0,0,0,1,135,space,3.6194737000000714,None,0,0,0.3653103999999985,None,space,1.8693022000002202,None,0,1,1,1,,,,,2,2,18,3,400.59214599999996,,,,,,,,,,,,,,,,,,,,,400.5769313999999,400.59214599999996,401.07591189999994,401.0805574000001,401.0971945000001,401.4763001000001,,,,,401.47648860000027,401.4918482000003,401.69147490000023,401.67570090000027,401.0971945000001,,,,,,,,0,0,0.3653103999999985,None,,,,,,,,863,26,M,R,2026-02-18_11h46.16.636,VisualSearch_2526_3,,2025.2.4,2026-02-18 11h46.17.071084 +0100,
vertical.xlsx,The target is tilted.,135,19,3,2,0,1,1,1,1,1,1,1,0,0,0,0,1,7,8,135,space,3.6194737000000714,None,0,1,1.742653700000119,None,space,1.8693022000002202,None,0,1,1,1,,,,,2,3,19,5,401.69147490000023,,,,,,,,,,,,,,,,,,,,,401.67643240000007,401.69147490000023,402.17514630000005,402.1798067,402.19521570000006,403.9412271000001,,,,,403.9414713000001,403.9577373000002,404.1570770000003,404.1407718999999,402.19521570000006,,,,,,,,0,1,1.742653700000119,None,,,,,,,,863,26,M,R,2026-02-18_11h46.16.636,VisualSearch_2526_3,,2025.2.4,2026-02-18 11h46.17.071084 +0100,
vertical.xlsx,The target is tilted.,135,20,4,2,1,1,1,1,1,1,1,1,1,1,1,1,0,11,12,135,space,3.6194737000000714,None,1,1,0.875021199999992,None,space,1.8693022000002202,None,0,1,1,1,,,,,2,4,20,0,404.1570770000003,,,,,,,,,,,,,,,,,,,,,404.1415087999999,404.1570770000003,404.64111980000007,404.64579189999995,404.66285449999987,405.54120390000026,,,,,405.54142839999986,405.55658470000026,405.7561076000002,405.7398324999999,404.66285449999987,,,,,,,,1,1,0.875021199999992,None,,,,,,,,863,26,M,R,2026-02-18_11h46.16.636,VisualSearch_2526_3,,2025.2.4,2026-02-18 11h46.17.071084 +0100,
vertical.xlsx,The target is tilted.,135,21,5,2,0,1,1,1,1,1,1,1,1,1,1,1,1,11,12,135,space,3.6194737000000714,None,0,1,1.781035200000133,None,space,1.8693022000002202,None,0,1,1,1,,,,,2,5,21,4,405.7561076000002,,,,,,,,,,,,,,,,,,,,,405.7401984000003,405.7561076000002,406.2404214000003,406.2452836000002,406.2617472000002,408.0562567000002,,,,,408.0564465000002,408.0719973,408.2720849000002,408.25603880000017,406.2617472000002,,,,,,,,0,1,1.781035200000133,None,,,,,,,,863,26,M,R,2026-02-18_11h46.16.636,VisualSearch_2526_3,,2025.2.4,2026-02-18 11h46.17.071084 +0100,
vertical.xlsx,The target is tilted.,135,22,6,2,1,1,1,1,1,1,1,1,0,0,0,0,0,7,8,135,space,3.6194737000000714,None,1,1,1.0547874000003503,None,space,1.8693022000002202,None,0,1,1,1,,,,,2,6,22,1,408.2720849000002,,,,,,,,,,,,,,,,,,,,,408.25679200000013,408.2720849000002,408.75574129999995,408.7603838,408.7784624000001,409.8385751999999,,,,,409.83872329999986,409.8546673999999,410.05432500000006,410.03856940000014,408.7784624000001,,,,,,,,1,1,1.0547874000003503,None,,,,,,,,863,26,M,R,2026-02-18_11h46.16.636,VisualSearch_2526_3,,2025.2.4,2026-02-18 11h46.17.071084 +0100,
vertical.xlsx,The target is tilted.,135,23,7,2,1,1,1,1,0,0,0,0,0,0,0,0,0,3,4,135,space,3.6194737000000714,None,1,1,0.5813724999998158,None,space,1.8693022000002202,None,0,1,1,1,,,,,2,7,23,2,410.05432500000006,,,,,,,,,,,,,,,,,,,,,410.0392990999999,410.05432500000006,410.53797429999986,410.5423157,410.55410470000015,411.1382087000002,,,,,411.13834240000006,411.15402870000025,411.35365580000007,411.33786800000007,410.55410470000015,,,,,,,,1,1,0.5813724999998158,None,,,,,,,,863,26,M,R,2026-02-18_11h46.16.636,VisualSearch_2526_3,,2025.2.4,2026-02-18 11h46.17.071084 +0100,
vertical.xlsx,The target is tilted.,135,24,0,3,0,1,1,1,0,0,0,0,0,0,0,0,1,3,4,135,space,3.6194737000000714,None,0,1,0.8521547999998802,None,space,1.8693022000002202,None,0,1,1,1,,,,,3,0,24,6,411.35365580000007,,,,,,,,,,,,,,,,,,,,,411.3386088000002,411.35365580000007,411.8377759,411.8423585999999,411.85994870000013,412.72103590000006,,,,,412.72123220000003,412.73666030000004,412.93672370000013,412.92069530000026,411.85994870000013,,,,,,,,0,1,0.8521547999998802,None,,,,,,,,863,26,M,R,2026-02-18_11h46.16.636,VisualSearch_2526_3,,2025.2.4,2026-02-18 11h46.17.071084 +0100,
vertical.xlsx,The target is tilted.,135,25,1,3,0,0,0,0,0,0,0,0,0,0,0,0,1,1,1,135,space,3.6194737000000714,None,0,1,0.6444271000000299,None,space,1.8693022000002202,None,0,1,1,1,,,,,3,1,25,7,412.93672370000013,,,,,,,,,,,,,,,,,,,,,412.92142680000006,412.93672370000013,413.4204100000002,413.42518440000003,413.4422227,414.1039114,,,,,414.10410200000024,414.1193352,414.3193954000003,414.3029439000002,413.4422227,,,,,,,,0,1,0.6444271000000299,None,,,,,,,,863,26,M,R,2026-02-18_11h46.16.636,VisualSearch_2526_3,,2025.2.4,2026-02-18 11h46.17.071084 +0100,
vertical.xlsx,The target is tilted.,135,26,2,3,1,1,1,1,1,1,1,1,0,0,0,0,0,7,8,135,space,3.6194737000000714,None,0,0,1.0915930999999546,None,space,1.8693022000002202,None,0,1,1,1,,,,,3,2,26,1,414.3193954000003,,,,,,,,,,,,,,,,,,,,,414.3035711000002,414.3193954000003,414.80258249999997,414.8072884000003,414.8191311999999,415.9198258000001,,,,,415.92004880000013,415.93528190000006,416.13494630000014,416.1190681000003,414.8191311999999,,,,,,,,0,0,1.0915930999999546,None,,,,,,,,863,26,M,R,2026-02-18_11h46.16.636,VisualSearch_2526_3,,2025.2.4,2026-02-18 11h46.17.071084 +0100,
vertical.xlsx,The target is tilted.,135,27,3,3,0,1,1,1,1,1,1,1,0,0,0,0,1,7,8,135,space,3.6194737000000714,None,0,1,1.0069493999999395,None,space,1.8693022000002202,None,0,1,1,1,,,,,3,3,27,5,416.13494630000014,,,,,,,,,,,,,,,,,,,,,416.1197814000002,416.13494630000014,416.6189586999999,416.623595,416.6409837000001,417.6519134,,,,,417.65209989999994,417.6678520999999,417.86756379999997,417.8513290000001,416.6409837000001,,,,,,,,0,1,1.0069493999999395,None,,,,,,,,863,26,M,R,2026-02-18_11h46.16.636,VisualSearch_2526_3,,2025.2.4,2026-02-18 11h46.17.071084 +0100,
vertical.xlsx,The target is tilted.,135,28,4,3,1,1,1,1,0,0,0,0,0,0,0,0,0,3,4,135,space,3.6194737000000714,None,1,1,0.5242026000000806,None,space,1.8693022000002202,None,0,1,1,1,,,,,3,4,28,2,417.86756379999997,,,,,,,,,,,,,,,,,,,,,417.8520309999999,417.86756379999997,418.3515784000001,418.35625260000006,418.3726974000001,418.9015306000001,,,,,418.90172250000023,418.9172808000003,419.1172424000001,419.1010495999999,418.3726974000001,,,,,,,,1,1,0.5242026000000806,None,,,,,,,,863,26,M,R,2026-02-18_11h46.16.636,VisualSearch_2526_3,,2025.2.4,2026-02-18 11h46.17.071084 +0100,
vertical.xlsx,The target is tilted.,135,29,5,3,0,1,1,1,1,1,1,1,1,1,1,1,1,11,12,135,space,3.6194737000000714,None,0,1,1.43667940000023,None,space,1.8693022000002202,None,0,1,1,1,,,,,3,5,29,4,419.1172424000001,,,,,,,,,,,,,,,,,,,,,419.10178140000016,419.1172424000001,419.60054630000013,419.60512530000005,419.6165745000003,421.06749149999996,,,,,421.0677171000002,421.08294380000007,421.2828711000002,421.26683390000017,419.6165745000003,,,,,,,,0,1,1.43667940000023,None,,,,,,,,863,26,M,R,2026-02-18_11h46.16.636,VisualSearch_2526_3,,2025.2.4,2026-02-18 11h46.17.071084 +0100,
vertical.xlsx,The target is tilted.,135,30,6,3,1,0,0,0,0,0,0,0,0,0,0,0,0,0,1,135,space,3.6194737000000714,None,1,1,0.4547769000000699,None,space,1.8693022000002202,None,0,1,1,1,,,,,3,6,30,3,421.2828711000002,,,,,,,,,,,,,,,,,,,,,421.26754200000005,421.2828711000002,421.76659040000004,421.7713428000002,421.7865562000002,422.25022390000004,,,,,422.25041790000023,422.2654058000003,422.4657191000001,422.4493805000002,421.7865562000002,,,,,,,,1,1,0.4547769000000699,None,,,,,,,,863,26,M,R,2026-02-18_11h46.16.636,VisualSearch_2526_3,,2025.2.4,2026-02-18 11h46.17.071084 +0100,
vertical.xlsx,The target is tilted.,135,31,7,3,1,1,1,1,1,1,1,1,1,1,1,1,0,11,12,135,space,3.6194737000000714,None,0,0,1.1995749000002434,None,space,1.8693022000002202,None,0,1,1,1,,,,,3,7,31,0,422.4657191000001,,,,,,,,,,,,,,,,,,,,,422.4501000999999,422.4657191000001,422.94938330000014,422.95408380000026,422.9717635000002,424.18193139999994,,,,,424.1820425000001,424.1980802000003,424.39793659999987,424.38106270000026,422.9717635000002,,,,,,,,0,0,1.1995749000002434,None,,,,,,,,863,26,M,R,2026-02-18_11h46.16.636,VisualSearch_2526_3,,2025.2.4,2026-02-18 11h46.17.071084 +0100,
vertical.xlsx,The target is tilted.,135,32,0,4,0,1,1,1,1,1,1,1,1,1,1,1,1,11,12,135,space,3.6194737000000714,None,0,1,1.503552199999831,None,space,1.8693022000002202,None,0,1,1,1,,,,,4,0,32,4,424.39793659999987,,,,,,,,,,,,,,,,,,,,,424.38144009999996,424.39793659999987,424.88186159999987,424.88658940000005,424.90189980000014,426.4147272,,,,,426.4149010000001,426.4300304000003,426.63052019999986,426.61426710000023,424.90189980000014,,,,,,,,0,1,1.503552199999831,None,,,,,,,,863,26,M,R,2026-02-18_11h46.16.636,VisualSearch_2526_3,,2025.2.4,2026-02-18 11h46.17.071084 +0100,
vertical.xlsx,The target is tilted.,135,33,1,4,1,1,1,1,1,1,1,1,1,1,1,1,0,11,12,135,space,3.6194737000000714,None,0,0,0.9232882999999674,None,space,1.8693022000002202,None,0,1,1,1,,,,,4,1,33,0,426.63052019999986,,,,,,,,,,,,,,,,,,,,,426.61501210000006,426.63052019999986,427.11361829999987,427.1182369000003,427.13471630000004,428.06431599999996,,,,,428.06454699999995,428.0797523000001,428.27983730000005,428.26346090000015,427.13471630000004,,,,,,,,0,0,0.9232882999999674,None,,,,,,,,863,26,M,R,2026-02-18_11h46.16.636,VisualSearch_2526_3,,2025.2.4,2026-02-18 11h46.17.071084 +0100,
vertical.xlsx,The target is tilted.,135,34,2,4,0,0,0,0,0,0,0,0,0,0,0,0,1,1,1,135,space,3.6194737000000714,None,0,1,0.5991909000003943,None,space,1.8693022000002202,None,0,1,1,1,,,,,4,2,34,7,428.27983730000005,,,,,,,,,,,,,,,,,,,,,428.26421359999995,428.27983730000005,428.7633340000002,428.76795489999995,428.78443700000025,429.3961545000002,,,,,429.3963100000001,429.4119678000002,429.612157,429.5961348000001,428.78443700000025,,,,,,,,0,1,0.5991909000003943,None,,,,,,,,863,26,M,R,2026-02-18_11h46.16.636,VisualSearch_2526_3,,2025.2.4,2026-02-18 11h46.17.071084 +0100,
