file_name,block_instructions,target_example,thisN,thisTrialN,thisRepN,target_presence,opacity_1,opacity_2,opacity_3,opacity_4,opacity_5,opacity_6,opacity_7,opacity_8,opacity_9,opacity_10,opacity_11,opacity_12,n_distract,n_items,target_ori,key_resp_4.keys,key_resp_4.rt,key_resp_4.duration,key_resp.keys,key_resp.corr,key_resp.rt,key_resp.duration,key_resp_5.keys,key_resp_5.rt,key_resp_5.duration,blocks.thisRepN,blocks.thisTrialN,blocks.thisN,blocks.thisIndex,practice_trials.thisRepN,practice_trials.thisTrialN,practice_trials.thisN,practice_trials.thisIndex,trials.thisRepN,trials.thisTrialN,trials.thisN,trials.thisIndex,thisRow.t,notes,Welcome.started,WelcomeText.started,key_resp_2.started,Welcome.stopped,key_resp_2.keys,key_resp_2.rt,key_resp_2.duration,InformedConsent.started,text_4.started,InformedConsent.stopped,key_resp_6.keys,key_resp_6.rt,key_resp_6.duration,key_resp_4.started,example_target.started,text_3.started,blocks.key_resp_4.keys,blocks.key_resp_4.rt,blocks.key_resp_4.duration,FixCross.started,fixCross.started,FixCross.stopped,Stimulus.started,key_resp.started,Stimulus.stopped,practice_trials.key_resp.keys,practice_trials.key_resp.corr,practice_trials.key_resp.rt,practice_trials.key_resp.duration,BlankScreen.started,text.started,text.stopped,BlankScreen.stopped,fixCross.stopped,ExperimentStart.started,text_2.started,key_resp_5.started,ExperimentStart.stopped,blocks.key_resp_5.keys,blocks.key_resp_5.rt,blocks.key_resp_5.duration,trials.key_resp.keys,trials.key_resp.corr,trials.key_resp.rt,trials.key_resp.duration,Thanks.started,ThankYou.started,key_resp_3.started,Thanks.stopped,key_resp_3.keys,key_resp_3.rt,key_resp_3.duration,participant,leeftijd,gender,links/rechtshandig,date,expName,expVersion,psychopyVersion,expStart,
,,,,,,,,,,,,,,,,,,,,,,,,,,,,,,,,,,,,,,,,,,,,,,0.030655899999601388,0.057963099999597034,0.057963099999597034,46.365806899999825,space,46.28895610000018,None,,,,,,,,,,,,,,,,,,,,,,,,,,,,,,,,,,,,,,,,,,,,,,864,23,M,R,2026-02-18_11h59.20.857,VisualSearch_2526_3,,2025.2.4,2026-02-18 11h59.21.082975 +0100,
,,,,,,,,,,,,,,,,,,,,,,,,,,,,,,,,,,,,,,,,,,,,,,,,,,,,,46.365860899999916,46.37337439999965,58.852271499999915,y,12.48274339999989,None,,,,,,,,,,,,,,,,,,,,,,,,,,,,,,,,,,,,,,,,864,23,M,R,2026-02-18_11h59.20.857,VisualSearch_2526_3,,2025.2.4,2026-02-18 11h59.21.082975 +0100,
tilted.xlsx,The target is tilted.,117,0,0,0,0,1,1,1,0,0,0,0,0,0,0,0,1,3,4,117,space,9.940206599999783,None,0,1,2.365971200000331,None,,,,0,0,0,0,0,0,0,6,,,,,68.87326540000004,,,,,,,,,,,,,,,58.90512609999996,58.90512609999996,58.90512609999996,space,9.940206599999783,None,68.86830259999988,68.87326540000004,69.36307390000002,69.36813459999985,69.38394410000001,71.76254449999988,0,1,2.365971200000331,None,71.76307849999966,71.7783830999997,71.97824899999978,71.96198909999976,,,,,,,,,,,,,,,,,,,,864,23,M,R,2026-02-18_11h59.20.857,VisualSearch_2526_3,,2025.2.4,2026-02-18 11h59.21.082975 +0100,
tilted.xlsx,The target is tilted.,117,1,1,0,0,1,1,1,1,1,1,1,1,1,1,1,1,11,12,117,space,9.940206599999783,None,1,0,4.392314799999895,None,,,,0,0,0,0,0,1,1,4,,,,,71.97824899999978,,,,,,,,,,,,,,,,,,,,,71.96268989999999,71.97824899999978,72.4618805,72.46679180000001,72.48237840000002,76.8775655999998,1,0,4.392314799999895,None,76.87777659999983,76.89230269999962,77.09270059999972,77.0764065999997,72.48237840000002,,,,,,,,,,,,,,,,,,,864,23,M,R,2026-02-18_11h59.20.857,VisualSearch_2526_3,,2025.2.4,2026-02-18 11h59.21.082975 +0100,
tilted.xlsx,The target is tilted.,117,2,2,0,1,1,1,1,1,1,1,1,1,1,1,1,0,11,12,117,space,9.940206599999783,None,1,1,2.989445099999557,None,,,,0,0,0,0,0,2,2,0,,,,,77.09270059999972,,,,,,,,,,,,,,,,,,,,,77.07715269999971,77.09270059999972,77.5762364999996,77.58110319999969,77.59703709999985,80.59163539999963,1,1,2.989445099999557,None,80.59177009999985,80.60706339999979,80.80761279999979,80.79144529999985,77.59703709999985,,,,,,,,,,,,,,,,,,,864,23,M,R,2026-02-18_11h59.20.857,VisualSearch_2526_3,,2025.2.4,2026-02-18 11h59.21.082975 +0100,
tilted.xlsx,The target is tilted.,117,3,3,0,1,0,0,0,0,0,0,0,0,0,0,0,0,0,1,117,space,9.940206599999783,None,0,0,1.5382902000001195,None,,,,0,0,0,0,0,3,3,3,,,,,80.80761279999979,,,,,,,,,,,,,,,,,,,,,80.7921053,80.80761279999979,81.29129590000002,81.29610019999973,81.31279240000003,82.85713349999969,0,0,1.5382902000001195,None,82.85730629999989,82.8727770999999,83.07284409999966,83.05702089999977,81.31279240000003,,,,,,,,,,,,,,,,,,,864,23,M,R,2026-02-18_11h59.20.857,VisualSearch_2526_3,,2025.2.4,2026-02-18 11h59.21.082975 +0100,
tilted.xlsx,The target is tilted.,117,4,4,0,1,1,1,1,0,0,0,0,0,0,0,0,0,3,4,117,space,9.940206599999783,None,0,0,2.7945128000001205,None,,,,0,0,0,0,0,4,4,2,,,,,83.07284409999966,,,,,,,,,,,,,,,,,,,,,83.0577315999999,83.07284409999966,83.5568401999999,83.56176879999975,83.57581429999982,86.37253209999972,0,0,2.7945128000001205,None,86.37267499999962,86.38786299999992,86.58829409999998,86.57215199999973,83.57581429999982,,,,,,,,,,,,,,,,,,,864,23,M,R,2026-02-18_11h59.20.857,VisualSearch_2526_3,,2025.2.4,2026-02-18 11h59.21.082975 +0100,
tilted.xlsx,The target is tilted.,117,5,5,0,0,1,1,1,1,1,1,1,0,0,0,0,1,7,8,117,space,9.940206599999783,None,1,0,1.2724230999997417,None,,,,0,0,0,0,0,5,5,5,,,,,86.58829409999998,,,,,,,,,,,,,,,,,,,,,86.57282649999979,86.58829409999998,87.07192919999989,87.07677530000001,87.09294569999975,88.37167529999988,1,0,1.2724230999997417,None,88.3718700999998,88.38694339999984,88.58700739999995,88.5711726999998,87.09294569999975,,,,,,,,,,,,,,,,,,,864,23,M,R,2026-02-18_11h59.20.857,VisualSearch_2526_3,,2025.2.4,2026-02-18 11h59.21.082975 +0100,
tilted.xlsx,The target is tilted.,117,6,6,0,0,0,0,0,0,0,0,0,0,0,0,0,1,1,1,117,space,9.940206599999783,None,1,0,0.7777003000001059,None,,,,0,0,0,0,0,6,6,7,,,,,88.58700739999995,,,,,,,,,,,,,,,,,,,,,88.57189629999993,88.58700739999995,89.07106509999994,89.0760594999997,89.09117609999976,89.87079099999983,1,0,0.7777003000001059,None,89.87092389999998,89.88623879999977,90.08662549999963,90.07041679999975,89.09117609999976,,,,,,,,,,,,,,,,,,,864,23,M,R,2026-02-18_11h59.20.857,VisualSearch_2526_3,,2025.2.4,2026-02-18 11h59.21.082975 +0100,
tilted.xlsx,The target is tilted.,117,7,7,0,1,1,1,1,1,1,1,1,0,0,0,0,0,7,8,117,space,9.940206599999783,None,1,1,3.3923439999998664,None,,,,0,0,0,0,0,7,7,1,,,,,90.08662549999963,,,,,,,,,,,,,,,,,,,,,90.07119499999999,90.08662549999963,90.57019539999965,90.57525629999964,90.58958859999984,93.98574919999965,1,1,3.3923439999998664,None,93.9859422999998,94.00106169999981,94.2011023,94.1854014999999,90.58958859999984,,,,,,,,,,,,,,,,,,,864,23,M,R,2026-02-18_11h59.20.857,VisualSearch_2526_3,,2025.2.4,2026-02-18 11h59.21.082975 +0100,
tilted.xlsx,The target is tilted.,117,0,0,0,1,1,1,1,1,1,1,1,0,0,0,0,0,7,8,117,space,9.940206599999783,None,1,1,1.4595444999999927,None,space,2.6123113000003286,None,0,0,0,0,,,,,0,0,0,1,96.8439129999997,,,,,,,,,,,,,,,,,,,,,96.84030029999985,96.8439129999997,97.3334003,97.33838819999983,97.35402869999962,98.81683179999982,,,,,98.81703529999959,98.83210719999988,99.03227279999965,99.01667929999985,,94.19286569999986,94.2011023,94.2011023,96.81759799999963,space,2.6123113000003286,None,1,1,1.4595444999999927,None,,,,,,,,864,23,M,R,2026-02-18_11h59.20.857,VisualSearch_2526_3,,2025.2.4,2026-02-18 11h59.21.082975 +0100,
tilted.xlsx,The target is tilted.,117,1,1,0,1,1,1,1,0,0,0,0,0,0,0,0,0,3,4,117,space,9.940206599999783,None,0,0,1.6595357000001059,None,space,2.6123113000003286,None,0,0,0,0,,,,,0,1,1,2,99.03227279999965,,,,,,,,,,,,,,,,,,,,,99.01752069999975,99.03227279999965,99.5159249999997,99.52073459999974,99.53678409999975,101.19867909999994,,,,,101.19881599999962,101.21439709999959,101.41458519999969,101.39872070000001,99.53678409999975,,,,,,,,0,0,1.6595357000001059,None,,,,,,,,864,23,M,R,2026-02-18_11h59.20.857,VisualSearch_2526_3,,2025.2.4,2026-02-18 11h59.21.082975 +0100,
tilted.xlsx,The target is tilted.,117,2,2,0,0,1,1,1,1,1,1,1,1,1,1,1,1,11,12,117,space,9.940206599999783,None,1,0,1.7545633000004273,None,space,2.6123113000003286,None,0,0,0,0,,,,,0,2,2,4,101.41458519999969,,,,,,,,,,,,,,,,,,,,,101.39948609999965,101.41458519999969,101.8981845999997,101.90289979999989,101.91446709999991,103.68035069999996,,,,,103.6804588,103.69702449999977,,103.88075219999973,101.91446709999991,,,,,,,,1,0,1.7545633000004273,None,,,,,,,,864,23,M,R,2026-02-18_11h59.20.857,VisualSearch_2526_3,,2025.2.4,2026-02-18 11h59.21.082975 +0100,
tilted.xlsx,The target is tilted.,117,3,3,0,0,1,1,1,0,0,0,0,0,0,0,0,1,3,4,117,space,9.940206599999783,None,1,0,1.9366582000002381,None,space,2.6123113000003286,None,0,0,0,0,,,,,0,3,3,6,103.89672659999997,,,,,,,,,,,,,,,,,,,,,103.88155710000001,103.89672659999997,104.38061459999972,104.38565459999973,104.39924549999978,106.34660949999989,,,,,106.34676159999981,106.36212859999978,106.56269109999994,106.54636259999961,104.39924549999978,,,,,,,,1,0,1.9366582000002381,None,,,,,,,,864,23,M,R,2026-02-18_11h59.20.857,VisualSearch_2526_3,,2025.2.4,2026-02-18 11h59.21.082975 +0100,
tilted.xlsx,The target is tilted.,117,4,4,0,0,1,1,1,1,1,1,1,0,0,0,0,1,7,8,117,space,9.940206599999783,None,1,0,2.0796950000003562,None,space,2.6123113000003286,None,0,0,0,0,,,,,0,4,4,5,106.56269109999994,,,,,,,,,,,,,,,,,,,,,106.54712969999991,106.56269109999994,107.04582789999995,107.05077510000001,107.06361500000003,109.14576629999965,,,,,109.14600709999968,109.16084319999982,109.3613634999997,109.3451229999996,107.06361500000003,,,,,,,,1,0,2.0796950000003562,None,,,,,,,,864,23,M,R,2026-02-18_11h59.20.857,VisualSearch_2526_3,,2025.2.4,2026-02-18 11h59.21.082975 +0100,
tilted.xlsx,The target is tilted.,117,5,5,0,0,0,0,0,0,0,0,0,0,0,0,0,1,1,1,117,space,9.940206599999783,None,1,0,0.9382797000002938,None,space,2.6123113000003286,None,0,0,0,0,,,,,0,5,5,7,109.3613634999997,,,,,,,,,,,,,,,,,,,,,109.34594470000002,109.3613634999997,109.84461759999976,109.84950589999971,109.86374479999995,110.81162819999963,,,,,110.81182779999972,110.82673879999993,111.02710739999975,111.01107460000003,109.86374479999995,,,,,,,,1,0,0.9382797000002938,None,,,,,,,,864,23,M,R,2026-02-18_11h59.20.857,VisualSearch_2526_3,,2025.2.4,2026-02-18 11h59.21.082975 +0100,
tilted.xlsx,The target is tilted.,117,6,6,0,1,0,0,0,0,0,0,0,0,0,0,0,0,0,1,117,space,9.940206599999783,None,0,0,0.8428799999996954,None,space,2.6123113000003286,None,0,0,0,0,,,,,0,6,6,3,111.02710739999975,,,,,,,,,,,,,,,,,,,,,111.01190829999996,111.02710739999975,111.5107324999999,111.51577459999999,111.53013379999993,112.37730939999983,,,,,112.37751419999995,112.39287609999974,112.59323079999967,112.57698179999988,111.53013379999993,,,,,,,,0,0,0.8428799999996954,None,,,,,,,,864,23,M,R,2026-02-18_11h59.20.857,VisualSearch_2526_3,,2025.2.4,2026-02-18 11h59.21.082975 +0100,
tilted.xlsx,The target is tilted.,117,7,7,0,1,1,1,1,1,1,1,1,1,1,1,1,0,11,12,117,space,9.940206599999783,None,1,1,4.532142999999905,None,space,2.6123113000003286,None,0,0,0,0,,,,,0,7,7,0,112.59323079999967,,,,,,,,,,,,,,,,,,,,,112.5777794999999,112.59323079999967,113.07669239999996,113.08164119999992,113.0977485999997,117.64164089999986,,,,,117.64184589999968,117.65698639999982,117.85744019999993,117.84143610000001,113.0977485999997,,,,,,,,1,1,4.532142999999905,None,,,,,,,,864,23,M,R,2026-02-18_11h59.20.857,VisualSearch_2526_3,,2025.2.4,2026-02-18 11h59.21.082975 +0100,
tilted.xlsx,The target is tilted.,117,8,0,1,1,1,1,1,1,1,1,1,0,0,0,0,0,7,8,117,space,9.940206599999783,None,1,1,1.9316330000001471,None,space,2.6123113000003286,None,0,0,0,0,,,,,1,0,8,1,117.85744019999993,,,,,,,,,,,,,,,,,,,,,117.84219110000004,117.85744019999993,118.34108479999986,118.3459656,118.3597719999998,120.30676849999963,,,,,120.30700609999985,120.32244189999983,120.52299839999978,120.50679919999993,118.3597719999998,,,,,,,,1,1,1.9316330000001471,None,,,,,,,,864,23,M,R,2026-02-18_11h59.20.857,VisualSearch_2526_3,,2025.2.4,2026-02-18 11h59.21.082975 +0100,
tilted.xlsx,The target is tilted.,117,9,1,1,1,1,1,1,1,1,1,1,1,1,1,1,0,11,12,117,space,9.940206599999783,None,1,1,1.9559936999999081,None,space,2.6123113000003286,None,0,0,0,0,,,,,1,1,9,0,120.52299839999978,,,,,,,,,,,,,,,,,,,,,120.5075353999996,120.52299839999978,121.00652549999995,121.01146049999988,121.02740089999998,122.9899948999996,,,,,122.99020799999971,123.00464639999973,123.20496049999974,123.1888898999996,121.02740089999998,,,,,,,,1,1,1.9559936999999081,None,,,,,,,,864,23,M,R,2026-02-18_11h59.20.857,VisualSearch_2526_3,,2025.2.4,2026-02-18 11h59.21.082975 +0100,
tilted.xlsx,The target is tilted.,117,10,2,1,1,1,1,1,0,0,0,0,0,0,0,0,0,3,4,117,space,9.940206599999783,None,0,0,1.4064868999998907,None,space,2.6123113000003286,None,0,0,0,0,,,,,1,2,10,2,123.20496049999974,,,,,,,,,,,,,,,,,,,,,123.18966809999984,123.20496049999974,123.68865639999967,123.69349469999997,123.70936699999993,125.1217872999996,,,,,125.12197049999986,125.13692399999991,125.33729240000002,125.32136709999986,123.70936699999993,,,,,,,,0,0,1.4064868999998907,None,,,,,,,,864,23,M,R,2026-02-18_11h59.20.857,VisualSearch_2526_3,,2025.2.4,2026-02-18 11h59.21.082975 +0100,
tilted.xlsx,The target is tilted.,117,11,3,1,0,1,1,1,1,1,1,1,0,0,0,0,1,7,8,117,space,9.940206599999783,None,1,0,1.5217873000001418,None,space,2.6123113000003286,None,0,0,0,0,,,,,1,3,11,5,125.33729240000002,,,,,,,,,,,,,,,,,,,,,125.32218909999983,125.33729240000002,125.82105929999989,125.8261551999999,125.8413142999998,127.37011859999984,,,,,127.37027349999971,127.38593029999993,127.58629489999976,127.5701251999999,125.8413142999998,,,,,,,,1,0,1.5217873000001418,None,,,,,,,,864,23,M,R,2026-02-18_11h59.20.857,VisualSearch_2526_3,,2025.2.4,2026-02-18 11h59.21.082975 +0100,
tilted.xlsx,The target is tilted.,117,12,4,1,1,0,0,0,0,0,0,0,0,0,0,0,0,0,1,117,space,9.940206599999783,None,0,0,0.9770383000000038,None,space,2.6123113000003286,None,0,0,0,0,,,,,1,4,12,3,127.58629489999976,,,,,,,,,,,,,,,,,,,,,127.57092299999977,127.58629489999976,128.06968869999992,128.07471929999974,128.08962929999961,129.06985369999984,,,,,129.0700370999998,129.08513700000003,129.28541189999987,129.26944549999962,128.08962929999961,,,,,,,,0,0,0.9770383000000038,None,,,,,,,,864,23,M,R,2026-02-18_11h59.20.857,VisualSearch_2526_3,,2025.2.4,2026-02-18 11h59.21.082975 +0100,
tilted.xlsx,The target is tilted.,117,13,5,1,0,1,1,1,0,0,0,0,0,0,0,0,1,3,4,117,space,9.940206599999783,None,1,0,2.021886600000016,None,space,2.6123113000003286,None,0,0,0,0,,,,,1,5,13,6,129.28541189999987,,,,,,,,,,,,,,,,,,,,,129.2701831999998,129.28541189999987,129.76929579999978,129.77420679999977,129.78971249999995,131.8183866999998,,,,,131.81855159999986,131.83390169999984,132.03429289999985,132.01833420000003,129.78971249999995,,,,,,,,1,0,2.021886600000016,None,,,,,,,,864,23,M,R,2026-02-18_11h59.20.857,VisualSearch_2526_3,,2025.2.4,2026-02-18 11h59.21.082975 +0100,
tilted.xlsx,The target is tilted.,117,14,6,1,0,1,1,1,1,1,1,1,1,1,1,1,1,11,12,117,space,9.940206599999783,None,1,0,2.4983078000000205,None,space,2.6123113000003286,None,0,0,0,0,,,,,1,6,14,4,132.03429289999985,,,,,,,,,,,,,,,,,,,,,132.01909509999996,132.03429289999985,132.51799259999962,132.5229357999997,132.53878910000003,135.0497203,,,,,135.04986149999968,135.06573679999974,135.2662366999998,135.2501253999999,132.53878910000003,,,,,,,,1,0,2.4983078000000205,None,,,,,,,,864,23,M,R,2026-02-18_11h59.20.857,VisualSearch_2526_3,,2025.2.4,2026-02-18 11h59.21.082975 +0100,
tilted.xlsx,The target is tilted.,117,15,7,1,0,0,0,0,0,0,0,0,0,0,0,0,1,1,1,117,space,9.940206599999783,None,1,0,0.7094621000001098,None,space,2.6123113000003286,None,0,0,0,0,,,,,1,7,15,7,135.2662366999998,,,,,,,,,,,,,,,,,,,,,135.2509353999999,135.2662366999998,135.75013169999966,135.75510699999995,135.77183939999986,136.48339979999992,,,,,136.48361589999968,136.49827800000003,136.69888309999988,136.68246169999975,135.77183939999986,,,,,,,,1,0,0.7094621000001098,None,,,,,,,,864,23,M,R,2026-02-18_11h59.20.857,VisualSearch_2526_3,,2025.2.4,2026-02-18 11h59.21.082975 +0100,
tilted.xlsx,The target is tilted.,117,16,0,2,1,0,0,0,0,0,0,0,0,0,0,0,0,0,1,117,space,9.940206599999783,None,0,0,0.8279824000001099,None,space,2.6123113000003286,None,0,0,0,0,,,,,2,0,16,3,136.69888309999988,,,,,,,,,,,,,,,,,,,,,136.68319519999977,136.69888309999988,137.18240560000004,137.1869104999996,137.20093999999972,138.03234109999994,,,,,138.03254379999998,138.0478006999997,138.24817759999996,138.23195050000004,137.20093999999972,,,,,,,,0,0,0.8279824000001099,None,,,,,,,,864,23,M,R,2026-02-18_11h59.20.857,VisualSearch_2526_3,,2025.2.4,2026-02-18 11h59.21.082975 +0100,
tilted.xlsx,The target is tilted.,117,17,1,2,0,0,0,0,0,0,0,0,0,0,0,0,1,1,1,117,space,9.940206599999783,None,1,0,0.8224656000002142,None,space,2.6123113000003286,None,0,0,0,0,,,,,2,1,17,7,138.24817759999996,,,,,,,,,,,,,,,,,,,,,138.2327105999998,138.24817759999996,138.73200869999982,138.73697879999963,138.7530730999997,139.58206919999975,,,,,139.58227409999972,139.59712479999962,139.7974489999997,139.78130220000003,138.7530730999997,,,,,,,,1,0,0.8224656000002142,None,,,,,,,,864,23,M,R,2026-02-18_11h59.20.857,VisualSearch_2526_3,,2025.2.4,2026-02-18 11h59.21.082975 +0100,
tilted.xlsx,The target is tilted.,117,18,2,2,1,1,1,1,1,1,1,1,1,1,1,1,0,11,12,117,space,9.940206599999783,None,1,1,2.74548569999979,None,space,2.6123113000003286,None,0,0,0,0,,,,,2,2,18,0,139.7974489999997,,,,,,,,,,,,,,,,,,,,,139.78208829999994,139.7974489999997,140.28123069999992,140.28629060000003,140.30074109999987,143.0630159999996,,,,,143.06322329999966,143.07871169999999,143.27880789999972,143.26330719999987,140.30074109999987,,,,,,,,1,1,2.74548569999979,None,,,,,,,,864,23,M,R,2026-02-18_11h59.20.857,VisualSearch_2526_3,,2025.2.4,2026-02-18 11h59.21.082975 +0100,
tilted.xlsx,The target is tilted.,117,19,3,2,0,1,1,1,0,0,0,0,0,0,0,0,1,3,4,117,space,9.940206599999783,None,1,0,1.7443170000001373,None,space,2.6123113000003286,None,0,0,0,0,,,,,2,3,19,6,143.27880789999972,,,,,,,,,,,,,,,,,,,,,143.26414169999998,143.27880789999972,143.7628777,143.76783799999976,143.78366949999963,145.52934969999978,,,,,145.5295672999996,145.54434219999985,145.74480909999966,145.72835869999972,143.78366949999963,,,,,,,,1,0,1.7443170000001373,None,,,,,,,,864,23,M,R,2026-02-18_11h59.20.857,VisualSearch_2526_3,,2025.2.4,2026-02-18 11h59.21.082975 +0100,
tilted.xlsx,The target is tilted.,117,20,4,2,1,1,1,1,1,1,1,1,0,0,0,0,0,7,8,117,space,9.940206599999783,None,1,1,1.1944791000000805,None,space,2.6123113000003286,None,0,0,0,0,,,,,2,4,20,1,145.74480909999966,,,,,,,,,,,,,,,,,,,,,145.7290982999998,145.74480909999966,146.22872159999997,146.23417329999984,146.24954409999964,147.46034439999994,,,,,147.46045239999967,147.47713489999978,,147.66090050000003,146.24954409999964,,,,,,,,1,1,1.1944791000000805,None,,,,,,,,864,23,M,R,2026-02-18_11h59.20.857,VisualSearch_2526_3,,2025.2.4,2026-02-18 11h59.21.082975 +0100,
tilted.xlsx,The target is tilted.,117,21,5,2,1,1,1,1,0,0,0,0,0,0,0,0,0,3,4,117,space,9.940206599999783,None,0,0,1.3253679999997985,None,space,2.6123113000003286,None,0,0,0,0,,,,,2,5,21,2,147.67709779999996,,,,,,,,,,,,,,,,,,,,,147.66169969999964,147.67709779999996,148.1607626,148.1657353999999,148.18190849999974,149.51016489999984,,,,,149.51032029999988,149.52588659999992,149.7262552999996,149.7101948999998,,,,,,,,,0,0,1.3253679999997985,None,,,,,,,,864,23,M,R,2026-02-18_11h59.20.857,VisualSearch_2526_3,,2025.2.4,2026-02-18 11h59.21.082975 +0100,
tilted.xlsx,The target is tilted.,117,22,6,2,0,1,1,1,1,1,1,1,0,0,0,0,1,7,8,117,space,9.940206599999783,None,1,0,1.6758343000001332,None,space,2.6123113000003286,None,0,0,0,0,,,,,2,6,22,5,149.7262552999996,,,,,,,,,,,,,,,,,,,,,149.71094659999972,149.7262552999996,150.20953729999974,150.2120187999999,150.22596369999974,151.90984769999977,,,,,151.9100785999999,151.92478269999992,152.12519459999976,152.10910149999972,150.22596369999974,,,,,,,,1,0,1.6758343000001332,None,,,,,,,,864,23,M,R,2026-02-18_11h59.20.857,VisualSearch_2526_3,,2025.2.4,2026-02-18 11h59.21.082975 +0100,
tilted.xlsx,The target is tilted.,117,23,7,2,0,1,1,1,1,1,1,1,1,1,1,1,1,11,12,117,space,9.940206599999783,None,1,0,4.9422592000000805,None,space,2.6123113000003286,None,0,0,0,0,,,,,2,7,23,4,152.12519459999976,,,,,,,,,,,,,,,,,,,,,152.10987799999975,152.12519459999976,152.6089318999998,152.61391289999983,152.6290087999996,157.57386749999978,,,,,157.5740507999999,157.5889204,157.78938609999977,157.77332519999982,152.6290087999996,,,,,,,,1,0,4.9422592000000805,None,,,,,,,,864,23,M,R,2026-02-18_11h59.20.857,VisualSearch_2526_3,,2025.2.4,2026-02-18 11h59.21.082975 +0100,
tilted.xlsx,The target is tilted.,117,24,0,3,1,1,1,1,1,1,1,1,1,1,1,1,0,11,12,117,space,9.940206599999783,None,1,1,3.7233728000001065,None,space,2.6123113000003286,None,0,0,0,0,,,,,3,0,24,0,157.78938609999977,,,,,,,,,,,,,,,,,,,,,157.7741302999998,157.78938609999977,158.27293819999977,158.27788220000002,158.29271889999973,162.02138799999966,,,,,162.0215307999997,162.03687919999993,162.23683429999983,162.2213910999999,158.29271889999973,,,,,,,,1,1,3.7233728000001065,None,,,,,,,,864,23,M,R,2026-02-18_11h59.20.857,VisualSearch_2526_3,,2025.2.4,2026-02-18 11h59.21.082975 +0100,
tilted.xlsx,The target is tilted.,117,25,1,3,0,1,1,1,1,1,1,1,1,1,1,1,1,11,12,117,space,9.940206599999783,None,1,0,3.3475085000000036,None,space,2.6123113000003286,None,0,0,0,0,,,,,3,1,25,4,162.23683429999983,,,,,,,,,,,,,,,,,,,,,162.22232069999973,162.23683429999983,162.72096669999974,162.7259623,162.74059309999984,166.10263699999996,,,,,166.10285439999961,166.11835679999967,166.31884209999998,166.30264669999997,162.74059309999984,,,,,,,,1,0,3.3475085000000036,None,,,,,,,,864,23,M,R,2026-02-18_11h59.20.857,VisualSearch_2526_3,,2025.2.4,2026-02-18 11h59.21.082975 +0100,
tilted.xlsx,The target is tilted.,117,26,2,3,0,1,1,1,0,0,0,0,0,0,0,0,1,3,4,117,space,9.940206599999783,None,0,1,0.9625087999997959,None,space,2.6123113000003286,None,0,0,0,0,,,,,3,2,26,6,166.31884209999998,,,,,,,,,,,,,,,,,,,,,166.3033862999996,166.31884209999998,166.80239239999992,166.80733869999995,166.82294619999993,167.80167689999962,,,,,167.80182679999962,167.81739289999996,168.0179963999999,168.0019900999996,166.82294619999993,,,,,,,,0,1,0.9625087999997959,None,,,,,,,,864,23,M,R,2026-02-18_11h59.20.857,VisualSearch_2526_3,,2025.2.4,2026-02-18 11h59.21.082975 +0100,
tilted.xlsx,The target is tilted.,117,27,3,3,1,1,1,1,0,0,0,0,0,0,0,0,0,3,4,117,space,9.940206599999783,None,0,0,1.2974894000003587,None,space,2.6123113000003286,None,0,0,0,0,,,,,3,3,27,2,168.0179963999999,,,,,,,,,,,,,,,,,,,,,168.0027017999996,168.0179963999999,168.50161949999983,168.50641689999975,168.5202704999997,169.83439719999978,,,,,169.83459939999966,169.84997339999973,170.05044569999973,170.03439889999981,168.5202704999997,,,,,,,,0,0,1.2974894000003587,None,,,,,,,,864,23,M,R,2026-02-18_11h59.20.857,VisualSearch_2526_3,,2025.2.4,2026-02-18 11h59.21.082975 +0100,
tilted.xlsx,The target is tilted.,117,28,4,3,1,1,1,1,1,1,1,1,0,0,0,0,0,7,8,117,space,9.940206599999783,None,1,1,3.091591899999912,None,space,2.6123113000003286,None,0,0,0,0,,,,,3,4,28,1,170.05044569999973,,,,,,,,,,,,,,,,,,,,,170.03513909999992,170.05044569999973,170.5341771999997,170.5390327,170.55420559999993,173.6487592999997,,,,,173.64884570000004,173.66472069999963,,173.84900779999998,170.55420559999993,,,,,,,,1,1,3.091591899999912,None,,,,,,,,864,23,M,R,2026-02-18_11h59.20.857,VisualSearch_2526_3,,2025.2.4,2026-02-18 11h59.21.082975 +0100,
tilted.xlsx,The target is tilted.,117,29,5,3,0,1,1,1,1,1,1,1,0,0,0,0,1,7,8,117,space,9.940206599999783,None,1,0,1.5887588999999025,None,space,2.6123113000003286,None,0,0,0,0,,,,,3,5,29,5,173.86506059999965,,,,,,,,,,,,,,,,,,,,,173.84980529999984,173.86506059999965,174.3488972,174.35380639999994,174.36943059999976,175.96519039999976,,,,,175.9653899,175.98058109999965,176.18096699999978,176.16452600000002,174.36943059999976,,,,,,,,1,0,1.5887588999999025,None,,,,,,,,864,23,M,R,2026-02-18_11h59.20.857,VisualSearch_2526_3,,2025.2.4,2026-02-18 11h59.21.082975 +0100,
tilted.xlsx,The target is tilted.,117,30,6,3,0,0,0,0,0,0,0,0,0,0,0,0,1,1,1,117,space,9.940206599999783,None,1,0,0.5856023999999707,None,space,2.6123113000003286,None,0,0,0,0,,,,,3,6,30,7,176.18096699999978,,,,,,,,,,,,,,,,,,,,,176.16531319999967,176.18096699999978,176.66434889999982,176.6691791999997,176.6838571999997,177.28134369999998,,,,,177.28152649999993,177.29665769999974,177.4970642999997,177.4809719,176.6838571999997,,,,,,,,1,0,0.5856023999999707,None,,,,,,,,864,23,M,R,2026-02-18_11h59.20.857,VisualSearch_2526_3,,2025.2.4,2026-02-18 11h59.21.082975 +0100,
tilted.xlsx,The target is tilted.,117,31,7,3,1,0,0,0,0,0,0,0,0,0,0,0,0,0,1,117,space,9.940206599999783,None,0,0,0.5747443999998723,None,space,2.6123113000003286,None,0,0,0,0,,,,,3,7,31,3,177.4970642999997,,,,,,,,,,,,,,,,,,,,,177.4817478,177.4970642999997,177.9806977999997,177.98557019999998,178.00100919999977,178.58027889999994,,,,,178.58047009999973,178.59597929999973,178.7964476999996,178.7801298999998,178.00100919999977,,,,,,,,0,0,0.5747443999998723,None,,,,,,,,864,23,M,R,2026-02-18_11h59.20.857,VisualSearch_2526_3,,2025.2.4,2026-02-18 11h59.21.082975 +0100,
tilted.xlsx,The target is tilted.,117,32,0,4,1,0,0,0,0,0,0,0,0,0,0,0,0,0,1,117,space,9.940206599999783,None,0,0,0.7223958999998104,None,space,2.6123113000003286,None,0,0,0,0,,,,,4,0,32,3,178.7964476999996,,,,,,,,,,,,,,,,,,,,,178.7809041999999,178.7964476999996,179.2801531,179.28508220000003,179.29991089999976,180.03028879999965,,,,,180.0304887999996,180.04537359999995,180.2458431,180.22934319999968,179.29991089999976,,,,,,,,0,0,0.7223958999998104,None,,,,,,,,864,23,M,R,2026-02-18_11h59.20.857,VisualSearch_2526_3,,2025.2.4,2026-02-18 11h59.21.082975 +0100,
tilted.xlsx,The target is tilted.,117,33,1,4,1,1,1,1,1,1,1,1,0,0,0,0,0,7,8,117,space,9.940206599999783,None,1,1,1.1269314000001032,None,space,2.6123113000003286,None,0,0,0,0,,,,,4,1,33,1,180.2458431,,,,,,,,,,,,,,,,,,,,,180.2300995999999,180.2458431,180.72945739999977,180.73432739999998,180.74945789999992,181.87959359999968,,,,,181.87984549999965,181.89460559999998,182.09491099999968,182.0788375999996,180.74945789999992,,,,,,,,1,1,1.1269314000001032,None,,,,,,,,864,23,M,R,2026-02-18_11h59.20.857,VisualSearch_2526_3,,2025.2.4,2026-02-18 11h59.21.082975 +0100,
tilted.xlsx,The target is tilted.,117,34,2,4,0,1,1,1,1,1,1,1,0,0,0,0,1,7,8,117,space,9.940206599999783,None,1,0,1.6113571999999294,None,space,2.6123113000003286,None,0,0,0,0,,,,,4,2,34,5,182.09491099999968,,,,,,,,,,,,,,,,,,,,,182.07965639999975,182.09491099999968,182.57859039999994,182.5834434999997,182.59903899999972,184.21178329999975,,,,,184.2119813999998,184.22682349999968,184.4272665999997,184.41099910000003,182.59903899999972,,,,,,,,1,0,1.6113571999999294,None,,,,,,,,864,23,M,R,2026-02-18_11h59.20.857,VisualSearch_2526_3,,2025.2.4,2026-02-18 11h59.21.082975 +0100,
tilted.xlsx,The target is tilted.,117,35,3,4,1,1,1,1,1,1,1,1,1,1,1,1,0,11,12,117,space,9.940206599999783,None,1,1,2.068996700000298,None,space,2.6123113000003286,None,0,0,0,0,,,,,4,3,35,0,184.4272665999997,,,,,,,,,,,,,,,,,,,,,184.4117844999996,184.4272665999997,184.9105427999998,184.91355059999978,184.92690919999995,187.00976089999995,,,,,187.00997179999968,187.02541229999997,187.22596799999974,187.20984439999984,184.92690919999995,,,,,,,,1,1,2.068996700000298,None,,,,,,,,864,23,M,R,2026-02-18_11h59.20.857,VisualSearch_2526_3,,2025.2.4,2026-02-18 11h59.21.082975 +0100,
tilted.xlsx,The target is tilted.,117,36,4,4,0,0,0,0,0,0,0,0,0,0,0,0,1,1,1,117,space,9.940206599999783,None,1,0,0.7105142000000342,None,space,2.6123113000003286,None,0,0,0,0,,,,,4,4,36,7,187.22596799999974,,,,,,,,,,,,,,,,,,,,,187.21067819999962,187.22596799999974,187.7096044,187.71450689999983,187.72957729999962,188.44315449999976,,,,,188.44333619999998,188.4582306999996,188.6582139999996,188.64219449999973,187.72957729999962,,,,,,,,1,0,0.7105142000000342,None,,,,,,,,864,23,M,R,2026-02-18_11h59.20.857,VisualSearch_2526_3,,2025.2.4,2026-02-18 11h59.21.082975 +0100,
tilted.xlsx,The target is tilted.,117,37,5,4,0,1,1,1,1,1,1,1,1,1,1,1,1,11,12,117,space,9.940206599999783,None,1,0,2.0420838000000003,None,space,2.6123113000003286,None,0,0,0,0,,,,,4,5,37,4,188.6582139999996,,,,,,,,,,,,,,,,,,,,,188.64297769999985,188.6582139999996,189.14228539999976,189.14707929999986,189.16291460000002,191.20829159999994,,,,,191.20849309999994,191.22346449999986,191.42396519999966,191.4079367999998,189.16291460000002,,,,,,,,1,0,2.0420838000000003,None,,,,,,,,864,23,M,R,2026-02-18_11h59.20.857,VisualSearch_2526_3,,2025.2.4,2026-02-18 11h59.21.082975 +0100,
tilted.xlsx,The target is tilted.,117,38,6,4,1,1,1,1,0,0,0,0,0,0,0,0,0,3,4,117,space,9.940206599999783,None,0,0,0.8870612999999139,None,space,2.6123113000003286,None,0,0,0,0,,,,,4,6,38,2,191.42396519999966,,,,,,,,,,,,,,,,,,,,,191.40867660000004,191.42396519999966,191.9073911999999,191.91221349999978,191.9281578,192.82412149999982,,,,,192.8242648999999,192.8395287999997,193.0399723999999,193.02373129999978,191.9281578,,,,,,,,0,0,0.8870612999999139,None,,,,,,,,864,23,M,R,2026-02-18_11h59.20.857,VisualSearch_2526_3,,2025.2.4,2026-02-18 11h59.21.082975 +0100,
tilted.xlsx,The target is tilted.,117,39,7,4,0,1,1,1,0,0,0,0,0,0,0,0,1,3,4,117,space,9.940206599999783,None,1,0,2.6338095000000976,None,space,2.6123113000003286,None,0,0,0,0,,,,,4,7,39,6,193.0399723999999,,,,,,,,,,,,,,,,,,,,,193.0245691,193.0399723999999,193.5232590999999,193.52809230000003,193.5431564999999,196.18832069999962,,,,,196.1883759999996,196.2048292999998,,196.38862859999972,193.5431564999999,,,,,,,,1,0,2.6338095000000976,None,,,,,,,,864,23,M,R,2026-02-18_11h59.20.857,VisualSearch_2526_3,,2025.2.4,2026-02-18 11h59.21.082975 +0100,
tilted.xlsx,The target is tilted.,117,40,0,5,1,0,0,0,0,0,0,0,0,0,0,0,0,0,1,117,space,9.940206599999783,None,0,0,0.7716726999997263,None,space,2.6123113000003286,None,0,0,0,0,,,,,5,0,40,3,196.40501529999983,,,,,,,,,,,,,,,,,,,,,196.3894465999997,196.40501529999983,196.88849559999971,196.8935176,196.90920819999974,197.68836789999978,,,,,197.6885339999999,197.70404409999992,197.90433829999984,197.88824029999978,,,,,,,,,0,0,0.7716726999997263,None,,,,,,,,864,23,M,R,2026-02-18_11h59.20.857,VisualSearch_2526_3,,2025.2.4,2026-02-18 11h59.21.082975 +0100,
tilted.xlsx,The target is tilted.,117,41,1,5,0,1,1,1,1,1,1,1,0,0,0,0,1,7,8,117,space,9.940206599999783,None,1,0,1.7935722000001988,None,space,2.6123113000003286,None,0,0,0,0,,,,,5,1,41,5,197.90433829999984,,,,,,,,,,,,,,,,,,,,,197.8890139,197.90433829999984,198.38803129999997,198.39292369999976,198.4091988,200.2046346999996,,,,,200.20484639999995,200.21951469999976,200.41957969999976,200.40340829999968,198.4091988,,,,,,,,1,0,1.7935722000001988,None,,,,,,,,864,23,M,R,2026-02-18_11h59.20.857,VisualSearch_2526_3,,2025.2.4,2026-02-18 11h59.21.082975 +0100,
tilted.xlsx,The target is tilted.,117,42,2,5,0,0,0,0,0,0,0,0,0,0,0,0,1,1,1,117,space,9.940206599999783,None,1,0,0.627972199999931,None,space,2.6123113000003286,None,0,0,0,0,,,,,5,2,42,7,200.41957969999976,,,,,,,,,,,,,,,,,,,,,200.40429069999982,200.41957969999976,200.90334789999997,200.90819659999988,200.9220338,201.55351380000002,,,,,201.55371289999994,201.56871219999994,201.76939549999997,201.75334519999979,200.9220338,,,,,,,,1,0,0.627972199999931,None,,,,,,,,864,23,M,R,2026-02-18_11h59.20.857,VisualSearch_2526_3,,2025.2.4,2026-02-18 11h59.21.082975 +0100,
tilted.xlsx,The target is tilted.,117,43,3,5,0,1,1,1,1,1,1,1,1,1,1,1,1,11,12,117,space,9.940206599999783,None,1,0,1.9711615000001075,None,space,2.6123113000003286,None,0,0,0,0,,,,,5,3,43,4,201.76939549999997,,,,,,,,,,,,,,,,,,,,,201.75413799999978,201.76939549999997,202.25312369999983,202.25795879999987,202.2733834999999,204.25313209999968,,,,,204.25333659999978,204.2676961999996,204.4681811999999,204.45206919999964,202.2733834999999,,,,,,,,1,0,1.9711615000001075,None,,,,,,,,864,23,M,R,2026-02-18_11h59.20.857,VisualSearch_2526_3,,2025.2.4,2026-02-18 11h59.21.082975 +0100,
tilted.xlsx,The target is tilted.,117,44,4,5,1,1,1,1,1,1,1,1,0,0,0,0,0,7,8,117,space,9.940206599999783,None,1,1,3.214945799999896,None,space,2.6123113000003286,None,0,0,0,0,,,,,5,4,44,1,204.4681811999999,,,,,,,,,,,,,,,,,,,,,204.45280539999976,204.4681811999999,204.95159739999963,204.9554377999998,204.96789339999987,208.1843119,,,,,208.18455529999983,208.19912959999965,208.3996591,208.38309929999969,204.96789339999987,,,,,,,,1,1,3.214945799999896,None,,,,,,,,864,23,M,R,2026-02-18_11h59.20.857,VisualSearch_2526_3,,2025.2.4,2026-02-18 11h59.21.082975 +0100,
tilted.xlsx,The target is tilted.,117,45,5,5,1,1,1,1,1,1,1,1,1,1,1,1,0,11,12,117,space,9.940206599999783,None,1,1,3.004662699999699,None,space,2.6123113000003286,None,0,0,0,0,,,,,5,5,45,0,208.3996591,,,,,,,,,,,,,,,,,,,,,208.38388959999975,208.3996591,208.88309200000003,208.88792729999977,208.90045329999975,211.91503160000002,,,,,211.91512449999982,211.93067029999975,212.13143979999995,212.11521089999997,208.90045329999975,,,,,,,,1,1,3.004662699999699,None,,,,,,,,864,23,M,R,2026-02-18_11h59.20.857,VisualSearch_2526_3,,2025.2.4,2026-02-18 11h59.21.082975 +0100,
tilted.xlsx,The target is tilted.,117,46,6,5,0,1,1,1,0,0,0,0,0,0,0,0,1,3,4,117,space,9.940206599999783,None,1,0,3.35170670000025,None,space,2.6123113000003286,None,0,0,0,0,,,,,5,6,46,6,212.13143979999995,,,,,,,,,,,,,,,,,,,,,212.11596839999993,212.13143979999995,212.6147506999996,212.6195206999996,212.63183549999985,215.99671939999962,,,,,215.99696059999997,216.01236889999973,216.21299249999993,216.19683689999965,212.63183549999985,,,,,,,,1,0,3.35170670000025,None,,,,,,,,864,23,M,R,2026-02-18_11h59.20.857,VisualSearch_2526_3,,2025.2.4,2026-02-18 11h59.21.082975 +0100,
tilted.xlsx,The target is tilted.,117,47,7,5,1,1,1,1,0,0,0,0,0,0,0,0,0,3,4,117,space,9.940206599999783,None,0,0,1.131836900000053,None,space,2.6123113000003286,None,0,0,0,0,,,,,5,7,47,2,216.21299249999993,,,,,,,,,,,,,,,,,,,,,216.19765979999966,216.21299249999993,216.69647229999964,216.70135549999986,216.71578490000002,217.86246419999998,,,,,217.86266499999965,217.87812459999986,218.0782494,218.0625114999998,216.71578490000002,,,,,,,,0,0,1.131836900000053,None,,,,,,,,864,23,M,R,2026-02-18_11h59.20.857,VisualSearch_2526_3,,2025.2.4,2026-02-18 11h59.21.082975 +0100,
tilted.xlsx,The target is tilted.,117,48,0,6,1,1,1,1,0,0,0,0,0,0,0,0,0,3,4,117,space,9.940206599999783,None,0,0,1.7269768999999542,None,space,2.6123113000003286,None,0,0,0,0,,,,,6,0,48,2,218.0782494,,,,,,,,,,,,,,,,,,,,,218.0632774999999,218.0782494,218.5624831,218.56735339999977,218.58300669999971,220.3121613999997,,,,,220.31236279999985,220.32707269999992,220.5275284999998,220.51151289999962,218.58300669999971,,,,,,,,0,0,1.7269768999999542,None,,,,,,,,864,23,M,R,2026-02-18_11h59.20.857,VisualSearch_2526_3,,2025.2.4,2026-02-18 11h59.21.082975 +0100,
tilted.xlsx,The target is tilted.,117,49,1,6,1,1,1,1,1,1,1,1,1,1,1,1,0,11,12,117,space,9.940206599999783,None,1,1,4.601932999999917,None,space,2.6123113000003286,None,0,0,0,0,,,,,6,1,49,0,220.5275284999998,,,,,,,,,,,,,,,,,,,,,220.51228879999962,220.5275284999998,221.0110568,221.01601189999974,221.0322084999998,225.64310589999968,,,,,225.6433265999999,225.65817070000003,225.8581436999998,225.8424216999997,221.0322084999998,,,,,,,,1,1,4.601932999999917,None,,,,,,,,864,23,M,R,2026-02-18_11h59.20.857,VisualSearch_2526_3,,2025.2.4,2026-02-18 11h59.21.082975 +0100,
tilted.xlsx,The target is tilted.,117,50,2,6,0,1,1,1,1,1,1,1,0,0,0,0,1,7,8,117,space,9.940206599999783,None,1,0,1.5098385999999664,None,space,2.6123113000003286,None,0,0,0,0,,,,,6,2,50,5,225.8581436999998,,,,,,,,,,,,,,,,,,,,,225.84316779999972,225.8581436999998,226.3422056999998,226.34710479999967,226.36217929999975,227.87505509999983,,,,,227.87525389999973,227.89025599999968,228.09076129999994,228.07436259999986,226.36217929999975,,,,,,,,1,0,1.5098385999999664,None,,,,,,,,864,23,M,R,2026-02-18_11h59.20.857,VisualSearch_2526_3,,2025.2.4,2026-02-18 11h59.21.082975 +0100,
tilted.xlsx,The target is tilted.,117,51,3,6,1,1,1,1,1,1,1,1,0,0,0,0,0,7,8,117,space,9.940206599999783,None,1,1,1.9936976999997569,None,space,2.6123113000003286,None,0,0,0,0,,,,,6,3,51,1,228.09076129999994,,,,,,,,,,,,,,,,,,,,,228.07510639999964,228.09076129999994,228.57407039999998,228.5788435999998,228.5931731999999,230.59006099999988,,,,,230.5902428999998,230.6057735999998,230.8058329999999,230.7899521999998,228.5931731999999,,,,,,,,1,1,1.9936976999997569,None,,,,,,,,864,23,M,R,2026-02-18_11h59.20.857,VisualSearch_2526_3,,2025.2.4,2026-02-18 11h59.21.082975 +0100,
tilted.xlsx,The target is tilted.,117,52,4,6,1,0,0,0,0,0,0,0,0,0,0,0,0,0,1,117,space,9.940206599999783,None,0,0,0.902043699999922,None,space,2.6123113000003286,None,0,0,0,0,,,,,6,4,52,3,230.8058329999999,,,,,,,,,,,,,,,,,,,,,230.79074760000003,230.8058329999999,231.28994169999987,231.29482089999965,231.3094412999999,232.22320709999985,,,,,232.22340659999963,232.23833509999986,232.43874179999966,232.4223165999997,231.3094412999999,,,,,,,,0,0,0.902043699999922,None,,,,,,,,864,23,M,R,2026-02-18_11h59.20.857,VisualSearch_2526_3,,2025.2.4,2026-02-18 11h59.21.082975 +0100,
tilted.xlsx,The target is tilted.,117,53,5,6,0,0,0,0,0,0,0,0,0,0,0,0,1,1,1,117,space,9.940206599999783,None,1,0,1.1871045000002596,None,space,2.6123113000003286,None,0,0,0,0,,,,,6,5,53,7,232.43874179999966,,,,,,,,,,,,,,,,,,,,,232.42313849999982,232.43874179999966,232.9221719999996,232.9270604999997,232.94220619999987,234.1386577999997,,,,,234.13878879999993,234.15411499999982,234.3543010999997,234.33858439999995,232.94220619999987,,,,,,,,1,0,1.1871045000002596,None,,,,,,,,864,23,M,R,2026-02-18_11h59.20.857,VisualSearch_2526_3,,2025.2.4,2026-02-18 11h59.21.082975 +0100,
tilted.xlsx,The target is tilted.,117,54,6,6,0,1,1,1,1,1,1,1,1,1,1,1,1,11,12,117,space,9.940206599999783,None,1,0,4.755904700000428,None,space,2.6123113000003286,None,0,0,0,0,,,,,6,6,54,4,234.3543010999997,,,,,,,,,,,,,,,,,,,,,234.33934869999985,234.3543010999997,234.83824159999995,234.84311230000003,234.8589603999999,239.6198760999996,,,,,239.62009360000002,239.63482829999975,239.83508689999962,239.81896039999992,234.8589603999999,,,,,,,,1,0,4.755904700000428,None,,,,,,,,864,23,M,R,2026-02-18_11h59.20.857,VisualSearch_2526_3,,2025.2.4,2026-02-18 11h59.21.082975 +0100,
tilted.xlsx,The target is tilted.,117,55,7,6,0,1,1,1,0,0,0,0,0,0,0,0,1,3,4,117,space,9.940206599999783,None,1,0,1.3260804999999891,None,space,2.6123113000003286,None,0,0,0,0,,,,,6,7,55,6,239.83508689999962,,,,,,,,,,,,,,,,,,,,,239.81968740000002,239.83508689999962,240.31905639999968,240.3239136999996,240.33966199999986,241.66853330000004,,,,,241.66867559999991,241.6838899999998,241.88427739999997,241.86844249999967,240.33966199999986,,,,,,,,1,0,1.3260804999999891,None,,,,,,,,864,23,M,R,2026-02-18_11h59.20.857,VisualSearch_2526_3,,2025.2.4,2026-02-18 11h59.21.082975 +0100,
tilted.xlsx,The target is tilted.,117,56,0,7,0,1,1,1,1,1,1,1,0,0,0,0,1,7,8,117,space,9.940206599999783,None,1,0,3.09458050000012,None,space,2.6123113000003286,None,0,0,0,0,,,,,7,0,56,5,241.88427739999997,,,,,,,,,,,,,,,,,,,,,241.86928279999984,241.88427739999997,242.36807939999971,242.37291119999963,242.38831189999974,245.48383109999986,,,,,245.48401429999967,245.4987216999998,245.69898179999973,245.6827632999998,242.38831189999974,,,,,,,,1,0,3.09458050000012,None,,,,,,,,864,23,M,R,2026-02-18_11h59.20.857,VisualSearch_2526_3,,2025.2.4,2026-02-18 11h59.21.082975 +0100,
tilted.xlsx,The target is tilted.,117,57,1,7,1,0,0,0,0,0,0,0,0,0,0,0,0,0,1,117,space,9.940206599999783,None,0,0,1.015690799999902,None,space,2.6123113000003286,None,0,0,0,0,,,,,7,1,57,3,245.69898179999973,,,,,,,,,,,,,,,,,,,,,245.68345369999997,245.69898179999973,246.18300359999967,246.18792259999964,246.20398260000002,247.23223389999976,,,,,247.23237179999978,247.24818659999983,247.44865589999972,247.4326145,246.20398260000002,,,,,,,,0,0,1.015690799999902,None,,,,,,,,864,23,M,R,2026-02-18_11h59.20.857,VisualSearch_2526_3,,2025.2.4,2026-02-18 11h59.21.082975 +0100,
tilted.xlsx,The target is tilted.,117,58,2,7,0,0,0,0,0,0,0,0,0,0,0,0,1,1,1,117,space,9.940206599999783,None,1,0,0.6426062000000456,None,space,2.6123113000003286,None,0,0,0,0,,,,,7,2,58,7,247.44865589999972,,,,,,,,,,,,,,,,,,,,,247.4333472999997,247.44865589999972,247.9319134999996,247.93675949999988,247.9532339999996,248.59868849999975,,,,,248.59882199999993,248.6142031999998,248.8144639999996,248.79822809999996,247.9532339999996,,,,,,,,1,0,0.6426062000000456,None,,,,,,,,864,23,M,R,2026-02-18_11h59.20.857,VisualSearch_2526_3,,2025.2.4,2026-02-18 11h59.21.082975 +0100,
tilted.xlsx,The target is tilted.,117,59,3,7,0,1,1,1,1,1,1,1,1,1,1,1,1,11,12,117,space,9.940206599999783,None,1,0,1.2767875999998068,None,space,2.6123113000003286,None,0,0,0,0,,,,,7,3,59,4,248.8144639999996,,,,,,,,,,,,,,,,,,,,,248.79897359999995,248.8144639999996,249.29829599999994,249.30316730000004,249.31886799999984,250.59791899999982,,,,,250.59806549999985,250.6131822999996,250.81383800000003,250.79764029999978,249.31886799999984,,,,,,,,1,0,1.2767875999998068,None,,,,,,,,864,23,M,R,2026-02-18_11h59.20.857,VisualSearch_2526_3,,2025.2.4,2026-02-18 11h59.21.082975 +0100,
tilted.xlsx,The target is tilted.,117,60,4,7,1,1,1,1,1,1,1,1,1,1,1,1,0,11,12,117,space,9.940206599999783,None,1,1,3.1982342000001154,None,space,2.6123113000003286,None,0,0,0,0,,,,,7,4,60,0,250.81383800000003,,,,,,,,,,,,,,,,,,,,,250.79839649999985,250.81383800000003,251.29740730000003,251.30227639999976,251.31592139999975,254.5292803999996,,,,,254.5294915999998,254.54493030000003,254.74492109999983,254.72908189999998,251.31592139999975,,,,,,,,1,1,3.1982342000001154,None,,,,,,,,864,23,M,R,2026-02-18_11h59.20.857,VisualSearch_2526_3,,2025.2.4,2026-02-18 11h59.21.082975 +0100,
tilted.xlsx,The target is tilted.,117,61,5,7,0,1,1,1,0,0,0,0,0,0,0,0,1,3,4,117,space,9.940206599999783,None,0,1,1.186578400000144,None,space,2.6123113000003286,None,0,0,0,0,,,,,7,5,61,6,254.74492109999983,,,,,,,,,,,,,,,,,,,,,254.73015589999977,254.74492109999983,255.22860649999984,255.2334633999999,255.2494646,256.4456765,,,,,256.44587679999995,256.46071519999987,256.66073789999973,256.6447226,255.2494646,,,,,,,,0,1,1.186578400000144,None,,,,,,,,864,23,M,R,2026-02-18_11h59.20.857,VisualSearch_2526_3,,2025.2.4,2026-02-18 11h59.21.082975 +0100,
tilted.xlsx,The target is tilted.,117,62,6,7,1,1,1,1,0,0,0,0,0,0,0,0,0,3,4,117,space,9.940206599999783,None,0,0,1.897389799999928,None,space,2.6123113000003286,None,0,0,0,0,,,,,7,6,62,2,256.66073789999973,,,,,,,,,,,,,,,,,,,,,256.64563529999987,256.66073789999973,257.1444581999999,257.14933359999986,257.16549529999975,259.07708589999993,,,,,259.0772904999999,259.0928088999999,259.2933352,259.2771074999996,257.16549529999975,,,,,,,,0,0,1.897389799999928,None,,,,,,,,864,23,M,R,2026-02-18_11h59.20.857,VisualSearch_2526_3,,2025.2.4,2026-02-18 11h59.21.082975 +0100,
tilted.xlsx,The target is tilted.,117,63,7,7,1,1,1,1,1,1,1,1,0,0,0,0,0,7,8,117,space,9.940206599999783,None,1,1,2.747480800000176,None,space,2.6123113000003286,None,0,0,0,0,,,,,7,7,63,1,259.2933352,,,,,,,,,,,,,,,,,,,,,259.2778728999997,259.2933352,259.7769472,259.78185669999993,259.79792039999984,262.5581966,,,,,262.55828569999994,262.57484959999965,,262.75866629999973,259.79792039999984,,,,,,,,1,1,2.747480800000176,None,,,,,,,,864,23,M,R,2026-02-18_11h59.20.857,VisualSearch_2526_3,,2025.2.4,2026-02-18 11h59.21.082975 +0100,
tilted.xlsx,The target is tilted.,117,64,0,8,0,1,1,1,0,0,0,0,0,0,0,0,1,3,4,117,space,9.940206599999783,None,0,1,1.3493644000000131,None,space,2.6123113000003286,None,0,0,0,0,,,,,8,0,64,6,262.7749600999996,,,,,,,,,,,,,,,,,,,,,262.75944009999967,262.7749600999996,263.25843369999984,263.2627846999999,263.2787460999998,264.64096619999964,,,,,264.6411146999999,264.6568864999999,264.857438,264.8413667,263.2787460999998,,,,,,,,0,1,1.3493644000000131,None,,,,,,,,864,23,M,R,2026-02-18_11h59.20.857,VisualSearch_2526_3,,2025.2.4,2026-02-18 11h59.21.082975 +0100,
tilted.xlsx,The target is tilted.,117,65,1,8,0,1,1,1,1,1,1,1,0,0,0,0,1,7,8,117,space,9.940206599999783,None,1,0,1.9104486000001089,None,space,2.6123113000003286,None,0,0,0,0,,,,,8,1,65,5,264.857438,,,,,,,,,,,,,,,,,,,,,264.84211959999993,264.857438,265.34088569999994,265.34563899999966,265.3612850999998,267.27381419999983,,,,,267.27397559999963,267.2891434999997,267.48933279999983,267.47300659999974,265.3612850999998,,,,,,,,1,0,1.9104486000001089,None,,,,,,,,864,23,M,R,2026-02-18_11h59.20.857,VisualSearch_2526_3,,2025.2.4,2026-02-18 11h59.21.082975 +0100,
tilted.xlsx,The target is tilted.,117,66,2,8,1,1,1,1,1,1,1,1,1,1,1,1,0,11,12,117,space,9.940206599999783,None,1,1,3.546604500000285,None,space,2.6123113000003286,None,0,0,0,0,,,,,8,2,66,0,267.48933279999983,,,,,,,,,,,,,,,,,,,,,267.47375239999974,267.48933279999983,267.9730405,267.9778438999997,267.9931182999999,271.55486489999976,,,,,271.55508280000004,271.5705224999997,271.77074189999985,271.75452229999973,267.9931182999999,,,,,,,,1,1,3.546604500000285,None,,,,,,,,864,23,M,R,2026-02-18_11h59.20.857,VisualSearch_2526_3,,2025.2.4,2026-02-18 11h59.21.082975 +0100,
tilted.xlsx,The target is tilted.,117,67,3,8,1,0,0,0,0,0,0,0,0,0,0,0,0,0,1,117,space,9.940206599999783,None,0,0,0.7001152000002548,None,space,2.6123113000003286,None,0,0,0,0,,,,,8,3,67,3,271.77074189999985,,,,,,,,,,,,,,,,,,,,,271.7552587,271.77074189999985,272.254453,272.2595795999996,272.27505429999974,272.98744579999993,,,,,272.98765000000003,273.00319109999964,273.2033486999999,273.18718139999964,272.27505429999974,,,,,,,,0,0,0.7001152000002548,None,,,,,,,,864,23,M,R,2026-02-18_11h59.20.857,VisualSearch_2526_3,,2025.2.4,2026-02-18 11h59.21.082975 +0100,
tilted.xlsx,The target is tilted.,117,68,4,8,0,1,1,1,1,1,1,1,1,1,1,1,1,11,12,117,space,9.940206599999783,None,1,0,2.070235000000139,None,space,2.6123113000003286,None,0,0,0,0,,,,,8,4,68,4,273.2033486999999,,,,,,,,,,,,,,,,,,,,,273.1879177999999,273.2033486999999,273.68734369999993,273.6919961999997,273.7032598999999,275.7855701999997,,,,,275.7856700999996,275.8022768999999,,275.9859569,273.7032598999999,,,,,,,,1,0,2.070235000000139,None,,,,,,,,864,23,M,R,2026-02-18_11h59.20.857,VisualSearch_2526_3,,2025.2.4,2026-02-18 11h59.21.082975 +0100,
tilted.xlsx,The target is tilted.,117,69,5,8,1,1,1,1,1,1,1,1,0,0,0,0,0,7,8,117,space,9.940206599999783,None,1,1,4.0083872999998675,None,space,2.6123113000003286,None,0,0,0,0,,,,,8,5,69,1,276.0020973999999,,,,,,,,,,,,,,,,,,,,,275.9867291999999,276.0020973999999,276.4856771999998,276.4904878999996,276.50552519999974,280.5175863999998,,,,,280.5177656999999,280.5331521999997,280.7336412999998,280.71742349999977,276.50552519999974,,,,,,,,1,1,4.0083872999998675,None,,,,,,,,864,23,M,R,2026-02-18_11h59.20.857,VisualSearch_2526_3,,2025.2.4,2026-02-18 11h59.21.082975 +0100,
tilted.xlsx,The target is tilted.,117,70,6,8,0,0,0,0,0,0,0,0,0,0,0,0,1,1,1,117,space,9.940206599999783,None,1,0,0.6986643999998705,None,space,2.6123113000003286,None,0,0,0,0,,,,,8,6,70,7,280.7336412999998,,,,,,,,,,,,,,,,,,,,,280.71822810000003,280.7336412999998,281.21721279999974,281.2220345999999,281.2366926999998,281.949783,,,,,281.9498933,281.965686,282.1662365999996,282.1501602999997,281.2366926999998,,,,,,,,1,0,0.6986643999998705,None,,,,,,,,864,23,M,R,2026-02-18_11h59.20.857,VisualSearch_2526_3,,2025.2.4,2026-02-18 11h59.21.082975 +0100,
tilted.xlsx,The target is tilted.,117,71,7,8,1,1,1,1,0,0,0,0,0,0,0,0,0,3,4,117,space,9.940206599999783,None,0,0,1.4344719999999143,None,space,2.6123113000003286,None,0,0,0,0,,,,,8,7,71,2,282.1662365999996,,,,,,,,,,,,,,,,,,,,,282.15090439999994,282.1662365999996,282.64987129999963,282.6547068,282.6695897999998,284.11589559999993,,,,,284.1160909,284.13148139999976,284.3319282999996,284.3154623999999,282.6695897999998,,,,,,,,0,0,1.4344719999999143,None,,,,,,,,864,23,M,R,2026-02-18_11h59.20.857,VisualSearch_2526_3,,2025.2.4,2026-02-18 11h59.21.082975 +0100,
tilted.xlsx,The target is tilted.,117,72,0,9,1,1,1,1,1,1,1,1,0,0,0,0,0,7,8,117,space,9.940206599999783,None,1,1,1.7017063999996935,None,space,2.6123113000003286,None,0,0,0,0,,,,,9,0,72,1,284.3319282999996,,,,,,,,,,,,,,,,,,,,,284.31619109999974,284.3319282999996,284.81542179999997,284.8202161999998,284.83532939999986,286.5484219,,,,,286.5486119999996,286.5636292999998,286.7638837999998,286.7480166,284.83532939999986,,,,,,,,1,1,1.7017063999996935,None,,,,,,,,864,23,M,R,2026-02-18_11h59.20.857,VisualSearch_2526_3,,2025.2.4,2026-02-18 11h59.21.082975 +0100,
tilted.xlsx,The target is tilted.,117,73,1,9,0,1,1,1,1,1,1,1,1,1,1,1,1,11,12,117,space,9.940206599999783,None,1,0,2.0179307000003064,None,space,2.6123113000003286,None,0,0,0,0,,,,,9,1,73,4,286.7638837999998,,,,,,,,,,,,,,,,,,,,,286.7487938999998,286.7638837999998,287.24689969999963,287.24878409999974,287.26319079999985,289.2970008999996,,,,,289.29720099999986,289.31250469999986,289.5126304999999,289.49677169999995,287.26319079999985,,,,,,,,1,0,2.0179307000003064,None,,,,,,,,864,23,M,R,2026-02-18_11h59.20.857,VisualSearch_2526_3,,2025.2.4,2026-02-18 11h59.21.082975 +0100,
tilted.xlsx,The target is tilted.,117,74,2,9,0,0,0,0,0,0,0,0,0,0,0,0,1,1,1,117,space,9.940206599999783,None,1,0,0.6869130999998561,None,space,2.6123113000003286,None,0,0,0,0,,,,,9,2,74,7,289.5126304999999,,,,,,,,,,,,,,,,,,,,,289.49759319999976,289.5126304999999,289.9965745999998,290.00139979999994,290.01844839999967,290.71335839999983,,,,,290.7135532999996,290.72849180000003,290.9291747999996,290.91235499999993,290.01844839999967,,,,,,,,1,0,0.6869130999998561,None,,,,,,,,864,23,M,R,2026-02-18_11h59.20.857,VisualSearch_2526_3,,2025.2.4,2026-02-18 11h59.21.082975 +0100,
tilted.xlsx,The target is tilted.,117,75,3,9,0,1,1,1,0,0,0,0,0,0,0,0,1,3,4,117,space,9.940206599999783,None,1,0,1.207485700000234,None,space,2.6123113000003286,None,0,0,0,0,,,,,9,3,75,6,290.9291747999996,,,,,,,,,,,,,,,,,,,,,290.9130971999998,290.9291747999996,291.4126228,291.41738039999973,291.43314539999983,292.6458534999997,,,,,292.64606479999975,292.66092309999976,292.86145529999976,292.8451147999999,291.43314539999983,,,,,,,,1,0,1.207485700000234,None,,,,,,,,864,23,M,R,2026-02-18_11h59.20.857,VisualSearch_2526_3,,2025.2.4,2026-02-18 11h59.21.082975 +0100,
tilted.xlsx,The target is tilted.,117,76,4,9,1,1,1,1,1,1,1,1,1,1,1,1,0,11,12,117,space,9.940206599999783,None,1,1,8.206528700000035,None,space,2.6123113000003286,None,0,0,0,0,,,,,9,4,76,0,292.86145529999976,,,,,,,,,,,,,,,,,,,,,292.8459066999999,292.86145529999976,293.3445644999997,293.34941630000003,293.3639174,301.57429649999995,,,,,301.5744407999996,301.5899823999998,301.7906727999998,301.7742794999999,293.3639174,,,,,,,,1,1,8.206528700000035,None,,,,,,,,864,23,M,R,2026-02-18_11h59.20.857,VisualSearch_2526_3,,2025.2.4,2026-02-18 11h59.21.082975 +0100,
tilted.xlsx,The target is tilted.,117,77,5,9,0,1,1,1,1,1,1,1,0,0,0,0,1,7,8,117,space,9.940206599999783,None,1,0,2.308585700000094,None,space,2.6123113000003286,None,0,0,0,0,,,,,9,5,77,5,301.7906727999998,,,,,,,,,,,,,,,,,,,,,301.7750877999997,301.7906727999998,302.27443589999984,302.2792958,302.29522069999985,304.60684749999973,,,,,304.60705759999973,304.6221410999997,304.8223948,304.8064310999998,302.29522069999985,,,,,,,,1,0,2.308585700000094,None,,,,,,,,864,23,M,R,2026-02-18_11h59.20.857,VisualSearch_2526_3,,2025.2.4,2026-02-18 11h59.21.082975 +0100,
tilted.xlsx,The target is tilted.,117,78,6,9,1,0,0,0,0,0,0,0,0,0,0,0,0,0,1,117,space,9.940206599999783,None,0,0,0.7431022000000667,None,space,2.6123113000003286,None,0,0,0,0,,,,,9,6,78,3,304.8223948,,,,,,,,,,,,,,,,,,,,,304.8072623999997,304.8223948,305.3058887999996,305.31061199999976,305.3248056999996,306.0730180999999,,,,,306.07321269999966,306.08821369999987,306.2886546999998,306.2724982,305.3248056999996,,,,,,,,0,0,0.7431022000000667,None,,,,,,,,864,23,M,R,2026-02-18_11h59.20.857,VisualSearch_2526_3,,2025.2.4,2026-02-18 11h59.21.082975 +0100,
tilted.xlsx,The target is tilted.,117,79,7,9,1,1,1,1,0,0,0,0,0,0,0,0,0,3,4,117,space,9.940206599999783,None,0,0,2.1248037999998814,None,space,2.6123113000003286,None,0,0,0,0,,,,,9,7,79,2,306.2886546999998,,,,,,,,,,,,,,,,,,,,,306.27325329999985,306.2886546999998,306.7722524999999,306.7770078999997,306.79207789999964,308.9217203999997,,,,,308.9219181999997,308.9368992999998,309.1373355999999,309.1210014999997,306.79207789999964,,,,,,,,0,0,2.1248037999998814,None,,,,,,,,864,23,M,R,2026-02-18_11h59.20.857,VisualSearch_2526_3,,2025.2.4,2026-02-18 11h59.21.082975 +0100,
tilted.xlsx,The target is tilted.,117,80,0,10,0,1,1,1,1,1,1,1,0,0,0,0,1,7,8,117,space,9.940206599999783,None,1,0,1.5583350000001701,None,space,2.6123113000003286,None,0,0,0,0,,,,,10,0,80,5,309.1373355999999,,,,,,,,,,,,,,,,,,,,,309.1217647999997,309.1373355999999,309.62022879999995,309.6220469,309.6369751999996,311.20489769999995,,,,,311.20510379999996,311.21917159999975,311.41958109999996,311.40313639999977,309.6369751999996,,,,,,,,1,0,1.5583350000001701,None,,,,,,,,864,23,M,R,2026-02-18_11h59.20.857,VisualSearch_2526_3,,2025.2.4,2026-02-18 11h59.21.082975 +0100,
tilted.xlsx,The target is tilted.,117,81,1,10,0,1,1,1,0,0,0,0,0,0,0,0,1,3,4,117,space,9.940206599999783,None,0,1,0.8695571999996901,None,space,2.6123113000003286,None,0,0,0,0,,,,,10,1,81,6,311.41958109999996,,,,,,,,,,,,,,,,,,,,,311.4039149,311.41958109999996,311.90338299999985,311.9081649999998,311.92082349999964,312.8032325999998,,,,,312.8033935999997,312.8184458999999,313.01891739999974,313.0027891,311.92082349999964,,,,,,,,0,1,0.8695571999996901,None,,,,,,,,864,23,M,R,2026-02-18_11h59.20.857,VisualSearch_2526_3,,2025.2.4,2026-02-18 11h59.21.082975 +0100,
tilted.xlsx,The target is tilted.,117,82,2,10,1,1,1,1,1,1,1,1,0,0,0,0,0,7,8,117,space,9.940206599999783,None,1,1,2.040716500000144,None,space,2.6123113000003286,None,0,0,0,0,,,,,10,2,82,1,313.01891739999974,,,,,,,,,,,,,,,,,,,,,313.0035214999998,313.01891739999974,313.5025601999996,313.50741649999964,313.5227196999999,315.5688326999998,,,,,315.56905789999973,315.5838154999997,315.7835834999996,315.7672226999998,313.5227196999999,,,,,,,,1,1,2.040716500000144,None,,,,,,,,864,23,M,R,2026-02-18_11h59.20.857,VisualSearch_2526_3,,2025.2.4,2026-02-18 11h59.21.082975 +0100,
tilted.xlsx,The target is tilted.,117,83,3,10,1,0,0,0,0,0,0,0,0,0,0,0,0,0,1,117,space,9.940206599999783,None,0,0,0.9024034999997639,None,space,2.6123113000003286,None,0,0,0,0,,,,,10,3,83,3,315.7835834999996,,,,,,,,,,,,,,,,,,,,,315.7677257,315.7835834999996,316.26706269999977,316.2691768999998,316.28362579999975,317.2003901999997,,,,,317.20051939999985,317.2167959999997,317.41693699999996,317.4007902999997,316.28362579999975,,,,,,,,0,0,0.9024034999997639,None,,,,,,,,864,23,M,R,2026-02-18_11h59.20.857,VisualSearch_2526_3,,2025.2.4,2026-02-18 11h59.21.082975 +0100,
tilted.xlsx,The target is tilted.,117,84,4,10,1,1,1,1,0,0,0,0,0,0,0,0,0,3,4,117,space,9.940206599999783,None,0,0,2.6631125999997494,None,space,2.6123113000003286,None,0,0,0,0,,,,,10,4,84,2,317.41693699999996,,,,,,,,,,,,,,,,,,,,,317.40154589999975,317.41693699999996,317.90002479999976,317.9019626999998,317.91650249999975,320.58294939999996,,,,,320.58314440000004,320.5986533,320.79872929999965,320.7825380999998,317.91650249999975,,,,,,,,0,0,2.6631125999997494,None,,,,,,,,864,23,M,R,2026-02-18_11h59.20.857,VisualSearch_2526_3,,2025.2.4,2026-02-18 11h59.21.082975 +0100,
tilted.xlsx,The target is tilted.,117,85,5,10,1,1,1,1,1,1,1,1,1,1,1,1,0,11,12,117,space,9.940206599999783,None,1,1,2.1672880999999506,None,space,2.6123113000003286,None,0,0,0,0,,,,,10,5,85,0,320.79872929999965,,,,,,,,,,,,,,,,,,,,,320.78332249999994,320.79872929999965,321.28189699999984,321.28697349999993,321.30126759999985,323.4814007,,,,,323.48152919999984,323.49744169999985,323.6972235999997,323.6813635999997,321.30126759999985,,,,,,,,1,1,2.1672880999999506,None,,,,,,,,864,23,M,R,2026-02-18_11h59.20.857,VisualSearch_2526_3,,2025.2.4,2026-02-18 11h59.21.082975 +0100,
tilted.xlsx,The target is tilted.,117,86,6,10,0,1,1,1,1,1,1,1,1,1,1,1,1,11,12,117,space,9.940206599999783,None,1,0,5.8614699999998265,None,space,2.6123113000003286,None,0,0,0,0,,,,,10,6,86,4,323.6972235999997,,,,,,,,,,,,,,,,,,,,,323.6822729999999,323.6972235999997,324.18127749999985,324.1867478999998,324.20076649999965,330.0781920999998,,,,,330.0782763999996,330.09401679999974,330.2943495999998,330.2782889,324.20076649999965,,,,,,,,1,0,5.8614699999998265,None,,,,,,,,864,23,M,R,2026-02-18_11h59.20.857,VisualSearch_2526_3,,2025.2.4,2026-02-18 11h59.21.082975 +0100,
tilted.xlsx,The target is tilted.,117,87,7,10,0,0,0,0,0,0,0,0,0,0,0,0,1,1,1,117,space,9.940206599999783,None,1,0,0.6978597000002082,None,space,2.6123113000003286,None,0,0,0,0,,,,,10,7,87,7,330.2943495999998,,,,,,,,,,,,,,,,,,,,,330.27905809999993,330.2943495999998,330.77805929999977,330.78286849999995,330.79654819999996,331.51069499999994,,,,,331.5107969999999,331.52673979999963,331.7271072999997,331.7110141999997,330.79654819999996,,,,,,,,1,0,0.6978597000002082,None,,,,,,,,864,23,M,R,2026-02-18_11h59.20.857,VisualSearch_2526_3,,2025.2.4,2026-02-18 11h59.21.082975 +0100,
tilted.xlsx,The target is tilted.,117,88,0,11,1,1,1,1,1,1,1,1,1,1,1,1,0,11,12,117,space,9.940206599999783,None,1,1,1.726122099999884,None,space,2.6123113000003286,None,0,0,0,0,,,,,11,0,88,0,331.7271072999997,,,,,,,,,,,,,,,,,,,,,331.71176369999966,331.7271072999997,332.2103668999998,332.2151328,332.2299297999998,333.96005349999996,,,,,333.96022949999997,333.9758746999996,334.1759941999999,334.1598563999996,332.2299297999998,,,,,,,,1,1,1.726122099999884,None,,,,,,,,864,23,M,R,2026-02-18_11h59.20.857,VisualSearch_2526_3,,2025.2.4,2026-02-18 11h59.21.082975 +0100,
tilted.xlsx,The target is tilted.,117,89,1,11,0,0,0,0,0,0,0,0,0,0,0,0,1,1,1,117,space,9.940206599999783,None,1,0,0.7371502000000874,None,space,2.6123113000003286,None,0,0,0,0,,,,,11,1,89,7,334.1759941999999,,,,,,,,,,,,,,,,,,,,,334.1606373999998,334.1759941999999,334.6596181,334.66436539999995,334.6766018999997,335.4265167999997,,,,,335.42671429999973,335.4419882999996,335.6420707999996,335.62579179999966,334.6766018999997,,,,,,,,1,0,0.7371502000000874,None,,,,,,,,864,23,M,R,2026-02-18_11h59.20.857,VisualSearch_2526_3,,2025.2.4,2026-02-18 11h59.21.082975 +0100,
tilted.xlsx,The target is tilted.,117,90,2,11,1,1,1,1,1,1,1,1,0,0,0,0,0,7,8,117,space,9.940206599999783,None,1,1,0.786390400000073,None,space,2.6123113000003286,None,0,0,0,0,,,,,11,2,90,1,335.6420707999996,,,,,,,,,,,,,,,,,,,,,335.62655859999995,335.6420707999996,336.1255503999996,336.1303481,336.1459541999998,336.9425544999999,,,,,336.9427483999998,336.95768299999963,337.1580144999998,337.1419456999997,336.1459541999998,,,,,,,,1,1,0.786390400000073,None,,,,,,,,864,23,M,R,2026-02-18_11h59.20.857,VisualSearch_2526_3,,2025.2.4,2026-02-18 11h59.21.082975 +0100,
tilted.xlsx,The target is tilted.,117,91,3,11,0,1,1,1,0,0,0,0,0,0,0,0,1,3,4,117,space,9.940206599999783,None,0,1,0.9656087999996998,None,space,2.6123113000003286,None,0,0,0,0,,,,,11,3,91,6,337.1580144999998,,,,,,,,,,,,,,,,,,,,,337.14267819999986,337.1580144999998,337.64145419999977,337.64625469999964,337.6611954,338.64150519999976,,,,,338.64169539999966,338.6572283999999,338.8572998999998,338.84127769999986,337.6611954,,,,,,,,0,1,0.9656087999996998,None,,,,,,,,864,23,M,R,2026-02-18_11h59.20.857,VisualSearch_2526_3,,2025.2.4,2026-02-18 11h59.21.082975 +0100,
tilted.xlsx,The target is tilted.,117,92,4,11,1,1,1,1,0,0,0,0,0,0,0,0,0,3,4,117,space,9.940206599999783,None,0,0,1.6494379000000663,None,space,2.6123113000003286,None,0,0,0,0,,,,,11,4,92,2,338.8572998999998,,,,,,,,,,,,,,,,,,,,,338.84213139999974,338.8572998999998,339.3405002999998,339.34527709999975,339.35910699999977,341.02346239999997,,,,,341.0236433,341.0390556999996,341.23945879999974,341.22341849999975,339.35910699999977,,,,,,,,0,0,1.6494379000000663,None,,,,,,,,864,23,M,R,2026-02-18_11h59.20.857,VisualSearch_2526_3,,2025.2.4,2026-02-18 11h59.21.082975 +0100,
tilted.xlsx,The target is tilted.,117,93,5,11,1,0,0,0,0,0,0,0,0,0,0,0,0,0,1,117,space,9.940206599999783,None,0,0,0.657683200000065,None,space,2.6123113000003286,None,0,0,0,0,,,,,11,5,93,3,341.23945879999974,,,,,,,,,,,,,,,,,,,,,341.2243146999999,341.23945879999974,341.7232850999999,341.7280039999996,341.7426765,342.40669339999977,,,,,342.4068903999996,342.4217400999996,342.6217442999996,342.6058879999996,341.7426765,,,,,,,,0,0,0.657683200000065,None,,,,,,,,864,23,M,R,2026-02-18_11h59.20.857,VisualSearch_2526_3,,2025.2.4,2026-02-18 11h59.21.082975 +0100,
tilted.xlsx,The target is tilted.,117,94,6,11,0,1,1,1,1,1,1,1,1,1,1,1,1,11,12,117,space,9.940206599999783,None,1,0,1.1989682999997058,None,space,2.6123113000003286,None,0,0,0,0,,,,,11,6,94,4,342.6217442999996,,,,,,,,,,,,,,,,,,,,,342.60698569999977,342.6217442999996,343.1057458999999,343.1105539,343.1262747999999,344.33896689999983,,,,,344.3391445999996,344.35418759999993,344.5545530999998,344.5384592999999,343.1262747999999,,,,,,,,1,0,1.1989682999997058,None,,,,,,,,864,23,M,R,2026-02-18_11h59.20.857,VisualSearch_2526_3,,2025.2.4,2026-02-18 11h59.21.082975 +0100,
tilted.xlsx,The target is tilted.,117,95,7,11,0,1,1,1,1,1,1,1,0,0,0,0,1,7,8,117,space,9.940206599999783,None,1,0,1.1964571999997133,None,space,2.6123113000003286,None,0,0,0,0,,,,,11,7,95,5,344.5545530999998,,,,,,,,,,,,,,,,,,,,,344.5392072999998,344.5545530999998,345.03830919999973,345.0431609999996,345.05896299999995,346.2716327999997,,,,,346.2718310999999,346.2870785,346.48711749999984,346.4706292999999,345.05896299999995,,,,,,,,1,0,1.1964571999997133,None,,,,,,,,864,23,M,R,2026-02-18_11h59.20.857,VisualSearch_2526_3,,2025.2.4,2026-02-18 11h59.21.082975 +0100,
tilted.xlsx,The target is tilted.,117,96,0,12,0,0,0,0,0,0,0,0,0,0,0,0,1,1,1,117,space,9.940206599999783,None,1,0,0.922126400000252,None,space,2.6123113000003286,None,0,0,0,0,,,,,12,0,96,7,346.48711749999984,,,,,,,,,,,,,,,,,,,,,346.47137269999985,346.48711749999984,346.9707661999996,346.9755035999997,346.98922939999966,347.9201498999996,,,,,347.92024219999985,347.9357891999998,348.1362866999998,348.12010109999983,346.98922939999966,,,,,,,,1,0,0.922126400000252,None,,,,,,,,864,23,M,R,2026-02-18_11h59.20.857,VisualSearch_2526_3,,2025.2.4,2026-02-18 11h59.21.082975 +0100,
tilted.xlsx,The target is tilted.,117,97,1,12,1,0,0,0,0,0,0,0,0,0,0,0,0,0,1,117,space,9.940206599999783,None,0,0,0.6546135999997205,None,space,2.6123113000003286,None,0,0,0,0,,,,,12,1,97,3,348.1362866999998,,,,,,,,,,,,,,,,,,,,,348.1208856999997,348.1362866999998,348.6200601999999,348.62480400000004,348.6395470999996,349.30368009999984,,,,,349.3038830999999,349.31874849999986,349.5187761999996,349.50294959999974,348.6395470999996,,,,,,,,0,0,0.6546135999997205,None,,,,,,,,864,23,M,R,2026-02-18_11h59.20.857,VisualSearch_2526_3,,2025.2.4,2026-02-18 11h59.21.082975 +0100,
tilted.xlsx,The target is tilted.,117,98,2,12,1,1,1,1,0,0,0,0,0,0,0,0,0,3,4,117,space,9.940206599999783,None,1,1,1.4349633000001631,None,space,2.6123113000003286,None,0,0,0,0,,,,,12,2,98,2,349.5187761999996,,,,,,,,,,,,,,,,,,,,,349.5036872999999,349.5187761999996,350.0027814,350.00745849999976,350.02291799999966,351.4693084999999,,,,,351.46951390000004,351.48473799999965,351.68451079999977,351.66832049999994,350.02291799999966,,,,,,,,1,1,1.4349633000001631,None,,,,,,,,864,23,M,R,2026-02-18_11h59.20.857,VisualSearch_2526_3,,2025.2.4,2026-02-18 11h59.21.082975 +0100,
tilted.xlsx,The target is tilted.,117,99,3,12,0,1,1,1,1,1,1,1,1,1,1,1,1,11,12,117,space,9.940206599999783,None,1,0,1.895869699999821,None,space,2.6123113000003286,None,0,0,0,0,,,,,12,3,99,4,351.68451079999977,,,,,,,,,,,,,,,,,,,,,351.66896689999976,351.68451079999977,352.16833819999965,352.1731582999996,352.1889020999997,354.1007529999997,,,,,354.1008852,354.1166919999996,354.3165365,354.30083579999973,352.1889020999997,,,,,,,,1,0,1.895869699999821,None,,,,,,,,864,23,M,R,2026-02-18_11h59.20.857,VisualSearch_2526_3,,2025.2.4,2026-02-18 11h59.21.082975 +0100,
tilted.xlsx,The target is tilted.,117,100,4,12,0,1,1,1,0,0,0,0,0,0,0,0,1,3,4,117,space,9.940206599999783,None,1,0,1.0368169999997008,None,space,2.6123113000003286,None,0,0,0,0,,,,,12,4,100,6,354.3165365,,,,,,,,,,,,,,,,,,,,,354.3016091999998,354.3165365,354.80048499999975,354.80523859999994,354.8214702999999,355.8669109999996,,,,,355.8671382999996,355.8825096999999,356.08270919999995,356.0667991999999,354.8214702999999,,,,,,,,1,0,1.0368169999997008,None,,,,,,,,864,23,M,R,2026-02-18_11h59.20.857,VisualSearch_2526_3,,2025.2.4,2026-02-18 11h59.21.082975 +0100,
tilted.xlsx,The target is tilted.,117,101,5,12,0,1,1,1,1,1,1,1,0,0,0,0,1,7,8,117,space,9.940206599999783,None,1,0,3.519250999999713,None,space,2.6123113000003286,None,0,0,0,0,,,,,12,5,101,5,356.08270919999995,,,,,,,,,,,,,,,,,,,,,356.06756459999997,356.08270919999995,356.5663534999999,356.57111529999975,356.5855452999999,360.1145481999997,,,,,360.1146904999996,360.13076309999997,360.3308923999998,360.3144180999998,356.5855452999999,,,,,,,,1,0,3.519250999999713,None,,,,,,,,864,23,M,R,2026-02-18_11h59.20.857,VisualSearch_2526_3,,2025.2.4,2026-02-18 11h59.21.082975 +0100,
tilted.xlsx,The target is tilted.,117,102,6,12,1,1,1,1,1,1,1,1,0,0,0,0,0,7,8,117,space,9.940206599999783,None,1,1,6.483900300000187,None,space,2.6123113000003286,None,0,0,0,0,,,,,12,6,102,1,360.3308923999998,,,,,,,,,,,,,,,,,,,,,360.31517259999964,360.3308923999998,360.8140433999997,360.8188369999998,360.8342107999997,367.3287204999997,,,,,367.3289195999996,367.34388089999993,367.5439626999996,367.52798259999963,360.8342107999997,,,,,,,,1,1,6.483900300000187,None,,,,,,,,864,23,M,R,2026-02-18_11h59.20.857,VisualSearch_2526_3,,2025.2.4,2026-02-18 11h59.21.082975 +0100,
tilted.xlsx,The target is tilted.,117,103,7,12,1,1,1,1,1,1,1,1,1,1,1,1,0,11,12,117,space,9.940206599999783,None,1,1,1.8746281000003364,None,space,2.6123113000003286,None,0,0,0,0,,,,,12,7,103,0,367.5439626999996,,,,,,,,,,,,,,,,,,,,,367.52879759999996,367.5439626999996,368.0277996,368.0325647999998,368.0471561999998,369.9274941999997,,,,,369.92776319999984,369.9429842999998,370.14302299999963,370.1268422999997,368.0471561999998,,,,,,,,1,1,1.8746281000003364,None,,,,,,,,864,23,M,R,2026-02-18_11h59.20.857,VisualSearch_2526_3,,2025.2.4,2026-02-18 11h59.21.082975 +0100,
tilted.xlsx,The target is tilted.,117,104,0,13,1,1,1,1,1,1,1,1,1,1,1,1,0,11,12,117,space,9.940206599999783,None,1,1,1.1363736000002973,None,space,2.6123113000003286,None,0,0,0,0,,,,,13,0,104,0,370.14302299999963,,,,,,,,,,,,,,,,,,,,,370.1276023999999,370.14302299999963,370.6265077999997,370.63140350000003,370.6466773999996,371.7935051999998,,,,,371.7937179999999,371.8085401999997,372.0088189999997,371.9922683,370.6466773999996,,,,,,,,1,1,1.1363736000002973,None,,,,,,,,864,23,M,R,2026-02-18_11h59.20.857,VisualSearch_2526_3,,2025.2.4,2026-02-18 11h59.21.082975 +0100,
tilted.xlsx,The target is tilted.,117,105,1,13,1,1,1,1,0,0,0,0,0,0,0,0,0,3,4,117,space,9.940206599999783,None,0,0,1.3092180000003282,None,space,2.6123113000003286,None,0,0,0,0,,,,,13,1,105,2,372.0088189999997,,,,,,,,,,,,,,,,,,,,,371.99300449999964,372.0088189999997,372.49247319999995,372.49724709999964,372.5130101,373.8250724999998,,,,,373.82522219999964,373.84126709999964,374.04095389999975,374.02467099999967,372.5130101,,,,,,,,0,0,1.3092180000003282,None,,,,,,,,864,23,M,R,2026-02-18_11h59.20.857,VisualSearch_2526_3,,2025.2.4,2026-02-18 11h59.21.082975 +0100,
tilted.xlsx,The target is tilted.,117,106,2,13,0,0,0,0,0,0,0,0,0,0,0,0,1,1,1,117,space,9.940206599999783,None,1,0,0.6266413000003013,None,space,2.6123113000003286,None,0,0,0,0,,,,,13,2,106,7,374.04095389999975,,,,,,,,,,,,,,,,,,,,,374.02540709999994,374.04095389999975,374.52438589999974,374.52909249999993,374.54379819999986,375.1748158999999,,,,,375.1750511,375.19064019999996,375.3906308999999,375.37437999999975,374.54379819999986,,,,,,,,1,0,0.6266413000003013,None,,,,,,,,864,23,M,R,2026-02-18_11h59.20.857,VisualSearch_2526_3,,2025.2.4,2026-02-18 11h59.21.082975 +0100,
tilted.xlsx,The target is tilted.,117,107,3,13,1,0,0,0,0,0,0,0,0,0,0,0,0,0,1,117,space,9.940206599999783,None,0,0,0.5830270000001292,None,space,2.6123113000003286,None,0,0,0,0,,,,,13,3,107,3,375.3906308999999,,,,,,,,,,,,,,,,,,,,,375.37517389999994,375.3906308999999,375.87439159999985,375.8791603999998,375.89438789999986,376.49071349999986,,,,,376.49088889999985,376.5066655999999,376.7066992,376.6899991,375.89438789999986,,,,,,,,0,0,0.5830270000001292,None,,,,,,,,864,23,M,R,2026-02-18_11h59.20.857,VisualSearch_2526_3,,2025.2.4,2026-02-18 11h59.21.082975 +0100,
tilted.xlsx,The target is tilted.,117,108,4,13,0,1,1,1,1,1,1,1,0,0,0,0,1,7,8,117,space,9.940206599999783,None,1,0,0.6162497999998777,None,space,2.6123113000003286,None,0,0,0,0,,,,,13,4,108,5,376.7066992,,,,,,,,,,,,,,,,,,,,,376.6906554999996,376.7066992,377.1903057999998,377.1951156,377.20989089999966,377.8404593999999,,,,,377.84063960000003,377.85611219999964,378.05602339999996,378.0398587999998,377.20989089999966,,,,,,,,1,0,0.6162497999998777,None,,,,,,,,864,23,M,R,2026-02-18_11h59.20.857,VisualSearch_2526_3,,2025.2.4,2026-02-18 11h59.21.082975 +0100,
tilted.xlsx,The target is tilted.,117,109,5,13,0,1,1,1,1,1,1,1,1,1,1,1,1,11,12,117,space,9.940206599999783,None,1,0,1.976165999999921,None,space,2.6123113000003286,None,0,0,0,0,,,,,13,5,109,4,378.05602339999996,,,,,,,,,,,,,,,,,,,,,378.040653,378.05602339999996,378.5397721999998,378.5446641999997,378.5596016999998,380.53904969999985,,,,,380.5392434999999,380.5548197999997,380.7544764999998,380.73878379999996,378.5596016999998,,,,,,,,1,0,1.976165999999921,None,,,,,,,,864,23,M,R,2026-02-18_11h59.20.857,VisualSearch_2526_3,,2025.2.4,2026-02-18 11h59.21.082975 +0100,
tilted.xlsx,The target is tilted.,117,110,6,13,1,1,1,1,1,1,1,1,0,0,0,0,0,7,8,117,space,9.940206599999783,None,1,1,1.5458419999999933,None,space,2.6123113000003286,None,0,0,0,0,,,,,13,6,110,1,380.7544764999998,,,,,,,,,,,,,,,,,,,,,380.7395902999997,380.7544764999998,381.2384708999998,381.2432624999997,381.2622656999997,382.8215270999999,,,,,382.8217047999997,382.83717939999997,383.0372026,383.0212282999996,381.2622656999997,,,,,,,,1,1,1.5458419999999933,None,,,,,,,,864,23,M,R,2026-02-18_11h59.20.857,VisualSearch_2526_3,,2025.2.4,2026-02-18 11h59.21.082975 +0100,
tilted.xlsx,The target is tilted.,117,111,7,13,0,1,1,1,0,0,0,0,0,0,0,0,1,3,4,117,space,9.940206599999783,None,0,1,2.603896999999961,None,space,2.6123113000003286,None,0,0,0,0,,,,,13,7,111,6,383.0372026,,,,,,,,,,,,,,,,,,,,,383.0221284999998,383.0372026,383.52062499999965,383.52550519999977,383.54220039999973,386.1534641999997,,,,,386.1536643999998,386.1686741999997,386.3688509999997,386.3524717999999,383.54220039999973,,,,,,,,0,1,2.603896999999961,None,,,,,,,,864,23,M,R,2026-02-18_11h59.20.857,VisualSearch_2526_3,,2025.2.4,2026-02-18 11h59.21.082975 +0100,
tilted.xlsx,The target is tilted.,117,112,0,14,1,0,0,0,0,0,0,0,0,0,0,0,0,0,1,117,space,9.940206599999783,None,0,0,1.1009107999998378,None,space,2.6123113000003286,None,0,0,0,0,,,,,14,0,112,3,386.3688509999997,,,,,,,,,,,,,,,,,,,,,386.3532342999997,386.3688509999997,386.8532839999998,386.8582151999999,386.8704971999996,387.98573769999985,,,,,387.9859161999998,388.0015601,388.2014992999998,388.1852606999996,386.8704971999996,,,,,,,,0,0,1.1009107999998378,None,,,,,,,,864,23,M,R,2026-02-18_11h59.20.857,VisualSearch_2526_3,,2025.2.4,2026-02-18 11h59.21.082975 +0100,
tilted.xlsx,The target is tilted.,117,113,1,14,0,1,1,1,0,0,0,0,0,0,0,0,1,3,4,117,space,9.940206599999783,None,0,1,0.7298642000000655,None,space,2.6123113000003286,None,0,0,0,0,,,,,14,1,113,6,388.2014992999998,,,,,,,,,,,,,,,,,,,,,388.18605019999995,388.2014992999998,388.68488439999965,388.68945429999985,388.701102,389.4347362999997,,,,,389.434933,389.4508897999999,389.6506836999997,389.63429339999993,388.701102,,,,,,,,0,1,0.7298642000000655,None,,,,,,,,864,23,M,R,2026-02-18_11h59.20.857,VisualSearch_2526_3,,2025.2.4,2026-02-18 11h59.21.082975 +0100,
tilted.xlsx,The target is tilted.,117,114,2,14,0,1,1,1,1,1,1,1,0,0,0,0,1,7,8,117,space,9.940206599999783,None,1,0,2.699621300000217,None,space,2.6123113000003286,None,0,0,0,0,,,,,14,2,114,5,389.6506836999997,,,,,,,,,,,,,,,,,,,,,389.6350782999998,389.6506836999997,390.1343904999999,390.1394701999998,390.1520492999998,392.8668429999998,,,,,392.86701989999983,392.8825612999999,393.08263099999976,393.0664119999997,390.1520492999998,,,,,,,,1,0,2.699621300000217,None,,,,,,,,864,23,M,R,2026-02-18_11h59.20.857,VisualSearch_2526_3,,2025.2.4,2026-02-18 11h59.21.082975 +0100,
tilted.xlsx,The target is tilted.,117,115,3,14,1,1,1,1,1,1,1,1,0,0,0,0,0,7,8,117,space,9.940206599999783,None,1,1,1.2091395000002194,None,space,2.6123113000003286,None,0,0,0,0,,,,,14,3,115,1,393.08263099999976,,,,,,,,,,,,,,,,,,,,,393.0672185999997,393.08263099999976,393.5660538999996,393.5708805999998,393.5849911,394.79862749999984,,,,,394.79875489999995,394.81506169999966,395.01498839999977,394.9989264999999,393.5849911,,,,,,,,1,1,1.2091395000002194,None,,,,,,,,864,23,M,R,2026-02-18_11h59.20.857,VisualSearch_2526_3,,2025.2.4,2026-02-18 11h59.21.082975 +0100,
tilted.xlsx,The target is tilted.,117,116,4,14,0,1,1,1,1,1,1,1,1,1,1,1,1,11,12,117,space,9.940206599999783,None,1,0,3.701351700000032,None,space,2.6123113000003286,None,0,0,0,0,,,,,14,4,116,4,395.01498839999977,,,,,,,,,,,,,,,,,,,,,394.99971529999993,395.01498839999977,395.4986752,395.5034859999996,395.5171475999996,399.2309100999996,,,,,399.2311089,399.2461854999997,399.44609089999994,399.430347,395.5171475999996,,,,,,,,1,0,3.701351700000032,None,,,,,,,,864,23,M,R,2026-02-18_11h59.20.857,VisualSearch_2526_3,,2025.2.4,2026-02-18 11h59.21.082975 +0100,
tilted.xlsx,The target is tilted.,117,117,5,14,0,0,0,0,0,0,0,0,0,0,0,0,1,1,1,117,space,9.940206599999783,None,1,0,0.5169458999998824,None,space,2.6123113000003286,None,0,0,0,0,,,,,14,5,117,7,399.44609089999994,,,,,,,,,,,,,,,,,,,,,399.43113089999997,399.44609089999994,399.93014949999997,399.93507109999973,399.95001709999997,400.47999649999974,,,,,400.48013489999994,400.49585439999964,400.69585359999974,400.6797323999999,399.95001709999997,,,,,,,,1,0,0.5169458999998824,None,,,,,,,,864,23,M,R,2026-02-18_11h59.20.857,VisualSearch_2526_3,,2025.2.4,2026-02-18 11h59.21.082975 +0100,
tilted.xlsx,The target is tilted.,117,118,6,14,1,1,1,1,0,0,0,0,0,0,0,0,0,3,4,117,space,9.940206599999783,None,0,0,1.8425821999994696,None,space,2.6123113000003286,None,0,0,0,0,,,,,14,6,118,2,400.69585359999974,,,,,,,,,,,,,,,,,,,,,400.6804404999998,400.69585359999974,401.1794708999996,401.1842545999998,401.19937549999986,403.0454708000002,,,,,403.0456518999995,403.06098280000015,403.26133660000005,403.2450346999999,401.19937549999986,,,,,,,,0,0,1.8425821999994696,None,,,,,,,,864,23,M,R,2026-02-18_11h59.20.857,VisualSearch_2526_3,,2025.2.4,2026-02-18 11h59.21.082975 +0100,
tilted.xlsx,The target is tilted.,117,119,7,14,1,1,1,1,1,1,1,1,1,1,1,1,0,11,12,117,space,9.940206599999783,None,1,1,2.539959799999451,None,space,2.6123113000003286,None,0,0,0,0,,,,,14,7,119,0,403.26133660000005,,,,,,,,,,,,,,,,,,,,,403.24577850000014,403.26133660000005,403.7446077999998,403.7494219999994,403.7624549999996,406.3105309999996,,,,,406.3107108999998,406.32658949999995,406.53777349999973,406.5100802000002,403.7624549999996,,,,,,,,1,1,2.539959799999451,None,,,,,,,,864,23,M,R,2026-02-18_11h59.20.857,VisualSearch_2526_3,,2025.2.4,2026-02-18 11h59.21.082975 +0100,
tilted.xlsx,The target is tilted.,117,0,0,0,,,,,,,,,,,,,,,,,space,9.940206599999783,None,,,,,space,2.6123113000003286,None,0,0,0,0,,,,,,,,,,,,,,,,,,,,,,,,,,,,,,,,,,,,,,,,,,,,,,,,,,,,,,,,,,,,,,,864,23,M,R,2026-02-18_11h59.20.857,VisualSearch_2526_3,,2025.2.4,2026-02-18 11h59.21.082975 +0100,
vertical.xlsx,The target is tilted.,135,0,0,0,0,1,1,1,1,1,1,1,1,1,1,1,1,11,12,135,space,25.423966099999234,None,0,1,2.3591803999997865,None,,,,0,1,1,1,0,0,0,4,,,,,431.9911207,,,,,,,,,,,,,,,406.53777349999973,406.53777349999973,406.53777349999973,space,25.423966099999234,None,431.98714340000015,431.9911207,432.4812645999996,432.48619009999993,432.5004014000001,434.86369049999985,0,1,2.3591803999997865,None,434.86377369999946,434.8795175999999,,435.0639624999999,,,,,,,,,,,,,,,,,,,,864,23,M,R,2026-02-18_11h59.20.857,VisualSearch_2526_3,,2025.2.4,2026-02-18 11h59.21.082975 +0100,
vertical.xlsx,The target is tilted.,135,1,1,0,1,1,1,1,0,0,0,0,0,0,0,0,0,3,4,135,space,25.423966099999234,None,1,1,1.0780544000008376,None,,,,0,1,1,1,0,1,1,2,,,,,435.0802270999998,,,,,,,,,,,,,,,,,,,,,435.0647487000001,435.0802270999998,435.56347739999956,435.5682192999998,435.58319619999975,436.66359220000004,1,1,1.0780544000008376,None,436.66372439999986,436.6793869999997,436.8793518999996,436.86290959999997,435.58319619999975,,,,,,,,,,,,,,,,,,,864,23,M,R,2026-02-18_11h59.20.857,VisualSearch_2526_3,,2025.2.4,2026-02-18 11h59.21.082975 +0100,
vertical.xlsx,The target is tilted.,135,2,2,0,0,1,1,1,1,1,1,1,0,0,0,0,1,7,8,135,space,25.423966099999234,None,0,1,1.191381999999976,None,,,,0,1,1,1,0,2,2,5,,,,,436.8793518999996,,,,,,,,,,,,,,,,,,,,,436.8636531999996,436.8793518999996,437.3628741999996,437.36768619999975,437.3831478999996,438.5796317999998,0,1,1.191381999999976,None,438.5798338999998,438.59519469999987,438.7951471000001,438.77906589999975,437.3831478999996,,,,,,,,,,,,,,,,,,,864,23,M,R,2026-02-18_11h59.20.857,VisualSearch_2526_3,,2025.2.4,2026-02-18 11h59.21.082975 +0100,
vertical.xlsx,The target is tilted.,135,3,3,0,0,0,0,0,0,0,0,0,0,0,0,0,1,1,1,135,space,25.423966099999234,None,0,1,0.7148143000003984,None,,,,0,1,1,1,0,3,3,7,,,,,438.7951471000001,,,,,,,,,,,,,,,,,,,,,438.7797405999995,438.7951471000001,439.27849319999996,439.28327089999993,439.2989800999999,440.0289044999995,0,1,0.7148143000003984,None,440.0290758999995,440.0444464999996,440.2442221999995,440.22842589999937,439.2989800999999,,,,,,,,,,,,,,,,,,,864,23,M,R,2026-02-18_11h59.20.857,VisualSearch_2526_3,,2025.2.4,2026-02-18 11h59.21.082975 +0100,
vertical.xlsx,The target is tilted.,135,4,4,0,1,0,0,0,0,0,0,0,0,0,0,0,0,0,1,135,space,25.423966099999234,None,1,1,0.5526024999999208,None,,,,0,1,1,1,0,4,4,3,,,,,440.2442221999995,,,,,,,,,,,,,,,,,,,,,440.2291442999999,440.2442221999995,440.72762379999995,440.7318647999996,440.74627180000016,441.3115702,1,1,0.5526024999999208,None,441.31170340000017,441.32696629999964,441.5272420999995,441.5113107000002,440.74627180000016,,,,,,,,,,,,,,,,,,,864,23,M,R,2026-02-18_11h59.20.857,VisualSearch_2526_3,,2025.2.4,2026-02-18 11h59.21.082975 +0100,
vertical.xlsx,The target is tilted.,135,5,5,0,1,1,1,1,1,1,1,1,1,1,1,1,0,11,12,135,space,25.423966099999234,None,0,0,1.5898348999999143,None,,,,0,1,1,1,0,5,5,0,,,,,441.5272420999995,,,,,,,,,,,,,,,,,,,,,441.5120469999997,441.5272420999995,442.0109404,442.0157607999995,442.03149579999945,443.62703479999936,0,0,1.5898348999999143,None,443.6272223000001,443.6430009999999,443.84293260000004,443.8267867999998,442.03149579999945,,,,,,,,,,,,,,,,,,,864,23,M,R,2026-02-18_11h59.20.857,VisualSearch_2526_3,,2025.2.4,2026-02-18 11h59.21.082975 +0100,
vertical.xlsx,The target is tilted.,135,6,6,0,1,1,1,1,1,1,1,1,0,0,0,0,0,7,8,135,space,25.423966099999234,None,1,1,1.5655360999999175,None,,,,0,1,1,1,0,6,6,1,,,,,443.84293260000004,,,,,,,,,,,,,,,,,,,,,443.8275072000001,443.84293260000004,444.3265516999995,444.33135749999974,444.3457008999999,445.92590619999964,1,1,1.5655360999999175,None,445.9260567999995,445.9418781999998,446.14193000000023,446.1257392000002,444.3457008999999,,,,,,,,,,,,,,,,,,,864,23,M,R,2026-02-18_11h59.20.857,VisualSearch_2526_3,,2025.2.4,2026-02-18 11h59.21.082975 +0100,
vertical.xlsx,The target is tilted.,135,7,7,0,0,1,1,1,0,0,0,0,0,0,0,0,1,3,4,135,space,25.423966099999234,None,0,1,0.8721627000004446,None,,,,0,1,1,1,0,7,7,6,,,,,446.14193000000023,,,,,,,,,,,,,,,,,,,,,446.1264040000001,446.14193000000023,446.6253663000002,446.62957940000024,446.64432050000005,447.5252403999998,0,1,0.8721627000004446,None,447.5253947999995,447.5411345999996,447.74108639999986,447.72442809999984,446.64432050000005,,,,,,,,,,,,,,,,,,,864,23,M,R,2026-02-18_11h59.20.857,VisualSearch_2526_3,,2025.2.4,2026-02-18 11h59.21.082975 +0100,
vertical.xlsx,The target is tilted.,135,0,0,0,0,1,1,1,0,0,0,0,0,0,0,0,1,3,4,135,space,25.423966099999234,None,0,1,3.32752150000033,None,space,20.70650519999981,None,0,1,1,1,,,,,0,0,0,6,468.47608139999966,,,,,,,,,,,,,,,,,,,,,468.4722655999999,468.47608139999966,468.9650005999997,468.9697519999995,468.9865912999999,472.3311692000002,,,,,472.3314094000002,472.3465519999995,472.5464999000001,472.5303137999995,,447.73201240000026,447.74108639999986,447.74108639999986,468.4493626999997,space,20.70650519999981,None,0,1,3.32752150000033,None,,,,,,,,864,23,M,R,2026-02-18_11h59.20.857,VisualSearch_2526_3,,2025.2.4,2026-02-18 11h59.21.082975 +0100,
vertical.xlsx,The target is tilted.,135,1,1,0,1,0,0,0,0,0,0,0,0,0,0,0,0,0,1,135,space,25.423966099999234,None,1,1,0.6384847999997874,None,space,20.70650519999981,None,0,1,1,1,,,,,0,1,1,3,472.5464999000001,,,,,,,,,,,,,,,,,,,,,472.53109189999986,472.5464999000001,473.03020199999946,473.03495259999954,473.04982509999945,473.6967872,,,,,473.6969849000002,473.71263229999977,473.9126905999997,473.8961685999998,473.04982509999945,,,,,,,,1,1,0.6384847999997874,None,,,,,,,,864,23,M,R,2026-02-18_11h59.20.857,VisualSearch_2526_3,,2025.2.4,2026-02-18 11h59.21.082975 +0100,
vertical.xlsx,The target is tilted.,135,2,2,0,0,1,1,1,1,1,1,1,1,1,1,1,1,11,12,135,space,25.423966099999234,None,0,1,2.6686980999993466,None,space,20.70650519999981,None,0,1,1,1,,,,,0,2,2,4,473.9126905999997,,,,,,,,,,,,,,,,,,,,,473.8968872999999,473.9126905999997,474.39580689999957,474.40027150000014,474.4122962999995,477.0947962999994,,,,,477.0949921999995,477.11101029999963,477.3109933999999,477.2945506000001,474.4122962999995,,,,,,,,0,1,2.6686980999993466,None,,,,,,,,864,23,M,R,2026-02-18_11h59.20.857,VisualSearch_2526_3,,2025.2.4,2026-02-18 11h59.21.082975 +0100,
vertical.xlsx,The target is tilted.,135,3,3,0,0,1,1,1,1,1,1,1,0,0,0,0,1,7,8,135,space,25.423966099999234,None,0,1,2.2305835999995907,None,space,20.70650519999981,None,0,1,1,1,,,,,0,3,3,5,477.3109933999999,,,,,,,,,,,,,,,,,,,,,477.2953161999999,477.3109933999999,477.79433759999984,477.79907890000004,477.8131662999999,480.0601247999998,,,,,480.0602275999995,480.07624970000006,480.2763242999995,480.2597836,477.8131662999999,,,,,,,,0,1,2.2305835999995907,None,,,,,,,,864,23,M,R,2026-02-18_11h59.20.857,VisualSearch_2526_3,,2025.2.4,2026-02-18 11h59.21.082975 +0100,
vertical.xlsx,The target is tilted.,135,4,4,0,1,1,1,1,1,1,1,1,0,0,0,0,0,7,8,135,space,25.423966099999234,None,1,1,0.8856317999998282,None,space,20.70650519999981,None,0,1,1,1,,,,,0,4,4,1,480.2763242999995,,,,,,,,,,,,,,,,,,,,,480.26084859999946,480.2763242999995,480.7599811999994,480.76473119999946,480.77902270000004,481.6768086999996,,,,,481.67700529999956,481.6920295999994,481.89201360000015,481.8759047999997,480.77902270000004,,,,,,,,1,1,0.8856317999998282,None,,,,,,,,864,23,M,R,2026-02-18_11h59.20.857,VisualSearch_2526_3,,2025.2.4,2026-02-18 11h59.21.082975 +0100,
vertical.xlsx,The target is tilted.,135,5,5,0,1,1,1,1,0,0,0,0,0,0,0,0,0,3,4,135,space,25.423966099999234,None,1,1,1.0941659000000072,None,space,20.70650519999981,None,0,1,1,1,,,,,0,5,5,2,481.89201360000015,,,,,,,,,,,,,,,,,,,,,481.8767001000001,481.89201360000015,482.3755636000001,482.38034800000014,482.3954265999996,483.49282859999994,,,,,483.49303719999943,483.5082588999999,483.7081581999996,483.6920341,482.3954265999996,,,,,,,,1,1,1.0941659000000072,None,,,,,,,,864,23,M,R,2026-02-18_11h59.20.857,VisualSearch_2526_3,,2025.2.4,2026-02-18 11h59.21.082975 +0100,
vertical.xlsx,The target is tilted.,135,6,6,0,1,1,1,1,1,1,1,1,1,1,1,1,0,11,12,135,space,25.423966099999234,None,1,1,1.8644783999998253,None,space,20.70650519999981,None,0,1,1,1,,,,,0,6,6,0,483.7081581999996,,,,,,,,,,,,,,,,,,,,,483.6927633,483.7081581999996,484.19177309999986,484.19647209999994,484.2126966999999,486.0902884000002,,,,,486.09038420000024,486.1068660999995,,486.29061109999975,484.2126966999999,,,,,,,,1,1,1.8644783999998253,None,,,,,,,,864,23,M,R,2026-02-18_11h59.20.857,VisualSearch_2526_3,,2025.2.4,2026-02-18 11h59.21.082975 +0100,
vertical.xlsx,The target is tilted.,135,7,7,0,0,0,0,0,0,0,0,0,0,0,0,0,1,1,1,135,space,25.423966099999234,None,0,1,1.2775740999995833,None,space,20.70650519999981,None,0,1,1,1,,,,,0,7,7,7,486.3069780999999,,,,,,,,,,,,,,,,,,,,,486.2913999999996,486.3069780999999,486.7905538,486.7952787999998,486.8066236999998,488.09056480000027,,,,,488.0907992999996,488.1061672999999,488.30608340000026,488.2900109999996,486.8066236999998,,,,,,,,0,1,1.2775740999995833,None,,,,,,,,864,23,M,R,2026-02-18_11h59.20.857,VisualSearch_2526_3,,2025.2.4,2026-02-18 11h59.21.082975 +0100,
vertical.xlsx,The target is tilted.,135,8,0,1,1,0,0,0,0,0,0,0,0,0,0,0,0,0,1,135,space,25.423966099999234,None,1,1,0.6443508000002112,None,space,20.70650519999981,None,0,1,1,1,,,,,1,0,8,3,488.30608340000026,,,,,,,,,,,,,,,,,,,,,488.2907513999994,488.30608340000026,488.78972939999994,488.7946247999994,488.8070911,489.4555418999994,,,,,489.45564049999984,489.47203109999964,489.6721511999999,489.65585859999965,488.8070911,,,,,,,,1,1,0.6443508000002112,None,,,,,,,,864,23,M,R,2026-02-18_11h59.20.857,VisualSearch_2526_3,,2025.2.4,2026-02-18 11h59.21.082975 +0100,
vertical.xlsx,The target is tilted.,135,9,1,1,1,1,1,1,1,1,1,1,0,0,0,0,0,7,8,135,space,25.423966099999234,None,1,1,0.8491034999997282,None,space,20.70650519999981,None,0,1,1,1,,,,,1,1,9,1,489.6721511999999,,,,,,,,,,,,,,,,,,,,,489.6566200000002,489.6721511999999,490.15543279999974,490.1602106999994,490.1740122999995,491.03876309999987,,,,,491.03893709999966,491.0544256999997,491.2546319999997,491.2383917000002,490.1740122999995,,,,,,,,1,1,0.8491034999997282,None,,,,,,,,864,23,M,R,2026-02-18_11h59.20.857,VisualSearch_2526_3,,2025.2.4,2026-02-18 11h59.21.082975 +0100,
vertical.xlsx,The target is tilted.,135,10,2,1,0,1,1,1,1,1,1,1,1,1,1,1,1,11,12,135,space,25.423966099999234,None,0,1,2.9606620000004114,None,space,20.70650519999981,None,0,1,1,1,,,,,1,2,10,4,491.2546319999997,,,,,,,,,,,,,,,,,,,,,491.23914879999984,491.2546319999997,491.7383703999999,491.7431314999999,491.75835809999944,494.7205180999995,,,,,494.7206892999998,494.73604119999936,494.93625870000005,494.9198448000002,491.75835809999944,,,,,,,,0,1,2.9606620000004114,None,,,,,,,,864,23,M,R,2026-02-18_11h59.20.857,VisualSearch_2526_3,,2025.2.4,2026-02-18 11h59.21.082975 +0100,
vertical.xlsx,The target is tilted.,135,11,3,1,0,1,1,1,1,1,1,1,0,0,0,0,1,7,8,135,space,25.423966099999234,None,0,1,1.6096363999995447,None,space,20.70650519999981,None,0,1,1,1,,,,,1,3,11,5,494.93625870000005,,,,,,,,,,,,,,,,,,,,,494.92029499999944,494.93625870000005,495.4200125000002,495.42495029999964,495.43963289999965,497.0523994,,,,,497.05253309999944,497.06857759999957,497.26873680000017,497.25269009999965,495.43963289999965,,,,,,,,0,1,1.6096363999995447,None,,,,,,,,864,23,M,R,2026-02-18_11h59.20.857,VisualSearch_2526_3,,2025.2.4,2026-02-18 11h59.21.082975 +0100,
vertical.xlsx,The target is tilted.,135,12,4,1,0,1,1,1,0,0,0,0,0,0,0,0,1,3,4,135,space,25.423966099999234,None,0,1,1.2819971999997506,None,space,20.70650519999981,None,0,1,1,1,,,,,1,4,12,6,497.26873680000017,,,,,,,,,,,,,,,,,,,,,497.2535111000002,497.26873680000017,497.75198709999995,497.75678259999995,497.77202799999986,499.0686833999994,,,,,499.0688593,499.0841160999994,499.2840659999997,499.2683333,497.77202799999986,,,,,,,,0,1,1.2819971999997506,None,,,,,,,,864,23,M,R,2026-02-18_11h59.20.857,VisualSearch_2526_3,,2025.2.4,2026-02-18 11h59.21.082975 +0100,
vertical.xlsx,The target is tilted.,135,13,5,1,1,1,1,1,0,0,0,0,0,0,0,0,0,3,4,135,space,25.423966099999234,None,1,1,0.8232681999998022,None,space,20.70650519999981,None,0,1,1,1,,,,,1,5,13,2,499.2840659999997,,,,,,,,,,,,,,,,,,,,,499.26918689999957,499.2840659999997,499.7680405999995,499.772794,499.7884272999995,500.6182839999997,,,,,500.61847869999974,500.6336070000002,500.8332059999998,500.8174683000002,499.7884272999995,,,,,,,,1,1,0.8232681999998022,None,,,,,,,,864,23,M,R,2026-02-18_11h59.20.857,VisualSearch_2526_3,,2025.2.4,2026-02-18 11h59.21.082975 +0100,
vertical.xlsx,The target is tilted.,135,14,6,1,1,1,1,1,1,1,1,1,1,1,1,1,0,11,12,135,space,25.423966099999234,None,1,1,1.753569100000277,None,space,20.70650519999981,None,0,1,1,1,,,,,1,6,14,0,500.8332059999998,,,,,,,,,,,,,,,,,,,,,500.81825489999983,500.8332059999998,501.3173691999996,501.3221889000001,501.3384046999995,503.1011176999996,,,,,503.10130869999966,503.11582359999966,503.31590240000014,503.2998541000002,501.3384046999995,,,,,,,,1,1,1.753569100000277,None,,,,,,,,864,23,M,R,2026-02-18_11h59.20.857,VisualSearch_2526_3,,2025.2.4,2026-02-18 11h59.21.082975 +0100,
vertical.xlsx,The target is tilted.,135,15,7,1,0,0,0,0,0,0,0,0,0,0,0,0,1,1,1,135,space,25.423966099999234,None,0,1,0.6569335000003775,None,space,20.70650519999981,None,0,1,1,1,,,,,1,7,15,7,503.31590240000014,,,,,,,,,,,,,,,,,,,,,503.30058940000026,503.31590240000014,503.7996742,503.8044725999994,503.8197101999999,504.4823916,,,,,504.4824838999998,504.4984551000002,504.69858840000006,504.68270319999965,503.8197101999999,,,,,,,,0,1,0.6569335000003775,None,,,,,,,,864,23,M,R,2026-02-18_11h59.20.857,VisualSearch_2526_3,,2025.2.4,2026-02-18 11h59.21.082975 +0100,
vertical.xlsx,The target is tilted.,135,16,0,2,0,1,1,1,1,1,1,1,1,1,1,1,1,11,12,135,space,25.423966099999234,None,0,1,3.9686791000003723,None,space,20.70650519999981,None,0,1,1,1,,,,,2,0,16,4,504.69858840000006,,,,,,,,,,,,,,,,,,,,,504.6834368999994,504.69858840000006,505.1824133999994,505.18764090000013,505.20244499999944,509.18118860000004,,,,,509.18140189999986,509.1961556000001,509.3964866000001,509.38043960000005,505.20244499999944,,,,,,,,0,1,3.9686791000003723,None,,,,,,,,864,23,M,R,2026-02-18_11h59.20.857,VisualSearch_2526_3,,2025.2.4,2026-02-18 11h59.21.082975 +0100,
vertical.xlsx,The target is tilted.,135,17,1,2,0,1,1,1,0,0,0,0,0,0,0,0,1,3,4,135,space,25.423966099999234,None,0,1,1.036384199999702,None,space,20.70650519999981,None,0,1,1,1,,,,,2,1,17,6,509.3964866000001,,,,,,,,,,,,,,,,,,,,,509.38126820000025,509.3964866000001,509.88010600000007,509.88497940000025,509.8999090000002,510.9467639999998,,,,,510.94693849999976,510.9622852999996,511.1624584999995,511.1462130999994,509.8999090000002,,,,,,,,0,1,1.036384199999702,None,,,,,,,,864,23,M,R,2026-02-18_11h59.20.857,VisualSearch_2526_3,,2025.2.4,2026-02-18 11h59.21.082975 +0100,
vertical.xlsx,The target is tilted.,135,18,2,2,0,0,0,0,0,0,0,0,0,0,0,0,1,1,1,135,space,25.423966099999234,None,0,1,0.5683729000002131,None,space,20.70650519999981,None,0,1,1,1,,,,,2,2,18,7,511.1624584999995,,,,,,,,,,,,,,,,,,,,,511.14704049999955,511.1624584999995,511.64586370000006,511.65103299999964,511.6656028000002,512.2466615999997,,,,,512.2469551999998,512.2614113999994,512.4618547999994,512.4455840999995,511.6656028000002,,,,,,,,0,1,0.5683729000002131,None,,,,,,,,864,23,M,R,2026-02-18_11h59.20.857,VisualSearch_2526_3,,2025.2.4,2026-02-18 11h59.21.082975 +0100,
vertical.xlsx,The target is tilted.,135,19,3,2,1,1,1,1,1,1,1,1,1,1,1,1,0,11,12,135,space,25.423966099999234,None,1,1,1.5414531999995233,None,space,20.70650519999981,None,0,1,1,1,,,,,2,3,19,0,512.4618547999994,,,,,,,,,,,,,,,,,,,,,512.4463776999996,512.4618547999994,512.9452938,512.9500842000002,512.9649145999997,514.5115940999999,,,,,514.5117520999997,514.5273365999997,514.7272411999998,514.7108788,512.9649145999997,,,,,,,,1,1,1.5414531999995233,None,,,,,,,,864,23,M,R,2026-02-18_11h59.20.857,VisualSearch_2526_3,,2025.2.4,2026-02-18 11h59.21.082975 +0100,
vertical.xlsx,The target is tilted.,135,20,4,2,1,0,0,0,0,0,0,0,0,0,0,0,0,0,1,135,space,25.423966099999234,None,1,1,0.5400093999996898,None,space,20.70650519999981,None,0,1,1,1,,,,,2,4,20,3,514.7272411999998,,,,,,,,,,,,,,,,,,,,,514.7116202000002,514.7272411999998,515.2110710000002,515.2159158999998,515.2311321000002,515.7780971999996,,,,,515.7782683999999,515.7936432000001,515.9936358,515.9770234000002,515.2311321000002,,,,,,,,1,1,0.5400093999996898,None,,,,,,,,864,23,M,R,2026-02-18_11h59.20.857,VisualSearch_2526_3,,2025.2.4,2026-02-18 11h59.21.082975 +0100,
vertical.xlsx,The target is tilted.,135,21,5,2,1,1,1,1,1,1,1,1,0,0,0,0,0,7,8,135,space,25.423966099999234,None,1,1,0.7322804000004908,None,space,20.70650519999981,None,0,1,1,1,,,,,2,5,21,1,515.9936358,,,,,,,,,,,,,,,,,,,,,515.9777743,515.9936358,516.4768462999996,516.4816076000002,516.4967666999996,517.2438686,,,,,517.2440272999997,517.2595752000002,517.4595373999996,517.4433076999999,516.4967666999996,,,,,,,,1,1,0.7322804000004908,None,,,,,,,,864,23,M,R,2026-02-18_11h59.20.857,VisualSearch_2526_3,,2025.2.4,2026-02-18 11h59.21.082975 +0100,
vertical.xlsx,The target is tilted.,135,22,6,2,1,1,1,1,0,0,0,0,0,0,0,0,0,3,4,135,space,25.423966099999234,None,1,1,0.7121579999993628,None,space,20.70650519999981,None,0,1,1,1,,,,,2,6,22,2,517.4595373999996,,,,,,,,,,,,,,,,,,,,,517.4441627000001,517.4595373999996,517.9428691999997,517.9475751999994,517.9632037999995,518.6766532999995,,,,,518.6768565999996,518.6921413999994,518.8921872999995,518.8759944999997,517.9632037999995,,,,,,,,1,1,0.7121579999993628,None,,,,,,,,864,23,M,R,2026-02-18_11h59.20.857,VisualSearch_2526_3,,2025.2.4,2026-02-18 11h59.21.082975 +0100,
vertical.xlsx,The target is tilted.,135,23,7,2,0,1,1,1,1,1,1,1,0,0,0,0,1,7,8,135,space,25.423966099999234,None,0,1,1.4264462999999523,None,space,20.70650519999981,None,0,1,1,1,,,,,2,7,23,5,518.8921872999995,,,,,,,,,,,,,,,,,,,,,518.8767936999998,518.8921872999995,519.3758167999999,519.3804860999994,519.3950198999996,520.8253467999998,,,,,520.8255512000001,520.8412892000001,521.0413738000002,521.0250511999998,519.3950198999996,,,,,,,,0,1,1.4264462999999523,None,,,,,,,,864,23,M,R,2026-02-18_11h59.20.857,VisualSearch_2526_3,,2025.2.4,2026-02-18 11h59.21.082975 +0100,
vertical.xlsx,The target is tilted.,135,24,0,3,1,0,0,0,0,0,0,0,0,0,0,0,0,0,1,135,space,25.423966099999234,None,1,1,0.47786939999969036,None,space,20.70650519999981,None,0,1,1,1,,,,,3,0,24,3,521.0413738000002,,,,,,,,,,,,,,,,,,,,,521.0258098999998,521.0413738000002,521.5246594999994,521.5295135000001,521.5440309999999,522.0249571999998,,,,,522.0251499000001,522.0406367999999,522.2408025999998,522.2244982999996,521.5440309999999,,,,,,,,1,1,0.47786939999969036,None,,,,,,,,864,23,M,R,2026-02-18_11h59.20.857,VisualSearch_2526_3,,2025.2.4,2026-02-18 11h59.21.082975 +0100,
vertical.xlsx,The target is tilted.,135,25,1,3,0,0,0,0,0,0,0,0,0,0,0,0,1,1,1,135,space,25.423966099999234,None,0,1,0.8760763000000225,None,space,20.70650519999981,None,0,1,1,1,,,,,3,1,25,7,522.2408025999998,,,,,,,,,,,,,,,,,,,,,522.2252579000001,522.2408025999998,522.7244564999996,522.7292983000002,522.7453149999997,523.6246926999997,,,,,523.6249223,523.6396857999994,523.8398941999999,523.8237445,522.7453149999997,,,,,,,,0,1,0.8760763000000225,None,,,,,,,,864,23,M,R,2026-02-18_11h59.20.857,VisualSearch_2526_3,,2025.2.4,2026-02-18 11h59.21.082975 +0100,
vertical.xlsx,The target is tilted.,135,26,2,3,0,1,1,1,0,0,0,0,0,0,0,0,1,3,4,135,space,25.423966099999234,None,0,1,0.6772556999994777,None,space,20.70650519999981,None,0,1,1,1,,,,,3,2,26,6,523.8398941999999,,,,,,,,,,,,,,,,,,,,,523.8244903999998,523.8398941999999,524.3236862999997,524.3284294999999,524.3396429999998,525.0234379999997,,,,,525.0236277999998,525.0393812999996,525.2394021999994,525.2232574999994,524.3396429999998,,,,,,,,0,1,0.6772556999994777,None,,,,,,,,864,23,M,R,2026-02-18_11h59.20.857,VisualSearch_2526_3,,2025.2.4,2026-02-18 11h59.21.082975 +0100,
vertical.xlsx,The target is tilted.,135,27,3,3,1,1,1,1,1,1,1,1,1,1,1,1,0,11,12,135,space,25.423966099999234,None,1,1,2.789273200000025,None,space,20.70650519999981,None,0,1,1,1,,,,,3,3,27,0,525.2394021999994,,,,,,,,,,,,,,,,,,,,,525.2239901999997,525.2394021999994,525.7229768000002,525.7278154999999,525.7429502999998,528.5380233999999,,,,,528.5381010999995,528.5542432999996,528.7539536999998,528.7382419,525.7429502999998,,,,,,,,1,1,2.789273200000025,None,,,,,,,,864,23,M,R,2026-02-18_11h59.20.857,VisualSearch_2526_3,,2025.2.4,2026-02-18 11h59.21.082975 +0100,
vertical.xlsx,The target is tilted.,135,28,4,3,0,1,1,1,1,1,1,1,0,0,0,0,1,7,8,135,space,25.423966099999234,None,0,1,1.7610469999999623,None,space,20.70650519999981,None,0,1,1,1,,,,,3,4,28,5,528.7539536999998,,,,,,,,,,,,,,,,,,,,,528.7390077999994,528.7539536999998,529.2380548999995,529.2430602,529.2590066999996,531.037656,,,,,531.0378483999998,531.0531641000002,531.2532749999996,531.2371305000001,529.2590066999996,,,,,,,,0,1,1.7610469999999623,None,,,,,,,,864,23,M,R,2026-02-18_11h59.20.857,VisualSearch_2526_3,,2025.2.4,2026-02-18 11h59.21.082975 +0100,
vertical.xlsx,The target is tilted.,135,29,5,3,0,1,1,1,1,1,1,1,1,1,1,1,1,11,12,135,space,25.423966099999234,None,0,1,3.1320966000002954,None,space,20.70650519999981,None,0,1,1,1,,,,,3,5,29,4,531.2532749999996,,,,,,,,,,,,,,,,,,,,,531.2378609000002,531.2532749999996,531.7368415999995,531.7415834999997,531.7550514999998,534.9026339999996,,,,,534.9028090999996,534.9181970999994,535.1181820999996,535.1021263999996,531.7550514999998,,,,,,,,0,1,3.1320966000002954,None,,,,,,,,864,23,M,R,2026-02-18_11h59.20.857,VisualSearch_2526_3,,2025.2.4,2026-02-18 11h59.21.082975 +0100,
vertical.xlsx,The target is tilted.,135,30,6,3,1,1,1,1,0,0,0,0,0,0,0,0,0,3,4,135,space,25.423966099999234,None,1,1,0.6338971000004676,None,space,20.70650519999981,None,0,1,1,1,,,,,3,6,30,2,535.1181820999996,,,,,,,,,,,,,,,,,,,,,535.1028780000001,535.1181820999996,535.6020079999994,535.6067560999995,535.6229091999999,536.2680115999997,,,,,536.2681576,536.2839307999998,536.4838568,536.4681551999997,535.6229091999999,,,,,,,,1,1,0.6338971000004676,None,,,,,,,,864,23,M,R,2026-02-18_11h59.20.857,VisualSearch_2526_3,,2025.2.4,2026-02-18 11h59.21.082975 +0100,
vertical.xlsx,The target is tilted.,135,31,7,3,1,1,1,1,1,1,1,1,0,0,0,0,0,7,8,135,space,25.423966099999234,None,1,1,1.0231940000003306,None,space,20.70650519999981,None,0,1,1,1,,,,,3,7,31,1,536.4838568,,,,,,,,,,,,,,,,,,,,,536.4688811000001,536.4838568,536.9678227999998,536.9725623999998,536.9883868000002,538.0178371999996,,,,,538.0180108,538.0335423000001,538.2334297000002,538.2172961000001,536.9883868000002,,,,,,,,1,1,1.0231940000003306,None,,,,,,,,864,23,M,R,2026-02-18_11h59.20.857,VisualSearch_2526_3,,2025.2.4,2026-02-18 11h59.21.082975 +0100,
vertical.xlsx,The target is tilted.,135,32,0,4,0,1,1,1,1,1,1,1,0,0,0,0,1,7,8,135,space,25.423966099999234,None,0,1,1.7139061000007132,None,space,20.70650519999981,None,0,1,1,1,,,,,4,0,32,5,538.2334297000002,,,,,,,,,,,,,,,,,,,,,538.2180351000002,538.2334297000002,538.7170541999999,538.7219159000001,538.7358296999996,540.4668056999994,,,,,540.4669982,540.4819999999995,540.6823454,540.6661398000001,538.7358296999996,,,,,,,,0,1,1.7139061000007132,None,,,,,,,,864,23,M,R,2026-02-18_11h59.20.857,VisualSearch_2526_3,,2025.2.4,2026-02-18 11h59.21.082975 +0100,
vertical.xlsx,The target is tilted.,135,33,1,4,0,0,0,0,0,0,0,0,0,0,0,0,1,1,1,135,space,25.423966099999234,None,0,1,0.6904216000002634,None,space,20.70650519999981,None,0,1,1,1,,,,,4,1,33,7,540.6823454,,,,,,,,,,,,,,,,,,,,,540.6669789000002,540.6823454,541.1658585999999,541.1702224999995,541.1844354999998,541.8828819999994,,,,,541.8830729999995,541.8981307999998,542.0979621000001,542.0822980999997,541.1844354999998,,,,,,,,0,1,0.6904216000002634,None,,,,,,,,864,23,M,R,2026-02-18_11h59.20.857,VisualSearch_2526_3,,2025.2.4,2026-02-18 11h59.21.082975 +0100,
vertical.xlsx,The target is tilted.,135,34,2,4,0,1,1,1,1,1,1,1,1,1,1,1,1,11,12,135,space,25.423966099999234,None,0,1,2.0922300000001997,None,space,20.70650519999981,None,0,1,1,1,,,,,4,2,34,4,542.0979621000001,,,,,,,,,,,,,,,,,,,,,542.0830197999999,542.0979621000001,542.5819910999994,542.5867606999996,542.6024256999995,544.6979564999997,,,,,544.6981531999995,544.7137625,544.9135202000002,544.8971695999994,542.6024256999995,,,,,,,,0,1,2.0922300000001997,None,,,,,,,,864,23,M,R,2026-02-18_11h59.20.857,VisualSearch_2526_3,,2025.2.4,2026-02-18 11h59.21.082975 +0100,
