file_name,block_instructions,target_example,thisN,thisTrialN,thisRepN,target_presence,opacity_1,opacity_2,opacity_3,opacity_4,opacity_5,opacity_6,opacity_7,opacity_8,opacity_9,opacity_10,opacity_11,opacity_12,n_distract,n_items,target_ori,key_resp_4.keys,key_resp_4.rt,key_resp_4.duration,key_resp.keys,key_resp.corr,key_resp.rt,key_resp.duration,key_resp_5.keys,key_resp_5.rt,key_resp_5.duration,blocks.thisRepN,blocks.thisTrialN,blocks.thisN,blocks.thisIndex,practice_trials.thisRepN,practice_trials.thisTrialN,practice_trials.thisN,practice_trials.thisIndex,trials.thisRepN,trials.thisTrialN,trials.thisN,trials.thisIndex,thisRow.t,notes,Welcome.started,WelcomeText.started,key_resp_2.started,Welcome.stopped,key_resp_2.keys,key_resp_2.rt,key_resp_2.duration,InformedConsent.started,text_4.started,InformedConsent.stopped,key_resp_6.keys,key_resp_6.rt,key_resp_6.duration,key_resp_4.started,example_target.started,text_3.started,blocks.key_resp_4.keys,blocks.key_resp_4.rt,blocks.key_resp_4.duration,FixCross.started,fixCross.started,FixCross.stopped,Stimulus.started,key_resp.started,Stimulus.stopped,practice_trials.key_resp.keys,practice_trials.key_resp.corr,practice_trials.key_resp.rt,practice_trials.key_resp.duration,BlankScreen.started,text.started,text.stopped,BlankScreen.stopped,fixCross.stopped,ExperimentStart.started,text_2.started,key_resp_5.started,ExperimentStart.stopped,blocks.key_resp_5.keys,blocks.key_resp_5.rt,blocks.key_resp_5.duration,trials.key_resp.keys,trials.key_resp.corr,trials.key_resp.rt,trials.key_resp.duration,Thanks.started,ThankYou.started,key_resp_3.started,Thanks.stopped,key_resp_3.keys,key_resp_3.rt,key_resp_3.duration,participant,leeftijd,gender,links/rechtshandig,date,expName,expVersion,psychopyVersion,expStart,
,,,,,,,,,,,,,,,,,,,,,,,,,,,,,,,,,,,,,,,,,,,,,,0.025109100000008766,0.03669199999967532,0.03669199999967532,67.38891220000005,space,67.32650430000012,None,,,,,,,,,,,,,,,,,,,,,,,,,,,,,,,,,,,,,,,,,,,,,,865,21,M,R,2026-02-18_12h13.19.419,VisualSearch_2526_3,,2025.2.4,2026-02-18 12h13.19.635659 +0100,
,,,,,,,,,,,,,,,,,,,,,,,,,,,,,,,,,,,,,,,,,,,,,,,,,,,,,67.38903449999998,67.39652750000005,77.2051963999993,y,9.799139300000206,None,,,,,,,,,,,,,,,,,,,,,,,,,,,,,,,,,,,,,,,,865,21,M,R,2026-02-18_12h13.19.419,VisualSearch_2526_3,,2025.2.4,2026-02-18 12h13.19.635659 +0100,
tilted.xlsx,The target is tilted.,117,0,0,0,0,1,1,1,1,1,1,1,1,1,1,1,1,11,12,117,space,5.365729099999953,None,1,0,4.829175599999871,None,,,,0,0,0,0,0,0,0,4,,,,,82.6449619999994,,,,,,,,,,,,,,,77.24086779999925,77.24086779999925,77.24086779999925,space,5.365729099999953,None,82.64006449999943,82.6449619999994,83.13579799999934,83.1409251999994,83.15612169999986,88.0010588999994,1,0,4.829175599999871,None,88.00125200000002,88.01653519999945,88.21615549999933,88.20041069999934,,,,,,,,,,,,,,,,,,,,865,21,M,R,2026-02-18_12h13.19.419,VisualSearch_2526_3,,2025.2.4,2026-02-18 12h13.19.635659 +0100,
tilted.xlsx,The target is tilted.,117,1,1,0,0,1,1,1,0,0,0,0,0,0,0,0,1,3,4,117,space,5.365729099999953,None,0,1,1.758472399999846,None,,,,0,0,0,0,0,1,1,6,,,,,88.21615549999933,,,,,,,,,,,,,,,,,,,,,88.20107819999976,88.21615549999933,88.70029579999937,88.7057780999994,88.72006789999978,90.48279149999962,0,1,1.758472399999846,None,90.48296260000006,90.49878569999964,90.69862209999974,90.68258019999939,88.72006789999978,,,,,,,,,,,,,,,,,,,865,21,M,R,2026-02-18_12h13.19.419,VisualSearch_2526_3,,2025.2.4,2026-02-18 12h13.19.635659 +0100,
tilted.xlsx,The target is tilted.,117,2,2,0,1,1,1,1,1,1,1,1,0,0,0,0,0,7,8,117,space,5.365729099999953,None,1,1,6.611214600000494,None,,,,0,0,0,0,0,2,2,1,,,,,90.69862209999974,,,,,,,,,,,,,,,,,,,,,90.6832904999992,90.69862209999974,91.18217839999943,91.18705039999986,91.20316019999973,97.82936840000002,1,1,6.611214600000494,None,97.82955979999952,97.84496820000004,98.04548179999983,98.0292116999999,91.20316019999973,,,,,,,,,,,,,,,,,,,865,21,M,R,2026-02-18_12h13.19.419,VisualSearch_2526_3,,2025.2.4,2026-02-18 12h13.19.635659 +0100,
tilted.xlsx,The target is tilted.,117,3,3,0,1,1,1,1,1,1,1,1,1,1,1,1,0,11,12,117,space,5.365729099999953,None,1,1,3.9339759999993476,None,,,,0,0,0,0,0,3,3,0,,,,,98.04548179999983,,,,,,,,,,,,,,,,,,,,,98.0299243999998,98.04548179999983,98.52868820000003,98.53347209999993,98.54923989999952,102.49459059999936,1,1,3.9339759999993476,None,102.49480969999968,102.50942029999987,102.7099134,102.69385499999953,98.54923989999952,,,,,,,,,,,,,,,,,,,865,21,M,R,2026-02-18_12h13.19.419,VisualSearch_2526_3,,2025.2.4,2026-02-18 12h13.19.635659 +0100,
tilted.xlsx,The target is tilted.,117,4,4,0,1,0,0,0,0,0,0,0,0,0,0,0,0,0,1,117,space,5.365729099999953,None,1,1,1.2744019000001572,None,,,,0,0,0,0,0,4,4,3,,,,,102.7099134,,,,,,,,,,,,,,,,,,,,,102.69453040000008,102.7099134,103.19337360000009,103.1965737999999,103.20992669999941,104.49304979999943,1,1,1.2744019000001572,None,104.49318239999957,104.50862449999931,104.70900749999964,104.69286789999933,103.20992669999941,,,,,,,,,,,,,,,,,,,865,21,M,R,2026-02-18_12h13.19.419,VisualSearch_2526_3,,2025.2.4,2026-02-18 12h13.19.635659 +0100,
tilted.xlsx,The target is tilted.,117,5,5,0,1,1,1,1,0,0,0,0,0,0,0,0,0,3,4,117,space,5.365729099999953,None,1,1,1.2117923999994673,None,,,,0,0,0,0,0,5,5,2,,,,,104.70900749999964,,,,,,,,,,,,,,,,,,,,,104.69356029999926,104.70900749999964,105.19258569999965,105.19754289999946,105.21210259999953,106.42564739999943,1,1,1.2117923999994673,None,106.42583829999967,106.44105489999947,106.64149499999985,106.62534439999945,105.21210259999953,,,,,,,,,,,,,,,,,,,865,21,M,R,2026-02-18_12h13.19.419,VisualSearch_2526_3,,2025.2.4,2026-02-18 12h13.19.635659 +0100,
tilted.xlsx,The target is tilted.,117,6,6,0,0,0,0,0,0,0,0,0,0,0,0,0,1,1,1,117,space,5.365729099999953,None,0,1,0.6366487000004781,None,,,,0,0,0,0,0,6,6,7,,,,,106.64149499999985,,,,,,,,,,,,,,,,,,,,,106.62601019999966,106.64149499999985,107.12522029999946,107.12998009999956,107.1451447999998,107.7921254999992,0,1,0.6366487000004781,None,107.79231359999994,107.80686459999924,108.00743579999926,107.9910020999996,107.1451447999998,,,,,,,,,,,,,,,,,,,865,21,M,R,2026-02-18_12h13.19.419,VisualSearch_2526_3,,2025.2.4,2026-02-18 12h13.19.635659 +0100,
tilted.xlsx,The target is tilted.,117,7,7,0,0,1,1,1,1,1,1,1,0,0,0,0,1,7,8,117,space,5.365729099999953,None,0,1,4.793433300000288,None,,,,0,0,0,0,0,7,7,5,,,,,108.00743579999926,,,,,,,,,,,,,,,,,,,,,107.9917145999998,108.00743579999926,108.49117729999944,108.49621339999976,108.51184859999921,113.32216889999927,0,1,4.793433300000288,None,113.32235799999944,113.33788669999922,113.53791869999986,113.52232339999955,108.51184859999921,,,,,,,,,,,,,,,,,,,865,21,M,R,2026-02-18_12h13.19.419,VisualSearch_2526_3,,2025.2.4,2026-02-18 12h13.19.635659 +0100,
tilted.xlsx,The target is tilted.,117,0,0,0,1,1,1,1,1,1,1,1,0,0,0,0,0,7,8,117,space,5.365729099999953,None,1,1,2.831373199999689,None,space,1.79870850000043,None,0,0,0,0,,,,,0,0,0,1,115.36625599999934,,,,,,,,,,,,,,,,,,,,,115.36258809999981,115.36625599999934,115.85434209999949,115.85928819999936,115.87478849999934,118.7197174999992,,,,,118.71991279999929,118.73543449999943,118.93590629999926,118.91965329999948,,113.52930399999968,113.53791869999986,113.53791869999986,115.33831549999923,space,1.79870850000043,None,1,1,2.831373199999689,None,,,,,,,,865,21,M,R,2026-02-18_12h13.19.419,VisualSearch_2526_3,,2025.2.4,2026-02-18 12h13.19.635659 +0100,
tilted.xlsx,The target is tilted.,117,1,1,0,1,0,0,0,0,0,0,0,0,0,0,0,0,0,1,117,space,5.365729099999953,None,1,1,0.9283857000000353,None,space,1.79870850000043,None,0,0,0,0,,,,,0,1,1,3,118.93590629999926,,,,,,,,,,,,,,,,,,,,,118.92041169999993,118.93590629999926,119.41953719999947,119.42466579999927,119.44098209999993,120.38559279999936,,,,,120.38578789999974,120.40142549999928,120.60192909999932,120.5859563999993,119.44098209999993,,,,,,,,1,1,0.9283857000000353,None,,,,,,,,865,21,M,R,2026-02-18_12h13.19.419,VisualSearch_2526_3,,2025.2.4,2026-02-18 12h13.19.635659 +0100,
tilted.xlsx,The target is tilted.,117,2,2,0,0,1,1,1,0,0,0,0,0,0,0,0,1,3,4,117,space,5.365729099999953,None,0,1,1.737108199999966,None,space,1.79870850000043,None,0,0,0,0,,,,,0,2,2,6,120.60192909999932,,,,,,,,,,,,,,,,,,,,,120.58680439999989,120.60192909999932,121.08545479999975,121.09031759999925,121.10553129999971,122.85068279999996,,,,,122.85077639999963,122.86671699999988,,123.05106629999955,121.10553129999971,,,,,,,,0,1,1.737108199999966,None,,,,,,,,865,21,M,R,2026-02-18_12h13.19.419,VisualSearch_2526_3,,2025.2.4,2026-02-18 12h13.19.635659 +0100,
tilted.xlsx,The target is tilted.,117,3,3,0,1,1,1,1,1,1,1,1,1,1,1,1,0,11,12,117,space,5.365729099999953,None,1,1,2.8701160000000527,None,space,1.79870850000043,None,0,0,0,0,,,,,0,3,3,0,123.06697819999954,,,,,,,,,,,,,,,,,,,,,123.0524790999998,123.06697819999954,123.55094179999924,123.55591619999996,123.57121049999932,126.45002359999944,,,,,126.45016679999935,126.46517049999966,126.66565869999977,126.64970809999977,123.57121049999932,,,,,,,,1,1,2.8701160000000527,None,,,,,,,,865,21,M,R,2026-02-18_12h13.19.419,VisualSearch_2526_3,,2025.2.4,2026-02-18 12h13.19.635659 +0100,
tilted.xlsx,The target is tilted.,117,4,4,0,0,1,1,1,1,1,1,1,0,0,0,0,1,7,8,117,space,5.365729099999953,None,0,1,5.909587400000419,None,space,1.79870850000043,None,0,0,0,0,,,,,0,4,4,5,126.66565869999977,,,,,,,,,,,,,,,,,,,,,126.6504116999995,126.66565869999977,127.14942840000003,127.15432839999994,127.16789419999986,133.0807193999999,,,,,133.08093759999974,133.09563649999927,133.29612730000008,133.2796002999994,127.16789419999986,,,,,,,,0,1,5.909587400000419,None,,,,,,,,865,21,M,R,2026-02-18_12h13.19.419,VisualSearch_2526_3,,2025.2.4,2026-02-18 12h13.19.635659 +0100,
tilted.xlsx,The target is tilted.,117,5,5,0,0,1,1,1,1,1,1,1,1,1,1,1,1,11,12,117,space,5.365729099999953,None,0,1,6.493199700000332,None,space,1.79870850000043,None,0,0,0,0,,,,,0,5,5,4,133.29612730000008,,,,,,,,,,,,,,,,,,,,,133.2803404999995,133.29612730000008,133.77943959999993,133.7843811999992,133.79856010000003,140.2937938999994,,,,,140.2939792999996,140.30901300000005,140.50939669999934,140.49340559999928,133.79856010000003,,,,,,,,0,1,6.493199700000332,None,,,,,,,,865,21,M,R,2026-02-18_12h13.19.419,VisualSearch_2526_3,,2025.2.4,2026-02-18 12h13.19.635659 +0100,
tilted.xlsx,The target is tilted.,117,6,6,0,0,0,0,0,0,0,0,0,0,0,0,0,1,1,1,117,space,5.365729099999953,None,0,1,0.7379793000000063,None,space,1.79870850000043,None,0,0,0,0,,,,,0,6,6,7,140.50939669999934,,,,,,,,,,,,,,,,,,,,,140.49411119999968,140.50939669999934,140.99310559999958,140.99801669999943,141.01428579999993,141.75955109999995,,,,,141.75970589999997,141.77505870000005,141.97555759999977,141.95931149999979,141.01428579999993,,,,,,,,0,1,0.7379793000000063,None,,,,,,,,865,21,M,R,2026-02-18_12h13.19.419,VisualSearch_2526_3,,2025.2.4,2026-02-18 12h13.19.635659 +0100,
tilted.xlsx,The target is tilted.,117,7,7,0,1,1,1,1,0,0,0,0,0,0,0,0,0,3,4,117,space,5.365729099999953,None,1,1,0.9790019000001848,None,space,1.79870850000043,None,0,0,0,0,,,,,0,7,7,2,141.97555759999977,,,,,,,,,,,,,,,,,,,,,141.96005459999924,141.97555759999977,142.45914969999922,142.46381119999933,142.47512519999964,143.45823269999983,,,,,143.4583580999997,143.47421009999925,143.67479589999948,143.6584699999994,142.47512519999964,,,,,,,,1,1,0.9790019000001848,None,,,,,,,,865,21,M,R,2026-02-18_12h13.19.419,VisualSearch_2526_3,,2025.2.4,2026-02-18 12h13.19.635659 +0100,
tilted.xlsx,The target is tilted.,117,8,0,1,0,1,1,1,1,1,1,1,0,0,0,0,1,7,8,117,space,5.365729099999953,None,0,1,3.097964800000227,None,space,1.79870850000043,None,0,0,0,0,,,,,1,0,8,5,143.67479589999948,,,,,,,,,,,,,,,,,,,,,143.6592316999995,143.67479589999948,144.15825369999948,144.16319679999924,144.1777773999993,147.28943249999975,,,,,147.2895239999998,147.30618689999937,,147.4899250999997,144.1777773999993,,,,,,,,0,1,3.097964800000227,None,,,,,,,,865,21,M,R,2026-02-18_12h13.19.419,VisualSearch_2526_3,,2025.2.4,2026-02-18 12h13.19.635659 +0100,
tilted.xlsx,The target is tilted.,117,9,1,1,1,1,1,1,1,1,1,1,1,1,1,1,0,11,12,117,space,5.365729099999953,None,1,1,1.5353421999998318,None,space,1.79870850000043,None,0,0,0,0,,,,,1,1,9,0,147.5063672999995,,,,,,,,,,,,,,,,,,,,,147.49070630000006,147.5063672999995,147.98970119999922,147.99488219999967,148.01107639999918,149.5557534999998,,,,,149.55602279999948,149.5714670999996,149.77168129999973,149.7554657999999,,,,,,,,,1,1,1.5353421999998318,None,,,,,,,,865,21,M,R,2026-02-18_12h13.19.419,VisualSearch_2526_3,,2025.2.4,2026-02-18 12h13.19.635659 +0100,
tilted.xlsx,The target is tilted.,117,10,2,1,0,0,0,0,0,0,0,0,0,0,0,0,1,1,1,117,space,5.365729099999953,None,0,1,0.5405890000001818,None,space,1.79870850000043,None,0,0,0,0,,,,,1,2,10,7,149.77168129999973,,,,,,,,,,,,,,,,,,,,,149.75621210000008,149.77168129999973,150.25513049999972,150.26013149999926,150.27281779999976,150.82211209999969,,,,,150.82224700000006,150.8375516999995,151.03788459999942,151.02176999999938,150.27281779999976,,,,,,,,0,1,0.5405890000001818,None,,,,,,,,865,21,M,R,2026-02-18_12h13.19.419,VisualSearch_2526_3,,2025.2.4,2026-02-18 12h13.19.635659 +0100,
tilted.xlsx,The target is tilted.,117,11,3,1,1,1,1,1,1,1,1,1,0,0,0,0,0,7,8,117,space,5.365729099999953,None,1,1,1.5415265000001455,None,space,1.79870850000043,None,0,0,0,0,,,,,1,3,11,1,151.03788459999942,,,,,,,,,,,,,,,,,,,,,151.02252520000002,151.03788459999942,151.5215558,151.52634999999918,151.5416648999999,153.08733049999955,,,,,153.08782139999948,153.1032513,153.30365689999962,153.2871529999993,151.5416648999999,,,,,,,,1,1,1.5415265000001455,None,,,,,,,,865,21,M,R,2026-02-18_12h13.19.419,VisualSearch_2526_3,,2025.2.4,2026-02-18 12h13.19.635659 +0100,
tilted.xlsx,The target is tilted.,117,12,4,1,1,1,1,1,0,0,0,0,0,0,0,0,0,3,4,117,space,5.365729099999953,None,1,1,0.7279740000003585,None,space,1.79870850000043,None,0,0,0,0,,,,,1,4,12,2,153.30365689999962,,,,,,,,,,,,,,,,,,,,,153.28791309999997,153.30365689999962,153.7872185999995,153.79209979999996,153.80591659999936,154.53706089999923,,,,,154.53723639999953,154.55249129999993,154.75306980000005,154.73690579999948,153.80591659999936,,,,,,,,1,1,0.7279740000003585,None,,,,,,,,865,21,M,R,2026-02-18_12h13.19.419,VisualSearch_2526_3,,2025.2.4,2026-02-18 12h13.19.635659 +0100,
tilted.xlsx,The target is tilted.,117,13,5,1,0,1,1,1,0,0,0,0,0,0,0,0,1,3,4,117,space,5.365729099999953,None,0,1,0.8256331000002319,None,space,1.79870850000043,None,0,0,0,0,,,,,1,5,13,6,154.75306980000005,,,,,,,,,,,,,,,,,,,,,154.73763039999994,154.75306980000005,155.2367624999997,155.24155559999963,155.25683329999993,156.08632699999998,,,,,156.08650020000005,156.10211939999954,156.30217689999972,156.28585549999934,155.25683329999993,,,,,,,,0,1,0.8256331000002319,None,,,,,,,,865,21,M,R,2026-02-18_12h13.19.419,VisualSearch_2526_3,,2025.2.4,2026-02-18 12h13.19.635659 +0100,
tilted.xlsx,The target is tilted.,117,14,6,1,1,0,0,0,0,0,0,0,0,0,0,0,0,0,1,117,space,5.365729099999953,None,1,1,0.5913647000006677,None,space,1.79870850000043,None,0,0,0,0,,,,,1,6,14,3,156.30217689999972,,,,,,,,,,,,,,,,,,,,,156.28657649999968,156.30217689999972,156.7860565000001,156.79099849999966,156.80518289999964,157.4022513,,,,,157.40238139999929,157.41776559999926,157.6183164999993,157.60223599999972,156.80518289999964,,,,,,,,1,1,0.5913647000006677,None,,,,,,,,865,21,M,R,2026-02-18_12h13.19.419,VisualSearch_2526_3,,2025.2.4,2026-02-18 12h13.19.635659 +0100,
tilted.xlsx,The target is tilted.,117,15,7,1,0,1,1,1,1,1,1,1,1,1,1,1,1,11,12,117,space,5.365729099999953,None,0,1,4.6079688999998325,None,space,1.79870850000043,None,0,0,0,0,,,,,1,7,15,4,157.6183164999993,,,,,,,,,,,,,,,,,,,,,157.60302729999967,157.6183164999993,158.1019970999996,158.1075050999998,158.12227689999963,162.73329939999985,,,,,162.7334592999996,162.74859469999956,162.94928009999967,162.9330762999998,158.12227689999963,,,,,,,,0,1,4.6079688999998325,None,,,,,,,,865,21,M,R,2026-02-18_12h13.19.419,VisualSearch_2526_3,,2025.2.4,2026-02-18 12h13.19.635659 +0100,
tilted.xlsx,The target is tilted.,117,16,0,2,1,0,0,0,0,0,0,0,0,0,0,0,0,0,1,117,space,5.365729099999953,None,1,1,0.4890298000000257,None,space,1.79870850000043,None,0,0,0,0,,,,,2,0,16,3,162.94928009999967,,,,,,,,,,,,,,,,,,,,,162.9338799999996,162.94928009999967,163.43268759999955,163.4374818999995,163.45331289999922,163.94967109999925,,,,,163.9498651999993,163.96493589999955,164.16539879999982,164.14918039999975,163.45331289999922,,,,,,,,1,1,0.4890298000000257,None,,,,,,,,865,21,M,R,2026-02-18_12h13.19.419,VisualSearch_2526_3,,2025.2.4,2026-02-18 12h13.19.635659 +0100,
tilted.xlsx,The target is tilted.,117,17,1,2,0,1,1,1,0,0,0,0,0,0,0,0,1,3,4,117,space,5.365729099999953,None,0,1,1.1745098000001235,None,space,1.79870850000043,None,0,0,0,0,,,,,2,1,17,6,164.16539879999982,,,,,,,,,,,,,,,,,,,,,164.14994529999967,164.16539879999982,164.64904509999997,164.6536417999996,164.66508179999983,165.84906489999958,,,,,165.84926279999945,165.86400709999998,166.06437239999923,166.04831149999973,164.66508179999983,,,,,,,,0,1,1.1745098000001235,None,,,,,,,,865,21,M,R,2026-02-18_12h13.19.419,VisualSearch_2526_3,,2025.2.4,2026-02-18 12h13.19.635659 +0100,
tilted.xlsx,The target is tilted.,117,18,2,2,1,1,1,1,1,1,1,1,0,0,0,0,0,7,8,117,space,5.365729099999953,None,1,1,0.6107658000000811,None,space,1.79870850000043,None,0,0,0,0,,,,,2,2,18,1,166.06437239999923,,,,,,,,,,,,,,,,,,,,,166.04907609999918,166.06437239999923,166.54803859999993,166.55302369999936,166.56792249999944,167.18192379999982,,,,,167.18212869999934,167.19693479999933,167.3971679999995,167.38111929999923,166.56792249999944,,,,,,,,1,1,0.6107658000000811,None,,,,,,,,865,21,M,R,2026-02-18_12h13.19.419,VisualSearch_2526_3,,2025.2.4,2026-02-18 12h13.19.635659 +0100,
tilted.xlsx,The target is tilted.,117,19,3,2,1,1,1,1,0,0,0,0,0,0,0,0,0,3,4,117,space,5.365729099999953,None,0,0,1.0543129000006957,None,space,1.79870850000043,None,0,0,0,0,,,,,2,3,19,2,167.3971679999995,,,,,,,,,,,,,,,,,,,,,167.38188489999993,167.3971679999995,167.8806399999994,167.8854698999994,167.90131969999948,168.96382449999965,,,,,168.96395239999947,168.9793114999993,169.17971559999933,169.16337509999994,167.90131969999948,,,,,,,,0,0,1.0543129000006957,None,,,,,,,,865,21,M,R,2026-02-18_12h13.19.419,VisualSearch_2526_3,,2025.2.4,2026-02-18 12h13.19.635659 +0100,
tilted.xlsx,The target is tilted.,117,20,4,2,0,1,1,1,1,1,1,1,1,1,1,1,1,11,12,117,space,5.365729099999953,None,0,1,2.928897699999652,None,space,1.79870850000043,None,0,0,0,0,,,,,2,4,20,4,169.17971559999933,,,,,,,,,,,,,,,,,,,,,169.1640797,169.17971559999933,169.6630529999993,169.66781119999996,169.68189409999923,172.61249849999967,,,,,172.61269209999955,172.62780979999934,172.8281105999995,172.81199539999943,169.68189409999923,,,,,,,,0,1,2.928897699999652,None,,,,,,,,865,21,M,R,2026-02-18_12h13.19.419,VisualSearch_2526_3,,2025.2.4,2026-02-18 12h13.19.635659 +0100,
tilted.xlsx,The target is tilted.,117,21,5,2,0,0,0,0,0,0,0,0,0,0,0,0,1,1,1,117,space,5.365729099999953,None,0,1,0.6631910000005519,None,space,1.79870850000043,None,0,0,0,0,,,,,2,5,21,7,172.8281105999995,,,,,,,,,,,,,,,,,,,,,172.81271729999935,172.8281105999995,173.3118027999999,173.31677489999947,173.33162059999995,174.01147179999953,,,,,174.0116795999993,174.0270262999993,174.22738479999953,174.21132639999996,173.33162059999995,,,,,,,,0,1,0.6631910000005519,None,,,,,,,,865,21,M,R,2026-02-18_12h13.19.419,VisualSearch_2526_3,,2025.2.4,2026-02-18 12h13.19.635659 +0100,
tilted.xlsx,The target is tilted.,117,22,6,2,1,1,1,1,1,1,1,1,1,1,1,1,0,11,12,117,space,5.365729099999953,None,1,1,2.080630800000108,None,space,1.79870850000043,None,0,0,0,0,,,,,2,6,22,0,174.22738479999953,,,,,,,,,,,,,,,,,,,,,174.21207090000007,174.22738479999953,174.71076949999951,174.71560019999924,174.73158160000003,176.82671929999924,,,,,176.82690769999954,176.8423684999998,177.04251229999954,177.0263544999998,174.73158160000003,,,,,,,,1,1,2.080630800000108,None,,,,,,,,865,21,M,R,2026-02-18_12h13.19.419,VisualSearch_2526_3,,2025.2.4,2026-02-18 12h13.19.635659 +0100,
tilted.xlsx,The target is tilted.,117,23,7,2,0,1,1,1,1,1,1,1,0,0,0,0,1,7,8,117,space,5.365729099999953,None,0,1,2.4563097999998718,None,space,1.79870850000043,None,0,0,0,0,,,,,2,7,23,5,177.04251229999954,,,,,,,,,,,,,,,,,,,,,177.0270886999997,177.04251229999954,177.52617759999976,177.53097780000007,177.54602889999933,180.0093127,,,,,180.00952179999967,180.02420549999988,180.2248708999996,180.20857009999963,177.54602889999933,,,,,,,,0,1,2.4563097999998718,None,,,,,,,,865,21,M,R,2026-02-18_12h13.19.419,VisualSearch_2526_3,,2025.2.4,2026-02-18 12h13.19.635659 +0100,
tilted.xlsx,The target is tilted.,117,24,0,3,0,1,1,1,1,1,1,1,1,1,1,1,1,11,12,117,space,5.365729099999953,None,0,1,1.717249599999377,None,space,1.79870850000043,None,0,0,0,0,,,,,3,0,24,4,180.2248708999996,,,,,,,,,,,,,,,,,,,,,180.20933409999998,180.2248708999996,180.70755250000002,180.71018659999936,180.72440599999936,182.45754020000004,,,,,182.4577537999994,182.47317459999977,182.6737392999994,182.6571430999993,180.72440599999936,,,,,,,,0,1,1.717249599999377,None,,,,,,,,865,21,M,R,2026-02-18_12h13.19.419,VisualSearch_2526_3,,2025.2.4,2026-02-18 12h13.19.635659 +0100,
tilted.xlsx,The target is tilted.,117,25,1,3,0,1,1,1,0,0,0,0,0,0,0,0,1,3,4,117,space,5.365729099999953,None,0,1,0.8701725999999326,None,space,1.79870850000043,None,0,0,0,0,,,,,3,1,25,6,182.6737392999994,,,,,,,,,,,,,,,,,,,,,182.6579445999996,182.6737392999994,183.15695589999996,183.16183120000005,183.17706589999943,184.0573042999995,,,,,184.05748139999923,184.07250119999935,184.2726645999992,184.25646599999982,183.17706589999943,,,,,,,,0,1,0.8701725999999326,None,,,,,,,,865,21,M,R,2026-02-18_12h13.19.419,VisualSearch_2526_3,,2025.2.4,2026-02-18 12h13.19.635659 +0100,
tilted.xlsx,The target is tilted.,117,26,2,3,1,1,1,1,1,1,1,1,1,1,1,1,0,11,12,117,space,5.365729099999953,None,0,0,1.7829408000006879,None,space,1.79870850000043,None,0,0,0,0,,,,,3,2,26,0,184.2726645999992,,,,,,,,,,,,,,,,,,,,,184.25720779999938,184.2726645999992,184.7567670999997,184.76160549999986,184.77755799999977,186.57272019999982,,,,,186.5728808999993,186.5879763999992,186.78848629999993,186.77234339999995,184.77755799999977,,,,,,,,0,0,1.7829408000006879,None,,,,,,,,865,21,M,R,2026-02-18_12h13.19.419,VisualSearch_2526_3,,2025.2.4,2026-02-18 12h13.19.635659 +0100,
tilted.xlsx,The target is tilted.,117,27,3,3,0,1,1,1,1,1,1,1,0,0,0,0,1,7,8,117,space,5.365729099999953,None,0,1,1.8754937999992762,None,space,1.79870850000043,None,0,0,0,0,,,,,3,3,27,5,186.78848629999993,,,,,,,,,,,,,,,,,,,,,186.77307109999947,186.78848629999993,187.2721544999995,187.27704939999967,187.29299529999935,189.17142429999967,,,,,189.17155959999945,189.18684289999965,189.38677159999952,189.37020989999928,187.29299529999935,,,,,,,,0,1,1.8754937999992762,None,,,,,,,,865,21,M,R,2026-02-18_12h13.19.419,VisualSearch_2526_3,,2025.2.4,2026-02-18 12h13.19.635659 +0100,
tilted.xlsx,The target is tilted.,117,28,4,3,1,0,0,0,0,0,0,0,0,0,0,0,0,0,1,117,space,5.365729099999953,None,1,1,0.7619665000001987,None,space,1.79870850000043,None,0,0,0,0,,,,,3,4,28,3,189.38677159999952,,,,,,,,,,,,,,,,,,,,,189.37053949999972,189.38677159999952,189.8707990999992,189.87573529999918,189.8891297,190.6538931999994,,,,,190.65401559999918,190.66939309999998,190.86985120000008,190.85362499999974,189.8891297,,,,,,,,1,1,0.7619665000001987,None,,,,,,,,865,21,M,R,2026-02-18_12h13.19.419,VisualSearch_2526_3,,2025.2.4,2026-02-18 12h13.19.635659 +0100,
tilted.xlsx,The target is tilted.,117,29,5,3,1,1,1,1,1,1,1,1,0,0,0,0,0,7,8,117,space,5.365729099999953,None,1,1,2.2244928000000073,None,space,1.79870850000043,None,0,0,0,0,,,,,3,5,29,1,190.86985120000008,,,,,,,,,,,,,,,,,,,,,190.85429249999925,190.86985120000008,191.3526609999999,191.35498000000007,191.36961040000006,193.6029480999996,,,,,193.60320059999958,193.61807219999992,193.81863449999946,193.80254539999987,191.36961040000006,,,,,,,,1,1,2.2244928000000073,None,,,,,,,,865,21,M,R,2026-02-18_12h13.19.419,VisualSearch_2526_3,,2025.2.4,2026-02-18 12h13.19.635659 +0100,
tilted.xlsx,The target is tilted.,117,30,6,3,0,0,0,0,0,0,0,0,0,0,0,0,1,1,1,117,space,5.365729099999953,None,0,1,0.5793303999998898,None,space,1.79870850000043,None,0,0,0,0,,,,,3,6,30,7,193.81863449999946,,,,,,,,,,,,,,,,,,,,,193.80328959999952,193.81863449999946,194.30232199999955,194.30711879999944,194.3219898999996,194.90268749999996,,,,,194.90288959999998,194.91760769999928,195.11773979999998,195.10151189999942,194.3219898999996,,,,,,,,0,1,0.5793303999998898,None,,,,,,,,865,21,M,R,2026-02-18_12h13.19.419,VisualSearch_2526_3,,2025.2.4,2026-02-18 12h13.19.635659 +0100,
tilted.xlsx,The target is tilted.,117,31,7,3,1,1,1,1,0,0,0,0,0,0,0,0,0,3,4,117,space,5.365729099999953,None,1,1,0.791490700000395,None,space,1.79870850000043,None,0,0,0,0,,,,,3,7,31,2,195.11773979999998,,,,,,,,,,,,,,,,,,,,,195.10226839999996,195.11773979999998,195.60152049999942,195.60634709999977,195.62187529999937,196.41850579999937,,,,,196.41871269999956,196.43356719999974,196.6340051999996,196.61784439999974,195.62187529999937,,,,,,,,1,1,0.791490700000395,None,,,,,,,,865,21,M,R,2026-02-18_12h13.19.419,VisualSearch_2526_3,,2025.2.4,2026-02-18 12h13.19.635659 +0100,
tilted.xlsx,The target is tilted.,117,32,0,4,1,1,1,1,0,0,0,0,0,0,0,0,0,3,4,117,space,5.365729099999953,None,1,1,1.0519862999999532,None,space,1.79870850000043,None,0,0,0,0,,,,,4,0,32,2,196.6340051999996,,,,,,,,,,,,,,,,,,,,,196.6185631999997,196.6340051999996,197.11733060000006,197.12216949999947,197.1387750999993,198.20109969999976,,,,,198.20129199999974,198.21611589999975,198.4165086999992,198.40030509999997,197.1387750999993,,,,,,,,1,1,1.0519862999999532,None,,,,,,,,865,21,M,R,2026-02-18_12h13.19.419,VisualSearch_2526_3,,2025.2.4,2026-02-18 12h13.19.635659 +0100,
tilted.xlsx,The target is tilted.,117,33,1,4,1,1,1,1,1,1,1,1,0,0,0,0,0,7,8,117,space,5.365729099999953,None,0,0,2.7219874000002164,None,space,1.79870850000043,None,0,0,0,0,,,,,4,1,33,1,198.4165086999992,,,,,,,,,,,,,,,,,,,,,198.4010798999998,198.4165086999992,198.89993149999918,198.9047559999999,198.91831049999928,201.64926239999932,,,,,201.64943929999936,201.66449529999954,201.86443710000003,201.8487454999995,198.91831049999928,,,,,,,,0,0,2.7219874000002164,None,,,,,,,,865,21,M,R,2026-02-18_12h13.19.419,VisualSearch_2526_3,,2025.2.4,2026-02-18 12h13.19.635659 +0100,
tilted.xlsx,The target is tilted.,117,34,2,4,1,1,1,1,1,1,1,1,1,1,1,1,0,11,12,117,space,5.365729099999953,None,1,1,1.1304246999998213,None,space,1.79870850000043,None,0,0,0,0,,,,,4,2,34,0,201.86443710000003,,,,,,,,,,,,,,,,,,,,,201.84956069999953,201.86443710000003,202.34806320000007,202.35029549999945,202.3646087999996,203.49836689999938,,,,,203.4985968000001,203.5136625999994,203.7142404999995,203.6976593999998,202.3646087999996,,,,,,,,1,1,1.1304246999998213,None,,,,,,,,865,21,M,R,2026-02-18_12h13.19.419,VisualSearch_2526_3,,2025.2.4,2026-02-18 12h13.19.635659 +0100,
tilted.xlsx,The target is tilted.,117,35,3,4,1,0,0,0,0,0,0,0,0,0,0,0,0,0,1,117,space,5.365729099999953,None,1,1,0.5470515999995769,None,space,1.79870850000043,None,0,0,0,0,,,,,4,3,35,3,203.7142404999995,,,,,,,,,,,,,,,,,,,,,203.69838769999933,203.7142404999995,204.19764329999998,204.20249449999937,204.21724989999984,204.78061219999927,,,,,204.7807699999994,204.7965138999998,204.99659259999953,204.98070709999956,204.21724989999984,,,,,,,,1,1,0.5470515999995769,None,,,,,,,,865,21,M,R,2026-02-18_12h13.19.419,VisualSearch_2526_3,,2025.2.4,2026-02-18 12h13.19.635659 +0100,
tilted.xlsx,The target is tilted.,117,36,4,4,0,1,1,1,1,1,1,1,1,1,1,1,1,11,12,117,space,5.365729099999953,None,0,1,4.442764200000056,None,space,1.79870850000043,None,0,0,0,0,,,,,4,4,36,4,204.99659259999953,,,,,,,,,,,,,,,,,,,,,204.9814555999992,204.99659259999953,205.4804551999996,205.4853123999992,205.50111299999935,209.94535929999984,,,,,209.94551689999935,209.96071739999934,210.16121269999985,210.14513369999986,205.50111299999935,,,,,,,,0,1,4.442764200000056,None,,,,,,,,865,21,M,R,2026-02-18_12h13.19.419,VisualSearch_2526_3,,2025.2.4,2026-02-18 12h13.19.635659 +0100,
tilted.xlsx,The target is tilted.,117,37,5,4,0,0,0,0,0,0,0,0,0,0,0,0,1,1,1,117,space,5.365729099999953,None,0,1,0.6304349000001821,None,space,1.79870850000043,None,0,0,0,0,,,,,4,5,37,7,210.16121269999985,,,,,,,,,,,,,,,,,,,,,210.1458563999995,210.16121269999985,210.6445789999998,210.64939869999944,210.66468499999974,211.3110248999992,,,,,211.31121989999974,211.32673739999973,211.52718060000007,211.51111579999997,210.66468499999974,,,,,,,,0,1,0.6304349000001821,None,,,,,,,,865,21,M,R,2026-02-18_12h13.19.419,VisualSearch_2526_3,,2025.2.4,2026-02-18 12h13.19.635659 +0100,
tilted.xlsx,The target is tilted.,117,38,6,4,0,1,1,1,1,1,1,1,0,0,0,0,1,7,8,117,space,5.365729099999953,None,0,1,3.454453899999862,None,space,1.79870850000043,None,0,0,0,0,,,,,4,6,38,5,211.52718060000007,,,,,,,,,,,,,,,,,,,,,211.5118419999999,211.52718060000007,212.01085049999983,212.01568469999984,212.02771369999937,215.4932149999995,,,,,215.49340669999947,215.50795049999942,215.70871259999967,215.6926211,212.02771369999937,,,,,,,,0,1,3.454453899999862,None,,,,,,,,865,21,M,R,2026-02-18_12h13.19.419,VisualSearch_2526_3,,2025.2.4,2026-02-18 12h13.19.635659 +0100,
tilted.xlsx,The target is tilted.,117,39,7,4,0,1,1,1,0,0,0,0,0,0,0,0,1,3,4,117,space,5.365729099999953,None,0,1,0.7035596999994596,None,space,1.79870850000043,None,0,0,0,0,,,,,4,7,39,6,215.70871259999967,,,,,,,,,,,,,,,,,,,,,215.69336179999937,215.70871259999967,216.19198509999933,216.1968078,216.21194149999974,216.9247166999994,,,,,216.92482519999976,216.94076479999967,,217.12498830000004,216.21194149999974,,,,,,,,0,1,0.7035596999994596,None,,,,,,,,865,21,M,R,2026-02-18_12h13.19.419,VisualSearch_2526_3,,2025.2.4,2026-02-18 12h13.19.635659 +0100,
tilted.xlsx,The target is tilted.,117,40,0,5,0,1,1,1,0,0,0,0,0,0,0,0,1,3,4,117,space,5.365729099999953,None,0,1,0.6752980000001116,None,space,1.79870850000043,None,0,0,0,0,,,,,5,0,40,6,217.14139329999944,,,,,,,,,,,,,,,,,,,,,217.1257504999994,217.14139329999944,217.62501410000004,217.6298745999993,217.646205,218.32519109999976,,,,,218.32540399999925,218.34037099999932,218.54075769999963,218.5246619999998,217.646205,,,,,,,,0,1,0.6752980000001116,None,,,,,,,,865,21,M,R,2026-02-18_12h13.19.419,VisualSearch_2526_3,,2025.2.4,2026-02-18 12h13.19.635659 +0100,
tilted.xlsx,The target is tilted.,117,41,1,5,1,1,1,1,1,1,1,1,0,0,0,0,0,7,8,117,space,5.365729099999953,None,1,1,3.134288000000197,None,space,1.79870850000043,None,0,0,0,0,,,,,5,1,41,1,218.54075769999963,,,,,,,,,,,,,,,,,,,,,218.52539350000006,218.54075769999963,219.0244731999992,219.02981639999962,219.0448680999998,222.1900538,,,,,222.19024629999967,222.20518339999944,222.40553679999994,222.38931329999923,219.0448680999998,,,,,,,,1,1,3.134288000000197,None,,,,,,,,865,21,M,R,2026-02-18_12h13.19.419,VisualSearch_2526_3,,2025.2.4,2026-02-18 12h13.19.635659 +0100,
tilted.xlsx,The target is tilted.,117,42,2,5,1,1,1,1,1,1,1,1,1,1,1,1,0,11,12,117,space,5.365729099999953,None,1,1,1.6139940999992177,None,space,1.79870850000043,None,0,0,0,0,,,,,5,2,42,0,222.40553679999994,,,,,,,,,,,,,,,,,,,,,222.39005629999974,222.40553679999994,222.88932849999946,222.89411119999932,222.90534639999987,224.5224736,,,,,224.52266699999927,224.53747459999977,224.73785259999931,224.72179329999926,222.90534639999987,,,,,,,,1,1,1.6139940999992177,None,,,,,,,,865,21,M,R,2026-02-18_12h13.19.419,VisualSearch_2526_3,,2025.2.4,2026-02-18 12h13.19.635659 +0100,
tilted.xlsx,The target is tilted.,117,43,3,5,0,1,1,1,1,1,1,1,1,1,1,1,1,11,12,117,space,5.365729099999953,None,0,1,4.170324300000175,None,space,1.79870850000043,None,0,0,0,0,,,,,5,3,43,4,224.73785259999931,,,,,,,,,,,,,,,,,,,,,224.72254059999977,224.73785259999931,225.22159349999947,225.22698949999995,225.24117669999941,229.42007399999966,,,,,229.42024929999934,229.43513319999965,229.6357699,229.61955839999973,225.24117669999941,,,,,,,,0,1,4.170324300000175,None,,,,,,,,865,21,M,R,2026-02-18_12h13.19.419,VisualSearch_2526_3,,2025.2.4,2026-02-18 12h13.19.635659 +0100,
tilted.xlsx,The target is tilted.,117,44,4,5,1,1,1,1,0,0,0,0,0,0,0,0,0,3,4,117,space,5.365729099999953,None,1,1,0.7106252999992648,None,space,1.79870850000043,None,0,0,0,0,,,,,5,4,44,2,229.6357699,,,,,,,,,,,,,,,,,,,,,229.6203048999996,229.6357699,230.11938869999994,230.12406109999938,230.13536189999922,230.85261329999958,,,,,230.85280519999924,230.8678706999999,231.06841910000003,231.05220239999926,230.13536189999922,,,,,,,,1,1,0.7106252999992648,None,,,,,,,,865,21,M,R,2026-02-18_12h13.19.419,VisualSearch_2526_3,,2025.2.4,2026-02-18 12h13.19.635659 +0100,
tilted.xlsx,The target is tilted.,117,45,5,5,1,0,0,0,0,0,0,0,0,0,0,0,0,0,1,117,space,5.365729099999953,None,1,1,0.5988836000005904,None,space,1.79870850000043,None,0,0,0,0,,,,,5,5,45,3,231.06841910000003,,,,,,,,,,,,,,,,,,,,,231.05339959999947,231.06841910000003,231.55203230000006,231.55697539999983,231.56960699999945,232.18517579999934,,,,,232.18535350000002,232.20064209999964,232.40073200000006,232.38463890000003,231.56960699999945,,,,,,,,1,1,0.5988836000005904,None,,,,,,,,865,21,M,R,2026-02-18_12h13.19.419,VisualSearch_2526_3,,2025.2.4,2026-02-18 12h13.19.635659 +0100,
tilted.xlsx,The target is tilted.,117,46,6,5,0,1,1,1,1,1,1,1,0,0,0,0,1,7,8,117,space,5.365729099999953,None,0,1,2.518354300000283,None,space,1.79870850000043,None,0,0,0,0,,,,,5,6,46,5,232.40073200000006,,,,,,,,,,,,,,,,,,,,,232.3853722999993,232.40073200000006,232.88475029999972,232.88955929999975,232.90535289999934,235.43403299999954,,,,,235.43419579999954,235.4492137999996,235.64940810000007,235.63309279999976,232.90535289999934,,,,,,,,0,1,2.518354300000283,None,,,,,,,,865,21,M,R,2026-02-18_12h13.19.419,VisualSearch_2526_3,,2025.2.4,2026-02-18 12h13.19.635659 +0100,
tilted.xlsx,The target is tilted.,117,47,7,5,0,0,0,0,0,0,0,0,0,0,0,0,1,1,1,117,space,5.365729099999953,None,0,1,0.49085399999967194,None,space,1.79870850000043,None,0,0,0,0,,,,,5,7,47,7,235.64940810000007,,,,,,,,,,,,,,,,,,,,,235.6338468999993,235.64940810000007,236.13289059999988,236.13765199999943,236.1525372999995,236.65021269999943,,,,,236.6504116999995,236.66542200000004,236.86585259999993,236.84967229999984,236.1525372999995,,,,,,,,0,1,0.49085399999967194,None,,,,,,,,865,21,M,R,2026-02-18_12h13.19.419,VisualSearch_2526_3,,2025.2.4,2026-02-18 12h13.19.635659 +0100,
tilted.xlsx,The target is tilted.,117,48,0,6,0,1,1,1,0,0,0,0,0,0,0,0,1,3,4,117,space,5.365729099999953,None,0,1,1.093386599999576,None,space,1.79870850000043,None,0,0,0,0,,,,,6,0,48,6,236.86585259999993,,,,,,,,,,,,,,,,,,,,,236.85041049999927,236.86585259999993,237.34939099999974,237.35416349999923,237.36925569999948,238.46592039999996,,,,,238.4661157999999,238.4812224999996,238.68164589999924,238.66539620000003,237.36925569999948,,,,,,,,0,1,1.093386599999576,None,,,,,,,,865,21,M,R,2026-02-18_12h13.19.419,VisualSearch_2526_3,,2025.2.4,2026-02-18 12h13.19.635659 +0100,
tilted.xlsx,The target is tilted.,117,49,1,6,1,1,1,1,1,1,1,1,0,0,0,0,0,7,8,117,space,5.365729099999953,None,1,1,1.5102469000003111,None,space,1.79870850000043,None,0,0,0,0,,,,,6,1,49,1,238.68164589999924,,,,,,,,,,,,,,,,,,,,,238.66615569999976,238.68164589999924,239.16513979999945,239.17002109999976,239.18430199999966,240.69818209999994,,,,,240.69837519999965,240.71350389999952,240.91390059999958,240.8975963999992,239.18430199999966,,,,,,,,1,1,1.5102469000003111,None,,,,,,,,865,21,M,R,2026-02-18_12h13.19.419,VisualSearch_2526_3,,2025.2.4,2026-02-18 12h13.19.635659 +0100,
tilted.xlsx,The target is tilted.,117,50,2,6,0,1,1,1,1,1,1,1,0,0,0,0,1,7,8,117,space,5.365729099999953,None,0,1,2.872925800000303,None,space,1.79870850000043,None,0,0,0,0,,,,,6,2,50,5,240.91390059999958,,,,,,,,,,,,,,,,,,,,,240.8983533999999,240.91390059999958,241.3971892999998,241.40196729999934,241.4195938999992,244.2964392999993,,,,,244.2967323999992,244.31177630000002,244.5122926999993,244.49612049999996,241.4195938999992,,,,,,,,0,1,2.872925800000303,None,,,,,,,,865,21,M,R,2026-02-18_12h13.19.419,VisualSearch_2526_3,,2025.2.4,2026-02-18 12h13.19.635659 +0100,
tilted.xlsx,The target is tilted.,117,51,3,6,1,0,0,0,0,0,0,0,0,0,0,0,0,0,1,117,space,5.365729099999953,None,1,1,0.48313580000012735,None,space,1.79870850000043,None,0,0,0,0,,,,,6,3,51,3,244.5122926999993,,,,,,,,,,,,,,,,,,,,,244.49685640000007,244.5122926999993,244.99556049999956,245.00034899999991,245.01545050000004,245.51230099999975,,,,,245.5125335999992,245.52796149999995,245.72831199999928,245.71226039999965,245.01545050000004,,,,,,,,1,1,0.48313580000012735,None,,,,,,,,865,21,M,R,2026-02-18_12h13.19.419,VisualSearch_2526_3,,2025.2.4,2026-02-18 12h13.19.635659 +0100,
tilted.xlsx,The target is tilted.,117,52,4,6,1,1,1,1,0,0,0,0,0,0,0,0,0,3,4,117,space,5.365729099999953,None,1,1,0.9419270999997025,None,space,1.79870850000043,None,0,0,0,0,,,,,6,4,52,2,245.72831199999928,,,,,,,,,,,,,,,,,,,,,245.7130256999999,245.72831199999928,246.2120490999996,246.21693689999938,246.23218019999968,247.17791949999992,,,,,247.17809119999947,247.1937715999993,247.3940537999997,247.37793069999952,246.23218019999968,,,,,,,,1,1,0.9419270999997025,None,,,,,,,,865,21,M,R,2026-02-18_12h13.19.419,VisualSearch_2526_3,,2025.2.4,2026-02-18 12h13.19.635659 +0100,
tilted.xlsx,The target is tilted.,117,53,5,6,1,1,1,1,1,1,1,1,1,1,1,1,0,11,12,117,space,5.365729099999953,None,0,0,2.5303675999994084,None,space,1.79870850000043,None,0,0,0,0,,,,,6,5,53,0,247.3940537999997,,,,,,,,,,,,,,,,,,,,,247.3786651999999,247.3940537999997,247.87691300000006,247.87859389999994,247.8934021999994,250.4266858000001,,,,,250.4268278999998,250.4424270999998,250.6428662999997,250.62678649999998,247.8934021999994,,,,,,,,0,0,2.5303675999994084,None,,,,,,,,865,21,M,R,2026-02-18_12h13.19.419,VisualSearch_2526_3,,2025.2.4,2026-02-18 12h13.19.635659 +0100,
tilted.xlsx,The target is tilted.,117,54,6,6,0,1,1,1,1,1,1,1,1,1,1,1,1,11,12,117,space,5.365729099999953,None,0,1,5.411779900000511,None,space,1.79870850000043,None,0,0,0,0,,,,,6,6,54,4,250.6428662999997,,,,,,,,,,,,,,,,,,,,,250.62758789999953,250.6428662999997,251.12651809999988,251.13141919999998,251.14650389999952,256.5735677999992,,,,,256.57370099999935,256.5896292999996,256.7901474999999,256.77395929999966,251.14650389999952,,,,,,,,0,1,5.411779900000511,None,,,,,,,,865,21,M,R,2026-02-18_12h13.19.419,VisualSearch_2526_3,,2025.2.4,2026-02-18 12h13.19.635659 +0100,
tilted.xlsx,The target is tilted.,117,55,7,6,0,0,0,0,0,0,0,0,0,0,0,0,1,1,1,117,space,5.365729099999953,None,0,1,0.4967503999996552,None,space,1.79870850000043,None,0,0,0,0,,,,,6,7,55,7,256.7901474999999,,,,,,,,,,,,,,,,,,,,,256.7746965999995,256.7901474999999,257.27375869999923,257.27836619999925,257.28966239999954,257.7905031999999,,,,,257.7906983999992,257.80564090000007,258.00624249999964,257.9895256,257.28966239999954,,,,,,,,0,1,0.4967503999996552,None,,,,,,,,865,21,M,R,2026-02-18_12h13.19.419,VisualSearch_2526_3,,2025.2.4,2026-02-18 12h13.19.635659 +0100,
tilted.xlsx,The target is tilted.,117,56,0,7,0,1,1,1,0,0,0,0,0,0,0,0,1,3,4,117,space,5.365729099999953,None,0,1,1.010141000000658,None,space,1.79870850000043,None,0,0,0,0,,,,,7,0,56,6,258.00624249999964,,,,,,,,,,,,,,,,,,,,,257.99027619999924,258.00624249999964,258.4899057999992,258.49476649999997,258.5094210999996,259.52291349999996,,,,,259.5231079999994,259.5383192999998,259.7387007999996,259.72219229999973,258.5094210999996,,,,,,,,0,1,1.010141000000658,None,,,,,,,,865,21,M,R,2026-02-18_12h13.19.419,VisualSearch_2526_3,,2025.2.4,2026-02-18 12h13.19.635659 +0100,
tilted.xlsx,The target is tilted.,117,57,1,7,0,1,1,1,1,1,1,1,0,0,0,0,1,7,8,117,space,5.365729099999953,None,0,1,3.225763800000095,None,space,1.79870850000043,None,0,0,0,0,,,,,7,1,57,5,259.7387007999996,,,,,,,,,,,,,,,,,,,,,259.7229527999998,259.7387007999996,260.22239289999925,260.2273781999993,260.24203529999977,263.47108949999983,,,,,263.4712845999993,263.4864953999995,263.68669150000005,263.6708657999998,260.24203529999977,,,,,,,,0,1,3.225763800000095,None,,,,,,,,865,21,M,R,2026-02-18_12h13.19.419,VisualSearch_2526_3,,2025.2.4,2026-02-18 12h13.19.635659 +0100,
tilted.xlsx,The target is tilted.,117,58,2,7,1,0,0,0,0,0,0,0,0,0,0,0,0,0,1,117,space,5.365729099999953,None,1,1,0.6927335999998832,None,space,1.79870850000043,None,0,0,0,0,,,,,7,2,58,3,263.68669150000005,,,,,,,,,,,,,,,,,,,,,263.6716757999993,263.68669150000005,264.1705495999995,264.1753294,264.19134609999946,264.88728699999956,,,,,264.8874655999998,264.9025107999996,265.10257719999936,265.08681849999994,264.19134609999946,,,,,,,,1,1,0.6927335999998832,None,,,,,,,,865,21,M,R,2026-02-18_12h13.19.419,VisualSearch_2526_3,,2025.2.4,2026-02-18 12h13.19.635659 +0100,
tilted.xlsx,The target is tilted.,117,59,3,7,1,1,1,1,0,0,0,0,0,0,0,0,0,3,4,117,space,5.365729099999953,None,1,1,0.7946238000004087,None,space,1.79870850000043,None,0,0,0,0,,,,,7,3,59,2,265.10257719999936,,,,,,,,,,,,,,,,,,,,,265.087579,265.10257719999936,265.58672469999965,265.59160239999983,265.60684779999974,266.40352509999957,,,,,266.4037580999993,266.41850389999945,266.6188181999996,266.6025313,265.60684779999974,,,,,,,,1,1,0.7946238000004087,None,,,,,,,,865,21,M,R,2026-02-18_12h13.19.419,VisualSearch_2526_3,,2025.2.4,2026-02-18 12h13.19.635659 +0100,
tilted.xlsx,The target is tilted.,117,60,4,7,1,1,1,1,1,1,1,1,1,1,1,1,0,11,12,117,space,5.365729099999953,None,0,0,3.0409633999997823,None,space,1.79870850000043,None,0,0,0,0,,,,,7,4,60,0,266.6188181999996,,,,,,,,,,,,,,,,,,,,,266.6032665999992,266.6188181999996,267.10228499999994,267.1072353999998,267.1225973999999,270.16809659999944,,,,,270.16830279999976,270.1833539999998,270.3839269,270.3676695999993,267.1225973999999,,,,,,,,0,0,3.0409633999997823,None,,,,,,,,865,21,M,R,2026-02-18_12h13.19.419,VisualSearch_2526_3,,2025.2.4,2026-02-18 12h13.19.635659 +0100,
tilted.xlsx,The target is tilted.,117,61,5,7,1,1,1,1,1,1,1,1,0,0,0,0,0,7,8,117,space,5.365729099999953,None,1,1,3.762508599999819,None,space,1.79870850000043,None,0,0,0,0,,,,,7,5,61,1,270.3839269,,,,,,,,,,,,,,,,,,,,,270.3684558999994,270.3839269,270.8671983999993,270.8720057999999,270.88709799999924,274.6662615999994,,,,,274.66646669999955,274.68138739999995,274.8817808999993,274.8654979999992,270.88709799999924,,,,,,,,1,1,3.762508599999819,None,,,,,,,,865,21,M,R,2026-02-18_12h13.19.419,VisualSearch_2526_3,,2025.2.4,2026-02-18 12h13.19.635659 +0100,
tilted.xlsx,The target is tilted.,117,62,6,7,0,1,1,1,1,1,1,1,1,1,1,1,1,11,12,117,space,5.365729099999953,None,1,0,6.309417700000267,None,space,1.79870850000043,None,0,0,0,0,,,,,7,6,62,4,274.8817808999993,,,,,,,,,,,,,,,,,,,,,274.86642589999974,274.8817808999993,275.36512760000005,275.36763339999925,275.3813919999993,281.6964986999992,,,,,281.6966924999997,281.71125159999974,281.91201049999927,281.8956359999993,275.3813919999993,,,,,,,,1,0,6.309417700000267,None,,,,,,,,865,21,M,R,2026-02-18_12h13.19.419,VisualSearch_2526_3,,2025.2.4,2026-02-18 12h13.19.635659 +0100,
tilted.xlsx,The target is tilted.,117,63,7,7,0,0,0,0,0,0,0,0,0,0,0,0,1,1,1,117,space,5.365729099999953,None,0,1,0.906120099999498,None,space,1.79870850000043,None,0,0,0,0,,,,,7,7,63,7,281.91201049999927,,,,,,,,,,,,,,,,,,,,,281.8964025999994,281.91201049999927,282.39586039999995,282.4007303999997,282.41684179999993,283.3291180999995,,,,,283.3293137999999,283.3442230999999,283.54467719999957,283.52836449999995,282.41684179999993,,,,,,,,0,1,0.906120099999498,None,,,,,,,,865,21,M,R,2026-02-18_12h13.19.419,VisualSearch_2526_3,,2025.2.4,2026-02-18 12h13.19.635659 +0100,
tilted.xlsx,The target is tilted.,117,64,0,8,0,1,1,1,1,1,1,1,0,0,0,0,1,7,8,117,space,5.365729099999953,None,0,1,2.943153799999891,None,space,1.79870850000043,None,0,0,0,0,,,,,8,0,64,5,283.54467719999957,,,,,,,,,,,,,,,,,,,,,283.5291241999994,283.54467719999957,284.0278540999998,284.03264769999987,284.04764410000007,286.99449039999945,,,,,286.9946645,287.0091047999995,287.2091912999995,287.19336049999947,284.04764410000007,,,,,,,,0,1,2.943153799999891,None,,,,,,,,865,21,M,R,2026-02-18_12h13.19.419,VisualSearch_2526_3,,2025.2.4,2026-02-18 12h13.19.635659 +0100,
tilted.xlsx,The target is tilted.,117,65,1,8,1,0,0,0,0,0,0,0,0,0,0,0,0,0,1,117,space,5.365729099999953,None,1,1,0.6762896999998702,None,space,1.79870850000043,None,0,0,0,0,,,,,8,1,65,3,287.2091912999995,,,,,,,,,,,,,,,,,,,,,287.1941373999998,287.2091912999995,287.6932197999995,287.6980195999995,287.71262189999925,288.3929498999996,,,,,288.3931828999994,288.4086092999996,288.6090114999997,288.59288469999956,287.71262189999925,,,,,,,,1,1,0.6762896999998702,None,,,,,,,,865,21,M,R,2026-02-18_12h13.19.419,VisualSearch_2526_3,,2025.2.4,2026-02-18 12h13.19.635659 +0100,
tilted.xlsx,The target is tilted.,117,66,2,8,0,1,1,1,0,0,0,0,0,0,0,0,1,3,4,117,space,5.365729099999953,None,0,1,1.1936876999998276,None,space,1.79870850000043,None,0,0,0,0,,,,,8,2,66,6,288.6090114999997,,,,,,,,,,,,,,,,,,,,,288.59358449999945,288.6090114999997,289.0926503999999,289.09762819999924,289.1147871999992,290.32468439999957,,,,,290.3247892999998,290.34127119999994,,290.5250514999998,289.1147871999992,,,,,,,,0,1,1.1936876999998276,None,,,,,,,,865,21,M,R,2026-02-18_12h13.19.419,VisualSearch_2526_3,,2025.2.4,2026-02-18 12h13.19.635659 +0100,
tilted.xlsx,The target is tilted.,117,67,3,8,0,1,1,1,1,1,1,1,1,1,1,1,1,11,12,117,space,5.365729099999953,None,0,1,8.991785799999889,None,space,1.79870850000043,None,0,0,0,0,,,,,8,3,67,4,290.5414089999995,,,,,,,,,,,,,,,,,,,,,290.5258254999999,290.5414089999995,291.0250045999992,291.03053289999934,291.0460125999998,300.0538751999993,,,,,300.0540083999995,300.06990210000004,300.2703318999993,300.25420869999925,,,,,,,,,0,1,8.991785799999889,None,,,,,,,,865,21,M,R,2026-02-18_12h13.19.419,VisualSearch_2526_3,,2025.2.4,2026-02-18 12h13.19.635659 +0100,
tilted.xlsx,The target is tilted.,117,68,4,8,0,0,0,0,0,0,0,0,0,0,0,0,1,1,1,117,space,5.365729099999953,None,0,1,0.49403330000041024,None,space,1.79870850000043,None,0,0,0,0,,,,,8,4,68,7,300.2703318999993,,,,,,,,,,,,,,,,,,,,,300.25493039999947,300.2703318999993,300.75363500000003,300.7584551,300.77201289999994,301.27074099999936,,,,,301.2709460999995,301.2860192999997,301.4864271999995,301.4703056999997,300.77201289999994,,,,,,,,0,1,0.49403330000041024,None,,,,,,,,865,21,M,R,2026-02-18_12h13.19.419,VisualSearch_2526_3,,2025.2.4,2026-02-18 12h13.19.635659 +0100,
tilted.xlsx,The target is tilted.,117,69,5,8,1,1,1,1,1,1,1,1,0,0,0,0,0,7,8,117,space,5.365729099999953,None,1,1,2.761700699999892,None,space,1.79870850000043,None,0,0,0,0,,,,,8,5,69,1,301.4864271999995,,,,,,,,,,,,,,,,,,,,,301.47103269999934,301.4864271999995,301.9697497999996,301.9745030999993,301.9909736999998,304.7686369999992,,,,,304.7688288999998,304.7844067999995,304.9849213999996,304.96863869999925,301.9909736999998,,,,,,,,1,1,2.761700699999892,None,,,,,,,,865,21,M,R,2026-02-18_12h13.19.419,VisualSearch_2526_3,,2025.2.4,2026-02-18 12h13.19.635659 +0100,
tilted.xlsx,The target is tilted.,117,70,6,8,1,1,1,1,0,0,0,0,0,0,0,0,0,3,4,117,space,5.365729099999953,None,1,1,1.560743599999114,None,space,1.79870850000043,None,0,0,0,0,,,,,8,6,70,2,304.9849213999996,,,,,,,,,,,,,,,,,,,,,304.96943049999936,304.9849213999996,305.46812899999986,305.4729662,305.48910689999957,307.0511692,,,,,307.0513385999993,307.066691,307.2667535999999,307.25062589999925,305.48910689999957,,,,,,,,1,1,1.560743599999114,None,,,,,,,,865,21,M,R,2026-02-18_12h13.19.419,VisualSearch_2526_3,,2025.2.4,2026-02-18 12h13.19.635659 +0100,
tilted.xlsx,The target is tilted.,117,71,7,8,1,1,1,1,1,1,1,1,1,1,1,1,0,11,12,117,space,5.365729099999953,None,1,1,2.430442099999709,None,space,1.79870850000043,None,0,0,0,0,,,,,8,7,71,0,307.2667535999999,,,,,,,,,,,,,,,,,,,,,307.2513397999992,307.2667535999999,307.7495887999994,307.7513728999993,307.76618469999994,310.19993109999996,,,,,310.2001522999999,310.21536599999945,310.4156998999997,310.3994955999997,307.76618469999994,,,,,,,,1,1,2.430442099999709,None,,,,,,,,865,21,M,R,2026-02-18_12h13.19.419,VisualSearch_2526_3,,2025.2.4,2026-02-18 12h13.19.635659 +0100,
tilted.xlsx,The target is tilted.,117,72,0,9,1,1,1,1,0,0,0,0,0,0,0,0,0,3,4,117,space,5.365729099999953,None,1,1,1.0002863999998226,None,space,1.79870850000043,None,0,0,0,0,,,,,9,0,72,2,310.4156998999997,,,,,,,,,,,,,,,,,,,,,310.4002660999995,310.4156998999997,310.89937049999935,310.90433529999973,310.91986709999946,311.93273659999977,,,,,311.9329263999998,311.9478726999996,312.1482126000001,312.1321416999999,310.91986709999946,,,,,,,,1,1,1.0002863999998226,None,,,,,,,,865,21,M,R,2026-02-18_12h13.19.419,VisualSearch_2526_3,,2025.2.4,2026-02-18 12h13.19.635659 +0100,
tilted.xlsx,The target is tilted.,117,73,1,9,1,1,1,1,1,1,1,1,0,0,0,0,0,7,8,117,space,5.365729099999953,None,1,1,1.6576583000005485,None,space,1.79870850000043,None,0,0,0,0,,,,,9,1,73,1,312.1482126000001,,,,,,,,,,,,,,,,,,,,,312.1328588999995,312.1482126000001,312.6316274999999,312.63657519999924,312.6518723999998,314.3148309999997,,,,,314.3150203999994,314.3301359999996,314.5300583999997,314.5140059999994,312.6518723999998,,,,,,,,1,1,1.6576583000005485,None,,,,,,,,865,21,M,R,2026-02-18_12h13.19.419,VisualSearch_2526_3,,2025.2.4,2026-02-18 12h13.19.635659 +0100,
tilted.xlsx,The target is tilted.,117,74,2,9,0,1,1,1,0,0,0,0,0,0,0,0,1,3,4,117,space,5.365729099999953,None,0,1,1.4842994000000544,None,space,1.79870850000043,None,0,0,0,0,,,,,9,2,74,6,314.5300583999997,,,,,,,,,,,,,,,,,,,,,314.514717,314.5300583999997,315.01418979999926,315.0191344999994,315.0342129999999,316.53067909999936,,,,,316.5308677999992,316.54563749999943,316.7460572,316.730063,315.0342129999999,,,,,,,,0,1,1.4842994000000544,None,,,,,,,,865,21,M,R,2026-02-18_12h13.19.419,VisualSearch_2526_3,,2025.2.4,2026-02-18 12h13.19.635659 +0100,
tilted.xlsx,The target is tilted.,117,75,3,9,0,0,0,0,0,0,0,0,0,0,0,0,1,1,1,117,space,5.365729099999953,None,0,1,0.5378607000002376,None,space,1.79870850000043,None,0,0,0,0,,,,,9,3,75,7,316.7460572,,,,,,,,,,,,,,,,,,,,,316.7307824999998,316.7460572,317.22980989999996,317.2346841999997,317.2512790999999,317.79661339999984,,,,,317.79678519999925,317.8119471,318.01227729999937,317.9961543999998,317.2512790999999,,,,,,,,0,1,0.5378607000002376,None,,,,,,,,865,21,M,R,2026-02-18_12h13.19.419,VisualSearch_2526_3,,2025.2.4,2026-02-18 12h13.19.635659 +0100,
tilted.xlsx,The target is tilted.,117,76,4,9,0,1,1,1,1,1,1,1,1,1,1,1,1,11,12,117,space,5.365729099999953,None,0,1,8.662211700000626,None,space,1.79870850000043,None,0,0,0,0,,,,,9,4,76,4,318.01227729999937,,,,,,,,,,,,,,,,,,,,,317.9968702999995,318.01227729999937,318.49599429999944,318.5008881999993,318.5159582999995,327.1918412999994,,,,,327.19203130000005,327.20749459999934,327.4078708999996,327.39187089999996,318.5159582999995,,,,,,,,0,1,8.662211700000626,None,,,,,,,,865,21,M,R,2026-02-18_12h13.19.419,VisualSearch_2526_3,,2025.2.4,2026-02-18 12h13.19.635659 +0100,
tilted.xlsx,The target is tilted.,117,77,5,9,1,1,1,1,1,1,1,1,1,1,1,1,0,11,12,117,space,5.365729099999953,None,1,1,3.056149500000174,None,space,1.79870850000043,None,0,0,0,0,,,,,9,5,77,0,327.4078708999996,,,,,,,,,,,,,,,,,,,,,327.3926214999992,327.4078708999996,327.8912916999998,327.8958622,327.9076712999995,330.97407549999934,,,,,330.97426649999943,330.9892003999994,331.1892782999994,331.1736025,327.9076712999995,,,,,,,,1,1,3.056149500000174,None,,,,,,,,865,21,M,R,2026-02-18_12h13.19.419,VisualSearch_2526_3,,2025.2.4,2026-02-18 12h13.19.635659 +0100,
tilted.xlsx,The target is tilted.,117,78,6,9,1,0,0,0,0,0,0,0,0,0,0,0,0,0,1,117,space,5.365729099999953,None,1,1,0.8849516000000222,None,space,1.79870850000043,None,0,0,0,0,,,,,9,6,78,3,331.1892782999994,,,,,,,,,,,,,,,,,,,,,331.17432759999974,331.1892782999994,331.67336179999984,331.6783257999996,331.6932709999992,332.5896585999999,,,,,332.58978879999995,332.60510369999975,332.8055648999998,332.7890564999998,331.6932709999992,,,,,,,,1,1,0.8849516000000222,None,,,,,,,,865,21,M,R,2026-02-18_12h13.19.419,VisualSearch_2526_3,,2025.2.4,2026-02-18 12h13.19.635659 +0100,
tilted.xlsx,The target is tilted.,117,79,7,9,0,1,1,1,1,1,1,1,0,0,0,0,1,7,8,117,space,5.365729099999953,None,0,1,10.93385279999984,None,space,1.79870850000043,None,0,0,0,0,,,,,9,7,79,5,332.8055648999998,,,,,,,,,,,,,,,,,,,,,332.78980389999924,332.8055648999998,333.28926559999945,333.2939373999998,333.3052719999996,344.25119209999957,,,,,344.25138269999934,344.26649610000004,344.4665731999994,344.45084719999977,333.3052719999996,,,,,,,,0,1,10.93385279999984,None,,,,,,,,865,21,M,R,2026-02-18_12h13.19.419,VisualSearch_2526_3,,2025.2.4,2026-02-18 12h13.19.635659 +0100,
tilted.xlsx,The target is tilted.,117,80,0,10,1,1,1,1,1,1,1,1,0,0,0,0,0,7,8,117,space,5.365729099999953,None,1,1,1.3881259999998292,None,space,1.79870850000043,None,0,0,0,0,,,,,10,0,80,1,344.4665731999994,,,,,,,,,,,,,,,,,,,,,344.4515658999999,344.4665731999994,344.9505672999994,344.95548139999937,344.97107009999945,346.3665113999996,,,,,346.36663249999947,346.3820329,346.58268059999955,346.56666159999986,344.97107009999945,,,,,,,,1,1,1.3881259999998292,None,,,,,,,,865,21,M,R,2026-02-18_12h13.19.419,VisualSearch_2526_3,,2025.2.4,2026-02-18 12h13.19.635659 +0100,
tilted.xlsx,The target is tilted.,117,81,1,10,0,0,0,0,0,0,0,0,0,0,0,0,1,1,1,117,space,5.365729099999953,None,0,1,0.7137273999996978,None,space,1.79870850000043,None,0,0,0,0,,,,,10,1,81,7,346.58268059999955,,,,,,,,,,,,,,,,,,,,,346.56746479999947,346.58268059999955,347.0662930999997,347.07111989999976,347.0856940999993,347.8150423999996,,,,,347.8151702999994,347.83181799999966,,348.01570289999927,347.0856940999993,,,,,,,,0,1,0.7137273999996978,None,,,,,,,,865,21,M,R,2026-02-18_12h13.19.419,VisualSearch_2526_3,,2025.2.4,2026-02-18 12h13.19.635659 +0100,
tilted.xlsx,The target is tilted.,117,82,2,10,1,1,1,1,1,1,1,1,1,1,1,1,0,11,12,117,space,5.365729099999953,None,1,1,1.5674844000004668,None,space,1.79870850000043,None,0,0,0,0,,,,,10,2,82,0,348.03201199999967,,,,,,,,,,,,,,,,,,,,,348.0164855999992,348.03201199999967,348.5153236999995,348.5202984999996,348.53485939999973,350.1148405999993,,,,,350.1149779999996,350.13036849999935,350.33070769999995,350.3147885999997,348.53485939999973,,,,,,,,1,1,1.5674844000004668,None,,,,,,,,865,21,M,R,2026-02-18_12h13.19.419,VisualSearch_2526_3,,2025.2.4,2026-02-18 12h13.19.635659 +0100,
tilted.xlsx,The target is tilted.,117,83,3,10,1,0,0,0,0,0,0,0,0,0,0,0,0,0,1,117,space,5.365729099999953,None,1,1,0.5740966000003027,None,space,1.79870850000043,None,0,0,0,0,,,,,10,3,83,3,350.33070769999995,,,,,,,,,,,,,,,,,,,,,350.3155321999993,350.33070769999995,350.81429859999935,350.81924059999983,350.8331150999993,351.4149665999994,,,,,351.4152080999993,351.42978029999995,351.63036589999956,351.6142307,350.8331150999993,,,,,,,,1,1,0.5740966000003027,None,,,,,,,,865,21,M,R,2026-02-18_12h13.19.419,VisualSearch_2526_3,,2025.2.4,2026-02-18 12h13.19.635659 +0100,
tilted.xlsx,The target is tilted.,117,84,4,10,1,1,1,1,0,0,0,0,0,0,0,0,0,3,4,117,space,5.365729099999953,None,1,1,0.7662651000000551,None,space,1.79870850000043,None,0,0,0,0,,,,,10,4,84,2,351.63036589999956,,,,,,,,,,,,,,,,,,,,,351.6149431999993,351.63036589999956,352.1136944,352.1185730999996,352.1346014999999,352.9143159999994,,,,,352.9145387999997,352.92974439999944,353.12960639999983,353.1136527999997,352.1346014999999,,,,,,,,1,1,0.7662651000000551,None,,,,,,,,865,21,M,R,2026-02-18_12h13.19.419,VisualSearch_2526_3,,2025.2.4,2026-02-18 12h13.19.635659 +0100,
tilted.xlsx,The target is tilted.,117,85,5,10,0,1,1,1,1,1,1,1,1,1,1,1,1,11,12,117,space,5.365729099999953,None,0,1,8.28272620000007,None,space,1.79870850000043,None,0,0,0,0,,,,,10,5,85,4,353.12960639999983,,,,,,,,,,,,,,,,,,,,,353.1144703,353.12960639999983,353.6127467999995,353.61637789999986,353.63045149999925,361.92692219999935,,,,,361.9271246999997,361.9419491999997,362.1418746999998,362.1261205999999,353.63045149999925,,,,,,,,0,1,8.28272620000007,None,,,,,,,,865,21,M,R,2026-02-18_12h13.19.419,VisualSearch_2526_3,,2025.2.4,2026-02-18 12h13.19.635659 +0100,
tilted.xlsx,The target is tilted.,117,86,6,10,0,1,1,1,0,0,0,0,0,0,0,0,1,3,4,117,space,5.365729099999953,None,0,1,1.3447771000001012,None,space,1.79870850000043,None,0,0,0,0,,,,,10,6,86,6,362.1418746999998,,,,,,,,,,,,,,,,,,,,,362.1268421999994,362.1418746999998,362.6260474999999,362.6309375999999,362.6460164,363.9923614999998,,,,,363.9925370000001,364.0079298999999,364.2075871999996,364.19179039999926,362.6460164,,,,,,,,0,1,1.3447771000001012,None,,,,,,,,865,21,M,R,2026-02-18_12h13.19.419,VisualSearch_2526_3,,2025.2.4,2026-02-18 12h13.19.635659 +0100,
tilted.xlsx,The target is tilted.,117,87,7,10,0,1,1,1,1,1,1,1,0,0,0,0,1,7,8,117,space,5.365729099999953,None,0,1,2.848431399999754,None,space,1.79870850000043,None,0,0,0,0,,,,,10,7,87,5,364.2075871999996,,,,,,,,,,,,,,,,,,,,,364.1925530999997,364.2075871999996,364.6916935999998,364.69682699999976,364.71238169999924,367.57395429999997,,,,,367.5741610999994,367.5894306,367.78968429999986,367.7735796999996,364.71238169999924,,,,,,,,0,1,2.848431399999754,None,,,,,,,,865,21,M,R,2026-02-18_12h13.19.419,VisualSearch_2526_3,,2025.2.4,2026-02-18 12h13.19.635659 +0100,
tilted.xlsx,The target is tilted.,117,88,0,11,0,1,1,1,0,0,0,0,0,0,0,0,1,3,4,117,space,5.365729099999953,None,0,1,0.8240046000000802,None,space,1.79870850000043,None,0,0,0,0,,,,,11,0,88,6,367.78968429999986,,,,,,,,,,,,,,,,,,,,,367.77431759999945,367.78968429999986,368.27319589999934,368.2781409999998,368.29375939999954,369.1235246999995,,,,,369.1237164999993,369.13895759999923,369.3386180999996,369.3228462999996,368.29375939999954,,,,,,,,0,1,0.8240046000000802,None,,,,,,,,865,21,M,R,2026-02-18_12h13.19.419,VisualSearch_2526_3,,2025.2.4,2026-02-18 12h13.19.635659 +0100,
tilted.xlsx,The target is tilted.,117,89,1,11,1,1,1,1,1,1,1,1,0,0,0,0,0,7,8,117,space,5.365729099999953,None,1,1,1.6307955999991464,None,space,1.79870850000043,None,0,0,0,0,,,,,11,1,89,1,369.3386180999996,,,,,,,,,,,,,,,,,,,,,369.32361889999993,369.3386180999996,369.8226360999997,369.8275374999994,369.8433916999993,371.4886594999998,,,,,371.48880159999953,371.50461129999985,371.7046649999993,371.6879203999997,369.8433916999993,,,,,,,,1,1,1.6307955999991464,None,,,,,,,,865,21,M,R,2026-02-18_12h13.19.419,VisualSearch_2526_3,,2025.2.4,2026-02-18 12h13.19.635659 +0100,
tilted.xlsx,The target is tilted.,117,90,2,11,1,0,0,0,0,0,0,0,0,0,0,0,0,0,1,117,space,5.365729099999953,None,1,1,0.6259112999996432,None,space,1.79870850000043,None,0,0,0,0,,,,,11,2,90,3,371.7046649999993,,,,,,,,,,,,,,,,,,,,,371.6886543999999,371.7046649999993,372.1881715999998,372.1930939999993,372.2080313999995,372.8382053999994,,,,,372.8383924999998,372.8540936999998,373.0539667999992,373.0377194999992,372.2080313999995,,,,,,,,1,1,0.6259112999996432,None,,,,,,,,865,21,M,R,2026-02-18_12h13.19.419,VisualSearch_2526_3,,2025.2.4,2026-02-18 12h13.19.635659 +0100,
tilted.xlsx,The target is tilted.,117,91,3,11,0,1,1,1,1,1,1,1,1,1,1,1,1,11,12,117,space,5.365729099999953,None,0,1,7.700927199999569,None,space,1.79870850000043,None,0,0,0,0,,,,,11,3,91,4,373.0539667999992,,,,,,,,,,,,,,,,,,,,,373.03845550000005,373.0539667999992,373.5374073999992,373.5422800999995,373.55811769999946,381.2676515999992,,,,,381.2678387999995,381.2834057,381.48355509999965,381.46709869999995,373.55811769999946,,,,,,,,0,1,7.700927199999569,None,,,,,,,,865,21,M,R,2026-02-18_12h13.19.419,VisualSearch_2526_3,,2025.2.4,2026-02-18 12h13.19.635659 +0100,
tilted.xlsx,The target is tilted.,117,92,4,11,1,1,1,1,0,0,0,0,0,0,0,0,0,3,4,117,space,5.365729099999953,None,1,1,1.0676186000000598,None,space,1.79870850000043,None,0,0,0,0,,,,,11,4,92,2,381.48355509999965,,,,,,,,,,,,,,,,,,,,,381.46783479999976,381.48355509999965,381.96702469999946,381.97195609999926,381.9868282999996,383.06676829999924,,,,,383.0668995999995,383.08271220000006,383.28272279999965,383.26666699999987,381.9868282999996,,,,,,,,1,1,1.0676186000000598,None,,,,,,,,865,21,M,R,2026-02-18_12h13.19.419,VisualSearch_2526_3,,2025.2.4,2026-02-18 12h13.19.635659 +0100,
tilted.xlsx,The target is tilted.,117,93,5,11,1,1,1,1,1,1,1,1,1,1,1,1,0,11,12,117,space,5.365729099999953,None,1,1,2.0719830999996702,None,space,1.79870850000043,None,0,0,0,0,,,,,11,5,93,0,383.28272279999965,,,,,,,,,,,,,,,,,,,,,383.2674301999996,383.28272279999965,383.7659893,383.7708955999997,383.7846921999999,385.8659136999995,,,,,385.86610349999955,385.88135069999953,386.0813943999992,386.06527879999976,383.7846921999999,,,,,,,,1,1,2.0719830999996702,None,,,,,,,,865,21,M,R,2026-02-18_12h13.19.419,VisualSearch_2526_3,,2025.2.4,2026-02-18 12h13.19.635659 +0100,
tilted.xlsx,The target is tilted.,117,94,6,11,0,0,0,0,0,0,0,0,0,0,0,0,1,1,1,117,space,5.365729099999953,None,0,1,0.6768025000001217,None,space,1.79870850000043,None,0,0,0,0,,,,,11,6,94,7,386.0813943999992,,,,,,,,,,,,,,,,,,,,,386.0660005999998,386.0813943999992,386.56500179999966,386.56997539999975,386.58509909999975,387.26465370000005,,,,,387.2647778999999,387.28065999999944,387.4807248999996,387.4642492999992,386.58509909999975,,,,,,,,0,1,0.6768025000001217,None,,,,,,,,865,21,M,R,2026-02-18_12h13.19.419,VisualSearch_2526_3,,2025.2.4,2026-02-18 12h13.19.635659 +0100,
tilted.xlsx,The target is tilted.,117,95,7,11,0,1,1,1,1,1,1,1,0,0,0,0,1,7,8,117,space,5.365729099999953,None,0,1,4.72472420000031,None,space,1.79870850000043,None,0,0,0,0,,,,,11,7,95,5,387.4807248999996,,,,,,,,,,,,,,,,,,,,,387.465005,387.4807248999996,387.9644989999997,387.9694823,387.9850145999999,392.7129879999993,,,,,392.71319399999993,392.7279260999994,392.9281990999998,392.91217719999986,387.9850145999999,,,,,,,,0,1,4.72472420000031,None,,,,,,,,865,21,M,R,2026-02-18_12h13.19.419,VisualSearch_2526_3,,2025.2.4,2026-02-18 12h13.19.635659 +0100,
tilted.xlsx,The target is tilted.,117,96,0,12,0,1,1,1,1,1,1,1,0,0,0,0,1,7,8,117,space,5.365729099999953,None,0,1,2.7123473999999987,None,space,1.79870850000043,None,0,0,0,0,,,,,12,0,96,5,392.9281990999998,,,,,,,,,,,,,,,,,,,,,392.9128947999998,392.9281990999998,393.41186709999965,393.41682369999944,393.43313729999954,396.1608164999998,,,,,396.16094319999956,396.1763535,396.37630679999984,396.36019979999946,393.43313729999954,,,,,,,,0,1,2.7123473999999987,None,,,,,,,,865,21,M,R,2026-02-18_12h13.19.419,VisualSearch_2526_3,,2025.2.4,2026-02-18 12h13.19.635659 +0100,
tilted.xlsx,The target is tilted.,117,97,1,12,1,1,1,1,1,1,1,1,0,0,0,0,0,7,8,117,space,5.365729099999953,None,1,1,1.280470300000161,None,space,1.79870850000043,None,0,0,0,0,,,,,12,1,97,1,396.37630679999984,,,,,,,,,,,,,,,,,,,,,396.3606680999992,396.37630679999984,396.86016909999944,396.8650614999997,396.88109409999925,398.1761775999994,,,,,398.17631269999947,398.19211279999945,398.3921283999998,398.37636459999976,396.88109409999925,,,,,,,,1,1,1.280470300000161,None,,,,,,,,865,21,M,R,2026-02-18_12h13.19.419,VisualSearch_2526_3,,2025.2.4,2026-02-18 12h13.19.635659 +0100,
tilted.xlsx,The target is tilted.,117,98,2,12,0,0,0,0,0,0,0,0,0,0,0,0,1,1,1,117,space,5.365729099999953,None,0,1,0.6269610999997894,None,space,1.79870850000043,None,0,0,0,0,,,,,12,2,98,7,398.3921283999998,,,,,,,,,,,,,,,,,,,,,398.3771403999999,398.3921283999998,398.87618609999936,398.8811152999997,398.8962658999999,399.5264307999996,,,,,399.52662149999924,399.5418463999995,399.74172069999986,399.7253463999996,398.8962658999999,,,,,,,,0,1,0.6269610999997894,None,,,,,,,,865,21,M,R,2026-02-18_12h13.19.419,VisualSearch_2526_3,,2025.2.4,2026-02-18 12h13.19.635659 +0100,
tilted.xlsx,The target is tilted.,117,99,3,12,1,1,1,1,0,0,0,0,0,0,0,0,0,3,4,117,space,5.365729099999953,None,1,1,0.8712916000004043,None,space,1.79870850000043,None,0,0,0,0,,,,,12,3,99,2,399.74172069999986,,,,,,,,,,,,,,,,,,,,,399.7260600999998,399.74172069999986,400.22522169999957,400.2301090000001,400.2460214999992,401.1247848999992,,,,,401.12491879999925,401.1405417999995,401.3403282999998,401.3238789999996,400.2460214999992,,,,,,,,1,1,0.8712916000004043,None,,,,,,,,865,21,M,R,2026-02-18_12h13.19.419,VisualSearch_2526_3,,2025.2.4,2026-02-18 12h13.19.635659 +0100,
tilted.xlsx,The target is tilted.,117,100,4,12,0,1,1,1,0,0,0,0,0,0,0,0,1,3,4,117,space,5.365729099999953,None,0,1,0.7698740000005273,None,space,1.79870850000043,None,0,0,0,0,,,,,12,4,100,6,401.3403282999998,,,,,,,,,,,,,,,,,,,,,401.3241092999997,401.3403282999998,401.82365690000006,401.8254801999992,401.84012859999984,402.62505599999986,,,,,402.62524549999944,402.64041129999987,402.84007239999937,402.8240858999998,401.84012859999984,,,,,,,,0,1,0.7698740000005273,None,,,,,,,,865,21,M,R,2026-02-18_12h13.19.419,VisualSearch_2526_3,,2025.2.4,2026-02-18 12h13.19.635659 +0100,
tilted.xlsx,The target is tilted.,117,101,5,12,1,1,1,1,1,1,1,1,1,1,1,1,0,11,12,117,space,5.365729099999953,None,1,1,1.8390622999995685,None,space,1.79870850000043,None,0,0,0,0,,,,,12,5,101,0,402.84007239999937,,,,,,,,,,,,,,,,,,,,,402.82487259999925,402.84007239999937,403.3241653999994,403.32911239999976,403.3446903999993,405.18952779999927,,,,,405.1896199999992,405.20576529999926,405.4059600999999,405.3898301999998,403.3446903999993,,,,,,,,1,1,1.8390622999995685,None,,,,,,,,865,21,M,R,2026-02-18_12h13.19.419,VisualSearch_2526_3,,2025.2.4,2026-02-18 12h13.19.635659 +0100,
tilted.xlsx,The target is tilted.,117,102,6,12,0,1,1,1,1,1,1,1,1,1,1,1,1,11,12,117,space,5.365729099999953,None,0,1,2.3479579999993803,None,space,1.79870850000043,None,0,0,0,0,,,,,12,6,102,4,405.4059600999999,,,,,,,,,,,,,,,,,,,,,405.3905520999997,405.4059600999999,405.8892212999999,405.89411329999984,405.90901940000003,408.2722660999998,,,,,408.2724384999992,408.2878544999994,408.4876553999993,408.4717525999995,405.90901940000003,,,,,,,,0,1,2.3479579999993803,None,,,,,,,,865,21,M,R,2026-02-18_12h13.19.419,VisualSearch_2526_3,,2025.2.4,2026-02-18 12h13.19.635659 +0100,
tilted.xlsx,The target is tilted.,117,103,7,12,1,0,0,0,0,0,0,0,0,0,0,0,0,0,1,117,space,5.365729099999953,None,1,1,0.6487246999995477,None,space,1.79870850000043,None,0,0,0,0,,,,,12,7,103,3,408.4876553999993,,,,,,,,,,,,,,,,,,,,,408.47248239999954,408.4876553999993,408.9715454999996,408.97647340000003,408.9926842999994,409.65516279999974,,,,,409.6552970999992,409.6705607999993,409.8706098999992,409.8545881,408.9926842999994,,,,,,,,1,1,0.6487246999995477,None,,,,,,,,865,21,M,R,2026-02-18_12h13.19.419,VisualSearch_2526_3,,2025.2.4,2026-02-18 12h13.19.635659 +0100,
tilted.xlsx,The target is tilted.,117,104,0,13,0,0,0,0,0,0,0,0,0,0,0,0,1,1,1,117,space,5.365729099999953,None,0,1,0.6415337999997064,None,space,1.79870850000043,None,0,0,0,0,,,,,13,0,104,7,409.8706098999992,,,,,,,,,,,,,,,,,,,,,409.8553624999995,409.8706098999992,410.35336649999954,410.3561084999992,410.3701790999994,411.02125499999966,,,,,411.02144449999923,411.03653679999934,411.23659919999955,411.22056319999956,410.3701790999994,,,,,,,,0,1,0.6415337999997064,None,,,,,,,,865,21,M,R,2026-02-18_12h13.19.419,VisualSearch_2526_3,,2025.2.4,2026-02-18 12h13.19.635659 +0100,
tilted.xlsx,The target is tilted.,117,105,1,13,1,1,1,1,0,0,0,0,0,0,0,0,0,3,4,117,space,5.365729099999953,None,1,1,0.8194923999999446,None,space,1.79870850000043,None,0,0,0,0,,,,,13,1,105,2,411.23659919999955,,,,,,,,,,,,,,,,,,,,,411.2213250999994,411.23659919999955,411.7199025,411.7247778000001,411.73926439999923,412.57013409999945,,,,,412.5703292999997,412.5856752999998,412.7859929999995,412.7697720999995,411.73926439999923,,,,,,,,1,1,0.8194923999999446,None,,,,,,,,865,21,M,R,2026-02-18_12h13.19.419,VisualSearch_2526_3,,2025.2.4,2026-02-18 12h13.19.635659 +0100,
tilted.xlsx,The target is tilted.,117,106,2,13,1,1,1,1,1,1,1,1,1,1,1,1,0,11,12,117,space,5.365729099999953,None,0,0,2.667037799999889,None,space,1.79870850000043,None,0,0,0,0,,,,,13,2,106,0,412.7859929999995,,,,,,,,,,,,,,,,,,,,,412.7705399999995,412.7859929999995,413.2694513999995,413.2743223999996,413.29106499999943,415.96885099999963,,,,,415.96904409999934,415.98419419999937,416.18398889999935,416.1683458999996,413.29106499999943,,,,,,,,0,0,2.667037799999889,None,,,,,,,,865,21,M,R,2026-02-18_12h13.19.419,VisualSearch_2526_3,,2025.2.4,2026-02-18 12h13.19.635659 +0100,
tilted.xlsx,The target is tilted.,117,107,3,13,0,1,1,1,1,1,1,1,1,1,1,1,1,11,12,117,space,5.365729099999953,None,0,1,1.2891984999996566,None,space,1.79870850000043,None,0,0,0,0,,,,,13,3,107,4,416.18398889999935,,,,,,,,,,,,,,,,,,,,,416.1690753999992,416.18398889999935,416.6680136999994,416.67349489999924,416.6881706999993,417.98420259999966,,,,,417.98433469999964,418.0000098999999,418.2000696999994,418.18368310000005,416.6881706999993,,,,,,,,0,1,1.2891984999996566,None,,,,,,,,865,21,M,R,2026-02-18_12h13.19.419,VisualSearch_2526_3,,2025.2.4,2026-02-18 12h13.19.635659 +0100,
tilted.xlsx,The target is tilted.,117,108,4,13,0,1,1,1,1,1,1,1,0,0,0,0,1,7,8,117,space,5.365729099999953,None,0,1,1.5616688999998587,None,space,1.79870850000043,None,0,0,0,0,,,,,13,4,108,5,418.2000696999994,,,,,,,,,,,,,,,,,,,,,418.1844192999997,418.2000696999994,418.68391149999934,418.6887657999996,418.7048139999997,420.28287249999994,,,,,420.2829641999997,420.29902479999964,420.49915449999935,420.48300409999956,418.7048139999997,,,,,,,,0,1,1.5616688999998587,None,,,,,,,,865,21,M,R,2026-02-18_12h13.19.419,VisualSearch_2526_3,,2025.2.4,2026-02-18 12h13.19.635659 +0100,
tilted.xlsx,The target is tilted.,117,109,5,13,0,1,1,1,0,0,0,0,0,0,0,0,1,3,4,117,space,5.365729099999953,None,0,1,0.5060713999992004,None,space,1.79870850000043,None,0,0,0,0,,,,,13,5,109,6,420.49915449999935,,,,,,,,,,,,,,,,,,,,,420.4837444999994,420.49915449999935,420.98242949999985,420.9873463999993,421.00233619999926,421.51611349999985,,,,,421.5163051999998,421.5316079999993,421.73162449999927,421.71541290000005,421.00233619999926,,,,,,,,0,1,0.5060713999992004,None,,,,,,,,865,21,M,R,2026-02-18_12h13.19.419,VisualSearch_2526_3,,2025.2.4,2026-02-18 12h13.19.635659 +0100,
tilted.xlsx,The target is tilted.,117,110,6,13,1,1,1,1,1,1,1,1,0,0,0,0,0,7,8,117,space,5.365729099999953,None,0,0,2.876279899999645,None,space,1.79870850000043,None,0,0,0,0,,,,,13,6,110,1,421.73162449999927,,,,,,,,,,,,,,,,,,,,,421.7161710999999,421.73162449999927,422.2156376999992,422.2207811999997,422.2358452999997,425.11478869999974,,,,,425.11511769999925,425.13029449999976,425.33020149999993,425.31390999999985,422.2358452999997,,,,,,,,0,0,2.876279899999645,None,,,,,,,,865,21,M,R,2026-02-18_12h13.19.419,VisualSearch_2526_3,,2025.2.4,2026-02-18 12h13.19.635659 +0100,
tilted.xlsx,The target is tilted.,117,111,7,13,1,0,0,0,0,0,0,0,0,0,0,0,0,0,1,117,space,5.365729099999953,None,1,1,0.5824020000000019,None,space,1.79870850000043,None,0,0,0,0,,,,,13,7,111,3,425.33020149999993,,,,,,,,,,,,,,,,,,,,,425.31466679999994,425.33020149999993,425.81353149999995,425.8185125,425.8317479999996,426.43090439999924,,,,,426.4310928999994,426.4464195999999,426.6460518999993,426.6297846999996,425.8317479999996,,,,,,,,1,1,0.5824020000000019,None,,,,,,,,865,21,M,R,2026-02-18_12h13.19.419,VisualSearch_2526_3,,2025.2.4,2026-02-18 12h13.19.635659 +0100,
tilted.xlsx,The target is tilted.,117,112,0,14,0,1,1,1,1,1,1,1,0,0,0,0,1,7,8,117,space,5.365729099999953,None,0,1,1.5136185999999725,None,space,1.79870850000043,None,0,0,0,0,,,,,14,0,112,5,426.6460518999993,,,,,,,,,,,,,,,,,,,,,426.63016160000006,426.6460518999993,427.12998960000004,427.13487910000003,427.14857759999995,428.6796684000001,,,,,428.67983729999924,428.69542849999925,428.8956101999993,428.87913039999967,427.14857759999995,,,,,,,,0,1,1.5136185999999725,None,,,,,,,,865,21,M,R,2026-02-18_12h13.19.419,VisualSearch_2526_3,,2025.2.4,2026-02-18 12h13.19.635659 +0100,
tilted.xlsx,The target is tilted.,117,113,1,14,1,1,1,1,1,1,1,1,0,0,0,0,0,7,8,117,space,5.365729099999953,None,1,1,1.9425624000004973,None,space,1.79870850000043,None,0,0,0,0,,,,,14,1,113,1,428.8956101999993,,,,,,,,,,,,,,,,,,,,,428.87988419999965,428.8956101999993,429.37861350000003,429.3823137999998,429.39504899999974,431.3448574999993,,,,,431.3449823000001,431.3607014999998,431.56082119999974,431.54456109999956,429.39504899999974,,,,,,,,1,1,1.9425624000004973,None,,,,,,,,865,21,M,R,2026-02-18_12h13.19.419,VisualSearch_2526_3,,2025.2.4,2026-02-18 12h13.19.635659 +0100,
tilted.xlsx,The target is tilted.,117,114,2,14,1,1,1,1,1,1,1,1,1,1,1,1,0,11,12,117,space,5.365729099999953,None,1,1,1.4830339999998614,None,space,1.79870850000043,None,0,0,0,0,,,,,14,2,114,0,431.56082119999974,,,,,,,,,,,,,,,,,,,,,431.5453218999992,431.56082119999974,432.0444643000001,432.04933619999974,432.0647500999994,433.56042849999994,,,,,433.5605525000001,433.5763632999997,433.77642620000006,433.76013089999924,432.0647500999994,,,,,,,,1,1,1.4830339999998614,None,,,,,,,,865,21,M,R,2026-02-18_12h13.19.419,VisualSearch_2526_3,,2025.2.4,2026-02-18 12h13.19.635659 +0100,
tilted.xlsx,The target is tilted.,117,115,3,14,0,1,1,1,0,0,0,0,0,0,0,0,1,3,4,117,space,5.365729099999953,None,0,1,0.829484599999887,None,space,1.79870850000043,None,0,0,0,0,,,,,14,3,115,6,433.77642620000006,,,,,,,,,,,,,,,,,,,,,433.76088569999956,433.77642620000006,434.2600622,434.26510549999966,434.28074389999983,435.12646229999973,,,,,435.1266519999999,435.1418619999995,435.3423322999997,435.32618289999937,434.28074389999983,,,,,,,,0,1,0.829484599999887,None,,,,,,,,865,21,M,R,2026-02-18_12h13.19.419,VisualSearch_2526_3,,2025.2.4,2026-02-18 12h13.19.635659 +0100,
tilted.xlsx,The target is tilted.,117,116,4,14,1,1,1,1,0,0,0,0,0,0,0,0,0,3,4,117,space,5.365729099999953,None,0,0,0.6880557000004046,None,space,1.79870850000043,None,0,0,0,0,,,,,14,4,116,2,435.3423322999997,,,,,,,,,,,,,,,,,,,,,435.3269674999992,435.3423322999997,435.82625349999944,435.83110379999925,435.84622749999926,436.54290149999997,,,,,436.5430757999993,436.55819989999964,436.7583439,436.74237489999996,435.84622749999926,,,,,,,,0,0,0.6880557000004046,None,,,,,,,,865,21,M,R,2026-02-18_12h13.19.419,VisualSearch_2526_3,,2025.2.4,2026-02-18 12h13.19.635659 +0100,
tilted.xlsx,The target is tilted.,117,117,5,14,0,0,0,0,0,0,0,0,0,0,0,0,1,1,1,117,space,5.365729099999953,None,0,1,0.7440495999999257,None,space,1.79870850000043,None,0,0,0,0,,,,,14,5,117,7,436.7583439,,,,,,,,,,,,,,,,,,,,,436.74310069999956,436.7583439,437.2421983999993,437.24708629999986,437.2616971999996,438.0091016999995,,,,,438.00930029999927,438.0242082999994,438.22431569999935,438.2079944999996,437.2616971999996,,,,,,,,0,1,0.7440495999999257,None,,,,,,,,865,21,M,R,2026-02-18_12h13.19.419,VisualSearch_2526_3,,2025.2.4,2026-02-18 12h13.19.635659 +0100,
tilted.xlsx,The target is tilted.,117,118,6,14,0,1,1,1,1,1,1,1,1,1,1,1,1,11,12,117,space,5.365729099999953,None,0,1,3.3509691999997813,None,space,1.79870850000043,None,0,0,0,0,,,,,14,6,118,4,438.22431569999935,,,,,,,,,,,,,,,,,,,,,438.2087189999993,438.22431569999935,438.70795309999994,438.71271089999937,438.72895029999927,442.0901950999996,,,,,442.0903544999992,442.10597189999953,442.3055095999998,442.2896243999994,438.72895029999927,,,,,,,,0,1,3.3509691999997813,None,,,,,,,,865,21,M,R,2026-02-18_12h13.19.419,VisualSearch_2526_3,,2025.2.4,2026-02-18 12h13.19.635659 +0100,
tilted.xlsx,The target is tilted.,117,119,7,14,1,0,0,0,0,0,0,0,0,0,0,0,0,0,1,117,space,5.365729099999953,None,1,1,0.6139812999999776,None,space,1.79870850000043,None,0,0,0,0,,,,,14,7,119,3,442.3055095999998,,,,,,,,,,,,,,,,,,,,,442.29038729999957,442.3055095999998,442.78947059999973,442.79448409999986,442.8096272999992,443.43905209999957,,,,,443.4391492999994,443.45480939999925,443.6662450999993,443.6390961999996,442.8096272999992,,,,,,,,1,1,0.6139812999999776,None,,,,,,,,865,21,M,R,2026-02-18_12h13.19.419,VisualSearch_2526_3,,2025.2.4,2026-02-18 12h13.19.635659 +0100,
tilted.xlsx,The target is tilted.,117,0,0,0,,,,,,,,,,,,,,,,,space,5.365729099999953,None,,,,,space,1.79870850000043,None,0,0,0,0,,,,,,,,,,,,,,,,,,,,,,,,,,,,,,,,,,,,,,,,,,,,,,,,,,,,,,,,,,,,,,,865,21,M,R,2026-02-18_12h13.19.419,VisualSearch_2526_3,,2025.2.4,2026-02-18 12h13.19.635659 +0100,
vertical.xlsx,The target is tilted.,135,0,0,0,0,1,1,1,1,1,1,1,0,0,0,0,1,7,8,135,space,5.767802100000154,None,0,1,2.107238900000084,None,,,,0,1,1,1,0,0,0,5,,,,,449.45533709999927,,,,,,,,,,,,,,,443.6662450999993,443.6662450999993,443.6662450999993,space,5.767802100000154,None,449.4515703999996,449.45533709999927,449.95226939999975,449.9566348999997,449.9727807999998,452.0852926999996,0,1,2.107238900000084,None,452.0854856999995,452.1012020999997,452.30139659999986,452.28522840000005,,,,,,,,,,,,,,,,,,,,865,21,M,R,2026-02-18_12h13.19.419,VisualSearch_2526_3,,2025.2.4,2026-02-18 12h13.19.635659 +0100,
vertical.xlsx,The target is tilted.,135,1,1,0,1,1,1,1,1,1,1,1,1,1,1,1,0,11,12,135,space,5.767802100000154,None,1,1,2.0121192000005976,None,,,,0,1,1,1,0,1,1,0,,,,,452.30139659999986,,,,,,,,,,,,,,,,,,,,,452.28589659999943,452.30139659999986,452.78505270000005,452.7898660999999,452.80488889999924,454.83397499999955,1,1,2.0121192000005976,None,454.83410490000006,454.8499701999999,455.05015149999963,455.03405010000006,452.80488889999924,,,,,,,,,,,,,,,,,,,865,21,M,R,2026-02-18_12h13.19.419,VisualSearch_2526_3,,2025.2.4,2026-02-18 12h13.19.635659 +0100,
vertical.xlsx,The target is tilted.,135,2,2,0,0,1,1,1,1,1,1,1,1,1,1,1,1,11,12,135,space,5.767802100000154,None,0,1,3.029917700000624,None,,,,0,1,1,1,0,2,2,4,,,,,455.05015149999963,,,,,,,,,,,,,,,,,,,,,455.03471509999963,455.05015149999963,455.53375679999954,455.5389679,455.55308329999934,458.59893119999924,0,1,3.029917700000624,None,458.5990951999993,458.61474479999924,458.8151061999997,458.79903639999975,455.55308329999934,,,,,,,,,,,,,,,,,,,865,21,M,R,2026-02-18_12h13.19.419,VisualSearch_2526_3,,2025.2.4,2026-02-18 12h13.19.635659 +0100,
vertical.xlsx,The target is tilted.,135,3,3,0,1,1,1,1,1,1,1,1,0,0,0,0,0,7,8,135,space,5.767802100000154,None,1,1,0.9950058999993416,None,,,,0,1,1,1,0,3,3,1,,,,,458.8151061999997,,,,,,,,,,,,,,,,,,,,,458.79969619999974,458.8151061999997,459.2986637999993,459.3032482999997,459.3147349999999,460.3155136999994,1,1,0.9950058999993416,None,460.3156943999993,460.33093609999924,460.5309660999992,460.5150544999997,459.3147349999999,,,,,,,,,,,,,,,,,,,865,21,M,R,2026-02-18_12h13.19.419,VisualSearch_2526_3,,2025.2.4,2026-02-18 12h13.19.635659 +0100,
vertical.xlsx,The target is tilted.,135,4,4,0,0,0,0,0,0,0,0,0,0,0,0,0,1,1,1,135,space,5.767802100000154,None,0,1,0.609929799999918,None,,,,0,1,1,1,0,4,4,7,,,,,460.5309660999992,,,,,,,,,,,,,,,,,,,,,460.51580829999966,460.5309660999992,461.0143513999992,461.0192830999995,461.03538129999924,461.64704559999973,0,1,0.609929799999918,None,461.64711439999974,461.6633497999992,461.86327529999926,461.8472400999999,461.03538129999924,,,,,,,,,,,,,,,,,,,865,21,M,R,2026-02-18_12h13.19.419,VisualSearch_2526_3,,2025.2.4,2026-02-18 12h13.19.635659 +0100,
vertical.xlsx,The target is tilted.,135,5,5,0,1,0,0,0,0,0,0,0,0,0,0,0,0,0,1,135,space,5.767802100000154,None,1,1,0.4639587000001484,None,,,,0,1,1,1,0,5,5,3,,,,,461.86327529999926,,,,,,,,,,,,,,,,,,,,,461.84795829999985,461.86327529999926,462.34657829999924,462.34879829999954,462.3632953999995,462.83053689999997,1,1,0.4639587000001484,None,462.8307032999992,462.84643809999943,463.0465260000001,463.0300324,462.3632953999995,,,,,,,,,,,,,,,,,,,865,21,M,R,2026-02-18_12h13.19.419,VisualSearch_2526_3,,2025.2.4,2026-02-18 12h13.19.635659 +0100,
vertical.xlsx,The target is tilted.,135,6,6,0,0,1,1,1,0,0,0,0,0,0,0,0,1,3,4,135,space,5.767802100000154,None,0,1,0.7254241000000548,None,,,,0,1,1,1,0,6,6,6,,,,,463.0465260000001,,,,,,,,,,,,,,,,,,,,,463.0307401,463.0465260000001,463.53012919999946,463.53504350000003,463.55126870000004,464.2795965999994,0,1,0.7254241000000548,None,464.27972599999976,464.2954286999993,464.4958231999999,464.47962499999994,463.55126870000004,,,,,,,,,,,,,,,,,,,865,21,M,R,2026-02-18_12h13.19.419,VisualSearch_2526_3,,2025.2.4,2026-02-18 12h13.19.635659 +0100,
vertical.xlsx,The target is tilted.,135,7,7,0,1,1,1,1,0,0,0,0,0,0,0,0,0,3,4,135,space,5.767802100000154,None,1,1,0.5554524999997739,None,,,,0,1,1,1,0,7,7,2,,,,,464.4958231999999,,,,,,,,,,,,,,,,,,,,,464.48033809999924,464.4958231999999,464.9794753999995,464.98439749999943,465.00060349999967,465.56304120000004,1,1,0.5554524999997739,None,465.5632264999995,465.5784986999997,465.77860689999943,465.7622008999997,465.00060349999967,,,,,,,,,,,,,,,,,,,865,21,M,R,2026-02-18_12h13.19.419,VisualSearch_2526_3,,2025.2.4,2026-02-18 12h13.19.635659 +0100,
vertical.xlsx,The target is tilted.,135,0,0,0,0,1,1,1,0,0,0,0,0,0,0,0,1,3,4,135,space,5.767802100000154,None,0,1,6.427277400000094,None,space,3.5242801000003965,None,0,1,1,1,,,,,0,0,0,6,469.33944299999985,,,,,,,,,,,,,,,,,,,,,469.3353582999998,469.33944299999985,469.82684139999947,469.8318569999992,469.84743509999953,476.29162180000003,,,,,476.29182760000003,476.30707540000003,476.5066973999992,476.4909334999993,,465.7689849999997,465.77860689999943,465.77860689999943,469.31125279999924,space,3.5242801000003965,None,0,1,6.427277400000094,None,,,,,,,,865,21,M,R,2026-02-18_12h13.19.419,VisualSearch_2526_3,,2025.2.4,2026-02-18 12h13.19.635659 +0100,
vertical.xlsx,The target is tilted.,135,1,1,0,1,1,1,1,0,0,0,0,0,0,0,0,0,3,4,135,space,5.767802100000154,None,1,1,1.3466726999995444,None,space,3.5242801000003965,None,0,1,1,1,,,,,0,1,1,2,476.5066973999992,,,,,,,,,,,,,,,,,,,,,476.49165039999934,476.5066973999992,476.9907739999999,476.9956698999995,477.0090559,478.3565174999994,,,,,478.35663059999933,478.372558,478.5728774999998,478.5568083999997,477.0090559,,,,,,,,1,1,1.3466726999995444,None,,,,,,,,865,21,M,R,2026-02-18_12h13.19.419,VisualSearch_2526_3,,2025.2.4,2026-02-18 12h13.19.635659 +0100,
vertical.xlsx,The target is tilted.,135,2,2,0,0,1,1,1,1,1,1,1,1,1,1,1,1,11,12,135,space,5.767802100000154,None,0,1,2.908683700000438,None,space,3.5242801000003965,None,0,1,1,1,,,,,0,2,2,4,478.5728774999998,,,,,,,,,,,,,,,,,,,,,478.5575702999995,478.5728774999998,479.0563904999999,479.0611222999996,479.0724448000001,481.98822179999934,,,,,481.9883439999994,482.00420209999993,482.20402529999956,482.18802719999985,479.0724448000001,,,,,,,,0,1,2.908683700000438,None,,,,,,,,865,21,M,R,2026-02-18_12h13.19.419,VisualSearch_2526_3,,2025.2.4,2026-02-18 12h13.19.635659 +0100,
vertical.xlsx,The target is tilted.,135,3,3,0,1,0,0,0,0,0,0,0,0,0,0,0,0,0,1,135,space,5.767802100000154,None,1,1,0.5282541000005949,None,space,3.5242801000003965,None,0,1,1,1,,,,,0,3,3,3,482.20402529999956,,,,,,,,,,,,,,,,,,,,,482.18877689999954,482.20402529999956,482.6882689999993,482.6936868999992,482.7079486999992,483.2377360999999,,,,,483.2379050999998,483.2538715999999,483.45405969999956,483.4377778999997,482.7079486999992,,,,,,,,1,1,0.5282541000005949,None,,,,,,,,865,21,M,R,2026-02-18_12h13.19.419,VisualSearch_2526_3,,2025.2.4,2026-02-18 12h13.19.635659 +0100,
vertical.xlsx,The target is tilted.,135,4,4,0,1,1,1,1,1,1,1,1,0,0,0,0,0,7,8,135,space,5.767802100000154,None,1,1,0.8492184000006091,None,space,3.5242801000003965,None,0,1,1,1,,,,,0,4,4,1,483.45405969999956,,,,,,,,,,,,,,,,,,,,,483.43850380000003,483.45405969999956,483.93722419999995,483.9421345999999,483.9552948999999,484.8210313999998,,,,,484.82122009999966,484.83623349999925,485.0364422999992,485.02045,483.9552948999999,,,,,,,,1,1,0.8492184000006091,None,,,,,,,,865,21,M,R,2026-02-18_12h13.19.419,VisualSearch_2526_3,,2025.2.4,2026-02-18 12h13.19.635659 +0100,
vertical.xlsx,The target is tilted.,135,5,5,0,0,1,1,1,1,1,1,1,0,0,0,0,1,7,8,135,space,5.767802100000154,None,0,1,1.6780549000004612,None,space,3.5242801000003965,None,0,1,1,1,,,,,0,5,5,5,485.0364422999992,,,,,,,,,,,,,,,,,,,,,485.0212133999994,485.0364422999992,485.52006039999924,485.52501499999926,485.5416160999994,487.2359044999994,,,,,487.2359841999996,487.2518492999998,487.4521227999994,487.43605059999936,485.5416160999994,,,,,,,,0,1,1.6780549000004612,None,,,,,,,,865,21,M,R,2026-02-18_12h13.19.419,VisualSearch_2526_3,,2025.2.4,2026-02-18 12h13.19.635659 +0100,
vertical.xlsx,The target is tilted.,135,6,6,0,0,0,0,0,0,0,0,0,0,0,0,0,1,1,1,135,space,5.767802100000154,None,0,1,0.4878550000003088,None,space,3.5242801000003965,None,0,1,1,1,,,,,0,6,6,7,487.4521227999994,,,,,,,,,,,,,,,,,,,,,487.4367747999995,487.4521227999994,487.9356762999996,487.94059489999927,487.95557689999987,488.4525894999997,,,,,488.4527595999998,488.46816539999963,488.6682314999998,488.65211849999923,487.95557689999987,,,,,,,,0,1,0.4878550000003088,None,,,,,,,,865,21,M,R,2026-02-18_12h13.19.419,VisualSearch_2526_3,,2025.2.4,2026-02-18 12h13.19.635659 +0100,
vertical.xlsx,The target is tilted.,135,7,7,0,1,1,1,1,1,1,1,1,1,1,1,1,0,11,12,135,space,5.767802100000154,None,1,1,1.1620082999997976,None,space,3.5242801000003965,None,0,1,1,1,,,,,0,7,7,0,488.6682314999998,,,,,,,,,,,,,,,,,,,,,488.65285829999993,488.6682314999998,489.1516765999995,489.15670769999997,489.17147810000006,490.3347496999995,,,,,490.33486809999977,490.35033309999926,490.55072669999936,490.53462239999953,489.17147810000006,,,,,,,,1,1,1.1620082999997976,None,,,,,,,,865,21,M,R,2026-02-18_12h13.19.419,VisualSearch_2526_3,,2025.2.4,2026-02-18 12h13.19.635659 +0100,
vertical.xlsx,The target is tilted.,135,8,0,1,0,0,0,0,0,0,0,0,0,0,0,0,1,1,1,135,space,5.767802100000154,None,0,1,0.48042069999974046,None,space,3.5242801000003965,None,0,1,1,1,,,,,1,0,8,7,490.55072669999936,,,,,,,,,,,,,,,,,,,,,490.5353439999999,490.55072669999936,491.03460109999924,491.0395226999999,491.05483789999926,491.55104200000005,,,,,491.5512001999996,491.56646699999965,491.76651089999996,491.75062999999955,491.05483789999926,,,,,,,,0,1,0.48042069999974046,None,,,,,,,,865,21,M,R,2026-02-18_12h13.19.419,VisualSearch_2526_3,,2025.2.4,2026-02-18 12h13.19.635659 +0100,
vertical.xlsx,The target is tilted.,135,9,1,1,0,1,1,1,1,1,1,1,1,1,1,1,1,11,12,135,space,5.767802100000154,None,0,1,3.8975288999999975,None,space,3.5242801000003965,None,0,1,1,1,,,,,1,1,9,4,491.76651089999996,,,,,,,,,,,,,,,,,,,,,491.75138569999945,491.76651089999996,492.2505373999993,492.2553018999997,492.2663823999992,496.1653757999993,,,,,496.1654985999994,496.18130999999994,496.38110329999927,496.36503379999976,492.2663823999992,,,,,,,,0,1,3.8975288999999975,None,,,,,,,,865,21,M,R,2026-02-18_12h13.19.419,VisualSearch_2526_3,,2025.2.4,2026-02-18 12h13.19.635659 +0100,
vertical.xlsx,The target is tilted.,135,10,2,1,0,1,1,1,0,0,0,0,0,0,0,0,1,3,4,135,space,5.767802100000154,None,0,1,0.7116307999995115,None,space,3.5242801000003965,None,0,1,1,1,,,,,1,2,10,6,496.38110329999927,,,,,,,,,,,,,,,,,,,,,496.36582589999944,496.38110329999927,496.8649263999996,496.86944239999957,496.88451540000005,497.5984633999997,,,,,497.5986520999995,497.61393379999936,497.8140743999993,497.79773899999964,496.88451540000005,,,,,,,,0,1,0.7116307999995115,None,,,,,,,,865,21,M,R,2026-02-18_12h13.19.419,VisualSearch_2526_3,,2025.2.4,2026-02-18 12h13.19.635659 +0100,
vertical.xlsx,The target is tilted.,135,11,3,1,0,1,1,1,1,1,1,1,0,0,0,0,1,7,8,135,space,5.767802100000154,None,0,1,1.5740261999999348,None,space,3.5242801000003965,None,0,1,1,1,,,,,1,3,11,5,497.8140743999993,,,,,,,,,,,,,,,,,,,,,497.7986201999993,497.8140743999993,498.2974962999997,498.30257729999994,498.31732869999996,499.8974468999995,,,,,499.89763719999974,499.91308149999986,500.11287939999966,500.0968069999999,498.31732869999996,,,,,,,,0,1,1.5740261999999348,None,,,,,,,,865,21,M,R,2026-02-18_12h13.19.419,VisualSearch_2526_3,,2025.2.4,2026-02-18 12h13.19.635659 +0100,
vertical.xlsx,The target is tilted.,135,12,4,1,1,1,1,1,0,0,0,0,0,0,0,0,0,3,4,135,space,5.767802100000154,None,1,1,0.5713046000000759,None,space,3.5242801000003965,None,0,1,1,1,,,,,1,4,12,2,500.11287939999966,,,,,,,,,,,,,,,,,,,,,500.0975699999999,500.11287939999966,500.5968895999995,500.60184109999955,500.61724799999956,501.19694809999964,,,,,501.1971367999995,501.2120811999994,501.41235589999997,501.3962924999996,500.61724799999956,,,,,,,,1,1,0.5713046000000759,None,,,,,,,,865,21,M,R,2026-02-18_12h13.19.419,VisualSearch_2526_3,,2025.2.4,2026-02-18 12h13.19.635659 +0100,
vertical.xlsx,The target is tilted.,135,13,5,1,1,1,1,1,1,1,1,1,1,1,1,1,0,11,12,135,space,5.767802100000154,None,1,1,1.2100249000004624,None,space,3.5242801000003965,None,0,1,1,1,,,,,1,5,13,0,501.41235589999997,,,,,,,,,,,,,,,,,,,,,501.39707719999933,501.41235589999997,501.8958230999997,501.9006395999995,501.91547420000006,503.1291023999993,,,,,503.1292924999998,503.1450053999997,503.3446951999995,503.32870619999994,501.91547420000006,,,,,,,,1,1,1.2100249000004624,None,,,,,,,,865,21,M,R,2026-02-18_12h13.19.419,VisualSearch_2526_3,,2025.2.4,2026-02-18 12h13.19.635659 +0100,
vertical.xlsx,The target is tilted.,135,14,6,1,1,1,1,1,1,1,1,1,0,0,0,0,0,7,8,135,space,5.767802100000154,None,1,1,1.3430173000006107,None,space,3.5242801000003965,None,0,1,1,1,,,,,1,6,14,1,503.3446951999995,,,,,,,,,,,,,,,,,,,,,503.3294675999996,503.3446951999995,503.8285664999994,503.8333969999994,503.8493819999994,505.1950933999997,,,,,505.19527930000004,505.21057070000006,505.4106377999997,505.3940598999998,503.8493819999994,,,,,,,,1,1,1.3430173000006107,None,,,,,,,,865,21,M,R,2026-02-18_12h13.19.419,VisualSearch_2526_3,,2025.2.4,2026-02-18 12h13.19.635659 +0100,
vertical.xlsx,The target is tilted.,135,15,7,1,1,0,0,0,0,0,0,0,0,0,0,0,0,0,1,135,space,5.767802100000154,None,1,1,0.6420972999994774,None,space,3.5242801000003965,None,0,1,1,1,,,,,1,7,15,3,505.4106377999997,,,,,,,,,,,,,,,,,,,,,505.39482229999976,505.4106377999997,505.89438040000005,505.8995619999996,505.9155501999994,506.5610429999997,,,,,506.5612386999992,506.5766746999998,506.77625869999974,506.7605298999997,505.9155501999994,,,,,,,,1,1,0.6420972999994774,None,,,,,,,,865,21,M,R,2026-02-18_12h13.19.419,VisualSearch_2526_3,,2025.2.4,2026-02-18 12h13.19.635659 +0100,
vertical.xlsx,The target is tilted.,135,16,0,2,1,1,1,1,1,1,1,1,0,0,0,0,0,7,8,135,space,5.767802100000154,None,1,1,0.8726780999995754,None,space,3.5242801000003965,None,0,1,1,1,,,,,2,0,16,1,506.77625869999974,,,,,,,,,,,,,,,,,,,,,506.7612492999997,506.77625869999974,507.2603196,507.2652496999999,507.28180489999977,508.1604267999992,,,,,508.1606161999998,508.17613059999985,508.37606759999926,508.36003569999957,507.28180489999977,,,,,,,,1,1,0.8726780999995754,None,,,,,,,,865,21,M,R,2026-02-18_12h13.19.419,VisualSearch_2526_3,,2025.2.4,2026-02-18 12h13.19.635659 +0100,
vertical.xlsx,The target is tilted.,135,17,1,2,0,1,1,1,1,1,1,1,0,0,0,0,1,7,8,135,space,5.767802100000154,None,0,1,1.7835405000005267,None,space,3.5242801000003965,None,0,1,1,1,,,,,2,1,17,5,508.37606759999926,,,,,,,,,,,,,,,,,,,,,508.3608512999999,508.37606759999926,508.85948669999925,508.8643938999994,508.88038589999996,510.6755502999995,,,,,510.6756730999996,510.6915494999994,510.8914068999993,510.87482049999926,508.88038589999996,,,,,,,,0,1,1.7835405000005267,None,,,,,,,,865,21,M,R,2026-02-18_12h13.19.419,VisualSearch_2526_3,,2025.2.4,2026-02-18 12h13.19.635659 +0100,
vertical.xlsx,The target is tilted.,135,18,2,2,0,1,1,1,1,1,1,1,1,1,1,1,1,11,12,135,space,5.767802100000154,None,0,1,2.395150299999841,None,space,3.5242801000003965,None,0,1,1,1,,,,,2,2,18,4,510.8914068999993,,,,,,,,,,,,,,,,,,,,,510.8755779999992,510.8914068999993,511.3747797999995,511.3783135999993,511.3911159999998,513.7903532,,,,,513.7904546,513.8064443999992,514.0064669999992,513.9904911999993,511.3911159999998,,,,,,,,0,1,2.395150299999841,None,,,,,,,,865,21,M,R,2026-02-18_12h13.19.419,VisualSearch_2526_3,,2025.2.4,2026-02-18 12h13.19.635659 +0100,
vertical.xlsx,The target is tilted.,135,19,3,2,0,1,1,1,0,0,0,0,0,0,0,0,1,3,4,135,space,5.767802100000154,None,0,1,0.8430742999998984,None,space,3.5242801000003965,None,0,1,1,1,,,,,2,3,19,6,514.0064669999992,,,,,,,,,,,,,,,,,,,,,513.9912844,514.0064669999992,514.4903126999998,514.4951980999995,514.5089330999999,515.3564604999992,,,,,515.3566047999993,515.3724506999997,515.5726675999995,515.5564875999999,514.5089330999999,,,,,,,,0,1,0.8430742999998984,None,,,,,,,,865,21,M,R,2026-02-18_12h13.19.419,VisualSearch_2526_3,,2025.2.4,2026-02-18 12h13.19.635659 +0100,
vertical.xlsx,The target is tilted.,135,20,4,2,1,1,1,1,0,0,0,0,0,0,0,0,0,3,4,135,space,5.767802100000154,None,1,1,0.5037480000000869,None,space,3.5242801000003965,None,0,1,1,1,,,,,2,4,20,2,515.5726675999995,,,,,,,,,,,,,,,,,,,,,515.5573015999998,515.5726675999995,516.0559590999992,516.0608011999993,516.0757897999993,516.5891889999994,,,,,516.5893226999997,516.6053175999996,516.8054302999999,516.7893955999998,516.0757897999993,,,,,,,,1,1,0.5037480000000869,None,,,,,,,,865,21,M,R,2026-02-18_12h13.19.419,VisualSearch_2526_3,,2025.2.4,2026-02-18 12h13.19.635659 +0100,
vertical.xlsx,The target is tilted.,135,21,5,2,0,0,0,0,0,0,0,0,0,0,0,0,1,1,1,135,space,5.767802100000154,None,0,1,0.4967425999993793,None,space,3.5242801000003965,None,0,1,1,1,,,,,2,5,21,7,516.8054302999999,,,,,,,,,,,,,,,,,,,,,516.7901293999994,516.8054302999999,517.2890991999993,517.2940425999996,517.3080709999995,517.8221083999997,,,,,517.8222862999992,517.8381172999998,518.0378037999999,518.0220860999998,517.3080709999995,,,,,,,,0,1,0.4967425999993793,None,,,,,,,,865,21,M,R,2026-02-18_12h13.19.419,VisualSearch_2526_3,,2025.2.4,2026-02-18 12h13.19.635659 +0100,
vertical.xlsx,The target is tilted.,135,22,6,2,1,1,1,1,1,1,1,1,1,1,1,1,0,11,12,135,space,5.767802100000154,None,1,1,0.6772835000001578,None,space,3.5242801000003965,None,0,1,1,1,,,,,2,6,22,0,518.0378037999999,,,,,,,,,,,,,,,,,,,,,518.0228975,518.0378037999999,518.5217791999994,518.5267556999997,518.5417332999996,519.2222753999995,,,,,519.2224885999995,519.2375779999993,519.4375780999999,519.4213550999993,518.5417332999996,,,,,,,,1,1,0.6772835000001578,None,,,,,,,,865,21,M,R,2026-02-18_12h13.19.419,VisualSearch_2526_3,,2025.2.4,2026-02-18 12h13.19.635659 +0100,
vertical.xlsx,The target is tilted.,135,23,7,2,1,0,0,0,0,0,0,0,0,0,0,0,0,0,1,135,space,5.767802100000154,None,1,1,0.46264350000001286,None,space,3.5242801000003965,None,0,1,1,1,,,,,2,7,23,3,519.4375780999999,,,,,,,,,,,,,,,,,,,,,519.4221333999994,519.4375780999999,519.9212256000001,519.9260673999997,519.9415611999993,520.4213640999997,,,,,520.4215373999996,520.4368718999995,520.6370139,520.6208247999994,519.9415611999993,,,,,,,,1,1,0.46264350000001286,None,,,,,,,,865,21,M,R,2026-02-18_12h13.19.419,VisualSearch_2526_3,,2025.2.4,2026-02-18 12h13.19.635659 +0100,
vertical.xlsx,The target is tilted.,135,24,0,3,0,1,1,1,1,1,1,1,1,1,1,1,1,11,12,135,space,5.767802100000154,None,0,1,1.8937915000005887,None,space,3.5242801000003965,None,0,1,1,1,,,,,3,0,24,4,520.6370139,,,,,,,,,,,,,,,,,,,,,520.6216089,520.6370139,521.1206847999993,521.1247211,521.1361054999998,523.0367330999998,,,,,523.0369205999996,523.0521639999997,523.2524562999997,523.2363793999994,521.1361054999998,,,,,,,,0,1,1.8937915000005887,None,,,,,,,,865,21,M,R,2026-02-18_12h13.19.419,VisualSearch_2526_3,,2025.2.4,2026-02-18 12h13.19.635659 +0100,
vertical.xlsx,The target is tilted.,135,25,1,3,1,1,1,1,0,0,0,0,0,0,0,0,0,3,4,135,space,5.767802100000154,None,1,1,0.5190748000004533,None,space,3.5242801000003965,None,0,1,1,1,,,,,3,1,25,2,523.2524562999997,,,,,,,,,,,,,,,,,,,,,523.2371509999994,523.2524562999997,523.7362327999999,523.7406551999993,523.7521764999992,524.2857826,,,,,524.2859494999993,524.3019859999995,524.5020282999994,524.4859399999996,523.7521764999992,,,,,,,,1,1,0.5190748000004533,None,,,,,,,,865,21,M,R,2026-02-18_12h13.19.419,VisualSearch_2526_3,,2025.2.4,2026-02-18 12h13.19.635659 +0100,
vertical.xlsx,The target is tilted.,135,26,2,3,0,0,0,0,0,0,0,0,0,0,0,0,1,1,1,135,space,5.767802100000154,None,0,1,0.44813389999944775,None,space,3.5242801000003965,None,0,1,1,1,,,,,3,2,26,7,524.5020282999994,,,,,,,,,,,,,,,,,,,,,524.4867355999995,524.5020282999994,524.9856172999998,524.9904704,525.0065338999993,525.4691016999996,,,,,525.4692736999996,525.4848061999992,525.6845592999998,525.6681943999993,525.0065338999993,,,,,,,,0,1,0.44813389999944775,None,,,,,,,,865,21,M,R,2026-02-18_12h13.19.419,VisualSearch_2526_3,,2025.2.4,2026-02-18 12h13.19.635659 +0100,
vertical.xlsx,The target is tilted.,135,27,3,3,1,1,1,1,1,1,1,1,0,0,0,0,0,7,8,135,space,5.767802100000154,None,1,1,0.5143751000005068,None,space,3.5242801000003965,None,0,1,1,1,,,,,3,3,27,1,525.6845592999998,,,,,,,,,,,,,,,,,,,,,525.6690390999993,525.6845592999998,526.1683556999997,526.1732515999993,526.1900817999995,526.7172747999994,,,,,526.7173632999993,526.7339850999997,,526.9177301999998,526.1900817999995,,,,,,,,1,1,0.5143751000005068,None,,,,,,,,865,21,M,R,2026-02-18_12h13.19.419,VisualSearch_2526_3,,2025.2.4,2026-02-18 12h13.19.635659 +0100,
vertical.xlsx,The target is tilted.,135,28,4,3,1,0,0,0,0,0,0,0,0,0,0,0,0,0,1,135,space,5.767802100000154,None,1,1,0.5644656999993458,None,space,3.5242801000003965,None,0,1,1,1,,,,,3,4,28,3,526.9341943,,,,,,,,,,,,,,,,,,,,,526.9184602999994,526.9341943,527.4176955999992,527.4225538999999,527.4339002999996,528.0005433999995,,,,,528.0006448999993,528.0165580999992,528.2167337999999,528.2009761999998,,,,,,,,,1,1,0.5644656999993458,None,,,,,,,,865,21,M,R,2026-02-18_12h13.19.419,VisualSearch_2526_3,,2025.2.4,2026-02-18 12h13.19.635659 +0100,
vertical.xlsx,The target is tilted.,135,29,5,3,0,1,1,1,1,1,1,1,0,0,0,0,1,7,8,135,space,5.767802100000154,None,0,1,1.1102585999997245,None,space,3.5242801000003965,None,0,1,1,1,,,,,3,5,29,5,528.2167337999999,,,,,,,,,,,,,,,,,,,,,528.2018216999995,528.2167337999999,528.7004190999996,528.7053634999993,528.7212439999994,529.8339035999998,,,,,529.8340928999996,529.8494555999996,530.0495108999994,530.0333553999999,528.7212439999994,,,,,,,,0,1,1.1102585999997245,None,,,,,,,,865,21,M,R,2026-02-18_12h13.19.419,VisualSearch_2526_3,,2025.2.4,2026-02-18 12h13.19.635659 +0100,
vertical.xlsx,The target is tilted.,135,30,6,3,0,1,1,1,0,0,0,0,0,0,0,0,1,3,4,135,space,5.767802100000154,None,0,1,0.5220533000001524,None,space,3.5242801000003965,None,0,1,1,1,,,,,3,6,30,6,530.0495108999994,,,,,,,,,,,,,,,,,,,,,530.034138,530.0495108999994,530.5330580999998,530.5379343999994,530.5528998999998,531.0830589999996,,,,,531.0832230999995,531.0987488000001,531.2988763999992,531.2828018,530.5528998999998,,,,,,,,0,1,0.5220533000001524,None,,,,,,,,865,21,M,R,2026-02-18_12h13.19.419,VisualSearch_2526_3,,2025.2.4,2026-02-18 12h13.19.635659 +0100,
vertical.xlsx,The target is tilted.,135,31,7,3,1,1,1,1,1,1,1,1,1,1,1,1,0,11,12,135,space,5.767802100000154,None,1,1,0.6970024000002013,None,space,3.5242801000003965,None,0,1,1,1,,,,,3,7,31,0,531.2988763999992,,,,,,,,,,,,,,,,,,,,,531.2835921999995,531.2988763999992,531.7825195999994,531.7875679999997,531.8024662999997,532.5162348999993,,,,,532.5164306999995,532.5313394999994,532.7315795999993,532.7155092999992,531.8024662999997,,,,,,,,1,1,0.6970024000002013,None,,,,,,,,865,21,M,R,2026-02-18_12h13.19.419,VisualSearch_2526_3,,2025.2.4,2026-02-18 12h13.19.635659 +0100,
vertical.xlsx,The target is tilted.,135,32,0,4,1,1,1,1,1,1,1,1,0,0,0,0,0,7,8,135,space,5.767802100000154,None,1,1,0.8492440999998507,None,space,3.5242801000003965,None,0,1,1,1,,,,,4,0,32,1,532.7315795999993,,,,,,,,,,,,,,,,,,,,,532.7162361000001,532.7315795999993,533.2148478999998,533.2198333999995,533.2361258000001,534.0987433,,,,,534.0989359999994,534.1143640999999,534.3142635999993,534.2978602999992,533.2361258000001,,,,,,,,1,1,0.8492440999998507,None,,,,,,,,865,21,M,R,2026-02-18_12h13.19.419,VisualSearch_2526_3,,2025.2.4,2026-02-18 12h13.19.635659 +0100,
vertical.xlsx,The target is tilted.,135,33,1,4,1,1,1,1,0,0,0,0,0,0,0,0,0,3,4,135,space,5.767802100000154,None,1,1,0.6061061000000336,None,space,3.5242801000003965,None,0,1,1,1,,,,,4,1,33,2,534.3142635999993,,,,,,,,,,,,,,,,,,,,,534.2985775999996,534.3142635999993,534.7977021999995,534.8024759,534.8186244999997,535.4309071999996,,,,,535.4310963999997,535.4466895999994,535.6465967999993,535.6307039999992,534.8186244999997,,,,,,,,1,1,0.6061061000000336,None,,,,,,,,865,21,M,R,2026-02-18_12h13.19.419,VisualSearch_2526_3,,2025.2.4,2026-02-18 12h13.19.635659 +0100,
vertical.xlsx,The target is tilted.,135,34,2,4,1,1,1,1,1,1,1,1,1,1,1,1,0,11,12,135,space,5.767802100000154,None,1,1,0.9809318000006897,None,space,3.5242801000003965,None,0,1,1,1,,,,,4,2,34,0,535.6465967999993,,,,,,,,,,,,,,,,,,,,,535.6315050999992,535.6465967999993,536.1304952,536.1355584999992,536.1516453999993,537.1469146999998,,,,,537.1470589999999,537.1628125999996,537.3623908,537.3462242999994,536.1516453999993,,,,,,,,1,1,0.9809318000006897,None,,,,,,,,865,21,M,R,2026-02-18_12h13.19.419,VisualSearch_2526_3,,2025.2.4,2026-02-18 12h13.19.635659 +0100,
