file_name,block_instructions,target_example,thisN,thisTrialN,thisRepN,target_presence,opacity_1,opacity_2,opacity_3,opacity_4,opacity_5,opacity_6,opacity_7,opacity_8,opacity_9,opacity_10,opacity_11,opacity_12,n_distract,n_items,target_ori,key_resp_4.keys,key_resp_4.rt,key_resp_4.duration,key_resp.keys,key_resp.corr,key_resp.rt,key_resp.duration,key_resp_5.keys,key_resp_5.rt,key_resp_5.duration,blocks.thisRepN,blocks.thisTrialN,blocks.thisN,blocks.thisIndex,practice_trials.thisRepN,practice_trials.thisTrialN,practice_trials.thisN,practice_trials.thisIndex,trials.thisRepN,trials.thisTrialN,trials.thisN,trials.thisIndex,thisRow.t,notes,Welcome.started,WelcomeText.started,key_resp_2.started,Welcome.stopped,key_resp_2.keys,key_resp_2.rt,key_resp_2.duration,InformedConsent.started,text_4.started,InformedConsent.stopped,key_resp_6.keys,key_resp_6.rt,key_resp_6.duration,key_resp_4.started,example_target.started,text_3.started,blocks.key_resp_4.keys,blocks.key_resp_4.rt,blocks.key_resp_4.duration,FixCross.started,fixCross.started,FixCross.stopped,Stimulus.started,key_resp.started,Stimulus.stopped,practice_trials.key_resp.keys,practice_trials.key_resp.corr,practice_trials.key_resp.rt,practice_trials.key_resp.duration,BlankScreen.started,text.started,text.stopped,BlankScreen.stopped,fixCross.stopped,ExperimentStart.started,text_2.started,key_resp_5.started,ExperimentStart.stopped,blocks.key_resp_5.keys,blocks.key_resp_5.rt,blocks.key_resp_5.duration,trials.key_resp.keys,trials.key_resp.corr,trials.key_resp.rt,trials.key_resp.duration,Thanks.started,ThankYou.started,key_resp_3.started,Thanks.stopped,key_resp_3.keys,key_resp_3.rt,key_resp_3.duration,participant,leeftijd,gender,links/rechtshandig,date,expName,expVersion,psychopyVersion,expStart,
,,,,,,,,,,,,,,,,,,,,,,,,,,,,,,,,,,,,,,,,,,,,,,0.012911499999972875,0.04168350000054488,0.04168350000054488,25.281049900000653,space,25.210414299999684,None,,,,,,,,,,,,,,,,,,,,,,,,,,,,,,,,,,,,,,,,,,,,,,866,22,M,L,2026-02-18_12h28.55.581,VisualSearch_2526_3,,2025.2.4,2026-02-18 12h28.55.778699 +0100,
,,,,,,,,,,,,,,,,,,,,,,,,,,,,,,,,,,,,,,,,,,,,,,,,,,,,,25.281142499999987,25.288193299999875,28.231604100000368,y,2.9365430999996534,None,,,,,,,,,,,,,,,,,,,,,,,,,,,,,,,,,,,,,,,,866,22,M,L,2026-02-18_12h28.55.581,VisualSearch_2526_3,,2025.2.4,2026-02-18 12h28.55.778699 +0100,
tilted.xlsx,The target is tilted.,117,0,0,0,0,1,1,1,1,1,1,1,0,0,0,0,1,7,8,117,space,3.618123100000048,None,1,0,2.2167316000004575,None,,,,0,0,0,0,0,0,0,5,,,,,31.923403800000415,,,,,,,,,,,,,,,28.26869590000024,28.26869590000024,28.26869590000024,space,3.618123100000048,None,31.918431000000055,31.923403800000415,32.41210890000002,32.41725840000072,32.432176600000275,34.661575099999936,1,0,2.2167316000004575,None,34.66168970000035,34.67746780000016,34.87737360000028,34.86050310000064,,,,,,,,,,,,,,,,,,,,866,22,M,L,2026-02-18_12h28.55.581,VisualSearch_2526_3,,2025.2.4,2026-02-18 12h28.55.778699 +0100,
tilted.xlsx,The target is tilted.,117,1,1,0,1,1,1,1,1,1,1,1,1,1,1,1,0,11,12,117,space,3.618123100000048,None,1,1,1.897805999999946,None,,,,0,0,0,0,0,1,1,0,,,,,34.87737360000028,,,,,,,,,,,,,,,,,,,,,34.860845100000006,34.87737360000028,35.36122950000026,35.366112100000464,35.38158000000021,37.29412830000001,1,1,1.897805999999946,None,37.29432010000073,37.309397300000455,37.50947290000022,37.49331230000007,35.38158000000021,,,,,,,,,,,,,,,,,,,866,22,M,L,2026-02-18_12h28.55.581,VisualSearch_2526_3,,2025.2.4,2026-02-18 12h28.55.778699 +0100,
tilted.xlsx,The target is tilted.,117,2,2,0,0,1,1,1,1,1,1,1,1,1,1,1,1,11,12,117,space,3.618123100000048,None,0,1,1.770821999999498,None,,,,0,0,0,0,0,2,2,4,,,,,37.50947290000022,,,,,,,,,,,,,,,,,,,,,37.49399520000043,37.50947290000022,37.993286300000364,37.9981686000001,38.01279030000023,39.792899600000055,0,1,1.770821999999498,None,39.793073700000605,39.8080987000003,40.008616600000096,39.99186610000015,38.01279030000023,,,,,,,,,,,,,,,,,,,866,22,M,L,2026-02-18_12h28.55.581,VisualSearch_2526_3,,2025.2.4,2026-02-18 12h28.55.778699 +0100,
tilted.xlsx,The target is tilted.,117,3,3,0,0,0,0,0,0,0,0,0,0,0,0,0,1,1,1,117,space,3.618123100000048,None,0,1,1.443469300000288,None,,,,0,0,0,0,0,3,3,7,,,,,40.008616600000096,,,,,,,,,,,,,,,,,,,,,39.992574400000194,40.008616600000096,40.492154100000334,40.49702620000062,40.511464199999864,41.9584076000001,0,1,1.443469300000288,None,41.95859730000029,41.973865100000694,42.173803900000166,42.15772250000009,40.511464199999864,,,,,,,,,,,,,,,,,,,866,22,M,L,2026-02-18_12h28.55.581,VisualSearch_2526_3,,2025.2.4,2026-02-18 12h28.55.778699 +0100,
tilted.xlsx,The target is tilted.,117,4,4,0,0,1,1,1,0,0,0,0,0,0,0,0,1,3,4,117,space,3.618123100000048,None,0,1,1.0215582999999242,None,,,,0,0,0,0,0,4,4,6,,,,,42.173803900000166,,,,,,,,,,,,,,,,,,,,,42.15838620000068,42.173803900000166,42.657642600000145,42.66249120000066,42.67741400000068,43.7075904000003,0,1,1.0215582999999242,None,43.7077632999999,43.72281449999991,43.92295400000057,43.90735040000072,42.67741400000068,,,,,,,,,,,,,,,,,,,866,22,M,L,2026-02-18_12h28.55.581,VisualSearch_2526_3,,2025.2.4,2026-02-18 12h28.55.778699 +0100,
tilted.xlsx,The target is tilted.,117,5,5,0,1,0,0,0,0,0,0,0,0,0,0,0,0,0,1,117,space,3.618123100000048,None,1,1,0.6982542000005196,None,,,,0,0,0,0,0,5,5,3,,,,,43.92295400000057,,,,,,,,,,,,,,,,,,,,,43.90805929999988,43.92295400000057,44.40710290000061,44.41200939999999,44.427455400000326,45.13975660000051,1,1,0.6982542000005196,None,45.139895199999955,45.155728499999896,45.35616950000076,45.339481400000295,44.427455400000326,,,,,,,,,,,,,,,,,,,866,22,M,L,2026-02-18_12h28.55.581,VisualSearch_2526_3,,2025.2.4,2026-02-18 12h28.55.778699 +0100,
tilted.xlsx,The target is tilted.,117,6,6,0,1,1,1,1,1,1,1,1,0,0,0,0,0,7,8,117,space,3.618123100000048,None,1,1,1.4956842999999935,None,,,,0,0,0,0,0,6,6,1,,,,,45.35616950000076,,,,,,,,,,,,,,,,,,,,,45.34014670000033,45.35616950000076,45.839739300000474,45.844669400000384,45.86010510000051,47.372131800000716,1,1,1.4956842999999935,None,47.37228680000044,47.38794140000027,47.58844080000017,47.57196019999992,45.86010510000051,,,,,,,,,,,,,,,,,,,866,22,M,L,2026-02-18_12h28.55.581,VisualSearch_2526_3,,2025.2.4,2026-02-18 12h28.55.778699 +0100,
tilted.xlsx,The target is tilted.,117,7,7,0,1,1,1,1,0,0,0,0,0,0,0,0,0,3,4,117,space,3.618123100000048,None,1,1,0.8745754999999917,None,,,,0,0,0,0,0,7,7,2,,,,,47.58844080000017,,,,,,,,,,,,,,,,,,,,,47.57265009999992,47.58844080000017,48.07169430000067,48.07648310000059,48.09155920000012,48.971712300000036,1,1,0.8745754999999917,None,48.97185360000003,48.9873548000005,49.18756790000043,49.17176720000043,48.09155920000012,,,,,,,,,,,,,,,,,,,866,22,M,L,2026-02-18_12h28.55.581,VisualSearch_2526_3,,2025.2.4,2026-02-18 12h28.55.778699 +0100,
tilted.xlsx,The target is tilted.,117,0,0,0,0,1,1,1,1,1,1,1,1,1,1,1,1,11,12,117,space,3.618123100000048,None,0,1,3.181694900000366,None,space,2.7457407000001695,None,0,0,0,0,,,,,0,0,0,4,51.96592529999998,,,,,,,,,,,,,,,,,,,,,51.96208320000005,51.96592529999998,52.453185600000324,52.4580461000005,52.47162990000015,55.66844610000044,,,,,55.66860980000001,55.68459400000029,55.884694400000626,55.86864680000053,,49.17894830000023,49.18756790000043,49.18756790000043,51.93707180000001,space,2.7457407000001695,None,0,1,3.181694900000366,None,,,,,,,,866,22,M,L,2026-02-18_12h28.55.581,VisualSearch_2526_3,,2025.2.4,2026-02-18 12h28.55.778699 +0100,
tilted.xlsx,The target is tilted.,117,1,1,0,1,1,1,1,1,1,1,1,0,0,0,0,0,7,8,117,space,3.618123100000048,None,1,1,2.133272500000203,None,space,2.7457407000001695,None,0,0,0,0,,,,,0,1,1,1,55.884694400000626,,,,,,,,,,,,,,,,,,,,,55.86948240000038,55.884694400000626,56.368429500000275,56.37323920000017,56.39022139999997,58.53461700000025,,,,,58.534821700000066,58.549653000000035,58.749959200000376,58.73390999999992,56.39022139999997,,,,,,,,1,1,2.133272500000203,None,,,,,,,,866,22,M,L,2026-02-18_12h28.55.581,VisualSearch_2526_3,,2025.2.4,2026-02-18 12h28.55.778699 +0100,
tilted.xlsx,The target is tilted.,117,2,2,0,0,0,0,0,0,0,0,0,0,0,0,0,1,1,1,117,space,3.618123100000048,None,0,1,0.7337301000006846,None,space,2.7457407000001695,None,0,0,0,0,,,,,0,2,2,7,58.749959200000376,,,,,,,,,,,,,,,,,,,,,58.73467250000067,58.749959200000376,59.23359040000014,59.23840999999993,59.25325530000009,60.000044100000196,,,,,60.00025379999988,60.01563020000049,60.216102800000044,60.200010500000644,59.25325530000009,,,,,,,,0,1,0.7337301000006846,None,,,,,,,,866,22,M,L,2026-02-18_12h28.55.581,VisualSearch_2526_3,,2025.2.4,2026-02-18 12h28.55.778699 +0100,
tilted.xlsx,The target is tilted.,117,3,3,0,1,0,0,0,0,0,0,0,0,0,0,0,0,0,1,117,space,3.618123100000048,None,1,1,0.7554559999998673,None,space,2.7457407000001695,None,0,0,0,0,,,,,0,3,3,3,60.216102800000044,,,,,,,,,,,,,,,,,,,,,60.20074420000037,60.216102800000044,60.69972460000008,60.70460009999988,60.72084180000002,61.48300030000064,,,,,61.48318190000009,61.498257100000046,61.69885620000059,61.68266180000046,60.72084180000002,,,,,,,,1,1,0.7554559999998673,None,,,,,,,,866,22,M,L,2026-02-18_12h28.55.581,VisualSearch_2526_3,,2025.2.4,2026-02-18 12h28.55.778699 +0100,
tilted.xlsx,The target is tilted.,117,4,4,0,0,1,1,1,1,1,1,1,0,0,0,0,1,7,8,117,space,3.618123100000048,None,0,1,2.1890257000004567,None,space,2.7457407000001695,None,0,0,0,0,,,,,0,4,4,5,61.69885620000059,,,,,,,,,,,,,,,,,,,,,61.68347350000022,61.69885620000059,62.18188480000026,62.18686720000005,62.20239720000063,64.3983132000003,,,,,64.3984674000003,64.41363499999989,64.61381370000072,64.59765470000002,62.20239720000063,,,,,,,,0,1,2.1890257000004567,None,,,,,,,,866,22,M,L,2026-02-18_12h28.55.581,VisualSearch_2526_3,,2025.2.4,2026-02-18 12h28.55.778699 +0100,
tilted.xlsx,The target is tilted.,117,5,5,0,1,1,1,1,0,0,0,0,0,0,0,0,0,3,4,117,space,3.618123100000048,None,1,1,1.1517611999997825,None,space,2.7457407000001695,None,0,0,0,0,,,,,0,5,5,2,64.61381370000072,,,,,,,,,,,,,,,,,,,,,64.59848390000025,64.61381370000072,65.09715070000038,65.09883900000023,65.11316119999992,66.28041340000073,,,,,66.28061780000007,66.29606790000071,66.49628620000021,66.48004860000037,65.11316119999992,,,,,,,,1,1,1.1517611999997825,None,,,,,,,,866,22,M,L,2026-02-18_12h28.55.581,VisualSearch_2526_3,,2025.2.4,2026-02-18 12h28.55.778699 +0100,
tilted.xlsx,The target is tilted.,117,6,6,0,0,1,1,1,0,0,0,0,0,0,0,0,1,3,4,117,space,3.618123100000048,None,0,1,1.1615907999994306,None,space,2.7457407000001695,None,0,0,0,0,,,,,0,6,6,6,66.49628620000021,,,,,,,,,,,,,,,,,,,,,66.48081920000004,66.49628620000021,66.98030890000064,66.9851363000007,67.00104170000031,68.17941820000033,,,,,68.1795817000002,68.1952755000002,68.39568340000005,68.37964450000072,67.00104170000031,,,,,,,,0,1,1.1615907999994306,None,,,,,,,,866,22,M,L,2026-02-18_12h28.55.581,VisualSearch_2526_3,,2025.2.4,2026-02-18 12h28.55.778699 +0100,
tilted.xlsx,The target is tilted.,117,7,7,0,1,1,1,1,1,1,1,1,1,1,1,1,0,11,12,117,space,3.618123100000048,None,1,1,0.9152331999994203,None,space,2.7457407000001695,None,0,0,0,0,,,,,0,7,7,0,68.39568340000005,,,,,,,,,,,,,,,,,,,,,68.38038060000054,68.39568340000005,68.87930170000072,68.88425749999988,68.9008229000001,69.82881890000044,,,,,69.8290133999999,69.84444010000061,70.04492410000057,70.02871670000059,68.9008229000001,,,,,,,,1,1,0.9152331999994203,None,,,,,,,,866,22,M,L,2026-02-18_12h28.55.581,VisualSearch_2526_3,,2025.2.4,2026-02-18 12h28.55.778699 +0100,
tilted.xlsx,The target is tilted.,117,8,0,1,1,1,1,1,1,1,1,1,1,1,1,1,0,11,12,117,space,3.618123100000048,None,0,0,2.4202605000000403,None,space,2.7457407000001695,None,0,0,0,0,,,,,1,0,8,0,70.04492410000057,,,,,,,,,,,,,,,,,,,,,70.02949440000066,70.04492410000057,70.5286173000004,70.53357480000068,70.54892370000016,72.9780424999999,,,,,72.97824889999993,72.9930903000004,73.1932966000004,73.17741840000053,70.54892370000016,,,,,,,,0,0,2.4202605000000403,None,,,,,,,,866,22,M,L,2026-02-18_12h28.55.581,VisualSearch_2526_3,,2025.2.4,2026-02-18 12h28.55.778699 +0100,
tilted.xlsx,The target is tilted.,117,9,1,1,0,1,1,1,1,1,1,1,1,1,1,1,1,11,12,117,space,3.618123100000048,None,0,1,1.591193199999907,None,space,2.7457407000001695,None,0,0,0,0,,,,,1,1,9,4,73.1932966000004,,,,,,,,,,,,,,,,,,,,,73.17818390000048,73.1932966000004,73.67724230000022,73.68225350000012,73.69732960000056,75.29352220000055,,,,,75.29372300000068,75.30870480000067,75.50916940000025,75.49298490000001,73.69732960000056,,,,,,,,0,1,1.591193199999907,None,,,,,,,,866,22,M,L,2026-02-18_12h28.55.581,VisualSearch_2526_3,,2025.2.4,2026-02-18 12h28.55.778699 +0100,
tilted.xlsx,The target is tilted.,117,10,2,1,0,0,0,0,0,0,0,0,0,0,0,0,1,1,1,117,space,3.618123100000048,None,0,1,0.6033679000001939,None,space,2.7457407000001695,None,0,0,0,0,,,,,1,2,10,7,75.50916940000025,,,,,,,,,,,,,,,,,,,,,75.49374119999993,75.50916940000025,75.99265430000014,75.99755000000005,76.01351820000036,76.62695200000053,,,,,76.62715310000021,76.64144000000033,76.8415186000002,76.8257394000002,76.01351820000036,,,,,,,,0,1,0.6033679000001939,None,,,,,,,,866,22,M,L,2026-02-18_12h28.55.581,VisualSearch_2526_3,,2025.2.4,2026-02-18 12h28.55.778699 +0100,
tilted.xlsx,The target is tilted.,117,11,3,1,1,0,0,0,0,0,0,0,0,0,0,0,0,0,1,117,space,3.618123100000048,None,0,0,0.5806049000002531,None,space,2.7457407000001695,None,0,0,0,0,,,,,1,3,11,3,76.8415186000002,,,,,,,,,,,,,,,,,,,,,76.82646879999993,76.8415186000002,77.32558800000061,77.33033680000062,77.34639730000072,77.94184380000024,,,,,77.94205440000042,77.95787180000025,78.1580457,78.14183409999987,77.34639730000072,,,,,,,,0,0,0.5806049000002531,None,,,,,,,,866,22,M,L,2026-02-18_12h28.55.581,VisualSearch_2526_3,,2025.2.4,2026-02-18 12h28.55.778699 +0100,
tilted.xlsx,The target is tilted.,117,12,4,1,0,1,1,1,0,0,0,0,0,0,0,0,1,3,4,117,space,3.618123100000048,None,0,1,1.5589363999997659,None,space,2.7457407000001695,None,0,0,0,0,,,,,1,4,12,6,78.1580457,,,,,,,,,,,,,,,,,,,,,78.14255890000004,78.1580457,78.64165200000025,78.64645490000021,78.66191359999993,80.22412859999986,,,,,80.22442080000019,80.23983099999987,80.44028960000014,80.4240518000006,78.66191359999993,,,,,,,,0,1,1.5589363999997659,None,,,,,,,,866,22,M,L,2026-02-18_12h28.55.581,VisualSearch_2526_3,,2025.2.4,2026-02-18 12h28.55.778699 +0100,
tilted.xlsx,The target is tilted.,117,13,5,1,1,1,1,1,1,1,1,1,0,0,0,0,0,7,8,117,space,3.618123100000048,None,0,0,1.5918440999994345,None,space,2.7457407000001695,None,0,0,0,0,,,,,1,5,13,1,80.44028960000014,,,,,,,,,,,,,,,,,,,,,80.42481410000073,80.44028960000014,80.92363250000017,80.92843020000055,80.94311240000025,82.5399221000007,,,,,82.54006990000016,82.55522819999987,82.75549080000019,82.73964570000044,80.94311240000025,,,,,,,,0,0,1.5918440999994345,None,,,,,,,,866,22,M,L,2026-02-18_12h28.55.581,VisualSearch_2526_3,,2025.2.4,2026-02-18 12h28.55.778699 +0100,
tilted.xlsx,The target is tilted.,117,14,6,1,0,1,1,1,1,1,1,1,0,0,0,0,1,7,8,117,space,3.618123100000048,None,0,1,1.9789726999997583,None,space,2.7457407000001695,None,0,0,0,0,,,,,1,6,14,5,82.75549080000019,,,,,,,,,,,,,,,,,,,,,82.74040830000013,82.75549080000019,83.23913249999987,83.24411750000036,83.25731270000051,85.23930650000057,,,,,85.23952730000019,85.25420880000001,85.4545065000002,85.4384482000005,83.25731270000051,,,,,,,,0,1,1.9789726999997583,None,,,,,,,,866,22,M,L,2026-02-18_12h28.55.581,VisualSearch_2526_3,,2025.2.4,2026-02-18 12h28.55.778699 +0100,
tilted.xlsx,The target is tilted.,117,15,7,1,1,1,1,1,0,0,0,0,0,0,0,0,0,3,4,117,space,3.618123100000048,None,1,1,1.193828399999802,None,space,2.7457407000001695,None,0,0,0,0,,,,,1,7,15,2,85.4545065000002,,,,,,,,,,,,,,,,,,,,,85.43925360000048,85.4545065000002,85.9378041,85.94030139999995,85.95427730000029,87.15519740000036,,,,,87.15543460000026,87.17001720000007,87.37047350000012,87.35436680000021,85.95427730000029,,,,,,,,1,1,1.193828399999802,None,,,,,,,,866,22,M,L,2026-02-18_12h28.55.581,VisualSearch_2526_3,,2025.2.4,2026-02-18 12h28.55.778699 +0100,
tilted.xlsx,The target is tilted.,117,16,0,2,1,0,0,0,0,0,0,0,0,0,0,0,0,0,1,117,space,3.618123100000048,None,1,1,0.6979238000003534,None,space,2.7457407000001695,None,0,0,0,0,,,,,2,0,16,3,87.37047350000012,,,,,,,,,,,,,,,,,,,,,87.35509890000048,87.37047350000012,87.85406690000036,87.85889270000007,87.87480570000025,88.5868289,,,,,88.58697209999991,88.6027367000006,88.80302819999997,88.78700240000035,87.87480570000025,,,,,,,,1,1,0.6979238000003534,None,,,,,,,,866,22,M,L,2026-02-18_12h28.55.581,VisualSearch_2526_3,,2025.2.4,2026-02-18 12h28.55.778699 +0100,
tilted.xlsx,The target is tilted.,117,17,1,2,1,1,1,1,1,1,1,1,0,0,0,0,0,7,8,117,space,3.618123100000048,None,1,1,0.721539600000142,None,space,2.7457407000001695,None,0,0,0,0,,,,,2,1,17,1,88.80302819999997,,,,,,,,,,,,,,,,,,,,,88.78773850000016,88.80302819999997,89.28671029999987,89.29151570000067,89.30672870000035,90.03705700000046,,,,,90.03726270000061,90.05207390000032,90.2523955000006,90.23626880000029,89.30672870000035,,,,,,,,1,1,0.721539600000142,None,,,,,,,,866,22,M,L,2026-02-18_12h28.55.581,VisualSearch_2526_3,,2025.2.4,2026-02-18 12h28.55.778699 +0100,
tilted.xlsx,The target is tilted.,117,18,2,2,1,1,1,1,1,1,1,1,1,1,1,1,0,11,12,117,space,3.618123100000048,None,1,1,1.134486700000707,None,space,2.7457407000001695,None,0,0,0,0,,,,,2,2,18,0,90.2523955000006,,,,,,,,,,,,,,,,,,,,,90.23703440000008,90.2523955000006,90.73564549999992,90.74056500000006,90.75574510000024,91.90209080000022,,,,,91.90229440000076,91.91783530000066,92.11834750000071,92.10186010000052,90.75574510000024,,,,,,,,1,1,1.134486700000707,None,,,,,,,,866,22,M,L,2026-02-18_12h28.55.581,VisualSearch_2526_3,,2025.2.4,2026-02-18 12h28.55.778699 +0100,
tilted.xlsx,The target is tilted.,117,19,3,2,0,1,1,1,0,0,0,0,0,0,0,0,1,3,4,117,space,3.618123100000048,None,0,1,0.7851538000004439,None,space,2.7457407000001695,None,0,0,0,0,,,,,2,3,19,6,92.11834750000071,,,,,,,,,,,,,,,,,,,,,92.1026335000006,92.11834750000071,92.60157419999996,92.60639580000043,92.6215787000001,93.41843160000008,,,,,93.41863460000059,93.43393340000057,93.63386880000053,93.61817250000058,92.6215787000001,,,,,,,,0,1,0.7851538000004439,None,,,,,,,,866,22,M,L,2026-02-18_12h28.55.581,VisualSearch_2526_3,,2025.2.4,2026-02-18 12h28.55.778699 +0100,
tilted.xlsx,The target is tilted.,117,20,4,2,0,1,1,1,1,1,1,1,0,0,0,0,1,7,8,117,space,3.618123100000048,None,0,1,1.550091899999643,None,space,2.7457407000001695,None,0,0,0,0,,,,,2,4,20,5,93.63386880000053,,,,,,,,,,,,,,,,,,,,,93.61891130000004,93.63386880000053,94.11783540000033,94.12268500000027,94.13866360000065,95.70128990000012,,,,,95.70160850000048,95.7160786000004,95.9165692000006,95.90053780000017,94.13866360000065,,,,,,,,0,1,1.550091899999643,None,,,,,,,,866,22,M,L,2026-02-18_12h28.55.581,VisualSearch_2526_3,,2025.2.4,2026-02-18 12h28.55.778699 +0100,
tilted.xlsx,The target is tilted.,117,21,5,2,1,1,1,1,0,0,0,0,0,0,0,0,0,3,4,117,space,3.618123100000048,None,1,1,0.7853951000006418,None,space,2.7457407000001695,None,0,0,0,0,,,,,2,5,21,2,95.9165692000006,,,,,,,,,,,,,,,,,,,,,95.90125660000012,95.9165692000006,96.40024100000028,96.40510549999999,96.4203778000001,97.21687190000011,,,,,97.21703600000001,97.23219169999993,97.43244420000065,97.41605560000062,96.4203778000001,,,,,,,,1,1,0.7853951000006418,None,,,,,,,,866,22,M,L,2026-02-18_12h28.55.581,VisualSearch_2526_3,,2025.2.4,2026-02-18 12h28.55.778699 +0100,
tilted.xlsx,The target is tilted.,117,22,6,2,0,0,0,0,0,0,0,0,0,0,0,0,1,1,1,117,space,3.618123100000048,None,0,1,0.6819215999994412,None,space,2.7457407000001695,None,0,0,0,0,,,,,2,6,22,7,97.43244420000065,,,,,,,,,,,,,,,,,,,,,97.41681530000005,97.43244420000065,97.91619100000025,97.92105750000064,97.9370643000002,98.63206690000061,,,,,98.63217560000066,98.64809109999987,98.84855640000023,98.83243060000041,97.9370643000002,,,,,,,,0,1,0.6819215999994412,None,,,,,,,,866,22,M,L,2026-02-18_12h28.55.581,VisualSearch_2526_3,,2025.2.4,2026-02-18 12h28.55.778699 +0100,
tilted.xlsx,The target is tilted.,117,23,7,2,0,1,1,1,1,1,1,1,1,1,1,1,1,11,12,117,space,3.618123100000048,None,0,1,2.282009200000175,None,space,2.7457407000001695,None,0,0,0,0,,,,,2,7,23,4,98.84855640000023,,,,,,,,,,,,,,,,,,,,,98.83319389999997,98.84855640000023,99.3320721,99.33697759999995,99.35221920000004,101.64781800000037,,,,,101.6480276000002,101.66343440000037,101.86387439999999,101.84774590000052,99.35221920000004,,,,,,,,0,1,2.282009200000175,None,,,,,,,,866,22,M,L,2026-02-18_12h28.55.581,VisualSearch_2526_3,,2025.2.4,2026-02-18 12h28.55.778699 +0100,
tilted.xlsx,The target is tilted.,117,24,0,3,1,0,0,0,0,0,0,0,0,0,0,0,0,0,1,117,space,3.618123100000048,None,1,1,0.6907975000003717,None,space,2.7457407000001695,None,0,0,0,0,,,,,3,0,24,3,101.86387439999999,,,,,,,,,,,,,,,,,,,,,101.8485341000005,101.86387439999999,102.34757270000046,102.35244010000042,102.36758460000055,103.06416850000005,,,,,103.06436819999999,103.07939990000068,103.2793615999999,103.2636607000004,102.36758460000055,,,,,,,,1,1,0.6907975000003717,None,,,,,,,,866,22,M,L,2026-02-18_12h28.55.581,VisualSearch_2526_3,,2025.2.4,2026-02-18 12h28.55.778699 +0100,
tilted.xlsx,The target is tilted.,117,25,1,3,1,1,1,1,1,1,1,1,1,1,1,1,0,11,12,117,space,3.618123100000048,None,1,1,0.9289977999997063,None,space,2.7457407000001695,None,0,0,0,0,,,,,3,1,25,0,103.2793615999999,,,,,,,,,,,,,,,,,,,,,103.26446560000022,103.2793615999999,103.76348080000025,103.76828999999998,103.78448870000011,104.72906450000028,,,,,104.72917340000004,104.74571079999987,104.94554020000032,104.92936929999996,103.78448870000011,,,,,,,,1,1,0.9289977999997063,None,,,,,,,,866,22,M,L,2026-02-18_12h28.55.581,VisualSearch_2526_3,,2025.2.4,2026-02-18 12h28.55.778699 +0100,
tilted.xlsx,The target is tilted.,117,26,2,3,0,1,1,1,1,1,1,1,1,1,1,1,1,11,12,117,space,3.618123100000048,None,0,1,1.5629558999999063,None,space,2.7457407000001695,None,0,0,0,0,,,,,3,2,26,4,104.94554020000032,,,,,,,,,,,,,,,,,,,,,104.93011380000007,104.94554020000032,105.42944850000003,105.4342931000001,105.44961700000022,107.02827179999986,,,,,107.02841020000051,107.0443449000004,107.24430380000013,107.22867900000074,105.44961700000022,,,,,,,,0,1,1.5629558999999063,None,,,,,,,,866,22,M,L,2026-02-18_12h28.55.581,VisualSearch_2526_3,,2025.2.4,2026-02-18 12h28.55.778699 +0100,
tilted.xlsx,The target is tilted.,117,27,3,3,1,1,1,1,1,1,1,1,0,0,0,0,0,7,8,117,space,3.618123100000048,None,1,1,1.03306799999973,None,space,2.7457407000001695,None,0,0,0,0,,,,,3,3,27,1,107.24430380000013,,,,,,,,,,,,,,,,,,,,,107.2294394999999,107.24430380000013,107.72831440000027,107.73334470000009,107.74662810000063,108.79416960000071,,,,,108.79431300000033,108.81012590000046,109.01069300000017,108.9944159000006,107.74662810000063,,,,,,,,1,1,1.03306799999973,None,,,,,,,,866,22,M,L,2026-02-18_12h28.55.581,VisualSearch_2526_3,,2025.2.4,2026-02-18 12h28.55.778699 +0100,
tilted.xlsx,The target is tilted.,117,28,4,3,0,0,0,0,0,0,0,0,0,0,0,0,1,1,1,117,space,3.618123100000048,None,0,1,0.6199096000000281,None,space,2.7457407000001695,None,0,0,0,0,,,,,3,4,28,7,109.01069300000017,,,,,,,,,,,,,,,,,,,,,108.99523110000064,109.01069300000017,109.49424670000008,109.49909230000048,109.51326740000059,110.14407500000016,,,,,110.14422840000043,110.15948110000045,110.35994570000003,110.34376020000036,109.51326740000059,,,,,,,,0,1,0.6199096000000281,None,,,,,,,,866,22,M,L,2026-02-18_12h28.55.581,VisualSearch_2526_3,,2025.2.4,2026-02-18 12h28.55.778699 +0100,
tilted.xlsx,The target is tilted.,117,29,5,3,1,1,1,1,0,0,0,0,0,0,0,0,0,3,4,117,space,3.618123100000048,None,1,1,0.8149026000000958,None,space,2.7457407000001695,None,0,0,0,0,,,,,3,5,29,2,110.35994570000003,,,,,,,,,,,,,,,,,,,,,110.34452080000028,110.35994570000003,110.84352000000035,110.84850580000057,110.8631191000004,111.69313080000029,,,,,111.69332020000002,111.70884380000007,111.9093410000005,111.89309990000038,110.8631191000004,,,,,,,,1,1,0.8149026000000958,None,,,,,,,,866,22,M,L,2026-02-18_12h28.55.581,VisualSearch_2526_3,,2025.2.4,2026-02-18 12h28.55.778699 +0100,
tilted.xlsx,The target is tilted.,117,30,6,3,0,1,1,1,0,0,0,0,0,0,0,0,1,3,4,117,space,3.618123100000048,None,0,1,0.9406533999999738,None,space,2.7457407000001695,None,0,0,0,0,,,,,3,6,30,6,111.9093410000005,,,,,,,,,,,,,,,,,,,,,111.89385020000009,111.9093410000005,112.39284970000062,112.39759860000049,112.41610089999995,113.35921940000026,,,,,113.35936110000057,113.37472310000066,113.57521910000014,113.55914750000011,112.41610089999995,,,,,,,,0,1,0.9406533999999738,None,,,,,,,,866,22,M,L,2026-02-18_12h28.55.581,VisualSearch_2526_3,,2025.2.4,2026-02-18 12h28.55.778699 +0100,
tilted.xlsx,The target is tilted.,117,31,7,3,0,1,1,1,1,1,1,1,0,0,0,0,1,7,8,117,space,3.618123100000048,None,0,1,1.487120099999629,None,space,2.7457407000001695,None,0,0,0,0,,,,,3,7,31,5,113.57521910000014,,,,,,,,,,,,,,,,,,,,,113.55992620000052,113.57521910000014,114.05892480000057,114.06401310000001,114.07924390000062,115.57499630000075,,,,,115.57521840000027,115.59046940000007,115.79047270000046,115.77474250000068,114.07924390000062,,,,,,,,0,1,1.487120099999629,None,,,,,,,,866,22,M,L,2026-02-18_12h28.55.581,VisualSearch_2526_3,,2025.2.4,2026-02-18 12h28.55.778699 +0100,
tilted.xlsx,The target is tilted.,117,32,0,4,0,1,1,1,0,0,0,0,0,0,0,0,1,3,4,117,space,3.618123100000048,None,0,1,0.8120625999999902,None,space,2.7457407000001695,None,0,0,0,0,,,,,4,0,32,6,115.79047270000046,,,,,,,,,,,,,,,,,,,,,115.77553540000008,115.79047270000046,116.27453090000017,116.27917479999996,116.29055190000054,117.10802050000075,,,,,117.1082451000002,117.12309970000024,117.3235209000004,117.3073987000007,116.29055190000054,,,,,,,,0,1,0.8120625999999902,None,,,,,,,,866,22,M,L,2026-02-18_12h28.55.581,VisualSearch_2526_3,,2025.2.4,2026-02-18 12h28.55.778699 +0100,
tilted.xlsx,The target is tilted.,117,33,1,4,1,1,1,1,0,0,0,0,0,0,0,0,0,3,4,117,space,3.618123100000048,None,1,1,0.7907786000005217,None,space,2.7457407000001695,None,0,0,0,0,,,,,4,1,33,2,117.3235209000004,,,,,,,,,,,,,,,,,,,,,117.30822970000008,117.3235209000004,117.80705200000011,117.81199580000066,117.82704629999989,118.6237654000006,,,,,118.62396919999992,118.63908940000056,118.83960840000054,118.82329110000046,117.82704629999989,,,,,,,,1,1,0.7907786000005217,None,,,,,,,,866,22,M,L,2026-02-18_12h28.55.581,VisualSearch_2526_3,,2025.2.4,2026-02-18 12h28.55.778699 +0100,
tilted.xlsx,The target is tilted.,117,34,2,4,0,0,0,0,0,0,0,0,0,0,0,0,1,1,1,117,space,3.618123100000048,None,0,1,0.6074365000004036,None,space,2.7457407000001695,None,0,0,0,0,,,,,4,2,34,7,118.83960840000054,,,,,,,,,,,,,,,,,,,,,118.82405560000007,118.83960840000054,119.32307260000016,119.32795260000057,119.34425450000072,119.95660959999987,,,,,119.95682519999991,119.97171320000052,120.17213660000016,120.15598540000065,119.34425450000072,,,,,,,,0,1,0.6074365000004036,None,,,,,,,,866,22,M,L,2026-02-18_12h28.55.581,VisualSearch_2526_3,,2025.2.4,2026-02-18 12h28.55.778699 +0100,
tilted.xlsx,The target is tilted.,117,35,3,4,0,1,1,1,1,1,1,1,0,0,0,0,1,7,8,117,space,3.618123100000048,None,0,1,1.7443112999999357,None,space,2.7457407000001695,None,0,0,0,0,,,,,4,3,35,5,120.17213660000016,,,,,,,,,,,,,,,,,,,,,120.156747,120.17213660000016,120.65540870000041,120.65741170000001,120.67155950000051,122.42316650000066,,,,,122.42337010000028,122.43733109999994,122.63778140000068,122.62156899999991,120.67155950000051,,,,,,,,0,1,1.7443112999999357,None,,,,,,,,866,22,M,L,2026-02-18_12h28.55.581,VisualSearch_2526_3,,2025.2.4,2026-02-18 12h28.55.778699 +0100,
tilted.xlsx,The target is tilted.,117,36,4,4,1,1,1,1,1,1,1,1,1,1,1,1,0,11,12,117,space,3.618123100000048,None,1,1,2.000712800000656,None,space,2.7457407000001695,None,0,0,0,0,,,,,4,4,36,0,122.63778140000068,,,,,,,,,,,,,,,,,,,,,122.62233939999987,122.63778140000068,123.12142310000036,123.12630150000041,123.14192180000009,125.1544171000005,,,,,125.15461980000055,125.16947690000052,125.36950570000045,125.35363620000044,123.14192180000009,,,,,,,,1,1,2.000712800000656,None,,,,,,,,866,22,M,L,2026-02-18_12h28.55.581,VisualSearch_2526_3,,2025.2.4,2026-02-18 12h28.55.778699 +0100,
tilted.xlsx,The target is tilted.,117,37,5,4,1,1,1,1,1,1,1,1,0,0,0,0,0,7,8,117,space,3.618123100000048,None,0,0,2.081811000000016,None,space,2.7457407000001695,None,0,0,0,0,,,,,4,5,37,1,125.36950570000045,,,,,,,,,,,,,,,,,,,,,125.35438900000008,125.36950570000045,125.85352000000057,125.85790880000059,125.86944970000059,127.95276300000023,,,,,127.95294450000074,127.96803700000055,128.16876760000014,128.15211270000054,125.86944970000059,,,,,,,,0,0,2.081811000000016,None,,,,,,,,866,22,M,L,2026-02-18_12h28.55.581,VisualSearch_2526_3,,2025.2.4,2026-02-18 12h28.55.778699 +0100,
tilted.xlsx,The target is tilted.,117,38,6,4,1,0,0,0,0,0,0,0,0,0,0,0,0,0,1,117,space,3.618123100000048,None,1,1,0.7089792999995552,None,space,2.7457407000001695,None,0,0,0,0,,,,,4,6,38,3,128.16876760000014,,,,,,,,,,,,,,,,,,,,,128.15287650000027,128.16876760000014,128.6519315000005,128.6567982000006,128.6718348000004,129.38547180000023,,,,,129.38567469999998,129.4008872000004,129.6013206000007,129.5851631000005,128.6718348000004,,,,,,,,1,1,0.7089792999995552,None,,,,,,,,866,22,M,L,2026-02-18_12h28.55.581,VisualSearch_2526_3,,2025.2.4,2026-02-18 12h28.55.778699 +0100,
tilted.xlsx,The target is tilted.,117,39,7,4,0,1,1,1,1,1,1,1,1,1,1,1,1,11,12,117,space,3.618123100000048,None,0,1,2.9429800999996587,None,space,2.7457407000001695,None,0,0,0,0,,,,,4,7,39,4,129.6013206000007,,,,,,,,,,,,,,,,,,,,,129.58589800000027,129.6013206000007,130.08465830000023,130.08949050000047,130.10340840000026,133.04999040000075,,,,,133.05014230000052,133.06580350000058,133.2662820000005,133.25008239999988,130.10340840000026,,,,,,,,0,1,2.9429800999996587,None,,,,,,,,866,22,M,L,2026-02-18_12h28.55.581,VisualSearch_2526_3,,2025.2.4,2026-02-18 12h28.55.778699 +0100,
tilted.xlsx,The target is tilted.,117,40,0,5,0,1,1,1,1,1,1,1,0,0,0,0,1,7,8,117,space,3.618123100000048,None,0,1,1.5679952999998932,None,space,2.7457407000001695,None,0,0,0,0,,,,,5,0,40,5,133.2662820000005,,,,,,,,,,,,,,,,,,,,,133.25087000000076,133.2662820000005,133.74971360000018,133.75447890000032,133.77016490000005,135.34980189999987,,,,,135.35000620000028,135.36472670000057,135.56493210000008,135.5492462000002,133.77016490000005,,,,,,,,0,1,1.5679952999998932,None,,,,,,,,866,22,M,L,2026-02-18_12h28.55.581,VisualSearch_2526_3,,2025.2.4,2026-02-18 12h28.55.778699 +0100,
tilted.xlsx,The target is tilted.,117,41,1,5,0,1,1,1,0,0,0,0,0,0,0,0,1,3,4,117,space,3.618123100000048,None,0,1,0.7204922000000806,None,space,2.7457407000001695,None,0,0,0,0,,,,,5,1,41,6,135.56493210000008,,,,,,,,,,,,,,,,,,,,,135.55000410000048,135.56493210000008,136.0487524,136.0537004000007,136.0700239000007,136.79833670000062,,,,,136.79847659999996,136.8141480000004,137.01443950000066,136.99857670000074,136.0700239000007,,,,,,,,0,1,0.7204922000000806,None,,,,,,,,866,22,M,L,2026-02-18_12h28.55.581,VisualSearch_2526_3,,2025.2.4,2026-02-18 12h28.55.778699 +0100,
tilted.xlsx,The target is tilted.,117,42,2,5,1,1,1,1,1,1,1,1,0,0,0,0,0,7,8,117,space,3.618123100000048,None,0,0,1.458053000000291,None,space,2.7457407000001695,None,0,0,0,0,,,,,5,2,42,1,137.01443950000066,,,,,,,,,,,,,,,,,,,,,136.99934269999994,137.01443950000066,137.49827780000032,137.5032151000005,137.5194166000001,138.9804320000003,,,,,138.98055440000007,138.99649320000026,139.1969869000004,139.1808970000002,137.5194166000001,,,,,,,,0,0,1.458053000000291,None,,,,,,,,866,22,M,L,2026-02-18_12h28.55.581,VisualSearch_2526_3,,2025.2.4,2026-02-18 12h28.55.778699 +0100,
tilted.xlsx,The target is tilted.,117,43,3,5,0,1,1,1,1,1,1,1,1,1,1,1,1,11,12,117,space,3.618123100000048,None,0,1,1.93380740000066,None,space,2.7457407000001695,None,0,0,0,0,,,,,5,3,43,4,139.1969869000004,,,,,,,,,,,,,,,,,,,,,139.18162550000034,139.1969869000004,139.6805862000001,139.6854069000001,139.70070880000003,141.64654900000005,,,,,141.64671480000015,141.66195190000053,141.86232050000035,141.84620520000044,139.70070880000003,,,,,,,,0,1,1.93380740000066,None,,,,,,,,866,22,M,L,2026-02-18_12h28.55.581,VisualSearch_2526_3,,2025.2.4,2026-02-18 12h28.55.778699 +0100,
tilted.xlsx,The target is tilted.,117,44,4,5,1,0,0,0,0,0,0,0,0,0,0,0,0,0,1,117,space,3.618123100000048,None,1,1,0.6697217999999339,None,space,2.7457407000001695,None,0,0,0,0,,,,,5,4,44,3,141.86232050000035,,,,,,,,,,,,,,,,,,,,,141.84695069999998,141.86232050000035,142.3460367000007,142.3509165000005,142.36482290000004,143.04638400000022,,,,,143.0465978000002,143.06125969999994,143.26149600000008,143.24562539999988,142.36482290000004,,,,,,,,1,1,0.6697217999999339,None,,,,,,,,866,22,M,L,2026-02-18_12h28.55.581,VisualSearch_2526_3,,2025.2.4,2026-02-18 12h28.55.778699 +0100,
tilted.xlsx,The target is tilted.,117,45,5,5,1,1,1,1,0,0,0,0,0,0,0,0,0,3,4,117,space,3.618123100000048,None,1,1,0.6094659999998839,None,space,2.7457407000001695,None,0,0,0,0,,,,,5,5,45,2,143.26149600000008,,,,,,,,,,,,,,,,,,,,,143.24637299999995,143.26149600000008,143.7454416999999,143.75031080000008,143.76588540000012,144.37873949999994,,,,,144.37894070000038,144.39408400000048,144.59446480000042,144.57783180000024,143.76588540000012,,,,,,,,1,1,0.6094659999998839,None,,,,,,,,866,22,M,L,2026-02-18_12h28.55.581,VisualSearch_2526_3,,2025.2.4,2026-02-18 12h28.55.778699 +0100,
tilted.xlsx,The target is tilted.,117,46,6,5,1,1,1,1,1,1,1,1,1,1,1,1,0,11,12,117,space,3.618123100000048,None,0,0,2.8188670999998067,None,space,2.7457407000001695,None,0,0,0,0,,,,,5,6,46,0,144.59446480000042,,,,,,,,,,,,,,,,,,,,,144.57860419999997,144.59446480000042,145.07807370000046,145.08299830000033,145.09784330000002,147.92745540000033,,,,,147.9276944000003,147.94246550000025,148.14275070000076,148.12639280000076,145.09784330000002,,,,,,,,0,0,2.8188670999998067,None,,,,,,,,866,22,M,L,2026-02-18_12h28.55.581,VisualSearch_2526_3,,2025.2.4,2026-02-18 12h28.55.778699 +0100,
tilted.xlsx,The target is tilted.,117,47,7,5,0,0,0,0,0,0,0,0,0,0,0,0,1,1,1,117,space,3.618123100000048,None,0,1,0.5938370000003488,None,space,2.7457407000001695,None,0,0,0,0,,,,,5,7,47,7,148.14275070000076,,,,,,,,,,,,,,,,,,,,,148.12715410000055,148.14275070000076,148.62658340000053,148.63155720000032,148.64714670000012,149.2433520000004,,,,,149.24356810000063,149.25857750000068,149.45897120000063,149.44271710000066,148.64714670000012,,,,,,,,0,1,0.5938370000003488,None,,,,,,,,866,22,M,L,2026-02-18_12h28.55.581,VisualSearch_2526_3,,2025.2.4,2026-02-18 12h28.55.778699 +0100,
tilted.xlsx,The target is tilted.,117,48,0,6,1,1,1,1,0,0,0,0,0,0,0,0,0,3,4,117,space,3.618123100000048,None,1,1,0.7752099999997881,None,space,2.7457407000001695,None,0,0,0,0,,,,,6,0,48,2,149.45897120000063,,,,,,,,,,,,,,,,,,,,,149.4434811000001,149.45897120000063,149.94256330000007,149.9473925000002,149.9639332000006,150.7425146000005,,,,,150.74272240000028,150.75779070000044,150.9579051999999,150.9416680000004,149.9639332000006,,,,,,,,1,1,0.7752099999997881,None,,,,,,,,866,22,M,L,2026-02-18_12h28.55.581,VisualSearch_2526_3,,2025.2.4,2026-02-18 12h28.55.778699 +0100,
tilted.xlsx,The target is tilted.,117,49,1,6,0,1,1,1,0,0,0,0,0,0,0,0,1,3,4,117,space,3.618123100000048,None,0,1,0.8525958000000173,None,space,2.7457407000001695,None,0,0,0,0,,,,,6,1,49,6,150.9579051999999,,,,,,,,,,,,,,,,,,,,,150.94240660000014,150.9579051999999,151.44157919999998,151.44654300000002,151.45977660000062,152.32465860000048,,,,,152.32485930000075,152.34038800000053,152.54091740000058,152.52484920000006,151.45977660000062,,,,,,,,0,1,0.8525958000000173,None,,,,,,,,866,22,M,L,2026-02-18_12h28.55.581,VisualSearch_2526_3,,2025.2.4,2026-02-18 12h28.55.778699 +0100,
tilted.xlsx,The target is tilted.,117,50,2,6,1,1,1,1,1,1,1,1,0,0,0,0,0,7,8,117,space,3.618123100000048,None,0,0,1.8134067999999388,None,space,2.7457407000001695,None,0,0,0,0,,,,,6,2,50,1,152.54091740000058,,,,,,,,,,,,,,,,,,,,,152.5255956000001,152.54091740000058,153.02452450000055,153.0294644000005,153.04475940000066,154.8728529,,,,,154.87293180000052,154.8892747,,155.07333310000013,153.04475940000066,,,,,,,,0,0,1.8134067999999388,None,,,,,,,,866,22,M,L,2026-02-18_12h28.55.581,VisualSearch_2526_3,,2025.2.4,2026-02-18 12h28.55.778699 +0100,
tilted.xlsx,The target is tilted.,117,51,3,6,1,0,0,0,0,0,0,0,0,0,0,0,0,0,1,117,space,3.618123100000048,None,1,1,0.6326341000003595,None,space,2.7457407000001695,None,0,0,0,0,,,,,6,3,51,3,155.0897631000007,,,,,,,,,,,,,,,,,,,,,155.07415070000025,155.0897631000007,155.57308230000035,155.57792380000046,155.5909900000006,156.23944400000073,,,,,156.2396079,156.25530320000053,156.45573930000046,156.43927070000063,,,,,,,,,1,1,0.6326341000003595,None,,,,,,,,866,22,M,L,2026-02-18_12h28.55.581,VisualSearch_2526_3,,2025.2.4,2026-02-18 12h28.55.778699 +0100,
tilted.xlsx,The target is tilted.,117,52,4,6,1,1,1,1,1,1,1,1,1,1,1,1,0,11,12,117,space,3.618123100000048,None,1,1,0.643432799999573,None,space,2.7457407000001695,None,0,0,0,0,,,,,6,4,52,0,156.45573930000046,,,,,,,,,,,,,,,,,,,,,156.44005460000062,156.45573930000046,156.93940900000052,156.94426030000068,156.9597315000001,157.60629849999987,,,,,157.60647710000012,157.6211862,157.82144830000016,157.80567940000037,156.9597315000001,,,,,,,,1,1,0.643432799999573,None,,,,,,,,866,22,M,L,2026-02-18_12h28.55.581,VisualSearch_2526_3,,2025.2.4,2026-02-18 12h28.55.778699 +0100,
tilted.xlsx,The target is tilted.,117,53,5,6,0,1,1,1,1,1,1,1,0,0,0,0,1,7,8,117,space,3.618123100000048,None,0,1,1.5421077000000878,None,space,2.7457407000001695,None,0,0,0,0,,,,,6,5,53,5,157.82144830000016,,,,,,,,,,,,,,,,,,,,,157.80645989999994,157.82144830000016,158.3054517999999,158.3102740000004,158.32595029999993,159.87154120000014,,,,,159.87172069999997,159.88675349999994,160.08756640000047,160.0713706000006,158.32595029999993,,,,,,,,0,1,1.5421077000000878,None,,,,,,,,866,22,M,L,2026-02-18_12h28.55.581,VisualSearch_2526_3,,2025.2.4,2026-02-18 12h28.55.778699 +0100,
tilted.xlsx,The target is tilted.,117,54,6,6,0,1,1,1,1,1,1,1,1,1,1,1,1,11,12,117,space,3.618123100000048,None,0,1,2.5109356000002663,None,space,2.7457407000001695,None,0,0,0,0,,,,,6,6,54,4,160.08756640000047,,,,,,,,,,,,,,,,,,,,,160.07209090000015,160.08756640000047,160.57067330000064,160.57545110000046,160.5912057000005,163.10330950000025,,,,,163.10344690000056,163.11890380000023,163.3193878000002,163.30315770000016,160.5912057000005,,,,,,,,0,1,2.5109356000002663,None,,,,,,,,866,22,M,L,2026-02-18_12h28.55.581,VisualSearch_2526_3,,2025.2.4,2026-02-18 12h28.55.778699 +0100,
tilted.xlsx,The target is tilted.,117,55,7,6,0,0,0,0,0,0,0,0,0,0,0,0,1,1,1,117,space,3.618123100000048,None,0,1,0.737245499999517,None,space,2.7457407000001695,None,0,0,0,0,,,,,6,7,55,7,163.3193878000002,,,,,,,,,,,,,,,,,,,,,163.30390239999997,163.3193878000002,163.80293150000034,163.8078075000003,163.8224313999999,164.56983590000073,,,,,164.5700407000004,164.58491779999986,164.78532390000055,164.76912600000014,163.8224313999999,,,,,,,,0,1,0.737245499999517,None,,,,,,,,866,22,M,L,2026-02-18_12h28.55.581,VisualSearch_2526_3,,2025.2.4,2026-02-18 12h28.55.778699 +0100,
tilted.xlsx,The target is tilted.,117,56,0,7,1,1,1,1,1,1,1,1,1,1,1,1,0,11,12,117,space,3.618123100000048,None,0,0,1.924970700000813,None,space,2.7457407000001695,None,0,0,0,0,,,,,7,0,56,0,164.78532390000055,,,,,,,,,,,,,,,,,,,,,164.76988660000006,164.78532390000055,165.26884300000074,165.27382370000032,165.28989180000008,167.2178188000007,,,,,167.21794790000058,167.23367730000064,167.43399829999998,167.41800839999996,165.28989180000008,,,,,,,,0,0,1.924970700000813,None,,,,,,,,866,22,M,L,2026-02-18_12h28.55.581,VisualSearch_2526_3,,2025.2.4,2026-02-18 12h28.55.778699 +0100,
tilted.xlsx,The target is tilted.,117,57,1,7,0,0,0,0,0,0,0,0,0,0,0,0,1,1,1,117,space,3.618123100000048,None,0,1,0.6741464999995515,None,space,2.7457407000001695,None,0,0,0,0,,,,,7,1,57,7,167.43399829999998,,,,,,,,,,,,,,,,,,,,,167.41871679999986,167.43399829999998,167.9177583999999,167.92268250000052,167.93745860000035,168.61706540000068,,,,,168.61719640000047,168.6330557000001,168.83300990000043,168.81739480000033,167.93745860000035,,,,,,,,0,1,0.6741464999995515,None,,,,,,,,866,22,M,L,2026-02-18_12h28.55.581,VisualSearch_2526_3,,2025.2.4,2026-02-18 12h28.55.778699 +0100,
tilted.xlsx,The target is tilted.,117,58,2,7,1,1,1,1,0,0,0,0,0,0,0,0,0,3,4,117,space,3.618123100000048,None,1,1,1.0936543999996502,None,space,2.7457407000001695,None,0,0,0,0,,,,,7,2,58,2,168.83300990000043,,,,,,,,,,,,,,,,,,,,,168.81813770000008,168.83300990000043,169.3169699,169.32189150000067,169.33798350000052,170.43338350000067,,,,,170.4335387000001,170.44882890000008,170.64896190000036,170.63313180000023,169.33798350000052,,,,,,,,1,1,1.0936543999996502,None,,,,,,,,866,22,M,L,2026-02-18_12h28.55.581,VisualSearch_2526_3,,2025.2.4,2026-02-18 12h28.55.778699 +0100,
tilted.xlsx,The target is tilted.,117,59,3,7,0,1,1,1,0,0,0,0,0,0,0,0,1,3,4,117,space,3.618123100000048,None,0,1,0.7073257000001831,None,space,2.7457407000001695,None,0,0,0,0,,,,,7,3,59,6,170.64896190000036,,,,,,,,,,,,,,,,,,,,,170.6338925,170.64896190000036,171.13293520000025,171.13775200000055,171.15417770000022,171.86611040000025,,,,,171.86627099999987,171.8817364000006,172.08171680000032,172.06570040000042,171.15417770000022,,,,,,,,0,1,0.7073257000001831,None,,,,,,,,866,22,M,L,2026-02-18_12h28.55.581,VisualSearch_2526_3,,2025.2.4,2026-02-18 12h28.55.778699 +0100,
tilted.xlsx,The target is tilted.,117,60,4,7,0,1,1,1,1,1,1,1,0,0,0,0,1,7,8,117,space,3.618123100000048,None,0,1,1.4478260999994745,None,space,2.7457407000001695,None,0,0,0,0,,,,,7,4,60,5,172.08171680000032,,,,,,,,,,,,,,,,,,,,,172.06645160000062,172.08171680000032,172.56557220000013,172.57048020000002,172.58603230000062,174.04819990000033,,,,,174.0484019000005,174.0639125000007,174.2643166000007,174.24788090000038,172.58603230000062,,,,,,,,0,1,1.4478260999994745,None,,,,,,,,866,22,M,L,2026-02-18_12h28.55.581,VisualSearch_2526_3,,2025.2.4,2026-02-18 12h28.55.778699 +0100,
tilted.xlsx,The target is tilted.,117,61,5,7,1,0,0,0,0,0,0,0,0,0,0,0,0,0,1,117,space,3.618123100000048,None,1,1,0.6811214999997901,None,space,2.7457407000001695,None,0,0,0,0,,,,,7,5,61,3,174.2643166000007,,,,,,,,,,,,,,,,,,,,,174.24864960000014,174.2643166000007,174.74810660000003,174.75304910000068,174.76768420000008,175.46414660000028,,,,,175.46432220000042,175.47986420000052,175.6801370000003,175.66432160000022,174.76768420000008,,,,,,,,1,1,0.6811214999997901,None,,,,,,,,866,22,M,L,2026-02-18_12h28.55.581,VisualSearch_2526_3,,2025.2.4,2026-02-18 12h28.55.778699 +0100,
tilted.xlsx,The target is tilted.,117,62,6,7,1,1,1,1,1,1,1,1,0,0,0,0,0,7,8,117,space,3.618123100000048,None,1,1,1.7675205000005008,None,space,2.7457407000001695,None,0,0,0,0,,,,,7,6,62,1,175.6801370000003,,,,,,,,,,,,,,,,,,,,,175.66503720000037,175.6801370000003,176.16386779999993,176.16872409999996,176.1828169999999,177.9634888999999,,,,,177.96366350000062,177.9788122,178.17928810000012,178.16304260000015,176.1828169999999,,,,,,,,1,1,1.7675205000005008,None,,,,,,,,866,22,M,L,2026-02-18_12h28.55.581,VisualSearch_2526_3,,2025.2.4,2026-02-18 12h28.55.778699 +0100,
tilted.xlsx,The target is tilted.,117,63,7,7,0,1,1,1,1,1,1,1,1,1,1,1,1,11,12,117,space,3.618123100000048,None,0,1,1.3093238999999812,None,space,2.7457407000001695,None,0,0,0,0,,,,,7,7,63,4,178.17928810000012,,,,,,,,,,,,,,,,,,,,,178.16382169999997,178.17928810000012,178.66278169999987,178.6676135000007,178.68378639999992,179.99635070000022,,,,,179.99656290000075,180.01122740000028,180.2113773000001,180.19554210000024,178.68378639999992,,,,,,,,0,1,1.3093238999999812,None,,,,,,,,866,22,M,L,2026-02-18_12h28.55.581,VisualSearch_2526_3,,2025.2.4,2026-02-18 12h28.55.778699 +0100,
tilted.xlsx,The target is tilted.,117,64,0,8,0,1,1,1,1,1,1,1,0,0,0,0,1,7,8,117,space,3.618123100000048,None,0,1,1.872229800000241,None,space,2.7457407000001695,None,0,0,0,0,,,,,8,0,64,5,180.2113773000001,,,,,,,,,,,,,,,,,,,,,180.19626920000064,180.2113773000001,180.69523540000046,180.70014750000064,180.7162369000007,182.5941900000007,,,,,182.59431640000003,182.61006830000042,182.81056870000066,182.79426610000064,180.7162369000007,,,,,,,,0,1,1.872229800000241,None,,,,,,,,866,22,M,L,2026-02-18_12h28.55.581,VisualSearch_2526_3,,2025.2.4,2026-02-18 12h28.55.778699 +0100,
tilted.xlsx,The target is tilted.,117,65,1,8,0,1,1,1,0,0,0,0,0,0,0,0,1,3,4,117,space,3.618123100000048,None,0,1,1.2911594000006517,None,space,2.7457407000001695,None,0,0,0,0,,,,,8,1,65,6,182.81056870000066,,,,,,,,,,,,,,,,,,,,,182.7950733000007,182.81056870000066,183.2941492,183.29895820000002,183.31462640000063,184.61044720000064,,,,,184.61064350000015,184.62578200000007,184.82623870000043,184.81009489999997,183.31462640000063,,,,,,,,0,1,1.2911594000006517,None,,,,,,,,866,22,M,L,2026-02-18_12h28.55.581,VisualSearch_2526_3,,2025.2.4,2026-02-18 12h28.55.778699 +0100,
tilted.xlsx,The target is tilted.,117,66,2,8,1,0,0,0,0,0,0,0,0,0,0,0,0,0,1,117,space,3.618123100000048,None,1,1,0.5826838000002681,None,space,2.7457407000001695,None,0,0,0,0,,,,,8,2,66,3,184.82623870000043,,,,,,,,,,,,,,,,,,,,,184.81082060000062,184.82623870000043,185.30976869999995,185.31467109999994,185.33035890000065,185.92622260000007,,,,,185.92638540000007,185.94188500000018,186.14195050000035,186.1261844999999,185.33035890000065,,,,,,,,1,1,0.5826838000002681,None,,,,,,,,866,22,M,L,2026-02-18_12h28.55.581,VisualSearch_2526_3,,2025.2.4,2026-02-18 12h28.55.778699 +0100,
tilted.xlsx,The target is tilted.,117,67,3,8,1,1,1,1,1,1,1,1,1,1,1,1,0,11,12,117,space,3.618123100000048,None,1,1,1.8339734999999564,None,space,2.7457407000001695,None,0,0,0,0,,,,,8,3,67,0,186.14195050000035,,,,,,,,,,,,,,,,,,,,,186.1269054000004,186.14195050000035,186.6258484,186.63072730000022,186.64553760000035,188.49093410000023,,,,,188.49101040000005,188.5076652000007,,188.6915251999999,186.64553760000035,,,,,,,,1,1,1.8339734999999564,None,,,,,,,,866,22,M,L,2026-02-18_12h28.55.581,VisualSearch_2526_3,,2025.2.4,2026-02-18 12h28.55.778699 +0100,
tilted.xlsx,The target is tilted.,117,68,4,8,0,0,0,0,0,0,0,0,0,0,0,0,1,1,1,117,space,3.618123100000048,None,0,1,0.5112062999996851,None,space,2.7457407000001695,None,0,0,0,0,,,,,8,4,68,7,188.70779949999996,,,,,,,,,,,,,,,,,,,,,188.6923013000005,188.70779949999996,189.1910166000007,189.19317610000053,189.20746510000026,189.72472259999995,,,,,189.72485940000024,189.74016350000056,189.94059670000024,189.92410410000048,189.20746510000026,,,,,,,,0,1,0.5112062999996851,None,,,,,,,,866,22,M,L,2026-02-18_12h28.55.581,VisualSearch_2526_3,,2025.2.4,2026-02-18 12h28.55.778699 +0100,
tilted.xlsx,The target is tilted.,117,69,5,8,0,1,1,1,1,1,1,1,1,1,1,1,1,11,12,117,space,3.618123100000048,None,0,1,1.4954091999998127,None,space,2.7457407000001695,None,0,0,0,0,,,,,8,5,69,4,189.94059670000024,,,,,,,,,,,,,,,,,,,,,189.9248576,189.94059670000024,190.42421809999996,190.42891450000025,190.4429651999999,191.94016850000025,,,,,191.94028049999997,191.95557129999997,192.15635139999995,192.14012060000005,190.4429651999999,,,,,,,,0,1,1.4954091999998127,None,,,,,,,,866,22,M,L,2026-02-18_12h28.55.581,VisualSearch_2526_3,,2025.2.4,2026-02-18 12h28.55.778699 +0100,
tilted.xlsx,The target is tilted.,117,70,6,8,1,1,1,1,1,1,1,1,0,0,0,0,0,7,8,117,space,3.618123100000048,None,0,0,1.8312034000000494,None,space,2.7457407000001695,None,0,0,0,0,,,,,8,6,70,1,192.15635139999995,,,,,,,,,,,,,,,,,,,,,192.1409510000003,192.15635139999995,192.63991239999996,192.64468600000055,192.6604186000004,194.50559650000014,,,,,194.50578010000027,194.5212586000007,194.7213812,194.7055952999999,192.6604186000004,,,,,,,,0,0,1.8312034000000494,None,,,,,,,,866,22,M,L,2026-02-18_12h28.55.581,VisualSearch_2526_3,,2025.2.4,2026-02-18 12h28.55.778699 +0100,
tilted.xlsx,The target is tilted.,117,71,7,8,1,1,1,1,0,0,0,0,0,0,0,0,0,3,4,117,space,3.618123100000048,None,1,1,1.2461848999992071,None,space,2.7457407000001695,None,0,0,0,0,,,,,8,7,71,2,194.7213812,,,,,,,,,,,,,,,,,,,,,194.7063715000004,194.7213812,195.20509089999996,195.20987180000066,195.22595619999993,196.48764970000047,,,,,196.48777289999998,196.50417110000035,196.7041809000002,196.68804720000026,195.22595619999993,,,,,,,,1,1,1.2461848999992071,None,,,,,,,,866,22,M,L,2026-02-18_12h28.55.581,VisualSearch_2526_3,,2025.2.4,2026-02-18 12h28.55.778699 +0100,
tilted.xlsx,The target is tilted.,117,72,0,9,0,1,1,1,0,0,0,0,0,0,0,0,1,3,4,117,space,3.618123100000048,None,0,1,0.8502386999998635,None,space,2.7457407000001695,None,0,0,0,0,,,,,9,0,72,6,196.7041809000002,,,,,,,,,,,,,,,,,,,,,196.68884740000067,196.7041809000002,197.1874256000001,197.19001260000005,197.20378830000027,198.07030880000002,,,,,198.0704439000001,198.08629509999992,198.28680650000024,198.27067080000052,197.20378830000027,,,,,,,,0,1,0.8502386999998635,None,,,,,,,,866,22,M,L,2026-02-18_12h28.55.581,VisualSearch_2526_3,,2025.2.4,2026-02-18 12h28.55.778699 +0100,
tilted.xlsx,The target is tilted.,117,73,1,9,1,1,1,1,1,1,1,1,1,1,1,1,0,11,12,117,space,3.618123100000048,None,0,0,1.7292094000004,None,space,2.7457407000001695,None,0,0,0,0,,,,,9,1,73,0,198.28680650000024,,,,,,,,,,,,,,,,,,,,,198.2714629000002,198.28680650000024,198.77037480000035,198.77513129999988,198.7897311000006,200.52025680000042,,,,,200.5204463,200.53520620000018,200.73565719999988,200.71952300000066,198.7897311000006,,,,,,,,0,0,1.7292094000004,None,,,,,,,,866,22,M,L,2026-02-18_12h28.55.581,VisualSearch_2526_3,,2025.2.4,2026-02-18 12h28.55.778699 +0100,
tilted.xlsx,The target is tilted.,117,74,2,9,1,1,1,1,1,1,1,1,0,0,0,0,0,7,8,117,space,3.618123100000048,None,0,0,1.2992990000002465,None,space,2.7457407000001695,None,0,0,0,0,,,,,9,2,74,1,200.73565719999988,,,,,,,,,,,,,,,,,,,,,200.72026559999995,200.73565719999988,201.2193416,201.2241297999999,201.2377550000001,202.55186630000026,,,,,202.55203800000072,202.56768199999988,202.76793980000002,202.75159560000066,201.2377550000001,,,,,,,,0,0,1.2992990000002465,None,,,,,,,,866,22,M,L,2026-02-18_12h28.55.581,VisualSearch_2526_3,,2025.2.4,2026-02-18 12h28.55.778699 +0100,
tilted.xlsx,The target is tilted.,117,75,3,9,0,1,1,1,1,1,1,1,0,0,0,0,1,7,8,117,space,3.618123100000048,None,0,1,1.881003999999848,None,space,2.7457407000001695,None,0,0,0,0,,,,,9,3,75,5,202.76793980000002,,,,,,,,,,,,,,,,,,,,,202.75235020000036,202.76793980000002,203.25184940000054,203.25667460000022,203.27040800000032,205.16746440000043,,,,,205.16767400000026,205.1831439000007,205.38335430000006,205.3675344000003,203.27040800000032,,,,,,,,0,1,1.881003999999848,None,,,,,,,,866,22,M,L,2026-02-18_12h28.55.581,VisualSearch_2526_3,,2025.2.4,2026-02-18 12h28.55.778699 +0100,
tilted.xlsx,The target is tilted.,117,76,4,9,1,1,1,1,0,0,0,0,0,0,0,0,0,3,4,117,space,3.618123100000048,None,1,1,0.6782493999999133,None,space,2.7457407000001695,None,0,0,0,0,,,,,9,4,76,2,205.38335430000006,,,,,,,,,,,,,,,,,,,,,205.36829930000022,205.38335430000006,205.86726870000075,205.87209620000067,205.88711480000075,206.56681340000068,,,,,206.56701220000014,206.58246450000024,206.7825487,206.76707540000007,205.88711480000075,,,,,,,,1,1,0.6782493999999133,None,,,,,,,,866,22,M,L,2026-02-18_12h28.55.581,VisualSearch_2526_3,,2025.2.4,2026-02-18 12h28.55.778699 +0100,
tilted.xlsx,The target is tilted.,117,77,5,9,0,0,0,0,0,0,0,0,0,0,0,0,1,1,1,117,space,3.618123100000048,None,0,1,0.6138097000002745,None,space,2.7457407000001695,None,0,0,0,0,,,,,9,5,77,7,206.7825487,,,,,,,,,,,,,,,,,,,,,206.76781120000032,206.7825487,207.26659389999986,207.27149800000007,207.28649680000035,207.9160083000006,,,,,207.91620120000061,207.93181220000042,208.13220290000027,208.11620120000043,207.28649680000035,,,,,,,,0,1,0.6138097000002745,None,,,,,,,,866,22,M,L,2026-02-18_12h28.55.581,VisualSearch_2526_3,,2025.2.4,2026-02-18 12h28.55.778699 +0100,
tilted.xlsx,The target is tilted.,117,78,6,9,0,1,1,1,1,1,1,1,1,1,1,1,1,11,12,117,space,3.618123100000048,None,0,1,1.9885061999993923,None,space,2.7457407000001695,None,0,0,0,0,,,,,9,6,78,4,208.13220290000027,,,,,,,,,,,,,,,,,,,,,208.1169628000007,208.13220290000027,208.6159817000007,208.6207858000007,208.63593570000012,210.6323680000005,,,,,210.63256140000067,210.64728680000007,210.84770690000005,210.8312194,208.63593570000012,,,,,,,,0,1,1.9885061999993923,None,,,,,,,,866,22,M,L,2026-02-18_12h28.55.581,VisualSearch_2526_3,,2025.2.4,2026-02-18 12h28.55.778699 +0100,
tilted.xlsx,The target is tilted.,117,79,7,9,1,0,0,0,0,0,0,0,0,0,0,0,0,0,1,117,space,3.618123100000048,None,1,1,0.681093499999406,None,space,2.7457407000001695,None,0,0,0,0,,,,,9,7,79,3,210.84770690000005,,,,,,,,,,,,,,,,,,,,,210.8319658999999,210.84770690000005,211.33141650000016,211.33608400000048,211.3506722000002,212.04757590000008,,,,,212.04776800000036,212.06327110000075,212.26384020000023,212.24771480000072,211.3506722000002,,,,,,,,1,1,0.681093499999406,None,,,,,,,,866,22,M,L,2026-02-18_12h28.55.581,VisualSearch_2526_3,,2025.2.4,2026-02-18 12h28.55.778699 +0100,
tilted.xlsx,The target is tilted.,117,80,0,10,0,1,1,1,1,1,1,1,0,0,0,0,1,7,8,117,space,3.618123100000048,None,0,1,2.246905200000583,None,space,2.7457407000001695,None,0,0,0,0,,,,,10,0,80,5,212.26384020000023,,,,,,,,,,,,,,,,,,,,,212.2484540000005,212.26384020000023,212.74744069999997,212.7521869000002,212.76709560000018,215.02935010000056,,,,,215.02948470000047,215.04549300000053,215.24578350000047,215.22963359999994,212.76709560000018,,,,,,,,0,1,2.246905200000583,None,,,,,,,,866,22,M,L,2026-02-18_12h28.55.581,VisualSearch_2526_3,,2025.2.4,2026-02-18 12h28.55.778699 +0100,
tilted.xlsx,The target is tilted.,117,81,1,10,1,1,1,1,0,0,0,0,0,0,0,0,0,3,4,117,space,3.618123100000048,None,1,1,0.7997405999994953,None,space,2.7457407000001695,None,0,0,0,0,,,,,10,1,81,2,215.24578350000047,,,,,,,,,,,,,,,,,,,,,215.2303608000002,215.24578350000047,215.7291264000005,215.73394830000052,215.74947240000074,216.5624445000003,,,,,216.5626183000004,216.57793540000057,216.77838470000006,216.76209910000034,215.74947240000074,,,,,,,,1,1,0.7997405999994953,None,,,,,,,,866,22,M,L,2026-02-18_12h28.55.581,VisualSearch_2526_3,,2025.2.4,2026-02-18 12h28.55.778699 +0100,
tilted.xlsx,The target is tilted.,117,82,2,10,0,1,1,1,1,1,1,1,1,1,1,1,1,11,12,117,space,3.618123100000048,None,0,1,2.2589539000000514,None,space,2.7457407000001695,None,0,0,0,0,,,,,10,2,82,4,216.77838470000006,,,,,,,,,,,,,,,,,,,,,216.76286320000054,216.77838470000006,217.26164640000025,217.26649120000002,217.28211050000027,219.54438750000008,,,,,219.54462010000043,219.55986420000045,219.7604067000002,219.74417650000032,217.28211050000027,,,,,,,,0,1,2.2589539000000514,None,,,,,,,,866,22,M,L,2026-02-18_12h28.55.581,VisualSearch_2526_3,,2025.2.4,2026-02-18 12h28.55.778699 +0100,
tilted.xlsx,The target is tilted.,117,83,3,10,1,1,1,1,1,1,1,1,0,0,0,0,0,7,8,117,space,3.618123100000048,None,1,1,0.884650199999669,None,space,2.7457407000001695,None,0,0,0,0,,,,,10,3,83,1,219.7604067000002,,,,,,,,,,,,,,,,,,,,,219.7449411000007,219.7604067000002,220.2438288000003,220.2485843000004,220.26506169999993,221.16092920000028,,,,,221.16114410000046,221.17592310000055,221.37593170000036,221.36026700000002,220.26506169999993,,,,,,,,1,1,0.884650199999669,None,,,,,,,,866,22,M,L,2026-02-18_12h28.55.581,VisualSearch_2526_3,,2025.2.4,2026-02-18 12h28.55.778699 +0100,
tilted.xlsx,The target is tilted.,117,84,4,10,0,0,0,0,0,0,0,0,0,0,0,0,1,1,1,117,space,3.618123100000048,None,0,1,0.7848973000000115,None,space,2.7457407000001695,None,0,0,0,0,,,,,10,4,84,7,221.37593170000036,,,,,,,,,,,,,,,,,,,,,221.3609890000007,221.37593170000036,221.86010200000055,221.86486400000013,221.88052140000036,222.676829,,,,,222.67702270000063,222.69233160000022,222.89188400000057,222.87580760000037,221.88052140000036,,,,,,,,0,1,0.7848973000000115,None,,,,,,,,866,22,M,L,2026-02-18_12h28.55.581,VisualSearch_2526_3,,2025.2.4,2026-02-18 12h28.55.778699 +0100,
tilted.xlsx,The target is tilted.,117,85,5,10,0,1,1,1,0,0,0,0,0,0,0,0,1,3,4,117,space,3.618123100000048,None,0,1,0.9753270000001066,None,space,2.7457407000001695,None,0,0,0,0,,,,,10,5,85,6,222.89188400000057,,,,,,,,,,,,,,,,,,,,,222.87656680000055,222.89188400000057,223.37593509999988,223.38068580000072,223.39638490000016,224.3756385000006,,,,,224.375814,224.39147649999995,224.59152280000035,224.57540080000035,223.39638490000016,,,,,,,,0,1,0.9753270000001066,None,,,,,,,,866,22,M,L,2026-02-18_12h28.55.581,VisualSearch_2526_3,,2025.2.4,2026-02-18 12h28.55.778699 +0100,
tilted.xlsx,The target is tilted.,117,86,6,10,1,1,1,1,1,1,1,1,1,1,1,1,0,11,12,117,space,3.618123100000048,None,1,1,1.5575605000003634,None,space,2.7457407000001695,None,0,0,0,0,,,,,10,6,86,0,224.59152280000035,,,,,,,,,,,,,,,,,,,,,224.5761235,224.59152280000035,225.07508159999998,225.07988720000048,225.0957453000001,226.65768320000006,,,,,226.65782740000031,226.67389110000022,226.87385150000046,226.85725129999992,225.0957453000001,,,,,,,,1,1,1.5575605000003634,None,,,,,,,,866,22,M,L,2026-02-18_12h28.55.581,VisualSearch_2526_3,,2025.2.4,2026-02-18 12h28.55.778699 +0100,
tilted.xlsx,The target is tilted.,117,87,7,10,1,0,0,0,0,0,0,0,0,0,0,0,0,0,1,117,space,3.618123100000048,None,1,1,0.9257370999994237,None,space,2.7457407000001695,None,0,0,0,0,,,,,10,7,87,3,226.87385150000046,,,,,,,,,,,,,,,,,,,,,226.85798890000024,226.87385150000046,227.35746780000045,227.36168679999992,227.37350620000052,228.3073183000006,,,,,228.30750910000006,228.32305070000075,228.52299380000022,228.5069878000004,227.37350620000052,,,,,,,,1,1,0.9257370999994237,None,,,,,,,,866,22,M,L,2026-02-18_12h28.55.581,VisualSearch_2526_3,,2025.2.4,2026-02-18 12h28.55.778699 +0100,
tilted.xlsx,The target is tilted.,117,88,0,11,1,1,1,1,1,1,1,1,0,0,0,0,0,7,8,117,space,3.618123100000048,None,1,1,1.301680500000657,None,space,2.7457407000001695,None,0,0,0,0,,,,,11,0,88,1,228.52299380000022,,,,,,,,,,,,,,,,,,,,,228.5076853999999,228.52299380000022,229.00670850000006,229.01147720000063,229.02729080000063,230.3390913000003,,,,,230.33920690000014,230.35511270000006,230.55548700000054,230.53968070000064,229.02729080000063,,,,,,,,1,1,1.301680500000657,None,,,,,,,,866,22,M,L,2026-02-18_12h28.55.581,VisualSearch_2526_3,,2025.2.4,2026-02-18 12h28.55.778699 +0100,
tilted.xlsx,The target is tilted.,117,89,1,11,0,0,0,0,0,0,0,0,0,0,0,0,1,1,1,117,space,3.618123100000048,None,0,1,0.5586740999997346,None,space,2.7457407000001695,None,0,0,0,0,,,,,11,1,89,7,230.55548700000054,,,,,,,,,,,,,,,,,,,,,230.54074020000007,230.55548700000054,231.03927310000017,231.04404800000066,231.05949050000072,231.62241970000014,,,,,231.62261620000027,231.6384175000003,231.83825250000064,231.82180229999994,231.05949050000072,,,,,,,,0,1,0.5586740999997346,None,,,,,,,,866,22,M,L,2026-02-18_12h28.55.581,VisualSearch_2526_3,,2025.2.4,2026-02-18 12h28.55.778699 +0100,
tilted.xlsx,The target is tilted.,117,90,2,11,1,1,1,1,1,1,1,1,1,1,1,1,0,11,12,117,space,3.618123100000048,None,1,1,0.8311580999998114,None,space,2.7457407000001695,None,0,0,0,0,,,,,11,2,90,0,231.83825250000064,,,,,,,,,,,,,,,,,,,,,231.82252360000075,231.83825250000064,232.3219251999999,232.32653140000002,232.33793330000026,233.17235130000063,,,,,233.1725575999999,233.1871086000001,233.3875521,233.3713682000007,232.33793330000026,,,,,,,,1,1,0.8311580999998114,None,,,,,,,,866,22,M,L,2026-02-18_12h28.55.581,VisualSearch_2526_3,,2025.2.4,2026-02-18 12h28.55.778699 +0100,
tilted.xlsx,The target is tilted.,117,91,3,11,0,1,1,1,1,1,1,1,1,1,1,1,1,11,12,117,space,3.618123100000048,None,0,1,2.130160700000488,None,space,2.7457407000001695,None,0,0,0,0,,,,,11,3,91,4,233.3875521,,,,,,,,,,,,,,,,,,,,,233.37216380000064,233.3875521,233.87124590000076,233.8756572000002,233.88716660000046,236.02039240000067,,,,,236.02053669999987,236.03615760000048,236.23624960000052,236.22012170000016,233.88716660000046,,,,,,,,0,1,2.130160700000488,None,,,,,,,,866,22,M,L,2026-02-18_12h28.55.581,VisualSearch_2526_3,,2025.2.4,2026-02-18 12h28.55.778699 +0100,
tilted.xlsx,The target is tilted.,117,92,4,11,0,1,1,1,0,0,0,0,0,0,0,0,1,3,4,117,space,3.618123100000048,None,0,1,0.8383059999996476,None,space,2.7457407000001695,None,0,0,0,0,,,,,11,4,92,6,236.23624960000052,,,,,,,,,,,,,,,,,,,,,236.2208558000002,236.23624960000052,236.7195558000003,236.72445659999994,236.7386746000002,237.5868147000001,,,,,237.58703940000032,237.6022126000007,237.80215120000048,237.78592970000045,236.7386746000002,,,,,,,,0,1,0.8383059999996476,None,,,,,,,,866,22,M,L,2026-02-18_12h28.55.581,VisualSearch_2526_3,,2025.2.4,2026-02-18 12h28.55.778699 +0100,
tilted.xlsx,The target is tilted.,117,93,5,11,1,1,1,1,0,0,0,0,0,0,0,0,0,3,4,117,space,3.618123100000048,None,1,1,0.8450757000000522,None,space,2.7457407000001695,None,0,0,0,0,,,,,11,5,93,2,237.80215120000048,,,,,,,,,,,,,,,,,,,,,237.7866893999999,237.80215120000048,238.28591340000003,238.2907285000001,238.30631770000036,239.16885380000076,,,,,239.16904930000055,239.18433040000036,239.38485579999997,239.36861470000076,238.30631770000036,,,,,,,,1,1,0.8450757000000522,None,,,,,,,,866,22,M,L,2026-02-18_12h28.55.581,VisualSearch_2526_3,,2025.2.4,2026-02-18 12h28.55.778699 +0100,
tilted.xlsx,The target is tilted.,117,94,6,11,1,0,0,0,0,0,0,0,0,0,0,0,0,0,1,117,space,3.618123100000048,None,1,1,0.6644679000000906,None,space,2.7457407000001695,None,0,0,0,0,,,,,11,6,94,3,239.38485579999997,,,,,,,,,,,,,,,,,,,,,239.36935859999994,239.38485579999997,239.8684787000002,239.87327050000022,239.8870734000002,240.5684684000007,,,,,240.56868920000034,240.58421960000032,240.78415829999994,240.76805380000042,239.8870734000002,,,,,,,,1,1,0.6644679000000906,None,,,,,,,,866,22,M,L,2026-02-18_12h28.55.581,VisualSearch_2526_3,,2025.2.4,2026-02-18 12h28.55.778699 +0100,
tilted.xlsx,The target is tilted.,117,95,7,11,0,1,1,1,1,1,1,1,0,0,0,0,1,7,8,117,space,3.618123100000048,None,0,1,1.7751705000000584,None,space,2.7457407000001695,None,0,0,0,0,,,,,11,7,95,5,240.78415829999994,,,,,,,,,,,,,,,,,,,,,240.7687904000004,240.78415829999994,241.26774840000053,241.27208490000066,241.28335380000044,243.06715560000066,,,,,243.06730380000045,243.08283440000014,243.28300020000006,243.26692430000003,241.28335380000044,,,,,,,,0,1,1.7751705000000584,None,,,,,,,,866,22,M,L,2026-02-18_12h28.55.581,VisualSearch_2526_3,,2025.2.4,2026-02-18 12h28.55.778699 +0100,
tilted.xlsx,The target is tilted.,117,96,0,12,1,1,1,1,0,0,0,0,0,0,0,0,0,3,4,117,space,3.618123100000048,None,1,1,0.7053478999996514,None,space,2.7457407000001695,None,0,0,0,0,,,,,12,0,96,2,243.28300020000006,,,,,,,,,,,,,,,,,,,,,243.2676706000002,243.28300020000006,243.76667559999987,243.77143180000076,243.78761060000033,244.5001075,,,,,244.50028010000005,244.5157624000003,244.71564399999988,244.69925930000045,243.78761060000033,,,,,,,,1,1,0.7053478999996514,None,,,,,,,,866,22,M,L,2026-02-18_12h28.55.581,VisualSearch_2526_3,,2025.2.4,2026-02-18 12h28.55.778699 +0100,
tilted.xlsx,The target is tilted.,117,97,1,12,0,1,1,1,1,1,1,1,1,1,1,1,1,11,12,117,space,3.618123100000048,None,0,1,1.7869597999997495,None,space,2.7457407000001695,None,0,0,0,0,,,,,12,1,97,4,244.71564399999988,,,,,,,,,,,,,,,,,,,,,244.70000380000056,244.71564399999988,245.1989661000007,245.20107150000058,245.21530640000037,247.01577630000065,,,,,247.01596980000068,247.0312584000003,247.23126910000065,247.21512380000058,245.21530640000037,,,,,,,,0,1,1.7869597999997495,None,,,,,,,,866,22,M,L,2026-02-18_12h28.55.581,VisualSearch_2526_3,,2025.2.4,2026-02-18 12h28.55.778699 +0100,
tilted.xlsx,The target is tilted.,117,98,2,12,1,1,1,1,1,1,1,1,0,0,0,0,0,7,8,117,space,3.618123100000048,None,1,1,2.435750800000278,None,space,2.7457407000001695,None,0,0,0,0,,,,,12,2,98,1,247.23126910000065,,,,,,,,,,,,,,,,,,,,,247.21585030000006,247.23126910000065,247.7147055000005,247.7194354000003,247.7337335000002,250.18089930000042,,,,,250.1810841000006,250.1961033000007,250.39647910000076,250.38000999999986,247.7337335000002,,,,,,,,1,1,2.435750800000278,None,,,,,,,,866,22,M,L,2026-02-18_12h28.55.581,VisualSearch_2526_3,,2025.2.4,2026-02-18 12h28.55.778699 +0100,
tilted.xlsx,The target is tilted.,117,99,3,12,1,1,1,1,1,1,1,1,1,1,1,1,0,11,12,117,space,3.618123100000048,None,0,0,2.1364594000006036,None,space,2.7457407000001695,None,0,0,0,0,,,,,12,3,99,0,250.39647910000076,,,,,,,,,,,,,,,,,,,,,250.38076340000043,250.39647910000076,250.87977290000072,250.88460000000032,250.89612800000032,253.04643690000012,,,,,253.0466288000007,253.06182190000072,253.26149690000057,253.24591640000017,250.89612800000032,,,,,,,,0,0,2.1364594000006036,None,,,,,,,,866,22,M,L,2026-02-18_12h28.55.581,VisualSearch_2526_3,,2025.2.4,2026-02-18 12h28.55.778699 +0100,
tilted.xlsx,The target is tilted.,117,100,4,12,0,1,1,1,0,0,0,0,0,0,0,0,1,3,4,117,space,3.618123100000048,None,0,1,0.9078986000004079,None,space,2.7457407000001695,None,0,0,0,0,,,,,12,4,100,6,253.26149690000057,,,,,,,,,,,,,,,,,,,,,253.24666520000028,253.26149690000057,253.7455428000003,253.75038360000053,253.76669860000038,254.67855690000033,,,,,254.67873210000016,254.69444810000005,254.89446600000065,254.87824009999986,253.76669860000038,,,,,,,,0,1,0.9078986000004079,None,,,,,,,,866,22,M,L,2026-02-18_12h28.55.581,VisualSearch_2526_3,,2025.2.4,2026-02-18 12h28.55.778699 +0100,
tilted.xlsx,The target is tilted.,117,101,5,12,1,0,0,0,0,0,0,0,0,0,0,0,0,0,1,117,space,3.618123100000048,None,1,1,0.5244331000003513,None,space,2.7457407000001695,None,0,0,0,0,,,,,12,5,101,3,254.89446600000065,,,,,,,,,,,,,,,,,,,,,254.87901430000056,254.89446600000065,255.37805350000053,255.38280630000008,255.39882340000077,255.92831810000007,,,,,255.92854369999986,255.94391520000045,256.1438332000007,256.1277256000003,255.39882340000077,,,,,,,,1,1,0.5244331000003513,None,,,,,,,,866,22,M,L,2026-02-18_12h28.55.581,VisualSearch_2526_3,,2025.2.4,2026-02-18 12h28.55.778699 +0100,
tilted.xlsx,The target is tilted.,117,102,6,12,0,0,0,0,0,0,0,0,0,0,0,0,1,1,1,117,space,3.618123100000048,None,0,1,0.6125554999998712,None,space,2.7457407000001695,None,0,0,0,0,,,,,12,6,102,7,256.1438332000007,,,,,,,,,,,,,,,,,,,,,256.1284493000003,256.1438332000007,256.6275331000006,256.6325891000006,256.6485295000002,257.27752990000045,,,,,257.2777036000007,257.29289940000035,257.4932318000001,257.47714710000037,256.6485295000002,,,,,,,,0,1,0.6125554999998712,None,,,,,,,,866,22,M,L,2026-02-18_12h28.55.581,VisualSearch_2526_3,,2025.2.4,2026-02-18 12h28.55.778699 +0100,
tilted.xlsx,The target is tilted.,117,103,7,12,0,1,1,1,1,1,1,1,0,0,0,0,1,7,8,117,space,3.618123100000048,None,0,1,1.8003242999993745,None,space,2.7457407000001695,None,0,0,0,0,,,,,12,7,103,5,257.4932318000001,,,,,,,,,,,,,,,,,,,,,257.4778659000003,257.4932318000001,257.97685060000003,257.9816644000002,257.99553470000046,259.80953880000015,,,,,259.80967240000064,259.82558830000016,260.02550670000073,260.0093813000003,257.99553470000046,,,,,,,,0,1,1.8003242999993745,None,,,,,,,,866,22,M,L,2026-02-18_12h28.55.581,VisualSearch_2526_3,,2025.2.4,2026-02-18 12h28.55.778699 +0100,
tilted.xlsx,The target is tilted.,117,104,0,13,1,0,0,0,0,0,0,0,0,0,0,0,0,0,1,117,space,3.618123100000048,None,1,1,0.5520912000001772,None,space,2.7457407000001695,None,0,0,0,0,,,,,13,0,104,3,260.02550670000073,,,,,,,,,,,,,,,,,,,,,260.01010550000046,260.02550670000073,260.5089473000007,260.51375989999997,260.5278827000002,261.0919823000004,,,,,261.0921186000005,261.10822520000056,261.3078136000004,261.2919548,260.5278827000002,,,,,,,,1,1,0.5520912000001772,None,,,,,,,,866,22,M,L,2026-02-18_12h28.55.581,VisualSearch_2526_3,,2025.2.4,2026-02-18 12h28.55.778699 +0100,
tilted.xlsx,The target is tilted.,117,105,1,13,0,1,1,1,1,1,1,1,1,1,1,1,1,11,12,117,space,3.618123100000048,None,0,1,2.082845599999928,None,space,2.7457407000001695,None,0,0,0,0,,,,,13,1,105,4,261.3078136000004,,,,,,,,,,,,,,,,,,,,,261.2926989000007,261.3078136000004,261.7920356000004,261.79687510000076,261.81198230000064,263.9078995,,,,,263.9080842000003,263.9234690000003,264.12356290000025,264.1075101000006,261.81198230000064,,,,,,,,0,1,2.082845599999928,None,,,,,,,,866,22,M,L,2026-02-18_12h28.55.581,VisualSearch_2526_3,,2025.2.4,2026-02-18 12h28.55.778699 +0100,
tilted.xlsx,The target is tilted.,117,106,2,13,1,1,1,1,1,1,1,1,1,1,1,1,0,11,12,117,space,3.618123100000048,None,0,0,1.555463900000177,None,space,2.7457407000001695,None,0,0,0,0,,,,,13,2,106,0,264.12356290000025,,,,,,,,,,,,,,,,,,,,,264.1082634000004,264.12356290000025,264.60660310000003,264.6108253000002,264.62524530000064,266.1894213000005,,,,,266.1895002000001,266.2052448000004,266.40598410000075,266.38930600000003,264.62524530000064,,,,,,,,0,0,1.555463900000177,None,,,,,,,,866,22,M,L,2026-02-18_12h28.55.581,VisualSearch_2526_3,,2025.2.4,2026-02-18 12h28.55.778699 +0100,
tilted.xlsx,The target is tilted.,117,107,3,13,0,1,1,1,0,0,0,0,0,0,0,0,1,3,4,117,space,3.618123100000048,None,0,1,0.8586858000007851,None,space,2.7457407000001695,None,0,0,0,0,,,,,13,3,107,6,266.40598410000075,,,,,,,,,,,,,,,,,,,,,266.3900481999999,266.40598410000075,266.88915590000033,266.8940508000005,266.9091066000001,267.7722039,,,,,267.7723274,267.7883603,267.9880960999999,267.9719408000001,266.9091066000001,,,,,,,,0,1,0.8586858000007851,None,,,,,,,,866,22,M,L,2026-02-18_12h28.55.581,VisualSearch_2526_3,,2025.2.4,2026-02-18 12h28.55.778699 +0100,
tilted.xlsx,The target is tilted.,117,108,4,13,1,1,1,1,1,1,1,1,0,0,0,0,0,7,8,117,space,3.618123100000048,None,1,1,1.41303919999973,None,space,2.7457407000001695,None,0,0,0,0,,,,,13,4,108,1,267.9880960999999,,,,,,,,,,,,,,,,,,,,,267.9726608000001,267.9880960999999,268.4719571000005,268.47672070000044,268.4918146,269.9212857000002,,,,,269.92142240000067,269.9373516000005,270.13742600000023,270.12094980000074,268.4918146,,,,,,,,1,1,1.41303919999973,None,,,,,,,,866,22,M,L,2026-02-18_12h28.55.581,VisualSearch_2526_3,,2025.2.4,2026-02-18 12h28.55.778699 +0100,
tilted.xlsx,The target is tilted.,117,109,5,13,0,1,1,1,1,1,1,1,0,0,0,0,1,7,8,117,space,3.618123100000048,None,0,1,1.6554103999997096,None,space,2.7457407000001695,None,0,0,0,0,,,,,13,5,109,5,270.13742600000023,,,,,,,,,,,,,,,,,,,,,270.12160889999996,270.13742600000023,270.6208213,270.62551950000034,270.6411560000006,272.3043189,,,,,272.30451390000053,272.31995690000076,272.51939949999996,272.50351880000017,270.6411560000006,,,,,,,,0,1,1.6554103999997096,None,,,,,,,,866,22,M,L,2026-02-18_12h28.55.581,VisualSearch_2526_3,,2025.2.4,2026-02-18 12h28.55.778699 +0100,
tilted.xlsx,The target is tilted.,117,110,6,13,1,1,1,1,0,0,0,0,0,0,0,0,0,3,4,117,space,3.618123100000048,None,1,1,0.8594481000000087,None,space,2.7457407000001695,None,0,0,0,0,,,,,13,6,110,2,272.51939949999996,,,,,,,,,,,,,,,,,,,,,272.50462030000017,272.51939949999996,273.0034448000006,273.0081758000006,273.0223931999999,273.8867943000005,,,,,273.8874039000002,273.9023126000002,274.1020546,274.08595400000013,273.0223931999999,,,,,,,,1,1,0.8594481000000087,None,,,,,,,,866,22,M,L,2026-02-18_12h28.55.581,VisualSearch_2526_3,,2025.2.4,2026-02-18 12h28.55.778699 +0100,
tilted.xlsx,The target is tilted.,117,111,7,13,0,0,0,0,0,0,0,0,0,0,0,0,1,1,1,117,space,3.618123100000048,None,0,1,0.5242678999993586,None,space,2.7457407000001695,None,0,0,0,0,,,,,13,7,111,7,274.1020546,,,,,,,,,,,,,,,,,,,,,274.0866775000004,274.1020546,274.58598489999986,274.59082190000026,274.6063801999999,275.1361095000002,,,,,275.1362822000001,275.1519089000003,275.35154430000057,275.33572260000074,274.6063801999999,,,,,,,,0,1,0.5242678999993586,None,,,,,,,,866,22,M,L,2026-02-18_12h28.55.581,VisualSearch_2526_3,,2025.2.4,2026-02-18 12h28.55.778699 +0100,
tilted.xlsx,The target is tilted.,117,112,0,14,1,1,1,1,0,0,0,0,0,0,0,0,0,3,4,117,space,3.618123100000048,None,0,0,0.7550572000000102,None,space,2.7457407000001695,None,0,0,0,0,,,,,14,0,112,2,275.35154430000057,,,,,,,,,,,,,,,,,,,,,275.33645180000076,275.35154430000057,275.83547890000045,275.84023550000074,275.85598780000055,276.61883430000034,,,,,276.6190252000006,276.6344448,276.8344655000001,276.81798830000025,275.85598780000055,,,,,,,,0,0,0.7550572000000102,None,,,,,,,,866,22,M,L,2026-02-18_12h28.55.581,VisualSearch_2526_3,,2025.2.4,2026-02-18 12h28.55.778699 +0100,
tilted.xlsx,The target is tilted.,117,113,1,14,0,0,0,0,0,0,0,0,0,0,0,0,1,1,1,117,space,3.618123100000048,None,0,1,0.7487249000005249,None,space,2.7457407000001695,None,0,0,0,0,,,,,14,1,113,7,276.8344655000001,,,,,,,,,,,,,,,,,,,,,276.8187631999999,276.8344655000001,277.31822960000045,277.32310360000065,277.3376662999999,278.10118430000057,,,,,278.10136240000065,278.1171892000002,278.31663430000026,278.30108569999993,277.3376662999999,,,,,,,,0,1,0.7487249000005249,None,,,,,,,,866,22,M,L,2026-02-18_12h28.55.581,VisualSearch_2526_3,,2025.2.4,2026-02-18 12h28.55.778699 +0100,
tilted.xlsx,The target is tilted.,117,114,2,14,1,1,1,1,1,1,1,1,0,0,0,0,0,7,8,117,space,3.618123100000048,None,1,1,1.2807548999999199,None,space,2.7457407000001695,None,0,0,0,0,,,,,14,2,114,1,278.31663430000026,,,,,,,,,,,,,,,,,,,,,278.3018238000004,278.31663430000026,278.80089339999995,278.80570570000054,278.8205334000004,280.1170658000001,,,,,280.1172396000002,280.1329470999999,280.33286940000016,280.3168061000006,278.8205334000004,,,,,,,,1,1,1.2807548999999199,None,,,,,,,,866,22,M,L,2026-02-18_12h28.55.581,VisualSearch_2526_3,,2025.2.4,2026-02-18 12h28.55.778699 +0100,
tilted.xlsx,The target is tilted.,117,115,3,14,0,1,1,1,1,1,1,1,1,1,1,1,1,11,12,117,space,3.618123100000048,None,0,1,1.0366377000000284,None,space,2.7457407000001695,None,0,0,0,0,,,,,14,3,115,4,280.33286940000016,,,,,,,,,,,,,,,,,,,,,280.31754160000037,280.33286940000016,280.8162953000001,280.82110790000024,280.8372503999999,281.8826972000006,,,,,281.88287390000005,281.8987133999999,282.09884070000044,282.08253520000017,280.8372503999999,,,,,,,,0,1,1.0366377000000284,None,,,,,,,,866,22,M,L,2026-02-18_12h28.55.581,VisualSearch_2526_3,,2025.2.4,2026-02-18 12h28.55.778699 +0100,
tilted.xlsx,The target is tilted.,117,116,4,14,0,1,1,1,0,0,0,0,0,0,0,0,1,3,4,117,space,3.618123100000048,None,0,1,0.8588732999996864,None,space,2.7457407000001695,None,0,0,0,0,,,,,14,4,116,6,282.09884070000044,,,,,,,,,,,,,,,,,,,,,282.0832952999999,282.09884070000044,282.5821555000002,282.58690580000075,282.60454220000065,283.4658560000007,,,,,283.4660608000004,283.4814290000004,283.6813933000003,283.66530050000074,282.60454220000065,,,,,,,,0,1,0.8588732999996864,None,,,,,,,,866,22,M,L,2026-02-18_12h28.55.581,VisualSearch_2526_3,,2025.2.4,2026-02-18 12h28.55.778699 +0100,
tilted.xlsx,The target is tilted.,117,117,5,14,1,0,0,0,0,0,0,0,0,0,0,0,0,0,1,117,space,3.618123100000048,None,1,1,0.6043589000000793,None,space,2.7457407000001695,None,0,0,0,0,,,,,14,5,117,3,283.6813933000003,,,,,,,,,,,,,,,,,,,,,283.6660292000006,283.6813933000003,284.16514520000055,284.1700716000005,284.18631970000024,284.79888670000037,,,,,284.79910650000056,284.8137354999999,285.0141364000001,284.99801019999995,284.18631970000024,,,,,,,,1,1,0.6043589000000793,None,,,,,,,,866,22,M,L,2026-02-18_12h28.55.581,VisualSearch_2526_3,,2025.2.4,2026-02-18 12h28.55.778699 +0100,
tilted.xlsx,The target is tilted.,117,118,6,14,0,1,1,1,1,1,1,1,0,0,0,0,1,7,8,117,space,3.618123100000048,None,0,1,1.434547400000156,None,space,2.7457407000001695,None,0,0,0,0,,,,,14,6,118,5,285.0141364000001,,,,,,,,,,,,,,,,,,,,,284.99876270000004,285.0141364000001,285.49776160000056,285.50249470000017,285.5172480000001,286.9637373000005,,,,,286.9638902000006,286.9797513000003,287.1798505000006,287.16358279999986,285.5172480000001,,,,,,,,0,1,1.434547400000156,None,,,,,,,,866,22,M,L,2026-02-18_12h28.55.581,VisualSearch_2526_3,,2025.2.4,2026-02-18 12h28.55.778699 +0100,
tilted.xlsx,The target is tilted.,117,119,7,14,1,1,1,1,1,1,1,1,1,1,1,1,0,11,12,117,space,3.618123100000048,None,1,1,0.9443351999998413,None,space,2.7457407000001695,None,0,0,0,0,,,,,14,7,119,0,287.1798505000006,,,,,,,,,,,,,,,,,,,,,287.1643761000005,287.1798505000006,287.6632782000006,287.66777700000057,287.67956760000015,288.6299544000003,,,,,288.6301119,288.6454510000003,288.85747640000045,288.82957290000013,287.67956760000015,,,,,,,,1,1,0.9443351999998413,None,,,,,,,,866,22,M,L,2026-02-18_12h28.55.581,VisualSearch_2526_3,,2025.2.4,2026-02-18 12h28.55.778699 +0100,
tilted.xlsx,The target is tilted.,117,0,0,0,,,,,,,,,,,,,,,,,space,3.618123100000048,None,,,,,space,2.7457407000001695,None,0,0,0,0,,,,,,,,,,,,,,,,,,,,,,,,,,,,,,,,,,,,,,,,,,,,,,,,,,,,,,,,,,,,,,,866,22,M,L,2026-02-18_12h28.55.581,VisualSearch_2526_3,,2025.2.4,2026-02-18 12h28.55.778699 +0100,
vertical.xlsx,The target is tilted.,135,0,0,0,1,0,0,0,0,0,0,0,0,0,0,0,0,0,1,135,space,3.7122748000001593,None,1,1,0.661656899999798,None,,,,0,1,1,1,0,0,0,3,,,,,292.6027806000002,,,,,,,,,,,,,,,288.85747640000045,288.85747640000045,288.85747640000045,space,3.7122748000001593,None,292.59870219999993,292.6027806000002,293.09366840000075,293.09848000000056,293.1149763000003,293.79319770000075,1,1,0.661656899999798,None,293.7933130000001,293.8098391000003,294.00991950000025,293.9932699000001,,,,,,,,,,,,,,,,,,,,866,22,M,L,2026-02-18_12h28.55.581,VisualSearch_2526_3,,2025.2.4,2026-02-18 12h28.55.778699 +0100,
vertical.xlsx,The target is tilted.,135,1,1,0,0,1,1,1,1,1,1,1,0,0,0,0,1,7,8,135,space,3.7122748000001593,None,0,1,1.9554666000003635,None,,,,0,1,1,1,0,1,1,5,,,,,294.00991950000025,,,,,,,,,,,,,,,,,,,,,293.9936608000007,294.00991950000025,294.49342140000044,294.4983863000007,294.5126457000006,296.47666710000067,0,1,1.9554666000003635,None,296.47685830000046,296.49212480000006,296.6920691000005,296.67600290000064,294.5126457000006,,,,,,,,,,,,,,,,,,,866,22,M,L,2026-02-18_12h28.55.581,VisualSearch_2526_3,,2025.2.4,2026-02-18 12h28.55.778699 +0100,
vertical.xlsx,The target is tilted.,135,2,2,0,0,1,1,1,0,0,0,0,0,0,0,0,1,3,4,135,space,3.7122748000001593,None,0,1,0.6145963999997548,None,,,,0,1,1,1,0,2,2,6,,,,,296.6920691000005,,,,,,,,,,,,,,,,,,,,,296.6766957,296.6920691000005,297.1755647,297.18090519999987,297.19173709999995,297.80991429999995,0,1,0.6145963999997548,None,297.8102064000004,297.82449070000075,298.0249078000006,298.0087561999999,297.19173709999995,,,,,,,,,,,,,,,,,,,866,22,M,L,2026-02-18_12h28.55.581,VisualSearch_2526_3,,2025.2.4,2026-02-18 12h28.55.778699 +0100,
vertical.xlsx,The target is tilted.,135,3,3,0,1,1,1,1,1,1,1,1,0,0,0,0,0,7,8,135,space,3.7122748000001593,None,1,1,0.7456382000000303,None,,,,0,1,1,1,0,3,3,1,,,,,298.0249078000006,,,,,,,,,,,,,,,,,,,,,298.0094386999999,298.0249078000006,298.5082424000002,298.5130007000007,298.5268102,299.2755109,1,1,0.7456382000000303,None,299.2757156000007,299.2905014000007,299.4904918000002,299.47460450000017,298.5268102,,,,,,,,,,,,,,,,,,,866,22,M,L,2026-02-18_12h28.55.581,VisualSearch_2526_3,,2025.2.4,2026-02-18 12h28.55.778699 +0100,
vertical.xlsx,The target is tilted.,135,4,4,0,0,1,1,1,1,1,1,1,1,1,1,1,1,11,12,135,space,3.7122748000001593,None,0,1,1.711424199999783,None,,,,0,1,1,1,0,4,4,4,,,,,299.4904918000002,,,,,,,,,,,,,,,,,,,,,299.47529380000014,299.4904918000002,299.9744918000006,299.9794245000003,299.9953013000004,301.7238524000004,0,1,1.711424199999783,None,301.7239924000005,301.7398294000004,301.9398289999999,301.92360220000046,299.9953013000004,,,,,,,,,,,,,,,,,,,866,22,M,L,2026-02-18_12h28.55.581,VisualSearch_2526_3,,2025.2.4,2026-02-18 12h28.55.778699 +0100,
vertical.xlsx,The target is tilted.,135,5,5,0,1,1,1,1,0,0,0,0,0,0,0,0,0,3,4,135,space,3.7122748000001593,None,1,1,1.3107396000004883,None,,,,0,1,1,1,0,5,5,2,,,,,301.9398289999999,,,,,,,,,,,,,,,,,,,,,301.9243624999999,301.9398289999999,302.42336440000054,302.42817060000016,302.4430981000005,303.7562375000007,1,1,1.3107396000004883,None,303.75636720000057,303.7718322999999,303.97183120000045,303.95573870000044,302.4430981000005,,,,,,,,,,,,,,,,,,,866,22,M,L,2026-02-18_12h28.55.581,VisualSearch_2526_3,,2025.2.4,2026-02-18 12h28.55.778699 +0100,
vertical.xlsx,The target is tilted.,135,6,6,0,0,0,0,0,0,0,0,0,0,0,0,0,1,1,1,135,space,3.7122748000001593,None,0,1,0.5791985999994722,None,,,,0,1,1,1,0,6,6,7,,,,,303.97183120000045,,,,,,,,,,,,,,,,,,,,,303.95641390000037,303.97183120000045,304.4558284000004,304.46058880000055,304.4759031000003,305.0720052000006,0,1,0.5791985999994722,None,305.0721776999999,305.0881266000006,305.2883053000005,305.27187440000034,304.4759031000003,,,,,,,,,,,,,,,,,,,866,22,M,L,2026-02-18_12h28.55.581,VisualSearch_2526_3,,2025.2.4,2026-02-18 12h28.55.778699 +0100,
vertical.xlsx,The target is tilted.,135,7,7,0,1,1,1,1,1,1,1,1,1,1,1,1,0,11,12,135,space,3.7122748000001593,None,1,1,1.2006039999996574,None,,,,0,1,1,1,0,7,7,0,,,,,305.2883053000005,,,,,,,,,,,,,,,,,,,,,305.2725516999999,305.2883053000005,305.7720139000003,305.7767919000007,305.79190840000047,307.00511350000033,1,1,1.2006039999996574,None,307.0052817000005,307.0207541,307.2204233000002,307.20384210000066,305.79190840000047,,,,,,,,,,,,,,,,,,,866,22,M,L,2026-02-18_12h28.55.581,VisualSearch_2526_3,,2025.2.4,2026-02-18 12h28.55.778699 +0100,
vertical.xlsx,The target is tilted.,135,0,0,0,1,0,0,0,0,0,0,0,0,0,0,0,0,0,1,135,space,3.7122748000001593,None,1,1,0.5418932000002314,None,space,1.9076007999992726,None,0,1,1,1,,,,,0,0,0,3,309.1582464000003,,,,,,,,,,,,,,,,,,,,,309.1545358000003,309.1582464000003,309.65289660000053,309.65623720000076,309.6694013000006,310.2197096,,,,,310.2198053000002,310.23570480000035,310.4359196000005,310.41973529999996,,307.2070653999999,307.2204233000002,307.2204233000002,309.1369153000005,space,1.9076007999992726,None,1,1,0.5418932000002314,None,,,,,,,,866,22,M,L,2026-02-18_12h28.55.581,VisualSearch_2526_3,,2025.2.4,2026-02-18 12h28.55.778699 +0100,
vertical.xlsx,The target is tilted.,135,1,1,0,1,1,1,1,0,0,0,0,0,0,0,0,0,3,4,135,space,3.7122748000001593,None,1,1,0.735623300000043,None,space,1.9076007999992726,None,0,1,1,1,,,,,0,1,1,2,310.4359196000005,,,,,,,,,,,,,,,,,,,,,310.42049099999986,310.4359196000005,310.91913170000043,310.9238961000001,310.9401206000002,311.6862727000007,,,,,311.68644889999996,311.70183840000027,311.9016313000002,311.88564320000023,310.9401206000002,,,,,,,,1,1,0.735623300000043,None,,,,,,,,866,22,M,L,2026-02-18_12h28.55.581,VisualSearch_2526_3,,2025.2.4,2026-02-18 12h28.55.778699 +0100,
vertical.xlsx,The target is tilted.,135,2,2,0,0,1,1,1,1,1,1,1,0,0,0,0,1,7,8,135,space,3.7122748000001593,None,0,1,1.3681165999996665,None,space,1.9076007999992726,None,0,1,1,1,,,,,0,2,2,5,311.9016313000002,,,,,,,,,,,,,,,,,,,,,311.8865099000004,311.9016313000002,312.3855788000001,312.39028750000034,312.40604600000006,313.78552480000053,,,,,313.7857180000001,313.8006997000002,314.00098479999997,313.9848867999999,312.40604600000006,,,,,,,,0,1,1.3681165999996665,None,,,,,,,,866,22,M,L,2026-02-18_12h28.55.581,VisualSearch_2526_3,,2025.2.4,2026-02-18 12h28.55.778699 +0100,
vertical.xlsx,The target is tilted.,135,3,3,0,1,1,1,1,1,1,1,1,0,0,0,0,0,7,8,135,space,3.7122748000001593,None,0,0,1.339680799999769,None,space,1.9076007999992726,None,0,1,1,1,,,,,0,3,3,1,314.00098479999997,,,,,,,,,,,,,,,,,,,,,313.98565190000045,314.00098479999997,314.48454910000055,314.4893671,314.5046276000003,315.85088580000047,,,,,315.85103359999994,315.86673260000043,316.06672890000027,316.0506767000006,314.5046276000003,,,,,,,,0,0,1.339680799999769,None,,,,,,,,866,22,M,L,2026-02-18_12h28.55.581,VisualSearch_2526_3,,2025.2.4,2026-02-18 12h28.55.778699 +0100,
vertical.xlsx,The target is tilted.,135,4,4,0,0,0,0,0,0,0,0,0,0,0,0,0,1,1,1,135,space,3.7122748000001593,None,0,1,0.5070896999995966,None,space,1.9076007999992726,None,0,1,1,1,,,,,0,4,4,7,316.06672890000027,,,,,,,,,,,,,,,,,,,,,316.05139340000005,316.06672890000027,316.55018610000025,316.5548693999999,316.5677174000002,317.0842982000004,,,,,317.0844973000003,317.0992208000007,317.29951020000044,317.28330780000033,316.5677174000002,,,,,,,,0,1,0.5070896999995966,None,,,,,,,,866,22,M,L,2026-02-18_12h28.55.581,VisualSearch_2526_3,,2025.2.4,2026-02-18 12h28.55.778699 +0100,
vertical.xlsx,The target is tilted.,135,5,5,0,0,1,1,1,0,0,0,0,0,0,0,0,1,3,4,135,space,3.7122748000001593,None,0,1,0.6705895000004602,None,space,1.9076007999992726,None,0,1,1,1,,,,,0,5,5,6,317.29951020000044,,,,,,,,,,,,,,,,,,,,,317.28411570000026,317.29951020000044,317.7830554000002,317.7877887000004,317.8015673,318.48325170000044,,,,,318.48342649999995,318.49891639999987,318.6985930999999,318.6824432000003,317.8015673,,,,,,,,0,1,0.6705895000004602,None,,,,,,,,866,22,M,L,2026-02-18_12h28.55.581,VisualSearch_2526_3,,2025.2.4,2026-02-18 12h28.55.778699 +0100,
vertical.xlsx,The target is tilted.,135,6,6,0,0,1,1,1,1,1,1,1,1,1,1,1,1,11,12,135,space,3.7122748000001593,None,0,1,1.2806712000001426,None,space,1.9076007999992726,None,0,1,1,1,,,,,0,6,6,4,318.6985930999999,,,,,,,,,,,,,,,,,,,,,318.6832718000005,318.6985930999999,319.1821694999999,319.1848899000006,319.1985220000006,320.4824197000007,,,,,320.48261470000034,320.4979449000002,320.69797280000057,320.6819239000006,319.1985220000006,,,,,,,,0,1,1.2806712000001426,None,,,,,,,,866,22,M,L,2026-02-18_12h28.55.581,VisualSearch_2526_3,,2025.2.4,2026-02-18 12h28.55.778699 +0100,
vertical.xlsx,The target is tilted.,135,7,7,0,1,1,1,1,1,1,1,1,1,1,1,1,0,11,12,135,space,3.7122748000001593,None,1,1,0.6129062999998496,None,space,1.9076007999992726,None,0,1,1,1,,,,,0,7,7,0,320.69797280000057,,,,,,,,,,,,,,,,,,,,,320.68267470000046,320.69797280000057,321.18133170000056,321.18700160000026,321.2020405000003,321.8318472000001,,,,,321.8320487000001,321.8473597000002,322.04735549999987,322.0311122000003,321.2020405000003,,,,,,,,1,1,0.6129062999998496,None,,,,,,,,866,22,M,L,2026-02-18_12h28.55.581,VisualSearch_2526_3,,2025.2.4,2026-02-18 12h28.55.778699 +0100,
vertical.xlsx,The target is tilted.,135,8,0,1,1,1,1,1,0,0,0,0,0,0,0,0,0,3,4,135,space,3.7122748000001593,None,1,1,0.6258440999999948,None,space,1.9076007999992726,None,0,1,1,1,,,,,1,0,8,2,322.04735549999987,,,,,,,,,,,,,,,,,,,,,322.0318605000002,322.04735549999987,322.53074970000034,322.5356832000007,322.5491670000001,323.18144850000044,,,,,323.18167489999996,323.19642660000045,323.39686280000024,323.3808589999999,322.5491670000001,,,,,,,,1,1,0.6258440999999948,None,,,,,,,,866,22,M,L,2026-02-18_12h28.55.581,VisualSearch_2526_3,,2025.2.4,2026-02-18 12h28.55.778699 +0100,
vertical.xlsx,The target is tilted.,135,9,1,1,1,1,1,1,1,1,1,1,1,1,1,1,0,11,12,135,space,3.7122748000001593,None,1,1,0.48918609999964247,None,space,1.9076007999992726,None,0,1,1,1,,,,,1,1,9,0,323.39686280000024,,,,,,,,,,,,,,,,,,,,,323.38168380000025,323.39686280000024,323.8804725,323.8854538000005,323.9004609000003,324.3973254000002,,,,,324.39751930000057,324.41271010000037,324.61245430000054,324.5963249000006,323.9004609000003,,,,,,,,1,1,0.48918609999964247,None,,,,,,,,866,22,M,L,2026-02-18_12h28.55.581,VisualSearch_2526_3,,2025.2.4,2026-02-18 12h28.55.778699 +0100,
vertical.xlsx,The target is tilted.,135,10,2,1,0,0,0,0,0,0,0,0,0,0,0,0,1,1,1,135,space,3.7122748000001593,None,0,1,0.5467056999996203,None,space,1.9076007999992726,None,0,1,1,1,,,,,1,2,10,7,324.61245430000054,,,,,,,,,,,,,,,,,,,,,324.5970860000007,324.61245430000054,325.0963681000003,325.1013816000004,325.11696160000065,325.6796768000004,,,,,325.6798712,325.6952624000005,325.8955297000002,325.87944940000034,325.11696160000065,,,,,,,,0,1,0.5467056999996203,None,,,,,,,,866,22,M,L,2026-02-18_12h28.55.581,VisualSearch_2526_3,,2025.2.4,2026-02-18 12h28.55.778699 +0100,
vertical.xlsx,The target is tilted.,135,11,3,1,1,1,1,1,1,1,1,1,0,0,0,0,0,7,8,135,space,3.7122748000001593,None,0,0,0.5181625000004715,None,space,1.9076007999992726,None,0,1,1,1,,,,,1,3,11,1,325.8955297000002,,,,,,,,,,,,,,,,,,,,,325.88019669999994,325.8955297000002,326.37890460000017,326.38367500000004,326.3963560000002,326.92961620000005,,,,,326.9298064000004,326.9448054000004,327.1450187999999,327.1288534000005,326.3963560000002,,,,,,,,0,0,0.5181625000004715,None,,,,,,,,866,22,M,L,2026-02-18_12h28.55.581,VisualSearch_2526_3,,2025.2.4,2026-02-18 12h28.55.778699 +0100,
vertical.xlsx,The target is tilted.,135,12,4,1,0,1,1,1,0,0,0,0,0,0,0,0,1,3,4,135,space,3.7122748000001593,None,0,1,0.94381759999942,None,space,1.9076007999992726,None,0,1,1,1,,,,,1,4,12,6,327.1450187999999,,,,,,,,,,,,,,,,,,,,,327.12959970000065,327.1450187999999,327.6287090000005,327.6335960000006,327.64854470000046,328.59557920000043,,,,,328.5958076000006,328.61074910000025,328.8111200000003,328.7947847000005,327.64854470000046,,,,,,,,0,1,0.94381759999942,None,,,,,,,,866,22,M,L,2026-02-18_12h28.55.581,VisualSearch_2526_3,,2025.2.4,2026-02-18 12h28.55.778699 +0100,
vertical.xlsx,The target is tilted.,135,13,5,1,0,1,1,1,1,1,1,1,0,0,0,0,1,7,8,135,space,3.7122748000001593,None,0,1,1.0964715999998589,None,space,1.9076007999992726,None,0,1,1,1,,,,,1,5,13,5,328.8111200000003,,,,,,,,,,,,,,,,,,,,,328.7955136999999,328.8111200000003,329.29426950000015,329.29902889999994,329.31554210000013,330.4278585000002,,,,,330.4280826000004,330.4435247000001,330.6433900000002,330.62729020000006,329.31554210000013,,,,,,,,0,1,1.0964715999998589,None,,,,,,,,866,22,M,L,2026-02-18_12h28.55.581,VisualSearch_2526_3,,2025.2.4,2026-02-18 12h28.55.778699 +0100,
vertical.xlsx,The target is tilted.,135,14,6,1,0,1,1,1,1,1,1,1,1,1,1,1,1,11,12,135,space,3.7122748000001593,None,0,1,0.9350368999994316,None,space,1.9076007999992726,None,0,1,1,1,,,,,1,6,14,4,330.6433900000002,,,,,,,,,,,,,,,,,,,,,330.62801990000025,330.6433900000002,331.12705749999986,331.1318168000007,331.1469885000006,332.09340169999996,,,,,332.09357640000053,332.1092232000001,332.30933860000005,332.2931014000005,331.1469885000006,,,,,,,,0,1,0.9350368999994316,None,,,,,,,,866,22,M,L,2026-02-18_12h28.55.581,VisualSearch_2526_3,,2025.2.4,2026-02-18 12h28.55.778699 +0100,
vertical.xlsx,The target is tilted.,135,15,7,1,1,0,0,0,0,0,0,0,0,0,0,0,0,0,1,135,space,3.7122748000001593,None,1,1,0.4736548999999286,None,space,1.9076007999992726,None,0,1,1,1,,,,,1,7,15,3,332.30933860000005,,,,,,,,,,,,,,,,,,,,,332.2938649000007,332.30933860000005,332.7930040000001,332.79765510000016,332.81221060000007,333.2931920000001,,,,,333.2933823000003,333.30883300000005,333.5083906,333.49244460000045,332.81221060000007,,,,,,,,1,1,0.4736548999999286,None,,,,,,,,866,22,M,L,2026-02-18_12h28.55.581,VisualSearch_2526_3,,2025.2.4,2026-02-18 12h28.55.778699 +0100,
vertical.xlsx,The target is tilted.,135,16,0,2,1,0,0,0,0,0,0,0,0,0,0,0,0,0,1,135,space,3.7122748000001593,None,1,1,0.40608049999991636,None,space,1.9076007999992726,None,0,1,1,1,,,,,2,0,16,3,333.5083906,,,,,,,,,,,,,,,,,,,,,333.4932222000007,333.5083906,333.99220610000066,333.9969305000004,334.0119061000005,334.4260370000002,,,,,334.42622949999986,334.4413533000006,334.64135090000036,334.62545070000033,334.0119061000005,,,,,,,,1,1,0.40608049999991636,None,,,,,,,,866,22,M,L,2026-02-18_12h28.55.581,VisualSearch_2526_3,,2025.2.4,2026-02-18 12h28.55.778699 +0100,
vertical.xlsx,The target is tilted.,135,17,1,2,0,0,0,0,0,0,0,0,0,0,0,0,1,1,1,135,space,3.7122748000001593,None,0,1,0.6649971999995614,None,space,1.9076007999992726,None,0,1,1,1,,,,,2,1,17,7,334.64135090000036,,,,,,,,,,,,,,,,,,,,,334.62620400000014,334.64135090000036,335.12527520000003,335.1300928999999,335.1447404999999,335.8254127,,,,,335.8256070000007,335.8406582000007,336.0410724000003,336.02480970000033,335.1447404999999,,,,,,,,0,1,0.6649971999995614,None,,,,,,,,866,22,M,L,2026-02-18_12h28.55.581,VisualSearch_2526_3,,2025.2.4,2026-02-18 12h28.55.778699 +0100,
vertical.xlsx,The target is tilted.,135,18,2,2,1,1,1,1,1,1,1,1,0,0,0,0,0,7,8,135,space,3.7122748000001593,None,1,1,0.98991819999992,None,space,1.9076007999992726,None,0,1,1,1,,,,,2,2,18,1,336.0410724000003,,,,,,,,,,,,,,,,,,,,,336.0255868000004,336.0410724000003,336.52468410000074,336.5293528000002,336.54649750000044,337.54079750000074,,,,,337.54095790000065,337.55661820000023,337.7568645000001,337.7405271000007,336.54649750000044,,,,,,,,1,1,0.98991819999992,None,,,,,,,,866,22,M,L,2026-02-18_12h28.55.581,VisualSearch_2526_3,,2025.2.4,2026-02-18 12h28.55.778699 +0100,
vertical.xlsx,The target is tilted.,135,19,3,2,1,1,1,1,1,1,1,1,1,1,1,1,0,11,12,135,space,3.7122748000001593,None,1,1,0.6600742000000537,None,space,1.9076007999992726,None,0,1,1,1,,,,,2,3,19,0,337.7568645000001,,,,,,,,,,,,,,,,,,,,,337.7413294000007,337.7568645000001,338.24064850000013,338.24539790000017,338.26070190000064,338.92383360000076,,,,,338.92404590000024,338.9393893000006,339.13930620000065,339.1231424000007,338.26070190000064,,,,,,,,1,1,0.6600742000000537,None,,,,,,,,866,22,M,L,2026-02-18_12h28.55.581,VisualSearch_2526_3,,2025.2.4,2026-02-18 12h28.55.778699 +0100,
vertical.xlsx,The target is tilted.,135,20,4,2,1,1,1,1,0,0,0,0,0,0,0,0,0,3,4,135,space,3.7122748000001593,None,1,1,0.4999938999999358,None,space,1.9076007999992726,None,0,1,1,1,,,,,2,4,20,2,339.13930620000065,,,,,,,,,,,,,,,,,,,,,339.1239632000006,339.13930620000065,339.6226875000002,339.6253045000003,339.6391214000005,340.1562627000003,,,,,340.15642860000025,340.17197920000035,340.37222250000013,340.35616220000065,339.6391214000005,,,,,,,,1,1,0.4999938999999358,None,,,,,,,,866,22,M,L,2026-02-18_12h28.55.581,VisualSearch_2526_3,,2025.2.4,2026-02-18 12h28.55.778699 +0100,
vertical.xlsx,The target is tilted.,135,21,5,2,0,1,1,1,0,0,0,0,0,0,0,0,1,3,4,135,space,3.7122748000001593,None,0,1,0.7977065000004586,None,space,1.9076007999992726,None,0,1,1,1,,,,,2,5,21,6,340.37222250000013,,,,,,,,,,,,,,,,,,,,,340.35699079999995,340.37222250000013,340.85592910000014,340.8607832000007,340.8765475,341.68964589999996,,,,,341.6898525000006,341.7046655000004,341.9049875999999,341.88896980000027,340.8765475,,,,,,,,0,1,0.7977065000004586,None,,,,,,,,866,22,M,L,2026-02-18_12h28.55.581,VisualSearch_2526_3,,2025.2.4,2026-02-18 12h28.55.778699 +0100,
vertical.xlsx,The target is tilted.,135,22,6,2,0,1,1,1,1,1,1,1,0,0,0,0,1,7,8,135,space,3.7122748000001593,None,0,1,1.3615152000002126,None,space,1.9076007999992726,None,0,1,1,1,,,,,2,6,22,5,341.9049875999999,,,,,,,,,,,,,,,,,,,,,341.88975260000007,341.9049875999999,342.38831800000025,342.3933947000005,342.4070661000005,343.77117030000045,,,,,343.7712840000004,343.78687190000073,343.9872992999999,343.9710632000006,342.4070661000005,,,,,,,,0,1,1.3615152000002126,None,,,,,,,,866,22,M,L,2026-02-18_12h28.55.581,VisualSearch_2526_3,,2025.2.4,2026-02-18 12h28.55.778699 +0100,
vertical.xlsx,The target is tilted.,135,23,7,2,0,1,1,1,1,1,1,1,1,1,1,1,1,11,12,135,space,3.7122748000001593,None,0,1,1.166564400000425,None,space,1.9076007999992726,None,0,1,1,1,,,,,2,7,23,4,343.9872992999999,,,,,,,,,,,,,,,,,,,,,343.97183250000035,343.9872992999999,344.47107330000017,344.475856,344.4905736999999,345.6711400000004,,,,,345.6713675000001,345.6865378000002,345.88652360000015,345.8703843000003,344.4905736999999,,,,,,,,0,1,1.166564400000425,None,,,,,,,,866,22,M,L,2026-02-18_12h28.55.581,VisualSearch_2526_3,,2025.2.4,2026-02-18 12h28.55.778699 +0100,
vertical.xlsx,The target is tilted.,135,24,0,3,1,1,1,1,1,1,1,1,1,1,1,1,0,11,12,135,space,3.7122748000001593,None,1,1,0.8089205999995102,None,space,1.9076007999992726,None,0,1,1,1,,,,,3,0,24,0,345.88652360000015,,,,,,,,,,,,,,,,,,,,,345.87117040000066,345.88652360000015,346.3701531000006,346.3748862000002,346.3902603000006,347.2032715000005,,,,,347.20347330000004,347.2189395000005,347.41920780000055,347.4029541,346.3902603000006,,,,,,,,1,1,0.8089205999995102,None,,,,,,,,866,22,M,L,2026-02-18_12h28.55.581,VisualSearch_2526_3,,2025.2.4,2026-02-18 12h28.55.778699 +0100,
vertical.xlsx,The target is tilted.,135,25,1,3,1,1,1,1,0,0,0,0,0,0,0,0,0,3,4,135,space,3.7122748000001593,None,1,1,0.9651617999998052,None,space,1.9076007999992726,None,0,1,1,1,,,,,3,1,25,2,347.41920780000055,,,,,,,,,,,,,,,,,,,,,347.4037543000004,347.41920780000055,347.90245050000067,347.90726930000073,347.92160800000056,348.9026840000006,,,,,348.90287940000053,348.91836260000036,349.1184039,349.1019174000003,347.92160800000056,,,,,,,,1,1,0.9651617999998052,None,,,,,,,,866,22,M,L,2026-02-18_12h28.55.581,VisualSearch_2526_3,,2025.2.4,2026-02-18 12h28.55.778699 +0100,
vertical.xlsx,The target is tilted.,135,26,2,3,0,1,1,1,1,1,1,1,0,0,0,0,1,7,8,135,space,3.7122748000001593,None,0,1,0.8562106999997923,None,space,1.9076007999992726,None,0,1,1,1,,,,,3,2,26,5,349.1184039,,,,,,,,,,,,,,,,,,,,,349.1026566999999,349.1184039,349.60202800000025,349.6067143,349.61806419999994,350.48531360000015,,,,,350.4854703000001,350.50085750000017,350.70101390000036,350.68465280000055,349.61806419999994,,,,,,,,0,1,0.8562106999997923,None,,,,,,,,866,22,M,L,2026-02-18_12h28.55.581,VisualSearch_2526_3,,2025.2.4,2026-02-18 12h28.55.778699 +0100,
vertical.xlsx,The target is tilted.,135,27,3,3,0,0,0,0,0,0,0,0,0,0,0,0,1,1,1,135,space,3.7122748000001593,None,0,1,0.9550282000000152,None,space,1.9076007999992726,None,0,1,1,1,,,,,3,3,27,7,350.70101390000036,,,,,,,,,,,,,,,,,,,,,350.6854028000007,350.70101390000036,351.18447280000055,351.1892989000007,351.20368190000045,352.16814740000063,,,,,352.16833570000017,352.18318610000006,352.3831022000004,352.36705320000056,351.20368190000045,,,,,,,,0,1,0.9550282000000152,None,,,,,,,,866,22,M,L,2026-02-18_12h28.55.581,VisualSearch_2526_3,,2025.2.4,2026-02-18 12h28.55.778699 +0100,
vertical.xlsx,The target is tilted.,135,28,4,3,0,1,1,1,1,1,1,1,1,1,1,1,1,11,12,135,space,3.7122748000001593,None,0,1,1.3201062999996793,None,space,1.9076007999992726,None,0,1,1,1,,,,,3,4,28,4,352.3831022000004,,,,,,,,,,,,,,,,,,,,,352.3677619,352.3831022000004,352.8668502999999,352.87165280000045,352.8874198000003,354.21725250000054,,,,,354.21747850000065,354.23271019999993,354.43259000000035,354.4165149999999,352.8874198000003,,,,,,,,0,1,1.3201062999996793,None,,,,,,,,866,22,M,L,2026-02-18_12h28.55.581,VisualSearch_2526_3,,2025.2.4,2026-02-18 12h28.55.778699 +0100,
vertical.xlsx,The target is tilted.,135,29,5,3,1,1,1,1,1,1,1,1,0,0,0,0,0,7,8,135,space,3.7122748000001593,None,0,0,0.860384200000226,None,space,1.9076007999992726,None,0,1,1,1,,,,,3,5,29,1,354.43259000000035,,,,,,,,,,,,,,,,,,,,,354.4172621000007,354.43259000000035,354.91628200000014,354.9210020999999,354.9361131000005,355.7997589000006,,,,,355.79992930000026,355.8150673,356.01537740000003,355.9992683999999,354.9361131000005,,,,,,,,0,0,0.860384200000226,None,,,,,,,,866,22,M,L,2026-02-18_12h28.55.581,VisualSearch_2526_3,,2025.2.4,2026-02-18 12h28.55.778699 +0100,
vertical.xlsx,The target is tilted.,135,30,6,3,0,1,1,1,0,0,0,0,0,0,0,0,1,3,4,135,space,3.7122748000001593,None,0,1,1.0078536999999415,None,space,1.9076007999992726,None,0,1,1,1,,,,,3,6,30,6,356.01537740000003,,,,,,,,,,,,,,,,,,,,,356.0000258,356.01537740000003,356.4989940000005,356.50376790000064,356.5174176999999,357.5323074000007,,,,,357.53250190000017,357.54752869999993,357.7479002,357.73177920000035,356.5174176999999,,,,,,,,0,1,1.0078536999999415,None,,,,,,,,866,22,M,L,2026-02-18_12h28.55.581,VisualSearch_2526_3,,2025.2.4,2026-02-18 12h28.55.778699 +0100,
vertical.xlsx,The target is tilted.,135,31,7,3,1,0,0,0,0,0,0,0,0,0,0,0,0,0,1,135,space,3.7122748000001593,None,1,1,0.5856025999992198,None,space,1.9076007999992726,None,0,1,1,1,,,,,3,7,31,3,357.7479002,,,,,,,,,,,,,,,,,,,,,357.7324914000001,357.7479002,358.23084000000017,358.23507860000063,358.2512131000003,358.8482786000004,,,,,358.8484698000002,358.86390670000037,359.0638475000005,359.0476026000006,358.2512131000003,,,,,,,,1,1,0.5856025999992198,None,,,,,,,,866,22,M,L,2026-02-18_12h28.55.581,VisualSearch_2526_3,,2025.2.4,2026-02-18 12h28.55.778699 +0100,
vertical.xlsx,The target is tilted.,135,32,0,4,0,0,0,0,0,0,0,0,0,0,0,0,1,1,1,135,space,3.7122748000001593,None,0,1,0.6332102999995186,None,space,1.9076007999992726,None,0,1,1,1,,,,,4,0,32,7,359.0638475000005,,,,,,,,,,,,,,,,,,,,,359.04838180000024,359.0638475000005,359.54744200000005,359.5523649000006,359.56909580000047,360.2134286999999,,,,,360.2135311000002,360.22953469999993,360.4299759000005,360.41372990000036,359.56909580000047,,,,,,,,0,1,0.6332102999995186,None,,,,,,,,866,22,M,L,2026-02-18_12h28.55.581,VisualSearch_2526_3,,2025.2.4,2026-02-18 12h28.55.778699 +0100,
vertical.xlsx,The target is tilted.,135,33,1,4,1,0,0,0,0,0,0,0,0,0,0,0,0,0,1,135,space,3.7122748000001593,None,1,1,0.5744150000000445,None,space,1.9076007999992726,None,0,1,1,1,,,,,4,1,33,3,360.4299759000005,,,,,,,,,,,,,,,,,,,,,360.4145156000004,360.4299759000005,360.91328630000044,360.9180460000007,360.9295907000005,361.5138869000002,,,,,361.51407890000064,361.52906090000033,361.72927770000024,361.71300280000014,360.9295907000005,,,,,,,,1,1,0.5744150000000445,None,,,,,,,,866,22,M,L,2026-02-18_12h28.55.581,VisualSearch_2526_3,,2025.2.4,2026-02-18 12h28.55.778699 +0100,
