file_name,block_instructions,target_example,thisN,thisTrialN,thisRepN,target_presence,opacity_1,opacity_2,opacity_3,opacity_4,opacity_5,opacity_6,opacity_7,opacity_8,opacity_9,opacity_10,opacity_11,opacity_12,n_distract,n_items,target_ori,key_resp_4.keys,key_resp_4.rt,key_resp_4.duration,key_resp.keys,key_resp.corr,key_resp.rt,key_resp.duration,key_resp_5.keys,key_resp_5.rt,key_resp_5.duration,blocks.thisRepN,blocks.thisTrialN,blocks.thisN,blocks.thisIndex,practice_trials.thisRepN,practice_trials.thisTrialN,practice_trials.thisN,practice_trials.thisIndex,trials.thisRepN,trials.thisTrialN,trials.thisN,trials.thisIndex,thisRow.t,notes,Welcome.started,WelcomeText.started,key_resp_2.started,Welcome.stopped,key_resp_2.keys,key_resp_2.rt,key_resp_2.duration,InformedConsent.started,text_4.started,InformedConsent.stopped,key_resp_6.keys,key_resp_6.rt,key_resp_6.duration,key_resp_4.started,example_target.started,text_3.started,blocks.key_resp_4.keys,blocks.key_resp_4.rt,blocks.key_resp_4.duration,FixCross.started,fixCross.started,FixCross.stopped,Stimulus.started,key_resp.started,Stimulus.stopped,practice_trials.key_resp.keys,practice_trials.key_resp.corr,practice_trials.key_resp.rt,practice_trials.key_resp.duration,BlankScreen.started,text.started,BlankScreen.stopped,text.stopped,fixCross.stopped,ExperimentStart.started,text_2.started,key_resp_5.started,ExperimentStart.stopped,blocks.key_resp_5.keys,blocks.key_resp_5.rt,blocks.key_resp_5.duration,trials.key_resp.keys,trials.key_resp.corr,trials.key_resp.rt,trials.key_resp.duration,Thanks.started,ThankYou.started,key_resp_3.started,Thanks.stopped,key_resp_3.keys,key_resp_3.rt,key_resp_3.duration,participant,leeftijd,gender,links/rechtshandig,date,expName,expVersion,psychopyVersion,expStart,
,,,,,,,,,,,,,,,,,,,,,,,,,,,,,,,,,,,,,,,,,,,,,,0.0303487999999561,0.04130009999971662,0.04130009999971662,21.165417299999717,space,21.10623829999986,None,,,,,,,,,,,,,,,,,,,,,,,,,,,,,,,,,,,,,,,,,,,,,,867,27,M,R,2026-02-18_12h38.49.410,VisualSearch_2526_3,,2025.2.4,2026-02-18 12h38.49.624540 +0100,
,,,,,,,,,,,,,,,,,,,,,,,,,,,,,,,,,,,,,,,,,,,,,,,,,,,,,21.16547730000002,21.170912299999145,36.163521199999195,y,14.99081059999935,None,,,,,,,,,,,,,,,,,,,,,,,,,,,,,,,,,,,,,,,,867,27,M,R,2026-02-18_12h38.49.410,VisualSearch_2526_3,,2025.2.4,2026-02-18 12h38.49.624540 +0100,
tilted.xlsx,The target is tilted.,117,0,0,0,1,1,1,1,1,1,1,1,1,1,1,1,0,11,12,117,space,3.3406057000001965,None,1,1,2.199109600000156,None,,,,0,0,0,0,0,0,0,0,,,,,39.57505889999993,,,,,,,,,,,,,,,36.19022150000001,36.19022150000001,36.19022150000001,space,3.3406057000001965,None,39.56890349999958,39.57505889999993,40.060669399999824,40.0652713999998,40.07690609999918,42.2925938999997,1,1,2.199109600000156,None,42.29267279999931,42.30894669999998,42.492882599999575,,,,,,,,,,,,,,,,,,,,,867,27,M,R,2026-02-18_12h38.49.410,VisualSearch_2526_3,,2025.2.4,2026-02-18 12h38.49.624540 +0100,
tilted.xlsx,The target is tilted.,117,1,1,0,0,1,1,1,1,1,1,1,0,0,0,0,1,7,8,117,space,3.3406057000001965,None,0,1,1.410906199999772,None,,,,0,0,0,0,0,1,1,5,,,,,42.50883309999972,,,,,,,,,,,,,,,,,,,,,42.49358609999945,42.50883309999972,42.99283869999999,42.99773059999916,43.01426029999948,44.442093399999976,0,1,1.410906199999772,None,44.44221339999967,44.458113499999854,44.64182679999976,44.65783049999936,,,,,,,,,,,,,,,,,,,,867,27,M,R,2026-02-18_12h38.49.410,VisualSearch_2526_3,,2025.2.4,2026-02-18 12h38.49.624540 +0100,
tilted.xlsx,The target is tilted.,117,2,2,0,0,1,1,1,1,1,1,1,1,1,1,1,1,11,12,117,space,3.3406057000001965,None,1,0,1.3697824000000764,None,,,,0,0,0,0,0,2,2,4,,,,,44.65783049999936,,,,,,,,,,,,,,,,,,,,,44.64250699999957,44.65783049999936,45.141956199999186,45.14666749999924,45.1633798999992,46.54179309999927,1,0,1.3697824000000764,None,46.54197979999935,46.55691509999997,46.74080809999941,46.75692429999981,45.1633798999992,,,,,,,,,,,,,,,,,,,867,27,M,R,2026-02-18_12h38.49.410,VisualSearch_2526_3,,2025.2.4,2026-02-18 12h38.49.624540 +0100,
tilted.xlsx,The target is tilted.,117,3,3,0,0,1,1,1,0,0,0,0,0,0,0,0,1,3,4,117,space,3.3406057000001965,None,0,1,0.7898184000005131,None,,,,0,0,0,0,0,3,3,6,,,,,46.75692429999981,,,,,,,,,,,,,,,,,,,,,46.74149299999954,46.75692429999981,47.24100709999948,47.24601289999919,47.26298339999994,48.05810769999971,0,1,0.7898184000005131,None,48.0582902999995,48.07290609999927,48.25719609999942,48.27286609999919,47.26298339999994,,,,,,,,,,,,,,,,,,,867,27,M,R,2026-02-18_12h38.49.410,VisualSearch_2526_3,,2025.2.4,2026-02-18 12h38.49.624540 +0100,
tilted.xlsx,The target is tilted.,117,4,4,0,1,1,1,1,0,0,0,0,0,0,0,0,0,3,4,117,space,3.3406057000001965,None,0,0,0.5137049000004481,None,,,,0,0,0,0,0,4,4,2,,,,,48.27286609999919,,,,,,,,,,,,,,,,,,,,,48.25783419999971,48.27286609999919,48.75702099999944,48.76165270000001,48.77837709999949,49.306851899999856,0,0,0.5137049000004481,None,49.307048299999224,49.32228339999983,49.506644799999776,49.522562899999684,48.77837709999949,,,,,,,,,,,,,,,,,,,867,27,M,R,2026-02-18_12h38.49.410,VisualSearch_2526_3,,2025.2.4,2026-02-18 12h38.49.624540 +0100,
tilted.xlsx,The target is tilted.,117,5,5,0,0,0,0,0,0,0,0,0,0,0,0,0,1,1,1,117,space,3.3406057000001965,None,1,0,0.5575190999998085,None,,,,0,0,0,0,0,5,5,7,,,,,49.522562899999684,,,,,,,,,,,,,,,,,,,,,49.5072954999996,49.522562899999684,50.0064042999993,50.011105799999314,50.027962999999545,50.5890030999999,1,0,0.5575190999998085,None,50.58934449999924,50.604893299999276,50.789099599999645,50.80520389999947,50.027962999999545,,,,,,,,,,,,,,,,,,,867,27,M,R,2026-02-18_12h38.49.410,VisualSearch_2526_3,,2025.2.4,2026-02-18 12h38.49.624540 +0100,
tilted.xlsx,The target is tilted.,117,6,6,0,1,0,0,0,0,0,0,0,0,0,0,0,0,0,1,117,space,3.3406057000001965,None,1,1,0.569308699999965,None,,,,0,0,0,0,0,6,6,3,,,,,50.80520389999947,,,,,,,,,,,,,,,,,,,,,50.7897497999993,50.80520389999947,51.28879499999948,51.29353229999924,51.310539099999914,51.8895279999997,1,1,0.569308699999965,None,51.88972889999968,51.904433799999424,52.08883179999975,52.10456609999983,51.310539099999914,,,,,,,,,,,,,,,,,,,867,27,M,R,2026-02-18_12h38.49.410,VisualSearch_2526_3,,2025.2.4,2026-02-18 12h38.49.624540 +0100,
tilted.xlsx,The target is tilted.,117,7,7,0,1,1,1,1,1,1,1,1,0,0,0,0,0,7,8,117,space,3.3406057000001965,None,0,0,0.8937294000006659,None,,,,0,0,0,0,0,7,7,1,,,,,52.10456609999983,,,,,,,,,,,,,,,,,,,,,52.089478099999724,52.10456609999983,52.5880989999996,52.59259539999948,52.60457479999968,53.50535249999939,0,0,0.8937294000006659,None,53.50553989999935,53.52038309999989,53.704189699999915,53.72058669999933,52.60457479999968,,,,,,,,,,,,,,,,,,,867,27,M,R,2026-02-18_12h38.49.410,VisualSearch_2526_3,,2025.2.4,2026-02-18 12h38.49.624540 +0100,
tilted.xlsx,The target is tilted.,117,0,0,0,1,1,1,1,1,1,1,1,1,1,1,1,0,11,12,117,space,3.3406057000001965,None,1,1,1.2151558000005025,None,space,2.5631320000002233,None,0,0,0,0,,,,,0,0,0,0,56.32000289999996,,,,,,,,,,,,,,,,,,,,,56.315586099999564,56.32000289999996,56.80292129999998,56.8077059999996,56.82644779999919,58.053436399999555,,,,,58.05366999999933,58.06832020000002,58.25276020000001,58.268776899999466,,53.70976989999963,53.72058669999933,53.72058669999933,56.286901299999954,space,2.5631320000002233,None,1,1,1.2151558000005025,None,,,,,,,,867,27,M,R,2026-02-18_12h38.49.410,VisualSearch_2526_3,,2025.2.4,2026-02-18 12h38.49.624540 +0100,
tilted.xlsx,The target is tilted.,117,1,1,0,0,0,0,0,0,0,0,0,0,0,0,0,1,1,1,117,space,3.3406057000001965,None,1,0,0.8532406000003903,None,space,2.5631320000002233,None,0,0,0,0,,,,,0,1,1,7,58.268776899999466,,,,,,,,,,,,,,,,,,,,,58.25353989999985,58.268776899999466,58.75247389999913,58.75714609999977,58.77399349999996,59.63589999999931,,,,,59.63610029999927,59.6509518999992,59.83549329999914,59.8514882999998,58.77399349999996,,,,,,,,1,0,0.8532406000003903,None,,,,,,,,867,27,M,R,2026-02-18_12h38.49.410,VisualSearch_2526_3,,2025.2.4,2026-02-18 12h38.49.624540 +0100,
tilted.xlsx,The target is tilted.,117,2,2,0,1,1,1,1,0,0,0,0,0,0,0,0,0,3,4,117,space,3.3406057000001965,None,0,0,1.2701131000003443,None,space,2.5631320000002233,None,0,0,0,0,,,,,0,2,2,2,59.8514882999998,,,,,,,,,,,,,,,,,,,,,59.83632939999916,59.8514882999998,60.33506259999922,60.339893200000006,60.35700120000001,61.634890799999994,,,,,61.63509069999964,61.65011129999948,61.83430309999949,61.85062939999989,60.35700120000001,,,,,,,,0,0,1.2701131000003443,None,,,,,,,,867,27,M,R,2026-02-18_12h38.49.410,VisualSearch_2526_3,,2025.2.4,2026-02-18 12h38.49.624540 +0100,
tilted.xlsx,The target is tilted.,117,3,3,0,1,1,1,1,1,1,1,1,0,0,0,0,0,7,8,117,space,3.3406057000001965,None,1,1,1.0575007000006735,None,space,2.5631320000002233,None,0,0,0,0,,,,,0,3,3,1,61.85062939999989,,,,,,,,,,,,,,,,,,,,,61.83504969999922,61.85062939999989,62.33409159999974,62.338788599999134,62.35527649999949,63.41719499999999,,,,,63.41739509999934,63.43262269999923,63.61657269999978,63.63267109999924,62.35527649999949,,,,,,,,1,1,1.0575007000006735,None,,,,,,,,867,27,M,R,2026-02-18_12h38.49.410,VisualSearch_2526_3,,2025.2.4,2026-02-18 12h38.49.624540 +0100,
tilted.xlsx,The target is tilted.,117,4,4,0,0,1,1,1,0,0,0,0,0,0,0,0,1,3,4,117,space,3.3406057000001965,None,0,1,1.1286919000003763,None,space,2.5631320000002233,None,0,0,0,0,,,,,0,4,4,6,63.63267109999924,,,,,,,,,,,,,,,,,,,,,63.61729739999919,63.63267109999924,64.11683819999962,64.12208859999919,64.13786739999978,65.28206859999955,,,,,65.28217679999943,65.29865729999983,65.48259099999996,,64.13786739999978,,,,,,,,0,1,1.1286919000003763,None,,,,,,,,867,27,M,R,2026-02-18_12h38.49.410,VisualSearch_2526_3,,2025.2.4,2026-02-18 12h38.49.624540 +0100,
tilted.xlsx,The target is tilted.,117,5,5,0,0,1,1,1,1,1,1,1,1,1,1,1,1,11,12,117,space,3.3406057000001965,None,1,0,1.9587064999996073,None,space,2.5631320000002233,None,0,0,0,0,,,,,0,5,5,4,65.49887789999957,,,,,,,,,,,,,,,,,,,,,65.48347269999977,65.49887789999957,65.98234519999914,65.98714199999995,66.00349579999965,67.9655303999998,,,,,67.9657574999992,67.98048469999958,68.16484239999954,68.18061949999992,,,,,,,,,1,0,1.9587064999996073,None,,,,,,,,867,27,M,R,2026-02-18_12h38.49.410,VisualSearch_2526_3,,2025.2.4,2026-02-18 12h38.49.624540 +0100,
tilted.xlsx,The target is tilted.,117,6,6,0,1,0,0,0,0,0,0,0,0,0,0,0,0,0,1,117,space,3.3406057000001965,None,1,1,0.6055036999996446,None,space,2.5631320000002233,None,0,0,0,0,,,,,0,6,6,3,68.18061949999992,,,,,,,,,,,,,,,,,,,,,68.16555979999976,68.18061949999992,68.6645071999992,68.66918709999936,68.6852930999994,69.29797289999988,,,,,69.29816829999982,69.31317769999987,69.49756949999937,69.51336649999939,68.6852930999994,,,,,,,,1,1,0.6055036999996446,None,,,,,,,,867,27,M,R,2026-02-18_12h38.49.410,VisualSearch_2526_3,,2025.2.4,2026-02-18 12h38.49.624540 +0100,
tilted.xlsx,The target is tilted.,117,7,7,0,0,1,1,1,1,1,1,1,0,0,0,0,1,7,8,117,space,3.3406057000001965,None,1,0,1.346998099999837,None,space,2.5631320000002233,None,0,0,0,0,,,,,0,7,7,5,69.51336649999939,,,,,,,,,,,,,,,,,,,,,69.49830269999984,69.51336649999939,69.99708979999923,70.00228919999972,70.01652309999918,71.37983029999941,,,,,71.37998189999962,71.39549039999929,71.57996179999918,71.59601079999993,70.01652309999918,,,,,,,,1,0,1.346998099999837,None,,,,,,,,867,27,M,R,2026-02-18_12h38.49.410,VisualSearch_2526_3,,2025.2.4,2026-02-18 12h38.49.624540 +0100,
tilted.xlsx,The target is tilted.,117,8,0,1,0,0,0,0,0,0,0,0,0,0,0,0,1,1,1,117,space,3.3406057000001965,None,0,1,0.8372255000003861,None,space,2.5631320000002233,None,0,0,0,0,,,,,1,0,8,7,71.59601079999993,,,,,,,,,,,,,,,,,,,,,71.5806778999995,71.59601079999993,72.0797092999992,72.08443499999976,72.10238179999942,72.94647239999995,,,,,72.94665179999993,72.9615047999996,73.14590449999923,73.16214219999983,72.10238179999942,,,,,,,,0,1,0.8372255000003861,None,,,,,,,,867,27,M,R,2026-02-18_12h38.49.410,VisualSearch_2526_3,,2025.2.4,2026-02-18 12h38.49.624540 +0100,
tilted.xlsx,The target is tilted.,117,9,1,1,0,1,1,1,1,1,1,1,0,0,0,0,1,7,8,117,space,3.3406057000001965,None,0,1,2.446051000000807,None,space,2.5631320000002233,None,0,0,0,0,,,,,1,1,9,5,73.16214219999983,,,,,,,,,,,,,,,,,,,,,73.14664409999932,73.16214219999983,73.6456890999998,73.65040569999928,73.66642629999933,76.12739749999946,,,,,76.1275386999996,76.14331389999916,76.3276649999998,76.3438458999999,73.66642629999933,,,,,,,,0,1,2.446051000000807,None,,,,,,,,867,27,M,R,2026-02-18_12h38.49.410,VisualSearch_2526_3,,2025.2.4,2026-02-18 12h38.49.624540 +0100,
tilted.xlsx,The target is tilted.,117,10,2,1,1,1,1,1,1,1,1,1,1,1,1,1,0,11,12,117,space,3.3406057000001965,None,1,1,2.007476100000531,None,space,2.5631320000002233,None,0,0,0,0,,,,,1,2,10,0,76.3438458999999,,,,,,,,,,,,,,,,,,,,,76.32841429999917,76.3438458999999,76.8275819999999,76.8322350999997,76.85018389999914,78.86052729999938,,,,,78.8607291999997,78.87559579999925,79.05968569999914,79.07584789999964,76.85018389999914,,,,,,,,1,1,2.007476100000531,None,,,,,,,,867,27,M,R,2026-02-18_12h38.49.410,VisualSearch_2526_3,,2025.2.4,2026-02-18 12h38.49.624540 +0100,
tilted.xlsx,The target is tilted.,117,11,3,1,1,0,0,0,0,0,0,0,0,0,0,0,0,0,1,117,space,3.3406057000001965,None,1,1,0.6743533999997453,None,space,2.5631320000002233,None,0,0,0,0,,,,,1,3,11,3,79.07584789999964,,,,,,,,,,,,,,,,,,,,,79.06041299999924,79.07584789999964,79.55976379999993,79.56442639999932,79.58182769999985,80.2595867,,,,,80.25978799999939,80.27492669999992,80.45930409999983,80.47531489999983,79.58182769999985,,,,,,,,1,1,0.6743533999997453,None,,,,,,,,867,27,M,R,2026-02-18_12h38.49.410,VisualSearch_2526_3,,2025.2.4,2026-02-18 12h38.49.624540 +0100,
tilted.xlsx,The target is tilted.,117,12,4,1,0,1,1,1,0,0,0,0,0,0,0,0,1,3,4,117,space,3.3406057000001965,None,0,1,1.0139600000002247,None,space,2.5631320000002233,None,0,0,0,0,,,,,1,4,12,6,80.47531489999983,,,,,,,,,,,,,,,,,,,,,80.46010089999982,80.47531489999983,80.95913569999993,80.96386289999919,80.98071699999946,82.00867179999932,,,,,82.00887609999972,82.02418489999945,82.20813669999916,82.22457799999938,80.98071699999946,,,,,,,,0,1,1.0139600000002247,None,,,,,,,,867,27,M,R,2026-02-18_12h38.49.410,VisualSearch_2526_3,,2025.2.4,2026-02-18 12h38.49.624540 +0100,
tilted.xlsx,The target is tilted.,117,13,5,1,1,1,1,1,1,1,1,1,0,0,0,0,0,7,8,117,space,3.3406057000001965,None,1,1,1.3248906000007992,None,space,2.5631320000002233,None,0,0,0,0,,,,,1,5,13,1,82.22457799999938,,,,,,,,,,,,,,,,,,,,,82.2088561999999,82.22457799999938,82.70828639999945,82.71294499999931,82.72959149999951,84.05790279999928,,,,,84.05810769999971,84.07326329999978,84.25753899999927,84.2735804999993,82.72959149999951,,,,,,,,1,1,1.3248906000007992,None,,,,,,,,867,27,M,R,2026-02-18_12h38.49.410,VisualSearch_2526_3,,2025.2.4,2026-02-18 12h38.49.624540 +0100,
tilted.xlsx,The target is tilted.,117,14,6,1,0,1,1,1,1,1,1,1,1,1,1,1,1,11,12,117,space,3.3406057000001965,None,0,1,1.8256039999996574,None,space,2.5631320000002233,None,0,0,0,0,,,,,1,6,14,4,84.2735804999993,,,,,,,,,,,,,,,,,,,,,84.25825389999954,84.2735804999993,84.75731989999986,84.76206489999913,84.77806559999954,86.60698929999944,,,,,86.60718729999917,86.62209899999925,86.80596109999988,86.8221324999995,84.77806559999954,,,,,,,,0,1,1.8256039999996574,None,,,,,,,,867,27,M,R,2026-02-18_12h38.49.410,VisualSearch_2526_3,,2025.2.4,2026-02-18 12h38.49.624540 +0100,
tilted.xlsx,The target is tilted.,117,15,7,1,1,1,1,1,0,0,0,0,0,0,0,0,0,3,4,117,space,3.3406057000001965,None,1,1,0.7885201999997662,None,space,2.5631320000002233,None,0,0,0,0,,,,,1,7,15,2,86.8221324999995,,,,,,,,,,,,,,,,,,,,,86.80721569999969,86.8221324999995,87.30616049999935,87.31078199999956,87.32642609999948,88.12296919999972,,,,,88.12316459999965,88.13801489999969,88.32237209999948,88.33848489999946,87.32642609999948,,,,,,,,1,1,0.7885201999997662,None,,,,,,,,867,27,M,R,2026-02-18_12h38.49.410,VisualSearch_2526_3,,2025.2.4,2026-02-18 12h38.49.624540 +0100,
tilted.xlsx,The target is tilted.,117,16,0,2,0,1,1,1,0,0,0,0,0,0,0,0,1,3,4,117,space,3.3406057000001965,None,0,1,0.9922355999997308,None,space,2.5631320000002233,None,0,0,0,0,,,,,2,0,16,6,88.33848489999946,,,,,,,,,,,,,,,,,,,,,88.32308709999961,88.33848489999946,88.82199949999995,88.8267778999998,88.84297369999967,89.83857069999976,,,,,89.83877229999962,89.85392999999931,90.03813249999985,90.0542977999994,88.84297369999967,,,,,,,,0,1,0.9922355999997308,None,,,,,,,,867,27,M,R,2026-02-18_12h38.49.410,VisualSearch_2526_3,,2025.2.4,2026-02-18 12h38.49.624540 +0100,
tilted.xlsx,The target is tilted.,117,17,1,2,1,0,0,0,0,0,0,0,0,0,0,0,0,0,1,117,space,3.3406057000001965,None,1,1,0.5831454999997732,None,space,2.5631320000002233,None,0,0,0,0,,,,,2,1,17,3,90.0542977999994,,,,,,,,,,,,,,,,,,,,,90.0389011999996,90.0542977999994,90.53807089999918,90.54290270000001,90.55992649999916,91.15493379999953,,,,,91.15513439999995,91.16997199999969,91.35383609999917,91.37030389999927,90.55992649999916,,,,,,,,1,1,0.5831454999997732,None,,,,,,,,867,27,M,R,2026-02-18_12h38.49.410,VisualSearch_2526_3,,2025.2.4,2026-02-18 12h38.49.624540 +0100,
tilted.xlsx,The target is tilted.,117,18,2,2,0,1,1,1,1,1,1,1,1,1,1,1,1,11,12,117,space,3.3406057000001965,None,0,1,1.9241116000002876,None,space,2.5631320000002233,None,0,0,0,0,,,,,2,2,18,4,91.37030389999927,,,,,,,,,,,,,,,,,,,,,91.3545781999992,91.37030389999927,91.85401139999976,91.85872119999931,91.8734156999999,93.80314809999982,,,,,93.80331999999999,93.81882309999946,94.00295109999934,94.01923169999918,91.8734156999999,,,,,,,,0,1,1.9241116000002876,None,,,,,,,,867,27,M,R,2026-02-18_12h38.49.410,VisualSearch_2526_3,,2025.2.4,2026-02-18 12h38.49.624540 +0100,
tilted.xlsx,The target is tilted.,117,19,3,2,0,1,1,1,1,1,1,1,0,0,0,0,1,7,8,117,space,3.3406057000001965,None,0,1,1.4803419000008944,None,space,2.5631320000002233,None,0,0,0,0,,,,,2,3,19,5,94.01923169999918,,,,,,,,,,,,,,,,,,,,,94.00369339999997,94.01923169999918,94.50256509999963,94.50716679999914,94.52379779999956,96.01870469999994,,,,,96.01891749999959,96.03439289999915,96.2188656999997,96.23481240000001,94.52379779999956,,,,,,,,0,1,1.4803419000008944,None,,,,,,,,867,27,M,R,2026-02-18_12h38.49.410,VisualSearch_2526_3,,2025.2.4,2026-02-18 12h38.49.624540 +0100,
tilted.xlsx,The target is tilted.,117,20,4,2,1,1,1,1,0,0,0,0,0,0,0,0,0,3,4,117,space,3.3406057000001965,None,1,1,1.0887072999994416,None,space,2.5631320000002233,None,0,0,0,0,,,,,2,4,20,2,96.23481240000001,,,,,,,,,,,,,,,,,,,,,96.21962039999926,96.23481240000001,96.71859549999954,96.72344249999969,96.7401061999999,97.83516919999965,,,,,97.83536749999985,97.85028759999932,98.03435489999993,98.05074839999997,96.7401061999999,,,,,,,,1,1,1.0887072999994416,None,,,,,,,,867,27,M,R,2026-02-18_12h38.49.410,VisualSearch_2526_3,,2025.2.4,2026-02-18 12h38.49.624540 +0100,
tilted.xlsx,The target is tilted.,117,21,5,2,0,0,0,0,0,0,0,0,0,0,0,0,1,1,1,117,space,3.3406057000001965,None,0,1,0.648392000000058,None,space,2.5631320000002233,None,0,0,0,0,,,,,2,5,21,7,98.05074839999997,,,,,,,,,,,,,,,,,,,,,98.03510359999927,98.05074839999997,98.5339372999997,98.53866199999993,98.55751099999998,99.21796709999944,,,,,99.2181658999998,99.23297319999983,99.41693619999933,99.43326179999985,98.55751099999998,,,,,,,,0,1,0.648392000000058,None,,,,,,,,867,27,M,R,2026-02-18_12h38.49.410,VisualSearch_2526_3,,2025.2.4,2026-02-18 12h38.49.624540 +0100,
tilted.xlsx,The target is tilted.,117,22,6,2,1,1,1,1,1,1,1,1,0,0,0,0,0,7,8,117,space,3.3406057000001965,None,1,1,1.6122169999998732,None,space,2.5631320000002233,None,0,0,0,0,,,,,2,6,22,1,99.43326179999985,,,,,,,,,,,,,,,,,,,,,99.41766499999994,99.43326179999985,99.91712909999933,99.92176829999971,99.93709629999921,101.56632779999927,,,,,101.56653059999917,101.58188449999943,101.76628989999972,101.78242329999921,99.93709629999921,,,,,,,,1,1,1.6122169999998732,None,,,,,,,,867,27,M,R,2026-02-18_12h38.49.410,VisualSearch_2526_3,,2025.2.4,2026-02-18 12h38.49.624540 +0100,
tilted.xlsx,The target is tilted.,117,23,7,2,1,1,1,1,1,1,1,1,1,1,1,1,0,11,12,117,space,3.3406057000001965,None,0,0,1.6233502000004592,None,space,2.5631320000002233,None,0,0,0,0,,,,,2,7,23,0,101.78242329999921,,,,,,,,,,,,,,,,,,,,,101.76700600000004,101.78242329999921,102.26566989999992,102.27044690000002,102.28947049999988,103.91584739999962,,,,,103.9160439999996,103.93086709999989,104.11484089999976,104.13122919999932,102.28947049999988,,,,,,,,0,0,1.6233502000004592,None,,,,,,,,867,27,M,R,2026-02-18_12h38.49.410,VisualSearch_2526_3,,2025.2.4,2026-02-18 12h38.49.624540 +0100,
tilted.xlsx,The target is tilted.,117,24,0,3,1,1,1,1,0,0,0,0,0,0,0,0,0,3,4,117,space,3.3406057000001965,None,1,1,0.7095828999999867,None,space,2.5631320000002233,None,0,0,0,0,,,,,3,0,24,2,104.13122919999932,,,,,,,,,,,,,,,,,,,,,104.11555079999926,104.13122919999932,104.61496029999944,104.61958999999933,104.6360525,105.34854409999934,,,,,105.34874859999945,105.36326439999993,105.54743139999937,105.56394219999947,104.6360525,,,,,,,,1,1,0.7095828999999867,None,,,,,,,,867,27,M,R,2026-02-18_12h38.49.410,VisualSearch_2526_3,,2025.2.4,2026-02-18 12h38.49.624540 +0100,
tilted.xlsx,The target is tilted.,117,25,1,3,0,0,0,0,0,0,0,0,0,0,0,0,1,1,1,117,space,3.3406057000001965,None,0,1,0.5717818000002808,None,space,2.5631320000002233,None,0,0,0,0,,,,,3,1,25,7,105.56394219999947,,,,,,,,,,,,,,,,,,,,,105.54816419999952,105.56394219999947,106.04746889999933,106.05160099999921,106.06739469999957,106.64783499999976,,,,,106.6480302,106.66294599999947,106.8472815999994,106.86318589999973,106.06739469999957,,,,,,,,0,1,0.5717818000002808,None,,,,,,,,867,27,M,R,2026-02-18_12h38.49.410,VisualSearch_2526_3,,2025.2.4,2026-02-18 12h38.49.624540 +0100,
tilted.xlsx,The target is tilted.,117,26,2,3,0,1,1,1,1,1,1,1,0,0,0,0,1,7,8,117,space,3.3406057000001965,None,0,1,1.8154005000005782,None,space,2.5631320000002233,None,0,0,0,0,,,,,3,2,26,5,106.86318589999973,,,,,,,,,,,,,,,,,,,,,106.84801699999934,106.86318589999973,107.34704379999948,107.3517452999995,107.36731359999976,109.19624869999916,,,,,109.19643169999927,109.21190559999923,109.39581269999962,109.41226229999938,107.36731359999976,,,,,,,,0,1,1.8154005000005782,None,,,,,,,,867,27,M,R,2026-02-18_12h38.49.410,VisualSearch_2526_3,,2025.2.4,2026-02-18 12h38.49.624540 +0100,
tilted.xlsx,The target is tilted.,117,27,3,3,1,0,0,0,0,0,0,0,0,0,0,0,0,0,1,117,space,3.3406057000001965,None,1,1,0.5753545999996277,None,space,2.5631320000002233,None,0,0,0,0,,,,,3,3,27,3,109.41226229999938,,,,,,,,,,,,,,,,,,,,,109.39653629999975,109.41226229999938,109.89591759999985,109.90053949999947,109.91742079999949,110.49606859999949,,,,,110.49626549999994,110.51120219999939,110.69554959999914,110.7113606999992,109.91742079999949,,,,,,,,1,1,0.5753545999996277,None,,,,,,,,867,27,M,R,2026-02-18_12h38.49.410,VisualSearch_2526_3,,2025.2.4,2026-02-18 12h38.49.624540 +0100,
tilted.xlsx,The target is tilted.,117,28,4,3,0,1,1,1,0,0,0,0,0,0,0,0,1,3,4,117,space,3.3406057000001965,None,0,1,1.2119524999998248,None,space,2.5631320000002233,None,0,0,0,0,,,,,3,4,28,6,110.7113606999992,,,,,,,,,,,,,,,,,,,,,110.69637779999994,110.7113606999992,111.19501809999929,111.19966099999965,111.21558759999971,112.44447659999969,,,,,112.44465489999948,112.46024079999916,112.64465909999944,112.66081049999957,111.21558759999971,,,,,,,,0,1,1.2119524999998248,None,,,,,,,,867,27,M,R,2026-02-18_12h38.49.410,VisualSearch_2526_3,,2025.2.4,2026-02-18 12h38.49.624540 +0100,
tilted.xlsx,The target is tilted.,117,29,5,3,1,1,1,1,1,1,1,1,1,1,1,1,0,11,12,117,space,3.3406057000001965,None,1,1,2.16243889999987,None,space,2.5631320000002233,None,0,0,0,0,,,,,3,5,29,0,112.66081049999957,,,,,,,,,,,,,,,,,,,,,112.64548889999969,112.66081049999957,113.1443563999992,113.14900689999922,113.16538859999946,115.34337789999972,,,,,115.34357689999979,115.3590334999999,115.54292219999934,115.55944849999923,113.16538859999946,,,,,,,,1,1,2.16243889999987,None,,,,,,,,867,27,M,R,2026-02-18_12h38.49.410,VisualSearch_2526_3,,2025.2.4,2026-02-18 12h38.49.624540 +0100,
tilted.xlsx,The target is tilted.,117,30,6,3,1,1,1,1,1,1,1,1,0,0,0,0,0,7,8,117,space,3.3406057000001965,None,1,1,1.5471583999997165,None,space,2.5631320000002233,None,0,0,0,0,,,,,3,6,30,1,115.55944849999923,,,,,,,,,,,,,,,,,,,,,115.5436553999998,115.55944849999923,116.04312619999928,116.04776019999917,116.05895299999975,117.60890159999963,,,,,117.60902889999943,117.62439579999955,117.80904919999921,117.8246382999996,116.05895299999975,,,,,,,,1,1,1.5471583999997165,None,,,,,,,,867,27,M,R,2026-02-18_12h38.49.410,VisualSearch_2526_3,,2025.2.4,2026-02-18 12h38.49.624540 +0100,
tilted.xlsx,The target is tilted.,117,31,7,3,0,1,1,1,1,1,1,1,1,1,1,1,1,11,12,117,space,3.3406057000001965,None,1,0,1.8824088000001211,None,space,2.5631320000002233,None,0,0,0,0,,,,,3,7,31,4,117.8246382999996,,,,,,,,,,,,,,,,,,,,,117.80980269999964,117.8246382999996,118.30895419999979,118.31362639999952,118.32958179999969,120.22495859999981,,,,,120.22513899999922,120.24016519999986,120.42419019999943,120.44030089999978,118.32958179999969,,,,,,,,1,0,1.8824088000001211,None,,,,,,,,867,27,M,R,2026-02-18_12h38.49.410,VisualSearch_2526_3,,2025.2.4,2026-02-18 12h38.49.624540 +0100,
tilted.xlsx,The target is tilted.,117,32,0,4,1,1,1,1,0,0,0,0,0,0,0,0,0,3,4,117,space,3.3406057000001965,None,0,0,0.9356869000002916,None,space,2.5631320000002233,None,0,0,0,0,,,,,4,0,32,2,120.44030089999978,,,,,,,,,,,,,,,,,,,,,120.42493789999935,120.44030089999978,120.92385389999981,120.92858709999928,120.94216979999965,121.89035989999957,,,,,121.89060679999966,121.90601119999974,122.09005279999928,122.1064907,120.94216979999965,,,,,,,,0,0,0.9356869000002916,None,,,,,,,,867,27,M,R,2026-02-18_12h38.49.410,VisualSearch_2526_3,,2025.2.4,2026-02-18 12h38.49.624540 +0100,
tilted.xlsx,The target is tilted.,117,33,1,4,1,0,0,0,0,0,0,0,0,0,0,0,0,0,1,117,space,3.3406057000001965,None,1,1,0.5787234999997963,None,space,2.5631320000002233,None,0,0,0,0,,,,,4,1,33,3,122.1064907,,,,,,,,,,,,,,,,,,,,,122.0907645999996,122.1064907,122.58984449999934,122.59451809999973,122.61160749999999,123.20655739999984,,,,,123.20675849999952,123.22206339999957,123.40646529999958,123.42254289999983,122.61160749999999,,,,,,,,1,1,0.5787234999997963,None,,,,,,,,867,27,M,R,2026-02-18_12h38.49.410,VisualSearch_2526_3,,2025.2.4,2026-02-18 12h38.49.624540 +0100,
tilted.xlsx,The target is tilted.,117,34,2,4,0,0,0,0,0,0,0,0,0,0,0,0,1,1,1,117,space,3.3406057000001965,None,0,1,0.6068337999995492,None,space,2.5631320000002233,None,0,0,0,0,,,,,4,2,34,7,123.42254289999983,,,,,,,,,,,,,,,,,,,,,123.40718979999929,123.42254289999983,123.90620609999951,123.91084729999966,123.92755649999981,124.53986209999948,,,,,124.54009249999945,124.55484289999913,124.73886679999941,124.75503799999933,123.92755649999981,,,,,,,,0,1,0.6068337999995492,None,,,,,,,,867,27,M,R,2026-02-18_12h38.49.410,VisualSearch_2526_3,,2025.2.4,2026-02-18 12h38.49.624540 +0100,
tilted.xlsx,The target is tilted.,117,35,3,4,1,1,1,1,1,1,1,1,0,0,0,0,0,7,8,117,space,3.3406057000001965,None,1,1,1.1481683000001794,None,space,2.5631320000002233,None,0,0,0,0,,,,,4,3,35,1,124.75503799999933,,,,,,,,,,,,,,,,,,,,,124.73961710000003,124.75503799999933,125.23894219999966,125.2436732999995,125.25950919999923,126.42169889999968,,,,,126.42187899999954,126.4373201999997,126.62165659999937,126.63777029999983,125.25950919999923,,,,,,,,1,1,1.1481683000001794,None,,,,,,,,867,27,M,R,2026-02-18_12h38.49.410,VisualSearch_2526_3,,2025.2.4,2026-02-18 12h38.49.624540 +0100,
tilted.xlsx,The target is tilted.,117,36,4,4,0,1,1,1,0,0,0,0,0,0,0,0,1,3,4,117,space,3.3406057000001965,None,0,1,1.0459388999997827,None,space,2.5631320000002233,None,0,0,0,0,,,,,4,4,36,6,126.63777029999983,,,,,,,,,,,,,,,,,,,,,126.62248049999926,126.63777029999983,127.1214530999996,127.12605399999939,127.14312149999932,128.20422579999922,,,,,128.20442639999965,128.21980399999939,128.40373929999987,128.41981859999942,127.14312149999932,,,,,,,,0,1,1.0459388999997827,None,,,,,,,,867,27,M,R,2026-02-18_12h38.49.410,VisualSearch_2526_3,,2025.2.4,2026-02-18 12h38.49.624540 +0100,
tilted.xlsx,The target is tilted.,117,37,5,4,0,1,1,1,1,1,1,1,0,0,0,0,1,7,8,117,space,3.3406057000001965,None,0,1,1.5962352000005922,None,space,2.5631320000002233,None,0,0,0,0,,,,,4,5,37,5,128.41981859999942,,,,,,,,,,,,,,,,,,,,,128.40449289999924,128.41981859999942,128.90386809999927,128.90859669999918,128.9251878999994,130.5360673999994,,,,,130.5362015999999,130.5521663999998,130.73632009999983,,128.9251878999994,,,,,,,,0,1,1.5962352000005922,None,,,,,,,,867,27,M,R,2026-02-18_12h38.49.410,VisualSearch_2526_3,,2025.2.4,2026-02-18 12h38.49.624540 +0100,
tilted.xlsx,The target is tilted.,117,38,6,4,1,1,1,1,1,1,1,1,1,1,1,1,0,11,12,117,space,3.3406057000001965,None,1,1,2.8424914999995963,None,space,2.5631320000002233,None,0,0,0,0,,,,,4,6,38,0,130.75229449999915,,,,,,,,,,,,,,,,,,,,,130.7370965,130.75229449999915,131.23623639999914,131.24087659999986,131.2582468999999,134.10187719999976,,,,,134.10205039999983,134.1171265999992,134.3013793,134.3176494999998,131.2582468999999,,,,,,,,1,1,2.8424914999995963,None,,,,,,,,867,27,M,R,2026-02-18_12h38.49.410,VisualSearch_2526_3,,2025.2.4,2026-02-18 12h38.49.624540 +0100,
tilted.xlsx,The target is tilted.,117,39,7,4,0,1,1,1,1,1,1,1,1,1,1,1,1,11,12,117,space,3.3406057000001965,None,0,1,2.7127268000003824,None,space,2.5631320000002233,None,0,0,0,0,,,,,4,7,39,4,134.3176494999998,,,,,,,,,,,,,,,,,,,,,134.30220399999962,134.3176494999998,134.80113989999973,134.8057829999998,134.82406399999945,137.5500190999992,,,,,137.55021839999972,137.5655700999996,137.75005949999922,137.76576279999972,134.82406399999945,,,,,,,,0,1,2.7127268000003824,None,,,,,,,,867,27,M,R,2026-02-18_12h38.49.410,VisualSearch_2526_3,,2025.2.4,2026-02-18 12h38.49.624540 +0100,
tilted.xlsx,The target is tilted.,117,40,0,5,0,1,1,1,0,0,0,0,0,0,0,0,1,3,4,117,space,3.3406057000001965,None,0,1,0.9619305000005625,None,space,2.5631320000002233,None,0,0,0,0,,,,,5,0,40,6,137.76576279999972,,,,,,,,,,,,,,,,,,,,,137.75080099999923,137.76576279999972,138.24976499999957,138.2543814999999,138.26990559999922,139.23319699999956,,,,,139.23342879999927,139.24817110000004,139.43232089999947,139.44853799999964,138.26990559999922,,,,,,,,0,1,0.9619305000005625,None,,,,,,,,867,27,M,R,2026-02-18_12h38.49.410,VisualSearch_2526_3,,2025.2.4,2026-02-18 12h38.49.624540 +0100,
tilted.xlsx,The target is tilted.,117,41,1,5,1,0,0,0,0,0,0,0,0,0,0,0,0,0,1,117,space,3.3406057000001965,None,1,1,0.6808510000000751,None,space,2.5631320000002233,None,0,0,0,0,,,,,5,1,41,3,139.44853799999964,,,,,,,,,,,,,,,,,,,,,139.43314369999916,139.44853799999964,139.93235019999975,139.93701949999922,139.9537075999997,140.64856149999923,,,,,140.6487619999998,140.66416069999923,140.84815719999915,140.8646409999992,139.9537075999997,,,,,,,,1,1,0.6808510000000751,None,,,,,,,,867,27,M,R,2026-02-18_12h38.49.410,VisualSearch_2526_3,,2025.2.4,2026-02-18 12h38.49.624540 +0100,
tilted.xlsx,The target is tilted.,117,42,2,5,1,1,1,1,1,1,1,1,0,0,0,0,0,7,8,117,space,3.3406057000001965,None,1,1,2.0110987999996723,None,space,2.5631320000002233,None,0,0,0,0,,,,,5,2,42,1,140.8646409999992,,,,,,,,,,,,,,,,,,,,,140.84887629999957,140.8646409999992,141.34817119999934,141.35367150000002,141.37020409999968,143.3972436999993,,,,,143.397465,143.4129409999996,143.59719379999933,143.61321859999953,141.37020409999968,,,,,,,,1,1,2.0110987999996723,None,,,,,,,,867,27,M,R,2026-02-18_12h38.49.410,VisualSearch_2526_3,,2025.2.4,2026-02-18 12h38.49.624540 +0100,
tilted.xlsx,The target is tilted.,117,43,3,5,0,1,1,1,1,1,1,1,0,0,0,0,1,7,8,117,space,3.3406057000001965,None,0,1,2.407387799999924,None,space,2.5631320000002233,None,0,0,0,0,,,,,5,3,43,5,143.61321859999953,,,,,,,,,,,,,,,,,,,,,143.59795349999968,143.61321859999953,144.09709329999987,144.10170949999974,144.11712719999923,146.5288318999992,,,,,146.5289318999994,146.54466299999967,146.72934089999944,146.74511709999933,144.11712719999923,,,,,,,,0,1,2.407387799999924,None,,,,,,,,867,27,M,R,2026-02-18_12h38.49.410,VisualSearch_2526_3,,2025.2.4,2026-02-18 12h38.49.624540 +0100,
tilted.xlsx,The target is tilted.,117,44,4,5,1,1,1,1,0,0,0,0,0,0,0,0,0,3,4,117,space,3.3406057000001965,None,0,0,1.1572620999995706,None,space,2.5631320000002233,None,0,0,0,0,,,,,5,4,44,2,146.74511709999933,,,,,,,,,,,,,,,,,,,,,146.73008949999985,146.74511709999933,147.22898069999974,147.23369729999922,147.2514487999997,148.41156969999975,,,,,148.41173679999974,148.42732239999987,148.6117007999992,148.6277782999996,147.2514487999997,,,,,,,,0,0,1.1572620999995706,None,,,,,,,,867,27,M,R,2026-02-18_12h38.49.410,VisualSearch_2526_3,,2025.2.4,2026-02-18 12h38.49.624540 +0100,
tilted.xlsx,The target is tilted.,117,45,5,5,0,1,1,1,1,1,1,1,1,1,1,1,1,11,12,117,space,3.3406057000001965,None,0,1,2.199166200000036,None,space,2.5631320000002233,None,0,0,0,0,,,,,5,5,45,4,148.6277782999996,,,,,,,,,,,,,,,,,,,,,148.6125091999993,148.6277782999996,149.11139019999973,149.11605539999982,149.13273599999957,151.3443615999995,,,,,151.34460189999936,151.3593965,151.54335749999973,151.5593418999997,149.13273599999957,,,,,,,,0,1,2.199166200000036,None,,,,,,,,867,27,M,R,2026-02-18_12h38.49.410,VisualSearch_2526_3,,2025.2.4,2026-02-18 12h38.49.624540 +0100,
tilted.xlsx,The target is tilted.,117,46,6,5,0,0,0,0,0,0,0,0,0,0,0,0,1,1,1,117,space,3.3406057000001965,None,0,1,0.5621124999997846,None,space,2.5631320000002233,None,0,0,0,0,,,,,5,6,46,7,151.5593418999997,,,,,,,,,,,,,,,,,,,,,151.54410519999965,151.5593418999997,152.04308069999934,152.04780699999992,152.06483759999992,152.64292699999987,,,,,152.6431576999994,152.6586711,152.84299329999976,152.8591566999994,152.06483759999992,,,,,,,,0,1,0.5621124999997846,None,,,,,,,,867,27,M,R,2026-02-18_12h38.49.410,VisualSearch_2526_3,,2025.2.4,2026-02-18 12h38.49.624540 +0100,
tilted.xlsx,The target is tilted.,117,47,7,5,1,1,1,1,1,1,1,1,1,1,1,1,0,11,12,117,space,3.3406057000001965,None,1,1,1.252813099999912,None,space,2.5631320000002233,None,0,0,0,0,,,,,5,7,47,0,152.8591566999994,,,,,,,,,,,,,,,,,,,,,152.84380399999918,152.8591566999994,153.34200359999977,153.34408059999987,153.3587891999996,154.6251218999996,,,,,154.62525059999916,154.64113799999996,154.8254763999994,154.84159349999936,153.3587891999996,,,,,,,,1,1,1.252813099999912,None,,,,,,,,867,27,M,R,2026-02-18_12h38.49.410,VisualSearch_2526_3,,2025.2.4,2026-02-18 12h38.49.624540 +0100,
tilted.xlsx,The target is tilted.,117,48,0,6,1,1,1,1,1,1,1,1,1,1,1,1,0,11,12,117,space,3.3406057000001965,None,1,1,1.9993015000000014,None,space,2.5631320000002233,None,0,0,0,0,,,,,6,0,48,0,154.84159349999936,,,,,,,,,,,,,,,,,,,,,154.82622129999982,154.84159349999936,155.3252451999997,155.3298574999999,155.34563799999978,157.35774270000002,,,,,157.35794069999974,157.37323549999928,157.5576234,157.57340739999927,155.34563799999978,,,,,,,,1,1,1.9993015000000014,None,,,,,,,,867,27,M,R,2026-02-18_12h38.49.410,VisualSearch_2526_3,,2025.2.4,2026-02-18 12h38.49.624540 +0100,
tilted.xlsx,The target is tilted.,117,49,1,6,0,0,0,0,0,0,0,0,0,0,0,0,1,1,1,117,space,3.3406057000001965,None,0,1,0.46161339999980555,None,space,2.5631320000002233,None,0,0,0,0,,,,,6,1,49,7,157.57340739999927,,,,,,,,,,,,,,,,,,,,,157.55836889999955,157.57340739999927,158.05742549999923,158.06211619999976,158.07898359999945,158.55628409999917,,,,,158.55638129999988,158.5728610999995,158.75666459999957,158.77312979999988,158.07898359999945,,,,,,,,0,1,0.46161339999980555,None,,,,,,,,867,27,M,R,2026-02-18_12h38.49.410,VisualSearch_2526_3,,2025.2.4,2026-02-18 12h38.49.624540 +0100,
tilted.xlsx,The target is tilted.,117,50,2,6,1,1,1,1,1,1,1,1,0,0,0,0,0,7,8,117,space,3.3406057000001965,None,1,1,0.6579933000002711,None,space,2.5631320000002233,None,0,0,0,0,,,,,6,2,50,1,158.77312979999988,,,,,,,,,,,,,,,,,,,,,158.75741669999934,158.77312979999988,159.2566251999997,159.2612884,159.27673830000003,159.94065809999938,,,,,159.94087029999992,159.9554436999997,160.13983039999948,160.1558701999993,,,,,,,,,1,1,0.6579933000002711,None,,,,,,,,867,27,M,R,2026-02-18_12h38.49.410,VisualSearch_2526_3,,2025.2.4,2026-02-18 12h38.49.624540 +0100,
tilted.xlsx,The target is tilted.,117,51,3,6,1,1,1,1,0,0,0,0,0,0,0,0,0,3,4,117,space,3.3406057000001965,None,1,1,0.8927543999998306,None,space,2.5631320000002233,None,0,0,0,0,,,,,6,3,51,2,160.1558701999993,,,,,,,,,,,,,,,,,,,,,160.14062889999968,160.1558701999993,160.63939289999962,160.6441261,160.66071589999956,161.5564162999999,,,,,161.5566274999992,161.57135859999926,161.75564699999995,161.7718836999993,160.66071589999956,,,,,,,,1,1,0.8927543999998306,None,,,,,,,,867,27,M,R,2026-02-18_12h38.49.410,VisualSearch_2526_3,,2025.2.4,2026-02-18 12h38.49.624540 +0100,
tilted.xlsx,The target is tilted.,117,52,4,6,0,1,1,1,1,1,1,1,0,0,0,0,1,7,8,117,space,3.3406057000001965,None,0,1,1.4795527999995102,None,space,2.5631320000002233,None,0,0,0,0,,,,,6,4,52,5,161.7718836999993,,,,,,,,,,,,,,,,,,,,,161.75643709999986,161.7718836999993,162.25515509999968,162.2597868999992,162.2758062999992,163.77122509999936,,,,,163.77143579999938,163.7869923999997,163.9708753999994,163.98745359999975,162.2758062999992,,,,,,,,0,1,1.4795527999995102,None,,,,,,,,867,27,M,R,2026-02-18_12h38.49.410,VisualSearch_2526_3,,2025.2.4,2026-02-18 12h38.49.624540 +0100,
tilted.xlsx,The target is tilted.,117,53,5,6,0,1,1,1,0,0,0,0,0,0,0,0,1,3,4,117,space,3.3406057000001965,None,0,1,0.7830414000000019,None,space,2.5631320000002233,None,0,0,0,0,,,,,6,5,53,6,163.98745359999975,,,,,,,,,,,,,,,,,,,,,163.97163089999958,163.98745359999975,164.47102749999976,164.47567609999987,164.49248869999974,165.28767629999948,,,,,165.28787029999967,165.30302929999925,165.48695769999995,165.50332359999993,164.49248869999974,,,,,,,,0,1,0.7830414000000019,None,,,,,,,,867,27,M,R,2026-02-18_12h38.49.410,VisualSearch_2526_3,,2025.2.4,2026-02-18 12h38.49.624540 +0100,
tilted.xlsx,The target is tilted.,117,54,6,6,1,0,0,0,0,0,0,0,0,0,0,0,0,0,1,117,space,3.3406057000001965,None,1,1,0.4914040000003297,None,space,2.5631320000002233,None,0,0,0,0,,,,,6,6,54,3,165.50332359999993,,,,,,,,,,,,,,,,,,,,,165.48771939999915,165.50332359999993,165.98715059999995,165.9920102999995,166.00884809999934,166.50364119999995,,,,,166.50381919999927,166.51910259999931,166.70362659999955,166.7191746999997,166.00884809999934,,,,,,,,1,1,0.4914040000003297,None,,,,,,,,867,27,M,R,2026-02-18_12h38.49.410,VisualSearch_2526_3,,2025.2.4,2026-02-18 12h38.49.624540 +0100,
tilted.xlsx,The target is tilted.,117,55,7,6,0,1,1,1,1,1,1,1,1,1,1,1,1,11,12,117,space,3.3406057000001965,None,0,1,2.1060974000001806,None,space,2.5631320000002233,None,0,0,0,0,,,,,6,7,55,4,166.7191746999997,,,,,,,,,,,,,,,,,,,,,166.70441439999922,166.7191746999997,167.20306429999982,167.20768839999982,167.22224769999957,169.33561759999975,,,,,169.33575129999917,169.35111199999938,169.5354353999992,169.5515951999996,167.22224769999957,,,,,,,,0,1,2.1060974000001806,None,,,,,,,,867,27,M,R,2026-02-18_12h38.49.410,VisualSearch_2526_3,,2025.2.4,2026-02-18 12h38.49.624540 +0100,
tilted.xlsx,The target is tilted.,117,56,0,7,0,0,0,0,0,0,0,0,0,0,0,0,1,1,1,117,space,3.3406057000001965,None,0,1,0.5924485000005006,None,space,2.5631320000002233,None,0,0,0,0,,,,,7,0,56,7,169.5515951999996,,,,,,,,,,,,,,,,,,,,,169.5361654999997,169.5515951999996,170.03508629999942,170.03972720000002,170.05645019999974,170.65218019999975,,,,,170.65237539999998,170.66721829999915,170.85119569999915,170.86740199999986,170.05645019999974,,,,,,,,0,1,0.5924485000005006,None,,,,,,,,867,27,M,R,2026-02-18_12h38.49.410,VisualSearch_2526_3,,2025.2.4,2026-02-18 12h38.49.624540 +0100,
tilted.xlsx,The target is tilted.,117,57,1,7,0,1,1,1,1,1,1,1,1,1,1,1,1,11,12,117,space,3.3406057000001965,None,0,1,2.7142176000006657,None,space,2.5631320000002233,None,0,0,0,0,,,,,7,1,57,4,170.86740199999986,,,,,,,,,,,,,,,,,,,,,170.85193489999983,170.86740199999986,171.35126389999914,171.35605469999973,171.36730239999997,174.08359159999964,,,,,174.08378769999945,174.09906669999964,174.2832826999993,174.29917129999922,171.36730239999997,,,,,,,,0,1,2.7142176000006657,None,,,,,,,,867,27,M,R,2026-02-18_12h38.49.410,VisualSearch_2526_3,,2025.2.4,2026-02-18 12h38.49.624540 +0100,
tilted.xlsx,The target is tilted.,117,58,2,7,0,1,1,1,1,1,1,1,0,0,0,0,1,7,8,117,space,3.3406057000001965,None,0,1,2.116732000000411,None,space,2.5631320000002233,None,0,0,0,0,,,,,7,2,58,5,174.29917129999922,,,,,,,,,,,,,,,,,,,,,174.2840082999992,174.29917129999922,174.78303359999973,174.78772179999942,174.80614409999998,176.93269239999972,,,,,176.93289059999915,176.9477442999996,177.13162289999946,177.14817409999978,174.80614409999998,,,,,,,,0,1,2.116732000000411,None,,,,,,,,867,27,M,R,2026-02-18_12h38.49.410,VisualSearch_2526_3,,2025.2.4,2026-02-18 12h38.49.624540 +0100,
tilted.xlsx,The target is tilted.,117,59,3,7,1,1,1,1,1,1,1,1,1,1,1,1,0,11,12,117,space,3.3406057000001965,None,0,0,2.239935200000218,None,space,2.5631320000002233,None,0,0,0,0,,,,,7,3,59,0,177.14817409999978,,,,,,,,,,,,,,,,,,,,,177.13233939999918,177.14817409999978,177.63188269999955,177.6364664999992,177.6531731999994,179.8972245999994,,,,,179.89736209999955,179.91297139999915,180.0974024999996,180.1135424999993,177.6531731999994,,,,,,,,0,0,2.239935200000218,None,,,,,,,,867,27,M,R,2026-02-18_12h38.49.410,VisualSearch_2526_3,,2025.2.4,2026-02-18 12h38.49.624540 +0100,
tilted.xlsx,The target is tilted.,117,60,4,7,1,1,1,1,1,1,1,1,0,0,0,0,0,7,8,117,space,3.3406057000001965,None,1,1,0.8591385999998238,None,space,2.5631320000002233,None,0,0,0,0,,,,,7,4,60,1,180.1135424999993,,,,,,,,,,,,,,,,,,,,,180.09811269999955,180.1135424999993,180.5972017999993,180.60191919999943,180.61718069999915,181.4803093999999,,,,,181.48050019999937,181.49567749999915,181.67990809999992,181.69612619999953,180.61718069999915,,,,,,,,1,1,0.8591385999998238,None,,,,,,,,867,27,M,R,2026-02-18_12h38.49.410,VisualSearch_2526_3,,2025.2.4,2026-02-18 12h38.49.624540 +0100,
tilted.xlsx,The target is tilted.,117,61,5,7,1,1,1,1,0,0,0,0,0,0,0,0,0,3,4,117,space,3.3406057000001965,None,0,0,1.0897397999997338,None,space,2.5631320000002233,None,0,0,0,0,,,,,7,5,61,2,181.69612619999953,,,,,,,,,,,,,,,,,,,,,181.6806471,181.69612619999953,182.17952969999988,182.18422089999967,182.2006154999999,183.29653009999947,,,,,183.29672309999933,183.31147149999924,183.49585649999972,183.5120724999997,182.2006154999999,,,,,,,,0,0,1.0897397999997338,None,,,,,,,,867,27,M,R,2026-02-18_12h38.49.410,VisualSearch_2526_3,,2025.2.4,2026-02-18 12h38.49.624540 +0100,
tilted.xlsx,The target is tilted.,117,62,6,7,0,1,1,1,0,0,0,0,0,0,0,0,1,3,4,117,space,3.3406057000001965,None,0,1,1.1062739999997575,None,space,2.5631320000002233,None,0,0,0,0,,,,,7,6,62,6,183.5120724999997,,,,,,,,,,,,,,,,,,,,,183.49656989999949,183.5120724999997,183.9956376,184.00027579999914,184.01707089999945,185.12887969999974,,,,,185.12907149999955,185.14402679999966,185.32838149999952,185.34414799999922,184.01707089999945,,,,,,,,0,1,1.1062739999997575,None,,,,,,,,867,27,M,R,2026-02-18_12h38.49.410,VisualSearch_2526_3,,2025.2.4,2026-02-18 12h38.49.624540 +0100,
tilted.xlsx,The target is tilted.,117,63,7,7,1,0,0,0,0,0,0,0,0,0,0,0,0,0,1,117,space,3.3406057000001965,None,0,0,0.871835199999623,None,space,2.5631320000002233,None,0,0,0,0,,,,,7,7,63,3,185.34414799999922,,,,,,,,,,,,,,,,,,,,,185.32912599999963,185.34414799999922,185.82817669999986,185.8328191999999,185.84624039999926,186.7273441999996,,,,,186.72747659999914,186.74315409999963,186.92754869999953,186.94375379999929,185.84624039999926,,,,,,,,0,0,0.871835199999623,None,,,,,,,,867,27,M,R,2026-02-18_12h38.49.410,VisualSearch_2526_3,,2025.2.4,2026-02-18 12h38.49.624540 +0100,
tilted.xlsx,The target is tilted.,117,64,0,8,1,1,1,1,1,1,1,1,0,0,0,0,0,7,8,117,space,3.3406057000001965,None,1,1,1.2390054000006785,None,space,2.5631320000002233,None,0,0,0,0,,,,,8,0,64,1,186.94375379999929,,,,,,,,,,,,,,,,,,,,,186.92827539999962,186.94375379999929,187.42724550000003,187.43077899999935,187.44299599999977,188.69385179999972,,,,,188.6940500999999,188.70910769999955,188.8929988,188.90959399999974,187.44299599999977,,,,,,,,1,1,1.2390054000006785,None,,,,,,,,867,27,M,R,2026-02-18_12h38.49.410,VisualSearch_2526_3,,2025.2.4,2026-02-18 12h38.49.624540 +0100,
tilted.xlsx,The target is tilted.,117,65,1,8,0,1,1,1,0,0,0,0,0,0,0,0,1,3,4,117,space,3.3406057000001965,None,0,1,0.9952648999997109,None,space,2.5631320000002233,None,0,0,0,0,,,,,8,1,65,6,188.90959399999974,,,,,,,,,,,,,,,,,,,,,188.89373929999965,188.90959399999974,189.39295329999914,189.39757719999943,189.4132342999992,190.4094359999999,,,,,190.40957979999985,190.42466849999983,190.60935309999968,190.6254113999994,189.4132342999992,,,,,,,,0,1,0.9952648999997109,None,,,,,,,,867,27,M,R,2026-02-18_12h38.49.410,VisualSearch_2526_3,,2025.2.4,2026-02-18 12h38.49.624540 +0100,
tilted.xlsx,The target is tilted.,117,66,2,8,1,0,0,0,0,0,0,0,0,0,0,0,0,0,1,117,space,3.3406057000001965,None,1,1,0.5771066999996037,None,space,2.5631320000002233,None,0,0,0,0,,,,,8,2,66,3,190.6254113999994,,,,,,,,,,,,,,,,,,,,,190.6100667999999,190.6254113999994,191.1086194999998,191.11332049999965,191.13112209999963,191.7252222999996,,,,,191.7254321999999,191.74095249999937,191.92517249999946,191.94151899999997,191.13112209999963,,,,,,,,1,1,0.5771066999996037,None,,,,,,,,867,27,M,R,2026-02-18_12h38.49.410,VisualSearch_2526_3,,2025.2.4,2026-02-18 12h38.49.624540 +0100,
tilted.xlsx,The target is tilted.,117,67,3,8,1,1,1,1,1,1,1,1,1,1,1,1,0,11,12,117,space,3.3406057000001965,None,1,1,2.2879800999999134,None,space,2.5631320000002233,None,0,0,0,0,,,,,8,3,67,0,191.94151899999997,,,,,,,,,,,,,,,,,,,,,191.92590589999963,191.94151899999997,192.4251676999993,192.42980409999927,192.44552029999977,194.74129679999987,,,,,194.74148929999956,194.75634229999923,194.94060269999954,194.9567204999994,192.44552029999977,,,,,,,,1,1,2.2879800999999134,None,,,,,,,,867,27,M,R,2026-02-18_12h38.49.410,VisualSearch_2526_3,,2025.2.4,2026-02-18 12h38.49.624540 +0100,
tilted.xlsx,The target is tilted.,117,68,4,8,1,1,1,1,0,0,0,0,0,0,0,0,0,3,4,117,space,3.3406057000001965,None,1,1,0.7890139999999519,None,space,2.5631320000002233,None,0,0,0,0,,,,,8,4,68,2,194.9567204999994,,,,,,,,,,,,,,,,,,,,,194.94133839999995,194.9567204999994,195.44050949999928,195.44519799999944,195.46117569999933,196.25790249999955,,,,,196.2580952999997,196.27230449999934,196.4561752999998,196.47241329999997,195.46117569999933,,,,,,,,1,1,0.7890139999999519,None,,,,,,,,867,27,M,R,2026-02-18_12h38.49.410,VisualSearch_2526_3,,2025.2.4,2026-02-18 12h38.49.624540 +0100,
tilted.xlsx,The target is tilted.,117,69,5,8,0,1,1,1,1,1,1,1,1,1,1,1,1,11,12,117,space,3.3406057000001965,None,0,1,1.8715121999994153,None,space,2.5631320000002233,None,0,0,0,0,,,,,8,5,69,4,196.47241329999997,,,,,,,,,,,,,,,,,,,,,196.45690579999973,196.47241329999997,196.95645069999955,196.96101589999944,196.97829430000002,198.8560469999993,,,,,198.85624019999977,198.87113399999998,199.05547429999933,199.07155929999954,196.97829430000002,,,,,,,,0,1,1.8715121999994153,None,,,,,,,,867,27,M,R,2026-02-18_12h38.49.410,VisualSearch_2526_3,,2025.2.4,2026-02-18 12h38.49.624540 +0100,
tilted.xlsx,The target is tilted.,117,70,6,8,0,0,0,0,0,0,0,0,0,0,0,0,1,1,1,117,space,3.3406057000001965,None,0,1,0.7342088999994303,None,space,2.5631320000002233,None,0,0,0,0,,,,,8,6,70,7,199.07155929999954,,,,,,,,,,,,,,,,,,,,,199.0561742,199.07155929999954,199.55485039999985,199.5595988999994,199.5755255999993,200.32129279999936,,,,,200.32146079999984,200.33705049999935,200.52144489999955,200.5375787999992,199.5755255999993,,,,,,,,0,1,0.7342088999994303,None,,,,,,,,867,27,M,R,2026-02-18_12h38.49.410,VisualSearch_2526_3,,2025.2.4,2026-02-18 12h38.49.624540 +0100,
tilted.xlsx,The target is tilted.,117,71,7,8,0,1,1,1,1,1,1,1,0,0,0,0,1,7,8,117,space,3.3406057000001965,None,1,0,2.0734282000003077,None,space,2.5631320000002233,None,0,0,0,0,,,,,8,7,71,5,200.5375787999992,,,,,,,,,,,,,,,,,,,,,200.5221507999995,200.5375787999992,201.02091419999942,201.02559989999918,201.04235549999976,203.12054419999913,,,,,203.1207341999998,203.13585539999985,203.32040139999935,203.33635089999916,201.04235549999976,,,,,,,,1,0,2.0734282000003077,None,,,,,,,,867,27,M,R,2026-02-18_12h38.49.410,VisualSearch_2526_3,,2025.2.4,2026-02-18 12h38.49.624540 +0100,
tilted.xlsx,The target is tilted.,117,72,0,9,0,0,0,0,0,0,0,0,0,0,0,0,1,1,1,117,space,3.3406057000001965,None,0,1,0.6611504000002242,None,space,2.5631320000002233,None,0,0,0,0,,,,,9,0,72,7,203.33635089999916,,,,,,,,,,,,,,,,,,,,,203.32112809999944,203.33635089999916,203.8200827999999,203.82463129999996,203.83978559999923,204.50266119999924,,,,,204.50277519999963,204.5185496999993,204.70302589999937,204.7190283,203.83978559999923,,,,,,,,0,1,0.6611504000002242,None,,,,,,,,867,27,M,R,2026-02-18_12h38.49.410,VisualSearch_2526_3,,2025.2.4,2026-02-18 12h38.49.624540 +0100,
tilted.xlsx,The target is tilted.,117,73,1,9,1,1,1,1,1,1,1,1,0,0,0,0,0,7,8,117,space,3.3406057000001965,None,1,1,1.2205905000000712,None,space,2.5631320000002233,None,0,0,0,0,,,,,9,1,73,1,204.7190283,,,,,,,,,,,,,,,,,,,,,204.70375139999942,204.7190283,205.2028023999992,205.2073309999996,205.22249569999985,206.4527223999994,,,,,206.45294359999934,206.46762339999987,206.65211459999955,206.66814419999992,205.22249569999985,,,,,,,,1,1,1.2205905000000712,None,,,,,,,,867,27,M,R,2026-02-18_12h38.49.410,VisualSearch_2526_3,,2025.2.4,2026-02-18 12h38.49.624540 +0100,
tilted.xlsx,The target is tilted.,117,74,2,9,0,1,1,1,1,1,1,1,0,0,0,0,1,7,8,117,space,3.3406057000001965,None,0,1,2.3283385000004273,None,space,2.5631320000002233,None,0,0,0,0,,,,,9,2,74,5,206.66814419999992,,,,,,,,,,,,,,,,,,,,,206.65285129999938,206.66814419999992,207.1518514999998,207.15637779999997,207.16972649999934,209.50121749999926,,,,,209.50140399999964,209.51632569999947,209.70065929999964,209.71674899999925,207.16972649999934,,,,,,,,0,1,2.3283385000004273,None,,,,,,,,867,27,M,R,2026-02-18_12h38.49.410,VisualSearch_2526_3,,2025.2.4,2026-02-18 12h38.49.624540 +0100,
tilted.xlsx,The target is tilted.,117,75,3,9,0,1,1,1,1,1,1,1,1,1,1,1,1,11,12,117,space,3.3406057000001965,None,0,1,2.0352865000004385,None,space,2.5631320000002233,None,0,0,0,0,,,,,9,3,75,4,209.71674899999925,,,,,,,,,,,,,,,,,,,,,209.7013638999997,209.71674899999925,210.20021610000003,210.20489579999958,210.22197009999945,212.26640529999986,,,,,212.26659019999988,212.28168189999997,212.46542379999937,212.48232029999963,210.22197009999945,,,,,,,,0,1,2.0352865000004385,None,,,,,,,,867,27,M,R,2026-02-18_12h38.49.410,VisualSearch_2526_3,,2025.2.4,2026-02-18 12h38.49.624540 +0100,
tilted.xlsx,The target is tilted.,117,76,4,9,0,1,1,1,0,0,0,0,0,0,0,0,1,3,4,117,space,3.3406057000001965,None,0,1,0.9549986000001809,None,space,2.5631320000002233,None,0,0,0,0,,,,,9,4,76,6,212.48232029999963,,,,,,,,,,,,,,,,,,,,,212.46606389999943,212.48232029999963,212.96582509999917,212.97038149999935,212.9876553999993,213.94924529999935,,,,,213.94943319999948,213.9642334,214.1485460999993,214.16470729999946,212.9876553999993,,,,,,,,0,1,0.9549986000001809,None,,,,,,,,867,27,M,R,2026-02-18_12h38.49.410,VisualSearch_2526_3,,2025.2.4,2026-02-18 12h38.49.624540 +0100,
tilted.xlsx,The target is tilted.,117,77,5,9,1,0,0,0,0,0,0,0,0,0,0,0,0,0,1,117,space,3.3406057000001965,None,1,1,0.45413250000001426,None,space,2.5631320000002233,None,0,0,0,0,,,,,9,5,77,3,214.16470729999946,,,,,,,,,,,,,,,,,,,,,214.14926339999965,214.16470729999946,214.64831859999958,214.65282649999972,214.66722329999993,215.13126339999963,,,,,215.13141859999996,215.1469832999992,215.33102399999916,215.34721399999944,214.66722329999993,,,,,,,,1,1,0.45413250000001426,None,,,,,,,,867,27,M,R,2026-02-18_12h38.49.410,VisualSearch_2526_3,,2025.2.4,2026-02-18 12h38.49.624540 +0100,
tilted.xlsx,The target is tilted.,117,78,6,9,1,1,1,1,0,0,0,0,0,0,0,0,0,3,4,117,space,3.3406057000001965,None,1,1,0.7108546999997998,None,space,2.5631320000002233,None,0,0,0,0,,,,,9,6,78,2,215.34721399999944,,,,,,,,,,,,,,,,,,,,,215.33174839999992,215.34721399999944,215.83087089999935,215.8354030999999,215.85192359999928,216.56470049999916,,,,,216.56489239999974,216.57968099999925,216.76397159999942,216.78023109999958,215.85192359999928,,,,,,,,1,1,0.7108546999997998,None,,,,,,,,867,27,M,R,2026-02-18_12h38.49.410,VisualSearch_2526_3,,2025.2.4,2026-02-18 12h38.49.624540 +0100,
tilted.xlsx,The target is tilted.,117,79,7,9,1,1,1,1,1,1,1,1,1,1,1,1,0,11,12,117,space,3.3406057000001965,None,1,1,1.9272988000002442,None,space,2.5631320000002233,None,0,0,0,0,,,,,9,7,79,0,216.78023109999958,,,,,,,,,,,,,,,,,,,,,216.76471139999921,216.78023109999958,217.26339589999952,217.26806039999974,217.2798215999992,219.21338849999938,,,,,219.21355689999928,219.22851039999932,219.41240259999995,219.42877509999926,217.2798215999992,,,,,,,,1,1,1.9272988000002442,None,,,,,,,,867,27,M,R,2026-02-18_12h38.49.410,VisualSearch_2526_3,,2025.2.4,2026-02-18 12h38.49.624540 +0100,
tilted.xlsx,The target is tilted.,117,80,0,10,1,0,0,0,0,0,0,0,0,0,0,0,0,0,1,117,space,3.3406057000001965,None,1,1,0.5702308999998422,None,space,2.5631320000002233,None,0,0,0,0,,,,,10,0,80,3,219.42877509999926,,,,,,,,,,,,,,,,,,,,,219.41280839999945,219.42877509999926,219.91224739999961,219.91686630000004,219.93233059999966,220.51280569999926,,,,,220.5129754999998,220.5279684999996,220.71231009999974,220.72844579999946,219.93233059999966,,,,,,,,1,1,0.5702308999998422,None,,,,,,,,867,27,M,R,2026-02-18_12h38.49.410,VisualSearch_2526_3,,2025.2.4,2026-02-18 12h38.49.624540 +0100,
tilted.xlsx,The target is tilted.,117,81,1,10,1,1,1,1,0,0,0,0,0,0,0,0,0,3,4,117,space,3.3406057000001965,None,0,0,1.1491792999995596,None,space,2.5631320000002233,None,0,0,0,0,,,,,10,1,81,2,220.72844579999946,,,,,,,,,,,,,,,,,,,,,220.7130348999999,220.72844579999946,221.21209099999942,221.21666949999963,221.23240469999928,222.39463720000003,,,,,222.3948062999998,222.41035269999975,222.59433049999916,222.61063429999922,221.23240469999928,,,,,,,,0,0,1.1491792999995596,None,,,,,,,,867,27,M,R,2026-02-18_12h38.49.410,VisualSearch_2526_3,,2025.2.4,2026-02-18 12h38.49.624540 +0100,
tilted.xlsx,The target is tilted.,117,82,2,10,1,1,1,1,1,1,1,1,0,0,0,0,0,7,8,117,space,3.3406057000001965,None,1,1,0.8411988999996538,None,space,2.5631320000002233,None,0,0,0,0,,,,,10,2,82,1,222.61063429999922,,,,,,,,,,,,,,,,,,,,,222.59507689999919,222.61063429999922,223.09454859999914,223.09909889999926,223.11741919999986,223.96146209999915,,,,,223.96166509999966,223.97639699999945,224.16075379999984,224.1765121999997,223.11741919999986,,,,,,,,1,1,0.8411988999996538,None,,,,,,,,867,27,M,R,2026-02-18_12h38.49.410,VisualSearch_2526_3,,2025.2.4,2026-02-18 12h38.49.624540 +0100,
tilted.xlsx,The target is tilted.,117,83,3,10,0,1,1,1,1,1,1,1,0,0,0,0,1,7,8,117,space,3.3406057000001965,None,0,1,2.1625260999999227,None,space,2.5631320000002233,None,0,0,0,0,,,,,10,3,83,5,224.1765121999997,,,,,,,,,,,,,,,,,,,,,224.16146669999944,224.1765121999997,224.6605196999999,224.66513629999918,224.68222629999946,226.8594065999996,,,,,226.85955419999937,226.87493339999946,227.05948179999996,227.0755578999997,224.68222629999946,,,,,,,,0,1,2.1625260999999227,None,,,,,,,,867,27,M,R,2026-02-18_12h38.49.410,VisualSearch_2526_3,,2025.2.4,2026-02-18 12h38.49.624540 +0100,
tilted.xlsx,The target is tilted.,117,84,4,10,0,1,1,1,1,1,1,1,1,1,1,1,1,11,12,117,space,3.3406057000001965,None,0,1,2.580645799999729,None,space,2.5631320000002233,None,0,0,0,0,,,,,10,4,84,4,227.0755578999997,,,,,,,,,,,,,,,,,,,,,227.06018529999983,227.0755578999997,227.57509869999922,227.57622589999937,227.59156919999987,230.17465989999982,,,,,230.17477689999942,230.19076389999918,230.37450799999988,230.39072159999978,,,,,,,,,0,1,2.580645799999729,None,,,,,,,,867,27,M,R,2026-02-18_12h38.49.410,VisualSearch_2526_3,,2025.2.4,2026-02-18 12h38.49.624540 +0100,
tilted.xlsx,The target is tilted.,117,85,5,10,0,0,0,0,0,0,0,0,0,0,0,0,1,1,1,117,space,3.3406057000001965,None,0,1,0.5730167000001529,None,space,2.5631320000002233,None,0,0,0,0,,,,,10,5,85,7,230.39072159999978,,,,,,,,,,,,,,,,,,,,,230.37522639999952,230.39072159999978,230.874374,230.87899459999971,230.89720289999968,231.47366179999972,,,,,231.4737796999998,231.49001009999938,231.6738153999995,231.69011259999934,230.89720289999968,,,,,,,,0,1,0.5730167000001529,None,,,,,,,,867,27,M,R,2026-02-18_12h38.49.410,VisualSearch_2526_3,,2025.2.4,2026-02-18 12h38.49.624540 +0100,
tilted.xlsx,The target is tilted.,117,86,6,10,0,1,1,1,0,0,0,0,0,0,0,0,1,3,4,117,space,3.3406057000001965,None,0,1,0.9679914000007557,None,space,2.5631320000002233,None,0,0,0,0,,,,,10,6,86,6,231.69011259999934,,,,,,,,,,,,,,,,,,,,,231.67454279999947,231.69011259999934,232.1733553999993,232.17795399999977,232.1897328999994,233.1735876999992,,,,,233.17378819999976,233.18922569999995,233.37253399999918,233.3890982999992,232.1897328999994,,,,,,,,0,1,0.9679914000007557,None,,,,,,,,867,27,M,R,2026-02-18_12h38.49.410,VisualSearch_2526_3,,2025.2.4,2026-02-18 12h38.49.624540 +0100,
tilted.xlsx,The target is tilted.,117,87,7,10,1,1,1,1,1,1,1,1,1,1,1,1,0,11,12,117,space,3.3406057000001965,None,1,1,0.8461198000004515,None,space,2.5631320000002233,None,0,0,0,0,,,,,10,7,87,0,233.3890982999992,,,,,,,,,,,,,,,,,,,,,233.37285859999974,233.3890982999992,233.87284829999953,233.87749579999945,233.8942210999994,234.7564485999992,,,,,234.7566358999993,234.7719922999995,234.9556619999994,234.9719110999995,233.8942210999994,,,,,,,,1,1,0.8461198000004515,None,,,,,,,,867,27,M,R,2026-02-18_12h38.49.410,VisualSearch_2526_3,,2025.2.4,2026-02-18 12h38.49.624540 +0100,
tilted.xlsx,The target is tilted.,117,88,0,11,1,1,1,1,1,1,1,1,0,0,0,0,0,7,8,117,space,3.3406057000001965,None,1,1,1.0727723999998489,None,space,2.5631320000002233,None,0,0,0,0,,,,,11,0,88,1,234.9719110999995,,,,,,,,,,,,,,,,,,,,,234.95645779999995,234.9719110999995,235.4555333999997,235.46008119999988,235.47664229999918,236.55526109999937,,,,,236.5554044999999,236.5711808999995,236.7549153,236.77115409999988,235.47664229999918,,,,,,,,1,1,1.0727723999998489,None,,,,,,,,867,27,M,R,2026-02-18_12h38.49.410,VisualSearch_2526_3,,2025.2.4,2026-02-18 12h38.49.624540 +0100,
tilted.xlsx,The target is tilted.,117,89,1,11,0,1,1,1,1,1,1,1,0,0,0,0,1,7,8,117,space,3.3406057000001965,None,0,1,2.1977009999991424,None,space,2.5631320000002233,None,0,0,0,0,,,,,11,1,89,5,236.77115409999988,,,,,,,,,,,,,,,,,,,,,236.7556627999993,236.77115409999988,237.25469969999995,237.2597614999995,237.27498879999985,239.48747769999954,,,,,239.4876547999993,239.5029614999994,239.68703969999933,239.70285419999982,237.27498879999985,,,,,,,,0,1,2.1977009999991424,None,,,,,,,,867,27,M,R,2026-02-18_12h38.49.410,VisualSearch_2526_3,,2025.2.4,2026-02-18 12h38.49.624540 +0100,
tilted.xlsx,The target is tilted.,117,90,2,11,1,1,1,1,1,1,1,1,1,1,1,1,0,11,12,117,space,3.3406057000001965,None,0,0,2.3090978999998697,None,space,2.5631320000002233,None,0,0,0,0,,,,,11,2,90,0,239.70285419999982,,,,,,,,,,,,,,,,,,,,,239.68774689999918,239.70285419999982,240.18640089999917,240.19094589999986,240.20648889999939,242.51929589999963,,,,,242.51949249999961,242.5351873999998,242.71886879999965,242.73504830000002,240.20648889999939,,,,,,,,0,0,2.3090978999998697,None,,,,,,,,867,27,M,R,2026-02-18_12h38.49.410,VisualSearch_2526_3,,2025.2.4,2026-02-18 12h38.49.624540 +0100,
tilted.xlsx,The target is tilted.,117,91,3,11,0,0,0,0,0,0,0,0,0,0,0,0,1,1,1,117,space,3.3406057000001965,None,0,1,0.5783068999999159,None,space,2.5631320000002233,None,0,0,0,0,,,,,11,3,91,7,242.73504830000002,,,,,,,,,,,,,,,,,,,,,242.71965199999977,242.73504830000002,243.2186232999993,243.2233699999997,243.23752089999925,243.81908049999947,,,,,243.81930829999965,243.8345604999995,244.01839949999976,244.03452059999927,243.23752089999925,,,,,,,,0,1,0.5783068999999159,None,,,,,,,,867,27,M,R,2026-02-18_12h38.49.410,VisualSearch_2526_3,,2025.2.4,2026-02-18 12h38.49.624540 +0100,
tilted.xlsx,The target is tilted.,117,92,4,11,1,1,1,1,0,0,0,0,0,0,0,0,0,3,4,117,space,3.3406057000001965,None,1,1,0.5632204000003185,None,space,2.5631320000002233,None,0,0,0,0,,,,,11,4,92,2,244.03452059999927,,,,,,,,,,,,,,,,,,,,,244.0191077999998,244.03452059999927,244.51805569999942,244.52276279999933,244.53980030000002,245.11821449999934,,,,,245.11837089999972,245.13395779999973,245.31773929999963,245.33369839999978,244.53980030000002,,,,,,,,1,1,0.5632204000003185,None,,,,,,,,867,27,M,R,2026-02-18_12h38.49.410,VisualSearch_2526_3,,2025.2.4,2026-02-18 12h38.49.624540 +0100,
tilted.xlsx,The target is tilted.,117,93,5,11,0,1,1,1,0,0,0,0,0,0,0,0,1,3,4,117,space,3.3406057000001965,None,0,1,0.9105913999992481,None,space,2.5631320000002233,None,0,0,0,0,,,,,11,5,93,6,245.33369839999978,,,,,,,,,,,,,,,,,,,,,245.31845089999933,245.33369839999978,245.81725689999985,245.82177899999988,245.83691509999971,246.75079899999946,,,,,246.75096909999957,246.76644059999944,246.95006159999957,246.96651810000003,245.83691509999971,,,,,,,,0,1,0.9105913999992481,None,,,,,,,,867,27,M,R,2026-02-18_12h38.49.410,VisualSearch_2526_3,,2025.2.4,2026-02-18 12h38.49.624540 +0100,
tilted.xlsx,The target is tilted.,117,94,6,11,0,1,1,1,1,1,1,1,1,1,1,1,1,11,12,117,space,3.3406057000001965,None,0,1,2.943561000000045,None,space,2.5631320000002233,None,0,0,0,0,,,,,11,6,94,4,246.96651810000003,,,,,,,,,,,,,,,,,,,,,246.95077069999934,246.96651810000003,247.45025869999972,247.4548221999994,247.47204559999955,250.4324176,,,,,250.43261979999988,250.44796289999977,250.63207209999928,250.6482045999992,247.47204559999955,,,,,,,,0,1,2.943561000000045,None,,,,,,,,867,27,M,R,2026-02-18_12h38.49.410,VisualSearch_2526_3,,2025.2.4,2026-02-18 12h38.49.624540 +0100,
tilted.xlsx,The target is tilted.,117,95,7,11,1,0,0,0,0,0,0,0,0,0,0,0,0,0,1,117,space,3.3406057000001965,None,1,1,0.42240419999961887,None,space,2.5631320000002233,None,0,0,0,0,,,,,11,7,95,3,250.6482045999992,,,,,,,,,,,,,,,,,,,,,250.6327808999995,250.6482045999992,251.13144079999984,251.13604149999992,251.15271459999985,251.58184569999958,,,,,251.5819791999993,251.59753159999946,251.78156169999966,251.79736319999938,251.15271459999985,,,,,,,,1,1,0.42240419999961887,None,,,,,,,,867,27,M,R,2026-02-18_12h38.49.410,VisualSearch_2526_3,,2025.2.4,2026-02-18 12h38.49.624540 +0100,
tilted.xlsx,The target is tilted.,117,96,0,12,0,1,1,1,1,1,1,1,1,1,1,1,1,11,12,117,space,3.3406057000001965,None,0,1,2.299436700000115,None,space,2.5631320000002233,None,0,0,0,0,,,,,12,0,96,4,251.79736319999938,,,,,,,,,,,,,,,,,,,,,251.78238499999952,251.79736319999938,252.28132219999952,252.2858269999997,252.30245149999973,254.61333209999975,,,,,254.61346539999977,254.62953659999948,254.81316949999928,254.82951999999932,252.30245149999973,,,,,,,,0,1,2.299436700000115,None,,,,,,,,867,27,M,R,2026-02-18_12h38.49.410,VisualSearch_2526_3,,2025.2.4,2026-02-18 12h38.49.624540 +0100,
tilted.xlsx,The target is tilted.,117,97,1,12,0,1,1,1,1,1,1,1,0,0,0,0,1,7,8,117,space,3.3406057000001965,None,0,1,1.9616866999995182,None,space,2.5631320000002233,None,0,0,0,0,,,,,12,1,97,5,254.82951999999932,,,,,,,,,,,,,,,,,,,,,254.81395169999996,254.82951999999932,255.3132745999992,255.31778119999944,255.3340103999999,257.3129973999994,,,,,257.3132175999999,257.3284903999993,257.5122931999995,257.5283583999999,255.3340103999999,,,,,,,,0,1,1.9616866999995182,None,,,,,,,,867,27,M,R,2026-02-18_12h38.49.410,VisualSearch_2526_3,,2025.2.4,2026-02-18 12h38.49.624540 +0100,
tilted.xlsx,The target is tilted.,117,98,2,12,0,0,0,0,0,0,0,0,0,0,0,0,1,1,1,117,space,3.3406057000001965,None,0,1,0.5589406999997664,None,space,2.5631320000002233,None,0,0,0,0,,,,,12,2,98,7,257.5283583999999,,,,,,,,,,,,,,,,,,,,,257.5131087,257.5283583999999,258.0120554999994,258.01655029999984,258.0333609999998,258.59558339999967,,,,,258.5957725999997,258.6112190999993,258.7949635999994,258.8108637999994,258.0333609999998,,,,,,,,0,1,0.5589406999997664,None,,,,,,,,867,27,M,R,2026-02-18_12h38.49.410,VisualSearch_2526_3,,2025.2.4,2026-02-18 12h38.49.624540 +0100,
tilted.xlsx,The target is tilted.,117,99,3,12,0,1,1,1,0,0,0,0,0,0,0,0,1,3,4,117,space,3.3406057000001965,None,0,1,1.1284703000001173,None,space,2.5631320000002233,None,0,0,0,0,,,,,12,3,99,6,258.8108637999994,,,,,,,,,,,,,,,,,,,,,258.79567569999926,258.8108637999994,259.29456049999953,259.29922239999996,259.3155414999992,260.4602666999999,,,,,260.46034149999923,260.4764316999999,260.6604966999994,,259.3155414999992,,,,,,,,0,1,1.1284703000001173,None,,,,,,,,867,27,M,R,2026-02-18_12h38.49.410,VisualSearch_2526_3,,2025.2.4,2026-02-18 12h38.49.624540 +0100,
tilted.xlsx,The target is tilted.,117,100,4,12,1,0,0,0,0,0,0,0,0,0,0,0,0,0,1,117,space,3.3406057000001965,None,1,1,0.39014829999996437,None,space,2.5631320000002233,None,0,0,0,0,,,,,12,4,100,3,260.6768878999992,,,,,,,,,,,,,,,,,,,,,260.6612503999995,260.6768878999992,261.1606475999997,261.1652004999996,261.18247769999925,261.57708319999983,,,,,261.5772395999993,261.5931621999998,261.77707849999933,261.79298129999916,261.18247769999925,,,,,,,,1,1,0.39014829999996437,None,,,,,,,,867,27,M,R,2026-02-18_12h38.49.410,VisualSearch_2526_3,,2025.2.4,2026-02-18 12h38.49.624540 +0100,
tilted.xlsx,The target is tilted.,117,101,5,12,1,1,1,1,1,1,1,1,0,0,0,0,0,7,8,117,space,3.3406057000001965,None,1,1,1.0234901999992871,None,space,2.5631320000002233,None,0,0,0,0,,,,,12,5,101,1,261.79298129999916,,,,,,,,,,,,,,,,,,,,,261.7777860999995,261.79298129999916,262.2767664999992,262.2812629,262.29948759999934,263.3265757999998,,,,,263.3267692999998,263.3424513,263.5258342999996,263.54233789999944,262.29948759999934,,,,,,,,1,1,1.0234901999992871,None,,,,,,,,867,27,M,R,2026-02-18_12h38.49.410,VisualSearch_2526_3,,2025.2.4,2026-02-18 12h38.49.624540 +0100,
tilted.xlsx,The target is tilted.,117,102,6,12,1,1,1,1,0,0,0,0,0,0,0,0,0,3,4,117,space,3.3406057000001965,None,0,0,1.3453349999999773,None,space,2.5631320000002233,None,0,0,0,0,,,,,12,6,102,2,263.54233789999944,,,,,,,,,,,,,,,,,,,,,263.5265611999994,263.54233789999944,264.0260036999998,264.03063719999955,264.0473136999999,265.40920239999923,,,,,265.40939289999915,265.4247491999995,265.6082078999998,265.6246597999998,264.0473136999999,,,,,,,,0,0,1.3453349999999773,None,,,,,,,,867,27,M,R,2026-02-18_12h38.49.410,VisualSearch_2526_3,,2025.2.4,2026-02-18 12h38.49.624540 +0100,
tilted.xlsx,The target is tilted.,117,103,7,12,1,1,1,1,1,1,1,1,1,1,1,1,0,11,12,117,space,3.3406057000001965,None,0,0,1.6542468999996345,None,space,2.5631320000002233,None,0,0,0,0,,,,,12,7,103,0,265.6246597999998,,,,,,,,,,,,,,,,,,,,,265.60893079999914,265.6246597999998,266.1083751999995,266.1128663999998,266.1297631999996,267.79124219999994,,,,,267.79141829999935,267.80691509999997,267.9909620999997,268.00705729999936,266.1297631999996,,,,,,,,0,0,1.6542468999996345,None,,,,,,,,867,27,M,R,2026-02-18_12h38.49.410,VisualSearch_2526_3,,2025.2.4,2026-02-18 12h38.49.624540 +0100,
tilted.xlsx,The target is tilted.,117,104,0,13,1,0,0,0,0,0,0,0,0,0,0,0,0,0,1,117,space,3.3406057000001965,None,1,1,0.42830939999930706,None,space,2.5631320000002233,None,0,0,0,0,,,,,13,0,104,3,268.00705729999936,,,,,,,,,,,,,,,,,,,,,267.9916908999994,268.00705729999936,268.49082889999954,268.4954597999995,268.51121149999926,268.94149319999997,,,,,268.9416640999998,268.95608419999917,269.1404972,269.15614319999986,268.51121149999926,,,,,,,,1,1,0.42830939999930706,None,,,,,,,,867,27,M,R,2026-02-18_12h38.49.410,VisualSearch_2526_3,,2025.2.4,2026-02-18 12h38.49.624540 +0100,
tilted.xlsx,The target is tilted.,117,105,1,13,0,1,1,1,0,0,0,0,0,0,0,0,1,3,4,117,space,3.3406057000001965,None,0,1,0.7403403999996954,None,space,2.5631320000002233,None,0,0,0,0,,,,,13,1,105,6,269.15614319999986,,,,,,,,,,,,,,,,,,,,,269.14120769999954,269.15614319999986,269.6401514999998,269.64468619999934,269.6618805999997,270.4066721999998,,,,,270.4068625,270.42225619999954,270.60631829999966,270.6225042999995,269.6618805999997,,,,,,,,0,1,0.7403403999996954,None,,,,,,,,867,27,M,R,2026-02-18_12h38.49.410,VisualSearch_2526_3,,2025.2.4,2026-02-18 12h38.49.624540 +0100,
tilted.xlsx,The target is tilted.,117,106,2,13,0,0,0,0,0,0,0,0,0,0,0,0,1,1,1,117,space,3.3406057000001965,None,0,1,0.5518961999996463,None,space,2.5631320000002233,None,0,0,0,0,,,,,13,2,106,7,270.6225042999995,,,,,,,,,,,,,,,,,,,,,270.60703099999955,270.6225042999995,271.10578109999915,271.1103915999993,271.1276917999994,271.68957219999993,,,,,271.6897165999999,271.7051451999996,271.88909929999954,271.9052062999999,271.1276917999994,,,,,,,,0,1,0.5518961999996463,None,,,,,,,,867,27,M,R,2026-02-18_12h38.49.410,VisualSearch_2526_3,,2025.2.4,2026-02-18 12h38.49.624540 +0100,
tilted.xlsx,The target is tilted.,117,107,3,13,1,1,1,1,1,1,1,1,1,1,1,1,0,11,12,117,space,3.3406057000001965,None,0,0,1.5871761999997034,None,space,2.5631320000002233,None,0,0,0,0,,,,,13,3,107,0,271.9052062999999,,,,,,,,,,,,,,,,,,,,,271.88992119999966,271.9052062999999,272.3883986999999,272.39298829999916,272.41078239999933,274.00492940000004,,,,,274.0051186999999,274.0208576999994,274.20409989999916,274.2205036999994,272.41078239999933,,,,,,,,0,0,1.5871761999997034,None,,,,,,,,867,27,M,R,2026-02-18_12h38.49.410,VisualSearch_2526_3,,2025.2.4,2026-02-18 12h38.49.624540 +0100,
tilted.xlsx,The target is tilted.,117,108,4,13,0,1,1,1,1,1,1,1,1,1,1,1,1,11,12,117,space,3.3406057000001965,None,0,1,1.2958112000005713,None,space,2.5631320000002233,None,0,0,0,0,,,,,13,4,108,4,274.2205036999994,,,,,,,,,,,,,,,,,,,,,274.2048212999998,274.2205036999994,274.7044010999998,274.7090384999992,274.7264433,276.0372574999992,,,,,276.03738039999917,276.05293209999945,276.2367156999999,276.25318359999983,274.7264433,,,,,,,,0,1,1.2958112000005713,None,,,,,,,,867,27,M,R,2026-02-18_12h38.49.410,VisualSearch_2526_3,,2025.2.4,2026-02-18 12h38.49.624540 +0100,
tilted.xlsx,The target is tilted.,117,109,5,13,1,1,1,1,1,1,1,1,0,0,0,0,0,7,8,117,space,3.3406057000001965,None,0,0,1.2120414000000892,None,space,2.5631320000002233,None,0,0,0,0,,,,,13,5,109,1,276.25318359999983,,,,,,,,,,,,,,,,,,,,,276.23746909999954,276.25318359999983,276.7364568999992,276.74091729999964,276.75897389999955,277.9863951999996,,,,,277.9865377999995,278.0024027999998,278.18574159999935,278.20178469999973,276.75897389999955,,,,,,,,0,0,1.2120414000000892,None,,,,,,,,867,27,M,R,2026-02-18_12h38.49.410,VisualSearch_2526_3,,2025.2.4,2026-02-18 12h38.49.624540 +0100,
tilted.xlsx,The target is tilted.,117,110,6,13,1,1,1,1,0,0,0,0,0,0,0,0,0,3,4,117,space,3.3406057000001965,None,1,1,0.5964418000003207,None,space,2.5631320000002233,None,0,0,0,0,,,,,13,6,110,2,278.20178469999973,,,,,,,,,,,,,,,,,,,,,278.18641319999915,278.20178469999973,278.6861365999994,278.6912231999995,278.7088299999996,279.31884459999947,,,,,279.3189229999998,279.33492769999975,279.5191955,279.53506169999946,278.7088299999996,,,,,,,,1,1,0.5964418000003207,None,,,,,,,,867,27,M,R,2026-02-18_12h38.49.410,VisualSearch_2526_3,,2025.2.4,2026-02-18 12h38.49.624540 +0100,
tilted.xlsx,The target is tilted.,117,111,7,13,0,1,1,1,1,1,1,1,0,0,0,0,1,7,8,117,space,3.3406057000001965,None,0,1,1.1805503000005046,None,space,2.5631320000002233,None,0,0,0,0,,,,,13,7,111,5,279.53506169999946,,,,,,,,,,,,,,,,,,,,,279.5200095,279.53506169999946,280.01895089999925,280.02391909999915,280.0402394999992,281.2351443999996,,,,,281.23531599999933,281.25055859999975,281.4347009999992,281.4505984999996,280.0402394999992,,,,,,,,0,1,1.1805503000005046,None,,,,,,,,867,27,M,R,2026-02-18_12h38.49.410,VisualSearch_2526_3,,2025.2.4,2026-02-18 12h38.49.624540 +0100,
tilted.xlsx,The target is tilted.,117,112,0,14,0,0,0,0,0,0,0,0,0,0,0,0,1,1,1,117,space,3.3406057000001965,None,0,1,0.6085733999998411,None,space,2.5631320000002233,None,0,0,0,0,,,,,14,0,112,7,281.4505984999996,,,,,,,,,,,,,,,,,,,,,281.4354125,281.4505984999996,281.9346379999997,281.94007039999997,281.9550584999997,282.5678146,,,,,282.5680049999992,282.58363999999983,282.7675067,282.7835574999999,281.9550584999997,,,,,,,,0,1,0.6085733999998411,None,,,,,,,,867,27,M,R,2026-02-18_12h38.49.410,VisualSearch_2526_3,,2025.2.4,2026-02-18 12h38.49.624540 +0100,
tilted.xlsx,The target is tilted.,117,113,1,14,1,0,0,0,0,0,0,0,0,0,0,0,0,0,1,117,space,3.3406057000001965,None,1,1,0.5199877999993987,None,space,2.5631320000002233,None,0,0,0,0,,,,,14,1,113,3,282.7835574999999,,,,,,,,,,,,,,,,,,,,,282.76820599999974,282.7835574999999,283.2670971999996,283.2716338,283.28955699999915,283.81732399999964,,,,,283.81749689999924,283.8327991999995,284.0167443999999,284.0327564999998,283.28955699999915,,,,,,,,1,1,0.5199877999993987,None,,,,,,,,867,27,M,R,2026-02-18_12h38.49.410,VisualSearch_2526_3,,2025.2.4,2026-02-18 12h38.49.624540 +0100,
tilted.xlsx,The target is tilted.,117,114,2,14,1,1,1,1,1,1,1,1,0,0,0,0,0,7,8,117,space,3.3406057000001965,None,0,0,1.3241165999997975,None,space,2.5631320000002233,None,0,0,0,0,,,,,14,2,114,1,284.0327564999998,,,,,,,,,,,,,,,,,,,,,284.01751989999957,284.0327564999998,284.51671479999914,284.5213320999992,284.5377211999994,285.8663153999996,,,,,285.8665048999992,285.8821646999995,286.0654975999996,286.0822457999993,284.5377211999994,,,,,,,,0,0,1.3241165999997975,None,,,,,,,,867,27,M,R,2026-02-18_12h38.49.410,VisualSearch_2526_3,,2025.2.4,2026-02-18 12h38.49.624540 +0100,
tilted.xlsx,The target is tilted.,117,115,3,14,0,1,1,1,1,1,1,1,1,1,1,1,1,11,12,117,space,3.3406057000001965,None,0,1,1.427463500000158,None,space,2.5631320000002233,None,0,0,0,0,,,,,14,3,115,4,286.0822457999993,,,,,,,,,,,,,,,,,,,,,286.06624889999966,286.0822457999993,286.56559859999925,286.5701890999999,286.5881781999997,288.03240489999916,,,,,288.0326163999998,288.0477033999996,288.23157979999996,288.2477580999994,286.5881781999997,,,,,,,,0,1,1.427463500000158,None,,,,,,,,867,27,M,R,2026-02-18_12h38.49.410,VisualSearch_2526_3,,2025.2.4,2026-02-18 12h38.49.624540 +0100,
tilted.xlsx,The target is tilted.,117,116,4,14,0,1,1,1,0,0,0,0,0,0,0,0,1,3,4,117,space,3.3406057000001965,None,0,1,0.6951219000002311,None,space,2.5631320000002233,None,0,0,0,0,,,,,14,4,116,6,288.2477580999994,,,,,,,,,,,,,,,,,,,,,288.2324116,288.2477580999994,288.73099189999994,288.7356203999998,288.74730120000004,289.4481674999997,,,,,289.4483402999995,289.4638479999994,289.6474845999992,289.66377269999975,288.74730120000004,,,,,,,,0,1,0.6951219000002311,None,,,,,,,,867,27,M,R,2026-02-18_12h38.49.410,VisualSearch_2526_3,,2025.2.4,2026-02-18 12h38.49.624540 +0100,
tilted.xlsx,The target is tilted.,117,117,5,14,1,1,1,1,0,0,0,0,0,0,0,0,0,3,4,117,space,3.3406057000001965,None,1,1,0.7511097000005975,None,space,2.5631320000002233,None,0,0,0,0,,,,,14,5,117,2,289.66377269999975,,,,,,,,,,,,,,,,,,,,,289.6482103999997,289.66377269999975,290.14749439999923,290.1520394999998,290.1689130999994,290.9309908999994,,,,,290.9311779999998,290.9465090999993,291.1302362999995,291.1465822,290.1689130999994,,,,,,,,1,1,0.7511097000005975,None,,,,,,,,867,27,M,R,2026-02-18_12h38.49.410,VisualSearch_2526_3,,2025.2.4,2026-02-18 12h38.49.624540 +0100,
tilted.xlsx,The target is tilted.,117,118,6,14,1,1,1,1,1,1,1,1,1,1,1,1,0,11,12,117,space,3.3406057000001965,None,1,1,1.9085869999998977,None,space,2.5631320000002233,None,0,0,0,0,,,,,14,6,118,0,291.1465822,,,,,,,,,,,,,,,,,,,,,291.13101129999995,291.1465822,291.6299259999996,291.63446419999946,291.6518538,293.5629296999996,,,,,293.5630857999995,293.5786356999997,293.76237969999966,293.7786196999996,291.6518538,,,,,,,,1,1,1.9085869999998977,None,,,,,,,,867,27,M,R,2026-02-18_12h38.49.410,VisualSearch_2526_3,,2025.2.4,2026-02-18 12h38.49.624540 +0100,
tilted.xlsx,The target is tilted.,117,119,7,14,0,1,1,1,1,1,1,1,0,0,0,0,1,7,8,117,space,3.3406057000001965,None,0,1,1.8684542000000874,None,space,2.5631320000002233,None,0,0,0,0,,,,,14,7,119,5,293.7786196999996,,,,,,,,,,,,,,,,,,,,,293.7631275999993,293.7786196999996,294.2622572,294.26738789999945,294.27819459999955,296.1615847999992,,,,,296.1617282999996,296.17673769999965,296.36085359999925,296.3783432,294.27819459999955,,,,,,,,0,1,1.8684542000000874,None,,,,,,,,867,27,M,R,2026-02-18_12h38.49.410,VisualSearch_2526_3,,2025.2.4,2026-02-18 12h38.49.624540 +0100,
tilted.xlsx,The target is tilted.,117,0,0,0,,,,,,,,,,,,,,,,,space,3.3406057000001965,None,,,,,space,2.5631320000002233,None,0,0,0,0,,,,,,,,,,,,,,,,,,,,,,,,,,,,,,,,,,,,,,,,,,,,,,,,,,,,,,,,,,,,,,,867,27,M,R,2026-02-18_12h38.49.410,VisualSearch_2526_3,,2025.2.4,2026-02-18 12h38.49.624540 +0100,
vertical.xlsx,The target is tilted.,135,0,0,0,1,1,1,1,0,0,0,0,0,0,0,0,0,3,4,135,space,2.945548000000599,None,1,1,0.9292312999996284,None,,,,0,1,1,1,0,0,0,2,,,,,299.353016,,,,,,,,,,,,,,,296.3783432,296.3783432,296.3783432,space,2.945548000000599,None,299.3487892999992,299.353016,299.84279459999925,299.8474899999992,299.8634044999999,300.8098113999995,1,1,0.9292312999996284,None,300.8099979999997,300.8252757999999,301.0089079999998,301.02502259999983,,,,,,,,,,,,,,,,,,,,867,27,M,R,2026-02-18_12h38.49.410,VisualSearch_2526_3,,2025.2.4,2026-02-18 12h38.49.624540 +0100,
vertical.xlsx,The target is tilted.,135,1,1,0,1,0,0,0,0,0,0,0,0,0,0,0,0,0,1,135,space,2.945548000000599,None,1,1,0.5513626999991175,None,,,,0,1,1,1,0,1,1,3,,,,,301.02502259999983,,,,,,,,,,,,,,,,,,,,,301.0095683999998,301.02502259999983,301.5089324999999,301.5134245999998,301.5269424999997,302.0927108999995,1,1,0.5513626999991175,None,302.0929125999992,302.1080984,302.29225999999926,302.3080029999992,301.5269424999997,,,,,,,,,,,,,,,,,,,867,27,M,R,2026-02-18_12h38.49.410,VisualSearch_2526_3,,2025.2.4,2026-02-18 12h38.49.624540 +0100,
vertical.xlsx,The target is tilted.,135,2,2,0,0,0,0,0,0,0,0,0,0,0,0,0,1,1,1,135,space,2.945548000000599,None,0,1,0.5417031999995743,None,,,,0,1,1,1,0,2,2,7,,,,,302.3080029999992,,,,,,,,,,,,,,,,,,,,,302.29299439999977,302.3080029999992,302.7917951999998,302.7965618999997,302.81355319999966,303.35822729999927,0,1,0.5417031999995743,None,303.3584084999993,303.3740627999996,303.55809489999956,303.5741122999998,302.81355319999966,,,,,,,,,,,,,,,,,,,867,27,M,R,2026-02-18_12h38.49.410,VisualSearch_2526_3,,2025.2.4,2026-02-18 12h38.49.624540 +0100,
vertical.xlsx,The target is tilted.,135,3,3,0,1,1,1,1,1,1,1,1,1,1,1,1,0,11,12,135,space,2.945548000000599,None,1,1,1.10318929999994,None,,,,0,1,1,1,0,3,3,0,,,,,303.5741122999998,,,,,,,,,,,,,,,,,,,,,303.5587495,303.5741122999998,304.0577267999997,304.0622749999993,304.0783666999996,305.19124049999937,1,1,1.10318929999994,None,305.1914279999992,305.20627009999953,305.3903709999995,305.40636209999957,304.0783666999996,,,,,,,,,,,,,,,,,,,867,27,M,R,2026-02-18_12h38.49.410,VisualSearch_2526_3,,2025.2.4,2026-02-18 12h38.49.624540 +0100,
vertical.xlsx,The target is tilted.,135,4,4,0,0,1,1,1,1,1,1,1,0,0,0,0,1,7,8,135,space,2.945548000000599,None,0,1,0.45455069999934494,None,,,,0,1,1,1,0,4,4,5,,,,,305.40636209999957,,,,,,,,,,,,,,,,,,,,,305.3910546999996,305.40636209999957,305.89043799999945,305.89493219999986,305.9128504999999,306.37390499999947,0,1,0.45455069999934494,None,306.3740878999997,306.38939559999926,306.5728857999993,306.5895518999996,305.9128504999999,,,,,,,,,,,,,,,,,,,867,27,M,R,2026-02-18_12h38.49.410,VisualSearch_2526_3,,2025.2.4,2026-02-18 12h38.49.624540 +0100,
vertical.xlsx,The target is tilted.,135,5,5,0,0,1,1,1,1,1,1,1,1,1,1,1,1,11,12,135,space,2.945548000000599,None,1,0,0.8402474000004077,None,,,,0,1,1,1,0,5,5,4,,,,,306.5895518999996,,,,,,,,,,,,,,,,,,,,,306.5735844999999,306.5895518999996,307.0729361999993,307.0775225999996,307.09367329999986,307.93952099999933,1,0,0.8402474000004077,None,307.9396844999992,307.95510339999964,308.1389303999995,308.1554555999992,307.09367329999986,,,,,,,,,,,,,,,,,,,867,27,M,R,2026-02-18_12h38.49.410,VisualSearch_2526_3,,2025.2.4,2026-02-18 12h38.49.624540 +0100,
vertical.xlsx,The target is tilted.,135,6,6,0,1,1,1,1,1,1,1,1,0,0,0,0,0,7,8,135,space,2.945548000000599,None,0,0,0.2988832999999431,None,,,,0,1,1,1,0,6,6,1,,,,,308.1554555999992,,,,,,,,,,,,,,,,,,,,,308.1396200999998,308.1554555999992,308.63879559999987,308.6433561999993,308.6596749,308.97280109999974,0,0,0.2988832999999431,None,308.9729830999995,308.9883108999993,309.17235879999953,309.18821969999954,308.6596749,,,,,,,,,,,,,,,,,,,867,27,M,R,2026-02-18_12h38.49.410,VisualSearch_2526_3,,2025.2.4,2026-02-18 12h38.49.624540 +0100,
vertical.xlsx,The target is tilted.,135,7,7,0,0,1,1,1,0,0,0,0,0,0,0,0,1,3,4,135,space,2.945548000000599,None,1,0,0.21902380000028643,None,,,,0,1,1,1,0,7,7,6,,,,,309.18821969999954,,,,,,,,,,,,,,,,,,,,,309.17308499999945,309.18821969999954,309.6720241999992,309.67656259999967,309.6942558999999,309.9225145999999,1,0,0.21902380000028643,None,309.9227101999995,309.93796049999946,310.1215714,310.13797369999975,309.6942558999999,,,,,,,,,,,,,,,,,,,867,27,M,R,2026-02-18_12h38.49.410,VisualSearch_2526_3,,2025.2.4,2026-02-18 12h38.49.624540 +0100,
vertical.xlsx,The target is tilted.,135,0,0,0,1,0,0,0,0,0,0,0,0,0,0,0,0,0,1,135,space,2.945548000000599,None,1,1,0.6260094999997818,None,space,0.8679842000001372,None,0,1,1,1,,,,,0,0,0,3,311.05094539999936,,,,,,,,,,,,,,,,,,,,,311.0470805999994,311.05094539999936,311.53755739999997,311.54220879999957,311.55914289999964,312.1866866999999,,,,,312.1867708,312.2027926999999,312.3866546999998,312.40285609999955,,310.12830399999984,310.13797369999975,310.13797369999975,311.02172579999933,space,0.8679842000001372,None,1,1,0.6260094999997818,None,,,,,,,,867,27,M,R,2026-02-18_12h38.49.410,VisualSearch_2526_3,,2025.2.4,2026-02-18 12h38.49.624540 +0100,
vertical.xlsx,The target is tilted.,135,1,1,0,0,0,0,0,0,0,0,0,0,0,0,0,1,1,1,135,space,2.945548000000599,None,0,1,0.455052400000568,None,space,0.8679842000001372,None,0,1,1,1,,,,,0,1,1,7,312.40285609999955,,,,,,,,,,,,,,,,,,,,,312.3870883999998,312.40285609999955,312.8869189999996,312.8915333999994,312.9088855,313.3708778,,,,,313.37110119999943,313.38619129999915,313.56989499999963,313.5862737999996,,,,,,,,,0,1,0.455052400000568,None,,,,,,,,867,27,M,R,2026-02-18_12h38.49.410,VisualSearch_2526_3,,2025.2.4,2026-02-18 12h38.49.624540 +0100,
vertical.xlsx,The target is tilted.,135,2,2,0,0,1,1,1,0,0,0,0,0,0,0,0,1,3,4,135,space,2.945548000000599,None,0,1,0.8702306999994107,None,space,0.8679842000001372,None,0,1,1,1,,,,,0,2,2,6,313.5862737999996,,,,,,,,,,,,,,,,,,,,,313.5706591999997,313.5862737999996,314.0700702999993,314.07459129999916,314.0916852999999,314.9701686999997,,,,,314.9703892999996,314.9856043,315.16930579999917,315.18557729999975,314.0916852999999,,,,,,,,0,1,0.8702306999994107,None,,,,,,,,867,27,M,R,2026-02-18_12h38.49.410,VisualSearch_2526_3,,2025.2.4,2026-02-18 12h38.49.624540 +0100,
vertical.xlsx,The target is tilted.,135,3,3,0,1,1,1,1,1,1,1,1,0,0,0,0,0,7,8,135,space,2.945548000000599,None,0,0,0.9182465000003504,None,space,0.8679842000001372,None,0,1,1,1,,,,,0,3,3,1,315.18557729999975,,,,,,,,,,,,,,,,,,,,,315.1700439999995,315.18557729999975,315.6691618999994,315.6737252999992,315.69128479999927,316.61927130000004,,,,,316.6194461999994,316.6348494999993,316.8187251999998,316.8347998999998,315.69128479999927,,,,,,,,0,0,0.9182465000003504,None,,,,,,,,867,27,M,R,2026-02-18_12h38.49.410,VisualSearch_2526_3,,2025.2.4,2026-02-18 12h38.49.624540 +0100,
vertical.xlsx,The target is tilted.,135,4,4,0,1,1,1,1,1,1,1,1,1,1,1,1,0,11,12,135,space,2.945548000000599,None,1,1,0.4621554000004835,None,space,0.8679842000001372,None,0,1,1,1,,,,,0,4,4,0,316.8347998999998,,,,,,,,,,,,,,,,,,,,,316.81945839999935,316.8347998999998,317.3185279999998,317.32335499999954,317.3405591999999,317.81887319999987,,,,,317.8190939999995,317.83402659999956,318.0180154999998,318.0343557999995,317.3405591999999,,,,,,,,1,1,0.4621554000004835,None,,,,,,,,867,27,M,R,2026-02-18_12h38.49.410,VisualSearch_2526_3,,2025.2.4,2026-02-18 12h38.49.624540 +0100,
vertical.xlsx,The target is tilted.,135,5,5,0,0,1,1,1,1,1,1,1,0,0,0,0,1,7,8,135,space,2.945548000000599,None,0,1,0.9207532000000356,None,space,0.8679842000001372,None,0,1,1,1,,,,,0,5,5,5,318.0343557999995,,,,,,,,,,,,,,,,,,,,,318.01875759999984,318.0343557999995,318.5179683999995,318.5225013999998,318.53898279999976,319.46810619999997,,,,,319.4683077999998,319.4835009999997,319.66732030000003,319.68334459999915,318.53898279999976,,,,,,,,0,1,0.9207532000000356,None,,,,,,,,867,27,M,R,2026-02-18_12h38.49.410,VisualSearch_2526_3,,2025.2.4,2026-02-18 12h38.49.624540 +0100,
vertical.xlsx,The target is tilted.,135,6,6,0,1,1,1,1,0,0,0,0,0,0,0,0,0,3,4,135,space,2.945548000000599,None,1,1,0.6210378999994646,None,space,0.8679842000001372,None,0,1,1,1,,,,,0,6,6,2,319.68334459999915,,,,,,,,,,,,,,,,,,,,,319.6680612,319.68334459999915,320.1671282999996,320.1716182,320.18625559999964,320.81738269999914,,,,,320.81755839999914,320.8329767999994,321.01672059999964,321.0326071999998,320.18625559999964,,,,,,,,1,1,0.6210378999994646,None,,,,,,,,867,27,M,R,2026-02-18_12h38.49.410,VisualSearch_2526_3,,2025.2.4,2026-02-18 12h38.49.624540 +0100,
vertical.xlsx,The target is tilted.,135,7,7,0,0,1,1,1,1,1,1,1,1,1,1,1,1,11,12,135,space,2.945548000000599,None,0,1,1.4730509999999413,None,space,0.8679842000001372,None,0,1,1,1,,,,,0,7,7,4,321.0326071999998,,,,,,,,,,,,,,,,,,,,,321.0174529999995,321.0326071999998,321.516654,321.5212695,321.5321525999998,323.01642399999946,,,,,323.01662020000003,323.0319706,323.21571829999993,323.23199829999976,321.5321525999998,,,,,,,,0,1,1.4730509999999413,None,,,,,,,,867,27,M,R,2026-02-18_12h38.49.410,VisualSearch_2526_3,,2025.2.4,2026-02-18 12h38.49.624540 +0100,
vertical.xlsx,The target is tilted.,135,8,0,1,0,1,1,1,1,1,1,1,1,1,1,1,1,11,12,135,space,2.945548000000599,None,0,1,1.098687799999425,None,space,0.8679842000001372,None,0,1,1,1,,,,,1,0,8,4,323.23199829999976,,,,,,,,,,,,,,,,,,,,,323.2164716999996,323.23199829999976,323.71563369999967,323.7201955999999,323.73535849999917,324.8481955999996,,,,,324.8482749999994,324.86417449999954,325.0478495999996,325.0643993999993,323.73535849999917,,,,,,,,0,1,1.098687799999425,None,,,,,,,,867,27,M,R,2026-02-18_12h38.49.410,VisualSearch_2526_3,,2025.2.4,2026-02-18 12h38.49.624540 +0100,
vertical.xlsx,The target is tilted.,135,9,1,1,0,0,0,0,0,0,0,0,0,0,0,0,1,1,1,135,space,2.945548000000599,None,0,1,0.5133206999998947,None,space,0.8679842000001372,None,0,1,1,1,,,,,1,1,9,7,325.0643993999993,,,,,,,,,,,,,,,,,,,,,325.04857829999946,325.0643993999993,325.54811569999947,325.55261019999944,325.56350529999963,326.0813214,,,,,326.08150899999964,326.09684429999925,326.2810854999998,326.2971134999998,325.56350529999963,,,,,,,,0,1,0.5133206999998947,None,,,,,,,,867,27,M,R,2026-02-18_12h38.49.410,VisualSearch_2526_3,,2025.2.4,2026-02-18 12h38.49.624540 +0100,
vertical.xlsx,The target is tilted.,135,10,2,1,0,1,1,1,1,1,1,1,0,0,0,0,1,7,8,135,space,2.945548000000599,None,0,1,1.3433852000007391,None,space,0.8679842000001372,None,0,1,1,1,,,,,1,2,10,5,326.2971134999998,,,,,,,,,,,,,,,,,,,,,326.2817968999998,326.2971134999998,326.7809131999993,326.7854929999994,326.8019998999998,328.1474540999998,,,,,328.1481737999993,328.16294239999934,328.34686689999944,328.3624470999994,326.8019998999998,,,,,,,,0,1,1.3433852000007391,None,,,,,,,,867,27,M,R,2026-02-18_12h38.49.410,VisualSearch_2526_3,,2025.2.4,2026-02-18 12h38.49.624540 +0100,
vertical.xlsx,The target is tilted.,135,11,3,1,0,1,1,1,0,0,0,0,0,0,0,0,1,3,4,135,space,2.945548000000599,None,0,1,0.8915819000003466,None,space,0.8679842000001372,None,0,1,1,1,,,,,1,3,11,6,328.3624470999994,,,,,,,,,,,,,,,,,,,,,328.34768299999996,328.3624470999994,328.8466080999997,328.8512039999996,328.8690657999996,329.7640062999999,,,,,329.76419239999996,329.7788015999995,329.9624068999992,329.9786669999994,328.8690657999996,,,,,,,,0,1,0.8915819000003466,None,,,,,,,,867,27,M,R,2026-02-18_12h38.49.410,VisualSearch_2526_3,,2025.2.4,2026-02-18 12h38.49.624540 +0100,
vertical.xlsx,The target is tilted.,135,12,4,1,1,1,1,1,0,0,0,0,0,0,0,0,0,3,4,135,space,2.945548000000599,None,1,1,0.6841354999996838,None,space,0.8679842000001372,None,0,1,1,1,,,,,1,4,12,2,329.9786669999994,,,,,,,,,,,,,,,,,,,,,329.96319389999917,329.9786669999994,330.46231569999964,330.4669320999992,330.48342839999987,331.1793982999998,,,,,331.1795852999994,331.1947603999997,331.3778635999997,331.39468829999987,330.48342839999987,,,,,,,,1,1,0.6841354999996838,None,,,,,,,,867,27,M,R,2026-02-18_12h38.49.410,VisualSearch_2526_3,,2025.2.4,2026-02-18 12h38.49.624540 +0100,
vertical.xlsx,The target is tilted.,135,13,5,1,1,1,1,1,1,1,1,1,0,0,0,0,0,7,8,135,space,2.945548000000599,None,1,1,0.6739999999999782,None,space,0.8679842000001372,None,0,1,1,1,,,,,1,5,13,1,331.39468829999987,,,,,,,,,,,,,,,,,,,,,331.3783092999993,331.39468829999987,331.87872399999924,331.8835626,331.90120019999995,332.5785072999997,,,,,332.5786935999995,332.5942852999997,332.7778045999994,332.7941962999994,331.90120019999995,,,,,,,,1,1,0.6739999999999782,None,,,,,,,,867,27,M,R,2026-02-18_12h38.49.410,VisualSearch_2526_3,,2025.2.4,2026-02-18 12h38.49.624540 +0100,
vertical.xlsx,The target is tilted.,135,14,6,1,1,0,0,0,0,0,0,0,0,0,0,0,0,0,1,135,space,2.945548000000599,None,1,1,0.4618163999994067,None,space,0.8679842000001372,None,0,1,1,1,,,,,1,6,14,3,332.7941962999994,,,,,,,,,,,,,,,,,,,,,332.7785114999997,332.7941962999994,333.2779215999999,333.28239979999944,333.2990680999992,333.7773029,,,,,333.77740489999996,333.79339509999954,333.9774990999995,333.99356850000004,333.2990680999992,,,,,,,,1,1,0.4618163999994067,None,,,,,,,,867,27,M,R,2026-02-18_12h38.49.410,VisualSearch_2526_3,,2025.2.4,2026-02-18 12h38.49.624540 +0100,
vertical.xlsx,The target is tilted.,135,15,7,1,1,1,1,1,1,1,1,1,1,1,1,1,0,11,12,135,space,2.945548000000599,None,1,1,0.8948202000001402,None,space,0.8679842000001372,None,0,1,1,1,,,,,1,7,15,0,333.99356850000004,,,,,,,,,,,,,,,,,,,,,333.97824129999935,333.99356850000004,334.47692109999934,334.48148369999944,334.4987261999995,335.4097219999994,,,,,335.4098004999996,335.42574889999923,335.6100262,335.6263027999994,334.4987261999995,,,,,,,,1,1,0.8948202000001402,None,,,,,,,,867,27,M,R,2026-02-18_12h38.49.410,VisualSearch_2526_3,,2025.2.4,2026-02-18 12h38.49.624540 +0100,
vertical.xlsx,The target is tilted.,135,16,0,2,1,0,0,0,0,0,0,0,0,0,0,0,0,0,1,135,space,2.945548000000599,None,1,1,0.45181789999969624,None,space,0.8679842000001372,None,0,1,1,1,,,,,2,0,16,3,335.6263027999994,,,,,,,,,,,,,,,,,,,,,335.6107618999995,335.6263027999994,336.10995289999937,336.1145643,336.13181299999997,336.5928836999992,,,,,336.59303979999913,336.6089112999998,336.79311489999964,336.8091996999992,336.13181299999997,,,,,,,,1,1,0.45181789999969624,None,,,,,,,,867,27,M,R,2026-02-18_12h38.49.410,VisualSearch_2526_3,,2025.2.4,2026-02-18 12h38.49.624540 +0100,
vertical.xlsx,The target is tilted.,135,17,1,2,0,1,1,1,1,1,1,1,0,0,0,0,1,7,8,135,space,2.945548000000599,None,0,1,1.1642310000006546,None,space,0.8679842000001372,None,0,1,1,1,,,,,2,1,17,5,336.8091996999992,,,,,,,,,,,,,,,,,,,,,336.7938402,336.8091996999992,337.29238149999946,337.2969616999999,337.3087237999998,338.4762415999994,,,,,338.47647549999965,338.4915240999999,338.67543919999935,338.6915902999999,337.3087237999998,,,,,,,,0,1,1.1642310000006546,None,,,,,,,,867,27,M,R,2026-02-18_12h38.49.410,VisualSearch_2526_3,,2025.2.4,2026-02-18 12h38.49.624540 +0100,
vertical.xlsx,The target is tilted.,135,18,2,2,1,1,1,1,1,1,1,1,0,0,0,0,0,7,8,135,space,2.945548000000599,None,0,0,1.1566290999999183,None,space,0.8679842000001372,None,0,1,1,1,,,,,2,2,18,1,338.6915902999999,,,,,,,,,,,,,,,,,,,,,338.6761446999999,338.6915902999999,339.1751996999992,339.1798074999997,339.1912642999996,340.35816799999975,,,,,340.3583558999999,340.3740977999996,340.55795359999956,340.5740133999998,339.1912642999996,,,,,,,,0,0,1.1566290999999183,None,,,,,,,,867,27,M,R,2026-02-18_12h38.49.410,VisualSearch_2526_3,,2025.2.4,2026-02-18 12h38.49.624540 +0100,
vertical.xlsx,The target is tilted.,135,19,3,2,0,1,1,1,0,0,0,0,0,0,0,0,1,3,4,135,space,2.945548000000599,None,0,1,0.6287657000002582,None,space,0.8679842000001372,None,0,1,1,1,,,,,2,3,19,6,340.5740133999998,,,,,,,,,,,,,,,,,,,,,340.5587747999998,340.5740133999998,341.0576569999994,341.06217989999914,341.0797743999992,341.72422069999993,,,,,341.7244142999998,341.7400153999997,341.92379549999987,341.9401111999996,341.0797743999992,,,,,,,,0,1,0.6287657000002582,None,,,,,,,,867,27,M,R,2026-02-18_12h38.49.410,VisualSearch_2526_3,,2025.2.4,2026-02-18 12h38.49.624540 +0100,
vertical.xlsx,The target is tilted.,135,20,4,2,0,1,1,1,1,1,1,1,1,1,1,1,1,11,12,135,space,2.945548000000599,None,0,1,1.5608756999999969,None,space,0.8679842000001372,None,0,1,1,1,,,,,2,4,20,4,341.9401111999996,,,,,,,,,,,,,,,,,,,,,341.92457039999954,341.9401111999996,342.4237153999993,342.4283190999995,342.44606289999956,344.02340549999917,,,,,344.02358209999966,344.0391323999993,344.2224718999996,344.23907959999997,342.44606289999956,,,,,,,,0,1,1.5608756999999969,None,,,,,,,,867,27,M,R,2026-02-18_12h38.49.410,VisualSearch_2526_3,,2025.2.4,2026-02-18 12h38.49.624540 +0100,
vertical.xlsx,The target is tilted.,135,21,5,2,0,0,0,0,0,0,0,0,0,0,0,0,1,1,1,135,space,2.945548000000599,None,0,1,0.4855434000000969,None,space,0.8679842000001372,None,0,1,1,1,,,,,2,5,21,7,344.23907959999997,,,,,,,,,,,,,,,,,,,,,344.2232219999996,344.23907959999997,344.72253809999984,344.72721569999976,344.7441162999994,345.23910849999993,,,,,345.2392190999999,345.25474829999985,345.4390808999997,345.4551791999993,344.7441162999994,,,,,,,,0,1,0.4855434000000969,None,,,,,,,,867,27,M,R,2026-02-18_12h38.49.410,VisualSearch_2526_3,,2025.2.4,2026-02-18 12h38.49.624540 +0100,
vertical.xlsx,The target is tilted.,135,22,6,2,1,1,1,1,0,0,0,0,0,0,0,0,0,3,4,135,space,2.945548000000599,None,1,1,0.4045869000001403,None,space,0.8679842000001372,None,0,1,1,1,,,,,2,6,22,2,345.4551791999993,,,,,,,,,,,,,,,,,,,,,345.4398111999999,345.4551791999993,345.93887039999936,345.9433762999997,345.9607240999994,346.3715453999994,,,,,346.37163189999956,346.3878201999996,346.5719369999997,346.5880144999992,345.9607240999994,,,,,,,,1,1,0.4045869000001403,None,,,,,,,,867,27,M,R,2026-02-18_12h38.49.410,VisualSearch_2526_3,,2025.2.4,2026-02-18 12h38.49.624540 +0100,
vertical.xlsx,The target is tilted.,135,23,7,2,1,1,1,1,1,1,1,1,1,1,1,1,0,11,12,135,space,2.945548000000599,None,1,1,1.3377105999998093,None,space,0.8679842000001372,None,0,1,1,1,,,,,2,7,23,0,346.5880144999992,,,,,,,,,,,,,,,,,,,,,346.5727145999999,346.5880144999992,347.07134719999976,347.07585909999943,347.09345699999994,348.4382229999992,,,,,348.43840889999956,348.45362979999936,348.6376301999999,348.6536282999996,347.09345699999994,,,,,,,,1,1,1.3377105999998093,None,,,,,,,,867,27,M,R,2026-02-18_12h38.49.410,VisualSearch_2526_3,,2025.2.4,2026-02-18 12h38.49.624540 +0100,
vertical.xlsx,The target is tilted.,135,24,0,3,1,1,1,1,0,0,0,0,0,0,0,0,0,3,4,135,space,2.945548000000599,None,0,0,0.9105829000000085,None,space,0.8679842000001372,None,0,1,1,1,,,,,3,0,24,2,348.6536282999996,,,,,,,,,,,,,,,,,,,,,348.6383657999995,348.6536282999996,349.13721169999917,349.1417864999994,349.1589252999993,350.08663739999974,,,,,350.08677009999974,350.1028699999997,350.2866727999999,350.3026820999994,349.1589252999993,,,,,,,,0,0,0.9105829000000085,None,,,,,,,,867,27,M,R,2026-02-18_12h38.49.410,VisualSearch_2526_3,,2025.2.4,2026-02-18 12h38.49.624540 +0100,
vertical.xlsx,The target is tilted.,135,25,1,3,1,1,1,1,1,1,1,1,0,0,0,0,0,7,8,135,space,2.945548000000599,None,1,1,0.6527072999997472,None,space,0.8679842000001372,None,0,1,1,1,,,,,3,1,25,1,350.3026820999994,,,,,,,,,,,,,,,,,,,,,350.2874153999992,350.3026820999994,350.7862510999994,350.79087509999954,350.8073494,351.4702103999998,,,,,351.4703953999997,351.4857226999993,351.6692383999998,351.6852457999994,350.8073494,,,,,,,,1,1,0.6527072999997472,None,,,,,,,,867,27,M,R,2026-02-18_12h38.49.410,VisualSearch_2526_3,,2025.2.4,2026-02-18 12h38.49.624540 +0100,
vertical.xlsx,The target is tilted.,135,26,2,3,1,0,0,0,0,0,0,0,0,0,0,0,0,0,1,135,space,2.945548000000599,None,1,1,0.46992599999975937,None,space,0.8679842000001372,None,0,1,1,1,,,,,3,2,26,3,351.6852457999994,,,,,,,,,,,,,,,,,,,,,351.6699577999998,351.6852457999994,352.1694282999997,352.1739229999994,352.1905921999996,352.66975289999937,,,,,352.66995919999954,352.68516199999976,352.86884329999975,352.88515239999924,352.1905921999996,,,,,,,,1,1,0.46992599999975937,None,,,,,,,,867,27,M,R,2026-02-18_12h38.49.410,VisualSearch_2526_3,,2025.2.4,2026-02-18 12h38.49.624540 +0100,
vertical.xlsx,The target is tilted.,135,27,3,3,1,1,1,1,1,1,1,1,1,1,1,1,0,11,12,135,space,2.945548000000599,None,1,1,1.5543583999997281,None,space,0.8679842000001372,None,0,1,1,1,,,,,3,3,27,0,352.88515239999924,,,,,,,,,,,,,,,,,,,,,352.86956909999935,352.88515239999924,353.36888049999925,353.3735313999996,353.38809089999995,354.9514616999995,,,,,354.95165369999995,354.96736409999994,355.15123569999923,355.16743939999924,353.38809089999995,,,,,,,,1,1,1.5543583999997281,None,,,,,,,,867,27,M,R,2026-02-18_12h38.49.410,VisualSearch_2526_3,,2025.2.4,2026-02-18 12h38.49.624540 +0100,
vertical.xlsx,The target is tilted.,135,28,4,3,0,1,1,1,0,0,0,0,0,0,0,0,1,3,4,135,space,2.945548000000599,None,0,1,0.8864064999997936,None,space,0.8679842000001372,None,0,1,1,1,,,,,3,4,28,6,355.16743939999924,,,,,,,,,,,,,,,,,,,,,355.1519653999994,355.16743939999924,355.6506737999998,355.65518709999924,355.6730093999995,356.56770699999925,,,,,356.56789219999973,356.58326379999926,356.76728829999956,356.7831942999992,355.6730093999995,,,,,,,,0,1,0.8864064999997936,None,,,,,,,,867,27,M,R,2026-02-18_12h38.49.410,VisualSearch_2526_3,,2025.2.4,2026-02-18 12h38.49.624540 +0100,
vertical.xlsx,The target is tilted.,135,29,5,3,0,1,1,1,1,1,1,1,1,1,1,1,1,11,12,135,space,2.945548000000599,None,0,1,1.3907283999997162,None,space,0.8679842000001372,None,0,1,1,1,,,,,3,5,29,4,356.7831942999992,,,,,,,,,,,,,,,,,,,,,356.7680311999993,356.7831942999992,357.2666967999994,357.27123539999957,357.28917359999923,358.6832638999995,,,,,358.6834554999996,358.6990332999994,358.8830034999992,358.89908509999987,357.28917359999923,,,,,,,,0,1,1.3907283999997162,None,,,,,,,,867,27,M,R,2026-02-18_12h38.49.410,VisualSearch_2526_3,,2025.2.4,2026-02-18 12h38.49.624540 +0100,
vertical.xlsx,The target is tilted.,135,30,6,3,0,0,0,0,0,0,0,0,0,0,0,0,1,1,1,135,space,2.945548000000599,None,0,1,0.45591069999954925,None,space,0.8679842000001372,None,0,1,1,1,,,,,3,6,30,7,358.89908509999987,,,,,,,,,,,,,,,,,,,,,358.8838042999996,358.89908509999987,359.38244289999966,359.3869483999997,359.4045024999996,359.8659923999994,,,,,359.86615899999924,359.8818115999993,360.0651025999996,360.0817889,359.4045024999996,,,,,,,,0,1,0.45591069999954925,None,,,,,,,,867,27,M,R,2026-02-18_12h38.49.410,VisualSearch_2526_3,,2025.2.4,2026-02-18 12h38.49.624540 +0100,
vertical.xlsx,The target is tilted.,135,31,7,3,0,1,1,1,1,1,1,1,0,0,0,0,1,7,8,135,space,2.945548000000599,None,0,1,1.2791143000004013,None,space,0.8679842000001372,None,0,1,1,1,,,,,3,7,31,5,360.0817889,,,,,,,,,,,,,,,,,,,,,360.0658287999995,360.0817889,360.5655603999994,360.5701313999998,360.5858239999998,361.8816933999997,,,,,361.88184009999986,361.89759459999914,362.08122419999927,362.09716729999946,360.5858239999998,,,,,,,,0,1,1.2791143000004013,None,,,,,,,,867,27,M,R,2026-02-18_12h38.49.410,VisualSearch_2526_3,,2025.2.4,2026-02-18 12h38.49.624540 +0100,
vertical.xlsx,The target is tilted.,135,32,0,4,0,1,1,1,1,1,1,1,0,0,0,0,1,7,8,135,space,2.945548000000599,None,0,1,1.4661631999997553,None,space,0.8679842000001372,None,0,1,1,1,,,,,4,0,32,5,362.09716729999946,,,,,,,,,,,,,,,,,,,,,362.08194509999976,362.09716729999946,362.58130529999926,362.58585689999927,362.60247119999985,364.0812154999994,,,,,364.0814384999994,364.0967357999998,364.2801374999999,364.29658089999975,362.60247119999985,,,,,,,,0,1,1.4661631999997553,None,,,,,,,,867,27,M,R,2026-02-18_12h38.49.410,VisualSearch_2526_3,,2025.2.4,2026-02-18 12h38.49.624540 +0100,
vertical.xlsx,The target is tilted.,135,33,1,4,1,1,1,1,0,0,0,0,0,0,0,0,0,3,4,135,space,2.945548000000599,None,1,1,0.5437326000001121,None,space,0.8679842000001372,None,0,1,1,1,,,,,4,1,33,2,364.29658089999975,,,,,,,,,,,,,,,,,,,,,364.2808875999999,364.29658089999975,364.78028689999974,364.78482019999956,364.80303919999915,365.3636315999993,,,,,365.3638211999996,365.3795197999998,365.5629676999997,365.5790044999994,364.80303919999915,,,,,,,,1,1,0.5437326000001121,None,,,,,,,,867,27,M,R,2026-02-18_12h38.49.410,VisualSearch_2526_3,,2025.2.4,2026-02-18 12h38.49.624540 +0100,
