file_name,block_instructions,target_example,thisN,thisTrialN,thisRepN,target_presence,opacity_1,opacity_2,opacity_3,opacity_4,opacity_5,opacity_6,opacity_7,opacity_8,opacity_9,opacity_10,opacity_11,opacity_12,n_distract,n_items,target_ori,key_resp_4.keys,key_resp_4.rt,key_resp_4.duration,key_resp.keys,key_resp.corr,key_resp.rt,key_resp.duration,key_resp_5.keys,key_resp_5.rt,key_resp_5.duration,blocks.thisRepN,blocks.thisTrialN,blocks.thisN,blocks.thisIndex,practice_trials.thisRepN,practice_trials.thisTrialN,practice_trials.thisN,practice_trials.thisIndex,trials.thisRepN,trials.thisTrialN,trials.thisN,trials.thisIndex,thisRow.t,notes,Welcome.started,WelcomeText.started,key_resp_2.started,Welcome.stopped,key_resp_2.keys,key_resp_2.rt,key_resp_2.duration,InformedConsent.started,text_4.started,InformedConsent.stopped,key_resp_6.keys,key_resp_6.rt,key_resp_6.duration,key_resp_4.started,example_target.started,text_3.started,blocks.key_resp_4.keys,blocks.key_resp_4.rt,blocks.key_resp_4.duration,FixCross.started,fixCross.started,FixCross.stopped,Stimulus.started,key_resp.started,Stimulus.stopped,practice_trials.key_resp.keys,practice_trials.key_resp.corr,practice_trials.key_resp.rt,practice_trials.key_resp.duration,BlankScreen.started,text.started,text.stopped,BlankScreen.stopped,fixCross.stopped,ExperimentStart.started,text_2.started,key_resp_5.started,ExperimentStart.stopped,blocks.key_resp_5.keys,blocks.key_resp_5.rt,blocks.key_resp_5.duration,trials.key_resp.keys,trials.key_resp.corr,trials.key_resp.rt,trials.key_resp.duration,Thanks.started,ThankYou.started,key_resp_3.started,Thanks.stopped,key_resp_3.keys,key_resp_3.rt,key_resp_3.duration,participant,leeftijd,gender,links/rechtshandig,date,expName,expVersion,psychopyVersion,expStart,
,,,,,,,,,,,,,,,,,,,,,,,,,,,,,,,,,,,,,,,,,,,,,,0.021098899999969944,0.033704199999988305,0.033704199999988305,42.134605299999976,space,41.999821999999995,None,,,,,,,,,,,,,,,,,,,,,,,,,,,,,,,,,,,,,,,,,,,,,,868,24,M,R,2026-02-23_11h09.45.064,VisualSearch_2526_3,,2025.2.4,2026-02-23 11h09.45.591801 +0100,
,,,,,,,,,,,,,,,,,,,,,,,,,,,,,,,,,,,,,,,,,,,,,,,,,,,,,42.13468149999994,42.13993849999997,51.50970829999994,y,9.366804900000034,None,,,,,,,,,,,,,,,,,,,,,,,,,,,,,,,,,,,,,,,,868,24,M,R,2026-02-23_11h09.45.064,VisualSearch_2526_3,,2025.2.4,2026-02-23 11h09.45.591801 +0100,
tilted.xlsx,The target is tilted.,117,0,0,0,0,1,1,1,0,0,0,0,0,0,0,0,1,3,4,117,space,9.379017700000077,None,0,1,0.9329983000000084,None,,,,0,0,0,0,0,0,0,6,,,,,61.04280970000002,,,,,,,,,,,,,,,51.60668769999995,51.60668769999995,51.60668769999995,space,9.379017700000077,None,61.03827660000002,61.04280970000002,61.504069099999924,61.508928800000035,61.525974700000006,62.471402799999964,0,1,0.9329983000000084,None,62.471595200000024,62.486938699999996,62.68692199999998,62.670678899999984,,,,,,,,,,,,,,,,,,,,868,24,M,R,2026-02-23_11h09.45.064,VisualSearch_2526_3,,2025.2.4,2026-02-23 11h09.45.591801 +0100,
tilted.xlsx,The target is tilted.,117,1,1,0,1,1,1,1,1,1,1,1,0,0,0,0,0,7,8,117,space,9.379017700000077,None,1,1,1.1807886999999937,None,,,,0,0,0,0,0,1,1,1,,,,,62.68692199999998,,,,,,,,,,,,,,,,,,,,,62.67138309999996,62.68692199999998,63.17023119999999,63.17485339999996,63.189010499999995,64.38712199999998,1,1,1.1807886999999937,None,64.38731499999994,64.4023393,64.60224949999997,64.58617919999995,63.189010499999995,,,,,,,,,,,,,,,,,,,868,24,M,R,2026-02-23_11h09.45.064,VisualSearch_2526_3,,2025.2.4,2026-02-23 11h09.45.591801 +0100,
tilted.xlsx,The target is tilted.,117,2,2,0,1,0,0,0,0,0,0,0,0,0,0,0,0,0,1,117,space,9.379017700000077,None,1,1,1.3784655000000612,None,,,,0,0,0,0,0,2,2,3,,,,,64.60224949999997,,,,,,,,,,,,,,,,,,,,,64.58685400000002,64.60224949999997,65.08640389999994,65.0910179,65.10573569999997,66.4858835,1,1,1.3784655000000612,None,66.48607389999995,66.50128899999993,66.70131189999995,66.68509970000002,65.10573569999997,,,,,,,,,,,,,,,,,,,868,24,M,R,2026-02-23_11h09.45.064,VisualSearch_2526_3,,2025.2.4,2026-02-23 11h09.45.591801 +0100,
tilted.xlsx,The target is tilted.,117,3,3,0,0,1,1,1,1,1,1,1,1,1,1,1,1,11,12,117,space,9.379017700000077,None,0,1,2.1893102000000226,None,,,,0,0,0,0,0,3,3,4,,,,,66.70131189999995,,,,,,,,,,,,,,,,,,,,,66.68578430000002,66.70131189999995,67.18558810000002,67.19058829999994,67.2053932,69.40113599999995,0,1,2.1893102000000226,None,69.40130820000002,69.4166381,69.61668269999996,69.60064890000001,67.2053932,,,,,,,,,,,,,,,,,,,868,24,M,R,2026-02-23_11h09.45.064,VisualSearch_2526_3,,2025.2.4,2026-02-23 11h09.45.591801 +0100,
tilted.xlsx,The target is tilted.,117,4,4,0,1,1,1,1,0,0,0,0,0,0,0,0,0,3,4,117,space,9.379017700000077,None,1,1,1.0433013000000528,None,,,,0,0,0,0,0,4,4,2,,,,,69.61668269999996,,,,,,,,,,,,,,,,,,,,,69.60134349999998,69.61668269999996,70.10074669999995,70.10547680000002,70.12188270000001,71.16745700000001,1,1,1.0433013000000528,None,71.16768200000001,71.18250349999994,71.38297979999993,71.36687840000002,70.12188270000001,,,,,,,,,,,,,,,,,,,868,24,M,R,2026-02-23_11h09.45.064,VisualSearch_2526_3,,2025.2.4,2026-02-23 11h09.45.591801 +0100,
tilted.xlsx,The target is tilted.,117,5,5,0,0,1,1,1,1,1,1,1,0,0,0,0,1,7,8,117,space,9.379017700000077,None,0,1,1.7412425999999641,None,,,,0,0,0,0,0,5,5,5,,,,,71.38297979999993,,,,,,,,,,,,,,,,,,,,,71.36754589999998,71.38297979999993,71.86664269999994,71.87127299999997,71.88697019999995,73.63219370000002,0,1,1.7412425999999641,None,73.63232649999998,73.64808229999994,73.84799639999994,73.83242459999997,71.88697019999995,,,,,,,,,,,,,,,,,,,868,24,M,R,2026-02-23_11h09.45.064,VisualSearch_2526_3,,2025.2.4,2026-02-23 11h09.45.591801 +0100,
tilted.xlsx,The target is tilted.,117,6,6,0,0,0,0,0,0,0,0,0,0,0,0,0,1,1,1,117,space,9.379017700000077,None,0,1,1.2033112999999958,None,,,,0,0,0,0,0,6,6,7,,,,,73.84799639999994,,,,,,,,,,,,,,,,,,,,,73.83311779999997,73.84799639999994,74.33211129999995,74.3367958,74.35264380000001,75.565382,0,1,1.2033112999999958,None,75.56555489999994,75.58045800000002,75.78056479999998,75.76463909999995,74.35264380000001,,,,,,,,,,,,,,,,,,,868,24,M,R,2026-02-23_11h09.45.064,VisualSearch_2526_3,,2025.2.4,2026-02-23 11h09.45.591801 +0100,
tilted.xlsx,The target is tilted.,117,7,7,0,1,1,1,1,1,1,1,1,1,1,1,1,0,11,12,117,space,9.379017700000077,None,1,1,1.7892439999999397,None,,,,0,0,0,0,0,7,7,0,,,,,75.78056479999998,,,,,,,,,,,,,,,,,,,,,75.76541859999998,75.78056479999998,76.26467560000003,76.26925310000001,76.28019949999998,78.08101609999994,1,1,1.7892439999999397,None,78.08120859999997,78.09603189999996,78.30398779999996,78.28013880000003,76.28019949999998,,,,,,,,,,,,,,,,,,,868,24,M,R,2026-02-23_11h09.45.064,VisualSearch_2526_3,,2025.2.4,2026-02-23 11h09.45.591801 +0100,
tilted.xlsx,The target is tilted.,117,0,0,0,1,0,0,0,0,0,0,0,0,0,0,0,0,0,1,117,space,9.379017700000077,None,1,1,0.7778224999999566,None,space,5.674462100000028,None,0,0,0,0,,,,,0,0,0,3,84.01999879999994,,,,,,,,,,,,,,,,,,,,,84.01655010000002,84.01999879999994,84.51059580000003,84.51538659999994,84.53062499999999,85.31103680000001,,,,,85.31125469999995,85.32607029999997,85.52656200000001,85.5102895,,78.29682100000002,78.30398779999996,78.30398779999996,83.99473090000004,space,5.674462100000028,None,1,1,0.7778224999999566,None,,,,,,,,868,24,M,R,2026-02-23_11h09.45.064,VisualSearch_2526_3,,2025.2.4,2026-02-23 11h09.45.591801 +0100,
tilted.xlsx,The target is tilted.,117,1,1,0,0,0,0,0,0,0,0,0,0,0,0,0,1,1,1,117,space,9.379017700000077,None,0,1,0.5210372000000234,None,space,5.674462100000028,None,0,0,0,0,,,,,0,1,1,7,85.52656200000001,,,,,,,,,,,,,,,,,,,,,85.51101299999993,85.52656200000001,86.01018779999993,86.01488840000002,86.02931690000003,86.56018610000001,,,,,86.56034690000001,86.57549369999992,86.77556670000001,86.75976089999995,86.02931690000003,,,,,,,,0,1,0.5210372000000234,None,,,,,,,,868,24,M,R,2026-02-23_11h09.45.064,VisualSearch_2526_3,,2025.2.4,2026-02-23 11h09.45.591801 +0100,
tilted.xlsx,The target is tilted.,117,2,2,0,1,1,1,1,0,0,0,0,0,0,0,0,0,3,4,117,space,9.379017700000077,None,1,1,0.7821546999999782,None,space,5.674462100000028,None,0,0,0,0,,,,,0,2,2,2,86.77556670000001,,,,,,,,,,,,,,,,,,,,,86.7605307,86.77556670000001,87.2594742,87.26503070000001,87.27940419999993,88.07585119999999,,,,,88.07606499999997,88.09139070000003,88.29157759999998,88.27541180000003,87.27940419999993,,,,,,,,1,1,0.7821546999999782,None,,,,,,,,868,24,M,R,2026-02-23_11h09.45.064,VisualSearch_2526_3,,2025.2.4,2026-02-23 11h09.45.591801 +0100,
tilted.xlsx,The target is tilted.,117,3,3,0,0,1,1,1,1,1,1,1,0,0,0,0,1,7,8,117,space,9.379017700000077,None,0,1,1.2298812000000225,None,space,5.674462100000028,None,0,0,0,0,,,,,0,3,3,5,88.29157759999998,,,,,,,,,,,,,,,,,,,,,88.27616560000001,88.29157759999998,88.7756048,88.78015019999998,88.79578070000002,90.04157069999997,,,,,90.04176210000003,90.05722249999997,90.25784009999995,90.24118950000002,88.79578070000002,,,,,,,,0,1,1.2298812000000225,None,,,,,,,,868,24,M,R,2026-02-23_11h09.45.064,VisualSearch_2526_3,,2025.2.4,2026-02-23 11h09.45.591801 +0100,
tilted.xlsx,The target is tilted.,117,4,4,0,0,1,1,1,0,0,0,0,0,0,0,0,1,3,4,117,space,9.379017700000077,None,0,1,0.8857562999999118,None,space,5.674462100000028,None,0,0,0,0,,,,,0,4,4,6,90.25784009999995,,,,,,,,,,,,,,,,,,,,,90.24199269999997,90.25784009999995,90.74089449999997,90.74553170000002,90.76049239999998,91.65817570000002,,,,,91.65835529999993,91.67315050000002,91.87364930000001,91.85754359999999,90.76049239999998,,,,,,,,0,1,0.8857562999999118,None,,,,,,,,868,24,M,R,2026-02-23_11h09.45.064,VisualSearch_2526_3,,2025.2.4,2026-02-23 11h09.45.591801 +0100,
tilted.xlsx,The target is tilted.,117,5,5,0,1,1,1,1,1,1,1,1,1,1,1,1,0,11,12,117,space,9.379017700000077,None,0,0,1.8746007000000873,None,space,5.674462100000028,None,0,0,0,0,,,,,0,5,5,0,91.87364930000001,,,,,,,,,,,,,,,,,,,,,91.85831489999998,91.87364930000001,92.35677279999993,92.36050809999995,92.37509049999994,94.25714600000003,,,,,94.25735769999994,94.27203480000003,94.4721068,94.4559554,92.37509049999994,,,,,,,,0,0,1.8746007000000873,None,,,,,,,,868,24,M,R,2026-02-23_11h09.45.064,VisualSearch_2526_3,,2025.2.4,2026-02-23 11h09.45.591801 +0100,
tilted.xlsx,The target is tilted.,117,6,6,0,0,1,1,1,1,1,1,1,1,1,1,1,1,11,12,117,space,9.379017700000077,None,0,1,1.4654473999999027,None,space,5.674462100000028,None,0,0,0,0,,,,,0,6,6,4,94.4721068,,,,,,,,,,,,,,,,,,,,,94.45675900000003,94.4721068,94.9562618,94.96098640000002,94.97606529999996,96.45500259999994,,,,,96.45515319999993,96.47099639999999,96.67152920000001,96.6554132,94.97606529999996,,,,,,,,0,1,1.4654473999999027,None,,,,,,,,868,24,M,R,2026-02-23_11h09.45.064,VisualSearch_2526_3,,2025.2.4,2026-02-23 11h09.45.591801 +0100,
tilted.xlsx,The target is tilted.,117,7,7,0,1,1,1,1,1,1,1,1,0,0,0,0,0,7,8,117,space,9.379017700000077,None,0,0,1.6061383999999634,None,space,5.674462100000028,None,0,0,0,0,,,,,0,7,7,1,96.67152920000001,,,,,,,,,,,,,,,,,,,,,96.65616779999993,96.67152920000001,97.15502979999997,97.15960849999999,97.17411349999998,98.78779669999994,,,,,98.78793410000003,98.80326400000001,99.00368300000002,98.98721920000003,97.17411349999998,,,,,,,,0,0,1.6061383999999634,None,,,,,,,,868,24,M,R,2026-02-23_11h09.45.064,VisualSearch_2526_3,,2025.2.4,2026-02-23 11h09.45.591801 +0100,
tilted.xlsx,The target is tilted.,117,8,0,1,0,1,1,1,1,1,1,1,1,1,1,1,1,11,12,117,space,9.379017700000077,None,0,1,2.174876100000006,None,space,5.674462100000028,None,0,0,0,0,,,,,1,0,8,4,99.00368300000002,,,,,,,,,,,,,,,,,,,,,98.9879704,99.00368300000002,99.48688049999998,99.49024320000001,99.50468619999992,101.68680529999995,,,,,101.68698689999997,101.70188210000003,101.90243929999997,101.88632210000003,99.50468619999992,,,,,,,,0,1,2.174876100000006,None,,,,,,,,868,24,M,R,2026-02-23_11h09.45.064,VisualSearch_2526_3,,2025.2.4,2026-02-23 11h09.45.591801 +0100,
tilted.xlsx,The target is tilted.,117,9,1,1,1,1,1,1,0,0,0,0,0,0,0,0,0,3,4,117,space,9.379017700000077,None,1,1,1.0110703000000285,None,space,5.674462100000028,None,0,0,0,0,,,,,1,1,9,2,101.90243929999997,,,,,,,,,,,,,,,,,,,,,101.8870842,101.90243929999997,102.38622629999998,102.39102889999992,102.40632340000002,103.41850650000003,,,,,103.41859090000003,103.43430239999998,103.63499030000003,103.61850859999993,102.40632340000002,,,,,,,,1,1,1.0110703000000285,None,,,,,,,,868,24,M,R,2026-02-23_11h09.45.064,VisualSearch_2526_3,,2025.2.4,2026-02-23 11h09.45.591801 +0100,
tilted.xlsx,The target is tilted.,117,10,2,1,0,1,1,1,1,1,1,1,0,0,0,0,1,7,8,117,space,9.379017700000077,None,0,1,1.836596800000052,None,space,5.674462100000028,None,0,0,0,0,,,,,1,2,10,5,103.63499030000003,,,,,,,,,,,,,,,,,,,,,103.61926719999997,103.63499030000003,104.11833089999993,104.12296349999997,104.13920499999995,105.98464749999994,,,,,105.98481370000002,106.00009979999993,106.20041989999993,106.18436239999994,104.13920499999995,,,,,,,,0,1,1.836596800000052,None,,,,,,,,868,24,M,R,2026-02-23_11h09.45.064,VisualSearch_2526_3,,2025.2.4,2026-02-23 11h09.45.591801 +0100,
tilted.xlsx,The target is tilted.,117,11,3,1,0,1,1,1,0,0,0,0,0,0,0,0,1,3,4,117,space,9.379017700000077,None,0,1,1.2712043999999878,None,space,5.674462100000028,None,0,0,0,0,,,,,1,3,11,6,106.20041989999993,,,,,,,,,,,,,,,,,,,,,106.18513959999996,106.20041989999993,106.68415719999996,106.68885069999999,106.70243129999994,107.98338660000002,,,,,107.98348950000002,107.99891019999995,108.19952839999996,108.18337150000002,106.70243129999994,,,,,,,,0,1,1.2712043999999878,None,,,,,,,,868,24,M,R,2026-02-23_11h09.45.064,VisualSearch_2526_3,,2025.2.4,2026-02-23 11h09.45.591801 +0100,
tilted.xlsx,The target is tilted.,117,12,4,1,1,0,0,0,0,0,0,0,0,0,0,0,0,0,1,117,space,9.379017700000077,None,1,1,0.6964540999999826,None,space,5.674462100000028,None,0,0,0,0,,,,,1,4,12,3,108.19952839999996,,,,,,,,,,,,,,,,,,,,,108.18419879999999,108.19952839999996,108.68330830000002,108.68796899999995,108.70011279999994,109.39990290000003,,,,,109.40010289999998,109.41522950000001,109.61562689999994,109.59921799999995,108.70011279999994,,,,,,,,1,1,0.6964540999999826,None,,,,,,,,868,24,M,R,2026-02-23_11h09.45.064,VisualSearch_2526_3,,2025.2.4,2026-02-23 11h09.45.591801 +0100,
tilted.xlsx,The target is tilted.,117,13,5,1,1,1,1,1,1,1,1,1,1,1,1,1,0,11,12,117,space,9.379017700000077,None,1,1,3.625947799999949,None,space,5.674462100000028,None,0,0,0,0,,,,,1,5,13,0,109.61562689999994,,,,,,,,,,,,,,,,,,,,,109.5999746,109.61562689999994,110.09913900000004,110.10391719999996,110.11852379999993,113.74770330000001,,,,,113.74788560000002,113.76322930000003,113.96357920000003,113.94756180000002,110.11852379999993,,,,,,,,1,1,3.625947799999949,None,,,,,,,,868,24,M,R,2026-02-23_11h09.45.064,VisualSearch_2526_3,,2025.2.4,2026-02-23 11h09.45.591801 +0100,
tilted.xlsx,The target is tilted.,117,14,6,1,1,1,1,1,1,1,1,1,0,0,0,0,0,7,8,117,space,9.379017700000077,None,1,1,1.350048700000002,None,space,5.674462100000028,None,0,0,0,0,,,,,1,6,14,1,113.96357920000003,,,,,,,,,,,,,,,,,,,,,113.94829519999996,113.96357920000003,114.447273,114.45192229999998,114.46730279999997,115.82935699999996,,,,,115.82945849999999,115.84532690000003,,116.02959659999999,114.46730279999997,,,,,,,,1,1,1.350048700000002,None,,,,,,,,868,24,M,R,2026-02-23_11h09.45.064,VisualSearch_2526_3,,2025.2.4,2026-02-23 11h09.45.591801 +0100,
tilted.xlsx,The target is tilted.,117,15,7,1,0,0,0,0,0,0,0,0,0,0,0,0,1,1,1,117,space,9.379017700000077,None,0,1,0.7058154000000059,None,space,5.674462100000028,None,0,0,0,0,,,,,1,7,15,7,116.04605419999996,,,,,,,,,,,,,,,,,,,,,116.03035,116.04605419999996,116.52938689999996,116.53402770000002,116.54832209999995,117.26273730000003,,,,,117.26287669999999,117.27826199999993,117.47834549999993,117.46289660000002,116.54832209999995,,,,,,,,0,1,0.7058154000000059,None,,,,,,,,868,24,M,R,2026-02-23_11h09.45.064,VisualSearch_2526_3,,2025.2.4,2026-02-23 11h09.45.591801 +0100,
tilted.xlsx,The target is tilted.,117,16,0,2,0,0,0,0,0,0,0,0,0,0,0,0,1,1,1,117,space,9.379017700000077,None,0,1,0.6701520000000301,None,space,5.674462100000028,None,0,0,0,0,,,,,2,0,16,7,117.47834549999993,,,,,,,,,,,,,,,,,,,,,117.46358999999995,117.47834549999993,117.96233480000001,117.96704950000003,117.98036030000003,118.66232330000003,,,,,118.66250279999997,118.67762849999997,118.8779111,118.86203739999996,117.98036030000003,,,,,,,,0,1,0.6701520000000301,None,,,,,,,,868,24,M,R,2026-02-23_11h09.45.064,VisualSearch_2526_3,,2025.2.4,2026-02-23 11h09.45.591801 +0100,
tilted.xlsx,The target is tilted.,117,17,1,2,1,0,0,0,0,0,0,0,0,0,0,0,0,0,1,117,space,9.379017700000077,None,1,1,0.7326829999999518,None,space,5.674462100000028,None,0,0,0,0,,,,,2,1,17,3,118.8779111,,,,,,,,,,,,,,,,,,,,,118.86282729999994,118.8779111,119.36176149999994,119.36640909999994,119.37999649999995,120.12787059999994,,,,,120.12808840000002,120.14355079999996,120.34406149999995,120.32800029999999,119.37999649999995,,,,,,,,1,1,0.7326829999999518,None,,,,,,,,868,24,M,R,2026-02-23_11h09.45.064,VisualSearch_2526_3,,2025.2.4,2026-02-23 11h09.45.591801 +0100,
tilted.xlsx,The target is tilted.,117,18,2,2,0,1,1,1,1,1,1,1,0,0,0,0,1,7,8,117,space,9.379017700000077,None,0,1,2.8421233999999913,None,space,5.674462100000028,None,0,0,0,0,,,,,2,2,18,5,120.34406149999995,,,,,,,,,,,,,,,,,,,,,120.32870939999998,120.34406149999995,120.82785289999993,120.83244860000002,120.84978539999997,123.69367360000001,,,,,123.6938748,123.7086875,123.90902670000003,123.89295909999998,120.84978539999997,,,,,,,,0,1,2.8421233999999913,None,,,,,,,,868,24,M,R,2026-02-23_11h09.45.064,VisualSearch_2526_3,,2025.2.4,2026-02-23 11h09.45.591801 +0100,
tilted.xlsx,The target is tilted.,117,19,3,2,0,1,1,1,0,0,0,0,0,0,0,0,1,3,4,117,space,9.379017700000077,None,0,1,1.5704035999999633,None,space,5.674462100000028,None,0,0,0,0,,,,,2,3,19,6,123.90902670000003,,,,,,,,,,,,,,,,,,,,,123.89372649999996,123.90902670000003,124.3926798,124.39742279999996,124.40847869999993,125.99205289999998,,,,,125.99225260000003,126.00758580000002,126.20811689999994,126.19193940000002,124.40847869999993,,,,,,,,0,1,1.5704035999999633,None,,,,,,,,868,24,M,R,2026-02-23_11h09.45.064,VisualSearch_2526_3,,2025.2.4,2026-02-23 11h09.45.591801 +0100,
tilted.xlsx,The target is tilted.,117,20,4,2,0,1,1,1,1,1,1,1,1,1,1,1,1,11,12,117,space,9.379017700000077,None,0,1,1.9722831999999926,None,space,5.674462100000028,None,0,0,0,0,,,,,2,4,20,4,126.20811689999994,,,,,,,,,,,,,,,,,,,,,126.192678,126.20811689999994,126.6916377,126.69637490000002,126.71236969999995,128.6904819,,,,,128.69061239999996,128.7062942,128.90598620000003,128.88953270000002,126.71236969999995,,,,,,,,0,1,1.9722831999999926,None,,,,,,,,868,24,M,R,2026-02-23_11h09.45.064,VisualSearch_2526_3,,2025.2.4,2026-02-23 11h09.45.591801 +0100,
tilted.xlsx,The target is tilted.,117,21,5,2,1,1,1,1,1,1,1,1,1,1,1,1,0,11,12,117,space,9.379017700000077,None,1,1,2.028726200000051,None,space,5.674462100000028,None,0,0,0,0,,,,,2,5,21,0,128.90598620000003,,,,,,,,,,,,,,,,,,,,,128.88982209999995,128.90598620000003,129.38975629999993,129.39265139999998,129.40584639999997,131.43961119999994,,,,,131.43976009999994,131.4552063,131.6551948,131.63943749999999,129.40584639999997,,,,,,,,1,1,2.028726200000051,None,,,,,,,,868,24,M,R,2026-02-23_11h09.45.064,VisualSearch_2526_3,,2025.2.4,2026-02-23 11h09.45.591801 +0100,
tilted.xlsx,The target is tilted.,117,22,6,2,1,1,1,1,0,0,0,0,0,0,0,0,0,3,4,117,space,9.379017700000077,None,1,1,1.2175788000000694,None,space,5.674462100000028,None,0,0,0,0,,,,,2,6,22,2,131.6551948,,,,,,,,,,,,,,,,,,,,,131.64025719999995,131.6551948,132.13817470000004,132.13995039999998,132.15468399999997,133.38866869999993,,,,,133.38887160000002,133.40433629999995,133.60480929999994,133.58855540000002,132.15468399999997,,,,,,,,1,1,1.2175788000000694,None,,,,,,,,868,24,M,R,2026-02-23_11h09.45.064,VisualSearch_2526_3,,2025.2.4,2026-02-23 11h09.45.591801 +0100,
tilted.xlsx,The target is tilted.,117,23,7,2,1,1,1,1,1,1,1,1,0,0,0,0,0,7,8,117,space,9.379017700000077,None,1,1,2.5421722999999474,None,space,5.674462100000028,None,0,0,0,0,,,,,2,7,23,1,133.60480929999994,,,,,,,,,,,,,,,,,,,,,133.5893946,133.60480929999994,134.08876769999995,134.09402339999997,134.10885469999994,136.653779,,,,,136.65390649999995,136.66940209999996,136.86979759999997,136.85377119999998,134.10885469999994,,,,,,,,1,1,2.5421722999999474,None,,,,,,,,868,24,M,R,2026-02-23_11h09.45.064,VisualSearch_2526_3,,2025.2.4,2026-02-23 11h09.45.591801 +0100,
tilted.xlsx,The target is tilted.,117,24,0,3,0,1,1,1,0,0,0,0,0,0,0,0,1,3,4,117,space,9.379017700000077,None,0,1,1.0279089999999087,None,space,5.674462100000028,None,0,0,0,0,,,,,3,0,24,6,136.86979759999997,,,,,,,,,,,,,,,,,,,,,136.85450349999996,136.86979759999997,137.35371609999993,137.3583443,137.37218970000004,138.40337850000003,,,,,138.40357689999996,138.41849990000003,138.61846459999992,138.6020942,137.37218970000004,,,,,,,,0,1,1.0279089999999087,None,,,,,,,,868,24,M,R,2026-02-23_11h09.45.064,VisualSearch_2526_3,,2025.2.4,2026-02-23 11h09.45.591801 +0100,
tilted.xlsx,The target is tilted.,117,25,1,3,0,0,0,0,0,0,0,0,0,0,0,0,1,1,1,117,space,9.379017700000077,None,0,1,0.74314389999995,None,space,5.674462100000028,None,0,0,0,0,,,,,3,1,25,7,138.61846459999992,,,,,,,,,,,,,,,,,,,,,138.60248460000003,138.61846459999992,139.10272099999997,139.10736829999996,139.12293119999993,139.868561,,,,,139.86868370000002,139.8843739,140.0851788,140.0686902,139.12293119999993,,,,,,,,0,1,0.74314389999995,None,,,,,,,,868,24,M,R,2026-02-23_11h09.45.064,VisualSearch_2526_3,,2025.2.4,2026-02-23 11h09.45.591801 +0100,
tilted.xlsx,The target is tilted.,117,26,2,3,0,1,1,1,1,1,1,1,0,0,0,0,1,7,8,117,space,9.379017700000077,None,0,1,1.8591025999999147,None,space,5.674462100000028,None,0,0,0,0,,,,,3,2,26,5,140.0851788,,,,,,,,,,,,,,,,,,,,,140.06946070000004,140.0851788,140.56839589999993,140.57302719999996,140.58779259999994,142.45169469999996,,,,,142.45191019999993,142.46678780000002,142.66691589999994,142.65107649999993,140.58779259999994,,,,,,,,0,1,1.8591025999999147,None,,,,,,,,868,24,M,R,2026-02-23_11h09.45.064,VisualSearch_2526_3,,2025.2.4,2026-02-23 11h09.45.591801 +0100,
tilted.xlsx,The target is tilted.,117,27,3,3,0,1,1,1,1,1,1,1,1,1,1,1,1,11,12,117,space,9.379017700000077,None,0,1,2.1536370000000034,None,space,5.674462100000028,None,0,0,0,0,,,,,3,3,27,4,142.66691589999994,,,,,,,,,,,,,,,,,,,,,142.65184650000003,142.66691589999994,143.1509261,143.15554780000002,143.17043319999993,145.3336852,,,,,145.33386529999996,145.3488582,145.54923329999997,145.5331966,143.17043319999993,,,,,,,,0,1,2.1536370000000034,None,,,,,,,,868,24,M,R,2026-02-23_11h09.45.064,VisualSearch_2526_3,,2025.2.4,2026-02-23 11h09.45.591801 +0100,
tilted.xlsx,The target is tilted.,117,28,4,3,1,1,1,1,1,1,1,1,1,1,1,1,0,11,12,117,space,9.379017700000077,None,0,0,2.1298433000000614,None,space,5.674462100000028,None,0,0,0,0,,,,,3,4,28,0,145.54923329999997,,,,,,,,,,,,,,,,,,,,,145.53399960000002,145.54923329999997,146.03285219999998,146.0374696,146.0525447,148.19773199999997,,,,,148.19787499999995,148.2145021,,148.39805519999993,146.0525447,,,,,,,,0,0,2.1298433000000614,None,,,,,,,,868,24,M,R,2026-02-23_11h09.45.064,VisualSearch_2526_3,,2025.2.4,2026-02-23 11h09.45.591801 +0100,
tilted.xlsx,The target is tilted.,117,29,5,3,1,0,0,0,0,0,0,0,0,0,0,0,0,0,1,117,space,9.379017700000077,None,1,1,0.6937159999999949,None,space,5.674462100000028,None,0,0,0,0,,,,,3,5,29,3,148.41439560000003,,,,,,,,,,,,,,,,,,,,,148.39887249999992,148.41439560000003,148.8982287,148.90295330000004,148.9184169,149.61529699999994,,,,,149.61555409999994,149.6301201,149.83052829999997,149.81410649999998,,,,,,,,,1,1,0.6937159999999949,None,,,,,,,,868,24,M,R,2026-02-23_11h09.45.064,VisualSearch_2526_3,,2025.2.4,2026-02-23 11h09.45.591801 +0100,
tilted.xlsx,The target is tilted.,117,30,6,3,1,1,1,1,0,0,0,0,0,0,0,0,0,3,4,117,space,9.379017700000077,None,1,1,0.7382182999999714,None,space,5.674462100000028,None,0,0,0,0,,,,,3,6,30,2,149.83052829999997,,,,,,,,,,,,,,,,,,,,,149.81489939999994,149.83052829999997,150.31434130000002,150.31895829999996,150.33364729999994,151.08047879999992,,,,,151.08060769999997,151.09621779999998,151.29656899999998,151.2804764,150.33364729999994,,,,,,,,1,1,0.7382182999999714,None,,,,,,,,868,24,M,R,2026-02-23_11h09.45.064,VisualSearch_2526_3,,2025.2.4,2026-02-23 11h09.45.591801 +0100,
tilted.xlsx,The target is tilted.,117,31,7,3,1,1,1,1,1,1,1,1,0,0,0,0,0,7,8,117,space,9.379017700000077,None,1,1,0.8261936999999762,None,space,5.674462100000028,None,0,0,0,0,,,,,3,7,31,1,151.29656899999998,,,,,,,,,,,,,,,,,,,,,151.2812444,151.29656899999998,151.78031279999993,151.78498430000002,151.79927020000002,152.63004949999993,,,,,152.63022519999993,152.64550209999993,152.84616019999999,152.82977749999998,151.79927020000002,,,,,,,,1,1,0.8261936999999762,None,,,,,,,,868,24,M,R,2026-02-23_11h09.45.064,VisualSearch_2526_3,,2025.2.4,2026-02-23 11h09.45.591801 +0100,
tilted.xlsx,The target is tilted.,117,32,0,4,0,1,1,1,0,0,0,0,0,0,0,0,1,3,4,117,space,9.379017700000077,None,0,1,0.750612599999954,None,space,5.674462100000028,None,0,0,0,0,,,,,4,0,32,6,152.84616019999999,,,,,,,,,,,,,,,,,,,,,152.8305547,152.84616019999999,153.32952469999998,153.33419949999995,153.35196050000002,154.1132245,,,,,154.11342209999998,154.12818319999997,154.32834860000003,154.31221859999994,153.35196050000002,,,,,,,,0,1,0.750612599999954,None,,,,,,,,868,24,M,R,2026-02-23_11h09.45.064,VisualSearch_2526_3,,2025.2.4,2026-02-23 11h09.45.591801 +0100,
tilted.xlsx,The target is tilted.,117,33,1,4,1,1,1,1,1,1,1,1,0,0,0,0,0,7,8,117,space,9.379017700000077,None,0,0,1.4963054000000966,None,space,5.674462100000028,None,0,0,0,0,,,,,4,1,33,1,154.32834860000003,,,,,,,,,,,,,,,,,,,,,154.31297510000002,154.32834860000003,154.81235659999993,154.81705509999995,154.83214680000003,156.3441017,,,,,156.3441894,156.3608458,,156.5444857,154.83214680000003,,,,,,,,0,0,1.4963054000000966,None,,,,,,,,868,24,M,R,2026-02-23_11h09.45.064,VisualSearch_2526_3,,2025.2.4,2026-02-23 11h09.45.591801 +0100,
tilted.xlsx,The target is tilted.,117,34,2,4,0,1,1,1,1,1,1,1,1,1,1,1,1,11,12,117,space,9.379017700000077,None,0,1,2.2115654000000404,None,space,5.674462100000028,None,0,0,0,0,,,,,4,2,34,4,156.56090559999996,,,,,,,,,,,,,,,,,,,,,156.54522550000002,156.56090559999996,157.04442499999993,157.04898849999995,157.06513399999994,159.29284740000003,,,,,159.29295479999996,159.30951689999995,,159.49323070000003,,,,,,,,,0,1,2.2115654000000404,None,,,,,,,,868,24,M,R,2026-02-23_11h09.45.064,VisualSearch_2526_3,,2025.2.4,2026-02-23 11h09.45.591801 +0100,
tilted.xlsx,The target is tilted.,117,35,3,4,1,1,1,1,1,1,1,1,1,1,1,1,0,11,12,117,space,9.379017700000077,None,0,0,1.830758400000036,None,space,5.674462100000028,None,0,0,0,0,,,,,4,3,35,0,159.5095331,,,,,,,,,,,,,,,,,,,,,159.4940593,159.5095331,159.99308529999996,159.99790380000002,160.01292219999993,161.85896309999998,,,,,161.85914949999994,161.87466499999994,162.07507450000003,162.05865729999994,,,,,,,,,0,0,1.830758400000036,None,,,,,,,,868,24,M,R,2026-02-23_11h09.45.064,VisualSearch_2526_3,,2025.2.4,2026-02-23 11h09.45.591801 +0100,
tilted.xlsx,The target is tilted.,117,36,4,4,1,1,1,1,0,0,0,0,0,0,0,0,0,3,4,117,space,9.379017700000077,None,0,0,0.7362417000000505,None,space,5.674462100000028,None,0,0,0,0,,,,,4,4,36,2,162.07507450000003,,,,,,,,,,,,,,,,,,,,,162.0594122,162.07507450000003,162.55870470000002,162.56340309999996,162.57476350000002,163.3249184,,,,,163.32513619999997,163.34072819999994,163.54120060000002,163.52483789999997,162.57476350000002,,,,,,,,0,0,0.7362417000000505,None,,,,,,,,868,24,M,R,2026-02-23_11h09.45.064,VisualSearch_2526_3,,2025.2.4,2026-02-23 11h09.45.591801 +0100,
tilted.xlsx,The target is tilted.,117,37,5,4,0,0,0,0,0,0,0,0,0,0,0,0,1,1,1,117,space,9.379017700000077,None,0,1,0.6147819000000254,None,space,5.674462100000028,None,0,0,0,0,,,,,4,5,37,7,163.54120060000002,,,,,,,,,,,,,,,,,,,,,163.52570179999998,163.54120060000002,164.02484930000003,164.0295208,164.0444132,164.67430449999995,,,,,164.67446589999997,164.69003839999993,164.89009379999993,164.8740312,164.0444132,,,,,,,,0,1,0.6147819000000254,None,,,,,,,,868,24,M,R,2026-02-23_11h09.45.064,VisualSearch_2526_3,,2025.2.4,2026-02-23 11h09.45.591801 +0100,
tilted.xlsx,The target is tilted.,117,38,6,4,1,0,0,0,0,0,0,0,0,0,0,0,0,0,1,117,space,9.379017700000077,None,1,1,0.7311700999999857,None,space,5.674462100000028,None,0,0,0,0,,,,,4,6,38,3,164.89009379999993,,,,,,,,,,,,,,,,,,,,,164.8747952,164.89009379999993,165.37409460000003,165.37877149999997,165.3931983,166.139766,,,,,166.1398706,166.15647839999997,,166.34006439999996,165.3931983,,,,,,,,1,1,0.7311700999999857,None,,,,,,,,868,24,M,R,2026-02-23_11h09.45.064,VisualSearch_2526_3,,2025.2.4,2026-02-23 11h09.45.591801 +0100,
tilted.xlsx,The target is tilted.,117,39,7,4,0,1,1,1,1,1,1,1,0,0,0,0,1,7,8,117,space,9.379017700000077,None,0,1,2.0635772000000543,None,space,5.674462100000028,None,0,0,0,0,,,,,4,7,39,5,166.35658709999996,,,,,,,,,,,,,,,,,,,,,166.34085559999994,166.35658709999996,166.84013629999993,166.84480899999994,166.85930009999993,168.93855699999995,,,,,168.93868279999992,168.95519860000002,169.15529119999997,169.13879239999994,166.85930009999993,,,,,,,,0,1,2.0635772000000543,None,,,,,,,,868,24,M,R,2026-02-23_11h09.45.064,VisualSearch_2526_3,,2025.2.4,2026-02-23 11h09.45.591801 +0100,
tilted.xlsx,The target is tilted.,117,40,0,5,1,0,0,0,0,0,0,0,0,0,0,0,0,0,1,117,space,9.379017700000077,None,1,1,0.7196927999999616,None,space,5.674462100000028,None,0,0,0,0,,,,,5,0,40,3,169.15529119999997,,,,,,,,,,,,,,,,,,,,,169.13953789999994,169.15529119999997,169.63846999999998,169.64316940000003,169.65801509999994,170.38849170000003,,,,,170.3886615,170.40409490000002,170.6041543,170.58836689999998,169.65801509999994,,,,,,,,1,1,0.7196927999999616,None,,,,,,,,868,24,M,R,2026-02-23_11h09.45.064,VisualSearch_2526_3,,2025.2.4,2026-02-23 11h09.45.591801 +0100,
tilted.xlsx,The target is tilted.,117,41,1,5,1,1,1,1,1,1,1,1,1,1,1,1,0,11,12,117,space,9.379017700000077,None,1,1,1.3960439999999608,None,space,5.674462100000028,None,0,0,0,0,,,,,5,1,41,0,170.6041543,,,,,,,,,,,,,,,,,,,,,170.5890994,170.6041543,171.08798119999994,171.09270809999998,171.1077659,172.52076539999996,,,,,172.52097070000002,172.53647690000003,172.73697489999995,172.72076249999998,171.1077659,,,,,,,,1,1,1.3960439999999608,None,,,,,,,,868,24,M,R,2026-02-23_11h09.45.064,VisualSearch_2526_3,,2025.2.4,2026-02-23 11h09.45.591801 +0100,
tilted.xlsx,The target is tilted.,117,42,2,5,0,1,1,1,1,1,1,1,0,0,0,0,1,7,8,117,space,9.379017700000077,None,0,1,2.265874599999961,None,space,5.674462100000028,None,0,0,0,0,,,,,5,2,42,5,172.73697489999995,,,,,,,,,,,,,,,,,,,,,172.72153349999996,172.73697489999995,173.2205444,173.22532479999995,173.239828,175.51929369999993,,,,,175.51939570000002,175.53501659999995,175.735547,175.71901349999996,173.239828,,,,,,,,0,1,2.265874599999961,None,,,,,,,,868,24,M,R,2026-02-23_11h09.45.064,VisualSearch_2526_3,,2025.2.4,2026-02-23 11h09.45.591801 +0100,
tilted.xlsx,The target is tilted.,117,43,3,5,0,1,1,1,0,0,0,0,0,0,0,0,1,3,4,117,space,9.379017700000077,None,0,1,0.7426356000000851,None,space,5.674462100000028,None,0,0,0,0,,,,,5,3,43,6,175.735547,,,,,,,,,,,,,,,,,,,,,175.71978179999996,175.735547,176.21864559999995,176.22331729999996,176.23640950000004,176.98614129999999,,,,,176.98634029999994,177.00113639999995,177.20157259999996,177.18539399999997,176.23640950000004,,,,,,,,0,1,0.7426356000000851,None,,,,,,,,868,24,M,R,2026-02-23_11h09.45.064,VisualSearch_2526_3,,2025.2.4,2026-02-23 11h09.45.591801 +0100,
tilted.xlsx,The target is tilted.,117,44,4,5,1,1,1,1,0,0,0,0,0,0,0,0,0,3,4,117,space,9.379017700000077,None,1,1,1.0106804000000693,None,space,5.674462100000028,None,0,0,0,0,,,,,5,4,44,2,177.20157259999996,,,,,,,,,,,,,,,,,,,,,177.1862357,177.20157259999996,177.68524739999998,177.68979949999994,177.70422869999993,178.7180426,,,,,178.71822079999993,178.73364089999995,178.93424959999993,178.91803930000003,177.70422869999993,,,,,,,,1,1,1.0106804000000693,None,,,,,,,,868,24,M,R,2026-02-23_11h09.45.064,VisualSearch_2526_3,,2025.2.4,2026-02-23 11h09.45.591801 +0100,
tilted.xlsx,The target is tilted.,117,45,5,5,1,1,1,1,1,1,1,1,0,0,0,0,0,7,8,117,space,9.379017700000077,None,1,1,1.8259321000000455,None,space,5.674462100000028,None,0,0,0,0,,,,,5,5,45,1,178.93424959999993,,,,,,,,,,,,,,,,,,,,,178.91891580000004,178.93424959999993,179.41737590000002,179.41938619999996,179.43369769999993,181.26616639999997,,,,,181.26626,181.28224590000002,181.48220319999996,181.46576989999994,179.43369769999993,,,,,,,,1,1,1.8259321000000455,None,,,,,,,,868,24,M,R,2026-02-23_11h09.45.064,VisualSearch_2526_3,,2025.2.4,2026-02-23 11h09.45.591801 +0100,
tilted.xlsx,The target is tilted.,117,46,6,5,0,0,0,0,0,0,0,0,0,0,0,0,1,1,1,117,space,9.379017700000077,None,0,1,0.5701871999999639,None,space,5.674462100000028,None,0,0,0,0,,,,,5,6,46,7,181.48220319999996,,,,,,,,,,,,,,,,,,,,,181.4661529,181.48220319999996,181.9663087,181.9705593,181.98404870000002,182.56648719999998,,,,,182.56662529999994,182.5820566,182.7824835,182.76637989999995,181.98404870000002,,,,,,,,0,1,0.5701871999999639,None,,,,,,,,868,24,M,R,2026-02-23_11h09.45.064,VisualSearch_2526_3,,2025.2.4,2026-02-23 11h09.45.591801 +0100,
tilted.xlsx,The target is tilted.,117,47,7,5,0,1,1,1,1,1,1,1,1,1,1,1,1,11,12,117,space,9.379017700000077,None,0,1,2.5614510999999993,None,space,5.674462100000028,None,0,0,0,0,,,,,5,7,47,4,182.7824835,,,,,,,,,,,,,,,,,,,,,182.76720809999995,182.7824835,183.26626320000003,183.2715366,183.2875699,185.86441409999998,,,,,185.864553,185.88049089999993,186.0809587,186.06483019999996,183.2875699,,,,,,,,0,1,2.5614510999999993,None,,,,,,,,868,24,M,R,2026-02-23_11h09.45.064,VisualSearch_2526_3,,2025.2.4,2026-02-23 11h09.45.591801 +0100,
tilted.xlsx,The target is tilted.,117,48,0,6,1,1,1,1,1,1,1,1,0,0,0,0,0,7,8,117,space,9.379017700000077,None,1,1,2.0490694999999732,None,space,5.674462100000028,None,0,0,0,0,,,,,6,0,48,1,186.0809587,,,,,,,,,,,,,,,,,,,,,186.06567329999996,186.0809587,186.56462199999999,186.5692828,186.5847195,188.64703529999997,,,,,188.6472374,188.66251369999998,188.86254839999992,188.84644619999995,186.5847195,,,,,,,,1,1,2.0490694999999732,None,,,,,,,,868,24,M,R,2026-02-23_11h09.45.064,VisualSearch_2526_3,,2025.2.4,2026-02-23 11h09.45.591801 +0100,
tilted.xlsx,The target is tilted.,117,49,1,6,0,0,0,0,0,0,0,0,0,0,0,0,1,1,1,117,space,9.379017700000077,None,0,1,0.6305969000000005,None,space,5.674462100000028,None,0,0,0,0,,,,,6,1,49,7,188.86254839999992,,,,,,,,,,,,,,,,,,,,,188.84716549999996,188.86254839999992,189.346277,189.35129940000002,189.3658544,190.0128128,,,,,190.01301749999993,190.02875010000002,190.22885150000002,190.21286329999998,189.3658544,,,,,,,,0,1,0.6305969000000005,None,,,,,,,,868,24,M,R,2026-02-23_11h09.45.064,VisualSearch_2526_3,,2025.2.4,2026-02-23 11h09.45.591801 +0100,
tilted.xlsx,The target is tilted.,117,50,2,6,0,1,1,1,1,1,1,1,0,0,0,0,1,7,8,117,space,9.379017700000077,None,0,1,2.854877999999985,None,space,5.674462100000028,None,0,0,0,0,,,,,6,2,50,5,190.22885150000002,,,,,,,,,,,,,,,,,,,,,190.213615,190.22885150000002,190.71267309999996,190.71881610000003,190.73339190000002,193.59416550000003,,,,,193.59427129999995,193.61011239999993,193.81004029999997,193.79367319999994,190.73339190000002,,,,,,,,0,1,2.854877999999985,None,,,,,,,,868,24,M,R,2026-02-23_11h09.45.064,VisualSearch_2526_3,,2025.2.4,2026-02-23 11h09.45.591801 +0100,
tilted.xlsx,The target is tilted.,117,51,3,6,0,1,1,1,1,1,1,1,1,1,1,1,1,11,12,117,space,9.379017700000077,None,0,1,2.625025199999982,None,space,5.674462100000028,None,0,0,0,0,,,,,6,3,51,4,193.81004029999997,,,,,,,,,,,,,,,,,,,,,193.79411529999993,193.81004029999997,194.2935387,194.29609949999997,194.30978629999993,196.94270399999994,,,,,196.94282079999994,196.95866060000003,197.15842969999994,197.14194320000001,194.30978629999993,,,,,,,,0,1,2.625025199999982,None,,,,,,,,868,24,M,R,2026-02-23_11h09.45.064,VisualSearch_2526_3,,2025.2.4,2026-02-23 11h09.45.591801 +0100,
tilted.xlsx,The target is tilted.,117,52,4,6,1,1,1,1,0,0,0,0,0,0,0,0,0,3,4,117,space,9.379017700000077,None,1,1,1.0122934999999416,None,space,5.674462100000028,None,0,0,0,0,,,,,6,4,52,2,197.15842969999994,,,,,,,,,,,,,,,,,,,,,197.14227729999993,197.15842969999994,197.6419545,197.64424829999996,197.6584434,198.67621529999997,,,,,198.6764207,198.6914276,198.89139850000004,198.87546629999997,197.6584434,,,,,,,,1,1,1.0122934999999416,None,,,,,,,,868,24,M,R,2026-02-23_11h09.45.064,VisualSearch_2526_3,,2025.2.4,2026-02-23 11h09.45.591801 +0100,
tilted.xlsx,The target is tilted.,117,53,5,6,1,1,1,1,1,1,1,1,1,1,1,1,0,11,12,117,space,9.379017700000077,None,1,1,1.9809830000000375,None,space,5.674462100000028,None,0,0,0,0,,,,,6,5,53,0,198.89139850000004,,,,,,,,,,,,,,,,,,,,,198.8763113,198.89139850000004,199.3756121,199.38079389999996,199.39714659999993,201.3913103,,,,,201.39146040000003,201.4066173,201.60683089999998,201.59107359999996,199.39714659999993,,,,,,,,1,1,1.9809830000000375,None,,,,,,,,868,24,M,R,2026-02-23_11h09.45.064,VisualSearch_2526_3,,2025.2.4,2026-02-23 11h09.45.591801 +0100,
tilted.xlsx,The target is tilted.,117,54,6,6,1,0,0,0,0,0,0,0,0,0,0,0,0,0,1,117,space,9.379017700000077,None,0,0,0.5222927000000936,None,space,5.674462100000028,None,0,0,0,0,,,,,6,6,54,3,201.60683089999998,,,,,,,,,,,,,,,,,,,,,201.59182969999995,201.60683089999998,202.09050430000002,202.0953174,202.10965699999997,202.64029419999997,,,,,202.640441,202.6561425,202.85663709999994,202.84054719999995,202.10965699999997,,,,,,,,0,0,0.5222927000000936,None,,,,,,,,868,24,M,R,2026-02-23_11h09.45.064,VisualSearch_2526_3,,2025.2.4,2026-02-23 11h09.45.591801 +0100,
tilted.xlsx,The target is tilted.,117,55,7,6,0,1,1,1,0,0,0,0,0,0,0,0,1,3,4,117,space,9.379017700000077,None,0,1,1.37944420000008,None,space,5.674462100000028,None,0,0,0,0,,,,,6,7,55,6,202.85663709999994,,,,,,,,,,,,,,,,,,,,,202.84126059999994,202.85663709999994,203.3403591,203.34509430000003,203.35968739999998,204.75621209999997,,,,,204.75654759999998,204.7719786,204.97190019999994,204.9561334,203.35968739999998,,,,,,,,0,1,1.37944420000008,None,,,,,,,,868,24,M,R,2026-02-23_11h09.45.064,VisualSearch_2526_3,,2025.2.4,2026-02-23 11h09.45.591801 +0100,
tilted.xlsx,The target is tilted.,117,56,0,7,0,0,0,0,0,0,0,0,0,0,0,0,1,1,1,117,space,9.379017700000077,None,0,1,0.7291672000000062,None,space,5.674462100000028,None,0,0,0,0,,,,,7,0,56,7,204.97190019999994,,,,,,,,,,,,,,,,,,,,,204.95690709999997,204.97190019999994,205.45593129999997,205.4605322,205.47676609999996,206.22225059999994,,,,,206.22245769999995,206.2378784,206.43790609999996,206.42181659999994,205.47676609999996,,,,,,,,0,1,0.7291672000000062,None,,,,,,,,868,24,M,R,2026-02-23_11h09.45.064,VisualSearch_2526_3,,2025.2.4,2026-02-23 11h09.45.591801 +0100,
tilted.xlsx,The target is tilted.,117,57,1,7,0,1,1,1,1,1,1,1,1,1,1,1,1,11,12,117,space,9.379017700000077,None,0,1,2.98786640000003,None,space,5.674462100000028,None,0,0,0,0,,,,,7,1,57,4,206.43790609999996,,,,,,,,,,,,,,,,,,,,,206.4225771,206.43790609999996,206.9216702,206.92578259999993,206.93886650000002,209.9379447,,,,,209.93817,209.95289049999997,210.15325659999996,210.13719419999995,206.93886650000002,,,,,,,,0,1,2.98786640000003,None,,,,,,,,868,24,M,R,2026-02-23_11h09.45.064,VisualSearch_2526_3,,2025.2.4,2026-02-23 11h09.45.591801 +0100,
tilted.xlsx,The target is tilted.,117,58,2,7,1,1,1,1,1,1,1,1,0,0,0,0,0,7,8,117,space,9.379017700000077,None,1,1,1.783295599999974,None,space,5.674462100000028,None,0,0,0,0,,,,,7,2,58,1,210.15325659999996,,,,,,,,,,,,,,,,,,,,,210.13796679999996,210.15325659999996,210.63660659999994,210.64120079999998,210.6525216,212.45218190000003,,,,,212.45230429999992,212.4687268,,212.6524958,210.6525216,,,,,,,,1,1,1.783295599999974,None,,,,,,,,868,24,M,R,2026-02-23_11h09.45.064,VisualSearch_2526_3,,2025.2.4,2026-02-23 11h09.45.591801 +0100,
tilted.xlsx,The target is tilted.,117,59,3,7,1,0,0,0,0,0,0,0,0,0,0,0,0,0,1,117,space,9.379017700000077,None,1,1,0.7154709000000139,None,space,5.674462100000028,None,0,0,0,0,,,,,7,3,59,3,212.6684666,,,,,,,,,,,,,,,,,,,,,212.65327079999997,212.6684666,213.152424,213.1571262,213.17263089999994,213.90171250000003,,,,,213.90185580000002,213.91773309999996,214.1181014,214.10195239999996,213.17263089999994,,,,,,,,1,1,0.7154709000000139,None,,,,,,,,868,24,M,R,2026-02-23_11h09.45.064,VisualSearch_2526_3,,2025.2.4,2026-02-23 11h09.45.591801 +0100,
tilted.xlsx,The target is tilted.,117,60,4,7,1,1,1,1,0,0,0,0,0,0,0,0,0,3,4,117,space,9.379017700000077,None,1,1,0.7340805999999702,None,space,5.674462100000028,None,0,0,0,0,,,,,7,4,60,2,214.1181014,,,,,,,,,,,,,,,,,,,,,214.10271079999995,214.1181014,214.60192719999998,214.6069251,214.6212673,215.3679528,,,,,215.36812939999993,215.38374509999994,215.5842295,215.56810410000003,214.6212673,,,,,,,,1,1,0.7340805999999702,None,,,,,,,,868,24,M,R,2026-02-23_11h09.45.064,VisualSearch_2526_3,,2025.2.4,2026-02-23 11h09.45.591801 +0100,
tilted.xlsx,The target is tilted.,117,61,5,7,0,1,1,1,1,1,1,1,0,0,0,0,1,7,8,117,space,9.379017700000077,None,0,1,1.8587314000000106,None,space,5.674462100000028,None,0,0,0,0,,,,,7,5,61,5,215.5842295,,,,,,,,,,,,,,,,,,,,,215.5688358,215.5842295,216.06780849999996,216.07244130000004,216.0874056,217.9503125,,,,,217.95048780000002,217.9658574,218.16609059999996,218.15016819999994,216.0874056,,,,,,,,0,1,1.8587314000000106,None,,,,,,,,868,24,M,R,2026-02-23_11h09.45.064,VisualSearch_2526_3,,2025.2.4,2026-02-23 11h09.45.591801 +0100,
tilted.xlsx,The target is tilted.,117,62,6,7,1,1,1,1,1,1,1,1,1,1,1,1,0,11,12,117,space,9.379017700000077,None,1,1,1.3831797000000279,None,space,5.674462100000028,None,0,0,0,0,,,,,7,6,62,0,218.16609059999996,,,,,,,,,,,,,,,,,,,,,218.15094799999997,218.16609059999996,218.64991450000002,218.655665,218.67020509999998,220.06659530000002,,,,,220.0667891999999,220.08164809999994,220.28163369999993,220.26585640000008,218.67020509999998,,,,,,,,1,1,1.3831797000000279,None,,,,,,,,868,24,M,R,2026-02-23_11h09.45.064,VisualSearch_2526_3,,2025.2.4,2026-02-23 11h09.45.591801 +0100,
tilted.xlsx,The target is tilted.,117,63,7,7,0,1,1,1,0,0,0,0,0,0,0,0,1,3,4,117,space,9.379017700000077,None,0,1,0.8947472999998354,None,space,5.674462100000028,None,0,0,0,0,,,,,7,7,63,6,220.28163369999993,,,,,,,,,,,,,,,,,,,,,220.26660620000007,220.28163369999993,220.76540729999988,220.77023489999988,220.78346190000002,221.6821499,,,,,221.68232869999997,221.69751509999992,221.89801549999993,221.88191419999998,220.78346190000002,,,,,,,,0,1,0.8947472999998354,None,,,,,,,,868,24,M,R,2026-02-23_11h09.45.064,VisualSearch_2526_3,,2025.2.4,2026-02-23 11h09.45.591801 +0100,
tilted.xlsx,The target is tilted.,117,64,0,8,1,0,0,0,0,0,0,0,0,0,0,0,0,0,1,117,space,9.379017700000077,None,1,1,0.7548272999999881,None,space,5.674462100000028,None,0,0,0,0,,,,,8,0,64,3,221.89801549999993,,,,,,,,,,,,,,,,,,,,,221.8826896999999,221.89801549999993,222.38131789999989,222.38601679999988,222.40151739999988,223.16450800000007,,,,,223.1646561,223.18006100000002,223.38062020000007,223.36457139999993,222.40151739999988,,,,,,,,1,1,0.7548272999999881,None,,,,,,,,868,24,M,R,2026-02-23_11h09.45.064,VisualSearch_2526_3,,2025.2.4,2026-02-23 11h09.45.591801 +0100,
tilted.xlsx,The target is tilted.,117,65,1,8,0,1,1,1,0,0,0,0,0,0,0,0,1,3,4,117,space,9.379017700000077,None,0,1,0.9145125000000007,None,space,5.674462100000028,None,0,0,0,0,,,,,8,1,65,6,223.38062020000007,,,,,,,,,,,,,,,,,,,,,223.3653253,223.38062020000007,223.864063,223.86890960000005,223.88377990000004,224.8134195,,,,,224.81349610000007,224.82926399999997,,225.0136597999999,223.88377990000004,,,,,,,,0,1,0.9145125000000007,None,,,,,,,,868,24,M,R,2026-02-23_11h09.45.064,VisualSearch_2526_3,,2025.2.4,2026-02-23 11h09.45.591801 +0100,
tilted.xlsx,The target is tilted.,117,66,2,8,0,1,1,1,1,1,1,1,1,1,1,1,1,11,12,117,space,9.379017700000077,None,0,1,3.2057623999999123,None,space,5.674462100000028,None,0,0,0,0,,,,,8,2,66,4,225.03002149999998,,,,,,,,,,,,,,,,,,,,,225.01454609999996,225.03002149999998,225.51374770000007,225.51898529999994,225.53306240000006,228.7459644999999,,,,,228.74616029999993,228.76101919999996,228.96145709999996,228.94536560000006,225.53306240000006,,,,,,,,0,1,3.2057623999999123,None,,,,,,,,868,24,M,R,2026-02-23_11h09.45.064,VisualSearch_2526_3,,2025.2.4,2026-02-23 11h09.45.591801 +0100,
tilted.xlsx,The target is tilted.,117,67,3,8,1,1,1,1,1,1,1,1,0,0,0,0,0,7,8,117,space,9.379017700000077,None,1,1,2.681682599999931,None,space,5.674462100000028,None,0,0,0,0,,,,,8,3,67,1,228.96145709999996,,,,,,,,,,,,,,,,,,,,,228.94610799999987,228.96145709999996,229.44510100000002,229.44974520000005,229.46153679999998,232.16009839999992,,,,,232.16019219999998,232.1764126999999,232.37647079999988,232.36033730000008,229.46153679999998,,,,,,,,1,1,2.681682599999931,None,,,,,,,,868,24,M,R,2026-02-23_11h09.45.064,VisualSearch_2526_3,,2025.2.4,2026-02-23 11h09.45.591801 +0100,
tilted.xlsx,The target is tilted.,117,68,4,8,0,1,1,1,1,1,1,1,0,0,0,0,1,7,8,117,space,9.379017700000077,None,0,1,2.0854812999998558,None,space,5.674462100000028,None,0,0,0,0,,,,,8,4,68,5,232.37647079999988,,,,,,,,,,,,,,,,,,,,,232.36111469999992,232.37647079999988,232.86018179999996,232.86482380000007,232.87940989999993,234.97615139999994,,,,,234.97631339999998,234.99137189999988,235.19157300000006,235.17545760000007,232.87940989999993,,,,,,,,0,1,2.0854812999998558,None,,,,,,,,868,24,M,R,2026-02-23_11h09.45.064,VisualSearch_2526_3,,2025.2.4,2026-02-23 11h09.45.591801 +0100,
tilted.xlsx,The target is tilted.,117,69,5,8,1,1,1,1,0,0,0,0,0,0,0,0,0,3,4,117,space,9.379017700000077,None,1,1,0.6568809000000329,None,space,5.674462100000028,None,0,0,0,0,,,,,8,5,69,2,235.19157300000006,,,,,,,,,,,,,,,,,,,,,235.1762372999999,235.19157300000006,235.67560400000002,235.68017229999987,235.69522460000007,236.35864760000004,,,,,236.3587797,236.37420300000008,236.57475309999995,236.5581921999999,235.69522460000007,,,,,,,,1,1,0.6568809000000329,None,,,,,,,,868,24,M,R,2026-02-23_11h09.45.064,VisualSearch_2526_3,,2025.2.4,2026-02-23 11h09.45.591801 +0100,
tilted.xlsx,The target is tilted.,117,70,6,8,0,0,0,0,0,0,0,0,0,0,0,0,1,1,1,117,space,9.379017700000077,None,0,1,0.7769411000001583,None,space,5.674462100000028,None,0,0,0,0,,,,,8,6,70,7,236.57475309999995,,,,,,,,,,,,,,,,,,,,,236.5589333999999,236.57475309999995,237.05841140000007,237.06359900000007,237.07818040000006,237.8579823,,,,,237.85811710000007,237.87338939999995,238.0735047999999,238.05770789999997,237.07818040000006,,,,,,,,0,1,0.7769411000001583,None,,,,,,,,868,24,M,R,2026-02-23_11h09.45.064,VisualSearch_2526_3,,2025.2.4,2026-02-23 11h09.45.591801 +0100,
tilted.xlsx,The target is tilted.,117,71,7,8,1,1,1,1,1,1,1,1,1,1,1,1,0,11,12,117,space,9.379017700000077,None,0,0,2.586574500000097,None,space,5.674462100000028,None,0,0,0,0,,,,,8,7,71,0,238.0735047999999,,,,,,,,,,,,,,,,,,,,,238.05844860000002,238.0735047999999,238.55772550000006,238.56235829999991,238.57725809999988,241.1732712999999,,,,,241.17347219999988,241.18874570000003,241.38904509999998,241.37294550000001,238.57725809999988,,,,,,,,0,0,2.586574500000097,None,,,,,,,,868,24,M,R,2026-02-23_11h09.45.064,VisualSearch_2526_3,,2025.2.4,2026-02-23 11h09.45.591801 +0100,
tilted.xlsx,The target is tilted.,117,72,0,9,0,1,1,1,0,0,0,0,0,0,0,0,1,3,4,117,space,9.379017700000077,None,0,1,0.9857683000000179,None,space,5.674462100000028,None,0,0,0,0,,,,,9,0,72,6,241.38904509999998,,,,,,,,,,,,,,,,,,,,,241.37376319999998,241.38904509999998,241.87271379999993,241.87731299999996,241.89287979999995,242.88930349999987,,,,,242.8894957,242.9045254,243.1050327999999,243.08856530000003,241.89287979999995,,,,,,,,0,1,0.9857683000000179,None,,,,,,,,868,24,M,R,2026-02-23_11h09.45.064,VisualSearch_2526_3,,2025.2.4,2026-02-23 11h09.45.591801 +0100,
tilted.xlsx,The target is tilted.,117,73,1,9,0,0,0,0,0,0,0,0,0,0,0,0,1,1,1,117,space,9.379017700000077,None,0,1,0.640155199999981,None,space,5.674462100000028,None,0,0,0,0,,,,,9,1,73,7,243.1050327999999,,,,,,,,,,,,,,,,,,,,,243.08930039999996,243.1050327999999,243.58852180000008,243.5931197,243.60814630000004,244.2551957999999,,,,,244.25541129999988,244.2706776,244.47111539999992,244.45499599999994,243.60814630000004,,,,,,,,0,1,0.640155199999981,None,,,,,,,,868,24,M,R,2026-02-23_11h09.45.064,VisualSearch_2526_3,,2025.2.4,2026-02-23 11h09.45.591801 +0100,
tilted.xlsx,The target is tilted.,117,74,2,9,0,1,1,1,1,1,1,1,1,1,1,1,1,11,12,117,space,9.379017700000077,None,0,1,4.081712100000004,None,space,5.674462100000028,None,0,0,0,0,,,,,9,2,74,4,244.47111539999992,,,,,,,,,,,,,,,,,,,,,244.4557453,244.47111539999992,244.95494630000007,244.95977169999992,244.97403250000002,249.06920960000002,,,,,249.06932230000007,249.08501739999997,249.28556439999988,249.2692724000001,244.97403250000002,,,,,,,,0,1,4.081712100000004,None,,,,,,,,868,24,M,R,2026-02-23_11h09.45.064,VisualSearch_2526_3,,2025.2.4,2026-02-23 11h09.45.591801 +0100,
tilted.xlsx,The target is tilted.,117,75,3,9,1,1,1,1,1,1,1,1,1,1,1,1,0,11,12,117,space,9.379017700000077,None,1,1,2.55083599999989,None,space,5.674462100000028,None,0,0,0,0,,,,,9,3,75,0,249.28556439999988,,,,,,,,,,,,,,,,,,,,,249.27008460000002,249.28556439999988,249.76888099999996,249.77361309999992,249.7884532999999,252.35093140000004,,,,,252.35106849999988,252.36698069999989,252.5673858,252.55121839999993,249.7884532999999,,,,,,,,1,1,2.55083599999989,None,,,,,,,,868,24,M,R,2026-02-23_11h09.45.064,VisualSearch_2526_3,,2025.2.4,2026-02-23 11h09.45.591801 +0100,
tilted.xlsx,The target is tilted.,117,76,4,9,1,1,1,1,1,1,1,1,0,0,0,0,0,7,8,117,space,9.379017700000077,None,0,0,2.997122900000022,None,space,5.674462100000028,None,0,0,0,0,,,,,9,4,76,1,252.5673858,,,,,,,,,,,,,,,,,,,,,252.55198769999993,252.5673858,253.0507293999999,253.055435,253.0691981,256.0828111999999,,,,,256.0829844,256.0985559999999,256.2988868,256.28286649999995,253.0691981,,,,,,,,0,0,2.997122900000022,None,,,,,,,,868,24,M,R,2026-02-23_11h09.45.064,VisualSearch_2526_3,,2025.2.4,2026-02-23 11h09.45.591801 +0100,
tilted.xlsx,The target is tilted.,117,77,5,9,1,1,1,1,0,0,0,0,0,0,0,0,0,3,4,117,space,9.379017700000077,None,1,1,1.3107340999999906,None,space,5.674462100000028,None,0,0,0,0,,,,,9,5,77,2,256.2988868,,,,,,,,,,,,,,,,,,,,,256.2836247,256.2988868,256.7826462999999,256.7872024999999,256.80287799999996,258.11551459999987,,,,,258.11564939999994,258.1308815,258.33144259999995,258.3154746,256.80287799999996,,,,,,,,1,1,1.3107340999999906,None,,,,,,,,868,24,M,R,2026-02-23_11h09.45.064,VisualSearch_2526_3,,2025.2.4,2026-02-23 11h09.45.591801 +0100,
tilted.xlsx,The target is tilted.,117,78,6,9,1,0,0,0,0,0,0,0,0,0,0,0,0,0,1,117,space,9.379017700000077,None,1,1,0.8621497999999974,None,space,5.674462100000028,None,0,0,0,0,,,,,9,6,78,3,258.33144259999995,,,,,,,,,,,,,,,,,,,,,258.3162798999999,258.33144259999995,258.8146950999999,258.81926240000007,258.83368900000005,259.69836239999995,,,,,259.6985565,259.71354969999993,259.91364369999997,259.8975582999999,258.83368900000005,,,,,,,,1,1,0.8621497999999974,None,,,,,,,,868,24,M,R,2026-02-23_11h09.45.064,VisualSearch_2526_3,,2025.2.4,2026-02-23 11h09.45.591801 +0100,
tilted.xlsx,The target is tilted.,117,79,7,9,0,1,1,1,1,1,1,1,0,0,0,0,1,7,8,117,space,9.379017700000077,None,0,1,1.7078209999999672,None,space,5.674462100000028,None,0,0,0,0,,,,,9,7,79,5,259.91364369999997,,,,,,,,,,,,,,,,,,,,,259.8983217,259.91364369999997,260.3978981,260.4028693999999,260.41750439999987,262.13081239999997,,,,,262.13102060000006,262.14571720000004,262.3463815,262.3300850999999,260.41750439999987,,,,,,,,0,1,1.7078209999999672,None,,,,,,,,868,24,M,R,2026-02-23_11h09.45.064,VisualSearch_2526_3,,2025.2.4,2026-02-23 11h09.45.591801 +0100,
tilted.xlsx,The target is tilted.,117,80,0,10,0,1,1,1,1,1,1,1,1,1,1,1,1,11,12,117,space,9.379017700000077,None,0,1,2.4391412999998465,None,space,5.674462100000028,None,0,0,0,0,,,,,10,0,80,4,262.3463815,,,,,,,,,,,,,,,,,,,,,262.3308477999999,262.3463815,262.82956160000003,262.83416009999996,262.84831600000007,265.296106,,,,,265.29629980000004,265.3110733000001,265.5115659999999,265.4951492,262.84831600000007,,,,,,,,0,1,2.4391412999998465,None,,,,,,,,868,24,M,R,2026-02-23_11h09.45.064,VisualSearch_2526_3,,2025.2.4,2026-02-23 11h09.45.591801 +0100,
tilted.xlsx,The target is tilted.,117,81,1,10,1,1,1,1,0,0,0,0,0,0,0,0,0,3,4,117,space,9.379017700000077,None,1,1,0.7143442999999934,None,space,5.674462100000028,None,0,0,0,0,,,,,10,1,81,2,265.5115659999999,,,,,,,,,,,,,,,,,,,,,265.4959896999999,265.5115659999999,265.9952137,265.99970340000004,266.01576249999994,266.7443819,,,,,266.7445149,266.7602411999999,266.96087650000004,266.94474349999996,266.01576249999994,,,,,,,,1,1,0.7143442999999934,None,,,,,,,,868,24,M,R,2026-02-23_11h09.45.064,VisualSearch_2526_3,,2025.2.4,2026-02-23 11h09.45.591801 +0100,
tilted.xlsx,The target is tilted.,117,82,2,10,1,1,1,1,1,1,1,1,1,1,1,1,0,11,12,117,space,9.379017700000077,None,1,1,2.331650300000092,None,space,5.674462100000028,None,0,0,0,0,,,,,10,2,82,0,266.96087650000004,,,,,,,,,,,,,,,,,,,,,266.94552840000006,266.96087650000004,267.44418829999995,267.4485927999999,267.46597500000007,269.80992620000006,,,,,269.8100637,269.8257363,270.0258411,270.0099210000001,267.46597500000007,,,,,,,,1,1,2.331650300000092,None,,,,,,,,868,24,M,R,2026-02-23_11h09.45.064,VisualSearch_2526_3,,2025.2.4,2026-02-23 11h09.45.591801 +0100,
tilted.xlsx,The target is tilted.,117,83,3,10,1,0,0,0,0,0,0,0,0,0,0,0,0,0,1,117,space,9.379017700000077,None,1,1,0.6137615000000096,None,space,5.674462100000028,None,0,0,0,0,,,,,10,3,83,3,270.0258411,,,,,,,,,,,,,,,,,,,,,270.0106845999999,270.0258411,270.5097217,270.5150229000001,270.5313111999999,271.15921490000005,,,,,271.1593484,271.174933,271.37552260000007,271.35899670000003,270.5313111999999,,,,,,,,1,1,0.6137615000000096,None,,,,,,,,868,24,M,R,2026-02-23_11h09.45.064,VisualSearch_2526_3,,2025.2.4,2026-02-23 11h09.45.591801 +0100,
tilted.xlsx,The target is tilted.,117,84,4,10,0,1,1,1,0,0,0,0,0,0,0,0,1,3,4,117,space,9.379017700000077,None,0,1,0.7627081999999064,None,space,5.674462100000028,None,0,0,0,0,,,,,10,4,84,6,271.37552260000007,,,,,,,,,,,,,,,,,,,,,271.3597124999999,271.37552260000007,271.85905890000004,271.8637168,271.8780475000001,272.64270239999996,,,,,272.64290860000006,272.6580885000001,272.8580603999999,272.8419443,271.8780475000001,,,,,,,,0,1,0.7627081999999064,None,,,,,,,,868,24,M,R,2026-02-23_11h09.45.064,VisualSearch_2526_3,,2025.2.4,2026-02-23 11h09.45.591801 +0100,
tilted.xlsx,The target is tilted.,117,85,5,10,0,1,1,1,1,1,1,1,0,0,0,0,1,7,8,117,space,9.379017700000077,None,0,1,2.260101500000019,None,space,5.674462100000028,None,0,0,0,0,,,,,10,5,85,5,272.8580603999999,,,,,,,,,,,,,,,,,,,,,272.84270719999995,272.8580603999999,273.3418807999999,273.3464337999999,273.3625302999999,275.6247294,,,,,275.62495160000003,275.63987569999995,275.84017059999996,275.8241988,273.3625302999999,,,,,,,,0,1,2.260101500000019,None,,,,,,,,868,24,M,R,2026-02-23_11h09.45.064,VisualSearch_2526_3,,2025.2.4,2026-02-23 11h09.45.591801 +0100,
tilted.xlsx,The target is tilted.,117,86,6,10,0,0,0,0,0,0,0,0,0,0,0,0,1,1,1,117,space,9.379017700000077,None,0,1,0.6221072999999251,None,space,5.674462100000028,None,0,0,0,0,,,,,10,6,86,7,275.84017059999996,,,,,,,,,,,,,,,,,,,,,275.82506250000006,275.84017059999996,276.3237621999999,276.32829620000007,276.34303509999995,276.9740666,,,,,276.97425840000005,276.9894173,277.1895373,277.17339659999993,276.34303509999995,,,,,,,,0,1,0.6221072999999251,None,,,,,,,,868,24,M,R,2026-02-23_11h09.45.064,VisualSearch_2526_3,,2025.2.4,2026-02-23 11h09.45.591801 +0100,
tilted.xlsx,The target is tilted.,117,87,7,10,1,1,1,1,1,1,1,1,0,0,0,0,0,7,8,117,space,9.379017700000077,None,1,1,3.096433199999865,None,space,5.674462100000028,None,0,0,0,0,,,,,10,7,87,1,277.1895373,,,,,,,,,,,,,,,,,,,,,277.1741786,277.1895373,277.6731453,277.67774899999995,277.69236449999994,280.80573690000006,,,,,280.8059733,280.8211713999999,281.0207115999999,281.00458609999987,277.69236449999994,,,,,,,,1,1,3.096433199999865,None,,,,,,,,868,24,M,R,2026-02-23_11h09.45.064,VisualSearch_2526_3,,2025.2.4,2026-02-23 11h09.45.591801 +0100,
tilted.xlsx,The target is tilted.,117,88,0,11,0,1,1,1,1,1,1,1,1,1,1,1,1,11,12,117,space,9.379017700000077,None,0,1,3.7224350999999842,None,space,5.674462100000028,None,0,0,0,0,,,,,11,0,88,4,281.0207115999999,,,,,,,,,,,,,,,,,,,,,281.00531509999996,281.0207115999999,281.50480229999994,281.50951039999995,281.523813,285.2536333999999,,,,,285.2538227,285.2689912999999,285.4690341999999,285.45272109999996,281.523813,,,,,,,,0,1,3.7224350999999842,None,,,,,,,,868,24,M,R,2026-02-23_11h09.45.064,VisualSearch_2526_3,,2025.2.4,2026-02-23 11h09.45.591801 +0100,
tilted.xlsx,The target is tilted.,117,89,1,11,1,1,1,1,1,1,1,1,1,1,1,1,0,11,12,117,space,9.379017700000077,None,0,0,3.0660442999999304,None,space,5.674462100000028,None,0,0,0,0,,,,,11,1,89,0,285.4690341999999,,,,,,,,,,,,,,,,,,,,,285.45334049999997,285.4690341999999,285.9528316000001,285.95734249999987,285.97272670000007,289.05200919999993,,,,,289.05220340000005,289.0671181,289.26739210000005,289.25133549999987,285.97272670000007,,,,,,,,0,0,3.0660442999999304,None,,,,,,,,868,24,M,R,2026-02-23_11h09.45.064,VisualSearch_2526_3,,2025.2.4,2026-02-23 11h09.45.591801 +0100,
tilted.xlsx,The target is tilted.,117,90,2,11,1,1,1,1,0,0,0,0,0,0,0,0,0,3,4,117,space,9.379017700000077,None,1,1,0.6288007000000562,None,space,5.674462100000028,None,0,0,0,0,,,,,11,2,90,2,289.26739210000005,,,,,,,,,,,,,,,,,,,,,289.2520878999999,289.26739210000005,289.7505435999999,289.75501959999997,289.77057609999997,290.40095040000006,,,,,290.40101329999993,290.4165785,290.61677469999995,290.6002976,289.77057609999997,,,,,,,,1,1,0.6288007000000562,None,,,,,,,,868,24,M,R,2026-02-23_11h09.45.064,VisualSearch_2526_3,,2025.2.4,2026-02-23 11h09.45.591801 +0100,
tilted.xlsx,The target is tilted.,117,91,3,11,0,0,0,0,0,0,0,0,0,0,0,0,1,1,1,117,space,9.379017700000077,None,0,1,0.5545692999999119,None,space,5.674462100000028,None,0,0,0,0,,,,,11,3,91,7,290.61677469999995,,,,,,,,,,,,,,,,,,,,,290.60106640000004,290.61677469999995,291.1004290000001,291.104867,291.12117420000004,291.6840781000001,,,,,291.68427169999995,291.69925149999995,291.8994897,291.8833953999999,291.12117420000004,,,,,,,,0,1,0.5545692999999119,None,,,,,,,,868,24,M,R,2026-02-23_11h09.45.064,VisualSearch_2526_3,,2025.2.4,2026-02-23 11h09.45.591801 +0100,
tilted.xlsx,The target is tilted.,117,92,4,11,0,1,1,1,1,1,1,1,0,0,0,0,1,7,8,117,space,9.379017700000077,None,0,1,2.457778800000142,None,space,5.674462100000028,None,0,0,0,0,,,,,11,4,92,5,291.8994897,,,,,,,,,,,,,,,,,,,,,291.884133,291.8994897,292.38325899999995,292.38784669999995,292.4027973,294.86530289999996,,,,,294.86549820000005,294.88147000000004,295.08145360000003,295.0649301000001,292.4027973,,,,,,,,0,1,2.457778800000142,None,,,,,,,,868,24,M,R,2026-02-23_11h09.45.064,VisualSearch_2526_3,,2025.2.4,2026-02-23 11h09.45.591801 +0100,
tilted.xlsx,The target is tilted.,117,93,5,11,1,0,0,0,0,0,0,0,0,0,0,0,0,0,1,117,space,9.379017700000077,None,1,1,0.8086685000000671,None,space,5.674462100000028,None,0,0,0,0,,,,,11,5,93,3,295.08145360000003,,,,,,,,,,,,,,,,,,,,,295.0657105,295.08145360000003,295.56484120000005,295.56938309999987,295.5841031,296.3983481,,,,,296.3985207999999,296.4138860999999,296.61405820000004,296.59799369999996,295.5841031,,,,,,,,1,1,0.8086685000000671,None,,,,,,,,868,24,M,R,2026-02-23_11h09.45.064,VisualSearch_2526_3,,2025.2.4,2026-02-23 11h09.45.591801 +0100,
tilted.xlsx,The target is tilted.,117,94,6,11,1,1,1,1,1,1,1,1,0,0,0,0,0,7,8,117,space,9.379017700000077,None,1,1,1.3307689000000664,None,space,5.674462100000028,None,0,0,0,0,,,,,11,6,94,1,296.61405820000004,,,,,,,,,,,,,,,,,,,,,296.5987252,296.61405820000004,297.09785450000004,297.1025781999999,297.1175567,298.4639548,,,,,298.4641018,298.4797128,298.67977930000006,298.66342729999997,297.1175567,,,,,,,,1,1,1.3307689000000664,None,,,,,,,,868,24,M,R,2026-02-23_11h09.45.064,VisualSearch_2526_3,,2025.2.4,2026-02-23 11h09.45.591801 +0100,
tilted.xlsx,The target is tilted.,117,95,7,11,0,1,1,1,0,0,0,0,0,0,0,0,1,3,4,117,space,9.379017700000077,None,0,1,0.6988315999999486,None,space,5.674462100000028,None,0,0,0,0,,,,,11,7,95,6,298.67977930000006,,,,,,,,,,,,,,,,,,,,,298.6641852999999,298.67977930000006,299.163008,299.1677548,299.18306289999987,299.8969635000001,,,,,299.8971572999999,299.9125248,300.112388,300.0964225,299.18306289999987,,,,,,,,0,1,0.6988315999999486,None,,,,,,,,868,24,M,R,2026-02-23_11h09.45.064,VisualSearch_2526_3,,2025.2.4,2026-02-23 11h09.45.591801 +0100,
tilted.xlsx,The target is tilted.,117,96,0,12,1,0,0,0,0,0,0,0,0,0,0,0,0,0,1,117,space,9.379017700000077,None,1,1,0.8301428999998279,None,space,5.674462100000028,None,0,0,0,0,,,,,12,0,96,3,300.112388,,,,,,,,,,,,,,,,,,,,,300.0971509000001,300.112388,300.59623399999987,300.6007910999999,300.61774119999995,301.46231680000005,,,,,301.4624346999999,301.47789869999997,301.67807489999996,301.6623081,300.61774119999995,,,,,,,,1,1,0.8301428999998279,None,,,,,,,,868,24,M,R,2026-02-23_11h09.45.064,VisualSearch_2526_3,,2025.2.4,2026-02-23 11h09.45.591801 +0100,
tilted.xlsx,The target is tilted.,117,97,1,12,1,1,1,1,1,1,1,1,0,0,0,0,0,7,8,117,space,9.379017700000077,None,1,1,1.4941725999999562,None,space,5.674462100000028,None,0,0,0,0,,,,,12,1,97,1,301.67807489999996,,,,,,,,,,,,,,,,,,,,,301.6630350999999,301.67807489999996,302.1618983999999,302.16649089999987,302.1799017999999,303.6782739,,,,,303.6784636,303.6940377000001,303.89368620000005,303.87768929999993,302.1799017999999,,,,,,,,1,1,1.4941725999999562,None,,,,,,,,868,24,M,R,2026-02-23_11h09.45.064,VisualSearch_2526_3,,2025.2.4,2026-02-23 11h09.45.591801 +0100,
tilted.xlsx,The target is tilted.,117,98,2,12,0,1,1,1,1,1,1,1,1,1,1,1,1,11,12,117,space,9.379017700000077,None,0,1,2.9306477999998606,None,space,5.674462100000028,None,0,0,0,0,,,,,12,2,98,4,303.89368620000005,,,,,,,,,,,,,,,,,,,,,303.878412,303.89368620000005,304.3778454999999,304.3824279999999,304.39750200000003,307.34366049999994,,,,,307.3438549,307.3590586999999,307.5589608,307.54303490000007,304.39750200000003,,,,,,,,0,1,2.9306477999998606,None,,,,,,,,868,24,M,R,2026-02-23_11h09.45.064,VisualSearch_2526_3,,2025.2.4,2026-02-23 11h09.45.591801 +0100,
tilted.xlsx,The target is tilted.,117,99,3,12,0,1,1,1,1,1,1,1,0,0,0,0,1,7,8,117,space,9.379017700000077,None,0,1,1.805608599999914,None,space,5.674462100000028,None,0,0,0,0,,,,,12,3,99,5,307.5589608,,,,,,,,,,,,,,,,,,,,,307.5437549999999,307.5589608,308.04281549999996,308.04735189999997,308.0649767,309.8751287,,,,,309.87529829999994,309.8909822999999,310.0912284000001,310.0750143999999,308.0649767,,,,,,,,0,1,1.805608599999914,None,,,,,,,,868,24,M,R,2026-02-23_11h09.45.064,VisualSearch_2526_3,,2025.2.4,2026-02-23 11h09.45.591801 +0100,
tilted.xlsx,The target is tilted.,117,100,4,12,1,1,1,1,0,0,0,0,0,0,0,0,0,3,4,117,space,9.379017700000077,None,0,0,1.1556805000000168,None,space,5.674462100000028,None,0,0,0,0,,,,,12,4,100,2,310.0912284000001,,,,,,,,,,,,,,,,,,,,,310.0757523,310.0912284000001,310.57494640000004,310.5795561,310.593877,311.7578252999999,,,,,311.7579499000001,311.77354620000006,311.9733735,311.95750169999997,310.593877,,,,,,,,0,0,1.1556805000000168,None,,,,,,,,868,24,M,R,2026-02-23_11h09.45.064,VisualSearch_2526_3,,2025.2.4,2026-02-23 11h09.45.591801 +0100,
tilted.xlsx,The target is tilted.,117,101,5,12,1,1,1,1,1,1,1,1,1,1,1,1,0,11,12,117,space,9.379017700000077,None,1,1,1.436542099999997,None,space,5.674462100000028,None,0,0,0,0,,,,,12,5,101,0,311.9733735,,,,,,,,,,,,,,,,,,,,,311.9582528000001,311.9733735,312.4575290999999,312.4620187999999,312.4770478999999,313.9233790999999,,,,,313.9235455999999,313.9393256999999,314.1390228,314.1229243999999,312.4770478999999,,,,,,,,1,1,1.436542099999997,None,,,,,,,,868,24,M,R,2026-02-23_11h09.45.064,VisualSearch_2526_3,,2025.2.4,2026-02-23 11h09.45.591801 +0100,
tilted.xlsx,The target is tilted.,117,102,6,12,0,1,1,1,0,0,0,0,0,0,0,0,1,3,4,117,space,9.379017700000077,None,0,1,0.6552776000000904,None,space,5.674462100000028,None,0,0,0,0,,,,,12,6,102,6,314.1390228,,,,,,,,,,,,,,,,,,,,,314.1236839999999,314.1390228,314.6230536999999,314.62763640000003,314.6450104999999,315.30580570000006,,,,,315.30594769999993,315.3218803,315.5222673999999,315.5062335,314.6450104999999,,,,,,,,0,1,0.6552776000000904,None,,,,,,,,868,24,M,R,2026-02-23_11h09.45.064,VisualSearch_2526_3,,2025.2.4,2026-02-23 11h09.45.591801 +0100,
tilted.xlsx,The target is tilted.,117,103,7,12,0,0,0,0,0,0,0,0,0,0,0,0,1,1,1,117,space,9.379017700000077,None,0,1,0.6103259000001344,None,space,5.674462100000028,None,0,0,0,0,,,,,12,7,103,7,315.5222673999999,,,,,,,,,,,,,,,,,,,,,315.50703440000007,315.5222673999999,316.0060687,316.0107819,316.0270748999999,316.63934330000006,,,,,316.63954609999996,316.65483300000005,316.85487749999993,316.8384988,316.0270748999999,,,,,,,,0,1,0.6103259000001344,None,,,,,,,,868,24,M,R,2026-02-23_11h09.45.064,VisualSearch_2526_3,,2025.2.4,2026-02-23 11h09.45.591801 +0100,
tilted.xlsx,The target is tilted.,117,104,0,13,0,1,1,1,1,1,1,1,0,0,0,0,1,7,8,117,space,9.379017700000077,None,0,1,2.10441179999998,None,space,5.674462100000028,None,0,0,0,0,,,,,13,0,104,5,316.85487749999993,,,,,,,,,,,,,,,,,,,,,316.83924189999993,316.85487749999993,317.3382176,317.34288089999995,317.35781640000005,319.47088170000006,,,,,319.4710628999999,319.4865726999999,319.6869411,319.67069349999997,317.35781640000005,,,,,,,,0,1,2.10441179999998,None,,,,,,,,868,24,M,R,2026-02-23_11h09.45.064,VisualSearch_2526_3,,2025.2.4,2026-02-23 11h09.45.591801 +0100,
tilted.xlsx,The target is tilted.,117,105,1,13,0,1,1,1,1,1,1,1,1,1,1,1,1,11,12,117,space,9.379017700000077,None,0,1,2.2468881000002057,None,space,5.674462100000028,None,0,0,0,0,,,,,13,1,105,4,319.6869411,,,,,,,,,,,,,,,,,,,,,319.67145729999993,319.6869411,320.17053770000007,320.1750757,320.19106970000007,322.45276979999994,,,,,322.4529072,322.4684448999999,322.6684594000001,322.6526515999999,320.19106970000007,,,,,,,,0,1,2.2468881000002057,None,,,,,,,,868,24,M,R,2026-02-23_11h09.45.064,VisualSearch_2526_3,,2025.2.4,2026-02-23 11h09.45.591801 +0100,
tilted.xlsx,The target is tilted.,117,106,2,13,0,1,1,1,0,0,0,0,0,0,0,0,1,3,4,117,space,9.379017700000077,None,0,1,0.951182499999959,None,space,5.674462100000028,None,0,0,0,0,,,,,13,2,106,6,322.6684594000001,,,,,,,,,,,,,,,,,,,,,322.65354490000004,322.6684594000001,323.1525406999999,323.1571021,323.1720536,324.13547629999994,,,,,324.13564769999994,324.15152179999995,324.35152029999995,324.33520569999996,323.1720536,,,,,,,,0,1,0.951182499999959,None,,,,,,,,868,24,M,R,2026-02-23_11h09.45.064,VisualSearch_2526_3,,2025.2.4,2026-02-23 11h09.45.591801 +0100,
tilted.xlsx,The target is tilted.,117,107,3,13,1,0,0,0,0,0,0,0,0,0,0,0,0,0,1,117,space,9.379017700000077,None,0,0,0.4977654000001621,None,space,5.674462100000028,None,0,0,0,0,,,,,13,3,107,3,324.35152029999995,,,,,,,,,,,,,,,,,,,,,324.3360977,324.35152029999995,324.8347747999999,324.8392974000001,324.85419189999993,325.3684633999999,,,,,325.3686637999999,325.3842153999999,325.5845056999999,325.56813579999994,324.85419189999993,,,,,,,,0,0,0.4977654000001621,None,,,,,,,,868,24,M,R,2026-02-23_11h09.45.064,VisualSearch_2526_3,,2025.2.4,2026-02-23 11h09.45.591801 +0100,
tilted.xlsx,The target is tilted.,117,108,4,13,1,1,1,1,1,1,1,1,0,0,0,0,0,7,8,117,space,9.379017700000077,None,1,1,0.7360464000000775,None,space,5.674462100000028,None,0,0,0,0,,,,,13,4,108,1,325.5845056999999,,,,,,,,,,,,,,,,,,,,,325.5688643000001,325.5845056999999,326.06754520000004,326.06975639999996,326.08395270000005,326.8344268999999,,,,,326.83457240000007,326.8502653999999,327.0501924,327.0339868000001,326.08395270000005,,,,,,,,1,1,0.7360464000000775,None,,,,,,,,868,24,M,R,2026-02-23_11h09.45.064,VisualSearch_2526_3,,2025.2.4,2026-02-23 11h09.45.591801 +0100,
tilted.xlsx,The target is tilted.,117,109,5,13,0,0,0,0,0,0,0,0,0,0,0,0,1,1,1,117,space,9.379017700000077,None,0,1,0.6449223000001894,None,space,5.674462100000028,None,0,0,0,0,,,,,13,5,109,7,327.0501924,,,,,,,,,,,,,,,,,,,,,327.03476980000005,327.0501924,327.53377969999997,327.5383076999999,327.5539239,328.20081430000005,,,,,328.2010224999999,328.21627480000006,328.41607139999996,328.3998228999999,327.5539239,,,,,,,,0,1,0.6449223000001894,None,,,,,,,,868,24,M,R,2026-02-23_11h09.45.064,VisualSearch_2526_3,,2025.2.4,2026-02-23 11h09.45.591801 +0100,
tilted.xlsx,The target is tilted.,117,110,6,13,1,1,1,1,0,0,0,0,0,0,0,0,0,3,4,117,space,9.379017700000077,None,1,1,0.7944248000001153,None,space,5.674462100000028,None,0,0,0,0,,,,,13,6,110,2,328.41607139999996,,,,,,,,,,,,,,,,,,,,,328.4005966,328.41607139999996,328.9000172000001,328.90518969999994,328.9199629,329.7166279999999,,,,,329.71681349999994,329.732117,329.93228049999993,329.91622370000005,328.9199629,,,,,,,,1,1,0.7944248000001153,None,,,,,,,,868,24,M,R,2026-02-23_11h09.45.064,VisualSearch_2526_3,,2025.2.4,2026-02-23 11h09.45.591801 +0100,
tilted.xlsx,The target is tilted.,117,111,7,13,1,1,1,1,1,1,1,1,1,1,1,1,0,11,12,117,space,9.379017700000077,None,1,1,1.2352277999998478,None,space,5.674462100000028,None,0,0,0,0,,,,,13,7,111,0,329.93228049999993,,,,,,,,,,,,,,,,,,,,,329.91694400000006,329.93228049999993,330.4154556000001,330.4172808999999,330.4318026000001,331.6820531999999,,,,,331.6822473,331.69796569999994,331.8980901,331.88195999999994,330.4318026000001,,,,,,,,1,1,1.2352277999998478,None,,,,,,,,868,24,M,R,2026-02-23_11h09.45.064,VisualSearch_2526_3,,2025.2.4,2026-02-23 11h09.45.591801 +0100,
tilted.xlsx,The target is tilted.,117,112,0,14,0,1,1,1,0,0,0,0,0,0,0,0,1,3,4,117,space,9.379017700000077,None,0,1,0.7587141999999858,None,space,5.674462100000028,None,0,0,0,0,,,,,14,0,112,6,331.8980901,,,,,,,,,,,,,,,,,,,,,331.8827603,331.8980901,332.3816253,332.38614970000003,332.4022201,333.16455870000004,,,,,333.1647309,333.18072699999993,333.38062739999987,333.3645672,332.4022201,,,,,,,,0,1,0.7587141999999858,None,,,,,,,,868,24,M,R,2026-02-23_11h09.45.064,VisualSearch_2526_3,,2025.2.4,2026-02-23 11h09.45.591801 +0100,
tilted.xlsx,The target is tilted.,117,113,1,14,1,0,0,0,0,0,0,0,0,0,0,0,0,0,1,117,space,9.379017700000077,None,1,1,0.7120124999999007,None,space,5.674462100000028,None,0,0,0,0,,,,,14,1,113,3,333.38062739999987,,,,,,,,,,,,,,,,,,,,,333.3653841,333.38062739999987,333.8638464999999,333.86834799999997,333.88277730000004,334.5978233000001,,,,,334.59799339999995,334.6132989,334.81334990000005,334.7971969,333.88277730000004,,,,,,,,1,1,0.7120124999999007,None,,,,,,,,868,24,M,R,2026-02-23_11h09.45.064,VisualSearch_2526_3,,2025.2.4,2026-02-23 11h09.45.591801 +0100,
tilted.xlsx,The target is tilted.,117,114,2,14,1,1,1,1,1,1,1,1,1,1,1,1,0,11,12,117,space,9.379017700000077,None,1,1,2.0508906000000025,None,space,5.674462100000028,None,0,0,0,0,,,,,14,2,114,0,334.81334990000005,,,,,,,,,,,,,,,,,,,,,334.79796899999997,334.81334990000005,335.2970419999999,335.3015424,335.3172382999999,337.3798758999999,,,,,337.38007059999995,337.3954661999999,337.59479280000005,337.5793922999999,335.3172382999999,,,,,,,,1,1,2.0508906000000025,None,,,,,,,,868,24,M,R,2026-02-23_11h09.45.064,VisualSearch_2526_3,,2025.2.4,2026-02-23 11h09.45.591801 +0100,
tilted.xlsx,The target is tilted.,117,115,3,14,1,1,1,1,0,0,0,0,0,0,0,0,0,3,4,117,space,9.379017700000077,None,1,1,1.0693092999999863,None,space,5.674462100000028,None,0,0,0,0,,,,,14,3,115,2,337.59479280000005,,,,,,,,,,,,,,,,,,,,,337.58013370000003,337.59479280000005,338.07878329999994,338.08332999999993,338.09842230000004,339.17826560000003,,,,,339.1784063,339.19464790000006,339.39463290000003,339.37865970000007,338.09842230000004,,,,,,,,1,1,1.0693092999999863,None,,,,,,,,868,24,M,R,2026-02-23_11h09.45.064,VisualSearch_2526_3,,2025.2.4,2026-02-23 11h09.45.591801 +0100,
tilted.xlsx,The target is tilted.,117,116,4,14,0,1,1,1,1,1,1,1,0,0,0,0,1,7,8,117,space,9.379017700000077,None,0,1,2.966274000000112,None,space,5.674462100000028,None,0,0,0,0,,,,,14,4,116,5,339.39463290000003,,,,,,,,,,,,,,,,,,,,,339.3794823999999,339.39463290000003,339.8778963,339.88283350000006,339.9003757999999,342.87701160000006,,,,,342.8771813999999,342.8926526,343.09296670000003,343.07712709999987,339.9003757999999,,,,,,,,0,1,2.966274000000112,None,,,,,,,,868,24,M,R,2026-02-23_11h09.45.064,VisualSearch_2526_3,,2025.2.4,2026-02-23 11h09.45.591801 +0100,
tilted.xlsx,The target is tilted.,117,117,5,14,0,0,0,0,0,0,0,0,0,0,0,0,1,1,1,117,space,9.379017700000077,None,0,1,0.9764028000001872,None,space,5.674462100000028,None,0,0,0,0,,,,,14,5,117,7,343.09296670000003,,,,,,,,,,,,,,,,,,,,,343.0780812999999,343.09296670000003,343.5765902999999,343.58115840000005,343.5967432,344.57627649999995,,,,,344.5764523,344.5922436000001,344.79213159999995,344.7758096,343.5967432,,,,,,,,0,1,0.9764028000001872,None,,,,,,,,868,24,M,R,2026-02-23_11h09.45.064,VisualSearch_2526_3,,2025.2.4,2026-02-23 11h09.45.591801 +0100,
tilted.xlsx,The target is tilted.,117,118,6,14,1,1,1,1,1,1,1,1,0,0,0,0,0,7,8,117,space,9.379017700000077,None,1,1,0.9958553000001302,None,space,5.674462100000028,None,0,0,0,0,,,,,14,6,118,1,344.79213159999995,,,,,,,,,,,,,,,,,,,,,344.7765588,344.79213159999995,345.2754227999999,345.28001689999996,345.2961934,346.3084627999999,,,,,346.30854750000003,346.32455430000005,346.52475630000004,346.5082239000001,345.2961934,,,,,,,,1,1,0.9958553000001302,None,,,,,,,,868,24,M,R,2026-02-23_11h09.45.064,VisualSearch_2526_3,,2025.2.4,2026-02-23 11h09.45.591801 +0100,
tilted.xlsx,The target is tilted.,117,119,7,14,0,1,1,1,1,1,1,1,1,1,1,1,1,11,12,117,space,9.379017700000077,None,0,1,2.1656233999999586,None,space,5.674462100000028,None,0,0,0,0,,,,,14,7,119,4,346.52475630000004,,,,,,,,,,,,,,,,,,,,,346.5089676,346.52475630000004,347.0085982999999,347.0137073000001,347.0302919999999,349.20753609999997,,,,,349.2076744000001,349.22337730000004,349.4243157000001,349.40689939999993,347.0302919999999,,,,,,,,0,1,2.1656233999999586,None,,,,,,,,868,24,M,R,2026-02-23_11h09.45.064,VisualSearch_2526_3,,2025.2.4,2026-02-23 11h09.45.591801 +0100,
tilted.xlsx,The target is tilted.,117,0,0,0,,,,,,,,,,,,,,,,,space,9.379017700000077,None,,,,,space,5.674462100000028,None,0,0,0,0,,,,,,,,,,,,,,,,,,,,,,,,,,,,,,,,,,,,,,,,,,,,,,,,,,,,,,,,,,,,,,,868,24,M,R,2026-02-23_11h09.45.064,VisualSearch_2526_3,,2025.2.4,2026-02-23 11h09.45.591801 +0100,
vertical.xlsx,The target is tilted.,135,0,0,0,1,1,1,1,0,0,0,0,0,0,0,0,0,3,4,135,space,35.82869380000011,None,1,1,1.6312752000001183,None,,,,0,1,1,1,0,0,0,2,,,,,385.3061696,,,,,,,,,,,,,,,349.4243157000001,349.4243157000001,349.4243157000001,space,35.82869380000011,None,385.3025398,385.3061696,385.77393699999993,385.77869439999995,385.79148869999995,387.42405469999994,1,1,1.6312752000001183,None,387.4242761999999,387.43925749999994,387.6390171999999,387.6231175999999,,,,,,,,,,,,,,,,,,,,868,24,M,R,2026-02-23_11h09.45.064,VisualSearch_2526_3,,2025.2.4,2026-02-23 11h09.45.591801 +0100,
vertical.xlsx,The target is tilted.,135,1,1,0,0,1,1,1,1,1,1,1,0,0,0,0,1,7,8,135,space,35.82869380000011,None,0,1,1.183370400000058,None,,,,0,1,1,1,0,1,1,5,,,,,387.6390171999999,,,,,,,,,,,,,,,,,,,,,387.6238297,387.6390171999999,388.12310980000007,388.12779380000006,388.14331990000005,389.3391088999999,0,1,1.183370400000058,None,389.3392744999999,389.3552657,389.5552324999999,389.5387619999999,388.14331990000005,,,,,,,,,,,,,,,,,,,868,24,M,R,2026-02-23_11h09.45.064,VisualSearch_2526_3,,2025.2.4,2026-02-23 11h09.45.591801 +0100,
vertical.xlsx,The target is tilted.,135,2,2,0,1,1,1,1,1,1,1,1,1,1,1,1,0,11,12,135,space,35.82869380000011,None,1,1,0.5635121000000254,None,,,,0,1,1,1,0,2,2,0,,,,,389.5552324999999,,,,,,,,,,,,,,,,,,,,,389.5394678,389.5552324999999,390.03839879999987,390.0428167,390.05494610000005,390.62156660000005,1,1,0.5635121000000254,None,390.62168670000005,390.63794069999994,390.8377009000001,390.82189229999994,390.05494610000005,,,,,,,,,,,,,,,,,,,868,24,M,R,2026-02-23_11h09.45.064,VisualSearch_2526_3,,2025.2.4,2026-02-23 11h09.45.591801 +0100,
vertical.xlsx,The target is tilted.,135,3,3,0,0,1,1,1,0,0,0,0,0,0,0,0,1,3,4,135,space,35.82869380000011,None,0,1,0.5741737999999259,None,,,,0,1,1,1,0,3,3,6,,,,,390.8377009000001,,,,,,,,,,,,,,,,,,,,,390.82254480000006,390.8377009000001,391.32163149999997,391.32618479999996,391.3419885999999,391.9217744,0,1,0.5741737999999259,None,391.9220628999999,391.93729200000007,392.1374602000001,392.1212138000001,391.3419885999999,,,,,,,,,,,,,,,,,,,868,24,M,R,2026-02-23_11h09.45.064,VisualSearch_2526_3,,2025.2.4,2026-02-23 11h09.45.591801 +0100,
vertical.xlsx,The target is tilted.,135,4,4,0,0,1,1,1,1,1,1,1,1,1,1,1,1,11,12,135,space,35.82869380000011,None,0,1,0.9311958000000686,None,,,,0,1,1,1,0,4,4,4,,,,,392.1374602000001,,,,,,,,,,,,,,,,,,,,,392.121942,392.1374602000001,392.620985,392.62555199999997,392.64152590000003,393.5879179000001,0,1,0.9311958000000686,None,393.58813740000005,393.6033459,393.803277,393.7866887,392.64152590000003,,,,,,,,,,,,,,,,,,,868,24,M,R,2026-02-23_11h09.45.064,VisualSearch_2526_3,,2025.2.4,2026-02-23 11h09.45.591801 +0100,
vertical.xlsx,The target is tilted.,135,5,5,0,1,1,1,1,1,1,1,1,0,0,0,0,0,7,8,135,space,35.82869380000011,None,1,1,0.630779400000165,None,,,,0,1,1,1,0,5,5,1,,,,,393.803277,,,,,,,,,,,,,,,,,,,,,393.78737380000007,393.803277,394.28659300000004,394.2911359,394.3068203,394.9539299999999,1,1,0.630779400000165,None,394.95414460000006,394.9694092,395.1689357,395.1532723999999,394.3068203,,,,,,,,,,,,,,,,,,,868,24,M,R,2026-02-23_11h09.45.064,VisualSearch_2526_3,,2025.2.4,2026-02-23 11h09.45.591801 +0100,
vertical.xlsx,The target is tilted.,135,6,6,0,0,0,0,0,0,0,0,0,0,0,0,0,1,1,1,135,space,35.82869380000011,None,0,1,0.6047653000000537,None,,,,0,1,1,1,0,6,6,7,,,,,395.1689357,,,,,,,,,,,,,,,,,,,,,395.15394489999994,395.1689357,395.6529900999999,395.65753070000005,395.6734122999999,396.2865508,0,1,0.6047653000000537,None,396.28673660000004,396.3017966,396.5020124,396.48565080000003,395.6734122999999,,,,,,,,,,,,,,,,,,,868,24,M,R,2026-02-23_11h09.45.064,VisualSearch_2526_3,,2025.2.4,2026-02-23 11h09.45.591801 +0100,
vertical.xlsx,The target is tilted.,135,7,7,0,1,0,0,0,0,0,0,0,0,0,0,0,0,0,1,135,space,35.82869380000011,None,0,0,0.4055441000000428,None,,,,0,1,1,1,0,7,7,3,,,,,396.5020124,,,,,,,,,,,,,,,,,,,,,396.48632410000005,396.5020124,396.9852556000001,396.98958760000005,397.0035574000001,397.4192155999999,0,0,0.4055441000000428,None,397.4194004000001,397.43488550000006,397.6348923999999,397.6187093000001,397.0035574000001,,,,,,,,,,,,,,,,,,,868,24,M,R,2026-02-23_11h09.45.064,VisualSearch_2526_3,,2025.2.4,2026-02-23 11h09.45.591801 +0100,
vertical.xlsx,The target is tilted.,135,0,0,0,1,1,1,1,1,1,1,1,1,1,1,1,0,11,12,135,space,35.82869380000011,None,1,1,0.6466209000000163,None,space,1.0487453999999161,None,0,1,1,1,,,,,0,0,0,0,398.7122635999999,,,,,,,,,,,,,,,,,,,,,398.7085405999999,398.7122635999999,399.2008086999999,399.20545930000003,399.21928030000004,399.86759000000006,,,,,399.8677751,399.88334940000004,400.0838162,400.06770570000003,,397.62558590000003,397.6348923999999,397.6348923999999,398.68526840000004,space,1.0487453999999161,None,1,1,0.6466209000000163,None,,,,,,,,868,24,M,R,2026-02-23_11h09.45.064,VisualSearch_2526_3,,2025.2.4,2026-02-23 11h09.45.591801 +0100,
vertical.xlsx,The target is tilted.,135,1,1,0,0,1,1,1,1,1,1,1,1,1,1,1,1,11,12,135,space,35.82869380000011,None,0,1,1.0924841000000924,None,space,1.0487453999999161,None,0,1,1,1,,,,,0,1,1,4,400.0838162,,,,,,,,,,,,,,,,,,,,,400.06843460000005,400.0838162,400.56714850000003,400.57164209999996,400.5863537,401.6833296,,,,,401.68341439999995,401.6991783000001,401.89956899999993,401.883466,400.5863537,,,,,,,,0,1,1.0924841000000924,None,,,,,,,,868,24,M,R,2026-02-23_11h09.45.064,VisualSearch_2526_3,,2025.2.4,2026-02-23 11h09.45.591801 +0100,
vertical.xlsx,The target is tilted.,135,2,2,0,1,1,1,1,0,0,0,0,0,0,0,0,0,3,4,135,space,35.82869380000011,None,1,1,0.6952166000000943,None,space,1.0487453999999161,None,0,1,1,1,,,,,0,2,2,2,401.89956899999993,,,,,,,,,,,,,,,,,,,,,401.88425099999995,401.89956899999993,402.38332549999996,402.3877150999999,402.3988674,403.10019450000004,,,,,403.10038540000005,403.11532940000006,403.3156999999999,403.2993394,402.3988674,,,,,,,,1,1,0.6952166000000943,None,,,,,,,,868,24,M,R,2026-02-23_11h09.45.064,VisualSearch_2526_3,,2025.2.4,2026-02-23 11h09.45.591801 +0100,
vertical.xlsx,The target is tilted.,135,3,3,0,0,1,1,1,0,0,0,0,0,0,0,0,1,3,4,135,space,35.82869380000011,None,0,1,0.5781940000001669,None,space,1.0487453999999161,None,0,1,1,1,,,,,0,3,3,6,403.3156999999999,,,,,,,,,,,,,,,,,,,,,403.3000809,403.3156999999999,403.7989622,403.8035519,403.81855829999995,404.39897139999994,,,,,404.3991278000001,404.41506809999987,404.6146727999999,404.5986865,403.81855829999995,,,,,,,,0,1,0.5781940000001669,None,,,,,,,,868,24,M,R,2026-02-23_11h09.45.064,VisualSearch_2526_3,,2025.2.4,2026-02-23 11h09.45.591801 +0100,
vertical.xlsx,The target is tilted.,135,4,4,0,0,1,1,1,1,1,1,1,0,0,0,0,1,7,8,135,space,35.82869380000011,None,0,1,1.012806400000045,None,space,1.0487453999999161,None,0,1,1,1,,,,,0,4,4,5,404.6146727999999,,,,,,,,,,,,,,,,,,,,,404.5994363,404.6146727999999,405.09879709999996,405.103333,405.1187986,406.14813359999994,,,,,406.14832810000007,406.16416359999994,406.36429769999995,406.34794579999993,405.1187986,,,,,,,,0,1,1.012806400000045,None,,,,,,,,868,24,M,R,2026-02-23_11h09.45.064,VisualSearch_2526_3,,2025.2.4,2026-02-23 11h09.45.591801 +0100,
vertical.xlsx,The target is tilted.,135,5,5,0,0,0,0,0,0,0,0,0,0,0,0,0,1,1,1,135,space,35.82869380000011,None,0,1,0.5947861999998167,None,space,1.0487453999999161,None,0,1,1,1,,,,,0,5,5,7,406.36429769999995,,,,,,,,,,,,,,,,,,,,,406.34883560000003,406.36429769999995,406.8478874,406.8523376999999,406.86668699999996,407.46436829999993,,,,,407.46448639999994,407.4802308999999,407.6799197,407.6642133999999,406.86668699999996,,,,,,,,0,1,0.5947861999998167,None,,,,,,,,868,24,M,R,2026-02-23_11h09.45.064,VisualSearch_2526_3,,2025.2.4,2026-02-23 11h09.45.591801 +0100,
vertical.xlsx,The target is tilted.,135,6,6,0,1,0,0,0,0,0,0,0,0,0,0,0,0,0,1,135,space,35.82869380000011,None,1,1,0.5597609999999804,None,space,1.0487453999999161,None,0,1,1,1,,,,,0,6,6,3,407.6799197,,,,,,,,,,,,,,,,,,,,,407.6649594999999,407.6799197,408.16375919999996,408.1682026000001,408.17995339999993,408.7477564999999,,,,,408.74796719999995,408.7626877,408.9631104,408.9470013,408.17995339999993,,,,,,,,1,1,0.5597609999999804,None,,,,,,,,868,24,M,R,2026-02-23_11h09.45.064,VisualSearch_2526_3,,2025.2.4,2026-02-23 11h09.45.591801 +0100,
vertical.xlsx,The target is tilted.,135,7,7,0,1,1,1,1,1,1,1,1,0,0,0,0,0,7,8,135,space,35.82869380000011,None,1,1,0.47854660000007243,None,space,1.0487453999999161,None,0,1,1,1,,,,,0,7,7,1,408.9631104,,,,,,,,,,,,,,,,,,,,,408.94772880000005,408.9631104,409.4463853,409.45037279999997,409.4661701,409.94714380000005,,,,,409.9473882,409.9622932,410.1626853,410.14668959999995,409.4661701,,,,,,,,1,1,0.47854660000007243,None,,,,,,,,868,24,M,R,2026-02-23_11h09.45.064,VisualSearch_2526_3,,2025.2.4,2026-02-23 11h09.45.591801 +0100,
vertical.xlsx,The target is tilted.,135,8,0,1,1,1,1,1,1,1,1,1,0,0,0,0,0,7,8,135,space,35.82869380000011,None,1,1,0.41542789999994056,None,space,1.0487453999999161,None,0,1,1,1,,,,,1,0,8,1,410.1626853,,,,,,,,,,,,,,,,,,,,,410.14750890000005,410.1626853,410.64618530000007,410.6507105999999,410.6662053,411.09650910000005,,,,,411.09667880000006,411.11211389999994,411.31196950000003,411.2959363,410.6662053,,,,,,,,1,1,0.41542789999994056,None,,,,,,,,868,24,M,R,2026-02-23_11h09.45.064,VisualSearch_2526_3,,2025.2.4,2026-02-23 11h09.45.591801 +0100,
vertical.xlsx,The target is tilted.,135,9,1,1,1,0,0,0,0,0,0,0,0,0,0,0,0,0,1,135,space,35.82869380000011,None,1,1,0.42303229999993164,None,space,1.0487453999999161,None,0,1,1,1,,,,,1,1,9,3,411.31196950000003,,,,,,,,,,,,,,,,,,,,,411.2966638999999,411.31196950000003,411.7956488,411.80012609999994,411.8141409,412.24598790000005,,,,,412.2461805999999,412.26119029999995,412.46153379999987,412.44525339999996,411.8141409,,,,,,,,1,1,0.42303229999993164,None,,,,,,,,868,24,M,R,2026-02-23_11h09.45.064,VisualSearch_2526_3,,2025.2.4,2026-02-23 11h09.45.591801 +0100,
vertical.xlsx,The target is tilted.,135,10,2,1,0,1,1,1,1,1,1,1,0,0,0,0,1,7,8,135,space,35.82869380000011,None,0,1,0.6074387999999544,None,space,1.0487453999999161,None,0,1,1,1,,,,,1,2,10,5,412.46153379999987,,,,,,,,,,,,,,,,,,,,,412.44602940000004,412.46153379999987,412.9447164999999,412.94918400000006,412.9660051000001,413.57787039999994,,,,,413.5780006,413.59386229999996,413.7942361999999,413.7782038999999,412.9660051000001,,,,,,,,0,1,0.6074387999999544,None,,,,,,,,868,24,M,R,2026-02-23_11h09.45.064,VisualSearch_2526_3,,2025.2.4,2026-02-23 11h09.45.591801 +0100,
vertical.xlsx,The target is tilted.,135,11,3,1,0,1,1,1,0,0,0,0,0,0,0,0,1,3,4,135,space,35.82869380000011,None,0,1,0.5285031000000799,None,space,1.0487453999999161,None,0,1,1,1,,,,,1,3,11,6,413.7942361999999,,,,,,,,,,,,,,,,,,,,,413.7789292,413.7942361999999,414.27783550000004,414.28238650000003,414.29850639999995,414.8448550999999,,,,,414.84505390000004,414.8602034999999,415.05994450000003,415.0438509999999,414.29850639999995,,,,,,,,0,1,0.5285031000000799,None,,,,,,,,868,24,M,R,2026-02-23_11h09.45.064,VisualSearch_2526_3,,2025.2.4,2026-02-23 11h09.45.591801 +0100,
vertical.xlsx,The target is tilted.,135,12,4,1,0,1,1,1,1,1,1,1,1,1,1,1,1,11,12,135,space,35.82869380000011,None,0,1,0.8128371000000243,None,space,1.0487453999999161,None,0,1,1,1,,,,,1,4,12,4,415.05994450000003,,,,,,,,,,,,,,,,,,,,,415.04458139999997,415.05994450000003,415.5438773000001,415.5485739999999,415.56302589999996,416.3770288999999,,,,,416.37716090000004,416.3929800000001,416.59297919999995,416.5767762999999,415.56302589999996,,,,,,,,0,1,0.8128371000000243,None,,,,,,,,868,24,M,R,2026-02-23_11h09.45.064,VisualSearch_2526_3,,2025.2.4,2026-02-23 11h09.45.591801 +0100,
vertical.xlsx,The target is tilted.,135,13,5,1,0,0,0,0,0,0,0,0,0,0,0,0,1,1,1,135,space,35.82869380000011,None,0,1,0.4506705999999667,None,space,1.0487453999999161,None,0,1,1,1,,,,,1,5,13,7,416.59297919999995,,,,,,,,,,,,,,,,,,,,,416.57753490000005,416.59297919999995,417.07641590000003,417.080954,417.09638100000006,417.56022489999987,,,,,417.5604157999999,417.57581920000007,417.77575060000004,417.75949979999996,417.09638100000006,,,,,,,,0,1,0.4506705999999667,None,,,,,,,,868,24,M,R,2026-02-23_11h09.45.064,VisualSearch_2526_3,,2025.2.4,2026-02-23 11h09.45.591801 +0100,
vertical.xlsx,The target is tilted.,135,14,6,1,1,1,1,1,1,1,1,1,1,1,1,1,0,11,12,135,space,35.82869380000011,None,1,1,0.7618690999997852,None,space,1.0487453999999161,None,0,1,1,1,,,,,1,6,14,0,417.77575060000004,,,,,,,,,,,,,,,,,,,,,417.76028410000004,417.77575060000004,418.2593741999999,418.26379309999993,418.27497130000006,419.04287109999996,,,,,419.04306270000006,419.0581425999999,419.25819249999995,419.24190870000007,418.27497130000006,,,,,,,,1,1,0.7618690999997852,None,,,,,,,,868,24,M,R,2026-02-23_11h09.45.064,VisualSearch_2526_3,,2025.2.4,2026-02-23 11h09.45.591801 +0100,
vertical.xlsx,The target is tilted.,135,15,7,1,1,1,1,1,0,0,0,0,0,0,0,0,0,3,4,135,space,35.82869380000011,None,1,1,0.5370221000000583,None,space,1.0487453999999161,None,0,1,1,1,,,,,1,7,15,2,419.25819249999995,,,,,,,,,,,,,,,,,,,,,419.24269379999987,419.25819249999995,419.74201270000003,419.74655000000007,419.7618090000001,420.30909040000006,,,,,420.3092807999999,420.32422470000006,420.52452560000006,420.50784139999996,419.7618090000001,,,,,,,,1,1,0.5370221000000583,None,,,,,,,,868,24,M,R,2026-02-23_11h09.45.064,VisualSearch_2526_3,,2025.2.4,2026-02-23 11h09.45.591801 +0100,
vertical.xlsx,The target is tilted.,135,16,0,2,1,0,0,0,0,0,0,0,0,0,0,0,0,0,1,135,space,35.82869380000011,None,1,1,0.4817611000000852,None,space,1.0487453999999161,None,0,1,1,1,,,,,2,0,16,3,420.52452560000006,,,,,,,,,,,,,,,,,,,,,420.5085174999999,420.52452560000006,421.00781789999996,421.01236429999994,421.02711769999996,421.5250209000001,,,,,421.5251925,421.54045969999993,421.74064339999995,421.72457570000006,421.02711769999996,,,,,,,,1,1,0.4817611000000852,None,,,,,,,,868,24,M,R,2026-02-23_11h09.45.064,VisualSearch_2526_3,,2025.2.4,2026-02-23 11h09.45.591801 +0100,
vertical.xlsx,The target is tilted.,135,17,1,2,1,1,1,1,1,1,1,1,1,1,1,1,0,11,12,135,space,35.82869380000011,None,1,1,0.606946999999991,None,space,1.0487453999999161,None,0,1,1,1,,,,,2,1,17,0,421.74064339999995,,,,,,,,,,,,,,,,,,,,,421.7253304999999,421.74064339999995,422.2242604999999,422.22888940000007,422.24276869999994,422.8577473,,,,,422.85791659999995,422.8733436,423.07337959999995,423.05714349999994,422.24276869999994,,,,,,,,1,1,0.606946999999991,None,,,,,,,,868,24,M,R,2026-02-23_11h09.45.064,VisualSearch_2526_3,,2025.2.4,2026-02-23 11h09.45.591801 +0100,
vertical.xlsx,The target is tilted.,135,18,2,2,0,1,1,1,1,1,1,1,1,1,1,1,1,11,12,135,space,35.82869380000011,None,0,1,0.8082209000001512,None,space,1.0487453999999161,None,0,1,1,1,,,,,2,2,18,4,423.07337959999995,,,,,,,,,,,,,,,,,,,,,423.05791210000007,423.07337959999995,423.55703930000004,423.5615524,423.5744225000001,424.3901747,,,,,424.3903779,424.40597049999997,424.60608479999996,424.58973289999994,423.5744225000001,,,,,,,,0,1,0.8082209000001512,None,,,,,,,,868,24,M,R,2026-02-23_11h09.45.064,VisualSearch_2526_3,,2025.2.4,2026-02-23 11h09.45.591801 +0100,
vertical.xlsx,The target is tilted.,135,19,3,2,0,1,1,1,0,0,0,0,0,0,0,0,1,3,4,135,space,35.82869380000011,None,0,1,0.612206199999946,None,space,1.0487453999999161,None,0,1,1,1,,,,,2,3,19,6,424.60608479999996,,,,,,,,,,,,,,,,,,,,,424.5905233000001,424.60608479999996,425.0892744,425.0938272000001,425.10777400000006,425.72318459999997,,,,,425.72337489999995,425.7385497999999,425.9383421,425.9225928999999,425.10777400000006,,,,,,,,0,1,0.612206199999946,None,,,,,,,,868,24,M,R,2026-02-23_11h09.45.064,VisualSearch_2526_3,,2025.2.4,2026-02-23 11h09.45.591801 +0100,
vertical.xlsx,The target is tilted.,135,20,4,2,1,1,1,1,1,1,1,1,0,0,0,0,0,7,8,135,space,35.82869380000011,None,1,1,0.6111445000001368,None,space,1.0487453999999161,None,0,1,1,1,,,,,2,4,20,1,425.9383421,,,,,,,,,,,,,,,,,,,,,425.9233337999999,425.9383421,426.42240590000006,426.4274642999999,426.44277250000005,427.05603440000004,,,,,427.0562262000001,427.07125429999996,427.27142219999996,427.25527450000004,426.44277250000005,,,,,,,,1,1,0.6111445000001368,None,,,,,,,,868,24,M,R,2026-02-23_11h09.45.064,VisualSearch_2526_3,,2025.2.4,2026-02-23 11h09.45.591801 +0100,
vertical.xlsx,The target is tilted.,135,21,5,2,0,0,0,0,0,0,0,0,0,0,0,0,1,1,1,135,space,35.82869380000011,None,0,1,0.5337953000000653,None,space,1.0487453999999161,None,0,1,1,1,,,,,2,5,21,7,427.27142219999996,,,,,,,,,,,,,,,,,,,,,427.25603849999993,427.27142219999996,427.7551561,427.759628,427.77610260000006,428.3215103,,,,,428.3216152,428.33740149999994,428.5375374,428.52132099999994,427.77610260000006,,,,,,,,0,1,0.5337953000000653,None,,,,,,,,868,24,M,R,2026-02-23_11h09.45.064,VisualSearch_2526_3,,2025.2.4,2026-02-23 11h09.45.591801 +0100,
vertical.xlsx,The target is tilted.,135,22,6,2,0,1,1,1,1,1,1,1,0,0,0,0,1,7,8,135,space,35.82869380000011,None,0,1,0.8800752999998167,None,space,1.0487453999999161,None,0,1,1,1,,,,,2,6,22,5,428.5375374,,,,,,,,,,,,,,,,,,,,,428.5221051000001,428.5375374,429.02115030000004,429.0256512000001,429.0417723999999,429.9373452,,,,,429.9374785,429.95340770000007,430.15360899999996,430.1372391,429.0417723999999,,,,,,,,0,1,0.8800752999998167,None,,,,,,,,868,24,M,R,2026-02-23_11h09.45.064,VisualSearch_2526_3,,2025.2.4,2026-02-23 11h09.45.591801 +0100,
vertical.xlsx,The target is tilted.,135,23,7,2,1,1,1,1,0,0,0,0,0,0,0,0,0,3,4,135,space,35.82869380000011,None,1,1,0.6013950999999906,None,space,1.0487453999999161,None,0,1,1,1,,,,,2,7,23,2,430.15360899999996,,,,,,,,,,,,,,,,,,,,,430.1380007,430.15360899999996,430.6367711999999,430.64147189999994,430.65493349999997,431.27019730000006,,,,,431.2703305,431.28611109999997,431.4862128,431.46968760000004,430.65493349999997,,,,,,,,1,1,0.6013950999999906,None,,,,,,,,868,24,M,R,2026-02-23_11h09.45.064,VisualSearch_2526_3,,2025.2.4,2026-02-23 11h09.45.591801 +0100,
vertical.xlsx,The target is tilted.,135,24,0,3,1,1,1,1,1,1,1,1,0,0,0,0,0,7,8,135,space,35.82869380000011,None,1,1,0.5738683000001856,None,space,1.0487453999999161,None,0,1,1,1,,,,,3,0,24,1,431.4862128,,,,,,,,,,,,,,,,,,,,,431.4704704999999,431.4862128,431.9697741,431.97444670000004,431.98586350000005,432.56938349999996,,,,,432.56948639999996,432.58553299999994,432.78525319999994,432.7693225999999,431.98586350000005,,,,,,,,1,1,0.5738683000001856,None,,,,,,,,868,24,M,R,2026-02-23_11h09.45.064,VisualSearch_2526_3,,2025.2.4,2026-02-23 11h09.45.591801 +0100,
vertical.xlsx,The target is tilted.,135,25,1,3,0,0,0,0,0,0,0,0,0,0,0,0,1,1,1,135,space,35.82869380000011,None,0,1,0.5108815999999479,None,space,1.0487453999999161,None,0,1,1,1,,,,,3,1,25,7,432.78525319999994,,,,,,,,,,,,,,,,,,,,,432.7701036000001,432.78525319999994,433.26925860000006,433.2738695999999,433.2889109,433.80304279999996,,,,,433.80324700000006,433.8183291,434.0180298,434.0022380999999,433.2889109,,,,,,,,0,1,0.5108815999999479,None,,,,,,,,868,24,M,R,2026-02-23_11h09.45.064,VisualSearch_2526_3,,2025.2.4,2026-02-23 11h09.45.591801 +0100,
vertical.xlsx,The target is tilted.,135,26,2,3,1,0,0,0,0,0,0,0,0,0,0,0,0,0,1,135,space,35.82869380000011,None,1,1,0.710041899999851,None,space,1.0487453999999161,None,0,1,1,1,,,,,3,2,26,3,434.0180298,,,,,,,,,,,,,,,,,,,,,434.002966,434.0180298,434.50195830000007,434.50656860000004,434.52160490000006,435.23451339999997,,,,,435.234608,435.2508711999999,435.45060250000006,435.43459499999994,434.52160490000006,,,,,,,,1,1,0.710041899999851,None,,,,,,,,868,24,M,R,2026-02-23_11h09.45.064,VisualSearch_2526_3,,2025.2.4,2026-02-23 11h09.45.591801 +0100,
vertical.xlsx,The target is tilted.,135,27,3,3,0,1,1,1,1,1,1,1,1,1,1,1,1,11,12,135,space,35.82869380000011,None,0,1,0.8815451999998913,None,space,1.0487453999999161,None,0,1,1,1,,,,,3,3,27,4,435.45060250000006,,,,,,,,,,,,,,,,,,,,,435.43511179999996,435.45060250000006,435.93471339999996,435.9392501,435.9535684,436.85016300000007,,,,,436.85025029999997,436.8662999999999,437.0662298,437.0498597999999,435.9535684,,,,,,,,0,1,0.8815451999998913,None,,,,,,,,868,24,M,R,2026-02-23_11h09.45.064,VisualSearch_2526_3,,2025.2.4,2026-02-23 11h09.45.591801 +0100,
vertical.xlsx,The target is tilted.,135,28,4,3,0,1,1,1,1,1,1,1,0,0,0,0,1,7,8,135,space,35.82869380000011,None,0,1,0.7805425999999898,None,space,1.0487453999999161,None,0,1,1,1,,,,,3,4,28,5,437.0662298,,,,,,,,,,,,,,,,,,,,,437.0501755,437.0662298,437.55052039999987,437.5559636999999,437.5700566999999,438.36644780000006,,,,,438.3665189000001,438.38251620000005,,438.56670140000006,,,,,,,,,0,1,0.7805425999999898,None,,,,,,,,868,24,M,R,2026-02-23_11h09.45.064,VisualSearch_2526_3,,2025.2.4,2026-02-23 11h09.45.591801 +0100,
vertical.xlsx,The target is tilted.,135,29,5,3,1,1,1,1,0,0,0,0,0,0,0,0,0,3,4,135,space,35.82869380000011,None,1,1,0.8288671999998769,None,space,1.0487453999999161,None,0,1,1,1,,,,,3,5,29,2,438.5830169999999,,,,,,,,,,,,,,,,,,,,,438.5675947,438.5830169999999,439.06684799999994,439.0718394999999,439.0871989,439.93229040000006,,,,,439.9324047,439.94837800000005,,440.132576,439.0871989,,,,,,,,1,1,0.8288671999998769,None,,,,,,,,868,24,M,R,2026-02-23_11h09.45.064,VisualSearch_2526_3,,2025.2.4,2026-02-23 11h09.45.591801 +0100,
vertical.xlsx,The target is tilted.,135,30,6,3,0,1,1,1,0,0,0,0,0,0,0,0,1,3,4,135,space,35.82869380000011,None,0,1,0.6834512000000359,None,space,1.0487453999999161,None,0,1,1,1,,,,,3,6,30,6,440.1487789999999,,,,,,,,,,,,,,,,,,,,,440.1333998,440.1487789999999,440.6325669999999,440.63706260000004,440.65252669999995,441.34906669999987,,,,,441.3492417,441.3649115999999,441.5651055999999,441.54878529999996,440.65252669999995,,,,,,,,0,1,0.6834512000000359,None,,,,,,,,868,24,M,R,2026-02-23_11h09.45.064,VisualSearch_2526_3,,2025.2.4,2026-02-23 11h09.45.591801 +0100,
vertical.xlsx,The target is tilted.,135,31,7,3,1,1,1,1,1,1,1,1,1,1,1,1,0,11,12,135,space,35.82869380000011,None,1,1,0.7173700999999255,None,space,1.0487453999999161,None,0,1,1,1,,,,,3,7,31,0,441.5651055999999,,,,,,,,,,,,,,,,,,,,,441.5496269999999,441.5651055999999,442.0479144000001,442.0514734000001,442.0639742999999,442.79829859999995,,,,,442.798489,442.81434289999993,443.0139515999999,442.9984684000001,442.0639742999999,,,,,,,,1,1,0.7173700999999255,None,,,,,,,,868,24,M,R,2026-02-23_11h09.45.064,VisualSearch_2526_3,,2025.2.4,2026-02-23 11h09.45.591801 +0100,
vertical.xlsx,The target is tilted.,135,32,0,4,0,1,1,1,1,1,1,1,0,0,0,0,1,7,8,135,space,35.82869380000011,None,0,1,0.5934842000001481,None,space,1.0487453999999161,None,0,1,1,1,,,,,4,0,32,5,443.0139515999999,,,,,,,,,,,,,,,,,,,,,442.99917200000004,443.0139515999999,443.4979212999999,443.5023805000001,443.51806250000004,444.11437079999996,,,,,444.1145397999999,444.1300269999999,444.3303195000001,444.3141819,443.51806250000004,,,,,,,,0,1,0.5934842000001481,None,,,,,,,,868,24,M,R,2026-02-23_11h09.45.064,VisualSearch_2526_3,,2025.2.4,2026-02-23 11h09.45.591801 +0100,
vertical.xlsx,The target is tilted.,135,33,1,4,1,1,1,1,0,0,0,0,0,0,0,0,0,3,4,135,space,35.82869380000011,None,1,1,0.5500678999999309,None,space,1.0487453999999161,None,0,1,1,1,,,,,4,1,33,2,444.3303195000001,,,,,,,,,,,,,,,,,,,,,444.3149913,444.3303195000001,444.8140043000001,444.8185827,444.83348279999996,445.39746390000005,,,,,445.39764979999995,445.41310840000006,445.61298970000007,445.5965570999999,444.83348279999996,,,,,,,,1,1,0.5500678999999309,None,,,,,,,,868,24,M,R,2026-02-23_11h09.45.064,VisualSearch_2526_3,,2025.2.4,2026-02-23 11h09.45.591801 +0100,
vertical.xlsx,The target is tilted.,135,34,2,4,0,0,0,0,0,0,0,0,0,0,0,0,1,1,1,135,space,35.82869380000011,None,0,1,0.41083720000005997,None,space,1.0487453999999161,None,0,1,1,1,,,,,4,2,34,7,445.61298970000007,,,,,,,,,,,,,,,,,,,,,445.59729390000007,445.61298970000007,446.0963276,446.10082850000003,446.1143775999999,446.5292153999999,,,,,446.52930549999996,446.5453021000001,446.74519570000007,446.7287527000001,446.1143775999999,,,,,,,,0,1,0.41083720000005997,None,,,,,,,,868,24,M,R,2026-02-23_11h09.45.064,VisualSearch_2526_3,,2025.2.4,2026-02-23 11h09.45.591801 +0100,
vertical.xlsx,The target is tilted.,135,35,3,4,1,1,1,1,1,1,1,1,1,1,1,1,0,11,12,135,space,35.82869380000011,None,1,1,0.742457899999863,None,space,1.0487453999999161,None,0,1,1,1,,,,,4,3,35,0,446.74519570000007,,,,,,,,,,,,,,,,,,,,,446.72908559999996,446.74519570000007,447.22896390000005,447.23254829999996,447.24524470000006,447.99597029999995,,,,,447.9961137,448.0117931,448.21196510000004,448.19587690000003,447.24524470000006,,,,,,,,1,1,0.742457899999863,None,,,,,,,,868,24,M,R,2026-02-23_11h09.45.064,VisualSearch_2526_3,,2025.2.4,2026-02-23 11h09.45.591801 +0100,
vertical.xlsx,The target is tilted.,135,36,4,4,1,0,0,0,0,0,0,0,0,0,0,0,0,0,1,135,space,35.82869380000011,None,0,0,0.48370410000006814,None,space,1.0487453999999161,None,0,1,1,1,,,,,4,4,36,3,448.21196510000004,,,,,,,,,,,,,,,,,,,,,448.19671289999997,448.21196510000004,448.6957,448.70090619999996,448.71461139999997,449.2123770999999,,,,,449.2125492,449.2280467999999,449.42787739999994,449.4113903,448.71461139999997,,,,,,,,0,0,0.48370410000006814,None,,,,,,,,868,24,M,R,2026-02-23_11h09.45.064,VisualSearch_2526_3,,2025.2.4,2026-02-23 11h09.45.591801 +0100,
vertical.xlsx,The target is tilted.,135,37,5,4,0,1,1,1,1,1,1,1,1,1,1,1,1,11,12,135,space,35.82869380000011,None,0,1,1.7787333999999646,None,space,1.0487453999999161,None,0,1,1,1,,,,,4,5,37,4,449.42787739999994,,,,,,,,,,,,,,,,,,,,,449.41172400000005,449.42787739999994,449.9111998000001,449.91583259999993,449.92893950000007,451.7110574999999,,,,,451.7112462,451.7268455000001,451.92662399999995,451.91066279999995,449.92893950000007,,,,,,,,0,1,1.7787333999999646,None,,,,,,,,868,24,M,R,2026-02-23_11h09.45.064,VisualSearch_2526_3,,2025.2.4,2026-02-23 11h09.45.591801 +0100,
