file_name,block_instructions,target_example,thisN,thisTrialN,thisRepN,target_presence,opacity_1,opacity_2,opacity_3,opacity_4,opacity_5,opacity_6,opacity_7,opacity_8,opacity_9,opacity_10,opacity_11,opacity_12,n_distract,n_items,target_ori,key_resp_4.keys,key_resp_4.rt,key_resp_4.duration,key_resp.keys,key_resp.corr,key_resp.rt,key_resp.duration,key_resp_5.keys,key_resp_5.rt,key_resp_5.duration,blocks.thisRepN,blocks.thisTrialN,blocks.thisN,blocks.thisIndex,practice_trials.thisRepN,practice_trials.thisTrialN,practice_trials.thisN,practice_trials.thisIndex,trials.thisRepN,trials.thisTrialN,trials.thisN,trials.thisIndex,thisRow.t,notes,Welcome.started,WelcomeText.started,key_resp_2.started,Welcome.stopped,key_resp_2.keys,key_resp_2.rt,key_resp_2.duration,InformedConsent.started,text_4.started,InformedConsent.stopped,key_resp_6.keys,key_resp_6.rt,key_resp_6.duration,key_resp_4.started,example_target.started,text_3.started,blocks.key_resp_4.keys,blocks.key_resp_4.rt,blocks.key_resp_4.duration,FixCross.started,fixCross.started,FixCross.stopped,Stimulus.started,key_resp.started,Stimulus.stopped,practice_trials.key_resp.keys,practice_trials.key_resp.corr,practice_trials.key_resp.rt,practice_trials.key_resp.duration,BlankScreen.started,text.started,text.stopped,BlankScreen.stopped,fixCross.stopped,ExperimentStart.started,text_2.started,key_resp_5.started,ExperimentStart.stopped,blocks.key_resp_5.keys,blocks.key_resp_5.rt,blocks.key_resp_5.duration,trials.key_resp.keys,trials.key_resp.corr,trials.key_resp.rt,trials.key_resp.duration,Thanks.started,ThankYou.started,key_resp_3.started,Thanks.stopped,key_resp_3.keys,key_resp_3.rt,key_resp_3.duration,participant,leeftijd,gender,links/rechtshandig,date,expName,expVersion,psychopyVersion,expStart,
,,,,,,,,,,,,,,,,,,,,,,,,,,,,,,,,,,,,,,,,,,,,,,0.015518699999802266,0.04327309999985118,0.04327309999985118,93.93724909999992,space,93.88447169999995,None,,,,,,,,,,,,,,,,,,,,,,,,,,,,,,,,,,,,,,,,,,,,,,869,24,M,L,2026-02-23_11h27.33.028,VisualSearch_2526_3,,2025.2.4,2026-02-23 11h27.33.255852 +0100,
,,,,,,,,,,,,,,,,,,,,,,,,,,,,,,,,,,,,,,,,,,,,,,,,,,,,,93.93739039999991,93.95301269999982,112.36239579999983,y,18.423348199999964,None,,,,,,,,,,,,,,,,,,,,,,,,,,,,,,,,,,,,,,,,869,24,M,L,2026-02-23_11h27.33.028,VisualSearch_2526_3,,2025.2.4,2026-02-23 11h27.33.255852 +0100,
tilted.xlsx,The target is tilted.,117,0,0,0,0,1,1,1,1,1,1,1,0,0,0,0,1,7,8,117,space,12.034367499999917,None,1,0,2.2484210999998595,None,,,,0,0,0,0,0,0,0,5,,,,,124.47042999999985,,,,,,,,,,,,,,,112.38916789999985,112.38916789999985,112.38916789999985,space,12.034367499999917,None,124.4652974999999,124.47042999999985,124.95566099999996,124.96039799999994,124.97791619999998,127.23889209999993,1,0,2.2484210999998595,None,127.23912519999999,127.25379429999998,127.4542351,127.43812389999994,,,,,,,,,,,,,,,,,,,,869,24,M,L,2026-02-23_11h27.33.028,VisualSearch_2526_3,,2025.2.4,2026-02-23 11h27.33.255852 +0100,
tilted.xlsx,The target is tilted.,117,1,1,0,1,1,1,1,1,1,1,1,1,1,1,1,0,11,12,117,space,12.034367499999917,None,1,1,1.8367392999998629,None,,,,0,0,0,0,0,1,1,0,,,,,127.4542351,,,,,,,,,,,,,,,,,,,,,127.43878949999998,127.4542351,127.93779210000002,127.94224329999997,127.95791450000002,129.8039832999998,1,1,1.8367392999998629,None,129.80414299999984,129.81927039999982,130.01957219999986,130.00360279999995,127.95791450000002,,,,,,,,,,,,,,,,,,,869,24,M,L,2026-02-23_11h27.33.028,VisualSearch_2526_3,,2025.2.4,2026-02-23 11h27.33.255852 +0100,
tilted.xlsx,The target is tilted.,117,2,2,0,0,1,1,1,0,0,0,0,0,0,0,0,1,3,4,117,space,12.034367499999917,None,0,1,1.6107339000000138,None,,,,0,0,0,0,0,2,2,6,,,,,130.01957219999986,,,,,,,,,,,,,,,,,,,,,130.0042406,130.01957219999986,130.50339999999983,130.5079194,130.52600389999998,132.15234569999984,0,1,1.6107339000000138,None,132.1525185999999,132.16816799999992,132.36821689999988,132.35255510000002,130.52600389999998,,,,,,,,,,,,,,,,,,,869,24,M,L,2026-02-23_11h27.33.028,VisualSearch_2526_3,,2025.2.4,2026-02-23 11h27.33.255852 +0100,
tilted.xlsx,The target is tilted.,117,3,3,0,1,0,0,0,0,0,0,0,0,0,0,0,0,0,1,117,space,12.034367499999917,None,1,1,1.0955633999999463,None,,,,0,0,0,0,0,3,3,3,,,,,132.36821689999988,,,,,,,,,,,,,,,,,,,,,132.35320409999986,132.36821689999988,132.85233169999992,132.85681069999987,132.8738977999999,133.98469809999983,1,1,1.0955633999999463,None,133.98483339999984,134.00058439999998,134.2010358,134.1849361999998,132.8738977999999,,,,,,,,,,,,,,,,,,,869,24,M,L,2026-02-23_11h27.33.028,VisualSearch_2526_3,,2025.2.4,2026-02-23 11h27.33.255852 +0100,
tilted.xlsx,The target is tilted.,117,4,4,0,1,1,1,1,1,1,1,1,0,0,0,0,0,7,8,117,space,12.034367499999917,None,1,1,1.6083862000000408,None,,,,0,0,0,0,0,4,4,1,,,,,134.2010358,,,,,,,,,,,,,,,,,,,,,134.18561069999987,134.2010358,134.6848407,134.68935379999994,134.70075999999995,136.31793959999982,1,1,1.6083862000000408,None,136.3181353,136.3329792999998,136.53343649999988,136.51696359999983,134.70075999999995,,,,,,,,,,,,,,,,,,,869,24,M,L,2026-02-23_11h27.33.028,VisualSearch_2526_3,,2025.2.4,2026-02-23 11h27.33.255852 +0100,
tilted.xlsx,The target is tilted.,117,5,5,0,0,1,1,1,1,1,1,1,1,1,1,1,1,11,12,117,space,12.034367499999917,None,0,1,4.582015099999808,None,,,,0,0,0,0,0,5,5,4,,,,,136.53343649999988,,,,,,,,,,,,,,,,,,,,,136.51763629999982,136.53343649999988,137.0170807999998,137.02161339999998,137.03767679999987,141.63116489999993,0,1,4.582015099999808,None,141.6313,141.64716929999986,141.84742579999988,141.8315224999999,137.03767679999987,,,,,,,,,,,,,,,,,,,869,24,M,L,2026-02-23_11h27.33.028,VisualSearch_2526_3,,2025.2.4,2026-02-23 11h27.33.255852 +0100,
tilted.xlsx,The target is tilted.,117,6,6,0,1,1,1,1,0,0,0,0,0,0,0,0,0,3,4,117,space,12.034367499999917,None,1,1,0.9669754999999896,None,,,,0,0,0,0,0,6,6,2,,,,,141.84742579999988,,,,,,,,,,,,,,,,,,,,,141.8321644,141.84742579999988,142.33129399999984,142.33578079999984,142.35221269999988,143.33128139999985,1,1,0.9669754999999896,None,143.3314739,143.34636869999986,143.54697729999998,143.53082929999982,142.35221269999988,,,,,,,,,,,,,,,,,,,869,24,M,L,2026-02-23_11h27.33.028,VisualSearch_2526_3,,2025.2.4,2026-02-23 11h27.33.255852 +0100,
tilted.xlsx,The target is tilted.,117,7,7,0,0,0,0,0,0,0,0,0,0,0,0,0,1,1,1,117,space,12.034367499999917,None,0,1,0.9589078999999856,None,,,,0,0,0,0,0,7,7,7,,,,,143.54697729999998,,,,,,,,,,,,,,,,,,,,,143.53149529999996,143.54697729999998,144.03039489999992,144.03553309999984,144.05174409999995,145.01395179999986,0,1,0.9589078999999856,None,145.01414469999986,145.0290935999999,145.2293411999999,145.2128826999999,144.05174409999995,,,,,,,,,,,,,,,,,,,869,24,M,L,2026-02-23_11h27.33.028,VisualSearch_2526_3,,2025.2.4,2026-02-23 11h27.33.255852 +0100,
tilted.xlsx,The target is tilted.,117,0,0,0,1,0,0,0,0,0,0,0,0,0,0,0,0,0,1,117,space,12.034367499999917,None,1,1,0.6887656000001243,None,space,1.821536100000003,None,0,0,0,0,,,,,0,0,0,3,147.09372729999995,,,,,,,,,,,,,,,,,,,,,147.08958510000002,147.09372729999995,147.57868639999992,147.58319289999986,147.59985789999996,148.29592519999983,,,,,148.29615489999992,148.31091070000002,148.5113412999999,148.49526589999982,,145.21852560000002,145.2293411999999,145.2293411999999,147.06256829999984,space,1.821536100000003,None,1,1,0.6887656000001243,None,,,,,,,,869,24,M,L,2026-02-23_11h27.33.028,VisualSearch_2526_3,,2025.2.4,2026-02-23 11h27.33.255852 +0100,
tilted.xlsx,The target is tilted.,117,1,1,0,0,1,1,1,1,1,1,1,0,0,0,0,1,7,8,117,space,12.034367499999917,None,0,1,2.5356272000001354,None,space,1.821536100000003,None,0,0,0,0,,,,,0,1,1,5,148.5113412999999,,,,,,,,,,,,,,,,,,,,,148.49604399999998,148.5113412999999,148.99462569999992,148.99925319999988,149.01471449999985,151.56071350000002,,,,,151.56091270000002,151.5760662,151.77653020000002,151.76050439999995,149.01471449999985,,,,,,,,0,1,2.5356272000001354,None,,,,,,,,869,24,M,L,2026-02-23_11h27.33.028,VisualSearch_2526_3,,2025.2.4,2026-02-23 11h27.33.255852 +0100,
tilted.xlsx,The target is tilted.,117,2,2,0,0,1,1,1,0,0,0,0,0,0,0,0,1,3,4,117,space,12.034367499999917,None,0,1,1.223593800000117,None,space,1.821536100000003,None,0,0,0,0,,,,,0,2,2,6,151.77653020000002,,,,,,,,,,,,,,,,,,,,,151.7613641999999,151.77653020000002,152.2599846999999,152.2643332,152.27613869999982,153.50988359999997,,,,,153.51006519999987,153.52513839999983,153.72520689999988,153.70961599999987,152.27613869999982,,,,,,,,0,1,1.223593800000117,None,,,,,,,,869,24,M,L,2026-02-23_11h27.33.028,VisualSearch_2526_3,,2025.2.4,2026-02-23 11h27.33.255852 +0100,
tilted.xlsx,The target is tilted.,117,3,3,0,1,1,1,1,0,0,0,0,0,0,0,0,0,3,4,117,space,12.034367499999917,None,1,1,0.9749243999999635,None,space,1.821536100000003,None,0,0,0,0,,,,,0,3,3,2,153.72520689999988,,,,,,,,,,,,,,,,,,,,,153.7105285,153.72520689999988,154.20929479999995,154.21372499999984,154.2296859999999,155.20860129999983,,,,,155.20874259999982,155.2244315999999,155.4248109,155.40875829999982,154.2296859999999,,,,,,,,1,1,0.9749243999999635,None,,,,,,,,869,24,M,L,2026-02-23_11h27.33.028,VisualSearch_2526_3,,2025.2.4,2026-02-23 11h27.33.255852 +0100,
tilted.xlsx,The target is tilted.,117,4,4,0,0,1,1,1,1,1,1,1,1,1,1,1,1,11,12,117,space,12.034367499999917,None,0,1,4.074835099999973,None,space,1.821536100000003,None,0,0,0,0,,,,,0,4,4,4,155.4248109,,,,,,,,,,,,,,,,,,,,,155.40947719999986,155.4248109,155.90863489999992,155.91318579999984,155.92962949999992,160.0070326,,,,,160.0072407,160.02220909999983,160.2225269999999,160.20659579999983,155.92962949999992,,,,,,,,0,1,4.074835099999973,None,,,,,,,,869,24,M,L,2026-02-23_11h27.33.028,VisualSearch_2526_3,,2025.2.4,2026-02-23 11h27.33.255852 +0100,
tilted.xlsx,The target is tilted.,117,5,5,0,1,1,1,1,1,1,1,1,1,1,1,1,0,11,12,117,space,12.034367499999917,None,1,1,1.980601100000058,None,space,1.821536100000003,None,0,0,0,0,,,,,0,5,5,0,160.2225269999999,,,,,,,,,,,,,,,,,,,,,160.20730779999985,160.2225269999999,160.70602599999984,160.7105775,160.7277889999998,162.7219341,,,,,162.7221477999999,162.73772399999984,162.93793129999995,162.92181659999983,160.7277889999998,,,,,,,,1,1,1.980601100000058,None,,,,,,,,869,24,M,L,2026-02-23_11h27.33.028,VisualSearch_2526_3,,2025.2.4,2026-02-23 11h27.33.255852 +0100,
tilted.xlsx,The target is tilted.,117,6,6,0,1,1,1,1,1,1,1,1,0,0,0,0,0,7,8,117,space,12.034367499999917,None,1,1,0.9558773000001111,None,space,1.821536100000003,None,0,0,0,0,,,,,0,6,6,1,162.93793129999995,,,,,,,,,,,,,,,,,,,,,162.9225422999998,162.93793129999995,163.42164609999986,163.42614099999992,163.44420549999995,164.40434749999986,,,,,164.40448749999996,164.42008429999987,164.62028859999987,164.60406779999994,163.44420549999995,,,,,,,,1,1,0.9558773000001111,None,,,,,,,,869,24,M,L,2026-02-23_11h27.33.028,VisualSearch_2526_3,,2025.2.4,2026-02-23 11h27.33.255852 +0100,
tilted.xlsx,The target is tilted.,117,7,7,0,0,0,0,0,0,0,0,0,0,0,0,0,1,1,1,117,space,12.034367499999917,None,0,1,0.7705270999999811,None,space,1.821536100000003,None,0,0,0,0,,,,,0,7,7,7,164.62028859999987,,,,,,,,,,,,,,,,,,,,,164.60465709999994,164.62028859999987,165.10453699999994,165.10902829999986,165.12022230000002,165.90391599999998,,,,,165.9041198,165.91951499999982,166.11967389999995,166.1039205999998,165.12022230000002,,,,,,,,0,1,0.7705270999999811,None,,,,,,,,869,24,M,L,2026-02-23_11h27.33.028,VisualSearch_2526_3,,2025.2.4,2026-02-23 11h27.33.255852 +0100,
tilted.xlsx,The target is tilted.,117,8,0,1,1,1,1,1,1,1,1,1,1,1,1,1,0,11,12,117,space,12.034367499999917,None,1,1,4.112036499999931,None,space,1.821536100000003,None,0,0,0,0,,,,,1,0,8,0,166.11967389999995,,,,,,,,,,,,,,,,,,,,,166.10463149999987,166.11967389999995,166.6029572,166.60661179999988,166.61941589999992,170.73437049999984,,,,,170.73445419999985,170.75049439999998,170.9508033999998,170.93471759999989,166.61941589999992,,,,,,,,1,1,4.112036499999931,None,,,,,,,,869,24,M,L,2026-02-23_11h27.33.028,VisualSearch_2526_3,,2025.2.4,2026-02-23 11h27.33.255852 +0100,
tilted.xlsx,The target is tilted.,117,9,1,1,1,0,0,0,0,0,0,0,0,0,0,0,0,0,1,117,space,12.034367499999917,None,1,1,0.702657199999976,None,space,1.821536100000003,None,0,0,0,0,,,,,1,1,9,3,170.9508033999998,,,,,,,,,,,,,,,,,,,,,170.93544039999983,170.9508033999998,171.4345805999999,171.43910879999999,171.45710369999983,172.1679502999998,,,,,172.16816010000002,172.1834429999999,172.38383809999982,172.36751349999986,,,,,,,,,1,1,0.702657199999976,None,,,,,,,,869,24,M,L,2026-02-23_11h27.33.028,VisualSearch_2526_3,,2025.2.4,2026-02-23 11h27.33.255852 +0100,
tilted.xlsx,The target is tilted.,117,10,2,1,0,1,1,1,0,0,0,0,0,0,0,0,1,3,4,117,space,12.034367499999917,None,0,1,0.8790793999999096,None,space,1.821536100000003,None,0,0,0,0,,,,,1,2,10,6,172.38383809999982,,,,,,,,,,,,,,,,,,,,,172.3682538999999,172.38383809999982,172.86710979999998,172.87174159999995,172.88816359999987,173.78350869999986,,,,,173.78371470000002,173.7992666,173.9994568999998,173.98346429999992,172.88816359999987,,,,,,,,0,1,0.8790793999999096,None,,,,,,,,869,24,M,L,2026-02-23_11h27.33.028,VisualSearch_2526_3,,2025.2.4,2026-02-23 11h27.33.255852 +0100,
tilted.xlsx,The target is tilted.,117,11,3,1,1,1,1,1,1,1,1,1,0,0,0,0,0,7,8,117,space,12.034367499999917,None,1,1,0.9974580000000515,None,space,1.821536100000003,None,0,0,0,0,,,,,1,3,11,1,173.9994568999998,,,,,,,,,,,,,,,,,,,,,173.98419569999987,173.9994568999998,174.48295439999993,174.48745009999993,174.5037772999999,175.51576409999984,,,,,175.5159064999998,175.5319775999999,175.73179849999997,175.7152451999998,174.5037772999999,,,,,,,,1,1,0.9974580000000515,None,,,,,,,,869,24,M,L,2026-02-23_11h27.33.028,VisualSearch_2526_3,,2025.2.4,2026-02-23 11h27.33.255852 +0100,
tilted.xlsx,The target is tilted.,117,12,4,1,0,1,1,1,1,1,1,1,1,1,1,1,1,11,12,117,space,12.034367499999917,None,0,1,3.2053885000000264,None,space,1.821536100000003,None,0,0,0,0,,,,,1,4,12,4,175.73179849999997,,,,,,,,,,,,,,,,,,,,,175.71578060000002,175.73179849999997,176.2159798,176.22040989999982,176.23783739999976,179.44778079999992,,,,,179.44792209999991,179.4632326999997,179.66364959999987,179.6474698999998,176.23783739999976,,,,,,,,0,1,3.2053885000000264,None,,,,,,,,869,24,M,L,2026-02-23_11h27.33.028,VisualSearch_2526_3,,2025.2.4,2026-02-23 11h27.33.255852 +0100,
tilted.xlsx,The target is tilted.,117,13,5,1,0,0,0,0,0,0,0,0,0,0,0,0,1,1,1,117,space,12.034367499999917,None,0,1,0.6436776999998983,None,space,1.821536100000003,None,0,0,0,0,,,,,1,5,13,7,179.66364959999987,,,,,,,,,,,,,,,,,,,,,179.6482150999998,179.66364959999987,180.14752339999973,180.15199319999988,180.16888670000003,180.81475690000002,,,,,180.81495659999996,180.8294239999998,181.02958289999992,181.01380369999993,180.16888670000003,,,,,,,,0,1,0.6436776999998983,None,,,,,,,,869,24,M,L,2026-02-23_11h27.33.028,VisualSearch_2526_3,,2025.2.4,2026-02-23 11h27.33.255852 +0100,
tilted.xlsx,The target is tilted.,117,14,6,1,0,1,1,1,1,1,1,1,0,0,0,0,1,7,8,117,space,12.034367499999917,None,0,1,2.9531104999996387,None,space,1.821536100000003,None,0,0,0,0,,,,,1,6,14,5,181.02958289999992,,,,,,,,,,,,,,,,,,,,,181.0145074999998,181.02958289999992,181.5133454999998,181.5178672999998,181.5291826,184.49496739999972,,,,,184.4951209999997,184.51106479999976,184.7114896999999,184.69534950000002,181.5291826,,,,,,,,0,1,2.9531104999996387,None,,,,,,,,869,24,M,L,2026-02-23_11h27.33.028,VisualSearch_2526_3,,2025.2.4,2026-02-23 11h27.33.255852 +0100,
tilted.xlsx,The target is tilted.,117,15,7,1,1,1,1,1,0,0,0,0,0,0,0,0,0,3,4,117,space,12.034367499999917,None,1,1,0.9107163999997283,None,space,1.821536100000003,None,0,0,0,0,,,,,1,7,15,2,184.7114896999999,,,,,,,,,,,,,,,,,,,,,184.69609220000007,184.7114896999999,185.19486239999992,185.1993872999999,185.2151019999999,186.12849600000004,,,,,186.12867729999994,186.14366339999992,186.3441660000001,186.3280517999999,185.2151019999999,,,,,,,,1,1,0.9107163999997283,None,,,,,,,,869,24,M,L,2026-02-23_11h27.33.028,VisualSearch_2526_3,,2025.2.4,2026-02-23 11h27.33.255852 +0100,
tilted.xlsx,The target is tilted.,117,16,0,2,1,0,0,0,0,0,0,0,0,0,0,0,0,0,1,117,space,12.034367499999917,None,1,1,0.644456199999695,None,space,1.821536100000003,None,0,0,0,0,,,,,2,0,16,3,186.3441660000001,,,,,,,,,,,,,,,,,,,,,186.3287702,186.3441660000001,186.82775629999992,186.8322099999998,186.84901710000008,187.4947795999999,,,,,187.49501170000008,187.50981679999973,187.70960749999972,187.69389579999984,186.84901710000008,,,,,,,,1,1,0.644456199999695,None,,,,,,,,869,24,M,L,2026-02-23_11h27.33.028,VisualSearch_2526_3,,2025.2.4,2026-02-23 11h27.33.255852 +0100,
tilted.xlsx,The target is tilted.,117,17,1,2,1,1,1,1,1,1,1,1,0,0,0,0,0,7,8,117,space,12.034367499999917,None,1,1,1.8959933000001001,None,space,1.821536100000003,None,0,0,0,0,,,,,2,1,17,1,187.70960749999972,,,,,,,,,,,,,,,,,,,,,187.6946292,187.70960749999972,188.19410119999998,188.1989812999998,188.21687180000004,190.12628500000005,,,,,190.12648869999998,190.14184659999978,190.34235239999975,190.3262054999998,188.21687180000004,,,,,,,,1,1,1.8959933000001001,None,,,,,,,,869,24,M,L,2026-02-23_11h27.33.028,VisualSearch_2526_3,,2025.2.4,2026-02-23 11h27.33.255852 +0100,
tilted.xlsx,The target is tilted.,117,18,2,2,0,1,1,1,1,1,1,1,0,0,0,0,1,7,8,117,space,12.034367499999917,None,0,1,1.9965454000002865,None,space,1.821536100000003,None,0,0,0,0,,,,,2,2,18,5,190.34235239999975,,,,,,,,,,,,,,,,,,,,,190.3269899999998,190.34235239999975,190.8257016,190.83019089999993,190.84640239999976,192.85831819999999,,,,,192.85854540000014,192.87394819999986,193.0743912999999,193.05836010000007,190.84640239999976,,,,,,,,0,1,1.9965454000002865,None,,,,,,,,869,24,M,L,2026-02-23_11h27.33.028,VisualSearch_2526_3,,2025.2.4,2026-02-23 11h27.33.255852 +0100,
tilted.xlsx,The target is tilted.,117,19,3,2,0,1,1,1,0,0,0,0,0,0,0,0,1,3,4,117,space,12.034367499999917,None,0,1,2.8155400999999074,None,space,1.821536100000003,None,0,0,0,0,,,,,2,3,19,6,193.0743912999999,,,,,,,,,,,,,,,,,,,,,193.05906159999972,193.0743912999999,193.55772619999993,193.56219869999973,193.5793083000001,196.40742119999982,,,,,196.40764280000008,196.42238829999974,196.6228334,196.60672799999998,193.5793083000001,,,,,,,,0,1,2.8155400999999074,None,,,,,,,,869,24,M,L,2026-02-23_11h27.33.028,VisualSearch_2526_3,,2025.2.4,2026-02-23 11h27.33.255852 +0100,
tilted.xlsx,The target is tilted.,117,20,4,2,0,1,1,1,1,1,1,1,1,1,1,1,1,11,12,117,space,12.034367499999917,None,0,1,4.791537999999946,None,space,1.821536100000003,None,0,0,0,0,,,,,2,4,20,4,196.6228334,,,,,,,,,,,,,,,,,,,,,196.6074369999999,196.6228334,197.10624080000002,197.11072450000006,197.12820859999988,201.9210639999999,,,,,201.9212630999998,201.9364554000001,202.13701789999982,202.12070329999983,197.12820859999988,,,,,,,,0,1,4.791537999999946,None,,,,,,,,869,24,M,L,2026-02-23_11h27.33.028,VisualSearch_2526_3,,2025.2.4,2026-02-23 11h27.33.255852 +0100,
tilted.xlsx,The target is tilted.,117,21,5,2,1,1,1,1,0,0,0,0,0,0,0,0,0,3,4,117,space,12.034367499999917,None,1,1,1.1451437000000624,None,space,1.821536100000003,None,0,0,0,0,,,,,2,5,21,2,202.13701789999982,,,,,,,,,,,,,,,,,,,,,202.1215348999997,202.13701789999982,202.62028110000006,202.62486830000012,202.64084449999996,203.8036698999997,,,,,203.80387309999992,203.81905230000007,204.01941340000008,204.00323430000003,202.64084449999996,,,,,,,,1,1,1.1451437000000624,None,,,,,,,,869,24,M,L,2026-02-23_11h27.33.028,VisualSearch_2526_3,,2025.2.4,2026-02-23 11h27.33.255852 +0100,
tilted.xlsx,The target is tilted.,117,22,6,2,0,0,0,0,0,0,0,0,0,0,0,0,1,1,1,117,space,12.034367499999917,None,0,1,0.7604992999999922,None,space,1.821536100000003,None,0,0,0,0,,,,,2,6,22,7,204.01941340000008,,,,,,,,,,,,,,,,,,,,,204.00408820000007,204.01941340000008,204.5031422999998,204.50759409999978,204.5230436999998,205.28678000000014,,,,,205.2870000999999,205.30163749999997,205.50213740000004,205.48601619999977,204.5230436999998,,,,,,,,0,1,0.7604992999999922,None,,,,,,,,869,24,M,L,2026-02-23_11h27.33.028,VisualSearch_2526_3,,2025.2.4,2026-02-23 11h27.33.255852 +0100,
tilted.xlsx,The target is tilted.,117,23,7,2,1,1,1,1,1,1,1,1,1,1,1,1,0,11,12,117,space,12.034367499999917,None,1,1,2.1106700000000274,None,space,1.821536100000003,None,0,0,0,0,,,,,2,7,23,0,205.50213740000004,,,,,,,,,,,,,,,,,,,,,205.4867268999999,205.50213740000004,205.9857789,205.99019870000006,206.0067117000001,208.11843309999972,,,,,208.11861169999997,208.13374569999974,208.33384199999978,208.31823809999992,206.0067117000001,,,,,,,,1,1,2.1106700000000274,None,,,,,,,,869,24,M,L,2026-02-23_11h27.33.028,VisualSearch_2526_3,,2025.2.4,2026-02-23 11h27.33.255852 +0100,
tilted.xlsx,The target is tilted.,117,24,0,3,0,1,1,1,1,1,1,1,0,0,0,0,1,7,8,117,space,12.034367499999917,None,0,1,2.695617200000015,None,space,1.821536100000003,None,0,0,0,0,,,,,3,0,24,5,208.33384199999978,,,,,,,,,,,,,,,,,,,,,208.31903959999977,208.33384199999978,208.81793059999995,208.82247219999977,208.83320369999979,211.53245919999995,,,,,211.53253289999998,211.54881309999996,211.7492335999998,211.73299530000008,208.83320369999979,,,,,,,,0,1,2.695617200000015,None,,,,,,,,869,24,M,L,2026-02-23_11h27.33.028,VisualSearch_2526_3,,2025.2.4,2026-02-23 11h27.33.255852 +0100,
tilted.xlsx,The target is tilted.,117,25,1,3,0,1,1,1,1,1,1,1,1,1,1,1,1,11,12,117,space,12.034367499999917,None,0,1,3.72451620000038,None,space,1.821536100000003,None,0,0,0,0,,,,,3,1,25,4,211.7492335999998,,,,,,,,,,,,,,,,,,,,,211.73372749999976,211.7492335999998,212.23271659999978,212.23724530000004,212.25296849999972,215.9814656000001,,,,,215.98166539999988,215.9967408,216.1973657000001,216.1808408999998,,,,,,,,,0,1,3.72451620000038,None,,,,,,,,869,24,M,L,2026-02-23_11h27.33.028,VisualSearch_2526_3,,2025.2.4,2026-02-23 11h27.33.255852 +0100,
tilted.xlsx,The target is tilted.,117,26,2,3,0,1,1,1,0,0,0,0,0,0,0,0,1,3,4,117,space,12.034367499999917,None,0,1,1.0986042999998062,None,space,1.821536100000003,None,0,0,0,0,,,,,3,2,26,6,216.1973657000001,,,,,,,,,,,,,,,,,,,,,216.1815592999999,216.1973657000001,216.68082069999969,216.6853361000001,216.70155349999982,217.81354609999994,,,,,217.8137432000001,217.82929279999985,218.0294296999998,218.01361269999984,216.70155349999982,,,,,,,,0,1,1.0986042999998062,None,,,,,,,,869,24,M,L,2026-02-23_11h27.33.028,VisualSearch_2526_3,,2025.2.4,2026-02-23 11h27.33.255852 +0100,
tilted.xlsx,The target is tilted.,117,27,3,3,1,0,0,0,0,0,0,0,0,0,0,0,0,0,1,117,space,12.034367499999917,None,1,1,0.6013411000003543,None,space,1.821536100000003,None,0,0,0,0,,,,,3,3,27,3,218.0294296999998,,,,,,,,,,,,,,,,,,,,,218.01439389999973,218.0294296999998,218.51332369999977,218.51780429999985,218.53655049999975,219.14688049999972,,,,,219.1470628999998,219.16210720000004,219.36224089999973,219.34606389999976,218.53655049999975,,,,,,,,1,1,0.6013411000003543,None,,,,,,,,869,24,M,L,2026-02-23_11h27.33.028,VisualSearch_2526_3,,2025.2.4,2026-02-23 11h27.33.255852 +0100,
tilted.xlsx,The target is tilted.,117,28,4,3,1,1,1,1,1,1,1,1,0,0,0,0,0,7,8,117,space,12.034367499999917,None,1,1,1.5054199000001063,None,space,1.821536100000003,None,0,0,0,0,,,,,3,4,28,1,219.36224089999973,,,,,,,,,,,,,,,,,,,,,219.3467822,219.36224089999973,219.8461804000001,219.85070169999995,219.8644265999999,221.37858699999992,,,,,221.3787049,221.39436469999987,221.5948181000001,221.5787141999997,219.8644265999999,,,,,,,,1,1,1.5054199000001063,None,,,,,,,,869,24,M,L,2026-02-23_11h27.33.028,VisualSearch_2526_3,,2025.2.4,2026-02-23 11h27.33.255852 +0100,
tilted.xlsx,The target is tilted.,117,29,5,3,1,1,1,1,0,0,0,0,0,0,0,0,0,3,4,117,space,12.034367499999917,None,1,1,1.0418076999999357,None,space,1.821536100000003,None,0,0,0,0,,,,,3,5,29,2,221.5948181000001,,,,,,,,,,,,,,,,,,,,,221.57943049999972,221.5948181000001,222.0786241999997,222.08314929999983,222.09963719999973,223.1447470999999,,,,,223.14492989999985,223.1602145999998,223.36065669999994,223.34469179999974,222.09963719999973,,,,,,,,1,1,1.0418076999999357,None,,,,,,,,869,24,M,L,2026-02-23_11h27.33.028,VisualSearch_2526_3,,2025.2.4,2026-02-23 11h27.33.255852 +0100,
tilted.xlsx,The target is tilted.,117,30,6,3,1,1,1,1,1,1,1,1,1,1,1,1,0,11,12,117,space,12.034367499999917,None,1,1,0.9421747999999752,None,space,1.821536100000003,None,0,0,0,0,,,,,3,6,30,0,223.36065669999994,,,,,,,,,,,,,,,,,,,,,223.34549540000012,223.36065669999994,223.84414009999978,223.84859170000004,223.8636838,224.81094359999975,,,,,224.8111483,224.82601139999974,225.02619759999993,225.01013679999983,223.8636838,,,,,,,,1,1,0.9421747999999752,None,,,,,,,,869,24,M,L,2026-02-23_11h27.33.028,VisualSearch_2526_3,,2025.2.4,2026-02-23 11h27.33.255852 +0100,
tilted.xlsx,The target is tilted.,117,31,7,3,0,0,0,0,0,0,0,0,0,0,0,0,1,1,1,117,space,12.034367499999917,None,0,1,0.7563454000001002,None,space,1.821536100000003,None,0,0,0,0,,,,,3,7,31,7,225.02619759999993,,,,,,,,,,,,,,,,,,,,,225.0108905999998,225.02619759999993,225.50991150000004,225.5144617999997,225.53088309999998,226.29381260000014,,,,,226.29401299999995,226.30873869999982,226.5093006999998,226.49315339999998,225.53088309999998,,,,,,,,0,1,0.7563454000001002,None,,,,,,,,869,24,M,L,2026-02-23_11h27.33.028,VisualSearch_2526_3,,2025.2.4,2026-02-23 11h27.33.255852 +0100,
tilted.xlsx,The target is tilted.,117,32,0,4,0,1,1,1,1,1,1,1,0,0,0,0,1,7,8,117,space,12.034367499999917,None,0,1,3.4777772000002187,None,space,1.821536100000003,None,0,0,0,0,,,,,4,0,32,5,226.5093006999998,,,,,,,,,,,,,,,,,,,,,226.49385989999996,226.5093006999998,226.9928321,226.99733859999992,227.0141083000001,230.50735929999996,,,,,230.50746879999974,230.52367479999998,,230.70772939999983,227.0141083000001,,,,,,,,0,1,3.4777772000002187,None,,,,,,,,869,24,M,L,2026-02-23_11h27.33.028,VisualSearch_2526_3,,2025.2.4,2026-02-23 11h27.33.255852 +0100,
tilted.xlsx,The target is tilted.,117,33,1,4,1,1,1,1,1,1,1,1,0,0,0,0,0,7,8,117,space,12.034367499999917,None,1,1,1.7159154999999373,None,space,1.821536100000003,None,0,0,0,0,,,,,4,1,33,1,230.72403009999994,,,,,,,,,,,,,,,,,,,,,230.70850159999986,230.72403009999994,231.20767550000005,231.21213890000013,231.2288888999999,232.95749479999972,,,,,232.95772039999997,232.97245559999988,233.17248080000013,233.1566239000001,231.2288888999999,,,,,,,,1,1,1.7159154999999373,None,,,,,,,,869,24,M,L,2026-02-23_11h27.33.028,VisualSearch_2526_3,,2025.2.4,2026-02-23 11h27.33.255852 +0100,
tilted.xlsx,The target is tilted.,117,34,2,4,1,1,1,1,1,1,1,1,1,1,1,1,0,11,12,117,space,12.034367499999917,None,1,1,2.0511695000000145,None,space,1.821536100000003,None,0,0,0,0,,,,,4,2,34,0,233.17248080000013,,,,,,,,,,,,,,,,,,,,,233.15737319999994,233.17248080000013,233.6564676999999,233.66092509999976,233.67798089999974,235.73875669999984,,,,,235.73883569999975,235.75422939999976,235.9550369000001,235.93894179999984,233.67798089999974,,,,,,,,1,1,2.0511695000000145,None,,,,,,,,869,24,M,L,2026-02-23_11h27.33.028,VisualSearch_2526_3,,2025.2.4,2026-02-23 11h27.33.255852 +0100,
tilted.xlsx,The target is tilted.,117,35,3,4,0,1,1,1,0,0,0,0,0,0,0,0,1,3,4,117,space,12.034367499999917,None,0,1,1.625900399999864,None,space,1.821536100000003,None,0,0,0,0,,,,,4,3,35,6,235.9550369000001,,,,,,,,,,,,,,,,,,,,,235.93968569999993,235.9550369000001,236.4384308000001,236.44207720000009,236.4570329999999,238.08790720000002,,,,,238.0880454999999,238.10341649999987,238.30390409999995,238.28783689999977,236.4570329999999,,,,,,,,0,1,1.625900399999864,None,,,,,,,,869,24,M,L,2026-02-23_11h27.33.028,VisualSearch_2526_3,,2025.2.4,2026-02-23 11h27.33.255852 +0100,
tilted.xlsx,The target is tilted.,117,36,4,4,1,0,0,0,0,0,0,0,0,0,0,0,0,0,1,117,space,12.034367499999917,None,1,1,0.7174026999996386,None,space,1.821536100000003,None,0,0,0,0,,,,,4,4,36,3,238.30390409999995,,,,,,,,,,,,,,,,,,,,,238.28855180000005,238.30390409999995,238.7875679000001,238.79202710000004,238.80973889999973,239.53780979999988,,,,,239.53803779999976,239.55276149999986,239.75279829999977,239.7367681999997,238.80973889999973,,,,,,,,1,1,0.7174026999996386,None,,,,,,,,869,24,M,L,2026-02-23_11h27.33.028,VisualSearch_2526_3,,2025.2.4,2026-02-23 11h27.33.255852 +0100,
tilted.xlsx,The target is tilted.,117,37,5,4,0,0,0,0,0,0,0,0,0,0,0,0,1,1,1,117,space,12.034367499999917,None,0,1,0.6228264999999737,None,space,1.821536100000003,None,0,0,0,0,,,,,4,5,37,7,239.75279829999977,,,,,,,,,,,,,,,,,,,,,239.7374815999999,239.75279829999977,240.2365127999999,240.24099159999992,240.25785119999978,240.88764359999982,,,,,240.8878626999997,240.9022238,241.1021202999998,241.08586319999972,240.25785119999978,,,,,,,,0,1,0.6228264999999737,None,,,,,,,,869,24,M,L,2026-02-23_11h27.33.028,VisualSearch_2526_3,,2025.2.4,2026-02-23 11h27.33.255852 +0100,
tilted.xlsx,The target is tilted.,117,38,6,4,0,1,1,1,1,1,1,1,1,1,1,1,1,11,12,117,space,12.034367499999917,None,0,1,3.640149199999996,None,space,1.821536100000003,None,0,0,0,0,,,,,4,6,38,4,241.1021202999998,,,,,,,,,,,,,,,,,,,,,241.08652719999986,241.1021202999998,241.5863069999998,241.59077379999985,241.60811499999977,245.2514421999997,,,,,245.25162299999988,245.2667632,245.46718499999974,245.4506985999999,241.60811499999977,,,,,,,,0,1,3.640149199999996,None,,,,,,,,869,24,M,L,2026-02-23_11h27.33.028,VisualSearch_2526_3,,2025.2.4,2026-02-23 11h27.33.255852 +0100,
tilted.xlsx,The target is tilted.,117,39,7,4,1,1,1,1,0,0,0,0,0,0,0,0,0,3,4,117,space,12.034367499999917,None,0,0,1.2302709000000505,None,space,1.821536100000003,None,0,0,0,0,,,,,4,7,39,2,245.46718499999974,,,,,,,,,,,,,,,,,,,,,245.45144389999973,245.46718499999974,245.9508057999999,245.95530059999987,245.97136870000008,247.2169336999998,,,,,247.21715179999978,247.23262999999974,247.43277699999976,247.41706739999995,245.97136870000008,,,,,,,,0,0,1.2302709000000505,None,,,,,,,,869,24,M,L,2026-02-23_11h27.33.028,VisualSearch_2526_3,,2025.2.4,2026-02-23 11h27.33.255852 +0100,
tilted.xlsx,The target is tilted.,117,40,0,5,0,1,1,1,1,1,1,1,0,0,0,0,1,7,8,117,space,12.034367499999917,None,0,1,2.6983382000003076,None,space,1.821536100000003,None,0,0,0,0,,,,,5,0,40,5,247.43277699999976,,,,,,,,,,,,,,,,,,,,,247.41782510000007,247.43277699999976,247.91680699999984,247.92123549999974,247.93857060000005,250.64945250000005,,,,,250.6496853000001,250.66437889999975,250.8645300999999,250.8487405999997,247.93857060000005,,,,,,,,0,1,2.6983382000003076,None,,,,,,,,869,24,M,L,2026-02-23_11h27.33.028,VisualSearch_2526_3,,2025.2.4,2026-02-23 11h27.33.255852 +0100,
tilted.xlsx,The target is tilted.,117,41,1,5,0,0,0,0,0,0,0,0,0,0,0,0,1,1,1,117,space,12.034367499999917,None,0,1,0.5516391000001022,None,space,1.821536100000003,None,0,0,0,0,,,,,5,1,41,7,250.8645300999999,,,,,,,,,,,,,,,,,,,,,250.84945240000002,250.8645300999999,251.34809579999978,251.35260229999972,251.3694098999997,251.93141850000006,,,,,251.93158629999994,251.94717349999996,252.1475656,252.1315234000001,251.3694098999997,,,,,,,,0,1,0.5516391000001022,None,,,,,,,,869,24,M,L,2026-02-23_11h27.33.028,VisualSearch_2526_3,,2025.2.4,2026-02-23 11h27.33.255852 +0100,
tilted.xlsx,The target is tilted.,117,42,2,5,1,1,1,1,1,1,1,1,0,0,0,0,0,7,8,117,space,12.034367499999917,None,1,1,0.9547426999997697,None,space,1.821536100000003,None,0,0,0,0,,,,,5,2,42,1,252.1475656,,,,,,,,,,,,,,,,,,,,,252.13223240000002,252.1475656,252.63142970000013,252.63648230000013,252.65232709999987,253.6146409999999,,,,,253.61483859999976,253.62975489999985,253.8301355000001,253.81412709999972,252.65232709999987,,,,,,,,1,1,0.9547426999997697,None,,,,,,,,869,24,M,L,2026-02-23_11h27.33.028,VisualSearch_2526_3,,2025.2.4,2026-02-23 11h27.33.255852 +0100,
tilted.xlsx,The target is tilted.,117,43,3,5,1,0,0,0,0,0,0,0,0,0,0,0,0,0,1,117,space,12.034367499999917,None,1,1,0.6293963999996777,None,space,1.821536100000003,None,0,0,0,0,,,,,5,3,43,3,253.8301355000001,,,,,,,,,,,,,,,,,,,,,253.81486149999978,253.8301355000001,254.31401970000002,254.31918949999977,254.33401070000014,254.98016799999982,,,,,254.98037039999986,254.99581209999974,255.19626519999997,255.17981540000005,254.33401070000014,,,,,,,,1,1,0.6293963999996777,None,,,,,,,,869,24,M,L,2026-02-23_11h27.33.028,VisualSearch_2526_3,,2025.2.4,2026-02-23 11h27.33.255852 +0100,
tilted.xlsx,The target is tilted.,117,44,4,5,0,1,1,1,1,1,1,1,1,1,1,1,1,11,12,117,space,12.034367499999917,None,0,1,2.74360200000001,None,space,1.821536100000003,None,0,0,0,0,,,,,5,4,44,4,255.19626519999997,,,,,,,,,,,,,,,,,,,,,255.18055589999972,255.19626519999997,255.6796366000001,255.68370579999987,255.7000728999999,258.4460071000001,,,,,258.44624309999995,258.4609001000001,258.6612926999999,258.6452340999997,255.7000728999999,,,,,,,,0,1,2.74360200000001,None,,,,,,,,869,24,M,L,2026-02-23_11h27.33.028,VisualSearch_2526_3,,2025.2.4,2026-02-23 11h27.33.255852 +0100,
tilted.xlsx,The target is tilted.,117,45,5,5,1,1,1,1,1,1,1,1,1,1,1,1,0,11,12,117,space,12.034367499999917,None,1,1,1.1754446999998436,None,space,1.821536100000003,None,0,0,0,0,,,,,5,5,45,0,258.6612926999999,,,,,,,,,,,,,,,,,,,,,258.6459761999997,258.6612926999999,259.1450078999999,259.1495665,259.1664524,260.34462800000006,,,,,260.3448259999998,260.36009439999975,260.5603249999997,260.54435850000004,259.1664524,,,,,,,,1,1,1.1754446999998436,None,,,,,,,,869,24,M,L,2026-02-23_11h27.33.028,VisualSearch_2526_3,,2025.2.4,2026-02-23 11h27.33.255852 +0100,
tilted.xlsx,The target is tilted.,117,46,6,5,1,1,1,1,0,0,0,0,0,0,0,0,0,3,4,117,space,12.034367499999917,None,1,1,1.3015274999997928,None,space,1.821536100000003,None,0,0,0,0,,,,,5,6,46,2,260.5603249999997,,,,,,,,,,,,,,,,,,,,,260.54507450000006,260.5603249999997,261.04413869999985,261.0485892999998,261.06566739999994,262.37737619999984,,,,,262.37758150000013,262.3924529999997,262.59244449999983,262.57638829999973,261.06566739999994,,,,,,,,1,1,1.3015274999997928,None,,,,,,,,869,24,M,L,2026-02-23_11h27.33.028,VisualSearch_2526_3,,2025.2.4,2026-02-23 11h27.33.255852 +0100,
tilted.xlsx,The target is tilted.,117,47,7,5,0,1,1,1,0,0,0,0,0,0,0,0,1,3,4,117,space,12.034367499999917,None,0,1,1.051914399999987,None,space,1.821536100000003,None,0,0,0,0,,,,,5,7,47,6,262.59244449999983,,,,,,,,,,,,,,,,,,,,,262.5771149999998,262.59244449999983,263.0765644999999,263.0812064999998,263.09823729999994,264.15961249999987,,,,,264.15982039999994,264.1750363999997,264.3754271999999,264.3592375999999,263.09823729999994,,,,,,,,0,1,1.051914399999987,None,,,,,,,,869,24,M,L,2026-02-23_11h27.33.028,VisualSearch_2526_3,,2025.2.4,2026-02-23 11h27.33.255852 +0100,
tilted.xlsx,The target is tilted.,117,48,0,6,0,0,0,0,0,0,0,0,0,0,0,0,1,1,1,117,space,12.034367499999917,None,0,1,0.6067622999999003,None,space,1.821536100000003,None,0,0,0,0,,,,,6,0,48,7,264.3754271999999,,,,,,,,,,,,,,,,,,,,,264.3599542999998,264.3754271999999,264.8592670999999,264.8640539999999,264.8805199000001,265.4926632999998,,,,,265.49286629999983,265.5076925999999,265.7082407999999,265.6919618999998,264.8805199000001,,,,,,,,0,1,0.6067622999999003,None,,,,,,,,869,24,M,L,2026-02-23_11h27.33.028,VisualSearch_2526_3,,2025.2.4,2026-02-23 11h27.33.255852 +0100,
tilted.xlsx,The target is tilted.,117,49,1,6,1,1,1,1,1,1,1,1,1,1,1,1,0,11,12,117,space,12.034367499999917,None,1,1,0.911493099999916,None,space,1.821536100000003,None,0,0,0,0,,,,,6,1,49,0,265.7082407999999,,,,,,,,,,,,,,,,,,,,,265.69267809999997,265.7082407999999,266.19168749999994,266.19626989999983,266.2136969999999,267.1412429999998,,,,,267.14147419999995,267.1568474999997,267.3571629999999,267.3411613999999,266.2136969999999,,,,,,,,1,1,0.911493099999916,None,,,,,,,,869,24,M,L,2026-02-23_11h27.33.028,VisualSearch_2526_3,,2025.2.4,2026-02-23 11h27.33.255852 +0100,
tilted.xlsx,The target is tilted.,117,50,2,6,0,1,1,1,0,0,0,0,0,0,0,0,1,3,4,117,space,12.034367499999917,None,0,1,1.3006722999998601,None,space,1.821536100000003,None,0,0,0,0,,,,,6,2,50,6,267.3571629999999,,,,,,,,,,,,,,,,,,,,,267.3419329000001,267.3571629999999,267.8409903999998,267.8455329000001,267.86162219999983,269.1742876999999,,,,,269.1744897000001,269.1893056000001,269.38947059999987,269.37369699999977,267.86162219999983,,,,,,,,0,1,1.3006722999998601,None,,,,,,,,869,24,M,L,2026-02-23_11h27.33.028,VisualSearch_2526_3,,2025.2.4,2026-02-23 11h27.33.255852 +0100,
tilted.xlsx,The target is tilted.,117,51,3,6,1,1,1,1,0,0,0,0,0,0,0,0,0,3,4,117,space,12.034367499999917,None,1,1,0.7390064999999595,None,space,1.821536100000003,None,0,0,0,0,,,,,6,3,51,2,269.38947059999987,,,,,,,,,,,,,,,,,,,,,269.3745194999999,269.38947059999987,269.87328569999977,269.87776689999987,269.89582929999983,270.6390224999998,,,,,270.6391081999998,270.65507969999976,,270.83966959999975,269.89582929999983,,,,,,,,1,1,0.7390064999999595,None,,,,,,,,869,24,M,L,2026-02-23_11h27.33.028,VisualSearch_2526_3,,2025.2.4,2026-02-23 11h27.33.255852 +0100,
tilted.xlsx,The target is tilted.,117,52,4,6,0,1,1,1,1,1,1,1,1,1,1,1,1,11,12,117,space,12.034367499999917,None,0,1,2.480257299999721,None,space,1.821536100000003,None,0,0,0,0,,,,,6,4,52,4,270.8559475999998,,,,,,,,,,,,,,,,,,,,,270.8405329999998,270.8559475999998,271.33928170000013,271.3443974999998,271.3603992999999,273.85439440000005,,,,,273.85453140000004,273.87090890000013,274.0710093,274.0545193999999,271.3603992999999,,,,,,,,0,1,2.480257299999721,None,,,,,,,,869,24,M,L,2026-02-23_11h27.33.028,VisualSearch_2526_3,,2025.2.4,2026-02-23 11h27.33.255852 +0100,
tilted.xlsx,The target is tilted.,117,53,5,6,1,0,0,0,0,0,0,0,0,0,0,0,0,0,1,117,space,12.034367499999917,None,1,1,0.6869930999996541,None,space,1.821536100000003,None,0,0,0,0,,,,,6,5,53,3,274.0710093,,,,,,,,,,,,,,,,,,,,,274.05524619999983,274.0710093,274.5545221,274.5590119000001,274.57598559999974,275.2714937999997,,,,,275.2716932999999,275.2865541999997,275.48696259999974,275.47075949999976,274.57598559999974,,,,,,,,1,1,0.6869930999996541,None,,,,,,,,869,24,M,L,2026-02-23_11h27.33.028,VisualSearch_2526_3,,2025.2.4,2026-02-23 11h27.33.255852 +0100,
tilted.xlsx,The target is tilted.,117,54,6,6,0,1,1,1,1,1,1,1,0,0,0,0,1,7,8,117,space,12.034367499999917,None,0,1,2.0050333999997747,None,space,1.821536100000003,None,0,0,0,0,,,,,6,6,54,5,275.48696259999974,,,,,,,,,,,,,,,,,,,,,275.4716074999999,275.48696259999974,275.9704457,275.97570569999993,275.9913860999998,278.00361180000004,,,,,278.0038192999998,278.0186219999998,278.21917499999995,278.20300900000007,275.9913860999998,,,,,,,,0,1,2.0050333999997747,None,,,,,,,,869,24,M,L,2026-02-23_11h27.33.028,VisualSearch_2526_3,,2025.2.4,2026-02-23 11h27.33.255852 +0100,
tilted.xlsx,The target is tilted.,117,55,7,6,1,1,1,1,1,1,1,1,0,0,0,0,0,7,8,117,space,12.034367499999917,None,1,1,1.7047349999998005,None,space,1.821536100000003,None,0,0,0,0,,,,,6,7,55,1,278.21917499999995,,,,,,,,,,,,,,,,,,,,,278.2037380999998,278.21917499999995,278.7024773999999,278.70700039999997,278.72243890000004,280.4358558000001,,,,,280.4360534,280.45093029999975,280.6510327999997,280.63507270000014,278.72243890000004,,,,,,,,1,1,1.7047349999998005,None,,,,,,,,869,24,M,L,2026-02-23_11h27.33.028,VisualSearch_2526_3,,2025.2.4,2026-02-23 11h27.33.255852 +0100,
tilted.xlsx,The target is tilted.,117,56,0,7,0,1,1,1,1,1,1,1,1,1,1,1,1,11,12,117,space,12.034367499999917,None,0,1,3.3109457999998995,None,space,1.821536100000003,None,0,0,0,0,,,,,7,0,56,4,280.6510327999997,,,,,,,,,,,,,,,,,,,,,280.63581929999987,280.6510327999997,281.1339534000001,281.13515410000014,281.1505738999997,284.4668792,,,,,284.46702329999994,284.4824702999997,284.682853,284.6666778000001,281.1505738999997,,,,,,,,0,1,3.3109457999998995,None,,,,,,,,869,24,M,L,2026-02-23_11h27.33.028,VisualSearch_2526_3,,2025.2.4,2026-02-23 11h27.33.255852 +0100,
tilted.xlsx,The target is tilted.,117,57,1,7,1,0,0,0,0,0,0,0,0,0,0,0,0,0,1,117,space,12.034367499999917,None,1,1,0.5429709000000003,None,space,1.821536100000003,None,0,0,0,0,,,,,7,1,57,3,284.682853,,,,,,,,,,,,,,,,,,,,,284.66740019999975,284.682853,285.1664250000001,285.17090459999986,285.18822339999974,285.7324269999997,,,,,285.7325043999997,285.7483015,285.9490020999999,285.9330110999997,285.18822339999974,,,,,,,,1,1,0.5429709000000003,None,,,,,,,,869,24,M,L,2026-02-23_11h27.33.028,VisualSearch_2526_3,,2025.2.4,2026-02-23 11h27.33.255852 +0100,
tilted.xlsx,The target is tilted.,117,58,2,7,0,1,1,1,0,0,0,0,0,0,0,0,1,3,4,117,space,12.034367499999917,None,0,1,0.8152879999997822,None,space,1.821536100000003,None,0,0,0,0,,,,,7,2,58,6,285.9490020999999,,,,,,,,,,,,,,,,,,,,,285.93374130000007,285.9490020999999,286.4325312999997,286.4370551999998,286.45271519999983,287.28160300000013,,,,,287.2817457999997,287.2976243999999,287.4979145,287.4820701000001,286.45271519999983,,,,,,,,0,1,0.8152879999997822,None,,,,,,,,869,24,M,L,2026-02-23_11h27.33.028,VisualSearch_2526_3,,2025.2.4,2026-02-23 11h27.33.255852 +0100,
tilted.xlsx,The target is tilted.,117,59,3,7,1,1,1,1,1,1,1,1,1,1,1,1,0,11,12,117,space,12.034367499999917,None,1,1,2.6519783999997344,None,space,1.821536100000003,None,0,0,0,0,,,,,7,3,59,0,287.4979145,,,,,,,,,,,,,,,,,,,,,287.48279249999973,287.4979145,287.9817451000001,287.98607979999974,287.9979166999999,290.6639054999998,,,,,290.6641251999997,290.67953650000004,290.8795361,290.8635880999998,287.9979166999999,,,,,,,,1,1,2.6519783999997344,None,,,,,,,,869,24,M,L,2026-02-23_11h27.33.028,VisualSearch_2526_3,,2025.2.4,2026-02-23 11h27.33.255852 +0100,
tilted.xlsx,The target is tilted.,117,60,4,7,1,1,1,1,1,1,1,1,0,0,0,0,0,7,8,117,space,12.034367499999917,None,1,1,0.9199682999997094,None,space,1.821536100000003,None,0,0,0,0,,,,,7,4,60,1,290.8795361,,,,,,,,,,,,,,,,,,,,,290.8643049,290.8795361,291.36388409999995,291.3685330999999,291.379326,292.31314259999976,,,,,292.3133974,292.3288252,292.5288522999997,292.5128916000001,291.379326,,,,,,,,1,1,0.9199682999997094,None,,,,,,,,869,24,M,L,2026-02-23_11h27.33.028,VisualSearch_2526_3,,2025.2.4,2026-02-23 11h27.33.255852 +0100,
tilted.xlsx,The target is tilted.,117,61,5,7,1,1,1,1,0,0,0,0,0,0,0,0,0,3,4,117,space,12.034367499999917,None,1,1,0.7398754000000736,None,space,1.821536100000003,None,0,0,0,0,,,,,7,5,61,2,292.5288522999997,,,,,,,,,,,,,,,,,,,,,292.51361569999995,292.5288522999997,293.0126136000001,293.0172084999997,293.03228160000003,293.779663,,,,,293.7798620000001,293.79485090000003,293.9952476000001,293.9789565999997,293.03228160000003,,,,,,,,1,1,0.7398754000000736,None,,,,,,,,869,24,M,L,2026-02-23_11h27.33.028,VisualSearch_2526_3,,2025.2.4,2026-02-23 11h27.33.255852 +0100,
tilted.xlsx,The target is tilted.,117,62,6,7,0,1,1,1,1,1,1,1,0,0,0,0,1,7,8,117,space,12.034367499999917,None,0,1,2.6357379000000947,None,space,1.821536100000003,None,0,0,0,0,,,,,7,6,62,5,293.9952476000001,,,,,,,,,,,,,,,,,,,,,293.97967859999994,293.9952476000001,294.4790451000001,294.4835009000001,294.4999743999999,297.1448106,,,,,297.1449915999999,297.1599518999999,297.3601836999999,297.34397349999995,294.4999743999999,,,,,,,,0,1,2.6357379000000947,None,,,,,,,,869,24,M,L,2026-02-23_11h27.33.028,VisualSearch_2526_3,,2025.2.4,2026-02-23 11h27.33.255852 +0100,
tilted.xlsx,The target is tilted.,117,63,7,7,0,0,0,0,0,0,0,0,0,0,0,0,1,1,1,117,space,12.034367499999917,None,0,1,0.9661211000002368,None,space,1.821536100000003,None,0,0,0,0,,,,,7,7,63,7,297.3601836999999,,,,,,,,,,,,,,,,,,,,,297.3446821,297.3601836999999,297.8441110000001,297.8486427999999,297.8638448999998,298.8435849,,,,,298.84376270000007,298.85925329999986,299.0591880999998,299.0435829999999,297.8638448999998,,,,,,,,0,1,0.9661211000002368,None,,,,,,,,869,24,M,L,2026-02-23_11h27.33.028,VisualSearch_2526_3,,2025.2.4,2026-02-23 11h27.33.255852 +0100,
tilted.xlsx,The target is tilted.,117,64,0,8,1,1,1,1,0,0,0,0,0,0,0,0,0,3,4,117,space,12.034367499999917,None,1,1,0.7461474000001544,None,space,1.821536100000003,None,0,0,0,0,,,,,8,0,64,2,299.0591880999998,,,,,,,,,,,,,,,,,,,,,299.0443011,299.0591880999998,299.5433615999998,299.5477927999998,299.56434680000007,300.3260700999997,,,,,300.3262830000001,300.3418727999999,300.5423287000001,300.5261198999999,299.56434680000007,,,,,,,,1,1,0.7461474000001544,None,,,,,,,,869,24,M,L,2026-02-23_11h27.33.028,VisualSearch_2526_3,,2025.2.4,2026-02-23 11h27.33.255852 +0100,
tilted.xlsx,The target is tilted.,117,65,1,8,0,1,1,1,1,1,1,1,0,0,0,0,1,7,8,117,space,12.034367499999917,None,0,1,2.359545700000126,None,space,1.821536100000003,None,0,0,0,0,,,,,8,1,65,5,300.5423287000001,,,,,,,,,,,,,,,,,,,,,300.5268521999999,300.5423287000001,301.02554989999976,301.0299835999997,301.04679969999984,303.40866589999973,,,,,303.4088650000001,303.42385649999983,303.62418060000005,303.6078044999997,301.04679969999984,,,,,,,,0,1,2.359545700000126,None,,,,,,,,869,24,M,L,2026-02-23_11h27.33.028,VisualSearch_2526_3,,2025.2.4,2026-02-23 11h27.33.255852 +0100,
tilted.xlsx,The target is tilted.,117,66,2,8,0,1,1,1,0,0,0,0,0,0,0,0,1,3,4,117,space,12.034367499999917,None,0,1,1.0026527999998507,None,space,1.821536100000003,None,0,0,0,0,,,,,8,2,66,6,303.62418060000005,,,,,,,,,,,,,,,,,,,,,303.60851690000004,303.62418060000005,304.10797389999993,304.1124262999999,304.1292342999998,305.14085199999977,,,,,305.1410159999998,305.1563653999999,305.35680100000013,305.34047239999995,304.1292342999998,,,,,,,,0,1,1.0026527999998507,None,,,,,,,,869,24,M,L,2026-02-23_11h27.33.028,VisualSearch_2526_3,,2025.2.4,2026-02-23 11h27.33.255852 +0100,
tilted.xlsx,The target is tilted.,117,67,3,8,0,0,0,0,0,0,0,0,0,0,0,0,1,1,1,117,space,12.034367499999917,None,0,1,0.5621326999998928,None,space,1.821536100000003,None,0,0,0,0,,,,,8,3,67,7,305.35680100000013,,,,,,,,,,,,,,,,,,,,,305.34120370000005,305.35680100000013,305.84015509999995,305.84463359999995,305.8623353999999,306.4402996000001,,,,,306.44050919999995,306.4557686999999,306.65629509999985,306.6401893999998,305.8623353999999,,,,,,,,0,1,0.5621326999998928,None,,,,,,,,869,24,M,L,2026-02-23_11h27.33.028,VisualSearch_2526_3,,2025.2.4,2026-02-23 11h27.33.255852 +0100,
tilted.xlsx,The target is tilted.,117,68,4,8,1,1,1,1,1,1,1,1,0,0,0,0,0,7,8,117,space,12.034367499999917,None,0,0,1.7789647999998124,None,space,1.821536100000003,None,0,0,0,0,,,,,8,4,68,1,306.65629509999985,,,,,,,,,,,,,,,,,,,,,306.6410196999998,306.65629509999985,307.14009710000005,307.1449660999999,307.16119379999986,308.9555791999999,,,,,308.9557895999999,308.97127019999994,309.17174109999974,309.15564389999986,307.16119379999986,,,,,,,,0,0,1.7789647999998124,None,,,,,,,,869,24,M,L,2026-02-23_11h27.33.028,VisualSearch_2526_3,,2025.2.4,2026-02-23 11h27.33.255852 +0100,
tilted.xlsx,The target is tilted.,117,69,5,8,1,0,0,0,0,0,0,0,0,0,0,0,0,0,1,117,space,12.034367499999917,None,1,1,0.5687984000001052,None,space,1.821536100000003,None,0,0,0,0,,,,,8,5,69,3,309.17174109999974,,,,,,,,,,,,,,,,,,,,,309.1564628999997,309.17174109999974,309.6554236999998,309.6598034000001,309.6769859999997,310.25575430000004,,,,,310.2559719999997,310.2706992000001,310.47107219999975,310.4550121999998,309.6769859999997,,,,,,,,1,1,0.5687984000001052,None,,,,,,,,869,24,M,L,2026-02-23_11h27.33.028,VisualSearch_2526_3,,2025.2.4,2026-02-23 11h27.33.255852 +0100,
tilted.xlsx,The target is tilted.,117,70,6,8,0,1,1,1,1,1,1,1,1,1,1,1,1,11,12,117,space,12.034367499999917,None,0,1,2.069076600000244,None,space,1.821536100000003,None,0,0,0,0,,,,,8,6,70,4,310.47107219999975,,,,,,,,,,,,,,,,,,,,,310.4557226999998,310.47107219999975,310.95476140000005,310.9592517999997,310.9753887999998,313.05448379999984,,,,,313.05470149999996,313.0694920999997,313.26941740000007,313.25335889999974,310.9753887999998,,,,,,,,0,1,2.069076600000244,None,,,,,,,,869,24,M,L,2026-02-23_11h27.33.028,VisualSearch_2526_3,,2025.2.4,2026-02-23 11h27.33.255852 +0100,
tilted.xlsx,The target is tilted.,117,71,7,8,1,1,1,1,1,1,1,1,1,1,1,1,0,11,12,117,space,12.034367499999917,None,1,1,1.7764744999999493,None,space,1.821536100000003,None,0,0,0,0,,,,,8,7,71,0,313.26941740000007,,,,,,,,,,,,,,,,,,,,,313.2541063000001,313.26941740000007,313.7535234999998,313.7578864999998,313.7734656,315.5532286,,,,,315.5534289999998,315.56825649999996,315.7688305999998,315.7526387999999,313.7734656,,,,,,,,1,1,1.7764744999999493,None,,,,,,,,869,24,M,L,2026-02-23_11h27.33.028,VisualSearch_2526_3,,2025.2.4,2026-02-23 11h27.33.255852 +0100,
tilted.xlsx,The target is tilted.,117,72,0,9,0,1,1,1,0,0,0,0,0,0,0,0,1,3,4,117,space,12.034367499999917,None,0,1,1.7375551999998606,None,space,1.821536100000003,None,0,0,0,0,,,,,9,0,72,6,315.7688305999998,,,,,,,,,,,,,,,,,,,,,315.7534241999999,315.7688305999998,316.25241010000013,316.2567698999999,316.27230269999995,318.0183654,,,,,318.01856329999987,318.03397659999996,318.2342771000001,318.21810230000006,316.27230269999995,,,,,,,,0,1,1.7375551999998606,None,,,,,,,,869,24,M,L,2026-02-23_11h27.33.028,VisualSearch_2526_3,,2025.2.4,2026-02-23 11h27.33.255852 +0100,
tilted.xlsx,The target is tilted.,117,73,1,9,1,1,1,1,1,1,1,1,0,0,0,0,0,7,8,117,space,12.034367499999917,None,0,0,3.2373202999997375,None,space,1.821536100000003,None,0,0,0,0,,,,,9,1,73,1,318.2342771000001,,,,,,,,,,,,,,,,,,,,,318.2188457,318.2342771000001,318.71787530000006,318.7222850999999,318.7398243,321.98363270000004,,,,,321.98383009999975,321.9987622000001,322.1991765,322.1829878000001,318.7398243,,,,,,,,0,0,3.2373202999997375,None,,,,,,,,869,24,M,L,2026-02-23_11h27.33.028,VisualSearch_2526_3,,2025.2.4,2026-02-23 11h27.33.255852 +0100,
tilted.xlsx,The target is tilted.,117,74,2,9,0,1,1,1,1,1,1,1,0,0,0,0,1,7,8,117,space,12.034367499999917,None,0,1,2.0847837999999683,None,space,1.821536100000003,None,0,0,0,0,,,,,9,2,74,5,322.1991765,,,,,,,,,,,,,,,,,,,,,322.18370709999976,322.1991765,322.68262489999984,322.6871064999998,322.70499749999976,324.7989497000001,,,,,324.7991264,324.8141183,325.0145351999997,324.9985454,322.70499749999976,,,,,,,,0,1,2.0847837999999683,None,,,,,,,,869,24,M,L,2026-02-23_11h27.33.028,VisualSearch_2526_3,,2025.2.4,2026-02-23 11h27.33.255852 +0100,
tilted.xlsx,The target is tilted.,117,75,3,9,1,1,1,1,1,1,1,1,1,1,1,1,0,11,12,117,space,12.034367499999917,None,1,1,1.4119673999998668,None,space,1.821536100000003,None,0,0,0,0,,,,,9,3,75,0,325.0145351999997,,,,,,,,,,,,,,,,,,,,,324.99927569999977,325.0145351999997,325.4981212,325.5028142999997,325.52116999999976,326.9478151999999,,,,,326.9479636999997,326.96309399999996,327.1635884,327.1474660000001,325.52116999999976,,,,,,,,1,1,1.4119673999998668,None,,,,,,,,869,24,M,L,2026-02-23_11h27.33.028,VisualSearch_2526_3,,2025.2.4,2026-02-23 11h27.33.255852 +0100,
tilted.xlsx,The target is tilted.,117,76,4,9,1,0,0,0,0,0,0,0,0,0,0,0,0,0,1,117,space,12.034367499999917,None,1,1,0.5296972999999525,None,space,1.821536100000003,None,0,0,0,0,,,,,9,4,76,3,327.1635884,,,,,,,,,,,,,,,,,,,,,327.14818149999996,327.1635884,327.64682919999973,327.6511988,327.6684192,328.21276109999985,,,,,328.212851,328.22908600000005,,328.4132496,327.6684192,,,,,,,,1,1,0.5296972999999525,None,,,,,,,,869,24,M,L,2026-02-23_11h27.33.028,VisualSearch_2526_3,,2025.2.4,2026-02-23 11h27.33.255852 +0100,
tilted.xlsx,The target is tilted.,117,77,5,9,0,1,1,1,1,1,1,1,1,1,1,1,1,11,12,117,space,12.034367499999917,None,0,1,3.8525618000003305,None,space,1.821536100000003,None,0,0,0,0,,,,,9,5,77,4,328.42941499999984,,,,,,,,,,,,,,,,,,,,,328.4140906,328.42941499999984,328.91304349999996,328.91748840000014,328.93461550000006,332.7954772999999,,,,,332.7956769,332.81048880000003,333.0108855000001,332.9943501999999,,,,,,,,,0,1,3.8525618000003305,None,,,,,,,,869,24,M,L,2026-02-23_11h27.33.028,VisualSearch_2526_3,,2025.2.4,2026-02-23 11h27.33.255852 +0100,
tilted.xlsx,The target is tilted.,117,78,6,9,1,1,1,1,0,0,0,0,0,0,0,0,0,3,4,117,space,12.034367499999917,None,1,1,0.6757483999999749,None,space,1.821536100000003,None,0,0,0,0,,,,,9,6,78,2,333.0108855000001,,,,,,,,,,,,,,,,,,,,,332.9950898999998,333.0108855000001,333.49452229999974,333.4989214,333.5159154999999,334.19490599999995,,,,,334.19510779999996,334.20990860000006,334.4101149999999,334.3941220999998,333.5159154999999,,,,,,,,1,1,0.6757483999999749,None,,,,,,,,869,24,M,L,2026-02-23_11h27.33.028,VisualSearch_2526_3,,2025.2.4,2026-02-23 11h27.33.255852 +0100,
tilted.xlsx,The target is tilted.,117,79,7,9,0,0,0,0,0,0,0,0,0,0,0,0,1,1,1,117,space,12.034367499999917,None,0,1,0.7659665999999561,None,space,1.821536100000003,None,0,0,0,0,,,,,9,7,79,7,334.4101149999999,,,,,,,,,,,,,,,,,,,,,334.3948299000001,334.4101149999999,334.89388970000005,334.89832409999985,334.90993969999977,335.6766731,,,,,335.6767576999998,335.69226479999975,335.8925265999999,335.87685129999977,334.90993969999977,,,,,,,,0,1,0.7659665999999561,None,,,,,,,,869,24,M,L,2026-02-23_11h27.33.028,VisualSearch_2526_3,,2025.2.4,2026-02-23 11h27.33.255852 +0100,
tilted.xlsx,The target is tilted.,117,80,0,10,0,1,1,1,0,0,0,0,0,0,0,0,1,3,4,117,space,12.034367499999917,None,0,1,1.297133699999904,None,space,1.821536100000003,None,0,0,0,0,,,,,10,0,80,6,335.8925265999999,,,,,,,,,,,,,,,,,,,,,335.87756319999994,335.8925265999999,336.3765213999998,336.3808765000001,336.39790579999976,337.7092242000001,,,,,337.7094555000001,337.72487909999995,337.92537319999997,337.9092963999999,336.39790579999976,,,,,,,,0,1,1.297133699999904,None,,,,,,,,869,24,M,L,2026-02-23_11h27.33.028,VisualSearch_2526_3,,2025.2.4,2026-02-23 11h27.33.255852 +0100,
tilted.xlsx,The target is tilted.,117,81,1,10,1,1,1,1,0,0,0,0,0,0,0,0,0,3,4,117,space,12.034367499999917,None,1,1,0.6694972000000234,None,space,1.821536100000003,None,0,0,0,0,,,,,10,1,81,2,337.92537319999997,,,,,,,,,,,,,,,,,,,,,337.91002289999983,337.92537319999997,338.4091391999998,338.4135196999998,338.4298940000001,339.10917940000013,,,,,339.1093745999999,339.1243026999998,339.32471269999974,339.3086231,338.4298940000001,,,,,,,,1,1,0.6694972000000234,None,,,,,,,,869,24,M,L,2026-02-23_11h27.33.028,VisualSearch_2526_3,,2025.2.4,2026-02-23 11h27.33.255852 +0100,
tilted.xlsx,The target is tilted.,117,82,2,10,1,1,1,1,1,1,1,1,0,0,0,0,0,7,8,117,space,12.034367499999917,None,1,1,1.3976863999996567,None,space,1.821536100000003,None,0,0,0,0,,,,,10,2,82,1,339.32471269999974,,,,,,,,,,,,,,,,,,,,,339.3094715999998,339.32471269999974,339.8084179,339.81277269999987,339.8292398000001,341.24155730000007,,,,,341.2417573,341.2571138999999,341.4568133,341.4407718,339.8292398000001,,,,,,,,1,1,1.3976863999996567,None,,,,,,,,869,24,M,L,2026-02-23_11h27.33.028,VisualSearch_2526_3,,2025.2.4,2026-02-23 11h27.33.255852 +0100,
tilted.xlsx,The target is tilted.,117,83,3,10,1,1,1,1,1,1,1,1,1,1,1,1,0,11,12,117,space,12.034367499999917,None,1,1,0.9173220000002402,None,space,1.821536100000003,None,0,0,0,0,,,,,10,3,83,0,341.4568133,,,,,,,,,,,,,,,,,,,,,341.44151609999994,341.4568133,341.9406855,341.94518859999994,341.9612534999999,342.89040390000014,,,,,342.89061519999973,342.9062824,343.1063564999997,343.09005999999977,341.9612534999999,,,,,,,,1,1,0.9173220000002402,None,,,,,,,,869,24,M,L,2026-02-23_11h27.33.028,VisualSearch_2526_3,,2025.2.4,2026-02-23 11h27.33.255852 +0100,
tilted.xlsx,The target is tilted.,117,84,4,10,1,0,0,0,0,0,0,0,0,0,0,0,0,0,1,117,space,12.034367499999917,None,1,1,0.577165100000002,None,space,1.821536100000003,None,0,0,0,0,,,,,10,4,84,3,343.1063564999997,,,,,,,,,,,,,,,,,,,,,343.09080599999993,343.1063564999997,343.5896378,343.5941544,343.6105368000001,344.18998149999993,,,,,344.19018219999975,344.2051663,344.40575409999997,344.38949739999975,343.6105368000001,,,,,,,,1,1,0.577165100000002,None,,,,,,,,869,24,M,L,2026-02-23_11h27.33.028,VisualSearch_2526_3,,2025.2.4,2026-02-23 11h27.33.255852 +0100,
tilted.xlsx,The target is tilted.,117,85,5,10,0,1,1,1,1,1,1,1,0,0,0,0,1,7,8,117,space,12.034367499999917,None,0,1,2.8211903000001257,None,space,1.821536100000003,None,0,0,0,0,,,,,10,5,85,5,344.40575409999997,,,,,,,,,,,,,,,,,,,,,344.3902539999997,344.40575409999997,344.8890313999998,344.8934631999998,344.9101586999998,347.73813559999985,,,,,347.73829649999993,347.7542103999997,347.9537081000001,347.937549,344.9101586999998,,,,,,,,0,1,2.8211903000001257,None,,,,,,,,869,24,M,L,2026-02-23_11h27.33.028,VisualSearch_2526_3,,2025.2.4,2026-02-23 11h27.33.255852 +0100,
tilted.xlsx,The target is tilted.,117,86,6,10,0,0,0,0,0,0,0,0,0,0,0,0,1,1,1,117,space,12.034367499999917,None,0,1,0.5926368000000366,None,space,1.821536100000003,None,0,0,0,0,,,,,10,6,86,7,347.9537081000001,,,,,,,,,,,,,,,,,,,,,347.9382869999997,347.9537081000001,348.43782179999994,348.4423654999998,348.4591103,349.0547439999998,,,,,349.0549408999998,349.07011529999977,349.27002879999986,349.2541146000001,348.4591103,,,,,,,,0,1,0.5926368000000366,None,,,,,,,,869,24,M,L,2026-02-23_11h27.33.028,VisualSearch_2526_3,,2025.2.4,2026-02-23 11h27.33.255852 +0100,
tilted.xlsx,The target is tilted.,117,87,7,10,0,1,1,1,1,1,1,1,1,1,1,1,1,11,12,117,space,12.034367499999917,None,0,1,4.369753899999978,None,space,1.821536100000003,None,0,0,0,0,,,,,10,7,87,4,349.27002879999986,,,,,,,,,,,,,,,,,,,,,349.2548556999998,349.27002879999986,349.75381809999976,349.7582052999999,349.77333209999983,354.1524090999999,,,,,354.1526108999999,354.1679766,354.36795069999994,354.3511891999999,349.77333209999983,,,,,,,,0,1,4.369753899999978,None,,,,,,,,869,24,M,L,2026-02-23_11h27.33.028,VisualSearch_2526_3,,2025.2.4,2026-02-23 11h27.33.255852 +0100,
tilted.xlsx,The target is tilted.,117,88,0,11,0,1,1,1,0,0,0,0,0,0,0,0,1,3,4,117,space,12.034367499999917,None,0,1,1.1496131999997488,None,space,1.821536100000003,None,0,0,0,0,,,,,11,0,88,6,354.36795069999994,,,,,,,,,,,,,,,,,,,,,354.3518972999998,354.36795069999994,354.8514397000001,354.85592999999994,354.8701593999997,356.03472369999986,,,,,356.03491370000006,356.0503437,356.2503390999998,356.23417080000013,354.8701593999997,,,,,,,,0,1,1.1496131999997488,None,,,,,,,,869,24,M,L,2026-02-23_11h27.33.028,VisualSearch_2526_3,,2025.2.4,2026-02-23 11h27.33.255852 +0100,
tilted.xlsx,The target is tilted.,117,89,1,11,0,1,1,1,1,1,1,1,1,1,1,1,1,11,12,117,space,12.034367499999917,None,0,1,4.026508499999636,None,space,1.821536100000003,None,0,0,0,0,,,,,11,1,89,4,356.2503390999998,,,,,,,,,,,,,,,,,,,,,356.23490479999987,356.2503390999998,356.73366109999984,356.73812459999976,356.7498866999997,360.7817518999998,,,,,360.78185400000007,360.7980363999998,360.99830599999973,360.9820185000001,356.7498866999997,,,,,,,,0,1,4.026508499999636,None,,,,,,,,869,24,M,L,2026-02-23_11h27.33.028,VisualSearch_2526_3,,2025.2.4,2026-02-23 11h27.33.255852 +0100,
tilted.xlsx,The target is tilted.,117,90,2,11,1,1,1,1,1,1,1,1,1,1,1,1,0,11,12,117,space,12.034367499999917,None,1,1,1.8657788000000437,None,space,1.821536100000003,None,0,0,0,0,,,,,11,2,90,0,360.99830599999973,,,,,,,,,,,,,,,,,,,,,360.9830150999999,360.99830599999973,361.4817486999998,361.48616229999993,361.5015740000001,363.3811192999999,,,,,363.38132070000006,363.39667940000004,363.596996,363.58070380000004,361.5015740000001,,,,,,,,1,1,1.8657788000000437,None,,,,,,,,869,24,M,L,2026-02-23_11h27.33.028,VisualSearch_2526_3,,2025.2.4,2026-02-23 11h27.33.255852 +0100,
tilted.xlsx,The target is tilted.,117,91,3,11,1,0,0,0,0,0,0,0,0,0,0,0,0,0,1,117,space,12.034367499999917,None,1,1,0.5527328000002854,None,space,1.821536100000003,None,0,0,0,0,,,,,11,3,91,3,363.596996,,,,,,,,,,,,,,,,,,,,,363.5814640000001,363.596996,364.0803236999998,364.0848601,364.10107889999995,364.66403349999996,,,,,364.66422739999985,364.6795835999999,364.8795140999998,364.8637305,364.10107889999995,,,,,,,,1,1,0.5527328000002854,None,,,,,,,,869,24,M,L,2026-02-23_11h27.33.028,VisualSearch_2526_3,,2025.2.4,2026-02-23 11h27.33.255852 +0100,
tilted.xlsx,The target is tilted.,117,92,4,11,1,1,1,1,1,1,1,1,0,0,0,0,0,7,8,117,space,12.034367499999917,None,1,1,1.2916565999998966,None,space,1.821536100000003,None,0,0,0,0,,,,,11,4,92,1,364.8795140999998,,,,,,,,,,,,,,,,,,,,,364.8646084999998,364.8795140999998,365.36327640000013,365.36766680000005,365.3792728000001,366.6800480999998,,,,,366.6802448000001,366.69558889999985,366.8956332999999,366.87943299999984,365.3792728000001,,,,,,,,1,1,1.2916565999998966,None,,,,,,,,869,24,M,L,2026-02-23_11h27.33.028,VisualSearch_2526_3,,2025.2.4,2026-02-23 11h27.33.255852 +0100,
tilted.xlsx,The target is tilted.,117,93,5,11,0,1,1,1,1,1,1,1,0,0,0,0,1,7,8,117,space,12.034367499999917,None,0,1,2.791577100000268,None,space,1.821536100000003,None,0,0,0,0,,,,,11,5,93,5,366.8956332999999,,,,,,,,,,,,,,,,,,,,,366.8801444999997,366.8956332999999,367.3790870999999,367.3834875,367.3951709999999,370.1951575999999,,,,,370.1953569,370.2106868999997,370.41054039999995,370.3945035999998,367.3951709999999,,,,,,,,0,1,2.791577100000268,None,,,,,,,,869,24,M,L,2026-02-23_11h27.33.028,VisualSearch_2526_3,,2025.2.4,2026-02-23 11h27.33.255852 +0100,
tilted.xlsx,The target is tilted.,117,94,6,11,0,0,0,0,0,0,0,0,0,0,0,0,1,1,1,117,space,12.034367499999917,None,0,1,0.564348500000051,None,space,1.821536100000003,None,0,0,0,0,,,,,11,6,94,7,370.41054039999995,,,,,,,,,,,,,,,,,,,,,370.39521119999995,370.41054039999995,370.89429929999983,370.8986643999999,370.91496299999994,371.4944238999999,,,,,371.49460380000005,371.51008720000004,371.7097256999998,371.6937323999998,370.91496299999994,,,,,,,,0,1,0.564348500000051,None,,,,,,,,869,24,M,L,2026-02-23_11h27.33.028,VisualSearch_2526_3,,2025.2.4,2026-02-23 11h27.33.255852 +0100,
tilted.xlsx,The target is tilted.,117,95,7,11,1,1,1,1,0,0,0,0,0,0,0,0,0,3,4,117,space,12.034367499999917,None,0,0,0.971874200000002,None,space,1.821536100000003,None,0,0,0,0,,,,,11,7,95,2,371.7097256999998,,,,,,,,,,,,,,,,,,,,,371.6944857000001,371.7097256999998,372.19366190000005,372.19818789999977,372.2147110999997,373.1936017999999,,,,,373.1937999999998,373.2089510999997,373.4093279000001,373.3932910000001,372.2147110999997,,,,,,,,0,0,0.971874200000002,None,,,,,,,,869,24,M,L,2026-02-23_11h27.33.028,VisualSearch_2526_3,,2025.2.4,2026-02-23 11h27.33.255852 +0100,
tilted.xlsx,The target is tilted.,117,96,0,12,1,1,1,1,0,0,0,0,0,0,0,0,0,3,4,117,space,12.034367499999917,None,1,1,0.8483498999999028,None,space,1.821536100000003,None,0,0,0,0,,,,,12,0,96,2,373.4093279000001,,,,,,,,,,,,,,,,,,,,,373.39412389999984,373.4093279000001,373.89291290000006,373.89742349999983,373.91428489999976,374.7760568000001,,,,,374.77621669999985,374.7918366000001,374.99186369999984,374.9757876000001,373.91428489999976,,,,,,,,1,1,0.8483498999999028,None,,,,,,,,869,24,M,L,2026-02-23_11h27.33.028,VisualSearch_2526_3,,2025.2.4,2026-02-23 11h27.33.255852 +0100,
tilted.xlsx,The target is tilted.,117,97,1,12,1,1,1,1,1,1,1,1,1,1,1,1,0,11,12,117,space,12.034367499999917,None,1,1,1.6516359999995984,None,space,1.821536100000003,None,0,0,0,0,,,,,12,1,97,0,374.99186369999984,,,,,,,,,,,,,,,,,,,,,374.9765261,374.99186369999984,375.47541669999987,375.479826,375.4973287999999,377.15825070000005,,,,,377.15840000000003,377.1740680999999,377.3741050000001,377.35774530000003,375.4973287999999,,,,,,,,1,1,1.6516359999995984,None,,,,,,,,869,24,M,L,2026-02-23_11h27.33.028,VisualSearch_2526_3,,2025.2.4,2026-02-23 11h27.33.255852 +0100,
tilted.xlsx,The target is tilted.,117,98,2,12,1,1,1,1,1,1,1,1,0,0,0,0,0,7,8,117,space,12.034367499999917,None,1,1,2.0166604000000916,None,space,1.821536100000003,None,0,0,0,0,,,,,12,2,98,1,377.3741050000001,,,,,,,,,,,,,,,,,,,,,377.3584668000001,377.3741050000001,377.8581065999999,377.8627690999999,377.8736704999999,379.90699740000014,,,,,379.9071981999998,379.9229143,380.12283330000014,380.1069712000001,377.8736704999999,,,,,,,,1,1,2.0166604000000916,None,,,,,,,,869,24,M,L,2026-02-23_11h27.33.028,VisualSearch_2526_3,,2025.2.4,2026-02-23 11h27.33.255852 +0100,
tilted.xlsx,The target is tilted.,117,99,3,12,0,1,1,1,0,0,0,0,0,0,0,0,1,3,4,117,space,12.034367499999917,None,0,1,0.8460377000001245,None,space,1.821536100000003,None,0,0,0,0,,,,,12,3,99,6,380.12283330000014,,,,,,,,,,,,,,,,,,,,,380.10790459999976,380.12283330000014,380.60657620000006,380.61101699999995,380.62743579999983,381.48862099999974,,,,,381.4887013,381.50513149999983,,381.6892313999999,380.62743579999983,,,,,,,,0,1,0.8460377000001245,None,,,,,,,,869,24,M,L,2026-02-23_11h27.33.028,VisualSearch_2526_3,,2025.2.4,2026-02-23 11h27.33.255852 +0100,
tilted.xlsx,The target is tilted.,117,100,4,12,0,1,1,1,1,1,1,1,0,0,0,0,1,7,8,117,space,12.034367499999917,None,0,1,2.9228175999996893,None,space,1.821536100000003,None,0,0,0,0,,,,,12,4,100,5,381.7054934999999,,,,,,,,,,,,,,,,,,,,,381.6900046999997,381.7054934999999,382.1889647999999,382.1934340999999,382.2098255999997,385.1382480999998,,,,,385.1384439000001,385.153865,385.35383339999976,385.3379437000001,382.2098255999997,,,,,,,,0,1,2.9228175999996893,None,,,,,,,,869,24,M,L,2026-02-23_11h27.33.028,VisualSearch_2526_3,,2025.2.4,2026-02-23 11h27.33.255852 +0100,
tilted.xlsx,The target is tilted.,117,101,5,12,0,0,0,0,0,0,0,0,0,0,0,0,1,1,1,117,space,12.034367499999917,None,0,1,0.7760219000001598,None,space,1.821536100000003,None,0,0,0,0,,,,,12,5,101,7,385.35383339999976,,,,,,,,,,,,,,,,,,,,,385.3386548000001,385.35383339999976,385.83753920000004,385.84197919999974,385.8567365000001,386.6373914999997,,,,,386.63758810000013,386.6531991999998,386.8528666999998,386.8370881999997,385.8567365000001,,,,,,,,0,1,0.7760219000001598,None,,,,,,,,869,24,M,L,2026-02-23_11h27.33.028,VisualSearch_2526_3,,2025.2.4,2026-02-23 11h27.33.255852 +0100,
tilted.xlsx,The target is tilted.,117,102,6,12,0,1,1,1,1,1,1,1,1,1,1,1,1,11,12,117,space,12.034367499999917,None,1,0,2.114263999999821,None,space,1.821536100000003,None,0,0,0,0,,,,,12,6,102,4,386.8528666999998,,,,,,,,,,,,,,,,,,,,,386.8378018000001,386.8528666999998,387.3364660999998,387.34086749999983,387.35806690000004,389.4856121999999,,,,,389.48572039999976,389.5016831999999,389.7018144000001,389.6857014999998,387.35806690000004,,,,,,,,1,0,2.114263999999821,None,,,,,,,,869,24,M,L,2026-02-23_11h27.33.028,VisualSearch_2526_3,,2025.2.4,2026-02-23 11h27.33.255852 +0100,
tilted.xlsx,The target is tilted.,117,103,7,12,1,0,0,0,0,0,0,0,0,0,0,0,0,0,1,117,space,12.034367499999917,None,1,1,2.250398199999836,None,space,1.821536100000003,None,0,0,0,0,,,,,12,7,103,3,389.7018144000001,,,,,,,,,,,,,,,,,,,,,389.68640679999976,389.7018144000001,390.1855586999998,390.1900493999999,390.2074006999999,392.4683471999999,,,,,392.46854389999976,392.4839400999997,392.68385809999995,392.6672533999997,390.2074006999999,,,,,,,,1,1,2.250398199999836,None,,,,,,,,869,24,M,L,2026-02-23_11h27.33.028,VisualSearch_2526_3,,2025.2.4,2026-02-23 11h27.33.255852 +0100,
tilted.xlsx,The target is tilted.,117,104,0,13,0,1,1,1,0,0,0,0,0,0,0,0,1,3,4,117,space,12.034367499999917,None,0,1,0.9715662999997221,None,space,1.821536100000003,None,0,0,0,0,,,,,13,0,104,6,392.68385809999995,,,,,,,,,,,,,,,,,,,,,392.6679886999998,392.68385809999995,393.1676433,393.17207110000004,393.1830312999998,394.1674467,,,,,394.16758689999983,394.18296859999987,394.3826539999998,394.3670838999999,393.1830312999998,,,,,,,,0,1,0.9715662999997221,None,,,,,,,,869,24,M,L,2026-02-23_11h27.33.028,VisualSearch_2526_3,,2025.2.4,2026-02-23 11h27.33.255852 +0100,
tilted.xlsx,The target is tilted.,117,105,1,13,1,1,1,1,1,1,1,1,0,0,0,0,0,7,8,117,space,12.034367499999917,None,1,1,0.8972377000000051,None,space,1.821536100000003,None,0,0,0,0,,,,,13,1,105,1,394.3826539999998,,,,,,,,,,,,,,,,,,,,,394.3678180999998,394.3826539999998,394.86677529999974,394.8712898000001,394.88681010000005,395.8001035,,,,,395.8003001999998,395.8155614,396.0157035999998,395.99958300000003,394.88681010000005,,,,,,,,1,1,0.8972377000000051,None,,,,,,,,869,24,M,L,2026-02-23_11h27.33.028,VisualSearch_2526_3,,2025.2.4,2026-02-23 11h27.33.255852 +0100,
tilted.xlsx,The target is tilted.,117,106,2,13,1,1,1,1,1,1,1,1,1,1,1,1,0,11,12,117,space,12.034367499999917,None,1,1,0.8224574999999277,None,space,1.821536100000003,None,0,0,0,0,,,,,13,2,106,0,396.0157035999998,,,,,,,,,,,,,,,,,,,,,396.0002960999998,396.0157035999998,396.4993598999997,396.5037092,396.51999599999976,397.3494387999997,,,,,397.3496382000001,397.3649748999999,397.5649513999999,397.5489557999997,396.51999599999976,,,,,,,,1,1,0.8224574999999277,None,,,,,,,,869,24,M,L,2026-02-23_11h27.33.028,VisualSearch_2526_3,,2025.2.4,2026-02-23 11h27.33.255852 +0100,
tilted.xlsx,The target is tilted.,117,107,3,13,1,0,0,0,0,0,0,0,0,0,0,0,0,0,1,117,space,12.034367499999917,None,1,1,0.5110726000002614,None,space,1.821536100000003,None,0,0,0,0,,,,,13,3,107,3,397.5649513999999,,,,,,,,,,,,,,,,,,,,,397.5496943999999,397.5649513999999,398.04832759999977,398.0527360999997,398.0695711999999,398.5821725999997,,,,,398.5823732000001,398.5977826000001,398.7978713,398.7817443000001,398.0695711999999,,,,,,,,1,1,0.5110726000002614,None,,,,,,,,869,24,M,L,2026-02-23_11h27.33.028,VisualSearch_2526_3,,2025.2.4,2026-02-23 11h27.33.255852 +0100,
tilted.xlsx,The target is tilted.,117,108,4,13,1,1,1,1,0,0,0,0,0,0,0,0,0,3,4,117,space,12.034367499999917,None,1,1,0.5546872999998413,None,space,1.821536100000003,None,0,0,0,0,,,,,13,4,108,2,398.7978713,,,,,,,,,,,,,,,,,,,,,398.78256129999977,398.7978713,399.28095419999977,399.2853742,399.3013331999998,399.86481649999973,,,,,399.8649981000001,399.88049609999985,400.08043810000004,400.06438619999994,399.3013331999998,,,,,,,,1,1,0.5546872999998413,None,,,,,,,,869,24,M,L,2026-02-23_11h27.33.028,VisualSearch_2526_3,,2025.2.4,2026-02-23 11h27.33.255852 +0100,
tilted.xlsx,The target is tilted.,117,109,5,13,0,1,1,1,1,1,1,1,1,1,1,1,1,11,12,117,space,12.034367499999917,None,0,1,3.1866045000001577,None,space,1.821536100000003,None,0,0,0,0,,,,,13,5,109,4,400.08043810000004,,,,,,,,,,,,,,,,,,,,,400.06511149999983,400.08043810000004,400.5640772999998,400.5686085,400.58629799999994,403.7785744999999,,,,,403.77865719999977,403.7946878,403.9948901999999,403.9785820999998,400.58629799999994,,,,,,,,0,1,3.1866045000001577,None,,,,,,,,869,24,M,L,2026-02-23_11h27.33.028,VisualSearch_2526_3,,2025.2.4,2026-02-23 11h27.33.255852 +0100,
tilted.xlsx,The target is tilted.,117,110,6,13,0,1,1,1,1,1,1,1,0,0,0,0,1,7,8,117,space,12.034367499999917,None,0,1,2.070265500000005,None,space,1.821536100000003,None,0,0,0,0,,,,,13,6,110,5,403.9948901999999,,,,,,,,,,,,,,,,,,,,,403.9791302000001,403.9948901999999,404.47857469999985,404.4831013999999,404.49992559999987,406.57870119999984,,,,,406.5789213999999,406.5941242000001,406.7942532999998,406.7781139000001,404.49992559999987,,,,,,,,0,1,2.070265500000005,None,,,,,,,,869,24,M,L,2026-02-23_11h27.33.028,VisualSearch_2526_3,,2025.2.4,2026-02-23 11h27.33.255852 +0100,
tilted.xlsx,The target is tilted.,117,111,7,13,0,0,0,0,0,0,0,0,0,0,0,0,1,1,1,117,space,12.034367499999917,None,0,1,0.4515544000000773,None,space,1.821536100000003,None,0,0,0,0,,,,,13,7,111,7,406.7942532999998,,,,,,,,,,,,,,,,,,,,,406.7789218999999,406.7942532999998,407.27800379999985,407.2827305999997,407.2996559999999,407.7611129999998,,,,,407.7612999999999,407.7769356000001,407.9769008999999,407.9606062999999,407.2996559999999,,,,,,,,0,1,0.4515544000000773,None,,,,,,,,869,24,M,L,2026-02-23_11h27.33.028,VisualSearch_2526_3,,2025.2.4,2026-02-23 11h27.33.255852 +0100,
tilted.xlsx,The target is tilted.,117,112,0,14,0,1,1,1,0,0,0,0,0,0,0,0,1,3,4,117,space,12.034367499999917,None,0,1,0.6870346000000609,None,space,1.821536100000003,None,0,0,0,0,,,,,14,0,112,6,407.9769008999999,,,,,,,,,,,,,,,,,,,,,407.9613380999997,407.9769008999999,408.46022449999987,408.46460939999974,408.4810780999999,409.1767377999997,,,,,409.1768768999998,409.1927957999999,409.39277389999984,409.37681069999985,408.4810780999999,,,,,,,,0,1,0.6870346000000609,None,,,,,,,,869,24,M,L,2026-02-23_11h27.33.028,VisualSearch_2526_3,,2025.2.4,2026-02-23 11h27.33.255852 +0100,
tilted.xlsx,The target is tilted.,117,113,1,14,0,0,0,0,0,0,0,0,0,0,0,0,1,1,1,117,space,12.034367499999917,None,0,1,0.5682086000001618,None,space,1.821536100000003,None,0,0,0,0,,,,,14,1,113,7,409.39277389999984,,,,,,,,,,,,,,,,,,,,,409.37751879999973,409.39277389999984,409.87652520000006,409.88093989999993,409.8981659999997,410.47691499999996,,,,,410.47714699999983,410.49238790000004,410.69224800000006,410.6762624999999,409.8981659999997,,,,,,,,0,1,0.5682086000001618,None,,,,,,,,869,24,M,L,2026-02-23_11h27.33.028,VisualSearch_2526_3,,2025.2.4,2026-02-23 11h27.33.255852 +0100,
tilted.xlsx,The target is tilted.,117,114,2,14,1,1,1,1,1,1,1,1,1,1,1,1,0,11,12,117,space,12.034367499999917,None,1,1,0.8545589000000291,None,space,1.821536100000003,None,0,0,0,0,,,,,14,2,114,0,410.69224800000006,,,,,,,,,,,,,,,,,,,,,410.67705939999973,410.69224800000006,411.17646880000007,411.1808473999997,411.1980823000001,412.05940769999984,,,,,412.05960630000004,412.074981,412.2749096,412.2587034999999,411.1980823000001,,,,,,,,1,1,0.8545589000000291,None,,,,,,,,869,24,M,L,2026-02-23_11h27.33.028,VisualSearch_2526_3,,2025.2.4,2026-02-23 11h27.33.255852 +0100,
tilted.xlsx,The target is tilted.,117,115,3,14,0,1,1,1,1,1,1,1,1,1,1,1,1,11,12,117,space,12.034367499999917,None,0,1,3.6504508000002716,None,space,1.821536100000003,None,0,0,0,0,,,,,14,3,115,4,412.2749096,,,,,,,,,,,,,,,,,,,,,412.25945079999997,412.2749096,412.7580924000001,412.7610610999998,412.7743987000001,416.44055730000014,,,,,416.4407610999999,416.4563437999998,416.6558563000001,416.63968999999975,412.7743987000001,,,,,,,,0,1,3.6504508000002716,None,,,,,,,,869,24,M,L,2026-02-23_11h27.33.028,VisualSearch_2526_3,,2025.2.4,2026-02-23 11h27.33.255852 +0100,
tilted.xlsx,The target is tilted.,117,116,4,14,1,1,1,1,1,1,1,1,0,0,0,0,0,7,8,117,space,12.034367499999917,None,1,1,1.9863006000000496,None,space,1.821536100000003,None,0,0,0,0,,,,,14,4,116,1,416.6558563000001,,,,,,,,,,,,,,,,,,,,,416.6404283999998,416.6558563000001,417.1399826999998,417.1443916999999,417.16083159999994,419.1561785000001,,,,,419.1563801,419.1716660999998,419.3717356999998,419.3556394999998,417.16083159999994,,,,,,,,1,1,1.9863006000000496,None,,,,,,,,869,24,M,L,2026-02-23_11h27.33.028,VisualSearch_2526_3,,2025.2.4,2026-02-23 11h27.33.255852 +0100,
tilted.xlsx,The target is tilted.,117,117,5,14,0,1,1,1,1,1,1,1,0,0,0,0,1,7,8,117,space,12.034367499999917,None,0,1,2.490505799999937,None,space,1.821536100000003,None,0,0,0,0,,,,,14,5,117,5,419.3717356999998,,,,,,,,,,,,,,,,,,,,,419.3563716000001,419.3717356999998,419.8554127,419.8598724000001,419.8730417999998,422.3713065999998,,,,,422.3715046,422.3869551,422.5869503000001,422.570653,419.8730417999998,,,,,,,,0,1,2.490505799999937,None,,,,,,,,869,24,M,L,2026-02-23_11h27.33.028,VisualSearch_2526_3,,2025.2.4,2026-02-23 11h27.33.255852 +0100,
tilted.xlsx,The target is tilted.,117,118,6,14,1,0,0,0,0,0,0,0,0,0,0,0,0,0,1,117,space,12.034367499999917,None,1,1,0.5693444999997155,None,space,1.821536100000003,None,0,0,0,0,,,,,14,6,118,3,422.5869503000001,,,,,,,,,,,,,,,,,,,,,422.5713969000001,422.5869503000001,423.0702466,423.0746641999997,423.0885882,423.6705532999997,,,,,423.6707543,423.68637569999987,423.88611019999985,423.869735,423.0885882,,,,,,,,1,1,0.5693444999997155,None,,,,,,,,869,24,M,L,2026-02-23_11h27.33.028,VisualSearch_2526_3,,2025.2.4,2026-02-23 11h27.33.255852 +0100,
tilted.xlsx,The target is tilted.,117,119,7,14,1,1,1,1,0,0,0,0,0,0,0,0,0,3,4,117,space,12.034367499999917,None,1,1,0.6701543999997739,None,space,1.821536100000003,None,0,0,0,0,,,,,14,7,119,2,423.88611019999985,,,,,,,,,,,,,,,,,,,,,423.8705035999999,423.88611019999985,424.3700234999999,424.3744048000001,424.39085679999994,425.07032019999974,,,,,425.0705276000001,425.08573139999976,425.3004599999997,425.26922039999977,424.39085679999994,,,,,,,,1,1,0.6701543999997739,None,,,,,,,,869,24,M,L,2026-02-23_11h27.33.028,VisualSearch_2526_3,,2025.2.4,2026-02-23 11h27.33.255852 +0100,
tilted.xlsx,The target is tilted.,117,0,0,0,,,,,,,,,,,,,,,,,space,12.034367499999917,None,,,,,space,1.821536100000003,None,0,0,0,0,,,,,,,,,,,,,,,,,,,,,,,,,,,,,,,,,,,,,,,,,,,,,,,,,,,,,,,,,,,,,,,869,24,M,L,2026-02-23_11h27.33.028,VisualSearch_2526_3,,2025.2.4,2026-02-23 11h27.33.255852 +0100,
vertical.xlsx,The target is tilted.,135,0,0,0,0,1,1,1,0,0,0,0,0,0,0,0,1,3,4,135,space,5.867934500000047,None,0,1,1.840887500000008,None,,,,0,1,1,1,0,0,0,6,,,,,431.2170736999999,,,,,,,,,,,,,,,425.3004599999997,425.3004599999997,425.3004599999997,space,5.867934500000047,None,431.2132088999999,431.2170736999999,431.69977779999977,431.70433419999995,431.72076949999996,433.56591159999994,0,1,1.840887500000008,None,433.566106,433.58179670000004,433.78139699999997,433.7650993999998,,,,,,,,,,,,,,,,,,,,869,24,M,L,2026-02-23_11h27.33.028,VisualSearch_2526_3,,2025.2.4,2026-02-23 11h27.33.255852 +0100,
vertical.xlsx,The target is tilted.,135,1,1,0,1,1,1,1,1,1,1,1,1,1,1,1,0,11,12,135,space,5.867934500000047,None,1,1,0.8061019000001579,None,,,,0,1,1,1,0,1,1,0,,,,,433.78139699999997,,,,,,,,,,,,,,,,,,,,,433.7654344,433.78139699999997,434.2655204,434.2698961999997,434.2842533999999,435.0989925000001,1,1,0.8061019000001579,None,435.09918189999985,435.1145850999999,435.3141512999998,435.2978907999998,434.2842533999999,,,,,,,,,,,,,,,,,,,869,24,M,L,2026-02-23_11h27.33.028,VisualSearch_2526_3,,2025.2.4,2026-02-23 11h27.33.255852 +0100,
vertical.xlsx,The target is tilted.,135,2,2,0,1,1,1,1,1,1,1,1,0,0,0,0,0,7,8,135,space,5.867934500000047,None,1,1,0.7872763999998824,None,,,,0,1,1,1,0,2,2,1,,,,,435.3141512999998,,,,,,,,,,,,,,,,,,,,,435.2985747,435.3141512999998,435.7982641000001,435.8026649000001,435.81870090000007,436.61497799999984,1,1,0.7872763999998824,None,436.61516389999974,436.6304993000001,436.83012189999977,436.81423689999997,435.81870090000007,,,,,,,,,,,,,,,,,,,869,24,M,L,2026-02-23_11h27.33.028,VisualSearch_2526_3,,2025.2.4,2026-02-23 11h27.33.255852 +0100,
vertical.xlsx,The target is tilted.,135,3,3,0,1,1,1,1,0,0,0,0,0,0,0,0,0,3,4,135,space,5.867934500000047,None,1,1,0.5682308000000376,None,,,,0,1,1,1,0,3,3,2,,,,,436.83012189999977,,,,,,,,,,,,,,,,,,,,,436.8149326999999,436.83012189999977,437.31384749999984,437.31895199999985,437.3370182000001,437.91436039999985,1,1,0.5682308000000376,None,437.9145713999999,437.9296813999997,438.1296096999997,438.1131401,437.3370182000001,,,,,,,,,,,,,,,,,,,869,24,M,L,2026-02-23_11h27.33.028,VisualSearch_2526_3,,2025.2.4,2026-02-23 11h27.33.255852 +0100,
vertical.xlsx,The target is tilted.,135,4,4,0,1,0,0,0,0,0,0,0,0,0,0,0,0,0,1,135,space,5.867934500000047,None,1,1,0.4415604999999232,None,,,,0,1,1,1,0,4,4,3,,,,,438.1296096999997,,,,,,,,,,,,,,,,,,,,,438.1138183999999,438.1296096999997,438.61366429999975,438.6186756999998,438.63574779999976,439.0805856999998,1,1,0.4415604999999232,None,439.0807718999997,439.09603409999977,439.2956923999998,439.27972350000005,438.63574779999976,,,,,,,,,,,,,,,,,,,869,24,M,L,2026-02-23_11h27.33.028,VisualSearch_2526_3,,2025.2.4,2026-02-23 11h27.33.255852 +0100,
vertical.xlsx,The target is tilted.,135,5,5,0,0,0,0,0,0,0,0,0,0,0,0,0,1,1,1,135,space,5.867934500000047,None,0,1,0.5253527999998369,None,,,,0,1,1,1,0,5,5,7,,,,,439.2956923999998,,,,,,,,,,,,,,,,,,,,,439.2804014000001,439.2956923999998,439.7798286,439.7842552999998,439.7955317999997,440.32917669999983,0,1,0.5253527999998369,None,440.3292792,440.34530629999995,440.5454741000001,440.52945569999997,439.7955317999997,,,,,,,,,,,,,,,,,,,869,24,M,L,2026-02-23_11h27.33.028,VisualSearch_2526_3,,2025.2.4,2026-02-23 11h27.33.255852 +0100,
vertical.xlsx,The target is tilted.,135,6,6,0,0,1,1,1,1,1,1,1,1,1,1,1,1,11,12,135,space,5.867934500000047,None,0,1,1.2015455999999176,None,,,,0,1,1,1,0,6,6,4,,,,,440.5454741000001,,,,,,,,,,,,,,,,,,,,,440.5301079999997,440.5454741000001,441.02915819999976,441.03355899999974,441.0507342999997,442.26197979999984,0,1,1.2015455999999176,None,442.2621695,442.27791749999983,442.47750269999983,442.46172249999995,441.0507342999997,,,,,,,,,,,,,,,,,,,869,24,M,L,2026-02-23_11h27.33.028,VisualSearch_2526_3,,2025.2.4,2026-02-23 11h27.33.255852 +0100,
vertical.xlsx,The target is tilted.,135,7,7,0,0,1,1,1,1,1,1,1,0,0,0,0,1,7,8,135,space,5.867934500000047,None,0,1,1.1476815999999417,None,,,,0,1,1,1,0,7,7,5,,,,,442.47750269999983,,,,,,,,,,,,,,,,,,,,,442.4624102999999,442.47750269999983,442.9614073,442.9658333,442.982753,444.1449809999997,0,1,1.1476815999999417,None,444.1451980999998,444.1602943999999,444.3603151,444.3442792999997,442.982753,,,,,,,,,,,,,,,,,,,869,24,M,L,2026-02-23_11h27.33.028,VisualSearch_2526_3,,2025.2.4,2026-02-23 11h27.33.255852 +0100,
vertical.xlsx,The target is tilted.,135,0,0,0,1,1,1,1,0,0,0,0,0,0,0,0,0,3,4,135,space,5.867934500000047,None,1,1,1.6118925999999192,None,space,3.1578332999997656,None,0,1,1,1,,,,,0,0,0,2,447.5569770999998,,,,,,,,,,,,,,,,,,,,,447.5524453999999,447.5569770999998,448.0423223999999,448.0467941999998,448.0624848,449.67581459999997,,,,,449.6760274999999,449.6909521,449.89118459999986,449.87511389999986,,444.3511151,444.3603151,444.3603151,447.52593760000013,space,3.1578332999997656,None,1,1,1.6118925999999192,None,,,,,,,,869,24,M,L,2026-02-23_11h27.33.028,VisualSearch_2526_3,,2025.2.4,2026-02-23 11h27.33.255852 +0100,
vertical.xlsx,The target is tilted.,135,1,1,0,1,0,0,0,0,0,0,0,0,0,0,0,0,0,1,135,space,5.867934500000047,None,1,1,0.5655057999997553,None,space,3.1578332999997656,None,0,1,1,1,,,,,0,1,1,3,449.89118459999986,,,,,,,,,,,,,,,,,,,,,449.8758390999999,449.89118459999986,450.3744669,450.3789098999998,450.3937994999999,450.97499249999987,,,,,450.9751911999999,450.9906966000001,451.1904744000001,451.1744523,450.3937994999999,,,,,,,,1,1,0.5655057999997553,None,,,,,,,,869,24,M,L,2026-02-23_11h27.33.028,VisualSearch_2526_3,,2025.2.4,2026-02-23 11h27.33.255852 +0100,
vertical.xlsx,The target is tilted.,135,2,2,0,1,1,1,1,1,1,1,1,1,1,1,1,0,11,12,135,space,5.867934500000047,None,1,1,1.3981012999997802,None,space,3.1578332999997656,None,0,1,1,1,,,,,0,2,2,0,451.1904744000001,,,,,,,,,,,,,,,,,,,,,451.17523849999975,451.1904744000001,451.67432669999994,451.67869339999993,451.6965170000001,453.10699210000007,,,,,453.1071316,453.1228518999999,453.3229635,453.30688940000005,451.6965170000001,,,,,,,,1,1,1.3981012999997802,None,,,,,,,,869,24,M,L,2026-02-23_11h27.33.028,VisualSearch_2526_3,,2025.2.4,2026-02-23 11h27.33.255852 +0100,
vertical.xlsx,The target is tilted.,135,3,3,0,0,1,1,1,0,0,0,0,0,0,0,0,1,3,4,135,space,5.867934500000047,None,0,1,0.8224502000002758,None,space,3.1578332999997656,None,0,1,1,1,,,,,0,3,3,6,453.3229635,,,,,,,,,,,,,,,,,,,,,453.30759939999984,453.3229635,453.8066744999999,453.8112377,453.8284035999998,454.65649310000003,,,,,454.6566891,454.67231689999994,454.8718637999998,454.85597540000003,453.8284035999998,,,,,,,,0,1,0.8224502000002758,None,,,,,,,,869,24,M,L,2026-02-23_11h27.33.028,VisualSearch_2526_3,,2025.2.4,2026-02-23 11h27.33.255852 +0100,
vertical.xlsx,The target is tilted.,135,4,4,0,1,1,1,1,1,1,1,1,0,0,0,0,0,7,8,135,space,5.867934500000047,None,1,1,0.4899748000002546,None,space,3.1578332999997656,None,0,1,1,1,,,,,0,4,4,1,454.8718637999998,,,,,,,,,,,,,,,,,,,,,454.8566930999998,454.8718637999998,455.3555107999998,455.3599254999997,455.3773104999998,455.8728722999997,,,,,455.87306710000007,455.8883264999997,456.0883471999998,456.0721516000001,455.3773104999998,,,,,,,,1,1,0.4899748000002546,None,,,,,,,,869,24,M,L,2026-02-23_11h27.33.028,VisualSearch_2526_3,,2025.2.4,2026-02-23 11h27.33.255852 +0100,
vertical.xlsx,The target is tilted.,135,5,5,0,0,0,0,0,0,0,0,0,0,0,0,0,1,1,1,135,space,5.867934500000047,None,0,1,0.5508130999996865,None,space,3.1578332999997656,None,0,1,1,1,,,,,0,5,5,7,456.0883471999998,,,,,,,,,,,,,,,,,,,,,456.0729079,456.0883471999998,456.5719618999999,456.57643200000007,456.5932270999999,457.15537560000007,,,,,457.1555519000001,457.17119089999983,457.3710398999999,457.35534269999994,456.5932270999999,,,,,,,,0,1,0.5508130999996865,None,,,,,,,,869,24,M,L,2026-02-23_11h27.33.028,VisualSearch_2526_3,,2025.2.4,2026-02-23 11h27.33.255852 +0100,
vertical.xlsx,The target is tilted.,135,6,6,0,0,1,1,1,1,1,1,1,1,1,1,1,1,11,12,135,space,5.867934500000047,None,0,1,1.3132470999998986,None,space,3.1578332999997656,None,0,1,1,1,,,,,0,6,6,4,457.3710398999999,,,,,,,,,,,,,,,,,,,,,457.3561027999997,457.3710398999999,457.85479680000003,457.8591616000001,457.8739932000001,459.2047034999998,,,,,459.20489999999995,459.2202555000001,459.4200665999999,459.4041337000001,457.8739932000001,,,,,,,,0,1,1.3132470999998986,None,,,,,,,,869,24,M,L,2026-02-23_11h27.33.028,VisualSearch_2526_3,,2025.2.4,2026-02-23 11h27.33.255852 +0100,
vertical.xlsx,The target is tilted.,135,7,7,0,0,1,1,1,1,1,1,1,0,0,0,0,1,7,8,135,space,5.867934500000047,None,0,1,1.2155864000001202,None,space,3.1578332999997656,None,0,1,1,1,,,,,0,7,7,5,459.4200665999999,,,,,,,,,,,,,,,,,,,,,459.40484119999996,459.4200665999999,459.9039018000001,459.90838740000004,459.9242661999999,461.15386250000006,,,,,461.15406559999997,461.1692298999999,461.3693685999999,461.35323059999996,459.9242661999999,,,,,,,,0,1,1.2155864000001202,None,,,,,,,,869,24,M,L,2026-02-23_11h27.33.028,VisualSearch_2526_3,,2025.2.4,2026-02-23 11h27.33.255852 +0100,
vertical.xlsx,The target is tilted.,135,8,0,1,1,1,1,1,1,1,1,1,0,0,0,0,0,7,8,135,space,5.867934500000047,None,1,1,1.1312448000003315,None,space,3.1578332999997656,None,0,1,1,1,,,,,1,0,8,1,461.3693685999999,,,,,,,,,,,,,,,,,,,,,461.35394410000004,461.3693685999999,461.8530063999999,461.8574504999999,461.87364409999986,463.01971389999994,,,,,463.01991139999996,463.03512019999994,463.2351557999998,463.2192327999999,461.87364409999986,,,,,,,,1,1,1.1312448000003315,None,,,,,,,,869,24,M,L,2026-02-23_11h27.33.028,VisualSearch_2526_3,,2025.2.4,2026-02-23 11h27.33.255852 +0100,
vertical.xlsx,The target is tilted.,135,9,1,1,0,1,1,1,1,1,1,1,1,1,1,1,1,11,12,135,space,5.867934500000047,None,0,1,2.378588000000036,None,space,3.1578332999997656,None,0,1,1,1,,,,,1,1,9,4,463.2351557999998,,,,,,,,,,,,,,,,,,,,,463.22008870000013,463.2351557999998,463.71831880000013,463.7227184000001,463.73835399999984,466.11833909999973,,,,,466.1185653,466.1337361999997,466.3337604000001,466.3176624,463.73835399999984,,,,,,,,0,1,2.378588000000036,None,,,,,,,,869,24,M,L,2026-02-23_11h27.33.028,VisualSearch_2526_3,,2025.2.4,2026-02-23 11h27.33.255852 +0100,
vertical.xlsx,The target is tilted.,135,10,2,1,0,1,1,1,1,1,1,1,0,0,0,0,1,7,8,135,space,5.867934500000047,None,0,1,0.9591211000001749,None,space,3.1578332999997656,None,0,1,1,1,,,,,1,2,10,5,466.3337604000001,,,,,,,,,,,,,,,,,,,,,466.3183784999999,466.3337604000001,466.8169144000001,466.8212624999999,466.8334134999998,467.80037990000005,,,,,467.8005747999998,467.81624179999994,468.0159391999998,467.9998156999998,466.8334134999998,,,,,,,,0,1,0.9591211000001749,None,,,,,,,,869,24,M,L,2026-02-23_11h27.33.028,VisualSearch_2526_3,,2025.2.4,2026-02-23 11h27.33.255852 +0100,
vertical.xlsx,The target is tilted.,135,11,3,1,0,0,0,0,0,0,0,0,0,0,0,0,1,1,1,135,space,5.867934500000047,None,0,1,0.4154131000000234,None,space,3.1578332999997656,None,0,1,1,1,,,,,1,3,11,7,468.0159391999998,,,,,,,,,,,,,,,,,,,,,468.00053980000007,468.0159391999998,468.49988659999985,468.50430859999983,468.52117269999985,468.94999989999974,,,,,468.9501998999997,468.96542669999985,469.1656393999999,469.1493945999998,468.52117269999985,,,,,,,,0,1,0.4154131000000234,None,,,,,,,,869,24,M,L,2026-02-23_11h27.33.028,VisualSearch_2526_3,,2025.2.4,2026-02-23 11h27.33.255852 +0100,
vertical.xlsx,The target is tilted.,135,12,4,1,1,1,1,1,1,1,1,1,1,1,1,1,0,11,12,135,space,5.867934500000047,None,1,1,0.5813491999997495,None,space,3.1578332999997656,None,0,1,1,1,,,,,1,4,12,0,469.1656393999999,,,,,,,,,,,,,,,,,,,,,469.15012090000005,469.1656393999999,469.64948149999987,469.6543872999998,469.67056739999975,470.26627269999994,,,,,470.2664503999997,470.2818079000001,470.4818253000001,470.465876,469.67056739999975,,,,,,,,1,1,0.5813491999997495,None,,,,,,,,869,24,M,L,2026-02-23_11h27.33.028,VisualSearch_2526_3,,2025.2.4,2026-02-23 11h27.33.255852 +0100,
vertical.xlsx,The target is tilted.,135,13,5,1,0,1,1,1,0,0,0,0,0,0,0,0,1,3,4,135,space,5.867934500000047,None,0,1,0.612806300000102,None,space,3.1578332999997656,None,0,1,1,1,,,,,1,5,13,6,470.4818253000001,,,,,,,,,,,,,,,,,,,,,470.4668151999997,470.4818253000001,470.9651489999999,470.9695319,470.9858668999998,471.61532060000013,,,,,471.61551699999995,471.6308338000001,471.8309791999998,471.8150371999998,470.9858668999998,,,,,,,,0,1,0.612806300000102,None,,,,,,,,869,24,M,L,2026-02-23_11h27.33.028,VisualSearch_2526_3,,2025.2.4,2026-02-23 11h27.33.255852 +0100,
vertical.xlsx,The target is tilted.,135,14,6,1,1,1,1,1,0,0,0,0,0,0,0,0,0,3,4,135,space,5.867934500000047,None,1,1,0.6044850000002953,None,space,3.1578332999997656,None,0,1,1,1,,,,,1,6,14,2,471.8309791999998,,,,,,,,,,,,,,,,,,,,,471.8159499000001,471.8309791999998,472.31482589999973,472.3192222,472.3356332999999,472.94848149999984,,,,,472.94867599999975,472.9639887999999,473.1639944000001,473.1479125999997,472.3356332999999,,,,,,,,1,1,0.6044850000002953,None,,,,,,,,869,24,M,L,2026-02-23_11h27.33.028,VisualSearch_2526_3,,2025.2.4,2026-02-23 11h27.33.255852 +0100,
vertical.xlsx,The target is tilted.,135,15,7,1,1,0,0,0,0,0,0,0,0,0,0,0,0,0,1,135,space,5.867934500000047,None,1,1,0.5133237000000008,None,space,3.1578332999997656,None,0,1,1,1,,,,,1,7,15,3,473.1639944000001,,,,,,,,,,,,,,,,,,,,,473.14863519999994,473.1639944000001,473.6476869999999,473.6520568999997,473.6636278999997,474.1809817000001,,,,,474.1811777999999,474.19669,474.39665379999974,474.3803565999999,473.6636278999997,,,,,,,,1,1,0.5133237000000008,None,,,,,,,,869,24,M,L,2026-02-23_11h27.33.028,VisualSearch_2526_3,,2025.2.4,2026-02-23 11h27.33.255852 +0100,
vertical.xlsx,The target is tilted.,135,16,0,2,0,1,1,1,1,1,1,1,1,1,1,1,1,11,12,135,space,5.867934500000047,None,0,1,1.1157570000000305,None,space,3.1578332999997656,None,0,1,1,1,,,,,2,0,16,4,474.39665379999974,,,,,,,,,,,,,,,,,,,,,474.3810654000001,474.39665379999974,474.8800832999998,474.8844668999998,474.8963602000001,476.01308760000006,,,,,476.0132054999997,476.02908109999976,476.2292781999997,476.2131678999997,474.8963602000001,,,,,,,,0,1,1.1157570000000305,None,,,,,,,,869,24,M,L,2026-02-23_11h27.33.028,VisualSearch_2526_3,,2025.2.4,2026-02-23 11h27.33.255852 +0100,
vertical.xlsx,The target is tilted.,135,17,1,2,1,1,1,1,1,1,1,1,0,0,0,0,0,7,8,135,space,5.867934500000047,None,1,1,0.7068189999999959,None,space,3.1578332999997656,None,0,1,1,1,,,,,2,1,17,1,476.2292781999997,,,,,,,,,,,,,,,,,,,,,476.21388569999976,476.2292781999997,476.71292759999983,476.7172757999999,476.7337600999997,477.4452848999997,,,,,477.44537509999986,477.4616294,,477.64558999999986,476.7337600999997,,,,,,,,1,1,0.7068189999999959,None,,,,,,,,869,24,M,L,2026-02-23_11h27.33.028,VisualSearch_2526_3,,2025.2.4,2026-02-23 11h27.33.255852 +0100,
vertical.xlsx,The target is tilted.,135,18,2,2,1,1,1,1,1,1,1,1,1,1,1,1,0,11,12,135,space,5.867934500000047,None,1,1,0.6448424999998679,None,space,3.1578332999997656,None,0,1,1,1,,,,,2,2,18,0,477.6619383,,,,,,,,,,,,,,,,,,,,,477.6463742999997,477.6619383,478.14562509999973,478.15024470000003,478.1674922999998,478.8292445999998,,,,,478.8294656999999,478.84474079999995,479.0442485000001,479.02852559999997,478.1674922999998,,,,,,,,1,1,0.6448424999998679,None,,,,,,,,869,24,M,L,2026-02-23_11h27.33.028,VisualSearch_2526_3,,2025.2.4,2026-02-23 11h27.33.255852 +0100,
vertical.xlsx,The target is tilted.,135,19,3,2,0,0,0,0,0,0,0,0,0,0,0,0,1,1,1,135,space,5.867934500000047,None,0,1,0.49151350000011007,None,space,3.1578332999997656,None,0,1,1,1,,,,,2,3,19,7,479.0442485000001,,,,,,,,,,,,,,,,,,,,,479.0292413999998,479.0442485000001,479.5279899999998,479.5323882,479.5485084999998,480.0448401000001,,,,,480.0450352999999,480.06074319999993,480.2607107000001,480.2446717999999,479.5485084999998,,,,,,,,0,1,0.49151350000011007,None,,,,,,,,869,24,M,L,2026-02-23_11h27.33.028,VisualSearch_2526_3,,2025.2.4,2026-02-23 11h27.33.255852 +0100,
vertical.xlsx,The target is tilted.,135,20,4,2,1,0,0,0,0,0,0,0,0,0,0,0,0,0,1,135,space,5.867934500000047,None,1,1,0.5208020000000033,None,space,3.1578332999997656,None,0,1,1,1,,,,,2,4,20,3,480.2607107000001,,,,,,,,,,,,,,,,,,,,,480.2454978999997,480.2607107000001,480.7444546999998,480.7487881999998,480.76275539999983,481.2942351999998,,,,,481.2943711999999,481.3100598999997,481.50986469999975,481.49376180000013,480.76275539999983,,,,,,,,1,1,0.5208020000000033,None,,,,,,,,869,24,M,L,2026-02-23_11h27.33.028,VisualSearch_2526_3,,2025.2.4,2026-02-23 11h27.33.255852 +0100,
vertical.xlsx,The target is tilted.,135,21,5,2,1,1,1,1,0,0,0,0,0,0,0,0,0,3,4,135,space,5.867934500000047,None,1,1,0.5896973999997499,None,space,3.1578332999997656,None,0,1,1,1,,,,,2,5,21,2,481.50986469999975,,,,,,,,,,,,,,,,,,,,,481.4945193000001,481.50986469999975,481.9939432999997,481.9987147999998,482.0098224999999,482.6103820999999,,,,,482.6105737999999,482.62619040000004,482.8262804999997,482.80983059999994,482.0098224999999,,,,,,,,1,1,0.5896973999997499,None,,,,,,,,869,24,M,L,2026-02-23_11h27.33.028,VisualSearch_2526_3,,2025.2.4,2026-02-23 11h27.33.255852 +0100,
vertical.xlsx,The target is tilted.,135,22,6,2,0,1,1,1,0,0,0,0,0,0,0,0,1,3,4,135,space,5.867934500000047,None,0,1,0.5228532999999516,None,space,3.1578332999997656,None,0,1,1,1,,,,,2,6,22,6,482.8262804999997,,,,,,,,,,,,,,,,,,,,,482.81060409999986,482.8262804999997,483.3095407999997,483.31394750000004,483.33001390000004,483.85861309999996,,,,,483.8586783999997,483.87485919999995,484.07486529999983,484.0583234999997,483.33001390000004,,,,,,,,0,1,0.5228532999999516,None,,,,,,,,869,24,M,L,2026-02-23_11h27.33.028,VisualSearch_2526_3,,2025.2.4,2026-02-23 11h27.33.255852 +0100,
vertical.xlsx,The target is tilted.,135,23,7,2,0,1,1,1,1,1,1,1,0,0,0,0,1,7,8,135,space,5.867934500000047,None,0,1,1.1451020999998036,None,space,3.1578332999997656,None,0,1,1,1,,,,,2,7,23,5,484.07486529999983,,,,,,,,,,,,,,,,,,,,,484.05862509999974,484.07486529999983,484.55937289999997,484.56467399999997,484.5834699999998,485.7418962999998,,,,,485.7419865999998,485.7580295,485.95773559999975,485.9421915999999,,,,,,,,,0,1,1.1451020999998036,None,,,,,,,,869,24,M,L,2026-02-23_11h27.33.028,VisualSearch_2526_3,,2025.2.4,2026-02-23 11h27.33.255852 +0100,
vertical.xlsx,The target is tilted.,135,24,0,3,0,0,0,0,0,0,0,0,0,0,0,0,1,1,1,135,space,5.867934500000047,None,0,1,0.4435937999996895,None,space,3.1578332999997656,None,0,1,1,1,,,,,3,0,24,7,485.95773559999975,,,,,,,,,,,,,,,,,,,,,485.94301999999993,485.95773559999975,486.44186250000007,486.4462566999998,486.4621077999998,486.90866089999986,,,,,486.90883659999986,486.9238600000001,487.1243225999999,487.10833419999994,486.4621077999998,,,,,,,,0,1,0.4435937999996895,None,,,,,,,,869,24,M,L,2026-02-23_11h27.33.028,VisualSearch_2526_3,,2025.2.4,2026-02-23 11h27.33.255852 +0100,
vertical.xlsx,The target is tilted.,135,25,1,3,1,1,1,1,1,1,1,1,1,1,1,1,0,11,12,135,space,5.867934500000047,None,1,1,0.5958832999999686,None,space,3.1578332999997656,None,0,1,1,1,,,,,3,1,25,0,487.1243225999999,,,,,,,,,,,,,,,,,,,,,487.10906899999986,487.1243225999999,487.6080549999999,487.6124497999997,487.6261342999999,488.2249571,,,,,488.2251927,488.2404128999999,488.4402379999999,488.42428270000005,487.6261342999999,,,,,,,,1,1,0.5958832999999686,None,,,,,,,,869,24,M,L,2026-02-23_11h27.33.028,VisualSearch_2526_3,,2025.2.4,2026-02-23 11h27.33.255852 +0100,
vertical.xlsx,The target is tilted.,135,26,2,3,0,1,1,1,0,0,0,0,0,0,0,0,1,3,4,135,space,5.867934500000047,None,0,1,0.5456128999999237,None,space,3.1578332999997656,None,0,1,1,1,,,,,3,2,26,6,488.4402379999999,,,,,,,,,,,,,,,,,,,,,488.4249926,488.4402379999999,488.9239775999997,488.9283604,488.94337900000005,489.4906232000001,,,,,489.49081739999997,489.5064783999999,489.7063277,489.6898792999998,488.94337900000005,,,,,,,,0,1,0.5456128999999237,None,,,,,,,,869,24,M,L,2026-02-23_11h27.33.028,VisualSearch_2526_3,,2025.2.4,2026-02-23 11h27.33.255852 +0100,
vertical.xlsx,The target is tilted.,135,27,3,3,1,1,1,1,1,1,1,1,0,0,0,0,0,7,8,135,space,5.867934500000047,None,1,1,0.5752560999999332,None,space,3.1578332999997656,None,0,1,1,1,,,,,3,3,27,1,489.7063277,,,,,,,,,,,,,,,,,,,,,489.69063819999997,489.7063277,490.1897742999997,490.194201,490.20601039999997,490.79027229999997,,,,,490.7904501999999,490.80586930000004,491.00596789999986,490.9900047999997,490.20601039999997,,,,,,,,1,1,0.5752560999999332,None,,,,,,,,869,24,M,L,2026-02-23_11h27.33.028,VisualSearch_2526_3,,2025.2.4,2026-02-23 11h27.33.255852 +0100,
vertical.xlsx,The target is tilted.,135,28,4,3,1,0,0,0,0,0,0,0,0,0,0,0,0,0,1,135,space,5.867934500000047,None,1,1,0.4017865000000711,None,space,3.1578332999997656,None,0,1,1,1,,,,,3,4,28,3,491.00596789999986,,,,,,,,,,,,,,,,,,,,,490.9908356999997,491.00596789999986,491.4896057999997,491.4941000000001,491.5103818,491.9227023000001,,,,,491.92286839999974,491.9385844000001,492.1388612999997,492.122697,491.5103818,,,,,,,,1,1,0.4017865000000711,None,,,,,,,,869,24,M,L,2026-02-23_11h27.33.028,VisualSearch_2526_3,,2025.2.4,2026-02-23 11h27.33.255852 +0100,
vertical.xlsx,The target is tilted.,135,29,5,3,0,1,1,1,1,1,1,1,1,1,1,1,1,11,12,135,space,5.867934500000047,None,0,1,0.9239890999997442,None,space,3.1578332999997656,None,0,1,1,1,,,,,3,5,29,4,492.1388612999997,,,,,,,,,,,,,,,,,,,,,492.1235816000001,492.1388612999997,492.6223048999998,492.6266423999998,492.6420525000001,493.5724247999999,,,,,493.5726182000001,493.5879668,493.7879494000001,493.7717769999997,492.6420525000001,,,,,,,,0,1,0.9239890999997442,None,,,,,,,,869,24,M,L,2026-02-23_11h27.33.028,VisualSearch_2526_3,,2025.2.4,2026-02-23 11h27.33.255852 +0100,
vertical.xlsx,The target is tilted.,135,30,6,3,1,1,1,1,0,0,0,0,0,0,0,0,0,3,4,135,space,5.867934500000047,None,1,1,0.5375316999998176,None,space,3.1578332999997656,None,0,1,1,1,,,,,3,6,30,2,493.7879494000001,,,,,,,,,,,,,,,,,,,,,493.77249099999995,493.7879494000001,494.2712933999999,494.27564929999994,494.2913080000001,494.83822099999975,,,,,494.83841499999994,494.8539668000001,495.0538604000001,495.0375991999997,494.2913080000001,,,,,,,,1,1,0.5375316999998176,None,,,,,,,,869,24,M,L,2026-02-23_11h27.33.028,VisualSearch_2526_3,,2025.2.4,2026-02-23 11h27.33.255852 +0100,
vertical.xlsx,The target is tilted.,135,31,7,3,0,1,1,1,1,1,1,1,0,0,0,0,1,7,8,135,space,5.867934500000047,None,0,1,0.7622980000001007,None,space,3.1578332999997656,None,0,1,1,1,,,,,3,7,31,5,495.0538604000001,,,,,,,,,,,,,,,,,,,,,495.0383739000001,495.0538604000001,495.53751279999983,495.54200190000006,495.55890190000014,496.33786559999976,,,,,496.33806470000013,496.35339210000006,496.5533337999998,496.5371539,495.55890190000014,,,,,,,,0,1,0.7622980000001007,None,,,,,,,,869,24,M,L,2026-02-23_11h27.33.028,VisualSearch_2526_3,,2025.2.4,2026-02-23 11h27.33.255852 +0100,
vertical.xlsx,The target is tilted.,135,32,0,4,1,1,1,1,0,0,0,0,0,0,0,0,0,3,4,135,space,5.867934500000047,None,1,1,0.46369099999992613,None,space,3.1578332999997656,None,0,1,1,1,,,,,4,0,32,2,496.5533337999998,,,,,,,,,,,,,,,,,,,,,496.5378939,496.5533337999998,497.03705509999986,497.04143569999974,497.0585908999999,497.5371161999999,,,,,497.5372936000001,497.55275449999976,497.7525270999997,497.73607419999985,497.0585908999999,,,,,,,,1,1,0.46369099999992613,None,,,,,,,,869,24,M,L,2026-02-23_11h27.33.028,VisualSearch_2526_3,,2025.2.4,2026-02-23 11h27.33.255852 +0100,
vertical.xlsx,The target is tilted.,135,33,1,4,0,1,1,1,0,0,0,0,0,0,0,0,1,3,4,135,space,5.867934500000047,None,0,1,0.6310488999997688,None,space,3.1578332999997656,None,0,1,1,1,,,,,4,1,33,6,497.7525270999997,,,,,,,,,,,,,,,,,,,,,497.73634449999986,497.7525270999997,498.23606689999974,498.24046969999995,498.25687330000005,498.9032602,,,,,498.90343789999974,498.9188766,499.1189111000001,499.10276339999996,498.25687330000005,,,,,,,,0,1,0.6310488999997688,None,,,,,,,,869,24,M,L,2026-02-23_11h27.33.028,VisualSearch_2526_3,,2025.2.4,2026-02-23 11h27.33.255852 +0100,
vertical.xlsx,The target is tilted.,135,34,2,4,0,0,0,0,0,0,0,0,0,0,0,0,1,1,1,135,space,5.867934500000047,None,0,1,0.5181430000002365,None,space,3.1578332999997656,None,0,1,1,1,,,,,4,2,34,7,499.1189111000001,,,,,,,,,,,,,,,,,,,,,499.1034754,499.1189111000001,499.6022231999998,499.60658850000004,499.61851060000004,500.1525515000001,,,,,500.15272889999983,500.16839000000004,500.36789380000005,500.3521334999998,499.61851060000004,,,,,,,,0,1,0.5181430000002365,None,,,,,,,,869,24,M,L,2026-02-23_11h27.33.028,VisualSearch_2526_3,,2025.2.4,2026-02-23 11h27.33.255852 +0100,
vertical.xlsx,The target is tilted.,135,35,3,4,0,1,1,1,1,1,1,1,0,0,0,0,1,7,8,135,space,5.867934500000047,None,0,1,0.808047600000009,None,space,3.1578332999997656,None,0,1,1,1,,,,,4,3,35,5,500.36789380000005,,,,,,,,,,,,,,,,,,,,,500.35284049999996,500.36789380000005,500.85170140000014,500.8562094000001,500.8715018999999,501.68526399999996,,,,,501.68543840000007,501.70086530000003,501.90088579999997,501.88482610000005,500.8715018999999,,,,,,,,0,1,0.808047600000009,None,,,,,,,,869,24,M,L,2026-02-23_11h27.33.028,VisualSearch_2526_3,,2025.2.4,2026-02-23 11h27.33.255852 +0100,
