file_name,block_instructions,target_example,thisN,thisTrialN,thisRepN,target_presence,opacity_1,opacity_2,opacity_3,opacity_4,opacity_5,opacity_6,opacity_7,opacity_8,opacity_9,opacity_10,opacity_11,opacity_12,n_distract,n_items,target_ori,key_resp_4.keys,key_resp_4.rt,key_resp_4.duration,key_resp.keys,key_resp.corr,key_resp.rt,key_resp.duration,key_resp_5.keys,key_resp_5.rt,key_resp_5.duration,blocks.thisRepN,blocks.thisTrialN,blocks.thisN,blocks.thisIndex,practice_trials.thisRepN,practice_trials.thisTrialN,practice_trials.thisN,practice_trials.thisIndex,trials.thisRepN,trials.thisTrialN,trials.thisN,trials.thisIndex,thisRow.t,notes,Welcome.started,WelcomeText.started,key_resp_2.started,Welcome.stopped,key_resp_2.keys,key_resp_2.rt,key_resp_2.duration,InformedConsent.started,text_4.started,InformedConsent.stopped,key_resp_6.keys,key_resp_6.rt,key_resp_6.duration,key_resp_4.started,example_target.started,text_3.started,blocks.key_resp_4.keys,blocks.key_resp_4.rt,blocks.key_resp_4.duration,FixCross.started,fixCross.started,FixCross.stopped,Stimulus.started,key_resp.started,Stimulus.stopped,practice_trials.key_resp.keys,practice_trials.key_resp.corr,practice_trials.key_resp.rt,practice_trials.key_resp.duration,BlankScreen.started,text.started,text.stopped,BlankScreen.stopped,fixCross.stopped,ExperimentStart.started,text_2.started,key_resp_5.started,ExperimentStart.stopped,blocks.key_resp_5.keys,blocks.key_resp_5.rt,blocks.key_resp_5.duration,trials.key_resp.keys,trials.key_resp.corr,trials.key_resp.rt,trials.key_resp.duration,Thanks.started,ThankYou.started,key_resp_3.started,Thanks.stopped,key_resp_3.keys,key_resp_3.rt,key_resp_3.duration,participant,leeftijd,gender,links/rechtshandig,date,expName,expVersion,psychopyVersion,expStart,
,,,,,,,,,,,,,,,,,,,,,,,,,,,,,,,,,,,,,,,,,,,,,,0.029125800000201707,0.03957470000023022,0.03957470000023022,19.416845600000215,space,19.353428500000064,None,,,,,,,,,,,,,,,,,,,,,,,,,,,,,,,,,,,,,,,,,,,,,,871,21,M,R,2026-02-23_12h01.31.814,VisualSearch_2526_3,,2025.2.4,2026-02-23 12h01.32.029311 +0100,
,,,,,,,,,,,,,,,,,,,,,,,,,,,,,,,,,,,,,,,,,,,,,,,,,,,,,19.41698570000017,19.426012599999922,30.197751300000164,y,10.77800920000027,None,,,,,,,,,,,,,,,,,,,,,,,,,,,,,,,,,,,,,,,,871,21,M,R,2026-02-23_12h01.31.814,VisualSearch_2526_3,,2025.2.4,2026-02-23 12h01.32.029311 +0100,
vertical.xlsx,The target is tilted.,135,0,0,0,1,1,1,1,1,1,1,1,0,0,0,0,0,7,8,135,space,6.746010599999863,None,0,0,2.048768199999813,None,,,,0,0,0,1,0,0,0,1,,,,,37.025486699999874,,,,,,,,,,,,,,,30.24051869999994,30.24051869999994,30.24051869999994,space,6.746010599999863,None,37.019707500000095,37.025486699999874,37.509952299999895,37.51473010000018,37.53138290000015,39.59320380000008,0,0,2.048768199999813,None,39.593377000000146,39.60870130000012,39.808892800000194,39.7927724000001,,,,,,,,,,,,,,,,,,,,871,21,M,R,2026-02-23_12h01.31.814,VisualSearch_2526_3,,2025.2.4,2026-02-23 12h01.32.029311 +0100,
vertical.xlsx,The target is tilted.,135,1,1,0,0,1,1,1,1,1,1,1,0,0,0,0,1,7,8,135,space,6.746010599999863,None,0,1,0.8139209000000847,None,,,,0,0,0,1,0,1,1,5,,,,,39.808892800000194,,,,,,,,,,,,,,,,,,,,,39.79348489999984,39.808892800000194,40.29258750000008,40.297146599999905,40.31511690000025,41.14227650000021,0,1,0.8139209000000847,None,41.14240800000016,41.1577013000001,41.357865400000264,41.34184719999985,40.31511690000025,,,,,,,,,,,,,,,,,,,871,21,M,R,2026-02-23_12h01.31.814,VisualSearch_2526_3,,2025.2.4,2026-02-23 12h01.32.029311 +0100,
vertical.xlsx,The target is tilted.,135,2,2,0,0,1,1,1,0,0,0,0,0,0,0,0,1,3,4,135,space,6.746010599999863,None,0,1,0.5713727000002109,None,,,,0,0,0,1,0,2,2,6,,,,,41.357865400000264,,,,,,,,,,,,,,,,,,,,,41.34250650000013,41.357865400000264,41.84152660000018,41.844634999999926,41.85803480000004,42.44210729999986,0,1,0.5713727000002109,None,42.442296799999895,42.457118300000275,42.65767330000017,42.64143479999984,41.85803480000004,,,,,,,,,,,,,,,,,,,871,21,M,R,2026-02-23_12h01.31.814,VisualSearch_2526_3,,2025.2.4,2026-02-23 12h01.32.029311 +0100,
vertical.xlsx,The target is tilted.,135,3,3,0,1,1,1,1,1,1,1,1,1,1,1,1,0,11,12,135,space,6.746010599999863,None,1,1,1.2946624000001066,None,,,,0,0,0,1,0,3,3,0,,,,,42.65767330000017,,,,,,,,,,,,,,,,,,,,,42.6421091000002,42.65767330000017,43.14112950000026,43.14569840000013,43.1618696999999,44.45778040000005,1,1,1.2946624000001066,None,44.4579705000001,44.47292500000003,44.67340950000016,44.657441299999846,43.1618696999999,,,,,,,,,,,,,,,,,,,871,21,M,R,2026-02-23_12h01.31.814,VisualSearch_2526_3,,2025.2.4,2026-02-23 12h01.32.029311 +0100,
vertical.xlsx,The target is tilted.,135,4,4,0,1,0,0,0,0,0,0,0,0,0,0,0,0,0,1,135,space,6.746010599999863,None,1,1,0.5042342000001554,None,,,,0,0,0,1,0,4,4,3,,,,,44.67340950000016,,,,,,,,,,,,,,,,,,,,,44.65815999999995,44.67340950000016,45.15703979999989,45.16161999999986,45.1781946000001,45.691176799999994,1,1,0.5042342000001554,None,45.69136579999986,45.70572140000013,45.90593209999997,45.88957250000021,45.1781946000001,,,,,,,,,,,,,,,,,,,871,21,M,R,2026-02-23_12h01.31.814,VisualSearch_2526_3,,2025.2.4,2026-02-23 12h01.32.029311 +0100,
vertical.xlsx,The target is tilted.,135,5,5,0,0,1,1,1,1,1,1,1,1,1,1,1,1,11,12,135,space,6.746010599999863,None,0,1,1.5464500000002772,None,,,,0,0,0,1,0,5,5,4,,,,,45.90593209999997,,,,,,,,,,,,,,,,,,,,,45.89022400000022,45.90593209999997,46.38984029999983,46.394571899999846,46.411521600000015,47.97194639999998,0,1,1.5464500000002772,None,47.97201700000005,47.98811230000001,48.18851880000011,48.172285399999964,46.411521600000015,,,,,,,,,,,,,,,,,,,871,21,M,R,2026-02-23_12h01.31.814,VisualSearch_2526_3,,2025.2.4,2026-02-23 12h01.32.029311 +0100,
vertical.xlsx,The target is tilted.,135,6,6,0,0,0,0,0,0,0,0,0,0,0,0,0,1,1,1,135,space,6.746010599999863,None,0,1,0.5804312000000209,None,,,,0,0,0,1,0,6,6,7,,,,,48.18851880000011,,,,,,,,,,,,,,,,,,,,,48.17293960000006,48.18851880000011,48.67183490000025,48.676505700000234,48.69364660000019,49.28815590000022,0,1,0.5804312000000209,None,49.288308700000016,49.30396980000023,49.504638200000045,49.488374099999874,48.69364660000019,,,,,,,,,,,,,,,,,,,871,21,M,R,2026-02-23_12h01.31.814,VisualSearch_2526_3,,2025.2.4,2026-02-23 12h01.32.029311 +0100,
vertical.xlsx,The target is tilted.,135,7,7,0,1,1,1,1,0,0,0,0,0,0,0,0,0,3,4,135,space,6.746010599999863,None,0,0,0.6620474999999715,None,,,,0,0,0,1,0,7,7,2,,,,,49.504638200000045,,,,,,,,,,,,,,,,,,,,,49.489034300000185,49.504638200000045,49.98819850000018,49.99273579999999,50.00948670000025,50.68781050000007,0,0,0.6620474999999715,None,50.6880027000002,50.70340840000017,50.90371570000025,50.88780399999996,50.00948670000025,,,,,,,,,,,,,,,,,,,871,21,M,R,2026-02-23_12h01.31.814,VisualSearch_2526_3,,2025.2.4,2026-02-23 12h01.32.029311 +0100,
vertical.xlsx,The target is tilted.,135,0,0,0,0,1,1,1,1,1,1,1,1,1,1,1,1,11,12,135,space,6.746010599999863,None,0,1,3.2117750999996133,None,space,1.9180163999999422,None,0,0,0,1,,,,,0,0,0,4,52.87003959999993,,,,,,,,,,,,,,,,,,,,,52.86594640000021,52.87003959999993,53.35302920000004,53.357709500000055,53.372978299999886,56.60183770000003,,,,,56.602047200000015,56.61738779999996,56.81759929999998,56.80167510000001,,50.89474710000013,50.90371570000025,50.90371570000025,52.83722059999991,space,1.9180163999999422,None,0,1,3.2117750999996133,None,,,,,,,,871,21,M,R,2026-02-23_12h01.31.814,VisualSearch_2526_3,,2025.2.4,2026-02-23 12h01.32.029311 +0100,
vertical.xlsx,The target is tilted.,135,1,1,0,1,1,1,1,1,1,1,1,1,1,1,1,0,11,12,135,space,6.746010599999863,None,1,1,1.6144339999996191,None,space,1.9180163999999422,None,0,0,0,1,,,,,0,1,1,0,56.81759929999998,,,,,,,,,,,,,,,,,,,,,56.80240230000027,56.81759929999998,57.30136820000007,57.305946400000266,57.322603699999945,58.95063819999996,,,,,58.95087349999994,58.966258500000095,59.16695570000002,59.150468100000126,57.322603699999945,,,,,,,,1,1,1.6144339999996191,None,,,,,,,,871,21,M,R,2026-02-23_12h01.31.814,VisualSearch_2526_3,,2025.2.4,2026-02-23 12h01.32.029311 +0100,
vertical.xlsx,The target is tilted.,135,2,2,0,1,0,0,0,0,0,0,0,0,0,0,0,0,0,1,135,space,6.746010599999863,None,1,1,0.5531060999996953,None,space,1.9180163999999422,None,0,0,0,1,,,,,0,2,2,3,59.16695570000002,,,,,,,,,,,,,,,,,,,,,59.15128959999993,59.16695570000002,59.650164499999846,59.654808199999934,59.67234959999996,60.23392790000025,,,,,60.23410220000005,60.24914549999994,60.44912410000006,60.43340269999999,59.67234959999996,,,,,,,,1,1,0.5531060999996953,None,,,,,,,,871,21,M,R,2026-02-23_12h01.31.814,VisualSearch_2526_3,,2025.2.4,2026-02-23 12h01.32.029311 +0100,
vertical.xlsx,The target is tilted.,135,3,3,0,0,1,1,1,0,0,0,0,0,0,0,0,1,3,4,135,space,6.746010599999863,None,0,1,0.8226346999999805,None,space,1.9180163999999422,None,0,0,0,1,,,,,0,3,3,6,60.44912410000006,,,,,,,,,,,,,,,,,,,,,60.43417580000005,60.44912410000006,60.932740600000216,60.936914100000195,60.95032519999995,61.783447400000114,,,,,61.78367380000009,61.79841220000026,61.998535600000196,61.982668600000125,60.95032519999995,,,,,,,,0,1,0.8226346999999805,None,,,,,,,,871,21,M,R,2026-02-23_12h01.31.814,VisualSearch_2526_3,,2025.2.4,2026-02-23 12h01.32.029311 +0100,
vertical.xlsx,The target is tilted.,135,4,4,0,0,1,1,1,1,1,1,1,0,0,0,0,1,7,8,135,space,6.746010599999863,None,0,1,1.5153969999996661,None,space,1.9180163999999422,None,0,0,0,1,,,,,0,4,4,5,61.998535600000196,,,,,,,,,,,,,,,,,,,,,61.9834092000001,61.998535600000196,62.48254420000012,62.48722679999992,62.503019900000254,64.03191389999984,,,,,64.03205370000023,64.0473806,64.24789869999995,64.23185240000021,62.503019900000254,,,,,,,,0,1,1.5153969999996661,None,,,,,,,,871,21,M,R,2026-02-23_12h01.31.814,VisualSearch_2526_3,,2025.2.4,2026-02-23 12h01.32.029311 +0100,
vertical.xlsx,The target is tilted.,135,5,5,0,0,0,0,0,0,0,0,0,0,0,0,0,1,1,1,135,space,6.746010599999863,None,0,1,0.557963700000073,None,space,1.9180163999999422,None,0,0,0,1,,,,,0,5,5,7,64.24789869999995,,,,,,,,,,,,,,,,,,,,,64.23265110000011,64.24789869999995,64.73143260000006,64.73597590000008,64.75398840000025,65.31520290000026,,,,,65.31545110000025,65.33015890000024,65.53040150000015,65.5144494000001,64.75398840000025,,,,,,,,0,1,0.557963700000073,None,,,,,,,,871,21,M,R,2026-02-23_12h01.31.814,VisualSearch_2526_3,,2025.2.4,2026-02-23 12h01.32.029311 +0100,
vertical.xlsx,The target is tilted.,135,6,6,0,1,1,1,1,0,0,0,0,0,0,0,0,0,3,4,135,space,6.746010599999863,None,1,1,1.0078592999998364,None,space,1.9180163999999422,None,0,0,0,1,,,,,0,6,6,2,65.53040150000015,,,,,,,,,,,,,,,,,,,,,65.51515380000001,65.53040150000015,66.01419560000022,66.01884509999991,66.03697150000016,67.04736309999998,,,,,67.04755690000002,67.06268390000014,67.2630908000001,67.24705029999996,66.03697150000016,,,,,,,,1,1,1.0078592999998364,None,,,,,,,,871,21,M,R,2026-02-23_12h01.31.814,VisualSearch_2526_3,,2025.2.4,2026-02-23 12h01.32.029311 +0100,
vertical.xlsx,The target is tilted.,135,7,7,0,1,1,1,1,1,1,1,1,0,0,0,0,0,7,8,135,space,6.746010599999863,None,1,1,0.8840288000001237,None,space,1.9180163999999422,None,0,0,0,1,,,,,0,7,7,1,67.2630908000001,,,,,,,,,,,,,,,,,,,,,67.24777660000018,67.2630908000001,67.74685469999986,67.75144649999993,67.76689729999998,68.66263870000012,,,,,68.66272639999988,68.67833180000025,68.87902919999988,68.86278240000001,67.76689729999998,,,,,,,,1,1,0.8840288000001237,None,,,,,,,,871,21,M,R,2026-02-23_12h01.31.814,VisualSearch_2526_3,,2025.2.4,2026-02-23 12h01.32.029311 +0100,
vertical.xlsx,The target is tilted.,135,8,0,1,1,0,0,0,0,0,0,0,0,0,0,0,0,0,1,135,space,6.746010599999863,None,1,1,0.5864620999996077,None,space,1.9180163999999422,None,0,0,0,1,,,,,1,0,8,3,68.87902919999988,,,,,,,,,,,,,,,,,,,,,68.86359230000016,68.87902919999988,69.36268550000023,69.36733690000028,69.38406609999993,69.97966240000005,,,,,69.97985670000025,69.99470539999993,70.19470649999994,70.1789048999999,69.38406609999993,,,,,,,,1,1,0.5864620999996077,None,,,,,,,,871,21,M,R,2026-02-23_12h01.31.814,VisualSearch_2526_3,,2025.2.4,2026-02-23 12h01.32.029311 +0100,
vertical.xlsx,The target is tilted.,135,9,1,1,1,1,1,1,1,1,1,1,1,1,1,1,0,11,12,135,space,6.746010599999863,None,1,1,1.3397178999998687,None,space,1.9180163999999422,None,0,0,0,1,,,,,1,1,9,0,70.19470649999994,,,,,,,,,,,,,,,,,,,,,70.17962919999991,70.19470649999994,70.67904180000005,70.68445920000022,70.70250440000018,72.04560110000011,,,,,72.04581310000003,72.06043030000001,72.26081410000006,72.24478709999994,70.70250440000018,,,,,,,,1,1,1.3397178999998687,None,,,,,,,,871,21,M,R,2026-02-23_12h01.31.814,VisualSearch_2526_3,,2025.2.4,2026-02-23 12h01.32.029311 +0100,
vertical.xlsx,The target is tilted.,135,10,2,1,0,1,1,1,1,1,1,1,1,1,1,1,1,11,12,135,space,6.746010599999863,None,0,1,1.5321908000000803,None,space,1.9180163999999422,None,0,0,0,1,,,,,1,2,10,4,72.26081410000006,,,,,,,,,,,,,,,,,,,,,72.24548989999994,72.26081410000006,72.74402850000024,72.74814190000006,72.76065659999995,74.29429030000028,,,,,74.29448600000023,74.30948260000014,74.50956260000021,74.49371740000015,72.76065659999995,,,,,,,,0,1,1.5321908000000803,None,,,,,,,,871,21,M,R,2026-02-23_12h01.31.814,VisualSearch_2526_3,,2025.2.4,2026-02-23 12h01.32.029311 +0100,
vertical.xlsx,The target is tilted.,135,11,3,1,0,1,1,1,0,0,0,0,0,0,0,0,1,3,4,135,space,6.746010599999863,None,0,1,0.585519899999781,None,space,1.9180163999999422,None,0,0,0,1,,,,,1,3,11,6,74.50956260000021,,,,,,,,,,,,,,,,,,,,,74.49443380000002,74.50956260000021,74.99309810000022,74.99580030000016,75.00937890000023,75.60975400000007,,,,,75.60996079999995,75.62543450000021,75.82592049999994,75.80938860000015,75.00937890000023,,,,,,,,0,1,0.585519899999781,None,,,,,,,,871,21,M,R,2026-02-23_12h01.31.814,VisualSearch_2526_3,,2025.2.4,2026-02-23 12h01.32.029311 +0100,
vertical.xlsx,The target is tilted.,135,12,4,1,1,1,1,1,1,1,1,1,0,0,0,0,0,7,8,135,space,6.746010599999863,None,1,1,0.5908835000000181,None,space,1.9180163999999422,None,0,0,0,1,,,,,1,4,12,1,75.82592049999994,,,,,,,,,,,,,,,,,,,,,75.81012689999989,75.82592049999994,76.3095145000002,76.31405900000027,76.32944730000008,76.92611500000021,,,,,76.92631239999992,76.94150690000015,77.14196189999984,77.12546780000002,76.32944730000008,,,,,,,,1,1,0.5908835000000181,None,,,,,,,,871,21,M,R,2026-02-23_12h01.31.814,VisualSearch_2526_3,,2025.2.4,2026-02-23 12h01.32.029311 +0100,
vertical.xlsx,The target is tilted.,135,13,5,1,1,1,1,1,0,0,0,0,0,0,0,0,0,3,4,135,space,6.746010599999863,None,1,1,0.7278120000000854,None,space,1.9180163999999422,None,0,0,0,1,,,,,1,5,13,2,77.14196189999984,,,,,,,,,,,,,,,,,,,,,77.12625969999999,77.14196189999984,77.62558100000024,77.63017900000023,77.64691630000016,78.39169949999996,,,,,78.39187579999998,78.4074642999999,78.6075378999999,78.59149530000013,77.64691630000016,,,,,,,,1,1,0.7278120000000854,None,,,,,,,,871,21,M,R,2026-02-23_12h01.31.814,VisualSearch_2526_3,,2025.2.4,2026-02-23 12h01.32.029311 +0100,
vertical.xlsx,The target is tilted.,135,14,6,1,0,1,1,1,1,1,1,1,0,0,0,0,1,7,8,135,space,6.746010599999863,None,0,1,1.4949200000000928,None,space,1.9180163999999422,None,0,0,0,1,,,,,1,6,14,5,78.6075378999999,,,,,,,,,,,,,,,,,,,,,78.59221600000001,78.6075378999999,79.0915829999999,79.09623150000016,79.11430530000007,80.62425970000004,,,,,80.6244657000002,80.63976749999983,80.84001320000016,80.82422410000027,79.11430530000007,,,,,,,,0,1,1.4949200000000928,None,,,,,,,,871,21,M,R,2026-02-23_12h01.31.814,VisualSearch_2526_3,,2025.2.4,2026-02-23 12h01.32.029311 +0100,
vertical.xlsx,The target is tilted.,135,15,7,1,0,0,0,0,0,0,0,0,0,0,0,0,1,1,1,135,space,6.746010599999863,None,0,1,0.6028919000000315,None,space,1.9180163999999422,None,0,0,0,1,,,,,1,7,15,7,80.84001320000016,,,,,,,,,,,,,,,,,,,,,80.8249509000002,80.84001320000016,81.3235665000002,81.32814550000012,81.3444583999999,81.95739779999985,,,,,81.95757670000012,81.97254710000016,82.17287889999989,82.15661120000004,81.3444583999999,,,,,,,,0,1,0.6028919000000315,None,,,,,,,,871,21,M,R,2026-02-23_12h01.31.814,VisualSearch_2526_3,,2025.2.4,2026-02-23 12h01.32.029311 +0100,
vertical.xlsx,The target is tilted.,135,16,0,2,0,1,1,1,0,0,0,0,0,0,0,0,1,3,4,135,space,6.746010599999863,None,0,1,0.644020300000193,None,space,1.9180163999999422,None,0,0,0,1,,,,,2,0,16,6,82.17287889999989,,,,,,,,,,,,,,,,,,,,,82.15731529999994,82.17287889999989,82.65671250000014,82.66130789999988,82.67270430000008,83.3236307000002,,,,,83.32382540000026,83.33856079999987,83.53919919999998,83.52282409999998,82.67270430000008,,,,,,,,0,1,0.644020300000193,None,,,,,,,,871,21,M,R,2026-02-23_12h01.31.814,VisualSearch_2526_3,,2025.2.4,2026-02-23 12h01.32.029311 +0100,
vertical.xlsx,The target is tilted.,135,17,1,2,0,0,0,0,0,0,0,0,0,0,0,0,1,1,1,135,space,6.746010599999863,None,0,1,0.4965319999996609,None,space,1.9180163999999422,None,0,0,0,1,,,,,2,1,17,7,83.53919919999998,,,,,,,,,,,,,,,,,,,,,83.52356770000006,83.53919919999998,84.0227288000001,84.02728990000014,84.0432679999999,84.55585329999985,,,,,84.55605139999989,84.57135509999989,84.77178940000022,84.75568109999995,84.0432679999999,,,,,,,,0,1,0.4965319999996609,None,,,,,,,,871,21,M,R,2026-02-23_12h01.31.814,VisualSearch_2526_3,,2025.2.4,2026-02-23 12h01.32.029311 +0100,
vertical.xlsx,The target is tilted.,135,18,2,2,1,1,1,1,1,1,1,1,1,1,1,1,0,11,12,135,space,6.746010599999863,None,1,1,0.8157301999999618,None,space,1.9180163999999422,None,0,0,0,1,,,,,2,2,18,0,84.77178940000022,,,,,,,,,,,,,,,,,,,,,84.75638500000014,84.77178940000022,85.25570000000016,85.2609523000001,85.27800410000009,86.10571089999985,,,,,86.10596829999986,86.12058119999983,86.32032370000024,86.30413820000012,85.27800410000009,,,,,,,,1,1,0.8157301999999618,None,,,,,,,,871,21,M,R,2026-02-23_12h01.31.814,VisualSearch_2526_3,,2025.2.4,2026-02-23 12h01.32.029311 +0100,
vertical.xlsx,The target is tilted.,135,19,3,2,1,1,1,1,1,1,1,1,0,0,0,0,0,7,8,135,space,6.746010599999863,None,0,0,1.3736484999999448,None,space,1.9180163999999422,None,0,0,0,1,,,,,2,3,19,1,86.32032370000024,,,,,,,,,,,,,,,,,,,,,86.3046459000002,86.32032370000024,86.8048662000001,86.80960180000011,86.82708820000016,88.20361170000024,,,,,88.20370959999991,88.21956439999985,88.4199609000002,88.40399090000028,86.82708820000016,,,,,,,,0,0,1.3736484999999448,None,,,,,,,,871,21,M,R,2026-02-23_12h01.31.814,VisualSearch_2526_3,,2025.2.4,2026-02-23 12h01.32.029311 +0100,
vertical.xlsx,The target is tilted.,135,20,4,2,1,0,0,0,0,0,0,0,0,0,0,0,0,0,1,135,space,6.746010599999863,None,1,1,0.7479766999999811,None,space,1.9180163999999422,None,0,0,0,1,,,,,2,4,20,3,88.4199609000002,,,,,,,,,,,,,,,,,,,,,88.4048072999999,88.4199609000002,88.90353480000022,88.9083541,88.92478200000005,89.6862642000001,,,,,89.68639320000011,89.70233890000009,,89.88652140000022,88.92478200000005,,,,,,,,1,1,0.7479766999999811,None,,,,,,,,871,21,M,R,2026-02-23_12h01.31.814,VisualSearch_2526_3,,2025.2.4,2026-02-23 12h01.32.029311 +0100,
vertical.xlsx,The target is tilted.,135,21,5,2,0,1,1,1,1,1,1,1,1,1,1,1,1,11,12,135,space,6.746010599999863,None,0,1,2.083013200000096,None,space,1.9180163999999422,None,0,0,0,1,,,,,2,5,21,4,89.90277790000027,,,,,,,,,,,,,,,,,,,,,89.88726429999997,89.90277790000027,90.38654369999995,90.39107319999994,90.40668370000003,92.50138900000002,,,,,92.50147689999994,92.5181047000001,,92.70185660000016,90.40668370000003,,,,,,,,0,1,2.083013200000096,None,,,,,,,,871,21,M,R,2026-02-23_12h01.31.814,VisualSearch_2526_3,,2025.2.4,2026-02-23 12h01.32.029311 +0100,
vertical.xlsx,The target is tilted.,135,22,6,2,0,1,1,1,1,1,1,1,0,0,0,0,1,7,8,135,space,6.746010599999863,None,0,1,1.3179968999997982,None,space,1.9180163999999422,None,0,0,0,1,,,,,2,6,22,5,92.71825220000028,,,,,,,,,,,,,,,,,,,,,92.7026237,92.71825220000028,93.20161170000029,93.20624899999984,93.22282360000008,94.55142669999987,,,,,94.55160920000026,94.56688350000013,94.76732679999986,94.75108399999999,,,,,,,,,0,1,1.3179968999997982,None,,,,,,,,871,21,M,R,2026-02-23_12h01.31.814,VisualSearch_2526_3,,2025.2.4,2026-02-23 12h01.32.029311 +0100,
vertical.xlsx,The target is tilted.,135,23,7,2,1,1,1,1,0,0,0,0,0,0,0,0,0,3,4,135,space,6.746010599999863,None,1,1,0.579435999999987,None,space,1.9180163999999422,None,0,0,0,1,,,,,2,7,23,2,94.76732679999986,,,,,,,,,,,,,,,,,,,,,94.75182210000003,94.76732679999986,95.25081219999993,95.25535679999984,95.2698048000002,95.85071479999988,,,,,95.8508925000001,95.86629399999993,96.06659260000015,96.05025920000026,95.2698048000002,,,,,,,,1,1,0.579435999999987,None,,,,,,,,871,21,M,R,2026-02-23_12h01.31.814,VisualSearch_2526_3,,2025.2.4,2026-02-23 12h01.32.029311 +0100,
vertical.xlsx,The target is tilted.,135,24,0,3,0,1,1,1,1,1,1,1,1,1,1,1,1,11,12,135,space,6.746010599999863,None,0,1,1.5160934000000452,None,space,1.9180163999999422,None,0,0,0,1,,,,,3,0,24,4,96.06659260000015,,,,,,,,,,,,,,,,,,,,,96.05096090000006,96.06659260000015,96.55022880000024,96.55510439999989,96.57196550000026,98.10019929999999,,,,,98.10039689999985,98.11525029999984,98.31542620000027,98.29918499999985,96.57196550000026,,,,,,,,0,1,1.5160934000000452,None,,,,,,,,871,21,M,R,2026-02-23_12h01.31.814,VisualSearch_2526_3,,2025.2.4,2026-02-23 12h01.32.029311 +0100,
vertical.xlsx,The target is tilted.,135,25,1,3,0,1,1,1,0,0,0,0,0,0,0,0,1,3,4,135,space,6.746010599999863,None,0,1,0.7118624000004274,None,space,1.9180163999999422,None,0,0,0,1,,,,,3,1,25,6,98.31542620000027,,,,,,,,,,,,,,,,,,,,,98.29992560000028,98.31542620000027,98.79894060000015,98.80362620000005,98.82048209999994,99.5482864999999,,,,,99.54837510000016,99.56488360000003,,99.74874640000007,98.82048209999994,,,,,,,,0,1,0.7118624000004274,None,,,,,,,,871,21,M,R,2026-02-23_12h01.31.814,VisualSearch_2526_3,,2025.2.4,2026-02-23 12h01.32.029311 +0100,
vertical.xlsx,The target is tilted.,135,26,2,3,1,1,1,1,1,1,1,1,0,0,0,0,0,7,8,135,space,6.746010599999863,None,1,1,0.6292755999998008,None,space,1.9180163999999422,None,0,0,0,1,,,,,3,2,26,1,99.7650579000001,,,,,,,,,,,,,,,,,,,,,99.7494984,99.7650579000001,100.24849810000023,100.25312489999988,100.2685107000002,100.91486110000005,,,,,100.91506590000017,100.9306173,101.13105159999986,101.11483309999994,,,,,,,,,1,1,0.6292755999998008,None,,,,,,,,871,21,M,R,2026-02-23_12h01.31.814,VisualSearch_2526_3,,2025.2.4,2026-02-23 12h01.32.029311 +0100,
vertical.xlsx,The target is tilted.,135,27,3,3,0,0,0,0,0,0,0,0,0,0,0,0,1,1,1,135,space,6.746010599999863,None,0,1,0.4824370999999701,None,space,1.9180163999999422,None,0,0,0,1,,,,,3,3,27,7,101.13105159999986,,,,,,,,,,,,,,,,,,,,,101.11559320000015,101.13105159999986,101.61493240000027,101.6200773999999,101.63786470000014,102.13142220000009,,,,,102.13159760000008,102.14681789999986,102.34725870000011,102.33065979999992,101.63786470000014,,,,,,,,0,1,0.4824370999999701,None,,,,,,,,871,21,M,R,2026-02-23_12h01.31.814,VisualSearch_2526_3,,2025.2.4,2026-02-23 12h01.32.029311 +0100,
vertical.xlsx,The target is tilted.,135,28,4,3,1,1,1,1,0,0,0,0,0,0,0,0,0,3,4,135,space,6.746010599999863,None,1,1,0.7118216999997458,None,space,1.9180163999999422,None,0,0,0,1,,,,,3,4,28,2,102.34725870000011,,,,,,,,,,,,,,,,,,,,,102.33136169999989,102.34725870000011,102.8307036000001,102.83541360000027,102.85265740000023,103.580332,,,,,103.58052510000016,103.59603849999985,103.79658430000018,103.7801359,102.85265740000023,,,,,,,,1,1,0.7118216999997458,None,,,,,,,,871,21,M,R,2026-02-23_12h01.31.814,VisualSearch_2526_3,,2025.2.4,2026-02-23 12h01.32.029311 +0100,
vertical.xlsx,The target is tilted.,135,29,5,3,1,0,0,0,0,0,0,0,0,0,0,0,0,0,1,135,space,6.746010599999863,None,1,1,1.2964122000003044,None,space,1.9180163999999422,None,0,0,0,1,,,,,3,5,29,3,103.79658430000018,,,,,,,,,,,,,,,,,,,,,103.78084579999995,103.79658430000018,104.28004190000001,104.28468190000012,104.30125780000026,105.6128933,,,,,105.61308860000008,105.62851150000006,105.8286521,105.81270769999992,104.30125780000026,,,,,,,,1,1,1.2964122000003044,None,,,,,,,,871,21,M,R,2026-02-23_12h01.31.814,VisualSearch_2526_3,,2025.2.4,2026-02-23 12h01.32.029311 +0100,
vertical.xlsx,The target is tilted.,135,30,6,3,0,1,1,1,1,1,1,1,0,0,0,0,1,7,8,135,space,6.746010599999863,None,0,1,1.5893124000003809,None,space,1.9180163999999422,None,0,0,0,1,,,,,3,6,30,5,105.8286521,,,,,,,,,,,,,,,,,,,,,105.81344220000028,105.8286521,106.31216350000022,106.3169713000002,106.3329346999999,107.92843040000025,,,,,107.9285519,107.94384200000013,108.14459930000021,108.12848220000024,106.3329346999999,,,,,,,,0,1,1.5893124000003809,None,,,,,,,,871,21,M,R,2026-02-23_12h01.31.814,VisualSearch_2526_3,,2025.2.4,2026-02-23 12h01.32.029311 +0100,
vertical.xlsx,The target is tilted.,135,31,7,3,1,1,1,1,1,1,1,1,1,1,1,1,0,11,12,135,space,6.746010599999863,None,1,1,0.6223195000002306,None,space,1.9180163999999422,None,0,0,0,1,,,,,3,7,31,0,108.14459930000021,,,,,,,,,,,,,,,,,,,,,108.12918130000025,108.14459930000021,108.6282670999999,108.63336019999997,108.64842420000014,109.27827250000018,,,,,109.27846910000017,109.29344970000011,109.49352380000028,109.47748850000016,108.64842420000014,,,,,,,,1,1,0.6223195000002306,None,,,,,,,,871,21,M,R,2026-02-23_12h01.31.814,VisualSearch_2526_3,,2025.2.4,2026-02-23 12h01.32.029311 +0100,
vertical.xlsx,The target is tilted.,135,32,0,4,0,0,0,0,0,0,0,0,0,0,0,0,1,1,1,135,space,6.746010599999863,None,0,1,0.7813096999998379,None,space,1.9180163999999422,None,0,0,0,1,,,,,4,0,32,7,109.49352380000028,,,,,,,,,,,,,,,,,,,,,109.47826480000003,109.49352380000028,109.97750709999991,109.98205409999991,109.99941470000022,110.79315899999983,,,,,110.79323879999993,110.80923130000019,,110.9933802999999,109.99941470000022,,,,,,,,0,1,0.7813096999998379,None,,,,,,,,871,21,M,R,2026-02-23_12h01.31.814,VisualSearch_2526_3,,2025.2.4,2026-02-23 12h01.32.029311 +0100,
vertical.xlsx,The target is tilted.,135,33,1,4,1,0,0,0,0,0,0,0,0,0,0,0,0,0,1,135,space,6.746010599999863,None,1,1,0.5221452000000681,None,space,1.9180163999999422,None,0,0,0,1,,,,,4,1,33,3,111.00948160000007,,,,,,,,,,,,,,,,,,,,,110.9941087000002,111.00948160000007,111.49344719999999,111.49889200000007,111.51561290000018,112.04349700000012,,,,,112.04369440000028,112.05900629999996,112.25938129999986,112.24342030000025,,,,,,,,,1,1,0.5221452000000681,None,,,,,,,,871,21,M,R,2026-02-23_12h01.31.814,VisualSearch_2526_3,,2025.2.4,2026-02-23 12h01.32.029311 +0100,
vertical.xlsx,The target is tilted.,135,34,2,4,0,1,1,1,1,1,1,1,1,1,1,1,1,11,12,135,space,6.746010599999863,None,0,1,1.6308853999998973,None,space,1.9180163999999422,None,0,0,0,1,,,,,4,2,34,4,112.25938129999986,,,,,,,,,,,,,,,,,,,,,112.24429910000026,112.25938129999986,112.74266399999988,112.74790470000016,112.7656065000001,114.40891050000027,,,,,114.40910470000017,114.42448830000012,114.62492410000004,114.60900750000019,112.7656065000001,,,,,,,,0,1,1.6308853999998973,None,,,,,,,,871,21,M,R,2026-02-23_12h01.31.814,VisualSearch_2526_3,,2025.2.4,2026-02-23 12h01.32.029311 +0100,
vertical.xlsx,The target is tilted.,135,35,3,4,0,1,1,1,0,0,0,0,0,0,0,0,1,3,4,135,space,6.746010599999863,None,0,1,0.5474272000001292,None,space,1.9180163999999422,None,0,0,0,1,,,,,4,3,35,6,114.62492410000004,,,,,,,,,,,,,,,,,,,,,114.60979700000007,114.62492410000004,115.1086851,115.11330940000016,115.12989379999999,115.69125299999996,,,,,115.69140359999983,115.70718790000001,115.90768800000023,115.89120180000009,115.12989379999999,,,,,,,,0,1,0.5474272000001292,None,,,,,,,,871,21,M,R,2026-02-23_12h01.31.814,VisualSearch_2526_3,,2025.2.4,2026-02-23 12h01.32.029311 +0100,
vertical.xlsx,The target is tilted.,135,36,4,4,1,1,1,1,1,1,1,1,1,1,1,1,0,11,12,135,space,6.746010599999863,None,1,1,0.9613798999998835,None,space,1.9180163999999422,None,0,0,0,1,,,,,4,4,36,0,115.90768800000023,,,,,,,,,,,,,,,,,,,,,115.89194120000002,115.90768800000023,116.39131390000011,116.39587230000006,116.41199189999998,117.37492999999995,,,,,117.3751416,117.38979389999986,117.5900314999999,117.57418820000021,116.41199189999998,,,,,,,,1,1,0.9613798999998835,None,,,,,,,,871,21,M,R,2026-02-23_12h01.31.814,VisualSearch_2526_3,,2025.2.4,2026-02-23 12h01.32.029311 +0100,
vertical.xlsx,The target is tilted.,135,37,5,4,1,1,1,1,1,1,1,1,0,0,0,0,0,7,8,135,space,6.746010599999863,None,1,1,0.5396138999999494,None,space,1.9180163999999422,None,0,0,0,1,,,,,4,5,37,1,117.5900314999999,,,,,,,,,,,,,,,,,,,,,117.57488420000027,117.5900314999999,118.07386630000019,118.07844530000011,118.09361170000011,118.64020320000009,,,,,118.64034970000012,118.65584100000024,118.85641239999995,118.8401517000002,118.09361170000011,,,,,,,,1,1,0.5396138999999494,None,,,,,,,,871,21,M,R,2026-02-23_12h01.31.814,VisualSearch_2526_3,,2025.2.4,2026-02-23 12h01.32.029311 +0100,
vertical.xlsx,The target is tilted.,135,38,6,4,1,1,1,1,0,0,0,0,0,0,0,0,0,3,4,135,space,6.746010599999863,None,1,1,0.5533034000000043,None,space,1.9180163999999422,None,0,0,0,1,,,,,4,6,38,2,118.85641239999995,,,,,,,,,,,,,,,,,,,,,118.84088969999993,118.85641239999995,119.33987070000012,119.34440350000023,119.36093879999999,119.92432129999997,,,,,119.92451560000018,119.93871209999998,120.13880860000017,120.12301290000005,119.36093879999999,,,,,,,,1,1,0.5533034000000043,None,,,,,,,,871,21,M,R,2026-02-23_12h01.31.814,VisualSearch_2526_3,,2025.2.4,2026-02-23 12h01.32.029311 +0100,
vertical.xlsx,The target is tilted.,135,39,7,4,0,1,1,1,1,1,1,1,0,0,0,0,1,7,8,135,space,6.746010599999863,None,0,1,1.46529369999962,None,space,1.9180163999999422,None,0,0,0,1,,,,,4,7,39,5,120.13880860000017,,,,,,,,,,,,,,,,,,,,,120.12371059999987,120.13880860000017,120.62280450000026,120.6273513000001,120.64292599999999,122.12180330000001,,,,,122.1219242000002,122.13769980000006,122.33815230000027,122.32198310000012,120.64292599999999,,,,,,,,0,1,1.46529369999962,None,,,,,,,,871,21,M,R,2026-02-23_12h01.31.814,VisualSearch_2526_3,,2025.2.4,2026-02-23 12h01.32.029311 +0100,
vertical.xlsx,The target is tilted.,135,40,0,5,0,0,0,0,0,0,0,0,0,0,0,0,1,1,1,135,space,6.746010599999863,None,0,1,0.6762178000003587,None,space,1.9180163999999422,None,0,0,0,1,,,,,5,0,40,7,122.33815230000027,,,,,,,,,,,,,,,,,,,,,122.32267769999999,122.33815230000027,122.82137569999986,122.82599909999999,122.83773269999983,123.52200170000015,,,,,123.52220230000012,123.5370167000001,123.73753369999986,123.72128090000024,122.83773269999983,,,,,,,,0,1,0.6762178000003587,None,,,,,,,,871,21,M,R,2026-02-23_12h01.31.814,VisualSearch_2526_3,,2025.2.4,2026-02-23 12h01.32.029311 +0100,
vertical.xlsx,The target is tilted.,135,41,1,5,0,1,1,1,1,1,1,1,0,0,0,0,1,7,8,135,space,6.746010599999863,None,1,0,0.736186699999962,None,space,1.9180163999999422,None,0,0,0,1,,,,,5,1,41,5,123.73753369999986,,,,,,,,,,,,,,,,,,,,,123.72202870000001,123.73753369999986,124.22095160000026,124.22550450000017,124.24168740000005,124.98834280000028,,,,,124.98855589999994,125.00310480000007,125.20345170000019,125.1874487,124.24168740000005,,,,,,,,1,0,0.736186699999962,None,,,,,,,,871,21,M,R,2026-02-23_12h01.31.814,VisualSearch_2526_3,,2025.2.4,2026-02-23 12h01.32.029311 +0100,
vertical.xlsx,The target is tilted.,135,42,2,5,1,1,1,1,1,1,1,1,0,0,0,0,0,7,8,135,space,6.746010599999863,None,1,1,1.5219496999998228,None,space,1.9180163999999422,None,0,0,0,1,,,,,5,2,42,1,125.20345170000019,,,,,,,,,,,,,,,,,,,,,125.18822490000002,125.20345170000019,125.68706479999992,125.6917211,125.70912260000023,127.23698779999995,,,,,127.23718370000006,127.2520112000002,127.45249150000018,127.43641849999995,125.70912260000023,,,,,,,,1,1,1.5219496999998228,None,,,,,,,,871,21,M,R,2026-02-23_12h01.31.814,VisualSearch_2526_3,,2025.2.4,2026-02-23 12h01.32.029311 +0100,
vertical.xlsx,The target is tilted.,135,43,3,5,0,1,1,1,0,0,0,0,0,0,0,0,1,3,4,135,space,6.746010599999863,None,0,1,0.5962847999999212,None,space,1.9180163999999422,None,0,0,0,1,,,,,5,3,43,6,127.45249150000018,,,,,,,,,,,,,,,,,,,,,127.43712099999993,127.45249150000018,127.93571109999993,127.94031610000002,127.95805509999991,128.56868710000026,,,,,128.56882470000028,128.58468410000023,128.78490640000018,128.7691506000001,127.95805509999991,,,,,,,,0,1,0.5962847999999212,None,,,,,,,,871,21,M,R,2026-02-23_12h01.31.814,VisualSearch_2526_3,,2025.2.4,2026-02-23 12h01.32.029311 +0100,
vertical.xlsx,The target is tilted.,135,44,4,5,1,0,0,0,0,0,0,0,0,0,0,0,0,0,1,135,space,6.746010599999863,None,1,1,0.48410710000007384,None,space,1.9180163999999422,None,0,0,0,1,,,,,5,4,44,3,128.78490640000018,,,,,,,,,,,,,,,,,,,,,128.76985090000016,128.78490640000018,129.26891579999983,129.27343729999984,129.2892821999999,129.78526220000003,,,,,129.785437,129.80078129999993,130.0012329000001,129.98459420000017,129.2892821999999,,,,,,,,1,1,0.48410710000007384,None,,,,,,,,871,21,M,R,2026-02-23_12h01.31.814,VisualSearch_2526_3,,2025.2.4,2026-02-23 12h01.32.029311 +0100,
vertical.xlsx,The target is tilted.,135,45,5,5,1,1,1,1,1,1,1,1,1,1,1,1,0,11,12,135,space,6.746010599999863,None,1,1,1.2740057000000888,None,space,1.9180163999999422,None,0,0,0,1,,,,,5,5,45,0,130.0012329000001,,,,,,,,,,,,,,,,,,,,,129.98538599999983,130.0012329000001,130.48499709999987,130.48961280000003,130.50604139999996,131.78453170000012,,,,,131.7847440999999,131.7999794000002,132.00041779999992,131.9843363,130.50604139999996,,,,,,,,1,1,1.2740057000000888,None,,,,,,,,871,21,M,R,2026-02-23_12h01.31.814,VisualSearch_2526_3,,2025.2.4,2026-02-23 12h01.32.029311 +0100,
vertical.xlsx,The target is tilted.,135,46,6,5,1,1,1,1,0,0,0,0,0,0,0,0,0,3,4,135,space,6.746010599999863,None,1,1,0.7574419000002308,None,space,1.9180163999999422,None,0,0,0,1,,,,,5,6,46,2,132.00041779999992,,,,,,,,,,,,,,,,,,,,,131.98519960000021,132.00041779999992,132.48378349999984,132.48834250000027,132.50390180000022,133.26768219999985,,,,,133.26789910000025,133.28264470000022,133.48308020000013,133.46699220000028,132.50390180000022,,,,,,,,1,1,0.7574419000002308,None,,,,,,,,871,21,M,R,2026-02-23_12h01.31.814,VisualSearch_2526_3,,2025.2.4,2026-02-23 12h01.32.029311 +0100,
vertical.xlsx,The target is tilted.,135,47,7,5,0,1,1,1,1,1,1,1,1,1,1,1,1,11,12,135,space,6.746010599999863,None,0,1,2.358694000000014,None,space,1.9180163999999422,None,0,0,0,1,,,,,5,7,47,4,133.48308020000013,,,,,,,,,,,,,,,,,,,,,133.46768939999993,133.48308020000013,133.96679390000008,133.97148770000013,133.98233699999992,136.34955949999994,,,,,136.3497579,136.36458089999996,136.56494109999994,136.5485695000002,133.98233699999992,,,,,,,,0,1,2.358694000000014,None,,,,,,,,871,21,M,R,2026-02-23_12h01.31.814,VisualSearch_2526_3,,2025.2.4,2026-02-23 12h01.32.029311 +0100,
vertical.xlsx,The target is tilted.,135,48,0,6,1,1,1,1,1,1,1,1,1,1,1,1,0,11,12,135,space,6.746010599999863,None,1,1,0.5890964000000167,None,space,1.9180163999999422,None,0,0,0,1,,,,,6,0,48,0,136.56494109999994,,,,,,,,,,,,,,,,,,,,,136.54926580000028,136.56494109999994,137.04871790000016,137.05330690000028,137.07005449999997,137.66554270000006,,,,,137.66574170000013,137.68058180000025,137.88103640000008,137.86500539999997,137.07005449999997,,,,,,,,1,1,0.5890964000000167,None,,,,,,,,871,21,M,R,2026-02-23_12h01.31.814,VisualSearch_2526_3,,2025.2.4,2026-02-23 12h01.32.029311 +0100,
vertical.xlsx,The target is tilted.,135,49,1,6,1,1,1,1,1,1,1,1,0,0,0,0,0,7,8,135,space,6.746010599999863,None,1,1,1.2050998999998228,None,space,1.9180163999999422,None,0,0,0,1,,,,,6,1,49,1,137.88103640000008,,,,,,,,,,,,,,,,,,,,,137.86580510000022,137.88103640000008,138.36480200000005,138.36931000000004,138.38576740000008,139.5980497999999,,,,,139.5982444000001,139.6130449000002,139.81350789999988,139.7970389000002,138.38576740000008,,,,,,,,1,1,1.2050998999998228,None,,,,,,,,871,21,M,R,2026-02-23_12h01.31.814,VisualSearch_2526_3,,2025.2.4,2026-02-23 12h01.32.029311 +0100,
vertical.xlsx,The target is tilted.,135,50,2,6,1,1,1,1,0,0,0,0,0,0,0,0,0,3,4,135,space,6.746010599999863,None,0,0,0.7060811000001195,None,space,1.9180163999999422,None,0,0,0,1,,,,,6,2,50,2,139.81350789999988,,,,,,,,,,,,,,,,,,,,,139.7977651000001,139.81350789999988,140.29725540000027,140.30175599999984,140.31857760000003,141.03046930000028,,,,,141.0306684000002,141.04582299999993,141.24623770000017,141.2297650999999,140.31857760000003,,,,,,,,0,0,0.7060811000001195,None,,,,,,,,871,21,M,R,2026-02-23_12h01.31.814,VisualSearch_2526_3,,2025.2.4,2026-02-23 12h01.32.029311 +0100,
vertical.xlsx,The target is tilted.,135,51,3,6,0,1,1,1,1,1,1,1,0,0,0,0,1,7,8,135,space,6.746010599999863,None,0,1,2.9671588000001066,None,space,1.9180163999999422,None,0,0,0,1,,,,,6,3,51,5,141.24623770000017,,,,,,,,,,,,,,,,,,,,,141.2304736000001,141.24623770000017,141.72957910000014,141.73420720000013,141.75055509999993,144.72915030000013,,,,,144.72937309999998,144.7440547000001,144.94455240000025,144.92848260000028,141.75055509999993,,,,,,,,0,1,2.9671588000001066,None,,,,,,,,871,21,M,R,2026-02-23_12h01.31.814,VisualSearch_2526_3,,2025.2.4,2026-02-23 12h01.32.029311 +0100,
vertical.xlsx,The target is tilted.,135,52,4,6,0,1,1,1,0,0,0,0,0,0,0,0,1,3,4,135,space,6.746010599999863,None,0,1,0.8538213000001633,None,space,1.9180163999999422,None,0,0,0,1,,,,,6,4,52,6,144.94455240000025,,,,,,,,,,,,,,,,,,,,,144.9292300000002,144.94455240000025,145.42814640000006,145.43268990000024,145.4496223000001,146.31124959999988,,,,,146.3114426000002,146.32653149999987,146.52720640000007,146.51094839999996,145.4496223000001,,,,,,,,0,1,0.8538213000001633,None,,,,,,,,871,21,M,R,2026-02-23_12h01.31.814,VisualSearch_2526_3,,2025.2.4,2026-02-23 12h01.32.029311 +0100,
vertical.xlsx,The target is tilted.,135,53,5,6,0,1,1,1,1,1,1,1,1,1,1,1,1,11,12,135,space,6.746010599999863,None,0,1,1.7238860999996177,None,space,1.9180163999999422,None,0,0,0,1,,,,,6,5,53,4,146.52720640000007,,,,,,,,,,,,,,,,,,,,,146.51170790000015,146.52720640000007,147.01047199999994,147.01508920000015,147.0332284000001,148.7603663,,,,,148.76056530000005,148.77556430000004,148.97573740000007,148.95988350000016,147.0332284000001,,,,,,,,0,1,1.7238860999996177,None,,,,,,,,871,21,M,R,2026-02-23_12h01.31.814,VisualSearch_2526_3,,2025.2.4,2026-02-23 12h01.32.029311 +0100,
vertical.xlsx,The target is tilted.,135,54,6,6,1,0,0,0,0,0,0,0,0,0,0,0,0,0,1,135,space,6.746010599999863,None,1,1,0.48722559999987425,None,space,1.9180163999999422,None,0,0,0,1,,,,,6,6,54,3,148.97573740000007,,,,,,,,,,,,,,,,,,,,,148.96058129999983,148.97573740000007,149.4597288,149.4642586,149.4807593999999,149.97583020000002,,,,,149.97593180000013,149.99149089999992,150.19181329999992,150.17563629999995,149.4807593999999,,,,,,,,1,1,0.48722559999987425,None,,,,,,,,871,21,M,R,2026-02-23_12h01.31.814,VisualSearch_2526_3,,2025.2.4,2026-02-23 12h01.32.029311 +0100,
vertical.xlsx,The target is tilted.,135,55,7,6,0,0,0,0,0,0,0,0,0,0,0,0,1,1,1,135,space,6.746010599999863,None,0,1,0.5090847999999824,None,space,1.9180163999999422,None,0,0,0,1,,,,,6,7,55,7,150.19181329999992,,,,,,,,,,,,,,,,,,,,,150.1763589000002,150.19181329999992,150.67583950000017,150.6804735999999,150.6978368,151.20952380000017,,,,,151.2097506,151.22449490000008,151.4249316999999,151.40876630000002,150.6978368,,,,,,,,0,1,0.5090847999999824,None,,,,,,,,871,21,M,R,2026-02-23_12h01.31.814,VisualSearch_2526_3,,2025.2.4,2026-02-23 12h01.32.029311 +0100,
vertical.xlsx,The target is tilted.,135,56,0,7,1,0,0,0,0,0,0,0,0,0,0,0,0,0,1,135,space,6.746010599999863,None,1,1,0.6013637999999446,None,space,1.9180163999999422,None,0,0,0,1,,,,,7,0,56,3,151.4249316999999,,,,,,,,,,,,,,,,,,,,,151.40946759999997,151.4249316999999,151.9085113000001,151.91304320000017,151.92931769999996,152.54213690000006,,,,,152.54233280000017,152.55720699999983,152.7573894000002,152.74148509999986,151.92931769999996,,,,,,,,1,1,0.6013637999999446,None,,,,,,,,871,21,M,R,2026-02-23_12h01.31.814,VisualSearch_2526_3,,2025.2.4,2026-02-23 12h01.32.029311 +0100,
vertical.xlsx,The target is tilted.,135,57,1,7,0,1,1,1,1,1,1,1,1,1,1,1,1,11,12,135,space,6.746010599999863,None,0,1,2.181806499999766,None,space,1.9180163999999422,None,0,0,0,1,,,,,7,1,57,4,152.7573894000002,,,,,,,,,,,,,,,,,,,,,152.74218509999992,152.7573894000002,153.24081990000013,153.24537180000016,153.26236659999995,155.45676060000005,,,,,155.45697210000026,155.47251490000008,155.67266840000002,155.65682229999993,153.26236659999995,,,,,,,,0,1,2.181806499999766,None,,,,,,,,871,21,M,R,2026-02-23_12h01.31.814,VisualSearch_2526_3,,2025.2.4,2026-02-23 12h01.32.029311 +0100,
vertical.xlsx,The target is tilted.,135,58,2,7,1,1,1,1,1,1,1,1,0,0,0,0,0,7,8,135,space,6.746010599999863,None,1,1,0.6620156999997562,None,space,1.9180163999999422,None,0,0,0,1,,,,,7,2,58,1,155.67266840000002,,,,,,,,,,,,,,,,,,,,,155.65760850000015,155.67266840000002,156.1566843999999,156.16133390000005,156.1725449999999,156.84019669999998,,,,,156.84039630000007,156.85528849999992,157.05573730000015,157.03960629999983,156.1725449999999,,,,,,,,1,1,0.6620156999997562,None,,,,,,,,871,21,M,R,2026-02-23_12h01.31.814,VisualSearch_2526_3,,2025.2.4,2026-02-23 12h01.32.029311 +0100,
vertical.xlsx,The target is tilted.,135,59,3,7,0,1,1,1,0,0,0,0,0,0,0,0,1,3,4,135,space,6.746010599999863,None,0,1,0.638525099999697,None,space,1.9180163999999422,None,0,0,0,1,,,,,7,3,59,6,157.05573730000015,,,,,,,,,,,,,,,,,,,,,157.04030490000014,157.05573730000015,157.5389095999999,157.54346050000004,157.55777339999986,158.20619639999995,,,,,158.2064018000001,158.22134940000024,158.42171599999983,158.40566769999987,157.55777339999986,,,,,,,,0,1,0.638525099999697,None,,,,,,,,871,21,M,R,2026-02-23_12h01.31.814,VisualSearch_2526_3,,2025.2.4,2026-02-23 12h01.32.029311 +0100,
vertical.xlsx,The target is tilted.,135,60,4,7,1,1,1,1,1,1,1,1,1,1,1,1,0,11,12,135,space,6.746010599999863,None,1,1,0.7178257000000485,None,space,1.9180163999999422,None,0,0,0,1,,,,,7,4,60,0,158.42171599999983,,,,,,,,,,,,,,,,,,,,,158.40636670000004,158.42171599999983,158.90549120000014,158.9100827000002,158.92652950000002,159.65494350000017,,,,,159.65513550000014,159.6706334999999,159.87106459999995,159.8549223,158.92652950000002,,,,,,,,1,1,0.7178257000000485,None,,,,,,,,871,21,M,R,2026-02-23_12h01.31.814,VisualSearch_2526_3,,2025.2.4,2026-02-23 12h01.32.029311 +0100,
vertical.xlsx,The target is tilted.,135,61,5,7,0,0,0,0,0,0,0,0,0,0,0,0,1,1,1,135,space,6.746010599999863,None,0,1,0.5233157000002393,None,space,1.9180163999999422,None,0,0,0,1,,,,,7,5,61,7,159.87106459999995,,,,,,,,,,,,,,,,,,,,,159.85571849999997,159.87106459999995,160.35479579999992,160.3593796,160.3760983000002,160.90505889999986,,,,,160.9052498000001,160.91998060000014,161.12040019999995,161.1044053999999,160.3760983000002,,,,,,,,0,1,0.5233157000002393,None,,,,,,,,871,21,M,R,2026-02-23_12h01.31.814,VisualSearch_2526_3,,2025.2.4,2026-02-23 12h01.32.029311 +0100,
vertical.xlsx,The target is tilted.,135,62,6,7,0,1,1,1,1,1,1,1,0,0,0,0,1,7,8,135,space,6.746010599999863,None,0,1,1.2158288999999058,None,space,1.9180163999999422,None,0,0,0,1,,,,,7,6,62,5,161.12040019999995,,,,,,,,,,,,,,,,,,,,,161.1050983,161.12040019999995,161.6040435,161.60903069999995,161.62713759999997,162.85420969999996,,,,,162.85440759999983,162.86914060000026,163.06961899999988,163.05346009999994,161.62713759999997,,,,,,,,0,1,1.2158288999999058,None,,,,,,,,871,21,M,R,2026-02-23_12h01.31.814,VisualSearch_2526_3,,2025.2.4,2026-02-23 12h01.32.029311 +0100,
vertical.xlsx,The target is tilted.,135,63,7,7,1,1,1,1,0,0,0,0,0,0,0,0,0,3,4,135,space,6.746010599999863,None,1,1,0.8796908999997868,None,space,1.9180163999999422,None,0,0,0,1,,,,,7,7,63,2,163.06961899999988,,,,,,,,,,,,,,,,,,,,,163.054173,163.06961899999988,163.5533045000002,163.5578645999999,163.57312610000008,164.46898969999984,,,,,164.46911950000003,164.48545479999984,164.68525920000002,164.6691034999999,163.57312610000008,,,,,,,,1,1,0.8796908999997868,None,,,,,,,,871,21,M,R,2026-02-23_12h01.31.814,VisualSearch_2526_3,,2025.2.4,2026-02-23 12h01.32.029311 +0100,
vertical.xlsx,The target is tilted.,135,64,0,8,1,1,1,1,1,1,1,1,1,1,1,1,0,11,12,135,space,6.746010599999863,None,1,1,2.5413407000000916,None,space,1.9180163999999422,None,0,0,0,1,,,,,8,0,64,0,164.68525920000002,,,,,,,,,,,,,,,,,,,,,164.6698151999999,164.68525920000002,165.16886990000012,165.17338180000024,165.1906555999999,167.7352780000001,,,,,167.7354866999999,167.75036219999993,167.95046090000005,167.9342412000001,165.1906555999999,,,,,,,,1,1,2.5413407000000916,None,,,,,,,,871,21,M,R,2026-02-23_12h01.31.814,VisualSearch_2526_3,,2025.2.4,2026-02-23 12h01.32.029311 +0100,
vertical.xlsx,The target is tilted.,135,65,1,8,0,1,1,1,0,0,0,0,0,0,0,0,1,3,4,135,space,6.746010599999863,None,0,1,0.6025336000002426,None,space,1.9180163999999422,None,0,0,0,1,,,,,8,1,65,6,167.95046090000005,,,,,,,,,,,,,,,,,,,,,167.9349854000002,167.95046090000005,168.43446530000028,168.43906180000022,168.4541337999999,169.06796209999993,,,,,169.06815039999992,169.0830065,169.2835015999999,169.26739140000018,168.4541337999999,,,,,,,,0,1,0.6025336000002426,None,,,,,,,,871,21,M,R,2026-02-23_12h01.31.814,VisualSearch_2526_3,,2025.2.4,2026-02-23 12h01.32.029311 +0100,
vertical.xlsx,The target is tilted.,135,66,2,8,1,0,0,0,0,0,0,0,0,0,0,0,0,0,1,135,space,6.746010599999863,None,1,1,0.4809527999996135,None,space,1.9180163999999422,None,0,0,0,1,,,,,8,2,66,3,169.2835015999999,,,,,,,,,,,,,,,,,,,,,169.26808870000013,169.2835015999999,169.76671429999988,169.7712577000002,169.7877208,170.28413460000002,,,,,170.28445139999985,170.29926019999994,170.4995560000002,170.48360120000007,169.7877208,,,,,,,,1,1,0.4809527999996135,None,,,,,,,,871,21,M,R,2026-02-23_12h01.31.814,VisualSearch_2526_3,,2025.2.4,2026-02-23 12h01.32.029311 +0100,
vertical.xlsx,The target is tilted.,135,67,3,8,1,1,1,1,1,1,1,1,0,0,0,0,0,7,8,135,space,6.746010599999863,None,1,1,1.0186310999997659,None,space,1.9180163999999422,None,0,0,0,1,,,,,8,3,67,1,170.4995560000002,,,,,,,,,,,,,,,,,,,,,170.48433810000006,170.4995560000002,170.98276290000013,170.98492590000023,170.99917189999996,172.03236520000019,,,,,172.03251200000022,172.0488221999999,172.2488483000002,172.232618,170.99917189999996,,,,,,,,1,1,1.0186310999997659,None,,,,,,,,871,21,M,R,2026-02-23_12h01.31.814,VisualSearch_2526_3,,2025.2.4,2026-02-23 12h01.32.029311 +0100,
vertical.xlsx,The target is tilted.,135,68,4,8,0,0,0,0,0,0,0,0,0,0,0,0,1,1,1,135,space,6.746010599999863,None,0,1,1.3643804999996973,None,space,1.9180163999999422,None,0,0,0,1,,,,,8,4,68,7,172.2488483000002,,,,,,,,,,,,,,,,,,,,,172.2333352999999,172.2488483000002,172.73249140000007,172.73704799999996,172.74838350000027,174.11586380000017,,,,,174.1160777,174.1307867999999,174.33114750000004,174.3149145000002,172.74838350000027,,,,,,,,0,1,1.3643804999996973,None,,,,,,,,871,21,M,R,2026-02-23_12h01.31.814,VisualSearch_2526_3,,2025.2.4,2026-02-23 12h01.32.029311 +0100,
vertical.xlsx,The target is tilted.,135,69,5,8,1,1,1,1,0,0,0,0,0,0,0,0,0,3,4,135,space,6.746010599999863,None,1,1,0.5685605999997279,None,space,1.9180163999999422,None,0,0,0,1,,,,,8,5,69,2,174.33114750000004,,,,,,,,,,,,,,,,,,,,,174.31570439999996,174.33114750000004,174.8148371000002,174.81927200000018,174.8362846,175.41518399999995,,,,,175.41539039999998,175.43016850000004,175.6302894999999,175.6145233000002,174.8362846,,,,,,,,1,1,0.5685605999997279,None,,,,,,,,871,21,M,R,2026-02-23_12h01.31.814,VisualSearch_2526_3,,2025.2.4,2026-02-23 12h01.32.029311 +0100,
vertical.xlsx,The target is tilted.,135,70,6,8,0,1,1,1,1,1,1,1,1,1,1,1,1,11,12,135,space,6.746010599999863,None,0,1,1.0540633999999045,None,space,1.9180163999999422,None,0,0,0,1,,,,,8,6,70,4,175.6302894999999,,,,,,,,,,,,,,,,,,,,,175.61524999999983,175.6302894999999,176.11435429999983,176.1188817000002,176.13569189999998,177.19770199999994,,,,,177.1978964,177.2126889000001,177.4131894000002,177.3970500999999,176.13569189999998,,,,,,,,0,1,1.0540633999999045,None,,,,,,,,871,21,M,R,2026-02-23_12h01.31.814,VisualSearch_2526_3,,2025.2.4,2026-02-23 12h01.32.029311 +0100,
vertical.xlsx,The target is tilted.,135,71,7,8,0,1,1,1,1,1,1,1,0,0,0,0,1,7,8,135,space,6.746010599999863,None,0,1,1.9024100999999973,None,space,1.9180163999999422,None,0,0,0,1,,,,,8,7,71,5,177.4131894000002,,,,,,,,,,,,,,,,,,,,,177.39774690000013,177.4131894000002,177.89682300000004,177.90127949999987,177.91760639999984,179.82940800000006,,,,,179.82954169999994,179.84480010000016,180.0452951000002,180.0292413000002,177.91760639999984,,,,,,,,0,1,1.9024100999999973,None,,,,,,,,871,21,M,R,2026-02-23_12h01.31.814,VisualSearch_2526_3,,2025.2.4,2026-02-23 12h01.32.029311 +0100,
vertical.xlsx,The target is tilted.,135,72,0,9,1,1,1,1,1,1,1,1,0,0,0,0,0,7,8,135,space,6.746010599999863,None,1,1,0.5347694000001866,None,space,1.9180163999999422,None,0,0,0,1,,,,,9,0,72,1,180.0452951000002,,,,,,,,,,,,,,,,,,,,,180.03000169999996,180.0452951000002,180.5290872999999,180.53352110000014,180.5498834,181.0956414000002,,,,,181.0958340000002,181.11096080000016,181.31151520000003,181.29536080000025,180.5498834,,,,,,,,1,1,0.5347694000001866,None,,,,,,,,871,21,M,R,2026-02-23_12h01.31.814,VisualSearch_2526_3,,2025.2.4,2026-02-23 12h01.32.029311 +0100,
vertical.xlsx,The target is tilted.,135,73,1,9,1,0,0,0,0,0,0,0,0,0,0,0,0,0,1,135,space,6.746010599999863,None,1,1,0.5859713999998348,None,space,1.9180163999999422,None,0,0,0,1,,,,,9,1,73,3,181.31151520000003,,,,,,,,,,,,,,,,,,,,,181.29615439999998,181.31151520000003,181.7952561000002,181.80027440000003,181.81635920000008,182.4119415,,,,,182.41213460000017,182.4269921,182.6274687,182.6112366000002,181.81635920000008,,,,,,,,1,1,0.5859713999998348,None,,,,,,,,871,21,M,R,2026-02-23_12h01.31.814,VisualSearch_2526_3,,2025.2.4,2026-02-23 12h01.32.029311 +0100,
vertical.xlsx,The target is tilted.,135,74,2,9,0,1,1,1,1,1,1,1,1,1,1,1,1,11,12,135,space,6.746010599999863,None,0,1,1.8410526000002392,None,space,1.9180163999999422,None,0,0,0,1,,,,,9,2,74,4,182.6274687,,,,,,,,,,,,,,,,,,,,,182.6119604999999,182.6274687,183.11071709999987,183.11578520000012,183.12980019999986,184.9769495999999,,,,,184.97709440000017,184.9923431000002,185.19308890000048,185.1769764999999,183.12980019999986,,,,,,,,0,1,1.8410526000002392,None,,,,,,,,871,21,M,R,2026-02-23_12h01.31.814,VisualSearch_2526_3,,2025.2.4,2026-02-23 12h01.32.029311 +0100,
vertical.xlsx,The target is tilted.,135,75,3,9,0,1,1,1,1,1,1,1,0,0,0,0,1,7,8,135,space,6.746010599999863,None,0,1,1.511446800000158,None,space,1.9180163999999422,None,0,0,0,1,,,,,9,3,75,5,185.19308890000048,,,,,,,,,,,,,,,,,,,,,185.17792949999966,185.19308890000048,185.67641639999965,185.6809006000003,185.6983720999997,187.22575169999982,,,,,187.2259471999996,187.24141700000018,187.44194770000013,187.4254375999999,185.6983720999997,,,,,,,,0,1,1.511446800000158,None,,,,,,,,871,21,M,R,2026-02-23_12h01.31.814,VisualSearch_2526_3,,2025.2.4,2026-02-23 12h01.32.029311 +0100,
vertical.xlsx,The target is tilted.,135,76,4,9,1,1,1,1,0,0,0,0,0,0,0,0,0,3,4,135,space,6.746010599999863,None,1,1,0.8618074000005436,None,space,1.9180163999999422,None,0,0,0,1,,,,,9,4,76,2,187.44194770000013,,,,,,,,,,,,,,,,,,,,,187.4261507000001,187.44194770000013,187.92511790000026,187.9295189000004,187.94510929999979,188.8085890000002,,,,,188.80872120000004,188.82406290000017,189.02455910000026,189.00844140000027,187.94510929999979,,,,,,,,1,1,0.8618074000005436,None,,,,,,,,871,21,M,R,2026-02-23_12h01.31.814,VisualSearch_2526_3,,2025.2.4,2026-02-23 12h01.32.029311 +0100,
vertical.xlsx,The target is tilted.,135,77,5,9,0,1,1,1,0,0,0,0,0,0,0,0,1,3,4,135,space,6.746010599999863,None,0,1,1.2178929000001517,None,space,1.9180163999999422,None,0,0,0,1,,,,,9,5,77,6,189.02455910000026,,,,,,,,,,,,,,,,,,,,,189.00914009999997,189.02455910000026,189.50783479999973,189.5122437,189.5241444000003,190.75694060000023,,,,,190.75705089999974,190.77330100000017,,190.9573220000002,189.5241444000003,,,,,,,,0,1,1.2178929000001517,None,,,,,,,,871,21,M,R,2026-02-23_12h01.31.814,VisualSearch_2526_3,,2025.2.4,2026-02-23 12h01.32.029311 +0100,
vertical.xlsx,The target is tilted.,135,78,6,9,1,1,1,1,1,1,1,1,1,1,1,1,0,11,12,135,space,6.746010599999863,None,1,1,0.8188317000003735,None,space,1.9180163999999422,None,0,0,0,1,,,,,9,6,78,0,190.97322609999992,,,,,,,,,,,,,,,,,,,,,190.95808269999998,190.97322609999992,191.4572444000005,191.46167270000024,191.47864570000002,192.30743129999973,,,,,192.30762359999972,192.3225067000003,192.52287429999978,192.5068753000005,191.47864570000002,,,,,,,,1,1,0.8188317000003735,None,,,,,,,,871,21,M,R,2026-02-23_12h01.31.814,VisualSearch_2526_3,,2025.2.4,2026-02-23 12h01.32.029311 +0100,
vertical.xlsx,The target is tilted.,135,79,7,9,0,0,0,0,0,0,0,0,0,0,0,0,1,1,1,135,space,6.746010599999863,None,0,1,0.6971044000001712,None,space,1.9180163999999422,None,0,0,0,1,,,,,9,7,79,7,192.52287429999978,,,,,,,,,,,,,,,,,,,,,192.50758740000038,192.52287429999978,193.00661209999998,193.01119139999992,193.02829699999984,193.7389862,,,,,193.73911690000023,193.75520810000035,,193.93937110000024,193.02829699999984,,,,,,,,0,1,0.6971044000001712,None,,,,,,,,871,21,M,R,2026-02-23_12h01.31.814,VisualSearch_2526_3,,2025.2.4,2026-02-23 12h01.32.029311 +0100,
vertical.xlsx,The target is tilted.,135,80,0,10,0,1,1,1,1,1,1,1,0,0,0,0,1,7,8,135,space,6.746010599999863,None,0,1,2.012852799999564,None,space,1.9180163999999422,None,0,0,0,1,,,,,10,0,80,5,193.9556419999999,,,,,,,,,,,,,,,,,,,,,193.9401852000001,193.9556419999999,194.4394199999997,194.44388249999975,194.45984800000042,196.4883987000003,,,,,196.48857490000046,196.50383820000025,196.70439669999996,196.68824620000032,194.45984800000042,,,,,,,,0,1,2.012852799999564,None,,,,,,,,871,21,M,R,2026-02-23_12h01.31.814,VisualSearch_2526_3,,2025.2.4,2026-02-23 12h01.32.029311 +0100,
vertical.xlsx,The target is tilted.,135,81,1,10,1,0,0,0,0,0,0,0,0,0,0,0,0,0,1,135,space,6.746010599999863,None,1,1,0.4822853000005125,None,space,1.9180163999999422,None,0,0,0,1,,,,,10,1,81,3,196.70439669999996,,,,,,,,,,,,,,,,,,,,,196.68897089999973,196.70439669999996,197.18799180000042,197.19240660000014,197.20911739999974,197.7043033,,,,,197.70448980000037,197.72001569999975,197.92034590000003,197.9044044000002,197.20911739999974,,,,,,,,1,1,0.4822853000005125,None,,,,,,,,871,21,M,R,2026-02-23_12h01.31.814,VisualSearch_2526_3,,2025.2.4,2026-02-23 12h01.32.029311 +0100,
vertical.xlsx,The target is tilted.,135,82,2,10,0,1,1,1,1,1,1,1,1,1,1,1,1,11,12,135,space,6.746010599999863,None,0,1,1.7315992999992886,None,space,1.9180163999999422,None,0,0,0,1,,,,,10,2,82,4,197.92034590000003,,,,,,,,,,,,,,,,,,,,,197.9051115000002,197.92034590000003,198.40420259999973,198.4087325999999,198.42364910000015,200.16998070000045,,,,,200.17017529999976,200.1854503000004,200.3861480000005,200.36994460000005,198.42364910000015,,,,,,,,0,1,1.7315992999992886,None,,,,,,,,871,21,M,R,2026-02-23_12h01.31.814,VisualSearch_2526_3,,2025.2.4,2026-02-23 12h01.32.029311 +0100,
vertical.xlsx,The target is tilted.,135,83,3,10,0,1,1,1,0,0,0,0,0,0,0,0,1,3,4,135,space,6.746010599999863,None,0,1,0.7189112999994904,None,space,1.9180163999999422,None,0,0,0,1,,,,,10,3,83,6,200.3861480000005,,,,,,,,,,,,,,,,,,,,,200.37064629999986,200.3861480000005,200.86938650000047,200.87387519999993,200.88988340000014,201.6200319999998,,,,,201.62024440000005,201.63550550000036,201.8354220000001,201.81875479999962,200.88988340000014,,,,,,,,0,1,0.7189112999994904,None,,,,,,,,871,21,M,R,2026-02-23_12h01.31.814,VisualSearch_2526_3,,2025.2.4,2026-02-23 12h01.32.029311 +0100,
vertical.xlsx,The target is tilted.,135,84,4,10,1,1,1,1,0,0,0,0,0,0,0,0,0,3,4,135,space,6.746010599999863,None,1,1,0.7869170000003578,None,space,1.9180163999999422,None,0,0,0,1,,,,,10,4,84,2,201.8354220000001,,,,,,,,,,,,,,,,,,,,,201.81947620000028,201.8354220000001,202.3186869000001,202.32315159999962,202.334476,203.1358780999999,,,,,203.13607320000028,203.15143660000012,203.35089760000028,203.3348635000002,202.334476,,,,,,,,1,1,0.7869170000003578,None,,,,,,,,871,21,M,R,2026-02-23_12h01.31.814,VisualSearch_2526_3,,2025.2.4,2026-02-23 12h01.32.029311 +0100,
vertical.xlsx,The target is tilted.,135,85,5,10,0,0,0,0,0,0,0,0,0,0,0,0,1,1,1,135,space,6.746010599999863,None,0,1,0.5723915000007764,None,space,1.9180163999999422,None,0,0,0,1,,,,,10,5,85,7,203.35089760000028,,,,,,,,,,,,,,,,,,,,,203.3355959999999,203.35089760000028,203.83504960000027,203.8395885,203.85644409999986,204.43526610000026,,,,,204.43545929999982,204.4507021999998,204.65033909999966,204.63433619999978,203.85644409999986,,,,,,,,0,1,0.5723915000007764,None,,,,,,,,871,21,M,R,2026-02-23_12h01.31.814,VisualSearch_2526_3,,2025.2.4,2026-02-23 12h01.32.029311 +0100,
vertical.xlsx,The target is tilted.,135,86,6,10,1,1,1,1,1,1,1,1,1,1,1,1,0,11,12,135,space,6.746010599999863,None,1,1,1.0265763999996125,None,space,1.9180163999999422,None,0,0,0,1,,,,,10,6,86,0,204.65033909999966,,,,,,,,,,,,,,,,,,,,,204.6350338000002,204.65033909999966,205.13445339999998,205.1388796000001,205.15530169999965,206.18447170000036,,,,,206.18466050000006,206.1999182999998,206.3996489000001,206.38372140000047,205.15530169999965,,,,,,,,1,1,1.0265763999996125,None,,,,,,,,871,21,M,R,2026-02-23_12h01.31.814,VisualSearch_2526_3,,2025.2.4,2026-02-23 12h01.32.029311 +0100,
vertical.xlsx,The target is tilted.,135,87,7,10,1,1,1,1,1,1,1,1,0,0,0,0,0,7,8,135,space,6.746010599999863,None,1,1,0.5976211000006515,None,space,1.9180163999999422,None,0,0,0,1,,,,,10,7,87,1,206.3996489000001,,,,,,,,,,,,,,,,,,,,,206.3846319000004,206.3996489000001,206.88371110000026,206.88851590000013,206.90665640000043,207.5169160000005,,,,,207.51712849999967,207.5327941000005,207.73244369999975,207.71615070000007,206.90665640000043,,,,,,,,1,1,0.5976211000006515,None,,,,,,,,871,21,M,R,2026-02-23_12h01.31.814,VisualSearch_2526_3,,2025.2.4,2026-02-23 12h01.32.029311 +0100,
vertical.xlsx,The target is tilted.,135,88,0,11,0,1,1,1,1,1,1,1,1,1,1,1,1,11,12,135,space,6.746010599999863,None,0,1,1.9687695999991774,None,space,1.9180163999999422,None,0,0,0,1,,,,,11,0,88,4,207.73244369999975,,,,,,,,,,,,,,,,,,,,,207.71686169999975,207.73244369999975,208.21588499999962,208.22090329999992,208.23667110000042,210.21578210000007,,,,,210.21597370000018,210.2312552000003,210.43141319999995,210.4154054999999,208.23667110000042,,,,,,,,0,1,1.9687695999991774,None,,,,,,,,871,21,M,R,2026-02-23_12h01.31.814,VisualSearch_2526_3,,2025.2.4,2026-02-23 12h01.32.029311 +0100,
vertical.xlsx,The target is tilted.,135,89,1,11,0,1,1,1,0,0,0,0,0,0,0,0,1,3,4,135,space,6.746010599999863,None,0,1,0.8199205999999322,None,space,1.9180163999999422,None,0,0,0,1,,,,,11,1,89,6,210.43141319999995,,,,,,,,,,,,,,,,,,,,,210.41612739999982,210.43141319999995,210.91509099999985,210.91975340000045,210.93519480000032,211.76468639999985,,,,,211.76481570000033,211.78057609999996,211.98073509999995,211.96462679999968,210.93519480000032,,,,,,,,0,1,0.8199205999999322,None,,,,,,,,871,21,M,R,2026-02-23_12h01.31.814,VisualSearch_2526_3,,2025.2.4,2026-02-23 12h01.32.029311 +0100,
vertical.xlsx,The target is tilted.,135,90,2,11,0,1,1,1,1,1,1,1,0,0,0,0,1,7,8,135,space,6.746010599999863,None,0,1,1.4954707999995662,None,space,1.9180163999999422,None,0,0,0,1,,,,,11,2,90,5,211.98073509999995,,,,,,,,,,,,,,,,,,,,,211.96539980000034,211.98073509999995,212.4643640000004,212.4688882999999,212.48691710000003,213.99694869999985,,,,,213.99708269999974,214.01292749999993,214.21296230000007,214.19684659999984,212.48691710000003,,,,,,,,0,1,1.4954707999995662,None,,,,,,,,871,21,M,R,2026-02-23_12h01.31.814,VisualSearch_2526_3,,2025.2.4,2026-02-23 12h01.32.029311 +0100,
vertical.xlsx,The target is tilted.,135,91,3,11,0,0,0,0,0,0,0,0,0,0,0,0,1,1,1,135,space,6.746010599999863,None,0,1,0.6003716000004715,None,space,1.9180163999999422,None,0,0,0,1,,,,,11,3,91,7,214.21296230000007,,,,,,,,,,,,,,,,,,,,,214.19755609999993,214.21296230000007,214.69683309999982,214.70148510000035,214.71867759999986,215.3304803000001,,,,,215.33068249999997,215.34601529999964,215.5459762999999,215.5299229000002,214.71867759999986,,,,,,,,0,1,0.6003716000004715,None,,,,,,,,871,21,M,R,2026-02-23_12h01.31.814,VisualSearch_2526_3,,2025.2.4,2026-02-23 12h01.32.029311 +0100,
vertical.xlsx,The target is tilted.,135,92,4,11,1,0,0,0,0,0,0,0,0,0,0,0,0,0,1,135,space,6.746010599999863,None,1,1,0.5976709999995364,None,space,1.9180163999999422,None,0,0,0,1,,,,,11,4,92,3,215.5459762999999,,,,,,,,,,,,,,,,,,,,,215.53071569999975,215.5459762999999,216.02960330000042,216.03422200000023,216.05075420000048,216.66305749999992,,,,,216.66325010000037,216.6786050999999,216.8785700999997,216.86239380000006,216.05075420000048,,,,,,,,1,1,0.5976709999995364,None,,,,,,,,871,21,M,R,2026-02-23_12h01.31.814,VisualSearch_2526_3,,2025.2.4,2026-02-23 12h01.32.029311 +0100,
vertical.xlsx,The target is tilted.,135,93,5,11,1,1,1,1,1,1,1,1,0,0,0,0,0,7,8,135,space,6.746010599999863,None,1,1,0.4776694000001953,None,space,1.9180163999999422,None,0,0,0,1,,,,,11,5,93,1,216.8785700999997,,,,,,,,,,,,,,,,,,,,,216.86309720000008,216.8785700999997,217.36223530000007,217.36677429999963,217.38152030000037,217.86248869999963,,,,,217.8626820999998,217.8778527000004,218.07812860000013,218.06174250000004,217.38152030000037,,,,,,,,1,1,0.4776694000001953,None,,,,,,,,871,21,M,R,2026-02-23_12h01.31.814,VisualSearch_2526_3,,2025.2.4,2026-02-23 12h01.32.029311 +0100,
vertical.xlsx,The target is tilted.,135,94,6,11,1,1,1,1,0,0,0,0,0,0,0,0,0,3,4,135,space,6.746010599999863,None,1,1,0.540450200000123,None,space,1.9180163999999422,None,0,0,0,1,,,,,11,6,94,2,218.07812860000013,,,,,,,,,,,,,,,,,,,,,218.06247460000031,218.07812860000013,218.56185660000028,218.56708770000023,218.58363829999962,219.12805759999992,,,,,219.12823190000017,219.14410109999972,219.3441353999997,219.3280851999998,218.58363829999962,,,,,,,,1,1,0.540450200000123,None,,,,,,,,871,21,M,R,2026-02-23_12h01.31.814,VisualSearch_2526_3,,2025.2.4,2026-02-23 12h01.32.029311 +0100,
vertical.xlsx,The target is tilted.,135,95,7,11,1,1,1,1,1,1,1,1,1,1,1,1,0,11,12,135,space,6.746010599999863,None,1,1,1.2229538999999932,None,space,1.9180163999999422,None,0,0,0,1,,,,,11,7,95,0,219.3441353999997,,,,,,,,,,,,,,,,,,,,,219.32878840000012,219.3441353999997,219.8277893000004,219.83220600000004,219.8489341000004,221.07772690000002,,,,,221.07791859999998,221.09332919999997,221.29327720000038,221.27725869999995,219.8489341000004,,,,,,,,1,1,1.2229538999999932,None,,,,,,,,871,21,M,R,2026-02-23_12h01.31.814,VisualSearch_2526_3,,2025.2.4,2026-02-23 12h01.32.029311 +0100,
vertical.xlsx,The target is tilted.,135,96,0,12,1,0,0,0,0,0,0,0,0,0,0,0,0,0,1,135,space,6.746010599999863,None,1,1,0.5821574999999939,None,space,1.9180163999999422,None,0,0,0,1,,,,,12,0,96,3,221.29327720000038,,,,,,,,,,,,,,,,,,,,,221.27804110000034,221.29327720000038,221.77710430000025,221.78210320000017,221.7983789,222.39362189999974,,,,,222.3937950999998,222.40949530000034,222.60926389999986,222.59314240000003,221.7983789,,,,,,,,1,1,0.5821574999999939,None,,,,,,,,871,21,M,R,2026-02-23_12h01.31.814,VisualSearch_2526_3,,2025.2.4,2026-02-23 12h01.32.029311 +0100,
vertical.xlsx,The target is tilted.,135,97,1,12,1,1,1,1,0,0,0,0,0,0,0,0,0,3,4,135,space,6.746010599999863,None,1,1,0.47572589999981574,None,space,1.9180163999999422,None,0,0,0,1,,,,,12,1,97,2,222.60926389999986,,,,,,,,,,,,,,,,,,,,,222.5938354,222.60926389999986,223.09286780000002,223.09740599999986,223.11276610000004,223.59297270000025,,,,,223.59316959999978,223.60857750000014,223.80885360000048,223.79258560000017,223.11276610000004,,,,,,,,1,1,0.47572589999981574,None,,,,,,,,871,21,M,R,2026-02-23_12h01.31.814,VisualSearch_2526_3,,2025.2.4,2026-02-23 12h01.32.029311 +0100,
vertical.xlsx,The target is tilted.,135,98,2,12,0,0,0,0,0,0,0,0,0,0,0,0,1,1,1,135,space,6.746010599999863,None,0,1,0.6034841999999117,None,space,1.9180163999999422,None,0,0,0,1,,,,,12,2,98,7,223.80885360000048,,,,,,,,,,,,,,,,,,,,,223.79330970000046,223.80885360000048,224.29240310000023,224.29694389999986,224.3111232000001,224.92565319999994,,,,,224.9258103000002,224.94124590000047,225.14148959999966,225.1253939999997,224.3111232000001,,,,,,,,0,1,0.6034841999999117,None,,,,,,,,871,21,M,R,2026-02-23_12h01.31.814,VisualSearch_2526_3,,2025.2.4,2026-02-23 12h01.32.029311 +0100,
vertical.xlsx,The target is tilted.,135,99,3,12,0,1,1,1,1,1,1,1,1,1,1,1,1,11,12,135,space,6.746010599999863,None,0,1,1.9194386999997732,None,space,1.9180163999999422,None,0,0,0,1,,,,,12,3,99,4,225.14148959999966,,,,,,,,,,,,,,,,,,,,,225.12609320000047,225.14148959999966,225.62497350000012,225.62944750000042,225.64502290000019,227.57481590000043,,,,,227.5750108000002,227.59006339999996,227.79008299999987,227.77413630000046,225.64502290000019,,,,,,,,0,1,1.9194386999997732,None,,,,,,,,871,21,M,R,2026-02-23_12h01.31.814,VisualSearch_2526_3,,2025.2.4,2026-02-23 12h01.32.029311 +0100,
vertical.xlsx,The target is tilted.,135,100,4,12,1,1,1,1,1,1,1,1,1,1,1,1,0,11,12,135,space,6.746010599999863,None,1,1,1.2452682000002824,None,space,1.9180163999999422,None,0,0,0,1,,,,,12,4,100,0,227.79008299999987,,,,,,,,,,,,,,,,,,,,,227.77496080000037,227.79008299999987,228.27395609999985,228.27843819999998,228.29480710000007,229.55663069999991,,,,,229.5567702999997,229.57221339999978,229.77276419999998,229.7568355000003,228.29480710000007,,,,,,,,1,1,1.2452682000002824,None,,,,,,,,871,21,M,R,2026-02-23_12h01.31.814,VisualSearch_2526_3,,2025.2.4,2026-02-23 12h01.32.029311 +0100,
vertical.xlsx,The target is tilted.,135,101,5,12,0,1,1,1,1,1,1,1,0,0,0,0,1,7,8,135,space,6.746010599999863,None,0,1,1.013547199999266,None,space,1.9180163999999422,None,0,0,0,1,,,,,12,5,101,5,229.77276419999998,,,,,,,,,,,,,,,,,,,,,229.75775179999982,229.77276419999998,230.25631739999972,230.26129740000033,230.27764430000025,231.3063978,,,,,231.30659339999966,231.32157670000015,231.5218420000001,231.50583160000042,230.27764430000025,,,,,,,,0,1,1.013547199999266,None,,,,,,,,871,21,M,R,2026-02-23_12h01.31.814,VisualSearch_2526_3,,2025.2.4,2026-02-23 12h01.32.029311 +0100,
vertical.xlsx,The target is tilted.,135,102,6,12,0,1,1,1,0,0,0,0,0,0,0,0,1,3,4,135,space,6.746010599999863,None,0,1,0.57679890000054,None,space,1.9180163999999422,None,0,0,0,1,,,,,12,6,102,6,231.5218420000001,,,,,,,,,,,,,,,,,,,,,231.50652360000004,231.5218420000001,232.00530200000048,232.0093880000004,232.02532239999982,232.60545439999987,,,,,232.60564460000023,232.62112809999962,232.82129950000035,232.8052362999997,232.02532239999982,,,,,,,,0,1,0.57679890000054,None,,,,,,,,871,21,M,R,2026-02-23_12h01.31.814,VisualSearch_2526_3,,2025.2.4,2026-02-23 12h01.32.029311 +0100,
vertical.xlsx,The target is tilted.,135,103,7,12,1,1,1,1,1,1,1,1,0,0,0,0,0,7,8,135,space,6.746010599999863,None,0,0,1.3512854999999035,None,space,1.9180163999999422,None,0,0,0,1,,,,,12,7,103,1,232.82129950000035,,,,,,,,,,,,,,,,,,,,,232.8059331000004,232.82129950000035,233.30505110000013,233.3094884000002,233.32264810000015,234.68819640000038,,,,,234.68839240000034,234.70369029999983,234.90366939999967,234.88714009999967,233.32264810000015,,,,,,,,0,0,1.3512854999999035,None,,,,,,,,871,21,M,R,2026-02-23_12h01.31.814,VisualSearch_2526_3,,2025.2.4,2026-02-23 12h01.32.029311 +0100,
vertical.xlsx,The target is tilted.,135,104,0,13,0,0,0,0,0,0,0,0,0,0,0,0,1,1,1,135,space,6.746010599999863,None,0,1,0.6901590999996188,None,space,1.9180163999999422,None,0,0,0,1,,,,,13,0,104,7,234.90366939999967,,,,,,,,,,,,,,,,,,,,,234.88787649999995,234.90366939999967,235.3871820000004,235.3916274000003,235.40917059999992,236.10398030000033,,,,,236.10417210000014,236.11964700000044,236.3196071000002,236.3036643000005,235.40917059999992,,,,,,,,0,1,0.6901590999996188,None,,,,,,,,871,21,M,R,2026-02-23_12h01.31.814,VisualSearch_2526_3,,2025.2.4,2026-02-23 12h01.32.029311 +0100,
vertical.xlsx,The target is tilted.,135,105,1,13,0,1,1,1,0,0,0,0,0,0,0,0,1,3,4,135,space,6.746010599999863,None,0,1,0.6542844999994486,None,space,1.9180163999999422,None,0,0,0,1,,,,,13,1,105,6,236.3196071000002,,,,,,,,,,,,,,,,,,,,,236.30436110000028,236.3196071000002,236.80339999999978,236.80788120000034,236.82286300000032,237.48698950000016,,,,,237.4871830000002,237.5025357000004,237.70244660000026,237.68628720000015,236.82286300000032,,,,,,,,0,1,0.6542844999994486,None,,,,,,,,871,21,M,R,2026-02-23_12h01.31.814,VisualSearch_2526_3,,2025.2.4,2026-02-23 12h01.32.029311 +0100,
vertical.xlsx,The target is tilted.,135,106,2,13,0,1,1,1,1,1,1,1,0,0,0,0,1,7,8,135,space,6.746010599999863,None,0,1,0.7740966000001208,None,space,1.9180163999999422,None,0,0,0,1,,,,,13,2,106,5,237.70244660000026,,,,,,,,,,,,,,,,,,,,,237.6869859999997,237.70244660000026,238.1858917999998,238.19040779999978,238.2065045999998,238.98624430000018,,,,,238.98643939999965,239.00159259999964,239.20173270000032,239.18570439999985,238.2065045999998,,,,,,,,0,1,0.7740966000001208,None,,,,,,,,871,21,M,R,2026-02-23_12h01.31.814,VisualSearch_2526_3,,2025.2.4,2026-02-23 12h01.32.029311 +0100,
vertical.xlsx,The target is tilted.,135,107,3,13,1,1,1,1,0,0,0,0,0,0,0,0,0,3,4,135,space,6.746010599999863,None,1,1,0.6040533999994295,None,space,1.9180163999999422,None,0,0,0,1,,,,,13,3,107,2,239.20173270000032,,,,,,,,,,,,,,,,,,,,,239.1864271000004,239.20173270000032,239.68496930000038,239.68938140000046,239.7014068999997,240.31900039999982,,,,,240.31919040000048,240.33449230000042,240.5345143000004,240.51842300000044,239.7014068999997,,,,,,,,1,1,0.6040533999994295,None,,,,,,,,871,21,M,R,2026-02-23_12h01.31.814,VisualSearch_2526_3,,2025.2.4,2026-02-23 12h01.32.029311 +0100,
vertical.xlsx,The target is tilted.,135,108,4,13,1,0,0,0,0,0,0,0,0,0,0,0,0,0,1,135,space,6.746010599999863,None,1,1,0.5325981999994838,None,space,1.9180163999999422,None,0,0,0,1,,,,,13,4,108,3,240.5345143000004,,,,,,,,,,,,,,,,,,,,,240.51912979999997,240.5345143000004,241.01828850000038,241.02325540000038,241.03882059999978,241.58492879999994,,,,,241.58512080000037,241.6005385999997,241.80028800000036,241.78437490000033,241.03882059999978,,,,,,,,1,1,0.5325981999994838,None,,,,,,,,871,21,M,R,2026-02-23_12h01.31.814,VisualSearch_2526_3,,2025.2.4,2026-02-23 12h01.32.029311 +0100,
vertical.xlsx,The target is tilted.,135,109,5,13,1,1,1,1,1,1,1,1,1,1,1,1,0,11,12,135,space,6.746010599999863,None,1,1,0.5238642000003892,None,space,1.9180163999999422,None,0,0,0,1,,,,,13,5,109,0,241.80028800000036,,,,,,,,,,,,,,,,,,,,,241.78552149999996,241.80028800000036,242.2844955999999,242.28928350000024,242.3058301000001,242.8343549000001,,,,,242.83455119999962,242.8499866000002,243.04978159999973,243.0334958000003,242.3058301000001,,,,,,,,1,1,0.5238642000003892,None,,,,,,,,871,21,M,R,2026-02-23_12h01.31.814,VisualSearch_2526_3,,2025.2.4,2026-02-23 12h01.32.029311 +0100,
vertical.xlsx,The target is tilted.,135,110,6,13,0,1,1,1,1,1,1,1,1,1,1,1,1,11,12,135,space,6.746010599999863,None,0,1,1.7782477999999173,None,space,1.9180163999999422,None,0,0,0,1,,,,,13,6,110,4,243.04978159999973,,,,,,,,,,,,,,,,,,,,,243.03428110000004,243.04978159999973,243.53319319999991,243.53584310000042,243.54953970000042,245.33323130000008,,,,,245.33343429999968,245.34885639999993,245.54858380000042,245.53230919999987,243.54953970000042,,,,,,,,0,1,1.7782477999999173,None,,,,,,,,871,21,M,R,2026-02-23_12h01.31.814,VisualSearch_2526_3,,2025.2.4,2026-02-23 12h01.32.029311 +0100,
vertical.xlsx,The target is tilted.,135,111,7,13,1,1,1,1,1,1,1,1,0,0,0,0,0,7,8,135,space,6.746010599999863,None,1,1,0.603886899999452,None,space,1.9180163999999422,None,0,0,0,1,,,,,13,7,111,1,245.54858380000042,,,,,,,,,,,,,,,,,,,,,245.53302489999987,245.54858380000042,246.03237569999965,246.03737619999993,246.05553690000033,246.66578839999966,,,,,246.66594450000048,246.6813586999997,246.8815912,246.86564869999984,246.05553690000033,,,,,,,,1,1,0.603886899999452,None,,,,,,,,871,21,M,R,2026-02-23_12h01.31.814,VisualSearch_2526_3,,2025.2.4,2026-02-23 12h01.32.029311 +0100,
vertical.xlsx,The target is tilted.,135,112,0,14,0,1,1,1,1,1,1,1,1,1,1,1,1,11,12,135,space,6.746010599999863,None,0,1,1.9609639000000243,None,space,1.9180163999999422,None,0,0,0,1,,,,,14,0,112,4,246.8815912,,,,,,,,,,,,,,,,,,,,,246.86643420000019,246.8815912,247.3653021,247.3698228000003,247.38624739999977,249.36442979999993,,,,,249.36451339999985,249.3802093000004,249.58016880000014,249.56443579999996,247.38624739999977,,,,,,,,0,1,1.9609639000000243,None,,,,,,,,871,21,M,R,2026-02-23_12h01.31.814,VisualSearch_2526_3,,2025.2.4,2026-02-23 12h01.32.029311 +0100,
vertical.xlsx,The target is tilted.,135,113,1,14,1,1,1,1,1,1,1,1,0,0,0,0,0,7,8,135,space,6.746010599999863,None,1,1,0.565665899999658,None,space,1.9180163999999422,None,0,0,0,1,,,,,14,1,113,1,249.58016880000014,,,,,,,,,,,,,,,,,,,,,249.5652154999998,249.58016880000014,250.06403020000016,250.06851889999962,250.0834832999999,250.66438749999998,,,,,250.66461590000017,250.67946570000004,250.87966899999992,250.8631865999996,250.0834832999999,,,,,,,,1,1,0.565665899999658,None,,,,,,,,871,21,M,R,2026-02-23_12h01.31.814,VisualSearch_2526_3,,2025.2.4,2026-02-23 12h01.32.029311 +0100,
vertical.xlsx,The target is tilted.,135,114,2,14,0,0,0,0,0,0,0,0,0,0,0,0,1,1,1,135,space,6.746010599999863,None,0,1,0.5692915999998149,None,space,1.9180163999999422,None,0,0,0,1,,,,,14,2,114,7,250.87966899999992,,,,,,,,,,,,,,,,,,,,,250.86392960000012,250.87966899999992,251.36341079999966,251.36782740000035,251.3858091000002,251.96321790000002,,,,,251.9633517000002,251.97921870000027,252.1790920000003,252.16243020000002,251.3858091000002,,,,,,,,0,1,0.5692915999998149,None,,,,,,,,871,21,M,R,2026-02-23_12h01.31.814,VisualSearch_2526_3,,2025.2.4,2026-02-23 12h01.32.029311 +0100,
vertical.xlsx,The target is tilted.,135,115,3,14,0,1,1,1,1,1,1,1,0,0,0,0,1,7,8,135,space,6.746010599999863,None,0,1,0.9437442999997074,None,space,1.9180163999999422,None,0,0,0,1,,,,,14,3,115,5,252.1790920000003,,,,,,,,,,,,,,,,,,,,,252.16319459999977,252.1790920000003,252.6625721999999,252.66697060000024,252.68432610000036,253.62958979999985,,,,,253.6297838999999,253.64513480000005,253.84511529999963,253.82896470000014,252.68432610000036,,,,,,,,0,1,0.9437442999997074,None,,,,,,,,871,21,M,R,2026-02-23_12h01.31.814,VisualSearch_2526_3,,2025.2.4,2026-02-23 12h01.32.029311 +0100,
vertical.xlsx,The target is tilted.,135,116,4,14,1,1,1,1,1,1,1,1,1,1,1,1,0,11,12,135,space,6.746010599999863,None,1,1,0.9415656999999555,None,space,1.9180163999999422,None,0,0,0,1,,,,,14,4,116,0,253.84511529999963,,,,,,,,,,,,,,,,,,,,,253.8296909999999,253.84511529999963,254.32844970000042,254.33290510000006,254.35058389999995,255.29533340000035,,,,,255.2955039999997,255.31107780000002,255.5108854,255.49458500000037,254.35058389999995,,,,,,,,1,1,0.9415656999999555,None,,,,,,,,871,21,M,R,2026-02-23_12h01.31.814,VisualSearch_2526_3,,2025.2.4,2026-02-23 12h01.32.029311 +0100,
vertical.xlsx,The target is tilted.,135,117,5,14,1,0,0,0,0,0,0,0,0,0,0,0,0,0,1,135,space,6.746010599999863,None,1,1,0.687878599999749,None,space,1.9180163999999422,None,0,0,0,1,,,,,14,5,117,3,255.5108854,,,,,,,,,,,,,,,,,,,,,255.49534949999997,255.5108854,255.99475940000048,255.99956829999974,256.01575649999995,256.71112970000013,,,,,256.71132529999977,256.7266417999999,256.92706069999986,256.9105231000003,256.01575649999995,,,,,,,,1,1,0.687878599999749,None,,,,,,,,871,21,M,R,2026-02-23_12h01.31.814,VisualSearch_2526_3,,2025.2.4,2026-02-23 12h01.32.029311 +0100,
vertical.xlsx,The target is tilted.,135,118,6,14,0,1,1,1,0,0,0,0,0,0,0,0,1,3,4,135,space,6.746010599999863,None,0,1,0.9546117999998387,None,space,1.9180163999999422,None,0,0,0,1,,,,,14,6,118,6,256.92706069999986,,,,,,,,,,,,,,,,,,,,,256.9112771,256.92706069999986,257.4103520999997,257.4149233999997,257.43120929999986,258.3937151,,,,,258.3938760000001,258.40931939999973,258.6097031999998,258.59359200000017,257.43120929999986,,,,,,,,0,1,0.9546117999998387,None,,,,,,,,871,21,M,R,2026-02-23_12h01.31.814,VisualSearch_2526_3,,2025.2.4,2026-02-23 12h01.32.029311 +0100,
vertical.xlsx,The target is tilted.,135,119,7,14,1,1,1,1,0,0,0,0,0,0,0,0,0,3,4,135,space,6.746010599999863,None,1,1,1.241146899999876,None,space,1.9180163999999422,None,0,0,0,1,,,,,14,7,119,2,258.6097031999998,,,,,,,,,,,,,,,,,,,,,258.59429720000026,258.6097031999998,259.0932972999999,259.0978517000003,259.11314740000034,260.3599012000004,,,,,260.3600944,260.37535670000034,260.59412150000026,260.5593295999997,259.11314740000034,,,,,,,,1,1,1.241146899999876,None,,,,,,,,871,21,M,R,2026-02-23_12h01.31.814,VisualSearch_2526_3,,2025.2.4,2026-02-23 12h01.32.029311 +0100,
vertical.xlsx,The target is tilted.,135,0,0,0,,,,,,,,,,,,,,,,,space,6.746010599999863,None,,,,,space,1.9180163999999422,None,0,0,0,1,,,,,,,,,,,,,,,,,,,,,,,,,,,,,,,,,,,,,,,,,,,,,,,,,,,,,,,,,,,,,,,871,21,M,R,2026-02-23_12h01.31.814,VisualSearch_2526_3,,2025.2.4,2026-02-23 12h01.32.029311 +0100,
tilted.xlsx,The target is tilted.,117,0,0,0,1,1,1,1,1,1,1,1,1,1,1,1,0,11,12,117,space,4.56195790000038,None,1,1,4.087610200000199,None,,,,0,1,1,0,0,0,0,0,,,,,265.1862578999999,,,,,,,,,,,,,,,260.59412150000026,260.59412150000026,260.59412150000026,space,4.56195790000038,None,265.1821391000003,265.1862578999999,265.6725787000005,265.6749319999999,265.68908160000046,269.7888880999999,1,1,4.087610200000199,None,269.7890769000005,269.8043926,270.00446869999996,269.9885497000005,,,,,,,,,,,,,,,,,,,,871,21,M,R,2026-02-23_12h01.31.814,VisualSearch_2526_3,,2025.2.4,2026-02-23 12h01.32.029311 +0100,
tilted.xlsx,The target is tilted.,117,1,1,0,0,0,0,0,0,0,0,0,0,0,0,0,1,1,1,117,space,4.56195790000038,None,0,1,0.8288092000002507,None,,,,0,1,1,0,0,1,1,7,,,,,270.00446869999996,,,,,,,,,,,,,,,,,,,,,269.9892066000002,270.00446869999996,270.48816110000007,270.49279019999994,270.5040300999999,271.3381651999998,0,1,0.8288092000002507,None,271.3383455000003,271.3537452999999,271.55379379999977,271.53747010000006,270.5040300999999,,,,,,,,,,,,,,,,,,,871,21,M,R,2026-02-23_12h01.31.814,VisualSearch_2526_3,,2025.2.4,2026-02-23 12h01.32.029311 +0100,
tilted.xlsx,The target is tilted.,117,2,2,0,1,0,0,0,0,0,0,0,0,0,0,0,0,0,1,117,space,4.56195790000038,None,1,1,0.7636195999994015,None,,,,0,1,1,0,0,2,2,3,,,,,271.55379379999977,,,,,,,,,,,,,,,,,,,,,271.5381704000001,271.55379379999977,272.0372602999996,272.041733,272.0571652999997,272.8375471999998,1,1,0.7636195999994015,None,272.8377298000005,272.85309719999987,273.05312109999977,273.0371769000003,272.0571652999997,,,,,,,,,,,,,,,,,,,871,21,M,R,2026-02-23_12h01.31.814,VisualSearch_2526_3,,2025.2.4,2026-02-23 12h01.32.029311 +0100,
tilted.xlsx,The target is tilted.,117,3,3,0,0,1,1,1,0,0,0,0,0,0,0,0,1,3,4,117,space,4.56195790000038,None,0,1,1.5157686000002286,None,,,,0,1,1,0,0,3,3,6,,,,,273.05312109999977,,,,,,,,,,,,,,,,,,,,,273.03790349999963,273.05312109999977,273.5366616000001,273.54108460000043,273.55578590000005,275.08642690000033,0,1,1.5157686000002286,None,275.08658990000004,275.1019849000004,275.30203230000006,275.2859209999997,273.55578590000005,,,,,,,,,,,,,,,,,,,871,21,M,R,2026-02-23_12h01.31.814,VisualSearch_2526_3,,2025.2.4,2026-02-23 12h01.32.029311 +0100,
tilted.xlsx,The target is tilted.,117,4,4,0,0,1,1,1,1,1,1,1,1,1,1,1,1,11,12,117,space,4.56195790000038,None,1,0,3.335393899999872,None,,,,0,1,1,0,0,4,4,4,,,,,275.30203230000006,,,,,,,,,,,,,,,,,,,,,275.2865675000003,275.30203230000006,275.7852079000004,275.7896966999997,275.8071276999999,279.1513536000002,1,0,3.335393899999872,None,279.1515381999998,279.1664700000001,279.36682949999977,279.3503483000004,275.8071276999999,,,,,,,,,,,,,,,,,,,871,21,M,R,2026-02-23_12h01.31.814,VisualSearch_2526_3,,2025.2.4,2026-02-23 12h01.32.029311 +0100,
tilted.xlsx,The target is tilted.,117,5,5,0,1,1,1,1,0,0,0,0,0,0,0,0,0,3,4,117,space,4.56195790000038,None,1,1,1.4880193999997573,None,,,,0,1,1,0,0,5,5,2,,,,,279.36682949999977,,,,,,,,,,,,,,,,,,,,,279.3510035999998,279.36682949999977,279.85032150000006,279.8555570999997,279.8721281999997,281.36687429999984,1,1,1.4880193999997573,None,281.36704480000026,281.3825923000004,281.5825431000003,281.56630120000045,279.8721281999997,,,,,,,,,,,,,,,,,,,871,21,M,R,2026-02-23_12h01.31.814,VisualSearch_2526_3,,2025.2.4,2026-02-23 12h01.32.029311 +0100,
tilted.xlsx,The target is tilted.,117,6,6,0,1,1,1,1,1,1,1,1,0,0,0,0,0,7,8,117,space,4.56195790000038,None,1,1,3.4038519999994605,None,,,,0,1,1,0,0,6,6,1,,,,,281.5825431000003,,,,,,,,,,,,,,,,,,,,,281.56700920000003,281.5825431000003,282.0661310000005,282.07055409999975,282.08824790000017,285.4979137,1,1,3.4038519999994605,None,285.4980255999999,285.51403800000026,285.7139847999997,285.69771109999965,282.08824790000017,,,,,,,,,,,,,,,,,,,871,21,M,R,2026-02-23_12h01.31.814,VisualSearch_2526_3,,2025.2.4,2026-02-23 12h01.32.029311 +0100,
tilted.xlsx,The target is tilted.,117,7,7,0,0,1,1,1,1,1,1,1,0,0,0,0,1,7,8,117,space,4.56195790000038,None,1,0,2.197279900000467,None,,,,0,1,1,0,0,7,7,5,,,,,285.7139847999997,,,,,,,,,,,,,,,,,,,,,285.69839479999973,285.7139847999997,286.19779860000017,286.2023468999996,286.21904600000016,288.4306329000001,1,0,2.197279900000467,None,288.4308423000002,288.4457441000004,288.64610749999974,288.6294858000001,286.21904600000016,,,,,,,,,,,,,,,,,,,871,21,M,R,2026-02-23_12h01.31.814,VisualSearch_2526_3,,2025.2.4,2026-02-23 12h01.32.029311 +0100,
tilted.xlsx,The target is tilted.,117,0,0,0,1,1,1,1,0,0,0,0,0,0,0,0,0,3,4,117,space,4.56195790000038,None,1,1,1.4735872999999629,None,space,2.051126999999724,None,0,1,1,0,,,,,0,0,0,2,290.7470874999999,,,,,,,,,,,,,,,,,,,,,290.74281580000024,290.7470874999999,291.2285419,291.23325320000004,291.24845710000045,292.7284628999996,,,,,292.7286555999999,292.7441312000001,292.94405089999964,292.9278088000001,,288.6363110000002,288.64610749999974,288.64610749999974,290.7125477999998,space,2.051126999999724,None,1,1,1.4735872999999629,None,,,,,,,,871,21,M,R,2026-02-23_12h01.31.814,VisualSearch_2526_3,,2025.2.4,2026-02-23 12h01.32.029311 +0100,
tilted.xlsx,The target is tilted.,117,1,1,0,0,1,1,1,1,1,1,1,1,1,1,1,1,11,12,117,space,4.56195790000038,None,0,1,3.4283603000003495,None,space,2.051126999999724,None,0,1,1,0,,,,,0,1,1,4,292.94405089999964,,,,,,,,,,,,,,,,,,,,,292.9285660000005,292.94405089999964,293.4275926999999,293.4320717999999,293.44834939999964,296.89303240000027,,,,,296.8932265000003,296.9085726000003,297.1088542999996,297.0928266000001,293.44834939999964,,,,,,,,0,1,3.4283603000003495,None,,,,,,,,871,21,M,R,2026-02-23_12h01.31.814,VisualSearch_2526_3,,2025.2.4,2026-02-23 12h01.32.029311 +0100,
tilted.xlsx,The target is tilted.,117,2,2,0,1,1,1,1,1,1,1,1,1,1,1,1,0,11,12,117,space,4.56195790000038,None,1,1,3.449671400000625,None,space,2.051126999999724,None,0,1,1,0,,,,,0,2,2,0,297.1088542999996,,,,,,,,,,,,,,,,,,,,,297.09361809999973,297.1088542999996,297.59252490000017,297.59694880000006,297.6138041000004,301.074791,,,,,301.07498320000013,301.09007070000007,301.2900494000005,301.27428919999966,297.6138041000004,,,,,,,,1,1,3.449671400000625,None,,,,,,,,871,21,M,R,2026-02-23_12h01.31.814,VisualSearch_2526_3,,2025.2.4,2026-02-23 12h01.32.029311 +0100,
tilted.xlsx,The target is tilted.,117,3,3,0,0,0,0,0,0,0,0,0,0,0,0,0,1,1,1,117,space,4.56195790000038,None,0,1,0.8776354999999967,None,space,2.051126999999724,None,0,1,1,0,,,,,0,3,3,7,301.2900494000005,,,,,,,,,,,,,,,,,,,,,301.27522990000034,301.2900494000005,301.7734940999999,301.7779418,301.79315099999985,302.67406930000016,,,,,302.6742615000003,302.68946740000047,302.88935909999964,302.8731336999999,301.79315099999985,,,,,,,,0,1,0.8776354999999967,None,,,,,,,,871,21,M,R,2026-02-23_12h01.31.814,VisualSearch_2526_3,,2025.2.4,2026-02-23 12h01.32.029311 +0100,
tilted.xlsx,The target is tilted.,117,4,4,0,0,1,1,1,1,1,1,1,0,0,0,0,1,7,8,117,space,4.56195790000038,None,0,1,3.1337642999997115,None,space,2.051126999999724,None,0,1,1,0,,,,,0,4,4,5,302.88935909999964,,,,,,,,,,,,,,,,,,,,,302.87389710000025,302.88935909999964,303.3733093000001,303.3781879999997,303.3962203000001,306.53867230000014,,,,,306.53887209999994,306.55447019999974,306.7544263,306.7383791000002,303.3962203000001,,,,,,,,0,1,3.1337642999997115,None,,,,,,,,871,21,M,R,2026-02-23_12h01.31.814,VisualSearch_2526_3,,2025.2.4,2026-02-23 12h01.32.029311 +0100,
tilted.xlsx,The target is tilted.,117,5,5,0,0,1,1,1,0,0,0,0,0,0,0,0,1,3,4,117,space,4.56195790000038,None,0,1,2.7015387999999803,None,space,2.051126999999724,None,0,1,1,0,,,,,0,5,5,6,306.7544263,,,,,,,,,,,,,,,,,,,,,306.73908480000046,306.7544263,307.2381170999997,307.2426548000003,307.2588403999998,309.9705186000001,,,,,309.9706928000005,309.9859693999997,310.1859427999998,310.1701327999999,307.2588403999998,,,,,,,,0,1,2.7015387999999803,None,,,,,,,,871,21,M,R,2026-02-23_12h01.31.814,VisualSearch_2526_3,,2025.2.4,2026-02-23 12h01.32.029311 +0100,
tilted.xlsx,The target is tilted.,117,6,6,0,1,1,1,1,1,1,1,1,0,0,0,0,0,7,8,117,space,4.56195790000038,None,1,1,2.364868099999512,None,space,2.051126999999724,None,0,1,1,0,,,,,0,6,6,1,310.1859427999998,,,,,,,,,,,,,,,,,,,,,310.1708374,310.1859427999998,310.66946410000037,310.6739911000004,310.6893783000005,313.06927929999983,,,,,313.0694773000005,313.0845578999997,313.2844537000001,313.2687575,310.6893783000005,,,,,,,,1,1,2.364868099999512,None,,,,,,,,871,21,M,R,2026-02-23_12h01.31.814,VisualSearch_2526_3,,2025.2.4,2026-02-23 12h01.32.029311 +0100,
tilted.xlsx,The target is tilted.,117,7,7,0,1,0,0,0,0,0,0,0,0,0,0,0,0,0,1,117,space,4.56195790000038,None,1,1,0.5867013000006409,None,space,2.051126999999724,None,0,1,1,0,,,,,0,7,7,3,313.2844537000001,,,,,,,,,,,,,,,,,,,,,313.2694508000004,313.2844537000001,313.76852450000024,313.77299800000037,313.7893598999999,314.38535200000024,,,,,314.38554699999986,314.40098300000045,314.6008217999997,314.58472059999986,313.7893598999999,,,,,,,,1,1,0.5867013000006409,None,,,,,,,,871,21,M,R,2026-02-23_12h01.31.814,VisualSearch_2526_3,,2025.2.4,2026-02-23 12h01.32.029311 +0100,
tilted.xlsx,The target is tilted.,117,8,0,1,0,0,0,0,0,0,0,0,0,0,0,0,1,1,1,117,space,4.56195790000038,None,0,1,0.7676641999996718,None,space,2.051126999999724,None,0,1,1,0,,,,,1,0,8,7,314.6008217999997,,,,,,,,,,,,,,,,,,,,,314.58544129999973,314.6008217999997,315.08459159999984,315.0890281000002,315.10541569999987,315.8847394000004,,,,,315.8849320999998,315.900087,316.10026050000033,316.0838104000004,315.10541569999987,,,,,,,,0,1,0.7676641999996718,None,,,,,,,,871,21,M,R,2026-02-23_12h01.31.814,VisualSearch_2526_3,,2025.2.4,2026-02-23 12h01.32.029311 +0100,
tilted.xlsx,The target is tilted.,117,9,1,1,1,1,1,1,1,1,1,1,0,0,0,0,0,7,8,117,space,4.56195790000038,None,1,1,2.8940530999998373,None,space,2.051126999999724,None,0,1,1,0,,,,,1,1,9,1,316.10026050000033,,,,,,,,,,,,,,,,,,,,,316.0843955999999,316.10026050000033,316.5833609000001,316.58787140000004,316.5995316999997,319.4996807999996,,,,,319.4998691999999,319.5151770000002,319.7151666,319.69874040000013,316.5995316999997,,,,,,,,1,1,2.8940530999998373,None,,,,,,,,871,21,M,R,2026-02-23_12h01.31.814,VisualSearch_2526_3,,2025.2.4,2026-02-23 12h01.32.029311 +0100,
tilted.xlsx,The target is tilted.,117,10,2,1,1,0,0,0,0,0,0,0,0,0,0,0,0,0,1,117,space,4.56195790000038,None,1,1,0.6052786000000197,None,space,2.051126999999724,None,0,1,1,0,,,,,1,2,10,3,319.7151666,,,,,,,,,,,,,,,,,,,,,319.6994513999998,319.7151666,320.1989021999998,320.20418249999966,320.2190477000004,320.8323902000002,,,,,320.832582,320.84758969999984,321.0479634000003,321.0315235999997,320.2190477000004,,,,,,,,1,1,0.6052786000000197,None,,,,,,,,871,21,M,R,2026-02-23_12h01.31.814,VisualSearch_2526_3,,2025.2.4,2026-02-23 12h01.32.029311 +0100,
tilted.xlsx,The target is tilted.,117,11,3,1,0,1,1,1,0,0,0,0,0,0,0,0,1,3,4,117,space,4.56195790000038,None,0,1,1.135988100000759,None,space,2.051126999999724,None,0,1,1,0,,,,,1,3,11,6,321.0479634000003,,,,,,,,,,,,,,,,,,,,,321.0321905999999,321.0479634000003,321.5315198999997,321.5360241999997,321.5520655,322.6982458000002,,,,,322.69843330000003,322.71346319999975,322.91389080000044,322.89775389999977,321.5520655,,,,,,,,0,1,1.135988100000759,None,,,,,,,,871,21,M,R,2026-02-23_12h01.31.814,VisualSearch_2526_3,,2025.2.4,2026-02-23 12h01.32.029311 +0100,
tilted.xlsx,The target is tilted.,117,12,4,1,1,1,1,1,0,0,0,0,0,0,0,0,0,3,4,117,space,4.56195790000038,None,1,1,0.8507109000001947,None,space,2.051126999999724,None,0,1,1,0,,,,,1,4,12,2,322.91389080000044,,,,,,,,,,,,,,,,,,,,,322.8985639000002,322.91389080000044,323.39744940000037,323.40189889999965,323.4183294000004,324.2805207000001,,,,,324.2807130000001,324.2962994999998,324.4963931000002,324.4801709000003,323.4183294000004,,,,,,,,1,1,0.8507109000001947,None,,,,,,,,871,21,M,R,2026-02-23_12h01.31.814,VisualSearch_2526_3,,2025.2.4,2026-02-23 12h01.32.029311 +0100,
tilted.xlsx,The target is tilted.,117,13,5,1,1,1,1,1,1,1,1,1,1,1,1,1,0,11,12,117,space,4.56195790000038,None,0,0,3.2882334999994782,None,space,2.051126999999724,None,0,1,1,0,,,,,1,5,13,0,324.4963931000002,,,,,,,,,,,,,,,,,,,,,324.4808982000004,324.4963931000002,324.98015099999975,324.98459379999986,325.00100139999995,328.29520109999976,,,,,328.29537419999997,328.3109798000005,328.5112858000002,328.4949151999999,325.00100139999995,,,,,,,,0,0,3.2882334999994782,None,,,,,,,,871,21,M,R,2026-02-23_12h01.31.814,VisualSearch_2526_3,,2025.2.4,2026-02-23 12h01.32.029311 +0100,
tilted.xlsx,The target is tilted.,117,14,6,1,0,1,1,1,1,1,1,1,1,1,1,1,1,11,12,117,space,4.56195790000038,None,0,1,2.7442603999998028,None,space,2.051126999999724,None,0,1,1,0,,,,,1,6,14,4,328.5112858000002,,,,,,,,,,,,,,,,,,,,,328.4957258000004,328.5112858000002,328.9941884,328.9967219,329.0109043000002,331.75938750000023,,,,,331.75949279999986,331.7755723999999,331.9756723999999,331.9592072000005,329.0109043000002,,,,,,,,0,1,2.7442603999998028,None,,,,,,,,871,21,M,R,2026-02-23_12h01.31.814,VisualSearch_2526_3,,2025.2.4,2026-02-23 12h01.32.029311 +0100,
tilted.xlsx,The target is tilted.,117,15,7,1,0,1,1,1,1,1,1,1,0,0,0,0,1,7,8,117,space,4.56195790000038,None,0,1,2.160316200000125,None,space,2.051126999999724,None,0,1,1,0,,,,,1,7,15,5,331.9756723999999,,,,,,,,,,,,,,,,,,,,,331.9595463000005,331.9756723999999,332.4600049999999,332.46510430000035,332.48252200000024,334.6594891000004,,,,,334.659678,334.67475900000045,334.87528870000006,334.85915449999993,,,,,,,,,0,1,2.160316200000125,None,,,,,,,,871,21,M,R,2026-02-23_12h01.31.814,VisualSearch_2526_3,,2025.2.4,2026-02-23 12h01.32.029311 +0100,
tilted.xlsx,The target is tilted.,117,16,0,2,0,0,0,0,0,0,0,0,0,0,0,0,1,1,1,117,space,4.56195790000038,None,0,1,0.7592666000000463,None,space,2.051126999999724,None,0,1,1,0,,,,,2,0,16,7,334.87528870000006,,,,,,,,,,,,,,,,,,,,,334.8599769000002,334.87528870000006,335.35890740000013,335.3639751999999,335.3800489000005,336.1421342000003,,,,,336.1423224,336.1577877,336.3576925999996,336.34145549999994,335.3800489000005,,,,,,,,0,1,0.7592666000000463,None,,,,,,,,871,21,M,R,2026-02-23_12h01.31.814,VisualSearch_2526_3,,2025.2.4,2026-02-23 12h01.32.029311 +0100,
tilted.xlsx,The target is tilted.,117,17,1,2,1,1,1,1,1,1,1,1,1,1,1,1,0,11,12,117,space,4.56195790000038,None,0,0,2.7967091999998956,None,space,2.051126999999724,None,0,1,1,0,,,,,2,1,17,0,336.3576925999996,,,,,,,,,,,,,,,,,,,,,336.3422096000004,336.3576925999996,336.8409123000001,336.84532930000023,336.8605217000004,339.6735576000001,,,,,339.6737499000001,339.68903820000014,339.8895536,339.87340959999983,336.8605217000004,,,,,,,,0,0,2.7967091999998956,None,,,,,,,,871,21,M,R,2026-02-23_12h01.31.814,VisualSearch_2526_3,,2025.2.4,2026-02-23 12h01.32.029311 +0100,
tilted.xlsx,The target is tilted.,117,18,2,2,0,1,1,1,1,1,1,1,1,1,1,1,1,11,12,117,space,4.56195790000038,None,0,1,4.152724100000341,None,space,2.051126999999724,None,0,1,1,0,,,,,2,2,18,4,339.8895536,,,,,,,,,,,,,,,,,,,,,339.8742235999998,339.8895536,340.3730836000004,340.3776117999996,340.39474169999994,344.55493279999973,,,,,344.55510219999996,344.57053110000015,344.77033980000033,344.7544426000004,340.39474169999994,,,,,,,,0,1,4.152724100000341,None,,,,,,,,871,21,M,R,2026-02-23_12h01.31.814,VisualSearch_2526_3,,2025.2.4,2026-02-23 12h01.32.029311 +0100,
tilted.xlsx,The target is tilted.,117,19,3,2,0,1,1,1,1,1,1,1,0,0,0,0,1,7,8,117,space,4.56195790000038,None,0,1,2.8130920000003243,None,space,2.051126999999724,None,0,1,1,0,,,,,2,3,19,5,344.77033980000033,,,,,,,,,,,,,,,,,,,,,344.75516890000017,344.77033980000033,345.2543303000002,345.25949219999984,345.27616060000037,348.10346349999963,,,,,348.1036598999999,348.1189549999999,348.31892289999996,348.3027401999998,345.27616060000037,,,,,,,,0,1,2.8130920000003243,None,,,,,,,,871,21,M,R,2026-02-23_12h01.31.814,VisualSearch_2526_3,,2025.2.4,2026-02-23 12h01.32.029311 +0100,
tilted.xlsx,The target is tilted.,117,20,4,2,1,1,1,1,0,0,0,0,0,0,0,0,0,3,4,117,space,4.56195790000038,None,1,1,1.0293135000001712,None,space,2.051126999999724,None,0,1,1,0,,,,,2,4,20,2,348.31892289999996,,,,,,,,,,,,,,,,,,,,,348.30346569999983,348.31892289999996,348.8022142,348.8066533000001,348.8228946999998,349.86897450000015,,,,,349.8691657999998,349.88446339999973,350.08477270000003,350.06872099999964,348.8228946999998,,,,,,,,1,1,1.0293135000001712,None,,,,,,,,871,21,M,R,2026-02-23_12h01.31.814,VisualSearch_2526_3,,2025.2.4,2026-02-23 12h01.32.029311 +0100,
tilted.xlsx,The target is tilted.,117,21,5,2,1,1,1,1,1,1,1,1,0,0,0,0,0,7,8,117,space,4.56195790000038,None,1,1,0.6336525999995501,None,space,2.051126999999724,None,0,1,1,0,,,,,2,5,21,1,350.08477270000003,,,,,,,,,,,,,,,,,,,,,350.0694169999997,350.08477270000003,350.5684798000002,350.57289909999963,350.5895671999997,351.2353073000004,,,,,351.2354967000001,351.25085149999995,351.4507626000004,351.43471820000013,350.5895671999997,,,,,,,,1,1,0.6336525999995501,None,,,,,,,,871,21,M,R,2026-02-23_12h01.31.814,VisualSearch_2526_3,,2025.2.4,2026-02-23 12h01.32.029311 +0100,
tilted.xlsx,The target is tilted.,117,22,6,2,1,0,0,0,0,0,0,0,0,0,0,0,0,0,1,117,space,4.56195790000038,None,1,1,0.5654224999998405,None,space,2.051126999999724,None,0,1,1,0,,,,,2,6,22,3,351.4507626000004,,,,,,,,,,,,,,,,,,,,,351.4355396000001,351.4507626000004,351.93470179999986,351.93946870000036,351.95690470000045,352.53471569999965,,,,,352.53490580000016,352.5502752000002,352.7498934000005,352.7341341000001,351.95690470000045,,,,,,,,1,1,0.5654224999998405,None,,,,,,,,871,21,M,R,2026-02-23_12h01.31.814,VisualSearch_2526_3,,2025.2.4,2026-02-23 12h01.32.029311 +0100,
tilted.xlsx,The target is tilted.,117,23,7,2,0,1,1,1,0,0,0,0,0,0,0,0,1,3,4,117,space,4.56195790000038,None,0,1,1.2828159999999116,None,space,2.051126999999724,None,0,1,1,0,,,,,2,7,23,6,352.7498934000005,,,,,,,,,,,,,,,,,,,,,352.7348582000004,352.7498934000005,353.2339238000004,353.2384688000002,353.25472569999965,354.55045900000005,,,,,354.55066069999975,354.5660327000005,354.7659672,354.7498821999998,353.25472569999965,,,,,,,,0,1,1.2828159999999116,None,,,,,,,,871,21,M,R,2026-02-23_12h01.31.814,VisualSearch_2526_3,,2025.2.4,2026-02-23 12h01.32.029311 +0100,
tilted.xlsx,The target is tilted.,117,24,0,3,1,0,0,0,0,0,0,0,0,0,0,0,0,0,1,117,space,4.56195790000038,None,1,1,0.7697845000002417,None,space,2.051126999999724,None,0,1,1,0,,,,,3,0,24,3,354.7659672,,,,,,,,,,,,,,,,,,,,,354.7505997999997,354.7659672,355.24967560000005,355.2540853999999,355.27051949999986,356.0501443000003,,,,,356.0503276999998,356.0654007000003,356.26522320000004,356.24914609999996,355.27051949999986,,,,,,,,1,1,0.7697845000002417,None,,,,,,,,871,21,M,R,2026-02-23_12h01.31.814,VisualSearch_2526_3,,2025.2.4,2026-02-23 12h01.32.029311 +0100,
tilted.xlsx,The target is tilted.,117,25,1,3,0,1,1,1,0,0,0,0,0,0,0,0,1,3,4,117,space,4.56195790000038,None,0,1,1.2703990999998496,None,space,2.051126999999724,None,0,1,1,0,,,,,3,1,25,6,356.26522320000004,,,,,,,,,,,,,,,,,,,,,356.24986290000015,356.26522320000004,356.7490746000003,356.75352509999993,356.7697132000003,358.04853019999973,,,,,358.0487227000003,358.06401110000024,358.26409859999967,358.2482914000002,356.7697132000003,,,,,,,,0,1,1.2703990999998496,None,,,,,,,,871,21,M,R,2026-02-23_12h01.31.814,VisualSearch_2526_3,,2025.2.4,2026-02-23 12h01.32.029311 +0100,
tilted.xlsx,The target is tilted.,117,26,2,3,0,0,0,0,0,0,0,0,0,0,0,0,1,1,1,117,space,4.56195790000038,None,0,1,0.654583200000161,None,space,2.051126999999724,None,0,1,1,0,,,,,3,2,26,7,358.26409859999967,,,,,,,,,,,,,,,,,,,,,358.2489856000002,358.26409859999967,358.74777259999973,358.75222399999984,358.7686924999998,359.43144759999996,,,,,359.4316353000004,359.44714589999967,359.64680529999987,359.6309186999997,358.7686924999998,,,,,,,,0,1,0.654583200000161,None,,,,,,,,871,21,M,R,2026-02-23_12h01.31.814,VisualSearch_2526_3,,2025.2.4,2026-02-23 12h01.32.029311 +0100,
tilted.xlsx,The target is tilted.,117,27,3,3,1,1,1,1,1,1,1,1,0,0,0,0,0,7,8,117,space,4.56195790000038,None,1,1,1.2450325999998313,None,space,2.051126999999724,None,0,1,1,0,,,,,3,3,27,1,359.64680529999987,,,,,,,,,,,,,,,,,,,,,359.63171539999985,359.64680529999987,360.1300067000002,360.13248810000005,360.1467942999998,361.39676640000016,,,,,361.3969139999999,361.41280949999964,361.612607,361.5968362000003,360.1467942999998,,,,,,,,1,1,1.2450325999998313,None,,,,,,,,871,21,M,R,2026-02-23_12h01.31.814,VisualSearch_2526_3,,2025.2.4,2026-02-23 12h01.32.029311 +0100,
tilted.xlsx,The target is tilted.,117,28,4,3,0,1,1,1,1,1,1,1,0,0,0,0,1,7,8,117,space,4.56195790000038,None,0,1,2.126958900000318,None,space,2.051126999999724,None,0,1,1,0,,,,,3,4,28,5,361.612607,,,,,,,,,,,,,,,,,,,,,361.59760389999974,361.612607,362.0959995000003,362.1004549999998,362.1158895999997,364.24617039999976,,,,,364.24639579999985,364.26138439999977,364.46158540000033,364.4457319000003,362.1158895999997,,,,,,,,0,1,2.126958900000318,None,,,,,,,,871,21,M,R,2026-02-23_12h01.31.814,VisualSearch_2526_3,,2025.2.4,2026-02-23 12h01.32.029311 +0100,
tilted.xlsx,The target is tilted.,117,29,5,3,1,1,1,1,1,1,1,1,1,1,1,1,0,11,12,117,space,4.56195790000038,None,0,0,3.1450425000002724,None,space,2.051126999999724,None,0,1,1,0,,,,,3,5,29,0,364.46158540000033,,,,,,,,,,,,,,,,,,,,,364.44656620000023,364.46158540000033,364.94525109999995,364.9496478000001,364.96596210000007,368.12772419999965,,,,,368.1279520999997,368.14321459999974,368.34317290000035,368.3266814999997,364.96596210000007,,,,,,,,0,0,3.1450425000002724,None,,,,,,,,871,21,M,R,2026-02-23_12h01.31.814,VisualSearch_2526_3,,2025.2.4,2026-02-23 12h01.32.029311 +0100,
tilted.xlsx,The target is tilted.,117,30,6,3,0,1,1,1,1,1,1,1,1,1,1,1,1,11,12,117,space,4.56195790000038,None,0,1,3.5879782000001796,None,space,2.051126999999724,None,0,1,1,0,,,,,3,6,30,4,368.34317290000035,,,,,,,,,,,,,,,,,,,,,368.32742789999975,368.34317290000035,368.8268360000002,368.83132320000004,368.84227869999995,372.44234789999973,,,,,372.44254060000003,372.4575482,372.6579069999998,372.6416742000001,368.84227869999995,,,,,,,,0,1,3.5879782000001796,None,,,,,,,,871,21,M,R,2026-02-23_12h01.31.814,VisualSearch_2526_3,,2025.2.4,2026-02-23 12h01.32.029311 +0100,
tilted.xlsx,The target is tilted.,117,31,7,3,1,1,1,1,0,0,0,0,0,0,0,0,0,3,4,117,space,4.56195790000038,None,1,1,0.7519758999997066,None,space,2.051126999999724,None,0,1,1,0,,,,,3,7,31,2,372.6579069999998,,,,,,,,,,,,,,,,,,,,,372.6423904000003,372.6579069999998,373.1414756000004,373.14595519999966,373.15748110000004,373.92501809999976,,,,,373.9252101000002,373.9403232000004,374.1404623999997,374.12443970000004,373.15748110000004,,,,,,,,1,1,0.7519758999997066,None,,,,,,,,871,21,M,R,2026-02-23_12h01.31.814,VisualSearch_2526_3,,2025.2.4,2026-02-23 12h01.32.029311 +0100,
tilted.xlsx,The target is tilted.,117,32,0,4,0,1,1,1,0,0,0,0,0,0,0,0,1,3,4,117,space,4.56195790000038,None,0,1,1.3279708000000028,None,space,2.051126999999724,None,0,1,1,0,,,,,4,0,32,6,374.1404623999997,,,,,,,,,,,,,,,,,,,,,374.1251456,374.1404623999997,374.6241915999999,374.6287390999996,374.6451176999999,375.99035730000014,,,,,375.9905303000005,376.0061857999999,376.20611240000017,376.1902097000002,374.6451176999999,,,,,,,,0,1,1.3279708000000028,None,,,,,,,,871,21,M,R,2026-02-23_12h01.31.814,VisualSearch_2526_3,,2025.2.4,2026-02-23 12h01.32.029311 +0100,
tilted.xlsx,The target is tilted.,117,33,1,4,1,1,1,1,1,1,1,1,1,1,1,1,0,11,12,117,space,4.56195790000038,None,1,1,1.6089936999997008,None,space,2.051126999999724,None,0,1,1,0,,,,,4,1,33,0,376.20611240000017,,,,,,,,,,,,,,,,,,,,,376.1909115999997,376.20611240000017,376.6899204000001,376.6944506,376.7107212000001,378.32290360000025,,,,,378.32307519999995,378.33862430000045,378.5385501999999,378.5222660999998,376.7107212000001,,,,,,,,1,1,1.6089936999997008,None,,,,,,,,871,21,M,R,2026-02-23_12h01.31.814,VisualSearch_2526_3,,2025.2.4,2026-02-23 12h01.32.029311 +0100,
