file_name,block_instructions,target_example,thisN,thisTrialN,thisRepN,target_presence,opacity_1,opacity_2,opacity_3,opacity_4,opacity_5,opacity_6,opacity_7,opacity_8,opacity_9,opacity_10,opacity_11,opacity_12,n_distract,n_items,target_ori,key_resp_4.keys,key_resp_4.rt,key_resp_4.duration,key_resp.keys,key_resp.corr,key_resp.rt,key_resp.duration,key_resp_5.keys,key_resp_5.rt,key_resp_5.duration,blocks.thisRepN,blocks.thisTrialN,blocks.thisN,blocks.thisIndex,practice_trials.thisRepN,practice_trials.thisTrialN,practice_trials.thisN,practice_trials.thisIndex,trials.thisRepN,trials.thisTrialN,trials.thisN,trials.thisIndex,thisRow.t,notes,Welcome.started,WelcomeText.started,key_resp_2.started,Welcome.stopped,key_resp_2.keys,key_resp_2.rt,key_resp_2.duration,InformedConsent.started,text_4.started,InformedConsent.stopped,key_resp_6.keys,key_resp_6.rt,key_resp_6.duration,key_resp_4.started,example_target.started,text_3.started,blocks.key_resp_4.keys,blocks.key_resp_4.rt,blocks.key_resp_4.duration,FixCross.started,fixCross.started,FixCross.stopped,Stimulus.started,key_resp.started,Stimulus.stopped,practice_trials.key_resp.keys,practice_trials.key_resp.corr,practice_trials.key_resp.rt,practice_trials.key_resp.duration,BlankScreen.started,text.started,text.stopped,BlankScreen.stopped,fixCross.stopped,ExperimentStart.started,text_2.started,key_resp_5.started,ExperimentStart.stopped,blocks.key_resp_5.keys,blocks.key_resp_5.rt,blocks.key_resp_5.duration,trials.key_resp.keys,trials.key_resp.corr,trials.key_resp.rt,trials.key_resp.duration,Thanks.started,ThankYou.started,key_resp_3.started,Thanks.stopped,key_resp_3.keys,key_resp_3.rt,key_resp_3.duration,participant,leeftijd,gender,links/rechtshandig,date,expName,expVersion,psychopyVersion,expStart,
,,,,,,,,,,,,,,,,,,,,,,,,,,,,,,,,,,,,,,,,,,,,,,0.03841469999997571,0.06351169999993544,0.06351169999993544,42.98262579999994,space,42.77029459999994,None,,,,,,,,,,,,,,,,,,,,,,,,,,,,,,,,,,,,,,,,,,,,,,881,22,M,R,2026-02-18_11h10.28.541,VisualSearch_2526_3,,2025.2.4,2026-02-18 11h10.29.395938 +0100,
,,,,,,,,,,,,,,,,,,,,,,,,,,,,,,,,,,,,,,,,,,,,,,,,,,,,,42.98270579999996,42.98828029999993,45.39480179999998,y,2.407916200000045,None,,,,,,,,,,,,,,,,,,,,,,,,,,,,,,,,,,,,,,,,881,22,M,R,2026-02-18_11h10.28.541,VisualSearch_2526_3,,2025.2.4,2026-02-18 11h10.29.395938 +0100,
vertical.xlsx,The target is tilted.,135,0,0,0,0,1,1,1,1,1,1,1,0,0,0,0,1,7,8,135,space,4.976812399999972,None,0,1,2.496336700000029,None,,,,0,0,0,1,0,0,0,5,,,,,50.523973299999966,,,,,,,,,,,,,,,45.49175709999997,45.49175709999997,45.49175709999997,space,4.976812399999972,None,50.51921970000001,50.523973299999966,50.991183699999965,50.99657149999996,51.01608599999997,53.523786900000005,0,1,2.496336700000029,None,53.52397810000002,53.539652899999965,53.73964509999996,53.723300600000016,,,,,,,,,,,,,,,,,,,,881,22,M,R,2026-02-18_11h10.28.541,VisualSearch_2526_3,,2025.2.4,2026-02-18 11h10.29.395938 +0100,
vertical.xlsx,The target is tilted.,135,1,1,0,0,0,0,0,0,0,0,0,0,0,0,0,1,1,1,135,space,4.976812399999972,None,0,1,1.0372948000000406,None,,,,0,0,0,1,0,1,1,7,,,,,53.73964509999996,,,,,,,,,,,,,,,,,,,,,53.72405719999995,53.73964509999996,54.223122399999966,54.228027,54.24736339999993,55.289858200000026,0,1,1.0372948000000406,None,55.29007719999993,55.30546059999995,55.505191099999934,55.48949259999995,54.24736339999993,,,,,,,,,,,,,,,,,,,881,22,M,R,2026-02-18_11h10.28.541,VisualSearch_2526_3,,2025.2.4,2026-02-18 11h10.29.395938 +0100,
vertical.xlsx,The target is tilted.,135,2,2,0,0,1,1,1,1,1,1,1,1,1,1,1,1,11,12,135,space,4.976812399999972,None,0,1,1.1200469999999996,None,,,,0,0,0,1,0,2,2,4,,,,,55.505191099999934,,,,,,,,,,,,,,,,,,,,,55.49026309999999,55.505191099999934,55.989280699999995,55.995670599999926,56.015438700000004,57.13879650000001,0,1,1.1200469999999996,None,57.13898359999996,57.15401239999994,57.35459830000002,57.33846310000001,56.015438700000004,,,,,,,,,,,,,,,,,,,881,22,M,R,2026-02-18_11h10.28.541,VisualSearch_2526_3,,2025.2.4,2026-02-18 11h10.29.395938 +0100,
vertical.xlsx,The target is tilted.,135,3,3,0,1,1,1,1,0,0,0,0,0,0,0,0,0,3,4,135,space,4.976812399999972,None,1,1,0.9911689999998998,None,,,,0,0,0,1,0,3,3,2,,,,,57.35459830000002,,,,,,,,,,,,,,,,,,,,,57.339196300000026,57.35459830000002,57.83829939999998,57.8438999,57.863229899999965,58.8705119,1,1,0.9911689999998998,None,58.87062489999994,58.88687379999999,,59.0707572,57.863229899999965,,,,,,,,,,,,,,,,,,,881,22,M,R,2026-02-18_11h10.28.541,VisualSearch_2526_3,,2025.2.4,2026-02-18 11h10.29.395938 +0100,
vertical.xlsx,The target is tilted.,135,4,4,0,1,1,1,1,1,1,1,1,1,1,1,1,0,11,12,135,space,4.976812399999972,None,0,0,2.0893279999999095,None,,,,0,0,0,1,0,4,4,0,,,,,59.08693310000001,,,,,,,,,,,,,,,,,,,,,59.07150809999996,59.08693310000001,59.57094540000003,59.57631779999997,59.59550449999995,61.687488099999996,0,0,2.0893279999999095,None,61.68767819999994,61.702507399999945,61.902588599999945,61.88642140000002,59.59550449999995,,,,,,,,,,,,,,,,,,,881,22,M,R,2026-02-18_11h10.28.541,VisualSearch_2526_3,,2025.2.4,2026-02-18 11h10.29.395938 +0100,
vertical.xlsx,The target is tilted.,135,5,5,0,0,1,1,1,0,0,0,0,0,0,0,0,1,3,4,135,space,4.976812399999972,None,0,1,1.1366199999999935,None,,,,0,0,0,1,0,5,5,6,,,,,61.902588599999945,,,,,,,,,,,,,,,,,,,,,61.88712999999996,61.902588599999945,62.3860962,62.390601699999934,62.40221589999999,63.55172479999999,0,1,1.1366199999999935,None,63.551840500000026,63.56810999999993,,63.752078900000015,62.40221589999999,,,,,,,,,,,,,,,,,,,881,22,M,R,2026-02-18_11h10.28.541,VisualSearch_2526_3,,2025.2.4,2026-02-18 11h10.29.395938 +0100,
vertical.xlsx,The target is tilted.,135,6,6,0,1,0,0,0,0,0,0,0,0,0,0,0,0,0,1,135,space,4.976812399999972,None,1,1,0.8676731000000473,None,,,,0,0,0,1,0,6,6,3,,,,,63.76844589999996,,,,,,,,,,,,,,,,,,,,,63.75281640000003,63.76844589999996,64.25199069999996,64.25747279999996,64.27698720000001,65.15182189999996,1,1,0.8676731000000473,None,65.15201009999998,65.16716109999993,65.36767250000003,65.3514993,,,,,,,,,,,,,,,,,,,,881,22,M,R,2026-02-18_11h10.28.541,VisualSearch_2526_3,,2025.2.4,2026-02-18 11h10.29.395938 +0100,
vertical.xlsx,The target is tilted.,135,7,7,0,1,1,1,1,1,1,1,1,0,0,0,0,0,7,8,135,space,4.976812399999972,None,1,1,1.232574999999997,None,,,,0,0,0,1,0,7,7,1,,,,,65.36767250000003,,,,,,,,,,,,,,,,,,,,,65.35223659999997,65.36767250000003,65.85131639999997,65.85631709999996,65.87580609999998,67.11800229999994,1,1,1.232574999999997,None,67.11818859999994,67.13279609999995,67.33345829999996,67.31744709999998,65.87580609999998,,,,,,,,,,,,,,,,,,,881,22,M,R,2026-02-18_11h10.28.541,VisualSearch_2526_3,,2025.2.4,2026-02-18 11h10.29.395938 +0100,
vertical.xlsx,The target is tilted.,135,0,0,0,1,1,1,1,1,1,1,1,0,0,0,0,0,7,8,135,space,4.976812399999972,None,0,0,1.445118999999977,None,space,2.4867255999999998,None,0,0,0,1,,,,,0,0,0,1,69.86935719999997,,,,,,,,,,,,,,,,,,,,,69.86519399999997,69.86935719999997,70.34907079999994,70.35439969999993,70.3739372,71.83183899999995,,,,,71.83205759999998,71.84750780000002,72.04798040000003,72.03183149999995,,67.32496779999997,67.33345829999996,67.33345829999996,69.83300859999997,space,2.4867255999999998,None,0,0,1.445118999999977,None,,,,,,,,881,22,M,R,2026-02-18_11h10.28.541,VisualSearch_2526_3,,2025.2.4,2026-02-18 11h10.29.395938 +0100,
vertical.xlsx,The target is tilted.,135,1,1,0,1,1,1,1,0,0,0,0,0,0,0,0,0,3,4,135,space,4.976812399999972,None,0,0,1.1565926000000673,None,space,2.4867255999999998,None,0,0,0,1,,,,,0,1,1,2,72.04798040000003,,,,,,,,,,,,,,,,,,,,,72.03257729999996,72.04798040000003,72.53156109999998,72.53640250000001,72.5558466,73.71494819999998,,,,,73.71516150000002,73.72993580000002,73.93037700000002,73.91420459999995,72.5558466,,,,,,,,0,0,1.1565926000000673,None,,,,,,,,881,22,M,R,2026-02-18_11h10.28.541,VisualSearch_2526_3,,2025.2.4,2026-02-18 11h10.29.395938 +0100,
vertical.xlsx,The target is tilted.,135,2,2,0,0,1,1,1,0,0,0,0,0,0,0,0,1,3,4,135,space,4.976812399999972,None,0,1,1.0032400999999709,None,space,2.4867255999999998,None,0,0,0,1,,,,,0,2,2,6,73.93037700000002,,,,,,,,,,,,,,,,,,,,,73.91495499999996,73.93037700000002,74.41406559999996,74.42025769999998,74.43971439999996,75.44710209999994,,,,,75.4473117,75.46249649999993,75.66288959999997,75.64645369999994,74.43971439999996,,,,,,,,0,1,1.0032400999999709,None,,,,,,,,881,22,M,R,2026-02-18_11h10.28.541,VisualSearch_2526_3,,2025.2.4,2026-02-18 11h10.29.395938 +0100,
vertical.xlsx,The target is tilted.,135,3,3,0,1,1,1,1,1,1,1,1,1,1,1,1,0,11,12,135,space,4.976812399999972,None,1,1,1.5794922000000042,None,space,2.4867255999999998,None,0,0,0,1,,,,,0,3,3,0,75.66288959999997,,,,,,,,,,,,,,,,,,,,,75.647201,75.66288959999997,76.14670290000004,76.15232049999997,76.16905689999999,77.7621183,,,,,77.76225620000002,77.77851959999998,,77.96237139999994,76.16905689999999,,,,,,,,1,1,1.5794922000000042,None,,,,,,,,881,22,M,R,2026-02-18_11h10.28.541,VisualSearch_2526_3,,2025.2.4,2026-02-18 11h10.29.395938 +0100,
vertical.xlsx,The target is tilted.,135,4,4,0,0,0,0,0,0,0,0,0,0,0,0,0,1,1,1,135,space,4.976812399999972,None,0,1,0.8356169000001046,None,space,2.4867255999999998,None,0,0,0,1,,,,,0,4,4,7,77.97877040000003,,,,,,,,,,,,,,,,,,,,,77.96327120000001,77.97877040000003,78.46226409999997,78.46709009999995,78.48662709999996,79.32923629999993,,,,,79.32945540000003,79.34385650000002,79.54456299999993,79.52812199999994,78.48662709999996,,,,,,,,0,1,0.8356169000001046,None,,,,,,,,881,22,M,R,2026-02-18_11h10.28.541,VisualSearch_2526_3,,2025.2.4,2026-02-18 11h10.29.395938 +0100,
vertical.xlsx,The target is tilted.,135,5,5,0,0,1,1,1,1,1,1,1,0,0,0,0,1,7,8,135,space,4.976812399999972,None,0,1,1.5966688999999405,None,space,2.4867255999999998,None,0,0,0,1,,,,,0,5,5,5,79.54456299999993,,,,,,,,,,,,,,,,,,,,,79.52887179999993,79.54456299999993,80.02810879999993,80.03296460000001,80.05246479999994,81.66094609999993,,,,,81.66116209999996,81.67635259999997,81.87682729999995,81.86074610000003,80.05246479999994,,,,,,,,0,1,1.5966688999999405,None,,,,,,,,881,22,M,R,2026-02-18_11h10.28.541,VisualSearch_2526_3,,2025.2.4,2026-02-18 11h10.29.395938 +0100,
vertical.xlsx,The target is tilted.,135,6,6,0,1,0,0,0,0,0,0,0,0,0,0,0,0,0,1,135,space,4.976812399999972,None,1,1,0.499851700000022,None,space,2.4867255999999998,None,0,0,0,1,,,,,0,6,6,3,81.87682729999995,,,,,,,,,,,,,,,,,,,,,81.861492,81.87682729999995,82.360637,82.36625040000001,82.3861283,82.89383599999996,,,,,82.89403379999999,82.90915389999998,83.10964820000004,83.09315530000003,82.3861283,,,,,,,,1,1,0.499851700000022,None,,,,,,,,881,22,M,R,2026-02-18_11h10.28.541,VisualSearch_2526_3,,2025.2.4,2026-02-18 11h10.29.395938 +0100,
vertical.xlsx,The target is tilted.,135,7,7,0,0,1,1,1,1,1,1,1,1,1,1,1,1,11,12,135,space,4.976812399999972,None,0,1,2.1319273000000294,None,space,2.4867255999999998,None,0,0,0,1,,,,,0,7,7,4,83.10964820000004,,,,,,,,,,,,,,,,,,,,,83.0939098,83.10964820000004,83.5931488,83.59804840000004,83.61805879999997,85.75960220000002,,,,,85.75980930000003,85.77429799999993,85.9748856,85.95871599999998,83.61805879999997,,,,,,,,0,1,2.1319273000000294,None,,,,,,,,881,22,M,R,2026-02-18_11h10.28.541,VisualSearch_2526_3,,2025.2.4,2026-02-18 11h10.29.395938 +0100,
vertical.xlsx,The target is tilted.,135,8,0,1,0,1,1,1,0,0,0,0,0,0,0,0,1,3,4,135,space,4.976812399999972,None,0,1,0.6696021000000201,None,space,2.4867255999999998,None,0,0,0,1,,,,,1,0,8,6,85.9748856,,,,,,,,,,,,,,,,,,,,,85.95951749999995,85.9748856,86.4588013,86.46445119999998,86.48422359999995,87.15878329999998,,,,,87.15900099999999,87.17370770000002,87.3739746,87.35821699999997,86.48422359999995,,,,,,,,0,1,0.6696021000000201,None,,,,,,,,881,22,M,R,2026-02-18_11h10.28.541,VisualSearch_2526_3,,2025.2.4,2026-02-18 11h10.29.395938 +0100,
vertical.xlsx,The target is tilted.,135,9,1,1,0,0,0,0,0,0,0,0,0,0,0,0,1,1,1,135,space,4.976812399999972,None,0,1,0.8017064000000573,None,space,2.4867255999999998,None,0,0,0,1,,,,,1,1,9,7,87.3739746,,,,,,,,,,,,,,,,,,,,,87.35894129999997,87.3739746,87.858026,87.86329460000002,87.88140869999995,88.69143569999994,,,,,88.69163749999996,88.70650879999994,88.90699259999997,88.89087419999998,87.88140869999995,,,,,,,,0,1,0.8017064000000573,None,,,,,,,,881,22,M,R,2026-02-18_11h10.28.541,VisualSearch_2526_3,,2025.2.4,2026-02-18 11h10.29.395938 +0100,
vertical.xlsx,The target is tilted.,135,10,2,1,1,1,1,1,1,1,1,1,1,1,1,1,0,11,12,135,space,4.976812399999972,None,0,0,1.9202630999999428,None,space,2.4867255999999998,None,0,0,0,1,,,,,1,2,10,0,88.90699259999997,,,,,,,,,,,,,,,,,,,,,88.89173329999994,88.90699259999997,89.39065829999993,89.39547849999997,89.41499699999997,91.34019219999993,,,,,91.3403988,91.35538919999999,91.55568219999998,91.53954769999996,89.41499699999997,,,,,,,,0,0,1.9202630999999428,None,,,,,,,,881,22,M,R,2026-02-18_11h10.28.541,VisualSearch_2526_3,,2025.2.4,2026-02-18 11h10.29.395938 +0100,
vertical.xlsx,The target is tilted.,135,11,3,1,0,1,1,1,1,1,1,1,0,0,0,0,1,7,8,135,space,4.976812399999972,None,0,1,1.8746796000000359,None,space,2.4867255999999998,None,0,0,0,1,,,,,1,3,11,5,91.55568219999998,,,,,,,,,,,,,,,,,,,,,91.54028900000003,91.55568219999998,92.03977439999994,92.04461359999993,92.05542579999997,93.93969749999997,,,,,93.93992449999996,93.95417179999993,94.15456719999997,94.13839769999993,92.05542579999997,,,,,,,,0,1,1.8746796000000359,None,,,,,,,,881,22,M,R,2026-02-18_11h10.28.541,VisualSearch_2526_3,,2025.2.4,2026-02-18 11h10.29.395938 +0100,
vertical.xlsx,The target is tilted.,135,12,4,1,0,1,1,1,1,1,1,1,1,1,1,1,1,11,12,135,space,4.976812399999972,None,0,1,2.7915398000000096,None,space,2.4867255999999998,None,0,0,0,1,,,,,1,4,12,4,94.15456719999997,,,,,,,,,,,,,,,,,,,,,94.13917809999998,94.15456719999997,94.63767359999997,94.6408702,94.65424559999997,97.45392300000003,,,,,97.45413859999996,97.46902339999997,97.66960770000003,97.65316139999993,94.65424559999997,,,,,,,,0,1,2.7915398000000096,None,,,,,,,,881,22,M,R,2026-02-18_11h10.28.541,VisualSearch_2526_3,,2025.2.4,2026-02-18 11h10.29.395938 +0100,
vertical.xlsx,The target is tilted.,135,13,5,1,1,1,1,1,0,0,0,0,0,0,0,0,0,3,4,135,space,4.976812399999972,None,1,1,0.6591875999999957,None,space,2.4867255999999998,None,0,0,0,1,,,,,1,5,13,2,97.66960770000003,,,,,,,,,,,,,,,,,,,,,97.65401180000003,97.66960770000003,98.15304170000002,98.15794240000002,98.17789489999996,98.85241959999996,,,,,98.85254229999998,98.86896379999996,99.06895899999995,99.05278350000003,98.17789489999996,,,,,,,,1,1,0.6591875999999957,None,,,,,,,,881,22,M,R,2026-02-18_11h10.28.541,VisualSearch_2526_3,,2025.2.4,2026-02-18 11h10.29.395938 +0100,
vertical.xlsx,The target is tilted.,135,14,6,1,1,1,1,1,1,1,1,1,0,0,0,0,0,7,8,135,space,4.976812399999972,None,1,1,1.0328153000000384,None,space,2.4867255999999998,None,0,0,0,1,,,,,1,6,14,1,99.06895899999995,,,,,,,,,,,,,,,,,,,,,99.05350049999993,99.06895899999995,99.5526049,99.55747269999995,99.57702459999996,100.61914519999993,,,,,100.61937379999995,100.63445679999995,100.83487100000002,100.81886080000004,99.57702459999996,,,,,,,,1,1,1.0328153000000384,None,,,,,,,,881,22,M,R,2026-02-18_11h10.28.541,VisualSearch_2526_3,,2025.2.4,2026-02-18 11h10.29.395938 +0100,
vertical.xlsx,The target is tilted.,135,15,7,1,1,0,0,0,0,0,0,0,0,0,0,0,0,0,1,135,space,4.976812399999972,None,1,1,0.6783047999999781,None,space,2.4867255999999998,None,0,0,0,1,,,,,1,7,15,3,100.83487100000002,,,,,,,,,,,,,,,,,,,,,100.81959489999997,100.83487100000002,101.3185982,101.32366289999993,101.34304250000002,102.03427569999997,,,,,102.03439849999995,102.05065109999998,,102.23457489999998,101.34304250000002,,,,,,,,1,1,0.6783047999999781,None,,,,,,,,881,22,M,R,2026-02-18_11h10.28.541,VisualSearch_2526_3,,2025.2.4,2026-02-18 11h10.29.395938 +0100,
vertical.xlsx,The target is tilted.,135,16,0,2,1,1,1,1,0,0,0,0,0,0,0,0,0,3,4,135,space,4.976812399999972,None,1,1,0.9535345999998981,None,space,2.4867255999999998,None,0,0,0,1,,,,,2,0,16,2,102.25105640000004,,,,,,,,,,,,,,,,,,,,,102.23539789999995,102.25105640000004,102.73470039999995,102.73986070000001,102.75925480000001,103.71801470000003,,,,,103.71822680000002,103.73285950000002,103.93333499999994,103.9172939,102.75925480000001,,,,,,,,1,1,0.9535345999998981,None,,,,,,,,881,22,M,R,2026-02-18_11h10.28.541,VisualSearch_2526_3,,2025.2.4,2026-02-18 11h10.29.395938 +0100,
vertical.xlsx,The target is tilted.,135,17,1,2,1,1,1,1,1,1,1,1,0,0,0,0,0,7,8,135,space,4.976812399999972,None,1,1,1.003398099999913,None,space,2.4867255999999998,None,0,0,0,1,,,,,2,1,17,1,103.93333499999994,,,,,,,,,,,,,,,,,,,,,103.91805239999997,103.93333499999994,104.41703180000002,104.42192109999996,104.441057,105.45050389999994,,,,,105.45072559999994,105.4654018,105.66603169999996,105.6498451,104.441057,,,,,,,,1,1,1.003398099999913,None,,,,,,,,881,22,M,R,2026-02-18_11h10.28.541,VisualSearch_2526_3,,2025.2.4,2026-02-18 11h10.29.395938 +0100,
vertical.xlsx,The target is tilted.,135,18,2,2,0,1,1,1,1,1,1,1,1,1,1,1,1,11,12,135,space,4.976812399999972,None,0,1,2.699363999999946,None,space,2.4867255999999998,None,0,0,0,1,,,,,2,2,18,4,105.66603169999996,,,,,,,,,,,,,,,,,,,,,105.65058390000002,105.66603169999996,106.14996239999994,106.15542549999998,106.17498720000003,108.88235359999999,,,,,108.88255379999998,108.8973681,109.09788500000002,109.08169109999994,106.17498720000003,,,,,,,,0,1,2.699363999999946,None,,,,,,,,881,22,M,R,2026-02-18_11h10.28.541,VisualSearch_2526_3,,2025.2.4,2026-02-18 11h10.29.395938 +0100,
vertical.xlsx,The target is tilted.,135,19,3,2,0,0,0,0,0,0,0,0,0,0,0,0,1,1,1,135,space,4.976812399999972,None,0,1,0.8790966000000253,None,space,2.4867255999999998,None,0,0,0,1,,,,,2,3,19,7,109.09788500000002,,,,,,,,,,,,,,,,,,,,,109.08241829999997,109.09788500000002,109.58147259999998,109.58631479999997,109.60571649999997,110.49771320000002,,,,,110.4979399,110.51307859999997,110.71379960000002,110.69772360000002,109.60571649999997,,,,,,,,0,1,0.8790966000000253,None,,,,,,,,881,22,M,R,2026-02-18_11h10.28.541,VisualSearch_2526_3,,2025.2.4,2026-02-18 11h10.29.395938 +0100,
vertical.xlsx,The target is tilted.,135,20,4,2,0,1,1,1,1,1,1,1,0,0,0,0,1,7,8,135,space,4.976812399999972,None,0,1,1.3447979999999689,None,space,2.4867255999999998,None,0,0,0,1,,,,,2,4,20,5,110.71379960000002,,,,,,,,,,,,,,,,,,,,,110.69856370000002,110.71379960000002,111.19752489999996,111.20319859999995,111.22264440000004,112.58003439999993,,,,,112.58025320000002,112.59568430000002,112.7961302,112.78000799999995,111.22264440000004,,,,,,,,0,1,1.3447979999999689,None,,,,,,,,881,22,M,R,2026-02-18_11h10.28.541,VisualSearch_2526_3,,2025.2.4,2026-02-18 11h10.29.395938 +0100,
vertical.xlsx,The target is tilted.,135,21,5,2,0,1,1,1,0,0,0,0,0,0,0,0,1,3,4,135,space,4.976812399999972,None,0,1,1.5594432000000324,None,space,2.4867255999999998,None,0,0,0,1,,,,,2,5,21,6,112.7961302,,,,,,,,,,,,,,,,,,,,,112.78077099999996,112.7961302,113.27974529999995,113.28471530000002,113.30411960000004,114.87904900000001,,,,,114.87928109999996,114.89454330000001,115.09510290000003,115.07913280000002,113.30411960000004,,,,,,,,0,1,1.5594432000000324,None,,,,,,,,881,22,M,R,2026-02-18_11h10.28.541,VisualSearch_2526_3,,2025.2.4,2026-02-18 11h10.29.395938 +0100,
vertical.xlsx,The target is tilted.,135,22,6,2,1,0,0,0,0,0,0,0,0,0,0,0,0,0,1,135,space,4.976812399999972,None,1,1,0.6098994999999832,None,space,2.4867255999999998,None,0,0,0,1,,,,,2,6,22,3,115.09510290000003,,,,,,,,,,,,,,,,,,,,,115.07996119999996,115.09510290000003,115.5778004,115.58021859999997,115.59460660000002,116.21230990000004,,,,,116.21250329999998,116.22715759999994,116.42760429999998,116.41157169999997,115.59460660000002,,,,,,,,1,1,0.6098994999999832,None,,,,,,,,881,22,M,R,2026-02-18_11h10.28.541,VisualSearch_2526_3,,2025.2.4,2026-02-18 11h10.29.395938 +0100,
vertical.xlsx,The target is tilted.,135,23,7,2,1,1,1,1,1,1,1,1,1,1,1,1,0,11,12,135,space,4.976812399999972,None,1,1,1.691979999999944,None,space,2.4867255999999998,None,0,0,0,1,,,,,2,7,23,0,116.42760429999998,,,,,,,,,,,,,,,,,,,,,116.41230080000003,116.42760429999998,116.91157109999995,116.91631099999995,116.92746199999999,118.62799010000003,,,,,118.62818909999999,118.64297859999999,118.8432573,118.8272197,116.92746199999999,,,,,,,,1,1,1.691979999999944,None,,,,,,,,881,22,M,R,2026-02-18_11h10.28.541,VisualSearch_2526_3,,2025.2.4,2026-02-18 11h10.29.395938 +0100,
vertical.xlsx,The target is tilted.,135,24,0,3,0,1,1,1,0,0,0,0,0,0,0,0,1,3,4,135,space,4.976812399999972,None,0,1,1.341557699999953,None,space,2.4867255999999998,None,0,0,0,1,,,,,3,0,24,6,118.8432573,,,,,,,,,,,,,,,,,,,,,118.82798639999999,118.8432573,119.32722760000001,119.33261879999998,119.3519516,120.70984569999996,,,,,120.71004619999997,120.72522979999997,120.92577570000003,120.90968520000001,119.3519516,,,,,,,,0,1,1.341557699999953,None,,,,,,,,881,22,M,R,2026-02-18_11h10.28.541,VisualSearch_2526_3,,2025.2.4,2026-02-18 11h10.29.395938 +0100,
vertical.xlsx,The target is tilted.,135,25,1,3,1,1,1,1,1,1,1,1,0,0,0,0,0,7,8,135,space,4.976812399999972,None,1,1,2.008005599999933,None,space,2.4867255999999998,None,0,0,0,1,,,,,3,1,25,1,120.92577570000003,,,,,,,,,,,,,,,,,,,,,120.91049769999995,120.92577570000003,121.40964059999999,121.41492129999995,121.43435620000002,123.45903279999993,,,,,123.45923770000002,123.47409110000001,123.67453409999996,123.65851959999998,121.43435620000002,,,,,,,,1,1,2.008005599999933,None,,,,,,,,881,22,M,R,2026-02-18_11h10.28.541,VisualSearch_2526_3,,2025.2.4,2026-02-18 11h10.29.395938 +0100,
vertical.xlsx,The target is tilted.,135,26,2,3,0,0,0,0,0,0,0,0,0,0,0,0,1,1,1,135,space,4.976812399999972,None,0,1,0.6450277000000142,None,space,2.4867255999999998,None,0,0,0,1,,,,,3,2,26,7,123.67453409999996,,,,,,,,,,,,,,,,,,,,,123.65921860000003,123.67453409999996,124.15815329999998,124.1628849,124.18161799999996,124.84147999999993,,,,,124.84167869999999,124.85661579999999,125.05726400000003,125.04104929999994,124.18161799999996,,,,,,,,0,1,0.6450277000000142,None,,,,,,,,881,22,M,R,2026-02-18_11h10.28.541,VisualSearch_2526_3,,2025.2.4,2026-02-18 11h10.29.395938 +0100,
vertical.xlsx,The target is tilted.,135,27,3,3,1,1,1,1,0,0,0,0,0,0,0,0,0,3,4,135,space,4.976812399999972,None,1,1,1.0927805000000035,None,space,2.4867255999999998,None,0,0,0,1,,,,,3,3,27,2,125.05726400000003,,,,,,,,,,,,,,,,,,,,,125.04179320000003,125.05726400000003,125.54073329999994,125.54608919999998,125.56566179999993,126.67377599999998,,,,,126.67397359999995,126.68916330000002,126.88980400000003,126.8732655,125.56566179999993,,,,,,,,1,1,1.0927805000000035,None,,,,,,,,881,22,M,R,2026-02-18_11h10.28.541,VisualSearch_2526_3,,2025.2.4,2026-02-18 11h10.29.395938 +0100,
vertical.xlsx,The target is tilted.,135,28,4,3,1,1,1,1,1,1,1,1,1,1,1,1,0,11,12,135,space,4.976812399999972,None,1,1,1.4199888000000556,None,space,2.4867255999999998,None,0,0,0,1,,,,,3,4,28,0,126.88980400000003,,,,,,,,,,,,,,,,,,,,,126.8740606,126.88980400000003,127.37309949999997,127.3779892,127.39749729999994,128.8226214,,,,,128.82274340000004,128.83821409999996,129.0381946,129.02183309999998,127.39749729999994,,,,,,,,1,1,1.4199888000000556,None,,,,,,,,881,22,M,R,2026-02-18_11h10.28.541,VisualSearch_2526_3,,2025.2.4,2026-02-18 11h10.29.395938 +0100,
vertical.xlsx,The target is tilted.,135,29,5,3,1,0,0,0,0,0,0,0,0,0,0,0,0,0,1,135,space,4.976812399999972,None,1,1,0.8320831999999427,None,space,2.4867255999999998,None,0,0,0,1,,,,,3,5,29,3,129.0381946,,,,,,,,,,,,,,,,,,,,,129.02229769999997,129.0381946,129.5220842,129.52486839999995,129.5383958,130.3715072,,,,,130.37163150000003,130.38747849999993,130.5874692,130.57115149999993,129.5383958,,,,,,,,1,1,0.8320831999999427,None,,,,,,,,881,22,M,R,2026-02-18_11h10.28.541,VisualSearch_2526_3,,2025.2.4,2026-02-18 11h10.29.395938 +0100,
vertical.xlsx,The target is tilted.,135,30,6,3,0,1,1,1,1,1,1,1,1,1,1,1,1,11,12,135,space,4.976812399999972,None,0,1,3.6174806999999873,None,space,2.4867255999999998,None,0,0,0,1,,,,,3,6,30,4,130.5874692,,,,,,,,,,,,,,,,,,,,,130.57158649999997,130.5874692,131.0713551,131.07462750000002,131.08935580000002,134.71965839999996,,,,,134.71976259999997,134.73554819999993,134.93552039999997,134.91912419999994,131.08935580000002,,,,,,,,0,1,3.6174806999999873,None,,,,,,,,881,22,M,R,2026-02-18_11h10.28.541,VisualSearch_2526_3,,2025.2.4,2026-02-18 11h10.29.395938 +0100,
vertical.xlsx,The target is tilted.,135,31,7,3,0,1,1,1,1,1,1,1,0,0,0,0,1,7,8,135,space,4.976812399999972,None,0,1,2.317023899999981,None,space,2.4867255999999998,None,0,0,0,1,,,,,3,7,31,5,134.93552039999997,,,,,,,,,,,,,,,,,,,,,134.919626,134.93552039999997,135.41893859999993,135.4217807,135.4352119,137.76823179999997,,,,,137.76836660000004,137.7840754,137.98416550000002,137.9677818,135.4352119,,,,,,,,0,1,2.317023899999981,None,,,,,,,,881,22,M,R,2026-02-18_11h10.28.541,VisualSearch_2526_3,,2025.2.4,2026-02-18 11h10.29.395938 +0100,
vertical.xlsx,The target is tilted.,135,32,0,4,1,1,1,1,1,1,1,1,1,1,1,1,0,11,12,135,space,4.976812399999972,None,0,0,2.842537600000014,None,space,2.4867255999999998,None,0,0,0,1,,,,,4,0,32,0,137.98416550000002,,,,,,,,,,,,,,,,,,,,,137.9682176,137.98416550000002,138.46758060000002,138.47048010000003,138.48389439999994,141.33335,,,,,141.33347779999997,141.34917799999994,141.54914989999997,141.5328631,138.48389439999994,,,,,,,,0,0,2.842537600000014,None,,,,,,,,881,22,M,R,2026-02-18_11h10.28.541,VisualSearch_2526_3,,2025.2.4,2026-02-18 11h10.29.395938 +0100,
vertical.xlsx,The target is tilted.,135,33,1,4,1,1,1,1,1,1,1,1,0,0,0,0,0,7,8,135,space,4.976812399999972,None,1,1,1.7650734000000057,None,space,2.4867255999999998,None,0,0,0,1,,,,,4,1,33,1,141.54914989999997,,,,,,,,,,,,,,,,,,,,,141.5332942,141.54914989999997,142.03269339999997,142.0355032,142.04894079999997,143.8153267,,,,,143.81545979999999,143.83137009999996,144.03123589999996,144.01481869999998,142.04894079999997,,,,,,,,1,1,1.7650734000000057,None,,,,,,,,881,22,M,R,2026-02-18_11h10.28.541,VisualSearch_2526_3,,2025.2.4,2026-02-18 11h10.29.395938 +0100,
vertical.xlsx,The target is tilted.,135,34,2,4,0,1,1,1,0,0,0,0,0,0,0,0,1,3,4,135,space,4.976812399999972,None,0,1,0.7233428000000686,None,space,2.4867255999999998,None,0,0,0,1,,,,,4,2,34,6,144.03123589999996,,,,,,,,,,,,,,,,,,,,,144.01529549999998,144.03123589999996,144.51565349999998,144.52223449999997,144.54272149999997,145.28128000000004,,,,,145.28140129999997,145.29780670000002,,145.48177950000002,,,,,,,,,0,1,0.7233428000000686,None,,,,,,,,881,22,M,R,2026-02-18_11h10.28.541,VisualSearch_2526_3,,2025.2.4,2026-02-18 11h10.29.395938 +0100,
vertical.xlsx,The target is tilted.,135,35,3,4,0,1,1,1,1,1,1,1,1,1,1,1,1,11,12,135,space,4.976812399999972,None,0,1,2.8553485000001047,None,space,2.4867255999999998,None,0,0,0,1,,,,,4,3,35,4,145.4977457,,,,,,,,,,,,,,,,,,,,,145.48271499999998,145.4977457,145.98152619999996,145.9872272,146.00759470000003,148.87969899999996,,,,,148.87982249999993,148.89627929999995,,149.07998150000003,,,,,,,,,0,1,2.8553485000001047,None,,,,,,,,881,22,M,R,2026-02-18_11h10.28.541,VisualSearch_2526_3,,2025.2.4,2026-02-18 11h10.29.395938 +0100,
vertical.xlsx,The target is tilted.,135,36,4,4,0,1,1,1,1,1,1,1,0,0,0,0,1,7,8,135,space,4.976812399999972,None,0,1,1.4404936999999336,None,space,2.4867255999999998,None,0,0,0,1,,,,,4,4,36,5,149.09642410000004,,,,,,,,,,,,,,,,,,,,,149.08071039999993,149.09642410000004,149.57986659999995,149.58512239999993,149.60434169999996,151.04564670000002,,,,,151.04576880000002,151.0613829,151.2614433,151.2449904,149.60434169999996,,,,,,,,0,1,1.4404936999999336,None,,,,,,,,881,22,M,R,2026-02-18_11h10.28.541,VisualSearch_2526_3,,2025.2.4,2026-02-18 11h10.29.395938 +0100,
vertical.xlsx,The target is tilted.,135,37,5,4,1,0,0,0,0,0,0,0,0,0,0,0,0,0,1,135,space,4.976812399999972,None,1,1,0.8133350000000519,None,space,2.4867255999999998,None,0,0,0,1,,,,,4,5,37,3,151.2614433,,,,,,,,,,,,,,,,,,,,,151.24543299999993,151.2614433,151.74587280000003,151.75169989999995,151.77139220000004,152.59588259999998,,,,,152.59608029999993,152.6108739,152.8114015,152.7951997,151.77139220000004,,,,,,,,1,1,0.8133350000000519,None,,,,,,,,881,22,M,R,2026-02-18_11h10.28.541,VisualSearch_2526_3,,2025.2.4,2026-02-18 11h10.29.395938 +0100,
vertical.xlsx,The target is tilted.,135,38,6,4,1,1,1,1,0,0,0,0,0,0,0,0,0,3,4,135,space,4.976812399999972,None,1,1,0.8462137999999868,None,space,2.4867255999999998,None,0,0,0,1,,,,,4,6,38,2,152.8114015,,,,,,,,,,,,,,,,,,,,,152.79594569999995,152.8114015,153.29518369999994,153.300386,153.3197503,154.17725339999993,,,,,154.17737379999994,154.1936971,,154.37760149999997,153.3197503,,,,,,,,1,1,0.8462137999999868,None,,,,,,,,881,22,M,R,2026-02-18_11h10.28.541,VisualSearch_2526_3,,2025.2.4,2026-02-18 11h10.29.395938 +0100,
vertical.xlsx,The target is tilted.,135,39,7,4,0,0,0,0,0,0,0,0,0,0,0,0,1,1,1,135,space,4.976812399999972,None,0,1,0.6209524000000783,None,space,2.4867255999999998,None,0,0,0,1,,,,,4,7,39,7,154.3939911,,,,,,,,,,,,,,,,,,,,,154.37836659999994,154.3939911,154.87759519999997,154.8824118,154.90185229999997,155.52766680000002,,,,,155.52786789999993,155.54272509999998,155.74333309999997,155.7271882,154.90185229999997,,,,,,,,0,1,0.6209524000000783,None,,,,,,,,881,22,M,R,2026-02-18_11h10.28.541,VisualSearch_2526_3,,2025.2.4,2026-02-18 11h10.29.395938 +0100,
vertical.xlsx,The target is tilted.,135,40,0,5,1,1,1,1,1,1,1,1,0,0,0,0,0,7,8,135,space,4.976812399999972,None,1,1,1.7595466999999871,None,space,2.4867255999999998,None,0,0,0,1,,,,,5,0,40,1,155.74333309999997,,,,,,,,,,,,,,,,,,,,,155.72794709999994,155.74333309999997,156.22702119999997,156.2319367,156.25235829999997,158.02627289999998,,,,,158.02647379999996,158.04168529999993,158.24215100000004,158.22621119999997,156.25235829999997,,,,,,,,1,1,1.7595466999999871,None,,,,,,,,881,22,M,R,2026-02-18_11h10.28.541,VisualSearch_2526_3,,2025.2.4,2026-02-18 11h10.29.395938 +0100,
vertical.xlsx,The target is tilted.,135,41,1,5,1,1,1,1,0,0,0,0,0,0,0,0,0,3,4,135,space,4.976812399999972,None,1,1,0.5737786999999344,None,space,2.4867255999999998,None,0,0,0,1,,,,,5,1,41,2,158.24215100000004,,,,,,,,,,,,,,,,,,,,,158.22702759999993,158.24215100000004,158.72594730000003,158.7306502,158.74936730000002,159.32612289999997,,,,,159.3263237,159.34101859999998,159.5416907,159.52539939999997,158.74936730000002,,,,,,,,1,1,0.5737786999999344,None,,,,,,,,881,22,M,R,2026-02-18_11h10.28.541,VisualSearch_2526_3,,2025.2.4,2026-02-18 11h10.29.395938 +0100,
vertical.xlsx,The target is tilted.,135,42,2,5,1,1,1,1,1,1,1,1,1,1,1,1,0,11,12,135,space,4.976812399999972,None,1,1,1.3545215000000326,None,space,2.4867255999999998,None,0,0,0,1,,,,,5,2,42,0,159.5416907,,,,,,,,,,,,,,,,,,,,,159.52611909999996,159.5416907,160.0254453,160.03090599999996,160.05028830000003,161.40818160000003,,,,,161.40838150000002,161.4235764,161.62359749999996,161.60783149999997,160.05028830000003,,,,,,,,1,1,1.3545215000000326,None,,,,,,,,881,22,M,R,2026-02-18_11h10.28.541,VisualSearch_2526_3,,2025.2.4,2026-02-18 11h10.29.395938 +0100,
vertical.xlsx,The target is tilted.,135,43,3,5,1,0,0,0,0,0,0,0,0,0,0,0,0,0,1,135,space,4.976812399999972,None,1,1,0.7444063000000369,None,space,2.4867255999999998,None,0,0,0,1,,,,,5,3,43,3,161.62359749999996,,,,,,,,,,,,,,,,,,,,,161.60862450000002,161.62359749999996,162.10753969999996,162.11295610000002,162.13265309999997,162.89065289999996,,,,,162.89086580000003,162.9061322,163.10667379999995,163.0905692,162.13265309999997,,,,,,,,1,1,0.7444063000000369,None,,,,,,,,881,22,M,R,2026-02-18_11h10.28.541,VisualSearch_2526_3,,2025.2.4,2026-02-18 11h10.29.395938 +0100,
vertical.xlsx,The target is tilted.,135,44,4,5,0,1,1,1,0,0,0,0,0,0,0,0,1,3,4,135,space,4.976812399999972,None,0,1,0.7179595000000063,None,space,2.4867255999999998,None,0,0,0,1,,,,,5,4,44,6,163.10667379999995,,,,,,,,,,,,,,,,,,,,,163.09129669999993,163.10667379999995,163.5905355,163.595998,163.6154603,164.3405682,,,,,164.34078829999999,164.35557800000004,164.55598880000002,164.5398596,163.6154603,,,,,,,,0,1,0.7179595000000063,None,,,,,,,,881,22,M,R,2026-02-18_11h10.28.541,VisualSearch_2526_3,,2025.2.4,2026-02-18 11h10.29.395938 +0100,
vertical.xlsx,The target is tilted.,135,45,5,5,0,1,1,1,1,1,1,1,1,1,1,1,1,11,12,135,space,4.976812399999972,None,0,1,2.255509400000051,None,space,2.4867255999999998,None,0,0,0,1,,,,,5,5,45,4,164.55598880000002,,,,,,,,,,,,,,,,,,,,,164.54060319999996,164.55598880000002,165.03979229999993,165.04468899999995,165.06402849999995,167.32264929999997,,,,,167.32286409999995,167.33756600000004,167.53794689999995,167.52190699999994,165.06402849999995,,,,,,,,0,1,2.255509400000051,None,,,,,,,,881,22,M,R,2026-02-18_11h10.28.541,VisualSearch_2526_3,,2025.2.4,2026-02-18 11h10.29.395938 +0100,
vertical.xlsx,The target is tilted.,135,46,6,5,0,0,0,0,0,0,0,0,0,0,0,0,1,1,1,135,space,4.976812399999972,None,0,1,0.9771281000000727,None,space,2.4867255999999998,None,0,0,0,1,,,,,5,6,46,7,167.53794689999995,,,,,,,,,,,,,,,,,,,,,167.52263189999996,167.53794689999995,168.02162520000002,168.0269465,168.0473217,169.0373419,,,,,169.0375011,169.05334159999995,,169.23767729999997,168.0473217,,,,,,,,0,1,0.9771281000000727,None,,,,,,,,881,22,M,R,2026-02-18_11h10.28.541,VisualSearch_2526_3,,2025.2.4,2026-02-18 11h10.29.395938 +0100,
vertical.xlsx,The target is tilted.,135,47,7,5,0,1,1,1,1,1,1,1,0,0,0,0,1,7,8,135,space,4.976812399999972,None,0,1,1.3762748000000329,None,space,2.4867255999999998,None,0,0,0,1,,,,,5,7,47,5,169.25392120000004,,,,,,,,,,,,,,,,,,,,,169.23861339999996,169.25392120000004,169.73756019999996,169.74232929999994,169.76188030000003,171.153503,,,,,171.15373239999997,171.1691303,171.36964260000002,171.3531223,169.76188030000003,,,,,,,,0,1,1.3762748000000329,None,,,,,,,,881,22,M,R,2026-02-18_11h10.28.541,VisualSearch_2526_3,,2025.2.4,2026-02-18 11h10.29.395938 +0100,
vertical.xlsx,The target is tilted.,135,48,0,6,1,0,0,0,0,0,0,0,0,0,0,0,0,0,1,135,space,4.976812399999972,None,1,1,0.5985531999999694,None,space,2.4867255999999998,None,0,0,0,1,,,,,6,0,48,3,171.36964260000002,,,,,,,,,,,,,,,,,,,,,171.35388249999994,171.36964260000002,171.85302709999996,171.85784419999993,171.8760492,172.48689649999994,,,,,172.4870945,172.50182529999995,172.70228229999998,172.68609319999996,171.8760492,,,,,,,,1,1,0.5985531999999694,None,,,,,,,,881,22,M,R,2026-02-18_11h10.28.541,VisualSearch_2526_3,,2025.2.4,2026-02-18 11h10.29.395938 +0100,
vertical.xlsx,The target is tilted.,135,49,1,6,0,0,0,0,0,0,0,0,0,0,0,0,1,1,1,135,space,4.976812399999972,None,0,1,0.6127064999999448,None,space,2.4867255999999998,None,0,0,0,1,,,,,6,1,49,7,172.70228229999998,,,,,,,,,,,,,,,,,,,,,172.68687939999995,172.70228229999998,173.1860057,173.19090989999995,173.21030580000001,173.8356083,,,,,173.83583669999996,173.8511261,174.05175299999996,174.03551029999994,173.21030580000001,,,,,,,,0,1,0.6127064999999448,None,,,,,,,,881,22,M,R,2026-02-18_11h10.28.541,VisualSearch_2526_3,,2025.2.4,2026-02-18 11h10.29.395938 +0100,
vertical.xlsx,The target is tilted.,135,50,2,6,1,1,1,1,0,0,0,0,0,0,0,0,0,3,4,135,space,4.976812399999972,None,1,1,0.6890634000000091,None,space,2.4867255999999998,None,0,0,0,1,,,,,6,2,50,2,174.05175299999996,,,,,,,,,,,,,,,,,,,,,174.03625339999996,174.05175299999996,174.53530379999995,174.54011730000002,174.55950919999998,175.25146859999995,,,,,175.25154669999995,175.26705100000004,175.46780309999997,175.45175699999993,174.55950919999998,,,,,,,,1,1,0.6890634000000091,None,,,,,,,,881,22,M,R,2026-02-18_11h10.28.541,VisualSearch_2526_3,,2025.2.4,2026-02-18 11h10.29.395938 +0100,
vertical.xlsx,The target is tilted.,135,51,3,6,1,1,1,1,1,1,1,1,0,0,0,0,0,7,8,135,space,4.976812399999972,None,1,1,1.2116448000000446,None,space,2.4867255999999998,None,0,0,0,1,,,,,6,3,51,1,175.46780309999997,,,,,,,,,,,,,,,,,,,,,175.4525688,175.46780309999997,175.9513634,175.9562409,175.97399339999993,177.2002169,,,,,177.2003383,177.216684,,177.40058379999994,175.97399339999993,,,,,,,,1,1,1.2116448000000446,None,,,,,,,,881,22,M,R,2026-02-18_11h10.28.541,VisualSearch_2526_3,,2025.2.4,2026-02-18 11h10.29.395938 +0100,
vertical.xlsx,The target is tilted.,135,52,4,6,0,1,1,1,1,1,1,1,0,0,0,0,1,7,8,135,space,4.976812399999972,None,0,1,1.6652784000000338,None,space,2.4867255999999998,None,0,0,0,1,,,,,6,4,52,5,177.416783,,,,,,,,,,,,,,,,,,,,,177.40145940000002,177.416783,177.90061579999997,177.90574359999994,177.92514089999997,179.60031049999998,,,,,179.60051090000002,179.6151238,179.8157466,179.79963109999994,177.92514089999997,,,,,,,,0,1,1.6652784000000338,None,,,,,,,,881,22,M,R,2026-02-18_11h10.28.541,VisualSearch_2526_3,,2025.2.4,2026-02-18 11h10.29.395938 +0100,
vertical.xlsx,The target is tilted.,135,53,5,6,1,1,1,1,1,1,1,1,1,1,1,1,0,11,12,135,space,4.976812399999972,None,1,1,1.0593973000000005,None,space,2.4867255999999998,None,0,0,0,1,,,,,6,5,53,0,179.8157466,,,,,,,,,,,,,,,,,,,,,179.80045499999994,179.8157466,180.29937569999993,180.30428310000002,180.32382169999994,181.39890619999994,,,,,181.39918509999995,181.4145572,181.61494249999998,181.59885409999993,180.32382169999994,,,,,,,,1,1,1.0593973000000005,None,,,,,,,,881,22,M,R,2026-02-18_11h10.28.541,VisualSearch_2526_3,,2025.2.4,2026-02-18 11h10.29.395938 +0100,
vertical.xlsx,The target is tilted.,135,54,6,6,0,1,1,1,0,0,0,0,0,0,0,0,1,3,4,135,space,4.976812399999972,None,0,1,0.8901443999999401,None,space,2.4867255999999998,None,0,0,0,1,,,,,6,6,54,6,181.61494249999998,,,,,,,,,,,,,,,,,,,,,181.59966209999993,181.61494249999998,182.09863489999998,182.10360549999996,182.1225776,183.01529779999998,,,,,183.01557200000002,183.03042289999996,183.23087780000003,183.21469709999997,182.1225776,,,,,,,,0,1,0.8901443999999401,None,,,,,,,,881,22,M,R,2026-02-18_11h10.28.541,VisualSearch_2526_3,,2025.2.4,2026-02-18 11h10.29.395938 +0100,
vertical.xlsx,The target is tilted.,135,55,7,6,0,1,1,1,1,1,1,1,1,1,1,1,1,11,12,135,space,4.976812399999972,None,0,1,1.6320124000000078,None,space,2.4867255999999998,None,0,0,0,1,,,,,6,7,55,4,183.23087780000003,,,,,,,,,,,,,,,,,,,,,183.21550969999998,183.23087780000003,183.71447469999998,183.7196166,183.73891259999994,185.38105029999997,,,,,185.38124759999994,185.39582180000002,185.59645290000003,185.58014300000002,183.73891259999994,,,,,,,,0,1,1.6320124000000078,None,,,,,,,,881,22,M,R,2026-02-18_11h10.28.541,VisualSearch_2526_3,,2025.2.4,2026-02-18 11h10.29.395938 +0100,
vertical.xlsx,The target is tilted.,135,56,0,7,0,1,1,1,1,1,1,1,1,1,1,1,1,11,12,135,space,4.976812399999972,None,0,1,0.9129610999999613,None,space,2.4867255999999998,None,0,0,0,1,,,,,7,0,56,4,185.59645290000003,,,,,,,,,,,,,,,,,,,,,185.580876,185.59645290000003,186.080288,186.08585859999994,186.10607449999998,187.03023069999995,,,,,187.03041499999995,187.04507879999994,187.2457078,187.22960779999994,186.10607449999998,,,,,,,,0,1,0.9129610999999613,None,,,,,,,,881,22,M,R,2026-02-18_11h10.28.541,VisualSearch_2526_3,,2025.2.4,2026-02-18 11h10.29.395938 +0100,
vertical.xlsx,The target is tilted.,135,57,1,7,1,1,1,1,1,1,1,1,1,1,1,1,0,11,12,135,space,4.976812399999972,None,1,1,1.1261563000000478,None,space,2.4867255999999998,None,0,0,0,1,,,,,7,1,57,0,187.2457078,,,,,,,,,,,,,,,,,,,,,187.23035199999993,187.2457078,187.72945979999997,187.73546869999996,187.7519446,188.8949119,,,,,188.89503449999995,188.91139090000001,189.11156589999996,189.09518630000002,187.7519446,,,,,,,,1,1,1.1261563000000478,None,,,,,,,,881,22,M,R,2026-02-18_11h10.28.541,VisualSearch_2526_3,,2025.2.4,2026-02-18 11h10.29.395938 +0100,
vertical.xlsx,The target is tilted.,135,58,2,7,1,0,0,0,0,0,0,0,0,0,0,0,0,0,1,135,space,4.976812399999972,None,1,1,1.4437692000000197,None,space,2.4867255999999998,None,0,0,0,1,,,,,7,2,58,3,189.11156589999996,,,,,,,,,,,,,,,,,,,,,189.09600409999996,189.11156589999996,189.5953303,189.60081589999993,189.62039229999993,191.07781939999995,,,,,191.07805050000002,191.0933248,191.29385430000002,191.27774120000004,189.62039229999993,,,,,,,,1,1,1.4437692000000197,None,,,,,,,,881,22,M,R,2026-02-18_11h10.28.541,VisualSearch_2526_3,,2025.2.4,2026-02-18 11h10.29.395938 +0100,
vertical.xlsx,The target is tilted.,135,59,3,7,1,1,1,1,0,0,0,0,0,0,0,0,0,3,4,135,space,4.976812399999972,None,1,1,0.5058440999999902,None,space,2.4867255999999998,None,0,0,0,1,,,,,7,3,59,2,191.29385430000002,,,,,,,,,,,,,,,,,,,,,191.2784931,191.29385430000002,191.77765720000002,191.78277379999997,191.79980999999998,192.31101890000002,,,,,192.31125050000003,192.32618560000003,192.52673370000002,192.51067490000003,191.79980999999998,,,,,,,,1,1,0.5058440999999902,None,,,,,,,,881,22,M,R,2026-02-18_11h10.28.541,VisualSearch_2526_3,,2025.2.4,2026-02-18 11h10.29.395938 +0100,
vertical.xlsx,The target is tilted.,135,60,4,7,0,0,0,0,0,0,0,0,0,0,0,0,1,1,1,135,space,4.976812399999972,None,0,1,0.6726502999999866,None,space,2.4867255999999998,None,0,0,0,1,,,,,7,4,60,7,192.52673370000002,,,,,,,,,,,,,,,,,,,,,192.511487,192.52673370000002,193.01051189999998,193.0159542,193.03605389999996,193.71047629999998,,,,,193.71066989999997,193.7256072,193.92600589999995,193.91006529999993,193.03605389999996,,,,,,,,0,1,0.6726502999999866,None,,,,,,,,881,22,M,R,2026-02-18_11h10.28.541,VisualSearch_2526_3,,2025.2.4,2026-02-18 11h10.29.395938 +0100,
vertical.xlsx,The target is tilted.,135,61,5,7,1,1,1,1,1,1,1,1,0,0,0,0,0,7,8,135,space,4.976812399999972,None,0,0,1.4224818000000141,None,space,2.4867255999999998,None,0,0,0,1,,,,,7,5,61,1,193.92600589999995,,,,,,,,,,,,,,,,,,,,,193.91090639999993,193.92600589999995,194.40959750000002,194.41440469999998,194.434478,195.85950919999993,,,,,195.85970980000002,195.87462129999994,196.07467999999994,196.05896970000003,194.434478,,,,,,,,0,0,1.4224818000000141,None,,,,,,,,881,22,M,R,2026-02-18_11h10.28.541,VisualSearch_2526_3,,2025.2.4,2026-02-18 11h10.29.395938 +0100,
vertical.xlsx,The target is tilted.,135,62,6,7,0,1,1,1,0,0,0,0,0,0,0,0,1,3,4,135,space,4.976812399999972,None,0,1,0.9828883999999789,None,space,2.4867255999999998,None,0,0,0,1,,,,,7,6,62,6,196.07467999999994,,,,,,,,,,,,,,,,,,,,,196.0598463,196.07467999999994,196.5587359,196.5636895,196.5830012,197.57541630000003,,,,,197.57561339999995,197.590504,197.79092030000004,197.77465010000003,196.5830012,,,,,,,,0,1,0.9828883999999789,None,,,,,,,,881,22,M,R,2026-02-18_11h10.28.541,VisualSearch_2526_3,,2025.2.4,2026-02-18 11h10.29.395938 +0100,
vertical.xlsx,The target is tilted.,135,63,7,7,0,1,1,1,1,1,1,1,0,0,0,0,1,7,8,135,space,4.976812399999972,None,0,1,1.0935679000000391,None,space,2.4867255999999998,None,0,0,0,1,,,,,7,7,63,5,197.79092030000004,,,,,,,,,,,,,,,,,,,,,197.77538719999995,197.79092030000004,198.27481039999998,198.28026369999998,198.29968910000002,199.40736429999993,,,,,199.4076056,199.42299289999994,199.62336419999997,199.6073033,198.29968910000002,,,,,,,,0,1,1.0935679000000391,None,,,,,,,,881,22,M,R,2026-02-18_11h10.28.541,VisualSearch_2526_3,,2025.2.4,2026-02-18 11h10.29.395938 +0100,
vertical.xlsx,The target is tilted.,135,64,0,8,1,1,1,1,0,0,0,0,0,0,0,0,0,3,4,135,space,4.976812399999972,None,0,0,0.7083044999999402,None,space,2.4867255999999998,None,0,0,0,1,,,,,8,0,64,2,199.62336419999997,,,,,,,,,,,,,,,,,,,,,199.60805299999993,199.62336419999997,200.10727729999996,200.11243990000003,200.13211560000002,200.85633239999993,,,,,200.85649089999993,200.8722676,201.07255639999994,201.05681749999997,200.13211560000002,,,,,,,,0,0,0.7083044999999402,None,,,,,,,,881,22,M,R,2026-02-18_11h10.28.541,VisualSearch_2526_3,,2025.2.4,2026-02-18 11h10.29.395938 +0100,
vertical.xlsx,The target is tilted.,135,65,1,8,1,0,0,0,0,0,0,0,0,0,0,0,0,0,1,135,space,4.976812399999972,None,1,1,0.6682789000000184,None,space,2.4867255999999998,None,0,0,0,1,,,,,8,1,65,3,201.07255639999994,,,,,,,,,,,,,,,,,,,,,201.05761719999998,201.07255639999994,201.55639080000003,201.56120379999993,201.58048829999996,202.25661509999998,,,,,202.25681529999997,202.27167980000002,202.47229059999995,202.45621189999997,201.58048829999996,,,,,,,,1,1,0.6682789000000184,None,,,,,,,,881,22,M,R,2026-02-18_11h10.28.541,VisualSearch_2526_3,,2025.2.4,2026-02-18 11h10.29.395938 +0100,
vertical.xlsx,The target is tilted.,135,66,2,8,0,1,1,1,1,1,1,1,1,1,1,1,1,11,12,135,space,4.976812399999972,None,0,1,0.9650374000000284,None,space,2.4867255999999998,None,0,0,0,1,,,,,8,2,66,4,202.47229059999995,,,,,,,,,,,,,,,,,,,,,202.45703330000003,202.47229059999995,202.9554273,202.96029850000002,202.97983209999995,203.95592829999998,,,,,203.95612119999998,203.97069980000003,204.1714217,204.15517869999996,202.97983209999995,,,,,,,,0,1,0.9650374000000284,None,,,,,,,,881,22,M,R,2026-02-18_11h10.28.541,VisualSearch_2526_3,,2025.2.4,2026-02-18 11h10.29.395938 +0100,
vertical.xlsx,The target is tilted.,135,67,3,8,1,1,1,1,1,1,1,1,0,0,0,0,0,7,8,135,space,4.976812399999972,None,1,1,0.9731067000000166,None,space,2.4867255999999998,None,0,0,0,1,,,,,8,3,67,1,204.1714217,,,,,,,,,,,,,,,,,,,,,204.1559701,204.1714217,204.6547137,204.6594814,204.678809,205.6552064,,,,,205.65540379999993,205.67019649999997,205.87068379999994,205.85445589999995,204.678809,,,,,,,,1,1,0.9731067000000166,None,,,,,,,,881,22,M,R,2026-02-18_11h10.28.541,VisualSearch_2526_3,,2025.2.4,2026-02-18 11h10.29.395938 +0100,
vertical.xlsx,The target is tilted.,135,68,4,8,0,1,1,1,0,0,0,0,0,0,0,0,1,3,4,135,space,4.976812399999972,None,0,1,0.6647530999999844,None,space,2.4867255999999998,None,0,0,0,1,,,,,8,4,68,6,205.87068379999994,,,,,,,,,,,,,,,,,,,,,205.85530370000004,205.87068379999994,206.3543188,206.35982709999996,206.37683949999996,207.05386169999997,,,,,207.05407419999995,207.06947489999993,207.26991369999996,207.25350830000002,206.37683949999996,,,,,,,,0,1,0.6647530999999844,None,,,,,,,,881,22,M,R,2026-02-18_11h10.28.541,VisualSearch_2526_3,,2025.2.4,2026-02-18 11h10.29.395938 +0100,
vertical.xlsx,The target is tilted.,135,69,5,8,1,1,1,1,1,1,1,1,1,1,1,1,0,11,12,135,space,4.976812399999972,None,0,0,1.0423490000000584,None,space,2.4867255999999998,None,0,0,0,1,,,,,8,5,69,0,207.26991369999996,,,,,,,,,,,,,,,,,,,,,207.25426140000002,207.26991369999996,207.75312969999993,207.75693809999996,207.77047319999997,208.8203343,,,,,208.8205296,208.83542119999993,209.0358159,209.01986520000003,207.77047319999997,,,,,,,,0,0,1.0423490000000584,None,,,,,,,,881,22,M,R,2026-02-18_11h10.28.541,VisualSearch_2526_3,,2025.2.4,2026-02-18 11h10.29.395938 +0100,
vertical.xlsx,The target is tilted.,135,70,6,8,0,1,1,1,1,1,1,1,0,0,0,0,1,7,8,135,space,4.976812399999972,None,0,1,0.9755321999999751,None,space,2.4867255999999998,None,0,0,0,1,,,,,8,6,70,5,209.0358159,,,,,,,,,,,,,,,,,,,,,209.0205687,209.0358159,209.51964009999995,209.52489549999996,209.54412679999996,210.53561539999998,,,,,210.53581639999993,210.55126499999994,210.7517143,210.735506,209.54412679999996,,,,,,,,0,1,0.9755321999999751,None,,,,,,,,881,22,M,R,2026-02-18_11h10.28.541,VisualSearch_2526_3,,2025.2.4,2026-02-18 11h10.29.395938 +0100,
vertical.xlsx,The target is tilted.,135,71,7,8,0,0,0,0,0,0,0,0,0,0,0,0,1,1,1,135,space,4.976812399999972,None,0,1,0.5294896999999992,None,space,2.4867255999999998,None,0,0,0,1,,,,,8,7,71,7,210.7517143,,,,,,,,,,,,,,,,,,,,,210.73629640000001,210.7517143,211.23558909999997,211.24053000000004,211.26047129999995,211.80175739999993,,,,,211.80197809999993,211.81731209999998,212.01788499999998,212.0017792,211.26047129999995,,,,,,,,0,1,0.5294896999999992,None,,,,,,,,881,22,M,R,2026-02-18_11h10.28.541,VisualSearch_2526_3,,2025.2.4,2026-02-18 11h10.29.395938 +0100,
vertical.xlsx,The target is tilted.,135,72,0,9,0,1,1,1,1,1,1,1,1,1,1,1,1,11,12,135,space,4.976812399999972,None,0,1,1.8729042999999592,None,space,2.4867255999999998,None,0,0,0,1,,,,,9,0,72,4,212.01788499999998,,,,,,,,,,,,,,,,,,,,,212.00247379999996,212.01788499999998,212.50131820000001,212.50658939999994,212.52562269999999,214.40128329999993,,,,,214.40152219999993,214.4160068,214.6166164,214.60050720000004,212.52562269999999,,,,,,,,0,1,1.8729042999999592,None,,,,,,,,881,22,M,R,2026-02-18_11h10.28.541,VisualSearch_2526_3,,2025.2.4,2026-02-18 11h10.29.395938 +0100,
vertical.xlsx,The target is tilted.,135,73,1,9,1,1,1,1,1,1,1,1,0,0,0,0,0,7,8,135,space,4.976812399999972,None,0,0,0.7427612000000181,None,space,2.4867255999999998,None,0,0,0,1,,,,,9,1,73,1,214.6166164,,,,,,,,,,,,,,,,,,,,,214.60125349999998,214.6166164,215.10022909999998,215.10506899999996,215.1242578,215.88319979999994,,,,,215.8834031,215.8988111,216.09927349999998,216.08292629999994,215.1242578,,,,,,,,0,0,0.7427612000000181,None,,,,,,,,881,22,M,R,2026-02-18_11h10.28.541,VisualSearch_2526_3,,2025.2.4,2026-02-18 11h10.29.395938 +0100,
vertical.xlsx,The target is tilted.,135,74,2,9,0,1,1,1,0,0,0,0,0,0,0,0,1,3,4,135,space,4.976812399999972,None,0,1,0.6231867000000193,None,space,2.4867255999999998,None,0,0,0,1,,,,,9,2,74,6,216.09927349999998,,,,,,,,,,,,,,,,,,,,,216.08363899999995,216.09927349999998,216.58318810000003,216.5884089,216.60803909999993,217.23277359999997,,,,,217.2330293,217.2482744,217.4487156,217.43276879999996,216.60803909999993,,,,,,,,0,1,0.6231867000000193,None,,,,,,,,881,22,M,R,2026-02-18_11h10.28.541,VisualSearch_2526_3,,2025.2.4,2026-02-18 11h10.29.395938 +0100,
vertical.xlsx,The target is tilted.,135,75,3,9,1,1,1,1,0,0,0,0,0,0,0,0,0,3,4,135,space,4.976812399999972,None,1,1,0.7018986000000496,None,space,2.4867255999999998,None,0,0,0,1,,,,,9,3,75,2,217.4487156,,,,,,,,,,,,,,,,,,,,,217.43350780000003,217.4487156,217.93242899999996,217.93725670000003,217.95645109999998,218.66581680000002,,,,,218.66601059999994,218.68097899999998,218.88085669999998,218.8652442,217.95645109999998,,,,,,,,1,1,0.7018986000000496,None,,,,,,,,881,22,M,R,2026-02-18_11h10.28.541,VisualSearch_2526_3,,2025.2.4,2026-02-18 11h10.29.395938 +0100,
vertical.xlsx,The target is tilted.,135,76,4,9,1,1,1,1,1,1,1,1,1,1,1,1,0,11,12,135,space,4.976812399999972,None,0,0,1.2233089000000064,None,space,2.4867255999999998,None,0,0,0,1,,,,,9,4,76,0,218.88085669999998,,,,,,,,,,,,,,,,,,,,,218.86597599999993,218.88085669999998,219.36470759999997,219.36947120000002,219.38854489999994,220.6147201,,,,,220.61491460000002,220.62984829999994,220.8305097,220.81445380000002,219.38854489999994,,,,,,,,0,0,1.2233089000000064,None,,,,,,,,881,22,M,R,2026-02-18_11h10.28.541,VisualSearch_2526_3,,2025.2.4,2026-02-18 11h10.29.395938 +0100,
vertical.xlsx,The target is tilted.,135,77,5,9,0,0,0,0,0,0,0,0,0,0,0,0,1,1,1,135,space,4.976812399999972,None,1,0,0.5660219000000097,None,space,2.4867255999999998,None,0,0,0,1,,,,,9,5,77,7,220.8305097,,,,,,,,,,,,,,,,,,,,,220.81528530000003,220.8305097,221.31432210000003,221.3194175,221.33859640000003,221.91437959999996,,,,,221.91508699999997,221.92943279999997,222.1298696,222.11366299999997,221.33859640000003,,,,,,,,1,0,0.5660219000000097,None,,,,,,,,881,22,M,R,2026-02-18_11h10.28.541,VisualSearch_2526_3,,2025.2.4,2026-02-18 11h10.29.395938 +0100,
vertical.xlsx,The target is tilted.,135,78,6,9,0,1,1,1,1,1,1,1,0,0,0,0,1,7,8,135,space,4.976812399999972,None,0,1,2.270570800000087,None,space,2.4867255999999998,None,0,0,0,1,,,,,9,6,78,5,222.1298696,,,,,,,,,,,,,,,,,,,,,222.11441309999998,222.1298696,222.61253869999996,222.615364,222.62947480000003,224.91188399999987,,,,,224.91195709999988,224.92827880000004,,225.11211159999993,222.62947480000003,,,,,,,,0,1,2.270570800000087,None,,,,,,,,881,22,M,R,2026-02-18_11h10.28.541,VisualSearch_2526_3,,2025.2.4,2026-02-18 11h10.29.395938 +0100,
vertical.xlsx,The target is tilted.,135,79,7,9,1,0,0,0,0,0,0,0,0,0,0,0,0,0,1,135,space,4.976812399999972,None,1,1,0.958966700000019,None,space,2.4867255999999998,None,0,0,0,1,,,,,9,7,79,3,225.1283894999999,,,,,,,,,,,,,,,,,,,,,225.11284890000002,225.1283894999999,225.6120845999999,225.617438,225.63664199999994,226.61222709999993,,,,,226.6124201,226.62729379999996,226.8278668999999,226.811735,,,,,,,,,1,1,0.958966700000019,None,,,,,,,,881,22,M,R,2026-02-18_11h10.28.541,VisualSearch_2526_3,,2025.2.4,2026-02-18 11h10.29.395938 +0100,
vertical.xlsx,The target is tilted.,135,80,0,10,1,0,0,0,0,0,0,0,0,0,0,0,0,0,1,135,space,4.976812399999972,None,1,1,0.9296245999998973,None,space,2.4867255999999998,None,0,0,0,1,,,,,10,0,80,3,226.8278668999999,,,,,,,,,,,,,,,,,,,,,226.81248129999994,226.8278668999999,227.3114183,227.31619350000005,227.3350622999999,228.27759459999993,,,,,228.27783120000004,228.29322580000007,228.49367230000007,228.477218,227.3350622999999,,,,,,,,1,1,0.9296245999998973,None,,,,,,,,881,22,M,R,2026-02-18_11h10.28.541,VisualSearch_2526_3,,2025.2.4,2026-02-18 11h10.29.395938 +0100,
vertical.xlsx,The target is tilted.,135,81,1,10,0,1,1,1,1,1,1,1,0,0,0,0,1,7,8,135,space,4.976812399999972,None,0,1,0.9202316999999312,None,space,2.4867255999999998,None,0,0,0,1,,,,,10,1,81,5,228.49367230000007,,,,,,,,,,,,,,,,,,,,,228.4779764,228.49367230000007,228.97744940000007,228.98282029999996,229.00241660000006,229.92708919999995,,,,,229.92731419999996,229.94227520000004,230.1425240000001,230.1266627,229.00241660000006,,,,,,,,0,1,0.9202316999999312,None,,,,,,,,881,22,M,R,2026-02-18_11h10.28.541,VisualSearch_2526_3,,2025.2.4,2026-02-18 11h10.29.395938 +0100,
vertical.xlsx,The target is tilted.,135,82,2,10,1,1,1,1,1,1,1,1,1,1,1,1,0,11,12,135,space,4.976812399999972,None,1,1,0.7706216999999924,None,space,2.4867255999999998,None,0,0,0,1,,,,,10,2,82,0,230.1425240000001,,,,,,,,,,,,,,,,,,,,,230.12741589999996,230.1425240000001,230.62664599999994,230.6313232,230.64227389999996,231.42567009999993,,,,,231.42578869999988,231.44214190000002,231.6420688999999,231.62608879999993,230.64227389999996,,,,,,,,1,1,0.7706216999999924,None,,,,,,,,881,22,M,R,2026-02-18_11h10.28.541,VisualSearch_2526_3,,2025.2.4,2026-02-18 11h10.29.395938 +0100,
vertical.xlsx,The target is tilted.,135,83,3,10,1,1,1,1,0,0,0,0,0,0,0,0,0,3,4,135,space,4.976812399999972,None,1,1,1.0181865000001835,None,space,2.4867255999999998,None,0,0,0,1,,,,,10,3,83,2,231.6420688999999,,,,,,,,,,,,,,,,,,,,,231.626847,231.6420688999999,232.1257410999999,232.13163959999997,232.1507618999999,233.17603299999996,,,,,233.17622759999995,233.19162030000007,233.391431,233.3752528,232.1507618999999,,,,,,,,1,1,1.0181865000001835,None,,,,,,,,881,22,M,R,2026-02-18_11h10.28.541,VisualSearch_2526_3,,2025.2.4,2026-02-18 11h10.29.395938 +0100,
vertical.xlsx,The target is tilted.,135,84,4,10,0,1,1,1,0,0,0,0,0,0,0,0,1,3,4,135,space,4.976812399999972,None,0,1,0.952800600000046,None,space,2.4867255999999998,None,0,0,0,1,,,,,10,4,84,6,233.391431,,,,,,,,,,,,,,,,,,,,,233.3760439,233.391431,233.87515499999995,233.87978339999995,233.89113180000004,234.85860709999997,,,,,234.85880150000003,234.87405949999993,235.0740303,235.05780120000009,233.89113180000004,,,,,,,,0,1,0.952800600000046,None,,,,,,,,881,22,M,R,2026-02-18_11h10.28.541,VisualSearch_2526_3,,2025.2.4,2026-02-18 11h10.29.395938 +0100,
vertical.xlsx,The target is tilted.,135,85,5,10,1,1,1,1,1,1,1,1,0,0,0,0,0,7,8,135,space,4.976812399999972,None,1,1,0.698338799999874,None,space,2.4867255999999998,None,0,0,0,1,,,,,10,5,85,1,235.0740303,,,,,,,,,,,,,,,,,,,,,235.05852860000005,235.0740303,235.5576470000001,235.56258759999992,235.58177060000003,236.29123170000003,,,,,236.29149089999987,236.3063545,236.50668199999996,236.49077650000004,235.58177060000003,,,,,,,,1,1,0.698338799999874,None,,,,,,,,881,22,M,R,2026-02-18_11h10.28.541,VisualSearch_2526_3,,2025.2.4,2026-02-18 11h10.29.395938 +0100,
vertical.xlsx,The target is tilted.,135,86,6,10,0,1,1,1,1,1,1,1,1,1,1,1,1,11,12,135,space,4.976812399999972,None,0,1,0.6090107999998509,None,space,2.4867255999999998,None,0,0,0,1,,,,,10,6,86,4,236.50668199999996,,,,,,,,,,,,,,,,,,,,,236.49158910000006,236.50668199999996,236.9905202,236.9954456999999,237.01465329999996,237.6397626999999,,,,,237.6398933999999,237.6560938,237.85612089999995,237.84002280000004,237.01465329999996,,,,,,,,0,1,0.6090107999998509,None,,,,,,,,881,22,M,R,2026-02-18_11h10.28.541,VisualSearch_2526_3,,2025.2.4,2026-02-18 11h10.29.395938 +0100,
vertical.xlsx,The target is tilted.,135,87,7,10,0,0,0,0,0,0,0,0,0,0,0,0,1,1,1,135,space,4.976812399999972,None,0,1,0.5391203000001497,None,space,2.4867255999999998,None,0,0,0,1,,,,,10,7,87,7,237.85612089999995,,,,,,,,,,,,,,,,,,,,,237.84076759999994,237.85612089999995,238.33960109999998,238.34442769999987,238.36351680000007,238.90650690000007,,,,,238.90670169999999,238.9221391000001,239.1223359999999,239.10602519999998,238.36351680000007,,,,,,,,0,1,0.5391203000001497,None,,,,,,,,881,22,M,R,2026-02-18_11h10.28.541,VisualSearch_2526_3,,2025.2.4,2026-02-18 11h10.29.395938 +0100,
vertical.xlsx,The target is tilted.,135,88,0,11,0,1,1,1,1,1,1,1,0,0,0,0,1,7,8,135,space,4.976812399999972,None,0,1,1.229640100000097,None,space,2.4867255999999998,None,0,0,0,1,,,,,11,0,88,5,239.1223359999999,,,,,,,,,,,,,,,,,,,,,239.10677370000008,239.1223359999999,239.6058298999999,239.61064110000007,239.62957759999995,240.87252790000002,,,,,240.87272099999996,240.88799679999988,241.08808559999989,241.07204699999988,239.62957759999995,,,,,,,,0,1,1.229640100000097,None,,,,,,,,881,22,M,R,2026-02-18_11h10.28.541,VisualSearch_2526_3,,2025.2.4,2026-02-18 11h10.29.395938 +0100,
vertical.xlsx,The target is tilted.,135,89,1,11,0,1,1,1,1,1,1,1,1,1,1,1,1,11,12,135,space,4.976812399999972,None,0,1,0.5995783999999276,None,space,2.4867255999999998,None,0,0,0,1,,,,,11,1,89,4,241.08808559999989,,,,,,,,,,,,,,,,,,,,,241.07285789999992,241.08808559999989,241.57169870000007,241.57644809999988,241.59543529999996,242.20522090000009,,,,,242.20541249999997,242.2204554,242.42054159999998,242.4041932,241.59543529999996,,,,,,,,0,1,0.5995783999999276,None,,,,,,,,881,22,M,R,2026-02-18_11h10.28.541,VisualSearch_2526_3,,2025.2.4,2026-02-18 11h10.29.395938 +0100,
vertical.xlsx,The target is tilted.,135,90,2,11,1,0,0,0,0,0,0,0,0,0,0,0,0,0,1,135,space,4.976812399999972,None,1,1,0.6291850000000068,None,space,2.4867255999999998,None,0,0,0,1,,,,,11,2,90,3,242.42054159999998,,,,,,,,,,,,,,,,,,,,,242.40494569999987,242.42054159999998,242.90438670000003,242.90925549999997,242.92897779999998,243.57152939999992,,,,,243.57176389999995,243.58668340000008,243.78679409999995,243.77073629999995,242.92897779999998,,,,,,,,1,1,0.6291850000000068,None,,,,,,,,881,22,M,R,2026-02-18_11h10.28.541,VisualSearch_2526_3,,2025.2.4,2026-02-18 11h10.29.395938 +0100,
vertical.xlsx,The target is tilted.,135,91,3,11,1,1,1,1,1,1,1,1,0,0,0,0,0,7,8,135,space,4.976812399999972,None,1,1,1.050349499999811,None,space,2.4867255999999998,None,0,0,0,1,,,,,11,3,91,1,243.78679409999995,,,,,,,,,,,,,,,,,,,,,243.77157119999993,243.78679409999995,244.27048680000007,244.27531969999995,244.29431550000004,245.3535890999999,,,,,245.35379280000006,245.36930460000008,245.56910590000007,245.55303409999988,244.29431550000004,,,,,,,,1,1,1.050349499999811,None,,,,,,,,881,22,M,R,2026-02-18_11h10.28.541,VisualSearch_2526_3,,2025.2.4,2026-02-18 11h10.29.395938 +0100,
vertical.xlsx,The target is tilted.,135,92,4,11,0,0,0,0,0,0,0,0,0,0,0,0,1,1,1,135,space,4.976812399999972,None,0,1,0.8643744000000879,None,space,2.4867255999999998,None,0,0,0,1,,,,,11,4,92,7,245.56910590000007,,,,,,,,,,,,,,,,,,,,,245.5538179,245.56910590000007,246.05308549999995,246.0581141,246.07760830000007,246.95308849999992,,,,,246.9532792,246.96867810000003,247.16839929999992,247.15210899999988,246.07760830000007,,,,,,,,0,1,0.8643744000000879,None,,,,,,,,881,22,M,R,2026-02-18_11h10.28.541,VisualSearch_2526_3,,2025.2.4,2026-02-18 11h10.29.395938 +0100,
vertical.xlsx,The target is tilted.,135,93,5,11,1,1,1,1,1,1,1,1,1,1,1,1,0,11,12,135,space,4.976812399999972,None,1,1,1.3760859999999866,None,space,2.4867255999999998,None,0,0,0,1,,,,,11,5,93,0,247.16839929999992,,,,,,,,,,,,,,,,,,,,,247.1529183,247.16839929999992,247.65218609999988,247.6568668,247.66816749999998,249.05205780000006,,,,,249.0522524999999,249.06762359999993,249.2676022999999,249.25151720000008,247.66816749999998,,,,,,,,1,1,1.3760859999999866,None,,,,,,,,881,22,M,R,2026-02-18_11h10.28.541,VisualSearch_2526_3,,2025.2.4,2026-02-18 11h10.29.395938 +0100,
vertical.xlsx,The target is tilted.,135,94,6,11,0,1,1,1,0,0,0,0,0,0,0,0,1,3,4,135,space,4.976812399999972,None,0,1,1.2180905000000166,None,space,2.4867255999999998,None,0,0,0,1,,,,,11,6,94,6,249.2676022999999,,,,,,,,,,,,,,,,,,,,,249.25225090000004,249.2676022999999,249.75123209999992,249.75593600000002,249.76731849999987,251.0011838999999,,,,,251.00137719999998,251.0166405,251.2167704000001,251.20080000000007,249.76731849999987,,,,,,,,0,1,1.2180905000000166,None,,,,,,,,881,22,M,R,2026-02-18_11h10.28.541,VisualSearch_2526_3,,2025.2.4,2026-02-18 11h10.29.395938 +0100,
vertical.xlsx,The target is tilted.,135,95,7,11,1,1,1,1,0,0,0,0,0,0,0,0,0,3,4,135,space,4.976812399999972,None,1,1,0.9070442000002004,None,space,2.4867255999999998,None,0,0,0,1,,,,,11,7,95,2,251.2167704000001,,,,,,,,,,,,,,,,,,,,,251.20159130000002,251.2167704000001,251.7004546999999,251.7051254999999,251.7240377999999,252.63370759999998,,,,,252.6339206,252.6491785999999,252.84933150000006,252.83315229999994,251.7240377999999,,,,,,,,1,1,0.9070442000002004,None,,,,,,,,881,22,M,R,2026-02-18_11h10.28.541,VisualSearch_2526_3,,2025.2.4,2026-02-18 11h10.29.395938 +0100,
vertical.xlsx,The target is tilted.,135,96,0,12,0,0,0,0,0,0,0,0,0,0,0,0,1,1,1,135,space,4.976812399999972,None,0,1,0.6532881999999063,None,space,2.4867255999999998,None,0,0,0,1,,,,,12,0,96,7,252.84933150000006,,,,,,,,,,,,,,,,,,,,,252.83398409999995,252.84933150000006,253.3329108999999,253.3376406,253.3568118999999,254.01640999999995,,,,,254.01658369999996,254.0319594,254.23166739999988,254.2156508999999,253.3568118999999,,,,,,,,0,1,0.6532881999999063,None,,,,,,,,881,22,M,R,2026-02-18_11h10.28.541,VisualSearch_2526_3,,2025.2.4,2026-02-18 11h10.29.395938 +0100,
vertical.xlsx,The target is tilted.,135,97,1,12,0,1,1,1,1,1,1,1,1,1,1,1,1,11,12,135,space,4.976812399999972,None,0,1,1.797912100000076,None,space,2.4867255999999998,None,0,0,0,1,,,,,12,1,97,4,254.23166739999988,,,,,,,,,,,,,,,,,,,,,254.2163665999999,254.23166739999988,254.71555519999993,254.7203325999999,254.73541339999997,256.5485853,,,,,256.54877970000007,256.56416650000006,256.76413249999996,256.7475082000001,254.73541339999997,,,,,,,,0,1,1.797912100000076,None,,,,,,,,881,22,M,R,2026-02-18_11h10.28.541,VisualSearch_2526_3,,2025.2.4,2026-02-18 11h10.29.395938 +0100,
vertical.xlsx,The target is tilted.,135,98,2,12,1,1,1,1,1,1,1,1,1,1,1,1,0,11,12,135,space,4.976812399999972,None,0,0,0.6019005999999081,None,space,2.4867255999999998,None,0,0,0,1,,,,,12,2,98,0,256.76413249999996,,,,,,,,,,,,,,,,,,,,,256.7482702,256.76413249999996,257.2480846000001,257.2534562000001,257.27246850000006,257.8814685,,,,,257.88166019999994,257.8970228999999,258.0963305,258.0800511,257.27246850000006,,,,,,,,0,0,0.6019005999999081,None,,,,,,,,881,22,M,R,2026-02-18_11h10.28.541,VisualSearch_2526_3,,2025.2.4,2026-02-18 11h10.29.395938 +0100,
vertical.xlsx,The target is tilted.,135,99,3,12,1,1,1,1,1,1,1,1,0,0,0,0,0,7,8,135,space,4.976812399999972,None,0,0,1.016211000000112,None,space,2.4867255999999998,None,0,0,0,1,,,,,12,3,99,1,258.0963305,,,,,,,,,,,,,,,,,,,,,258.0804731999999,258.0963305,258.5805680000001,258.58527819999995,258.60433280000007,259.63029069999993,,,,,259.6304829999999,259.64568069999996,259.84610799999996,259.8298975,258.60433280000007,,,,,,,,0,0,1.016211000000112,None,,,,,,,,881,22,M,R,2026-02-18_11h10.28.541,VisualSearch_2526_3,,2025.2.4,2026-02-18 11h10.29.395938 +0100,
vertical.xlsx,The target is tilted.,135,100,4,12,0,1,1,1,1,1,1,1,0,0,0,0,1,7,8,135,space,4.976812399999972,None,0,1,1.0183684000000994,None,space,2.4867255999999998,None,0,0,0,1,,,,,12,4,100,5,259.84610799999996,,,,,,,,,,,,,,,,,,,,,259.8306299000001,259.84610799999996,260.32994439999993,260.33534069999996,260.3545491,261.37983170000007,,,,,261.3800225,261.39526520000004,261.5954429000001,261.57937319999996,260.3545491,,,,,,,,0,1,1.0183684000000994,None,,,,,,,,881,22,M,R,2026-02-18_11h10.28.541,VisualSearch_2526_3,,2025.2.4,2026-02-18 11h10.29.395938 +0100,
vertical.xlsx,The target is tilted.,135,101,5,12,1,0,0,0,0,0,0,0,0,0,0,0,0,0,1,135,space,4.976812399999972,None,1,1,0.6201224999999795,None,space,2.4867255999999998,None,0,0,0,1,,,,,12,5,101,3,261.5954429000001,,,,,,,,,,,,,,,,,,,,,261.5801709,261.5954429000001,262.07916969999997,262.08447920000003,262.10367169999995,262.72952009999995,,,,,262.7297409,262.7447474999999,262.9446765,262.92864409999993,262.10367169999995,,,,,,,,1,1,0.6201224999999795,None,,,,,,,,881,22,M,R,2026-02-18_11h10.28.541,VisualSearch_2526_3,,2025.2.4,2026-02-18 11h10.29.395938 +0100,
vertical.xlsx,The target is tilted.,135,102,6,12,1,1,1,1,0,0,0,0,0,0,0,0,0,3,4,135,space,4.976812399999972,None,0,0,0.609586199999967,None,space,2.4867255999999998,None,0,0,0,1,,,,,12,6,102,2,262.9446765,,,,,,,,,,,,,,,,,,,,,262.9294662,262.9446765,263.4283484,263.4330904000001,263.4521112,264.07867469999997,,,,,264.0788656,264.0939392,264.2940687,264.27792049999994,263.4521112,,,,,,,,0,0,0.609586199999967,None,,,,,,,,881,22,M,R,2026-02-18_11h10.28.541,VisualSearch_2526_3,,2025.2.4,2026-02-18 11h10.29.395938 +0100,
vertical.xlsx,The target is tilted.,135,103,7,12,0,1,1,1,0,0,0,0,0,0,0,0,1,3,4,135,space,4.976812399999972,None,0,1,0.6387287000000015,None,space,2.4867255999999998,None,0,0,0,1,,,,,12,7,103,6,264.2940687,,,,,,,,,,,,,,,,,,,,,264.27873069999987,264.2940687,264.77772490000007,264.7824816,264.8015931,265.44444339999995,,,,,265.44463569999994,265.4602517999999,265.6597925000001,265.64383939999993,264.8015931,,,,,,,,0,1,0.6387287000000015,None,,,,,,,,881,22,M,R,2026-02-18_11h10.28.541,VisualSearch_2526_3,,2025.2.4,2026-02-18 11h10.29.395938 +0100,
vertical.xlsx,The target is tilted.,135,104,0,13,0,0,0,0,0,0,0,0,0,0,0,0,1,1,1,135,space,4.976812399999972,None,0,1,0.5728775000000041,None,space,2.4867255999999998,None,0,0,0,1,,,,,13,0,104,7,265.6597925000001,,,,,,,,,,,,,,,,,,,,,265.64466130000005,265.6597925000001,266.14358119999997,266.1485001000001,266.1677081,266.74391579999997,,,,,266.74410979999993,266.7592884999999,266.95960990000003,266.94305499999996,266.1677081,,,,,,,,0,1,0.5728775000000041,None,,,,,,,,881,22,M,R,2026-02-18_11h10.28.541,VisualSearch_2526_3,,2025.2.4,2026-02-18 11h10.29.395938 +0100,
vertical.xlsx,The target is tilted.,135,105,1,13,1,1,1,1,0,0,0,0,0,0,0,0,0,3,4,135,space,4.976812399999972,None,1,1,0.6685010999999577,None,space,2.4867255999999998,None,0,0,0,1,,,,,13,1,105,2,266.95960990000003,,,,,,,,,,,,,,,,,,,,,266.9438484,266.95960990000003,267.4428238999999,267.4476554999999,267.46699149999995,268.14327720000006,,,,,268.14347210000005,268.1590097999999,268.35898870000005,268.34284060000005,267.46699149999995,,,,,,,,1,1,0.6685010999999577,None,,,,,,,,881,22,M,R,2026-02-18_11h10.28.541,VisualSearch_2526_3,,2025.2.4,2026-02-18 11h10.29.395938 +0100,
vertical.xlsx,The target is tilted.,135,106,2,13,0,1,1,1,1,1,1,1,0,0,0,0,1,7,8,135,space,4.976812399999972,None,0,1,1.0111738000000514,None,space,2.4867255999999998,None,0,0,0,1,,,,,13,2,106,5,268.35898870000005,,,,,,,,,,,,,,,,,,,,,268.3435628,268.35898870000005,268.84284279999997,268.8479738000001,268.86709410000003,269.8926289000001,,,,,269.89282019999996,269.9081544999999,270.10829089999993,270.09206919999997,268.86709410000003,,,,,,,,0,1,1.0111738000000514,None,,,,,,,,881,22,M,R,2026-02-18_11h10.28.541,VisualSearch_2526_3,,2025.2.4,2026-02-18 11h10.29.395938 +0100,
vertical.xlsx,The target is tilted.,135,107,3,13,1,1,1,1,1,1,1,1,0,0,0,0,0,7,8,135,space,4.976812399999972,None,0,0,1.3797311999999238,None,space,2.4867255999999998,None,0,0,0,1,,,,,13,3,107,1,270.10829089999993,,,,,,,,,,,,,,,,,,,,,270.09278900000004,270.10829089999993,270.591948,270.5973053,270.6164403999999,272.00763729999994,,,,,272.00771910000003,272.0238548,272.2234013,272.2070409999999,270.6164403999999,,,,,,,,0,0,1.3797311999999238,None,,,,,,,,881,22,M,R,2026-02-18_11h10.28.541,VisualSearch_2526_3,,2025.2.4,2026-02-18 11h10.29.395938 +0100,
vertical.xlsx,The target is tilted.,135,108,4,13,1,0,0,0,0,0,0,0,0,0,0,0,0,0,1,135,space,4.976812399999972,None,1,1,0.6212429999998221,None,space,2.4867255999999998,None,0,0,0,1,,,,,13,4,108,3,272.2234013,,,,,,,,,,,,,,,,,,,,,272.2075843,272.2234013,272.7073785,272.7129067999999,272.7318897,273.3574189000001,,,,,273.35762580000005,273.3732906,273.57288790000007,273.55716729999995,272.7318897,,,,,,,,1,1,0.6212429999998221,None,,,,,,,,881,22,M,R,2026-02-18_11h10.28.541,VisualSearch_2526_3,,2025.2.4,2026-02-18 11h10.29.395938 +0100,
vertical.xlsx,The target is tilted.,135,109,5,13,0,1,1,1,1,1,1,1,1,1,1,1,1,11,12,135,space,4.976812399999972,None,0,1,2.0214019000000008,None,space,2.4867255999999998,None,0,0,0,1,,,,,13,5,109,4,273.57288790000007,,,,,,,,,,,,,,,,,,,,,273.5578877999999,273.57288790000007,274.05704190000006,274.0623012000001,274.0813716,276.1061930999999,,,,,276.10640250000006,276.12196270000004,276.3219856999999,276.30579280000006,274.0813716,,,,,,,,0,1,2.0214019000000008,None,,,,,,,,881,22,M,R,2026-02-18_11h10.28.541,VisualSearch_2526_3,,2025.2.4,2026-02-18 11h10.29.395938 +0100,
vertical.xlsx,The target is tilted.,135,110,6,13,1,1,1,1,1,1,1,1,1,1,1,1,0,11,12,135,space,4.976812399999972,None,1,1,0.6354760000001534,None,space,2.4867255999999998,None,0,0,0,1,,,,,13,6,110,0,276.3219856999999,,,,,,,,,,,,,,,,,,,,,276.30663419999996,276.3219856999999,276.80550100000005,276.8104799,276.82958099999996,277.4725676999999,,,,,277.4727596,277.4881714999999,277.6879936999999,277.6715288999999,276.82958099999996,,,,,,,,1,1,0.6354760000001534,None,,,,,,,,881,22,M,R,2026-02-18_11h10.28.541,VisualSearch_2526_3,,2025.2.4,2026-02-18 11h10.29.395938 +0100,
vertical.xlsx,The target is tilted.,135,111,7,13,0,1,1,1,0,0,0,0,0,0,0,0,1,3,4,135,space,4.976812399999972,None,0,1,0.7677002000000357,None,space,2.4867255999999998,None,0,0,0,1,,,,,13,7,111,6,277.6879936999999,,,,,,,,,,,,,,,,,,,,,277.67226260000007,277.6879936999999,278.1717877000001,278.1764112999999,278.18767690000004,278.97191040000007,,,,,278.97210500000006,278.98741700000005,279.18745420000005,279.1714122000001,278.18767690000004,,,,,,,,0,1,0.7677002000000357,None,,,,,,,,881,22,M,R,2026-02-18_11h10.28.541,VisualSearch_2526_3,,2025.2.4,2026-02-18 11h10.29.395938 +0100,
vertical.xlsx,The target is tilted.,135,112,0,14,0,1,1,1,0,0,0,0,0,0,0,0,1,3,4,135,space,4.976812399999972,None,0,1,1.2928982999999334,None,space,2.4867255999999998,None,0,0,0,1,,,,,14,0,112,6,279.18745420000005,,,,,,,,,,,,,,,,,,,,,279.17220969999994,279.18745420000005,279.6708374,279.67583420000005,279.6949546999999,281.0035134,,,,,281.00366639999993,281.0197713,281.2198638,281.20331839999994,279.6949546999999,,,,,,,,0,1,1.2928982999999334,None,,,,,,,,881,22,M,R,2026-02-18_11h10.28.541,VisualSearch_2526_3,,2025.2.4,2026-02-18 11h10.29.395938 +0100,
vertical.xlsx,The target is tilted.,135,113,1,14,1,0,0,0,0,0,0,0,0,0,0,0,0,0,1,135,space,4.976812399999972,None,1,1,0.9578019999999015,None,space,2.4867255999999998,None,0,0,0,1,,,,,14,1,113,3,281.2198638,,,,,,,,,,,,,,,,,,,,,281.20407840000007,281.2198638,281.7030995,281.70838179999987,281.7275307,282.6868377999999,,,,,282.68704249999996,282.70234589999995,282.90238610000006,282.8862091000001,281.7275307,,,,,,,,1,1,0.9578019999999015,None,,,,,,,,881,22,M,R,2026-02-18_11h10.28.541,VisualSearch_2526_3,,2025.2.4,2026-02-18 11h10.29.395938 +0100,
vertical.xlsx,The target is tilted.,135,114,2,14,0,0,0,0,0,0,0,0,0,0,0,0,1,1,1,135,space,4.976812399999972,None,0,1,0.6012160999998741,None,space,2.4867255999999998,None,0,0,0,1,,,,,14,2,114,7,282.90238610000006,,,,,,,,,,,,,,,,,,,,,282.88705129999994,282.90238610000006,283.38596430000007,283.39071910000007,283.4094941000001,284.01966289999996,,,,,284.0198591000001,284.0347563,284.2350563,284.21909860000005,283.4094941000001,,,,,,,,0,1,0.6012160999998741,None,,,,,,,,881,22,M,R,2026-02-18_11h10.28.541,VisualSearch_2526_3,,2025.2.4,2026-02-18 11h10.29.395938 +0100,
vertical.xlsx,The target is tilted.,135,115,3,14,1,1,1,1,0,0,0,0,0,0,0,0,0,3,4,135,space,4.976812399999972,None,1,1,0.704003000000057,None,space,2.4867255999999998,None,0,0,0,1,,,,,14,3,115,2,284.2350563,,,,,,,,,,,,,,,,,,,,,284.21992019999993,284.2350563,284.7186944,284.72345930000006,284.74259770000003,285.4522460999999,,,,,285.45243529999993,285.4679297,285.6677852,285.6516471,284.74259770000003,,,,,,,,1,1,0.704003000000057,None,,,,,,,,881,22,M,R,2026-02-18_11h10.28.541,VisualSearch_2526_3,,2025.2.4,2026-02-18 11h10.29.395938 +0100,
vertical.xlsx,The target is tilted.,135,116,4,14,0,1,1,1,1,1,1,1,1,1,1,1,1,11,12,135,space,4.976812399999972,None,0,1,1.366110499999877,None,space,2.4867255999999998,None,0,0,0,1,,,,,14,4,116,4,285.6677852,,,,,,,,,,,,,,,,,,,,,285.6523801000001,285.6677852,286.15165419999994,286.1570091000001,286.176375,287.5513773,,,,,287.5515697000001,287.5668447999999,287.7667569,287.75071320000006,286.176375,,,,,,,,0,1,1.366110499999877,None,,,,,,,,881,22,M,R,2026-02-18_11h10.28.541,VisualSearch_2526_3,,2025.2.4,2026-02-18 11h10.29.395938 +0100,
vertical.xlsx,The target is tilted.,135,117,5,14,1,1,1,1,1,1,1,1,0,0,0,0,0,7,8,135,space,4.976812399999972,None,0,0,0.7836353000000145,None,space,2.4867255999999998,None,0,0,0,1,,,,,14,5,117,1,287.7667569,,,,,,,,,,,,,,,,,,,,,287.7514566,287.7667569,288.25066530000004,288.2556566999999,288.2747196,289.06735520000007,,,,,289.06754780000006,289.08254349999993,289.2825843999999,289.2666896999999,288.2747196,,,,,,,,0,0,0.7836353000000145,None,,,,,,,,881,22,M,R,2026-02-18_11h10.28.541,VisualSearch_2526_3,,2025.2.4,2026-02-18 11h10.29.395938 +0100,
vertical.xlsx,The target is tilted.,135,118,6,14,1,1,1,1,1,1,1,1,1,1,1,1,0,11,12,135,space,4.976812399999972,None,0,0,0.7053192999999283,None,space,2.4867255999999998,None,0,0,0,1,,,,,14,6,118,0,289.2825843999999,,,,,,,,,,,,,,,,,,,,,289.2674542,289.2825843999999,289.76637200000005,289.77113940000004,289.7901984,290.49963090000006,,,,,290.4998235999999,290.5150963000001,290.71543870000005,290.6993806999999,289.7901984,,,,,,,,0,0,0.7053192999999283,None,,,,,,,,881,22,M,R,2026-02-18_11h10.28.541,VisualSearch_2526_3,,2025.2.4,2026-02-18 11h10.29.395938 +0100,
vertical.xlsx,The target is tilted.,135,119,7,14,0,1,1,1,1,1,1,1,0,0,0,0,1,7,8,135,space,4.976812399999972,None,0,1,0.683429500000102,None,space,2.4867255999999998,None,0,0,0,1,,,,,14,7,119,5,290.71543870000005,,,,,,,,,,,,,,,,,,,,,290.70012569999994,290.71543870000005,291.19910329999993,291.20408109999994,291.2232965999999,291.9159365999999,,,,,291.9161285,291.93149100000005,292.1512872999999,292.1153042000001,291.2232965999999,,,,,,,,0,1,0.683429500000102,None,,,,,,,,881,22,M,R,2026-02-18_11h10.28.541,VisualSearch_2526_3,,2025.2.4,2026-02-18 11h10.29.395938 +0100,
vertical.xlsx,The target is tilted.,135,0,0,0,,,,,,,,,,,,,,,,,space,4.976812399999972,None,,,,,space,2.4867255999999998,None,0,0,0,1,,,,,,,,,,,,,,,,,,,,,,,,,,,,,,,,,,,,,,,,,,,,,,,,,,,,,,,,,,,,,,,881,22,M,R,2026-02-18_11h10.28.541,VisualSearch_2526_3,,2025.2.4,2026-02-18 11h10.29.395938 +0100,
tilted.xlsx,The target is tilted.,117,0,0,0,1,1,1,1,1,1,1,1,0,0,0,0,0,7,8,117,space,5.974971400000186,None,1,1,0.007104899999831105,None,,,,0,1,1,0,0,0,0,1,,,,,298.18446530000006,,,,,,,,,,,,,,,292.1512872999999,292.1512872999999,292.1512872999999,space,5.974971400000186,None,298.18056060000004,298.18446530000006,298.645301,298.6490948999999,298.6678580999999,298.6790986000001,1,1,0.007104899999831105,None,298.6792685999999,298.6949926,298.8950817,298.87906040000007,,,,,,,,,,,,,,,,,,,,881,22,M,R,2026-02-18_11h10.28.541,VisualSearch_2526_3,,2025.2.4,2026-02-18 11h10.29.395938 +0100,
tilted.xlsx,The target is tilted.,117,1,1,0,1,1,1,1,1,1,1,1,1,1,1,1,0,11,12,117,space,5.974971400000186,None,1,1,0.31670500000018365,None,,,,0,1,1,0,0,1,1,0,,,,,298.8950817,,,,,,,,,,,,,,,,,,,,,298.87974310000004,298.8950817,299.37798440000006,299.38070059999995,299.39427380000006,299.7284460000001,1,1,0.31670500000018365,None,299.728562,299.74446779999994,299.9444057999999,299.9284765,299.39427380000006,,,,,,,,,,,,,,,,,,,881,22,M,R,2026-02-18_11h10.28.541,VisualSearch_2526_3,,2025.2.4,2026-02-18 11h10.29.395938 +0100,
tilted.xlsx,The target is tilted.,117,2,2,0,0,1,1,1,0,0,0,0,0,0,0,0,1,3,4,117,space,5.974971400000186,None,1,0,0.14459160000001248,None,,,,0,1,1,0,0,2,2,6,,,,,299.9444057999999,,,,,,,,,,,,,,,,,,,,,299.9291713,299.9444057999999,300.42802140000003,300.43339549999996,300.4525679999999,300.6120699999999,1,0,0.14459160000001248,None,300.61225450000006,300.6276106999999,300.82756330000007,300.8114080999999,300.4525679999999,,,,,,,,,,,,,,,,,,,881,22,M,R,2026-02-18_11h10.28.541,VisualSearch_2526_3,,2025.2.4,2026-02-18 11h10.29.395938 +0100,
tilted.xlsx,The target is tilted.,117,3,3,0,1,0,0,0,0,0,0,0,0,0,0,0,0,0,1,117,space,5.974971400000186,None,1,1,0.35928599999988364,None,,,,0,1,1,0,0,3,3,3,,,,,300.82756330000007,,,,,,,,,,,,,,,,,,,,,300.8121384000001,300.82756330000007,301.311248,301.3160112999999,301.3355061,301.7115951999999,1,1,0.35928599999988364,None,301.7117819,301.7271080999999,301.9270964,301.9108939,301.3355061,,,,,,,,,,,,,,,,,,,881,22,M,R,2026-02-18_11h10.28.541,VisualSearch_2526_3,,2025.2.4,2026-02-18 11h10.29.395938 +0100,
tilted.xlsx,The target is tilted.,117,4,4,0,1,1,1,1,0,0,0,0,0,0,0,0,0,3,4,117,space,5.974971400000186,None,1,1,0.4260575000000699,None,,,,0,1,1,0,0,4,4,2,,,,,301.9270964,,,,,,,,,,,,,,,,,,,,,301.9115947999999,301.9270964,302.41088880000007,302.4159104999999,302.43496989999994,302.8777012999999,1,1,0.4260575000000699,None,302.8778875999999,302.8929416000001,303.0927962999999,303.0772184,302.43496989999994,,,,,,,,,,,,,,,,,,,881,22,M,R,2026-02-18_11h10.28.541,VisualSearch_2526_3,,2025.2.4,2026-02-18 11h10.29.395938 +0100,
tilted.xlsx,The target is tilted.,117,5,5,0,0,1,1,1,1,1,1,1,0,0,0,0,1,7,8,117,space,5.974971400000186,None,1,0,0.2549664999999095,None,,,,0,1,1,0,0,5,5,5,,,,,303.0927962999999,,,,,,,,,,,,,,,,,,,,,303.0778822,303.0927962999999,303.5768072000001,303.58156310000004,303.59657889999994,303.85996939999995,1,0,0.2549664999999095,None,303.86010809999993,303.87597000000005,304.07614050000007,304.05993119999994,303.59657889999994,,,,,,,,,,,,,,,,,,,881,22,M,R,2026-02-18_11h10.28.541,VisualSearch_2526_3,,2025.2.4,2026-02-18 11h10.29.395938 +0100,
tilted.xlsx,The target is tilted.,117,6,6,0,0,0,0,0,0,0,0,0,0,0,0,0,1,1,1,117,space,5.974971400000186,None,1,0,0.3276636000000508,None,,,,0,1,1,0,0,6,6,7,,,,,304.07614050000007,,,,,,,,,,,,,,,,,,,,,304.06061180000006,304.07614050000007,304.5598315,304.56450270000005,304.57567730000005,304.9101263,1,0,0.3276636000000508,None,304.9103123,304.9253315000001,305.1255119,305.10937519999993,304.57567730000005,,,,,,,,,,,,,,,,,,,881,22,M,R,2026-02-18_11h10.28.541,VisualSearch_2526_3,,2025.2.4,2026-02-18 11h10.29.395938 +0100,
tilted.xlsx,The target is tilted.,117,7,7,0,0,1,1,1,1,1,1,1,1,1,1,1,1,11,12,117,space,5.974971400000186,None,1,0,0.3772625000001426,None,,,,0,1,1,0,0,7,7,4,,,,,305.1255119,,,,,,,,,,,,,,,,,,,,,305.11009020000006,305.1255119,305.6095562999999,305.61478080000006,305.6339008,306.02619030000005,1,0,0.3772625000001426,None,306.0263777,306.04181790000007,306.241808,306.2257801999999,305.6339008,,,,,,,,,,,,,,,,,,,881,22,M,R,2026-02-18_11h10.28.541,VisualSearch_2526_3,,2025.2.4,2026-02-18 11h10.29.395938 +0100,
tilted.xlsx,The target is tilted.,117,0,0,0,0,1,1,1,0,0,0,0,0,0,0,0,1,3,4,117,space,5.974971400000186,None,1,0,1.323707099999865,None,space,0.6830411999999342,None,0,1,1,0,,,,,0,0,0,6,306.9773757999999,,,,,,,,,,,,,,,,,,,,,306.9737067000001,306.9773757999999,307.4583269,307.46393420000004,307.48324219999995,308.8083736000001,,,,,308.80857130000004,308.823891,309.0237715999999,309.0077529,,306.23328259999994,306.241808,306.241808,306.9419676,space,0.6830411999999342,None,1,0,1.323707099999865,None,,,,,,,,881,22,M,R,2026-02-18_11h10.28.541,VisualSearch_2526_3,,2025.2.4,2026-02-18 11h10.29.395938 +0100,
tilted.xlsx,The target is tilted.,117,1,1,0,1,1,1,1,1,1,1,1,0,0,0,0,0,7,8,117,space,5.974971400000186,None,1,1,0.8313964000001306,None,space,0.6830411999999342,None,0,1,1,0,,,,,0,1,1,1,309.0237715999999,,,,,,,,,,,,,,,,,,,,,309.0085076999999,309.0237715999999,309.5073963,309.51216739999995,309.5313507000001,310.3742136000001,,,,,310.3744068000001,310.3897147,310.5898863,310.5735445999999,309.5313507000001,,,,,,,,1,1,0.8313964000001306,None,,,,,,,,881,22,M,R,2026-02-18_11h10.28.541,VisualSearch_2526_3,,2025.2.4,2026-02-18 11h10.29.395938 +0100,
tilted.xlsx,The target is tilted.,117,2,2,0,0,1,1,1,1,1,1,1,0,0,0,0,1,7,8,117,space,5.974971400000186,None,1,0,0.9181349000000409,None,space,0.6830411999999342,None,0,1,1,0,,,,,0,2,2,5,310.5898863,,,,,,,,,,,,,,,,,,,,,310.57439509999995,310.5898863,311.0731682999999,311.07817109999996,311.0972884,312.02299700000003,,,,,312.02321830000005,312.0391921999999,312.23911380000004,312.223019,311.0972884,,,,,,,,1,0,0.9181349000000409,None,,,,,,,,881,22,M,R,2026-02-18_11h10.28.541,VisualSearch_2526_3,,2025.2.4,2026-02-18 11h10.29.395938 +0100,
tilted.xlsx,The target is tilted.,117,3,3,0,0,1,1,1,1,1,1,1,1,1,1,1,1,11,12,117,space,5.974971400000186,None,1,0,1.029005700000198,None,space,0.6830411999999342,None,0,1,1,0,,,,,0,3,3,4,312.23911380000004,,,,,,,,,,,,,,,,,,,,,312.2237388000001,312.23911380000004,312.7227971,312.72739279999996,312.7386094000001,313.7726722,,,,,313.7729537,313.7884013999999,313.98832059999995,313.9720305000001,312.7386094000001,,,,,,,,1,0,1.029005700000198,None,,,,,,,,881,22,M,R,2026-02-18_11h10.28.541,VisualSearch_2526_3,,2025.2.4,2026-02-18 11h10.29.395938 +0100,
tilted.xlsx,The target is tilted.,117,4,4,0,1,1,1,1,0,0,0,0,0,0,0,0,0,3,4,117,space,5.974971400000186,None,0,0,1.4949801000000207,None,space,0.6830411999999342,None,0,1,1,0,,,,,0,4,4,2,313.98832059999995,,,,,,,,,,,,,,,,,,,,,313.97277110000005,313.98832059999995,314.4716384999999,314.47636439999997,314.4954037,316.0050266999999,,,,,316.0052206999999,316.02048749999994,316.22063030000004,316.20439579999993,314.4954037,,,,,,,,0,0,1.4949801000000207,None,,,,,,,,881,22,M,R,2026-02-18_11h10.28.541,VisualSearch_2526_3,,2025.2.4,2026-02-18 11h10.29.395938 +0100,
tilted.xlsx,The target is tilted.,117,5,5,0,1,1,1,1,1,1,1,1,1,1,1,1,0,11,12,117,space,5.974971400000186,None,1,1,1.9890924999999697,None,space,0.6830411999999342,None,0,1,1,0,,,,,0,5,5,0,316.22063030000004,,,,,,,,,,,,,,,,,,,,,316.20520409999995,316.22063030000004,316.704332,316.7096506999999,316.7286666,318.7205650000001,,,,,318.7207636999999,318.7358187,318.9360382,318.9199698,316.7286666,,,,,,,,1,1,1.9890924999999697,None,,,,,,,,881,22,M,R,2026-02-18_11h10.28.541,VisualSearch_2526_3,,2025.2.4,2026-02-18 11h10.29.395938 +0100,
tilted.xlsx,The target is tilted.,117,6,6,0,0,0,0,0,0,0,0,0,0,0,0,0,1,1,1,117,space,5.974971400000186,None,0,1,0.7890350000000126,None,space,0.6830411999999342,None,0,1,1,0,,,,,0,6,6,7,318.9360382,,,,,,,,,,,,,,,,,,,,,318.92079149999995,318.9360382,319.4195288000001,319.42431669999996,319.44373769999993,320.2357898999999,,,,,320.23593789999995,320.2521351999999,320.4519597000001,320.4357459999999,319.44373769999993,,,,,,,,0,1,0.7890350000000126,None,,,,,,,,881,22,M,R,2026-02-18_11h10.28.541,VisualSearch_2526_3,,2025.2.4,2026-02-18 11h10.29.395938 +0100,
tilted.xlsx,The target is tilted.,117,7,7,0,1,0,0,0,0,0,0,0,0,0,0,0,0,0,1,117,space,5.974971400000186,None,0,0,0.626715600000125,None,space,0.6830411999999342,None,0,1,1,0,,,,,0,7,7,3,320.4519597000001,,,,,,,,,,,,,,,,,,,,,320.43653889999996,320.4519597000001,320.9357428999999,320.9409324999999,320.9599627,321.60256200000003,,,,,321.60276410000006,321.61787290000007,321.818121,321.80193140000006,320.9599627,,,,,,,,0,0,0.626715600000125,None,,,,,,,,881,22,M,R,2026-02-18_11h10.28.541,VisualSearch_2526_3,,2025.2.4,2026-02-18 11h10.29.395938 +0100,
tilted.xlsx,The target is tilted.,117,8,0,1,1,1,1,1,0,0,0,0,0,0,0,0,0,3,4,117,space,5.974971400000186,None,0,0,0.8743417000000591,None,space,0.6830411999999342,None,0,1,1,0,,,,,1,0,8,2,321.818121,,,,,,,,,,,,,,,,,,,,,321.80272650000006,321.818121,322.3016812999999,322.30647079999994,322.32572419999997,323.2016971999999,,,,,323.201904,323.21722950000003,323.41733479999994,323.4012528999999,322.32572419999997,,,,,,,,0,0,0.8743417000000591,None,,,,,,,,881,22,M,R,2026-02-18_11h10.28.541,VisualSearch_2526_3,,2025.2.4,2026-02-18 11h10.29.395938 +0100,
tilted.xlsx,The target is tilted.,117,9,1,1,1,1,1,1,1,1,1,1,1,1,1,1,0,11,12,117,space,5.974971400000186,None,0,0,2.084766400000035,None,space,0.6830411999999342,None,0,1,1,0,,,,,1,1,9,0,323.41733479999994,,,,,,,,,,,,,,,,,,,,,323.40200159999995,323.41733479999994,323.90116779999994,323.90643750000004,323.9256081000001,326.01715839999997,,,,,326.01735439999993,326.0326230999999,326.23259299999995,326.21645579999995,323.9256081000001,,,,,,,,0,0,2.084766400000035,None,,,,,,,,881,22,M,R,2026-02-18_11h10.28.541,VisualSearch_2526_3,,2025.2.4,2026-02-18 11h10.29.395938 +0100,
tilted.xlsx,The target is tilted.,117,10,2,1,0,1,1,1,0,0,0,0,0,0,0,0,1,3,4,117,space,5.974971400000186,None,0,1,0.5756344999999783,None,space,0.6830411999999342,None,0,1,1,0,,,,,1,2,10,6,326.23259299999995,,,,,,,,,,,,,,,,,,,,,326.21726050000007,326.23259299999995,326.71652599999993,326.72225679999997,326.74236700000006,327.3333373999999,,,,,327.3335331999999,327.3487978999999,327.54875319999996,327.5326656,326.74236700000006,,,,,,,,0,1,0.5756344999999783,None,,,,,,,,881,22,M,R,2026-02-18_11h10.28.541,VisualSearch_2526_3,,2025.2.4,2026-02-18 11h10.29.395938 +0100,
tilted.xlsx,The target is tilted.,117,11,3,1,1,1,1,1,1,1,1,1,0,0,0,0,0,7,8,117,space,5.974971400000186,None,1,1,0.8937851000000592,None,space,0.6830411999999342,None,0,1,1,0,,,,,1,3,11,1,327.54875319999996,,,,,,,,,,,,,,,,,,,,,327.53338699999995,327.54875319999996,328.0323962,328.0374859000001,328.05657599999995,328.9658913999999,,,,,328.96608790000005,328.98135890000003,329.1813603999999,329.16520059999993,328.05657599999995,,,,,,,,1,1,0.8937851000000592,None,,,,,,,,881,22,M,R,2026-02-18_11h10.28.541,VisualSearch_2526_3,,2025.2.4,2026-02-18 11h10.29.395938 +0100,
tilted.xlsx,The target is tilted.,117,12,4,1,0,1,1,1,1,1,1,1,1,1,1,1,1,11,12,117,space,5.974971400000186,None,1,0,0.8788770000001023,None,space,0.6830411999999342,None,0,1,1,0,,,,,1,4,12,4,329.1813603999999,,,,,,,,,,,,,,,,,,,,,329.16601390000005,329.1813603999999,329.6649310999999,329.6696996999999,329.68889250000007,330.5818323000001,,,,,330.58202860000006,330.5972887999999,330.7973540999999,330.7813383,329.68889250000007,,,,,,,,1,0,0.8788770000001023,None,,,,,,,,881,22,M,R,2026-02-18_11h10.28.541,VisualSearch_2526_3,,2025.2.4,2026-02-18 11h10.29.395938 +0100,
tilted.xlsx,The target is tilted.,117,13,5,1,0,1,1,1,1,1,1,1,0,0,0,0,1,7,8,117,space,5.974971400000186,None,0,1,1.8764860000001136,None,space,0.6830411999999342,None,0,1,1,0,,,,,1,5,13,5,330.7973540999999,,,,,,,,,,,,,,,,,,,,,330.7821524000001,330.7973540999999,331.28083059999994,331.28553450000004,331.3047111000001,333.19727379999995,,,,,333.1974688999999,333.21251159999997,333.41239410000003,333.3963667999999,331.3047111000001,,,,,,,,0,1,1.8764860000001136,None,,,,,,,,881,22,M,R,2026-02-18_11h10.28.541,VisualSearch_2526_3,,2025.2.4,2026-02-18 11h10.29.395938 +0100,
tilted.xlsx,The target is tilted.,117,14,6,1,0,0,0,0,0,0,0,0,0,0,0,0,1,1,1,117,space,5.974971400000186,None,1,0,0.7093866000000162,None,space,0.6830411999999342,None,0,1,1,0,,,,,1,6,14,7,333.41239410000003,,,,,,,,,,,,,,,,,,,,,333.39708829999995,333.41239410000003,333.89642129999993,333.9011768999999,333.92050070000005,334.6462409999999,,,,,334.6463884,334.6622611999999,334.862171,334.84595609999997,333.92050070000005,,,,,,,,1,0,0.7093866000000162,None,,,,,,,,881,22,M,R,2026-02-18_11h10.28.541,VisualSearch_2526_3,,2025.2.4,2026-02-18 11h10.29.395938 +0100,
tilted.xlsx,The target is tilted.,117,15,7,1,1,0,0,0,0,0,0,0,0,0,0,0,0,0,1,117,space,5.974971400000186,None,0,0,1.4119049000000814,None,space,0.6830411999999342,None,0,1,1,0,,,,,1,7,15,3,334.862171,,,,,,,,,,,,,,,,,,,,,334.84670660000006,334.862171,335.3457146999999,335.35054130000003,335.36957400000006,336.79565720000005,,,,,336.79585040000006,336.81117919999997,337.0111227,336.9944350999999,335.36957400000006,,,,,,,,0,0,1.4119049000000814,None,,,,,,,,881,22,M,R,2026-02-18_11h10.28.541,VisualSearch_2526_3,,2025.2.4,2026-02-18 11h10.29.395938 +0100,
tilted.xlsx,The target is tilted.,117,16,0,2,1,1,1,1,0,0,0,0,0,0,0,0,0,3,4,117,space,5.974971400000186,None,0,0,1.2192046000000119,None,space,0.6830411999999342,None,0,1,1,0,,,,,2,0,16,2,337.0111227,,,,,,,,,,,,,,,,,,,,,336.9951682000001,337.0111227,337.49466540000003,337.49942080000005,337.51860399999987,338.7446345999999,,,,,338.74483250000003,338.7601588,338.9600312,338.94414069999993,337.51860399999987,,,,,,,,0,0,1.2192046000000119,None,,,,,,,,881,22,M,R,2026-02-18_11h10.28.541,VisualSearch_2526_3,,2025.2.4,2026-02-18 11h10.29.395938 +0100,
tilted.xlsx,The target is tilted.,117,17,1,2,0,0,0,0,0,0,0,0,0,0,0,0,1,1,1,117,space,5.974971400000186,None,0,1,0.5950420000001486,None,space,0.6830411999999342,None,0,1,1,0,,,,,2,1,17,7,338.9600312,,,,,,,,,,,,,,,,,,,,,338.94495630000006,338.9600312,339.44372440000006,339.4484336999999,339.4675288000001,340.07755199999997,,,,,340.0777455,340.09290869999995,340.29259449999995,340.2768879,339.4675288000001,,,,,,,,0,1,0.5950420000001486,None,,,,,,,,881,22,M,R,2026-02-18_11h10.28.541,VisualSearch_2526_3,,2025.2.4,2026-02-18 11h10.29.395938 +0100,
tilted.xlsx,The target is tilted.,117,18,2,2,0,1,1,1,1,1,1,1,0,0,0,0,1,7,8,117,space,5.974971400000186,None,1,0,0.8261484999998174,None,space,0.6830411999999342,None,0,1,1,0,,,,,2,2,18,5,340.29259449999995,,,,,,,,,,,,,,,,,,,,,340.27761340000006,340.29259449999995,340.77659629999994,340.78142619999994,340.80062780000003,341.6431949,,,,,341.6433127,341.6588907999999,341.85891990000005,341.8428206000001,340.80062780000003,,,,,,,,1,0,0.8261484999998174,None,,,,,,,,881,22,M,R,2026-02-18_11h10.28.541,VisualSearch_2526_3,,2025.2.4,2026-02-18 11h10.29.395938 +0100,
tilted.xlsx,The target is tilted.,117,19,3,2,0,1,1,1,1,1,1,1,1,1,1,1,1,11,12,117,space,5.974971400000186,None,0,1,1.0737798000000112,None,space,0.6830411999999342,None,0,1,1,0,,,,,2,3,19,4,341.85891990000005,,,,,,,,,,,,,,,,,,,,,341.8435749999999,341.85891990000005,342.3427477,342.34750299999996,342.36665590000007,343.4427596999999,,,,,343.4429622,343.4582584,343.6580687999999,343.6415413,342.36665590000007,,,,,,,,0,1,1.0737798000000112,None,,,,,,,,881,22,M,R,2026-02-18_11h10.28.541,VisualSearch_2526_3,,2025.2.4,2026-02-18 11h10.29.395938 +0100,
tilted.xlsx,The target is tilted.,117,20,4,2,1,0,0,0,0,0,0,0,0,0,0,0,0,0,1,117,space,5.974971400000186,None,0,0,0.5637890000000425,None,space,0.6830411999999342,None,0,1,1,0,,,,,2,4,20,3,343.6580687999999,,,,,,,,,,,,,,,,,,,,,343.6421015000001,343.6580687999999,344.14145299999996,344.14657740000007,344.16574790000004,344.7420509000001,,,,,344.742244,344.7576225,344.9574445999999,344.9409820999999,344.16574790000004,,,,,,,,0,0,0.5637890000000425,None,,,,,,,,881,22,M,R,2026-02-18_11h10.28.541,VisualSearch_2526_3,,2025.2.4,2026-02-18 11h10.29.395938 +0100,
tilted.xlsx,The target is tilted.,117,21,5,2,1,1,1,1,1,1,1,1,1,1,1,1,0,11,12,117,space,5.974971400000186,None,1,1,1.0718042999999398,None,space,0.6830411999999342,None,0,1,1,0,,,,,2,5,21,0,344.9574445999999,,,,,,,,,,,,,,,,,,,,,344.94175369999994,344.9574445999999,345.4412130999999,345.44588010000007,345.4649334999999,346.5410425,,,,,346.54123589999995,346.5566507000001,346.7566328999999,346.7405166000001,345.4649334999999,,,,,,,,1,1,1.0718042999999398,None,,,,,,,,881,22,M,R,2026-02-18_11h10.28.541,VisualSearch_2526_3,,2025.2.4,2026-02-18 11h10.29.395938 +0100,
tilted.xlsx,The target is tilted.,117,22,6,2,1,1,1,1,1,1,1,1,0,0,0,0,0,7,8,117,space,5.974971400000186,None,0,0,1.5704440000001796,None,space,0.6830411999999342,None,0,1,1,0,,,,,2,6,22,1,346.7566328999999,,,,,,,,,,,,,,,,,,,,,346.7412933999999,346.7566328999999,347.2403904999999,347.24540019999995,347.2646009,348.83999070000004,,,,,348.84021559999996,348.8556791000001,349.05567210000004,349.03953679999995,347.2646009,,,,,,,,0,0,1.5704440000001796,None,,,,,,,,881,22,M,R,2026-02-18_11h10.28.541,VisualSearch_2526_3,,2025.2.4,2026-02-18 11h10.29.395938 +0100,
tilted.xlsx,The target is tilted.,117,23,7,2,0,1,1,1,0,0,0,0,0,0,0,0,1,3,4,117,space,5.974971400000186,None,0,1,1.1543976000000384,None,space,0.6830411999999342,None,0,1,1,0,,,,,2,7,23,6,349.05567210000004,,,,,,,,,,,,,,,,,,,,,349.0402730999999,349.05567210000004,349.5392237000001,349.5440475999999,349.5629870999999,350.72261019999996,,,,,350.72280509999996,350.7378348,350.9380217999999,350.92117729999995,349.5629870999999,,,,,,,,0,1,1.1543976000000384,None,,,,,,,,881,22,M,R,2026-02-18_11h10.28.541,VisualSearch_2526_3,,2025.2.4,2026-02-18 11h10.29.395938 +0100,
tilted.xlsx,The target is tilted.,117,24,0,3,1,1,1,1,0,0,0,0,0,0,0,0,0,3,4,117,space,5.974971400000186,None,0,0,0.6544401999999536,None,space,0.6830411999999342,None,0,1,1,0,,,,,3,0,24,2,350.9380217999999,,,,,,,,,,,,,,,,,,,,,350.92166989999987,350.9380217999999,351.42171959999996,351.4265800999999,351.4455716,352.1052562,,,,,352.10545030000003,352.1204878000001,352.3209528,352.3048346999999,351.4455716,,,,,,,,0,0,0.6544401999999536,None,,,,,,,,881,22,M,R,2026-02-18_11h10.28.541,VisualSearch_2526_3,,2025.2.4,2026-02-18 11h10.29.395938 +0100,
tilted.xlsx,The target is tilted.,117,25,1,3,0,0,0,0,0,0,0,0,0,0,0,0,1,1,1,117,space,5.974971400000186,None,0,1,0.6758781999999428,None,space,0.6830411999999342,None,0,1,1,0,,,,,3,1,25,7,352.3209528,,,,,,,,,,,,,,,,,,,,,352.3056905000001,352.3209528,352.8044591999999,352.8092879999999,352.8287909999999,353.5209863,,,,,353.5211303000001,353.5369221000001,353.7368727999999,353.7209837999999,352.8287909999999,,,,,,,,0,1,0.6758781999999428,None,,,,,,,,881,22,M,R,2026-02-18_11h10.28.541,VisualSearch_2526_3,,2025.2.4,2026-02-18 11h10.29.395938 +0100,
tilted.xlsx,The target is tilted.,117,26,2,3,0,1,1,1,0,0,0,0,0,0,0,0,1,3,4,117,space,5.974971400000186,None,0,1,0.98489840000002,None,space,0.6830411999999342,None,0,1,1,0,,,,,3,2,26,6,353.7368727999999,,,,,,,,,,,,,,,,,,,,,353.72178080000003,353.7368727999999,354.2205375000001,354.2252483,354.2443673,355.2372786000001,,,,,355.2374757,355.2524897999999,355.4525317,355.43679670000006,354.2443673,,,,,,,,0,1,0.98489840000002,None,,,,,,,,881,22,M,R,2026-02-18_11h10.28.541,VisualSearch_2526_3,,2025.2.4,2026-02-18 11h10.29.395938 +0100,
tilted.xlsx,The target is tilted.,117,27,3,3,1,1,1,1,1,1,1,1,1,1,1,1,0,11,12,117,space,5.974971400000186,None,1,1,1.866138699999965,None,space,0.6830411999999342,None,0,1,1,0,,,,,3,3,27,0,355.4525317,,,,,,,,,,,,,,,,,,,,,355.43758290000005,355.4525317,355.9363742999999,355.9411388000001,355.95730789999993,357.8361456,,,,,357.8363386000001,357.85165770000003,358.0516244999999,358.03527069999996,355.95730789999993,,,,,,,,1,1,1.866138699999965,None,,,,,,,,881,22,M,R,2026-02-18_11h10.28.541,VisualSearch_2526_3,,2025.2.4,2026-02-18 11h10.29.395938 +0100,
tilted.xlsx,The target is tilted.,117,28,4,3,0,1,1,1,1,1,1,1,1,1,1,1,1,11,12,117,space,5.974971400000186,None,1,0,0.8351977999998326,None,space,0.6830411999999342,None,0,1,1,0,,,,,3,4,28,4,358.0516244999999,,,,,,,,,,,,,,,,,,,,,358.03609789999996,358.0516244999999,358.53539109999997,358.5406283,358.5598106,359.4021031,,,,,359.40229350000004,359.41724679999993,359.6175258999999,359.601322,358.5598106,,,,,,,,1,0,0.8351977999998326,None,,,,,,,,881,22,M,R,2026-02-18_11h10.28.541,VisualSearch_2526_3,,2025.2.4,2026-02-18 11h10.29.395938 +0100,
tilted.xlsx,The target is tilted.,117,29,5,3,0,1,1,1,1,1,1,1,0,0,0,0,1,7,8,117,space,5.974971400000186,None,1,0,0.8780481999999665,None,space,0.6830411999999342,None,0,1,1,0,,,,,3,5,29,5,359.6175258999999,,,,,,,,,,,,,,,,,,,,,359.6021533999999,359.6175258999999,360.10135949999994,360.10641940000005,360.1171606999999,361.001391,,,,,361.0015842,361.0165262999999,361.21686909999994,361.2006710999999,360.1171606999999,,,,,,,,1,0,0.8780481999999665,None,,,,,,,,881,22,M,R,2026-02-18_11h10.28.541,VisualSearch_2526_3,,2025.2.4,2026-02-18 11h10.29.395938 +0100,
tilted.xlsx,The target is tilted.,117,30,6,3,1,0,0,0,0,0,0,0,0,0,0,0,0,0,1,117,space,5.974971400000186,None,0,0,0.8190408000000389,None,space,0.6830411999999342,None,0,1,1,0,,,,,3,6,30,3,361.21686909999994,,,,,,,,,,,,,,,,,,,,,361.201462,361.21686909999994,361.7005836000001,361.7055691999999,361.7164505999999,362.5506307999999,,,,,362.5508210999999,362.56609019999996,362.76615459999994,362.74996469999996,361.7164505999999,,,,,,,,0,0,0.8190408000000389,None,,,,,,,,881,22,M,R,2026-02-18_11h10.28.541,VisualSearch_2526_3,,2025.2.4,2026-02-18 11h10.29.395938 +0100,
tilted.xlsx,The target is tilted.,117,31,7,3,1,1,1,1,1,1,1,1,0,0,0,0,0,7,8,117,space,5.974971400000186,None,1,1,0.7895499999999629,None,space,0.6830411999999342,None,0,1,1,0,,,,,3,7,31,1,362.76615459999994,,,,,,,,,,,,,,,,,,,,,362.7507338999999,362.76615459999994,363.2498183,363.25456340000005,363.2734137,364.066286,,,,,364.06650109999987,364.0820315000001,364.2820494,364.2655023,363.2734137,,,,,,,,1,1,0.7895499999999629,None,,,,,,,,881,22,M,R,2026-02-18_11h10.28.541,VisualSearch_2526_3,,2025.2.4,2026-02-18 11h10.29.395938 +0100,
tilted.xlsx,The target is tilted.,117,32,0,4,0,1,1,1,0,0,0,0,0,0,0,0,1,3,4,117,space,5.974971400000186,None,0,1,0.714459799999986,None,space,0.6830411999999342,None,0,1,1,0,,,,,4,0,32,6,364.2820494,,,,,,,,,,,,,,,,,,,,,364.26592759999994,364.2820494,364.7656170999999,364.7706971,364.7899287,365.51593550000007,,,,,365.51612840000007,365.5315578,365.73151970000004,365.7153705999999,364.7899287,,,,,,,,0,1,0.714459799999986,None,,,,,,,,881,22,M,R,2026-02-18_11h10.28.541,VisualSearch_2526_3,,2025.2.4,2026-02-18 11h10.29.395938 +0100,
tilted.xlsx,The target is tilted.,117,33,1,4,1,1,1,1,1,1,1,1,1,1,1,1,0,11,12,117,space,5.974971400000186,None,1,1,0.6705136000000493,None,space,0.6830411999999342,None,0,1,1,0,,,,,4,1,33,0,365.73151970000004,,,,,,,,,,,,,,,,,,,,,365.71619239999995,365.73151970000004,366.2152868999999,366.22064219999993,366.23987579999994,366.91586929999994,,,,,366.9160767000001,366.9305420999999,367.13078999999993,367.11461889999987,366.23987579999994,,,,,,,,1,1,0.6705136000000493,None,,,,,,,,881,22,M,R,2026-02-18_11h10.28.541,VisualSearch_2526_3,,2025.2.4,2026-02-18 11h10.29.395938 +0100,
tilted.xlsx,The target is tilted.,117,34,2,4,1,1,1,1,1,1,1,1,0,0,0,0,0,7,8,117,space,5.974971400000186,None,1,1,1.379876299999978,None,space,0.6830411999999342,None,0,1,1,0,,,,,4,2,34,1,367.13078999999993,,,,,,,,,,,,,,,,,,,,,367.1154308,367.13078999999993,367.61416570000006,367.6189102000001,367.63825640000005,369.0310617,,,,,369.0312563,369.0464798999999,369.24615289999997,369.23039930000004,367.63825640000005,,,,,,,,1,1,1.379876299999978,None,,,,,,,,881,22,M,R,2026-02-18_11h10.28.541,VisualSearch_2526_3,,2025.2.4,2026-02-18 11h10.29.395938 +0100,
tilted.xlsx,The target is tilted.,117,35,3,4,1,1,1,1,0,0,0,0,0,0,0,0,0,3,4,117,space,5.974971400000186,None,0,0,1.50554679999982,None,space,0.6830411999999342,None,0,1,1,0,,,,,4,3,35,2,369.24615289999997,,,,,,,,,,,,,,,,,,,,,369.2311428999999,369.24615289999997,369.73025039999993,369.7350019999999,369.75416700000005,371.26300949999995,,,,,371.2631997000001,371.2787751999999,371.4788741,371.4627172999999,369.75416700000005,,,,,,,,0,0,1.50554679999982,None,,,,,,,,881,22,M,R,2026-02-18_11h10.28.541,VisualSearch_2526_3,,2025.2.4,2026-02-18 11h10.29.395938 +0100,
tilted.xlsx,The target is tilted.,117,36,4,4,1,0,0,0,0,0,0,0,0,0,0,0,0,0,1,117,space,5.974971400000186,None,0,0,1.7638979000000745,None,space,0.6830411999999342,None,0,1,1,0,,,,,4,4,36,3,371.4788741,,,,,,,,,,,,,,,,,,,,,371.4635011999999,371.4788741,371.9623598999999,371.9671552,371.98661059999995,373.7621898,,,,,373.7623888999999,373.7774614,373.9777245,373.9615633000001,371.98661059999995,,,,,,,,0,0,1.7638979000000745,None,,,,,,,,881,22,M,R,2026-02-18_11h10.28.541,VisualSearch_2526_3,,2025.2.4,2026-02-18 11h10.29.395938 +0100,
tilted.xlsx,The target is tilted.,117,37,5,4,0,1,1,1,1,1,1,1,0,0,0,0,1,7,8,117,space,5.974971400000186,None,0,1,1.4785153000000264,None,space,0.6830411999999342,None,0,1,1,0,,,,,4,5,37,5,373.9777245,,,,,,,,,,,,,,,,,,,,,373.9623245,373.9777245,374.46109320000005,374.46504000000004,374.47737370000004,375.9612314000001,,,,,375.96142639999994,375.97673639999994,376.17672790000006,376.1606101,374.47737370000004,,,,,,,,0,1,1.4785153000000264,None,,,,,,,,881,22,M,R,2026-02-18_11h10.28.541,VisualSearch_2526_3,,2025.2.4,2026-02-18 11h10.29.395938 +0100,
