file_name,block_instructions,target_example,thisN,thisTrialN,thisRepN,target_presence,opacity_1,opacity_2,opacity_3,opacity_4,opacity_5,opacity_6,opacity_7,opacity_8,opacity_9,opacity_10,opacity_11,opacity_12,n_distract,n_items,target_ori,key_resp_4.keys,key_resp_4.rt,key_resp_4.duration,key_resp.keys,key_resp.corr,key_resp.rt,key_resp.duration,key_resp_5.keys,key_resp_5.rt,key_resp_5.duration,blocks.thisRepN,blocks.thisTrialN,blocks.thisN,blocks.thisIndex,practice_trials.thisRepN,practice_trials.thisTrialN,practice_trials.thisN,practice_trials.thisIndex,trials.thisRepN,trials.thisTrialN,trials.thisN,trials.thisIndex,thisRow.t,notes,Welcome.started,WelcomeText.started,key_resp_2.started,Welcome.stopped,key_resp_2.keys,key_resp_2.rt,key_resp_2.duration,InformedConsent.started,text_4.started,InformedConsent.stopped,key_resp_6.keys,key_resp_6.rt,key_resp_6.duration,key_resp_4.started,example_target.started,text_3.started,blocks.key_resp_4.keys,blocks.key_resp_4.rt,blocks.key_resp_4.duration,FixCross.started,fixCross.started,FixCross.stopped,Stimulus.started,key_resp.started,Stimulus.stopped,practice_trials.key_resp.keys,practice_trials.key_resp.corr,practice_trials.key_resp.rt,practice_trials.key_resp.duration,BlankScreen.started,text.started,text.stopped,BlankScreen.stopped,fixCross.stopped,ExperimentStart.started,text_2.started,key_resp_5.started,ExperimentStart.stopped,blocks.key_resp_5.keys,blocks.key_resp_5.rt,blocks.key_resp_5.duration,trials.key_resp.keys,trials.key_resp.corr,trials.key_resp.rt,trials.key_resp.duration,Thanks.started,ThankYou.started,key_resp_3.started,Thanks.stopped,key_resp_3.keys,key_resp_3.rt,key_resp_3.duration,participant,leeftijd,gender,links/rechtshandig,date,expName,expVersion,psychopyVersion,expStart,
,,,,,,,,,,,,,,,,,,,,,,,,,,,,,,,,,,,,,,,,,,,,,,0.04050219999999172,0.06017299999984971,0.06017299999984971,161.8111945999999,space,161.73476899999991,None,,,,,,,,,,,,,,,,,,,,,,,,,,,,,,,,,,,,,,,,,,,,,,882,23,,R,2026-02-18_11h26.14.057,VisualSearch_2526_3,,2025.2.4,2026-02-18 11h26.14.416110 +0100,
,,,,,,,,,,,,,,,,,,,,,,,,,,,,,,,,,,,,,,,,,,,,,,,,,,,,,161.8113424999999,161.8197545999999,185.71863429999985,y,23.903501000000006,None,,,,,,,,,,,,,,,,,,,,,,,,,,,,,,,,,,,,,,,,882,23,,R,2026-02-18_11h26.14.057,VisualSearch_2526_3,,2025.2.4,2026-02-18 11h26.14.416110 +0100,
vertical.xlsx,The target is tilted.,135,0,0,0,0,1,1,1,0,0,0,0,0,0,0,0,1,3,4,135,space,7.733943499999896,None,0,1,1.6223700000000463,None,,,,0,0,0,1,0,0,0,6,,,,,193.5472451999999,,,,,,,,,,,,,,,185.76578419999987,185.76578419999987,185.76578419999987,space,7.733943499999896,None,193.54198599999995,193.5472451999999,194.03042989999994,194.03588919999993,194.05576939999992,195.68040629999996,0,1,1.6223700000000463,None,195.68061139999986,195.69573689999993,195.89574649999986,195.87959509999996,,,,,,,,,,,,,,,,,,,,882,23,,R,2026-02-18_11h26.14.057,VisualSearch_2526_3,,2025.2.4,2026-02-18 11h26.14.416110 +0100,
vertical.xlsx,The target is tilted.,135,1,1,0,1,1,1,1,0,0,0,0,0,0,0,0,0,3,4,135,space,7.733943499999896,None,1,1,1.1726128000000244,None,,,,0,0,0,1,0,1,1,2,,,,,195.89574649999986,,,,,,,,,,,,,,,,,,,,,195.8802816,195.89574649999986,196.37947680000002,196.38439519999997,196.40355249999993,197.57943950000003,1,1,1.1726128000000244,None,197.57962789999988,197.59495119999997,197.79500770000004,197.77847859999997,196.40355249999993,,,,,,,,,,,,,,,,,,,882,23,,R,2026-02-18_11h26.14.057,VisualSearch_2526_3,,2025.2.4,2026-02-18 11h26.14.416110 +0100,
vertical.xlsx,The target is tilted.,135,2,2,0,1,0,0,0,0,0,0,0,0,0,0,0,0,0,1,135,space,7.733943499999896,None,1,1,0.9615873999998712,None,,,,0,0,0,1,0,2,2,3,,,,,197.79500770000004,,,,,,,,,,,,,,,,,,,,,197.77918729999988,197.79500770000004,198.27862499999992,198.2842536999999,198.30353999999988,199.27758629999994,1,1,0.9615873999998712,None,199.27769850000004,199.2939793999999,,199.4779578,198.30353999999988,,,,,,,,,,,,,,,,,,,882,23,,R,2026-02-18_11h26.14.057,VisualSearch_2526_3,,2025.2.4,2026-02-18 11h26.14.416110 +0100,
vertical.xlsx,The target is tilted.,135,3,3,0,0,1,1,1,1,1,1,1,1,1,1,1,1,11,12,135,space,7.733943499999896,None,0,1,3.1682003999999324,None,,,,0,0,0,1,0,3,3,4,,,,,199.49437239999997,,,,,,,,,,,,,,,,,,,,,199.47878589999982,199.49437239999997,199.97779229999992,199.98260119999986,200.00186139999983,203.17687389999992,0,1,3.1682003999999324,None,203.1770629,203.1920063,203.39216179999994,203.3759273999999,200.00186139999983,,,,,,,,,,,,,,,,,,,882,23,,R,2026-02-18_11h26.14.057,VisualSearch_2526_3,,2025.2.4,2026-02-18 11h26.14.416110 +0100,
vertical.xlsx,The target is tilted.,135,4,4,0,1,1,1,1,1,1,1,1,0,0,0,0,0,7,8,135,space,7.733943499999896,None,1,1,1.4117197000000488,None,,,,0,0,0,1,0,4,4,1,,,,,203.39216179999994,,,,,,,,,,,,,,,,,,,,,203.37657259999992,203.39216179999994,203.87569409999992,203.88055919999988,203.89992510000002,205.32478489999994,1,1,1.4117197000000488,None,205.3248997999999,205.34120319999988,,205.52522409999983,203.89992510000002,,,,,,,,,,,,,,,,,,,882,23,,R,2026-02-18_11h26.14.057,VisualSearch_2526_3,,2025.2.4,2026-02-18 11h26.14.416110 +0100,
vertical.xlsx,The target is tilted.,135,5,5,0,0,0,0,0,0,0,0,0,0,0,0,0,1,1,1,135,space,7.733943499999896,None,0,1,0.8223356000000877,None,,,,0,0,0,1,0,5,5,7,,,,,205.54155489999994,,,,,,,,,,,,,,,,,,,,,205.52602669999987,205.54155489999994,206.02511099999992,206.02997749999986,206.04939949999994,206.87502829999994,0,1,0.8223356000000877,None,206.87521389999984,206.8903327999999,207.09081819999983,207.07460859999992,206.04939949999994,,,,,,,,,,,,,,,,,,,882,23,,R,2026-02-18_11h26.14.057,VisualSearch_2526_3,,2025.2.4,2026-02-18 11h26.14.416110 +0100,
vertical.xlsx,The target is tilted.,135,6,6,0,1,1,1,1,1,1,1,1,1,1,1,1,0,11,12,135,space,7.733943499999896,None,1,1,1.4354455000000144,None,,,,0,0,0,1,0,6,6,0,,,,,207.09081819999983,,,,,,,,,,,,,,,,,,,,,207.07532259999994,207.09081819999983,207.57438460000003,207.5791119999999,207.590377,209.0404286999999,1,1,1.4354455000000144,None,209.04062350000004,209.0560223,209.2564084999999,209.24041309999984,207.590377,,,,,,,,,,,,,,,,,,,882,23,,R,2026-02-18_11h26.14.057,VisualSearch_2526_3,,2025.2.4,2026-02-18 11h26.14.416110 +0100,
vertical.xlsx,The target is tilted.,135,7,7,0,0,1,1,1,1,1,1,1,0,0,0,0,1,7,8,135,space,7.733943499999896,None,0,1,2.0897244999998748,None,,,,0,0,0,1,0,7,7,5,,,,,209.2564084999999,,,,,,,,,,,,,,,,,,,,,209.24105259999988,209.2564084999999,209.7400588999999,209.74487679999993,209.76403679999999,211.85627579999982,0,1,2.0897244999998748,None,211.85646969999993,211.87139479999996,212.07184189999998,212.05561879999982,209.76403679999999,,,,,,,,,,,,,,,,,,,882,23,,R,2026-02-18_11h26.14.057,VisualSearch_2526_3,,2025.2.4,2026-02-18 11h26.14.416110 +0100,
vertical.xlsx,The target is tilted.,135,0,0,0,1,1,1,1,1,1,1,1,1,1,1,1,0,11,12,135,space,7.733943499999896,None,1,1,1.967758200000162,None,space,3.1271478000001025,None,0,0,0,1,,,,,0,0,0,0,215.22883409999986,,,,,,,,,,,,,,,,,,,,,215.22459489999983,215.22883409999986,215.7039388999999,215.70925969999985,215.72860459999993,217.70376480000004,,,,,217.70396229999983,217.7187489999999,217.91921079999997,217.9030135999999,,212.06256129999997,212.07184189999998,212.07184189999998,215.20368029999986,space,3.1271478000001025,None,1,1,1.967758200000162,None,,,,,,,,882,23,,R,2026-02-18_11h26.14.057,VisualSearch_2526_3,,2025.2.4,2026-02-18 11h26.14.416110 +0100,
vertical.xlsx,The target is tilted.,135,1,1,0,0,1,1,1,0,0,0,0,0,0,0,0,1,3,4,135,space,7.733943499999896,None,0,1,1.2531897999999728,None,space,3.1271478000001025,None,0,0,0,1,,,,,0,1,1,6,217.91921079999997,,,,,,,,,,,,,,,,,,,,,217.9037937999999,217.91921079999997,218.403098,218.40797759999987,218.42794729999991,219.68577029999983,,,,,219.68597709999995,219.70119309999995,219.90170679999983,219.88558639999997,218.42794729999991,,,,,,,,0,1,1.2531897999999728,None,,,,,,,,882,23,,R,2026-02-18_11h26.14.057,VisualSearch_2526_3,,2025.2.4,2026-02-18 11h26.14.416110 +0100,
vertical.xlsx,The target is tilted.,135,2,2,0,1,0,0,0,0,0,0,0,0,0,0,0,0,0,1,135,space,7.733943499999896,None,1,1,0.7387453999999707,None,space,3.1271478000001025,None,0,0,0,1,,,,,0,2,2,3,219.90170679999983,,,,,,,,,,,,,,,,,,,,,219.88645989999986,219.90170679999983,220.3856100999999,220.39096569999992,220.41036250000002,221.15211669999985,,,,,221.15230729999985,221.16695659999982,221.36722299999997,221.35141869999984,220.41036250000002,,,,,,,,1,1,0.7387453999999707,None,,,,,,,,882,23,,R,2026-02-18_11h26.14.057,VisualSearch_2526_3,,2025.2.4,2026-02-18 11h26.14.416110 +0100,
vertical.xlsx,The target is tilted.,135,3,3,0,0,1,1,1,1,1,1,1,1,1,1,1,1,11,12,135,space,7.733943499999896,None,0,1,2.8416430999998283,None,space,3.1271478000001025,None,0,0,0,1,,,,,0,3,3,4,221.36722299999997,,,,,,,,,,,,,,,,,,,,,221.3520191,221.36722299999997,221.85125119999998,221.85614710000004,221.87545009999985,224.7326768999999,,,,,224.73280060000002,224.74919690000002,,224.9330837,221.87545009999985,,,,,,,,0,1,2.8416430999998283,None,,,,,,,,882,23,,R,2026-02-18_11h26.14.057,VisualSearch_2526_3,,2025.2.4,2026-02-18 11h26.14.416110 +0100,
vertical.xlsx,The target is tilted.,135,4,4,0,0,0,0,0,0,0,0,0,0,0,0,0,1,1,1,135,space,7.733943499999896,None,0,1,0.8782051999999112,None,space,3.1271478000001025,None,0,0,0,1,,,,,0,4,4,7,224.94940729999985,,,,,,,,,,,,,,,,,,,,,224.93395280000004,224.94940729999985,225.43296050000004,225.43808639999997,225.44900979999989,226.3331094,,,,,226.333302,226.34792930000003,226.54854999999998,226.5324332,,,,,,,,,0,1,0.8782051999999112,None,,,,,,,,882,23,,R,2026-02-18_11h26.14.057,VisualSearch_2526_3,,2025.2.4,2026-02-18 11h26.14.416110 +0100,
vertical.xlsx,The target is tilted.,135,5,5,0,1,1,1,1,0,0,0,0,0,0,0,0,0,3,4,135,space,7.733943499999896,None,1,1,1.9260412000000997,None,space,3.1271478000001025,None,0,0,0,1,,,,,0,5,5,2,226.54854999999998,,,,,,,,,,,,,,,,,,,,,226.53325879999989,226.54854999999998,227.03238549999992,227.03770529999997,227.05698899999993,228.99793109999996,,,,,228.99814479999986,229.01360139999997,229.2142417,229.19798719999994,227.05698899999993,,,,,,,,1,1,1.9260412000000997,None,,,,,,,,882,23,,R,2026-02-18_11h26.14.057,VisualSearch_2526_3,,2025.2.4,2026-02-18 11h26.14.416110 +0100,
vertical.xlsx,The target is tilted.,135,6,6,0,1,1,1,1,1,1,1,1,0,0,0,0,0,7,8,135,space,7.733943499999896,None,1,1,2.60575179999978,None,space,3.1271478000001025,None,0,0,0,1,,,,,0,6,6,1,229.2142417,,,,,,,,,,,,,,,,,,,,,229.19875879999995,229.2142417,229.6976628,229.70257889999993,229.72185109999987,232.33041019999996,,,,,232.33061989999987,232.34546009999985,232.54569739999988,232.529761,229.72185109999987,,,,,,,,1,1,2.60575179999978,None,,,,,,,,882,23,,R,2026-02-18_11h26.14.057,VisualSearch_2526_3,,2025.2.4,2026-02-18 11h26.14.416110 +0100,
vertical.xlsx,The target is tilted.,135,7,7,0,0,1,1,1,1,1,1,1,0,0,0,0,1,7,8,135,space,7.733943499999896,None,0,1,2.8297580999999354,None,space,3.1271478000001025,None,0,0,0,1,,,,,0,7,7,5,232.54569739999988,,,,,,,,,,,,,,,,,,,,,232.53050689999986,232.54569739999988,233.0296171,233.03454179999994,233.05390020000004,235.89547070000003,,,,,235.89568069999996,235.91044880000004,236.1110366999999,236.0950573,233.05390020000004,,,,,,,,0,1,2.8297580999999354,None,,,,,,,,882,23,,R,2026-02-18_11h26.14.057,VisualSearch_2526_3,,2025.2.4,2026-02-18 11h26.14.416110 +0100,
vertical.xlsx,The target is tilted.,135,8,0,1,0,1,1,1,0,0,0,0,0,0,0,0,1,3,4,135,space,7.733943499999896,None,0,1,0.8373294000000442,None,space,3.1271478000001025,None,0,0,0,1,,,,,1,0,8,6,236.1110366999999,,,,,,,,,,,,,,,,,,,,,236.09586839999997,236.1110366999999,236.5945595999999,236.59944959999984,236.6190383999999,237.46130879999987,,,,,237.4615240999999,237.47624569999994,237.67684469999995,237.6607257999999,236.6190383999999,,,,,,,,0,1,0.8373294000000442,None,,,,,,,,882,23,,R,2026-02-18_11h26.14.057,VisualSearch_2526_3,,2025.2.4,2026-02-18 11h26.14.416110 +0100,
vertical.xlsx,The target is tilted.,135,9,1,1,0,0,0,0,0,0,0,0,0,0,0,0,1,1,1,135,space,7.733943499999896,None,0,1,0.6491003999999521,None,space,3.1271478000001025,None,0,0,0,1,,,,,1,1,9,7,237.67684469999995,,,,,,,,,,,,,,,,,,,,,237.6614692999999,237.67684469999995,238.16075879999994,238.1661876999999,238.18563359999985,238.8440946999999,,,,,238.84429189999992,238.85917410000002,239.05963459999998,239.04360810000003,238.18563359999985,,,,,,,,0,1,0.6491003999999521,None,,,,,,,,882,23,,R,2026-02-18_11h26.14.057,VisualSearch_2526_3,,2025.2.4,2026-02-18 11h26.14.416110 +0100,
vertical.xlsx,The target is tilted.,135,10,2,1,1,0,0,0,0,0,0,0,0,0,0,0,0,0,1,135,space,7.733943499999896,None,1,1,0.6467375999998239,None,space,3.1271478000001025,None,0,0,0,1,,,,,1,2,10,3,239.05963459999998,,,,,,,,,,,,,,,,,,,,,239.0443373999999,239.05963459999998,239.54324339999994,239.54804360000003,239.5672525,240.22625629999993,,,,,240.2265006,240.24181929999986,240.4423749,240.42596379999986,239.5672525,,,,,,,,1,1,0.6467375999998239,None,,,,,,,,882,23,,R,2026-02-18_11h26.14.057,VisualSearch_2526_3,,2025.2.4,2026-02-18 11h26.14.416110 +0100,
vertical.xlsx,The target is tilted.,135,11,3,1,0,1,1,1,1,1,1,1,1,1,1,1,1,11,12,135,space,7.733943499999896,None,0,1,3.261861100000033,None,space,3.1271478000001025,None,0,0,0,1,,,,,1,3,11,4,240.4423749,,,,,,,,,,,,,,,,,,,,,240.42677319999984,240.4423749,240.9256281999999,240.9304307,240.95037639999987,244.22440740000002,,,,,244.22463749999997,244.2399906999999,244.44035339999982,244.42420429999993,240.95037639999987,,,,,,,,0,1,3.261861100000033,None,,,,,,,,882,23,,R,2026-02-18_11h26.14.057,VisualSearch_2526_3,,2025.2.4,2026-02-18 11h26.14.416110 +0100,
vertical.xlsx,The target is tilted.,135,12,4,1,1,1,1,1,1,1,1,1,1,1,1,1,0,11,12,135,space,7.733943499999896,None,1,1,1.2392970000000787,None,space,3.1271478000001025,None,0,0,0,1,,,,,1,4,12,0,244.44035339999982,,,,,,,,,,,,,,,,,,,,,244.42496559999995,244.44035339999982,244.92412330000002,244.92888700000003,244.94787009999982,246.19048750000002,,,,,246.1906830999999,246.2056324,246.4062105999999,246.39028319999989,244.94787009999982,,,,,,,,1,1,1.2392970000000787,None,,,,,,,,882,23,,R,2026-02-18_11h26.14.057,VisualSearch_2526_3,,2025.2.4,2026-02-18 11h26.14.416110 +0100,
vertical.xlsx,The target is tilted.,135,13,5,1,0,1,1,1,1,1,1,1,0,0,0,0,1,7,8,135,space,7.733943499999896,None,0,1,2.4421724999999697,None,space,3.1271478000001025,None,0,0,0,1,,,,,1,5,13,5,246.4062105999999,,,,,,,,,,,,,,,,,,,,,246.39109110000004,246.4062105999999,246.89013799999998,246.89508679999994,246.90552589999993,249.35614829999986,,,,,249.3563804999999,249.37084600000003,249.57153900000003,249.55550629999993,246.90552589999993,,,,,,,,0,1,2.4421724999999697,None,,,,,,,,882,23,,R,2026-02-18_11h26.14.057,VisualSearch_2526_3,,2025.2.4,2026-02-18 11h26.14.416110 +0100,
vertical.xlsx,The target is tilted.,135,14,6,1,1,1,1,1,0,0,0,0,0,0,0,0,0,3,4,135,space,7.733943499999896,None,1,1,0.6645590000000539,None,space,3.1271478000001025,None,0,0,0,1,,,,,1,6,14,2,249.57153900000003,,,,,,,,,,,,,,,,,,,,,249.55633149999994,249.57153900000003,250.0550421999999,250.05984449999983,250.07939799999986,250.7554459999999,,,,,250.7556371999999,250.77037529999984,250.97082709999995,250.95467559999997,250.07939799999986,,,,,,,,1,1,0.6645590000000539,None,,,,,,,,882,23,,R,2026-02-18_11h26.14.057,VisualSearch_2526_3,,2025.2.4,2026-02-18 11h26.14.416110 +0100,
vertical.xlsx,The target is tilted.,135,15,7,1,1,1,1,1,1,1,1,1,0,0,0,0,0,7,8,135,space,7.733943499999896,None,1,1,2.4620279000000664,None,space,3.1271478000001025,None,0,0,0,1,,,,,1,7,15,1,250.97082709999995,,,,,,,,,,,,,,,,,,,,,250.95540889999984,250.97082709999995,251.4544833,251.45933109999987,251.4789905,253.95328999999992,,,,,253.9535014999999,253.96894840000004,254.16938619999996,254.15331300000003,251.4789905,,,,,,,,1,1,2.4620279000000664,None,,,,,,,,882,23,,R,2026-02-18_11h26.14.057,VisualSearch_2526_3,,2025.2.4,2026-02-18 11h26.14.416110 +0100,
vertical.xlsx,The target is tilted.,135,16,0,2,1,0,0,0,0,0,0,0,0,0,0,0,0,0,1,135,space,7.733943499999896,None,1,1,0.7611653999999817,None,space,3.1271478000001025,None,0,0,0,1,,,,,2,0,16,3,254.16938619999996,,,,,,,,,,,,,,,,,,,,,254.1540614999999,254.16938619999996,254.6532838999999,254.65874029999986,254.67793229999984,255.4521253999999,,,,,255.45224429999985,255.46857720000003,,255.65257529999985,254.67793229999984,,,,,,,,1,1,0.7611653999999817,None,,,,,,,,882,23,,R,2026-02-18_11h26.14.057,VisualSearch_2526_3,,2025.2.4,2026-02-18 11h26.14.416110 +0100,
vertical.xlsx,The target is tilted.,135,17,1,2,1,1,1,1,0,0,0,0,0,0,0,0,0,3,4,135,space,7.733943499999896,None,1,1,0.770986799999946,None,space,3.1271478000001025,None,0,0,0,1,,,,,2,1,17,2,255.6683903999999,,,,,,,,,,,,,,,,,,,,,255.65344949999985,255.6683903999999,256.1522809999999,256.1572893,256.1765098999999,256.95245769999997,,,,,256.95265959999983,256.9675665999998,257.16773249999983,257.1518690999999,256.1765098999999,,,,,,,,1,1,0.770986799999946,None,,,,,,,,882,23,,R,2026-02-18_11h26.14.057,VisualSearch_2526_3,,2025.2.4,2026-02-18 11h26.14.416110 +0100,
vertical.xlsx,The target is tilted.,135,18,2,2,1,1,1,1,1,1,1,1,0,0,0,0,0,7,8,135,space,7.733943499999896,None,1,1,1.2578612999998313,None,space,3.1271478000001025,None,0,0,0,1,,,,,2,2,18,1,257.16773249999983,,,,,,,,,,,,,,,,,,,,,257.15260620000004,257.16773249999983,257.6516219,257.65657969999984,257.6757679,258.93512239999995,,,,,258.9353758999998,258.9498343999999,259.15051689999996,259.13426389999995,257.6757679,,,,,,,,1,1,1.2578612999998313,None,,,,,,,,882,23,,R,2026-02-18_11h26.14.057,VisualSearch_2526_3,,2025.2.4,2026-02-18 11h26.14.416110 +0100,
vertical.xlsx,The target is tilted.,135,19,3,2,1,1,1,1,1,1,1,1,1,1,1,1,0,11,12,135,space,7.733943499999896,None,1,1,1.9015291000000616,None,space,3.1271478000001025,None,0,0,0,1,,,,,2,3,19,0,259.15051689999996,,,,,,,,,,,,,,,,,,,,,259.13505069999997,259.15051689999996,259.63416699999993,259.63929029999986,259.6584522999999,261.5671049,,,,,261.5673027999999,261.58197569999993,261.7823034999999,261.76634979999994,259.6584522999999,,,,,,,,1,1,1.9015291000000616,None,,,,,,,,882,23,,R,2026-02-18_11h26.14.057,VisualSearch_2526_3,,2025.2.4,2026-02-18 11h26.14.416110 +0100,
vertical.xlsx,The target is tilted.,135,20,4,2,0,1,1,1,1,1,1,1,1,1,1,1,1,11,12,135,space,7.733943499999896,None,0,1,3.668153000000075,None,space,3.1271478000001025,None,0,0,0,1,,,,,2,4,20,4,261.7823034999999,,,,,,,,,,,,,,,,,,,,,261.7671484,261.7823034999999,262.2662381,262.27105059999985,262.2903646,265.96499670000003,,,,,265.96577030000003,265.98021489999996,266.1806832,266.16452379999987,262.2903646,,,,,,,,0,1,3.668153000000075,None,,,,,,,,882,23,,R,2026-02-18_11h26.14.057,VisualSearch_2526_3,,2025.2.4,2026-02-18 11h26.14.416110 +0100,
vertical.xlsx,The target is tilted.,135,21,5,2,0,0,0,0,0,0,0,0,0,0,0,0,1,1,1,135,space,7.733943499999896,None,0,1,0.9264025999998466,None,space,3.1271478000001025,None,0,0,0,1,,,,,2,5,21,7,266.1806832,,,,,,,,,,,,,,,,,,,,,266.16523889999985,266.1806832,266.6644371,266.66988289999995,266.6892685999999,267.630484,,,,,267.63070879999987,267.6460182999999,267.8462078,267.83045719999996,266.6892685999999,,,,,,,,0,1,0.9264025999998466,None,,,,,,,,882,23,,R,2026-02-18_11h26.14.057,VisualSearch_2526_3,,2025.2.4,2026-02-18 11h26.14.416110 +0100,
vertical.xlsx,The target is tilted.,135,22,6,2,0,1,1,1,0,0,0,0,0,0,0,0,1,3,4,135,space,7.733943499999896,None,0,1,1.3005952000000889,None,space,3.1271478000001025,None,0,0,0,1,,,,,2,6,22,6,267.8462078,,,,,,,,,,,,,,,,,,,,,267.83121359999996,267.8462078,268.33017159999986,268.3350352,268.35436349999986,269.6635065999999,,,,,269.66369710000004,269.67847989999996,269.8788843,269.8627529999999,268.35436349999986,,,,,,,,0,1,1.3005952000000889,None,,,,,,,,882,23,,R,2026-02-18_11h26.14.057,VisualSearch_2526_3,,2025.2.4,2026-02-18 11h26.14.416110 +0100,
vertical.xlsx,The target is tilted.,135,23,7,2,0,1,1,1,1,1,1,1,0,0,0,0,1,7,8,135,space,7.733943499999896,None,0,1,2.25737550000008,None,space,3.1271478000001025,None,0,0,0,1,,,,,2,7,23,5,269.8788843,,,,,,,,,,,,,,,,,,,,,269.86349399999995,269.8788843,270.36270679999984,270.3683968999999,270.38786189999996,272.66153629999985,,,,,272.66179539999985,272.6770781,272.8772623,272.86145509999983,270.38786189999996,,,,,,,,0,1,2.25737550000008,None,,,,,,,,882,23,,R,2026-02-18_11h26.14.057,VisualSearch_2526_3,,2025.2.4,2026-02-18 11h26.14.416110 +0100,
vertical.xlsx,The target is tilted.,135,24,0,3,0,1,1,1,1,1,1,1,0,0,0,0,1,7,8,135,space,7.733943499999896,None,0,1,1.6314663000000564,None,space,3.1271478000001025,None,0,0,0,1,,,,,3,0,24,5,272.8772623,,,,,,,,,,,,,,,,,,,,,272.8622298,272.8772623,273.3610466,273.36584189999985,273.38509929999987,275.02763389999996,,,,,275.02783609999983,275.0427938999999,275.24316839999983,275.22695079999994,273.38509929999987,,,,,,,,0,1,1.6314663000000564,None,,,,,,,,882,23,,R,2026-02-18_11h26.14.057,VisualSearch_2526_3,,2025.2.4,2026-02-18 11h26.14.416110 +0100,
vertical.xlsx,The target is tilted.,135,25,1,3,1,1,1,1,0,0,0,0,0,0,0,0,0,3,4,135,space,7.733943499999896,None,1,1,1.012337799999841,None,space,3.1271478000001025,None,0,0,0,1,,,,,3,1,25,2,275.24316839999983,,,,,,,,,,,,,,,,,,,,,275.2277274999999,275.24316839999983,275.7265493,275.7313681999999,275.74424079999994,276.7599227999999,,,,,276.76011619999986,276.77534779999996,276.97536049999985,276.95957269999985,275.74424079999994,,,,,,,,1,1,1.012337799999841,None,,,,,,,,882,23,,R,2026-02-18_11h26.14.057,VisualSearch_2526_3,,2025.2.4,2026-02-18 11h26.14.416110 +0100,
vertical.xlsx,The target is tilted.,135,26,2,3,0,0,0,0,0,0,0,0,0,0,0,0,1,1,1,135,space,7.733943499999896,None,0,1,0.6548701000001529,None,space,3.1271478000001025,None,0,0,0,1,,,,,3,2,26,7,276.97536049999985,,,,,,,,,,,,,,,,,,,,,276.9603345999999,276.97536049999985,277.45903780000003,277.4638491999999,277.4832787,278.14265109999997,,,,,278.1428655999998,278.1580116,278.35824060000004,278.34208850000005,277.4832787,,,,,,,,0,1,0.6548701000001529,None,,,,,,,,882,23,,R,2026-02-18_11h26.14.057,VisualSearch_2526_3,,2025.2.4,2026-02-18 11h26.14.416110 +0100,
vertical.xlsx,The target is tilted.,135,27,3,3,1,1,1,1,1,1,1,1,1,1,1,1,0,11,12,135,space,7.733943499999896,None,0,0,5.700573099999929,None,space,3.1271478000001025,None,0,0,0,1,,,,,3,3,27,0,278.35824060000004,,,,,,,,,,,,,,,,,,,,,278.34283099999993,278.35824060000004,278.8421622999999,278.84677569999985,278.8581044,284.5728549999999,,,,,284.5730616999999,284.5884062,284.7888479999999,284.77270369999997,278.8581044,,,,,,,,0,0,5.700573099999929,None,,,,,,,,882,23,,R,2026-02-18_11h26.14.057,VisualSearch_2526_3,,2025.2.4,2026-02-18 11h26.14.416110 +0100,
vertical.xlsx,The target is tilted.,135,28,4,3,1,1,1,1,1,1,1,1,0,0,0,0,0,7,8,135,space,7.733943499999896,None,1,1,1.2311573000001772,None,space,3.1271478000001025,None,0,0,0,1,,,,,3,4,28,1,284.7888479999999,,,,,,,,,,,,,,,,,,,,,284.7734839999998,284.7888479999999,285.27244989999986,285.27694129999986,285.28847769999993,286.52213069999993,,,,,286.5223228,286.53730599999994,286.73802939999996,286.7220282999999,285.28847769999993,,,,,,,,1,1,1.2311573000001772,None,,,,,,,,882,23,,R,2026-02-18_11h26.14.057,VisualSearch_2526_3,,2025.2.4,2026-02-18 11h26.14.416110 +0100,
vertical.xlsx,The target is tilted.,135,29,5,3,1,0,0,0,0,0,0,0,0,0,0,0,0,0,1,135,space,7.733943499999896,None,1,1,0.5259399999999914,None,space,3.1271478000001025,None,0,0,0,1,,,,,3,5,29,3,286.73802939999996,,,,,,,,,,,,,,,,,,,,,286.7228333999999,286.73802939999996,287.22175249999987,287.2267222999999,287.24628970000003,287.7874357999999,,,,,287.7875589,287.80383919999986,,287.98767699999985,287.24628970000003,,,,,,,,1,1,0.5259399999999914,None,,,,,,,,882,23,,R,2026-02-18_11h26.14.057,VisualSearch_2526_3,,2025.2.4,2026-02-18 11h26.14.416110 +0100,
vertical.xlsx,The target is tilted.,135,30,6,3,0,1,1,1,1,1,1,1,1,1,1,1,1,11,12,135,space,7.733943499999896,None,0,1,3.573017899999968,None,space,3.1271478000001025,None,0,0,0,1,,,,,3,6,30,4,288.0041133999998,,,,,,,,,,,,,,,,,,,,,287.98846860000003,288.0041133999998,288.48766750000004,288.4925140999999,288.511704,292.0863187,,,,,292.08652129999996,292.10145020000004,292.3021865999999,292.28580039999997,288.511704,,,,,,,,0,1,3.573017899999968,None,,,,,,,,882,23,,R,2026-02-18_11h26.14.057,VisualSearch_2526_3,,2025.2.4,2026-02-18 11h26.14.416110 +0100,
vertical.xlsx,The target is tilted.,135,31,7,3,0,1,1,1,0,0,0,0,0,0,0,0,1,3,4,135,space,7.733943499999896,None,0,1,1.2144878000001427,None,space,3.1271478000001025,None,0,0,0,1,,,,,3,7,31,6,292.3021865999999,,,,,,,,,,,,,,,,,,,,,292.286562,292.3021865999999,292.7855881999999,292.7908686999999,292.8100081,294.0357976999999,,,,,294.03601349999985,294.0506025999998,294.2507321999999,294.2353776,292.8100081,,,,,,,,0,1,1.2144878000001427,None,,,,,,,,882,23,,R,2026-02-18_11h26.14.057,VisualSearch_2526_3,,2025.2.4,2026-02-18 11h26.14.416110 +0100,
vertical.xlsx,The target is tilted.,135,32,0,4,0,0,0,0,0,0,0,0,0,0,0,0,1,1,1,135,space,7.733943499999896,None,0,1,0.6131582000000435,None,space,3.1271478000001025,None,0,0,0,1,,,,,4,0,32,7,294.2507321999999,,,,,,,,,,,,,,,,,,,,,294.2360607999999,294.2507321999999,294.7350710999999,294.74033869999994,294.75961359999997,295.3845764,,,,,295.3846893,295.40004439999984,295.6006751,295.5844737,294.75961359999997,,,,,,,,0,1,0.6131582000000435,None,,,,,,,,882,23,,R,2026-02-18_11h26.14.057,VisualSearch_2526_3,,2025.2.4,2026-02-18 11h26.14.416110 +0100,
vertical.xlsx,The target is tilted.,135,33,1,4,1,1,1,1,0,0,0,0,0,0,0,0,0,3,4,135,space,7.733943499999896,None,0,0,0.6390748999999687,None,space,3.1271478000001025,None,0,0,0,1,,,,,4,1,33,2,295.6006751,,,,,,,,,,,,,,,,,,,,,295.58523130000003,295.6006751,296.0842748,296.08909930000004,296.10025359999986,296.7512658999999,,,,,296.7514607999999,296.76595180000004,296.9666215999998,296.9506369999999,296.10025359999986,,,,,,,,0,0,0.6390748999999687,None,,,,,,,,882,23,,R,2026-02-18_11h26.14.057,VisualSearch_2526_3,,2025.2.4,2026-02-18 11h26.14.416110 +0100,
vertical.xlsx,The target is tilted.,135,34,2,4,1,1,1,1,1,1,1,1,1,1,1,1,0,11,12,135,space,7.733943499999896,None,1,1,2.6940007000000605,None,space,3.1271478000001025,None,0,0,0,1,,,,,4,2,34,0,296.9666215999998,,,,,,,,,,,,,,,,,,,,,296.95133969999983,296.9666215999998,297.4503133999999,297.45518760000004,297.47439999999983,300.18228699999986,,,,,300.1825033,300.1979638999999,300.3984527,300.38226799999984,297.47439999999983,,,,,,,,1,1,2.6940007000000605,None,,,,,,,,882,23,,R,2026-02-18_11h26.14.057,VisualSearch_2526_3,,2025.2.4,2026-02-18 11h26.14.416110 +0100,
vertical.xlsx,The target is tilted.,135,35,3,4,0,1,1,1,1,1,1,1,0,0,0,0,1,7,8,135,space,7.733943499999896,None,0,1,2.3038960999999745,None,space,3.1271478000001025,None,0,0,0,1,,,,,4,3,35,5,300.3984527,,,,,,,,,,,,,,,,,,,,,300.38304500000004,300.3984527,300.8820398999999,300.8874286999999,300.90645859999995,303.21403069999997,,,,,303.2141506999999,303.22975799999995,303.4304789999999,303.41452089999984,300.90645859999995,,,,,,,,0,1,2.3038960999999745,None,,,,,,,,882,23,,R,2026-02-18_11h26.14.057,VisualSearch_2526_3,,2025.2.4,2026-02-18 11h26.14.416110 +0100,
vertical.xlsx,The target is tilted.,135,36,4,4,1,0,0,0,0,0,0,0,0,0,0,0,0,0,1,135,space,7.733943499999896,None,1,1,0.7138814999998431,None,space,3.1271478000001025,None,0,0,0,1,,,,,4,4,36,3,303.4304789999999,,,,,,,,,,,,,,,,,,,,,303.4153243999999,303.4304789999999,303.9140351999997,303.91899869999975,303.93819259999987,304.6634246000001,,,,,304.66354149999984,304.6790969000001,304.8793712999998,304.86381069999993,303.93819259999987,,,,,,,,1,1,0.7138814999998431,None,,,,,,,,882,23,,R,2026-02-18_11h26.14.057,VisualSearch_2526_3,,2025.2.4,2026-02-18 11h26.14.416110 +0100,
vertical.xlsx,The target is tilted.,135,37,5,4,1,1,1,1,1,1,1,1,0,0,0,0,0,7,8,135,space,7.733943499999896,None,1,1,1.117008100000021,None,space,3.1271478000001025,None,0,0,0,1,,,,,4,5,37,1,304.8793712999998,,,,,,,,,,,,,,,,,,,,,304.86466110000015,304.8793712999998,305.3634833999997,305.3681697999998,305.3793969999999,306.5128363000001,,,,,306.5130634999998,306.5283787999999,306.7285967999999,306.71276220000004,305.3793969999999,,,,,,,,1,1,1.117008100000021,None,,,,,,,,882,23,,R,2026-02-18_11h26.14.057,VisualSearch_2526_3,,2025.2.4,2026-02-18 11h26.14.416110 +0100,
vertical.xlsx,The target is tilted.,135,38,6,4,0,1,1,1,0,0,0,0,0,0,0,0,1,3,4,135,space,7.733943499999896,None,0,1,1.1213275000000067,None,space,3.1271478000001025,None,0,0,0,1,,,,,4,6,38,6,306.7285967999999,,,,,,,,,,,,,,,,,,,,,306.7135885,306.7285967999999,307.21279549999986,307.21851360000005,307.2379195000001,308.3622634000001,,,,,308.36239899999987,308.3774378999999,308.5778084000001,308.5618431999999,307.2379195000001,,,,,,,,0,1,1.1213275000000067,None,,,,,,,,882,23,,R,2026-02-18_11h26.14.057,VisualSearch_2526_3,,2025.2.4,2026-02-18 11h26.14.416110 +0100,
vertical.xlsx,The target is tilted.,135,39,7,4,0,1,1,1,1,1,1,1,1,1,1,1,1,11,12,135,space,7.733943499999896,None,0,1,3.5158817000001363,None,space,3.1271478000001025,None,0,0,0,1,,,,,4,7,39,4,308.5778084000001,,,,,,,,,,,,,,,,,,,,,308.56263920000015,308.5778084000001,309.0619405,309.0674527999997,309.0870625,312.61071049999987,,,,,312.6109064999998,312.62562,312.82599670000013,312.8097240999998,309.0870625,,,,,,,,0,1,3.5158817000001363,None,,,,,,,,882,23,,R,2026-02-18_11h26.14.057,VisualSearch_2526_3,,2025.2.4,2026-02-18 11h26.14.416110 +0100,
vertical.xlsx,The target is tilted.,135,40,0,5,1,0,0,0,0,0,0,0,0,0,0,0,0,0,1,135,space,7.733943499999896,None,1,1,0.631882300000143,None,space,3.1271478000001025,None,0,0,0,1,,,,,5,0,40,3,312.82599670000013,,,,,,,,,,,,,,,,,,,,,312.8104458999999,312.82599670000013,313.3097672000001,313.31456079999975,313.3255572999999,313.9600853999998,,,,,313.96029250000015,313.97506020000014,314.1751601999997,314.1595070000001,313.3255572999999,,,,,,,,1,1,0.631882300000143,None,,,,,,,,882,23,,R,2026-02-18_11h26.14.057,VisualSearch_2526_3,,2025.2.4,2026-02-18 11h26.14.416110 +0100,
vertical.xlsx,The target is tilted.,135,41,1,5,0,0,0,0,0,0,0,0,0,0,0,0,1,1,1,135,space,7.733943499999896,None,0,1,0.9115260000003218,None,space,3.1271478000001025,None,0,0,0,1,,,,,5,1,41,7,314.1751601999997,,,,,,,,,,,,,,,,,,,,,314.1602193000001,314.1751601999997,314.6591885,314.6641063999998,314.68333719999987,315.6087209,,,,,315.60896019999996,315.6242440999997,315.82477619999986,315.80863999999997,314.68333719999987,,,,,,,,0,1,0.9115260000003218,None,,,,,,,,882,23,,R,2026-02-18_11h26.14.057,VisualSearch_2526_3,,2025.2.4,2026-02-18 11h26.14.416110 +0100,
vertical.xlsx,The target is tilted.,135,42,2,5,0,1,1,1,0,0,0,0,0,0,0,0,1,3,4,135,space,7.733943499999896,None,0,1,1.2101748999998563,None,space,3.1271478000001025,None,0,0,0,1,,,,,5,2,42,6,315.82477619999986,,,,,,,,,,,,,,,,,,,,,315.8094155000001,315.82477619999986,316.30859140000007,316.3136987999999,316.3285410000001,317.5419651999998,,,,,317.54217129999984,317.55670069999974,317.75721550000003,317.7412065000001,316.3285410000001,,,,,,,,0,1,1.2101748999998563,None,,,,,,,,882,23,,R,2026-02-18_11h26.14.057,VisualSearch_2526_3,,2025.2.4,2026-02-18 11h26.14.416110 +0100,
vertical.xlsx,The target is tilted.,135,43,3,5,1,1,1,1,1,1,1,1,1,1,1,1,0,11,12,135,space,7.733943499999896,None,1,1,1.368657600000006,None,space,3.1271478000001025,None,0,0,0,1,,,,,5,3,43,0,317.75721550000003,,,,,,,,,,,,,,,,,,,,,317.7419447999998,317.75721550000003,318.24093160000007,318.24610929999994,318.26534319999996,319.6400197999999,,,,,319.64013969999974,319.65561079999975,319.85621560000004,319.8401689,318.26534319999996,,,,,,,,1,1,1.368657600000006,None,,,,,,,,882,23,,R,2026-02-18_11h26.14.057,VisualSearch_2526_3,,2025.2.4,2026-02-18 11h26.14.416110 +0100,
vertical.xlsx,The target is tilted.,135,44,4,5,1,1,1,1,0,0,0,0,0,0,0,0,0,3,4,135,space,7.733943499999896,None,1,1,0.7494455999999445,None,space,3.1271478000001025,None,0,0,0,1,,,,,5,4,44,2,319.85621560000004,,,,,,,,,,,,,,,,,,,,,319.84097450000013,319.85621560000004,320.33994210000014,320.3449481,320.36445320000007,321.12302190000014,,,,,321.1231688999999,321.1384728999999,321.33861969999975,321.32283900000016,320.36445320000007,,,,,,,,1,1,0.7494455999999445,None,,,,,,,,882,23,,R,2026-02-18_11h26.14.057,VisualSearch_2526_3,,2025.2.4,2026-02-18 11h26.14.416110 +0100,
vertical.xlsx,The target is tilted.,135,45,5,5,1,1,1,1,1,1,1,1,0,0,0,0,0,7,8,135,space,7.733943499999896,None,1,1,1.0152775999999903,None,space,3.1271478000001025,None,0,0,0,1,,,,,5,5,45,1,321.33861969999975,,,,,,,,,,,,,,,,,,,,,321.32356719999984,321.33861969999975,321.8226164,321.82759680000004,321.8410421000001,322.8716935,,,,,322.87185939999995,322.88759129999994,323.08810470000003,323.07213369999977,321.8410421000001,,,,,,,,1,1,1.0152775999999903,None,,,,,,,,882,23,,R,2026-02-18_11h26.14.057,VisualSearch_2526_3,,2025.2.4,2026-02-18 11h26.14.416110 +0100,
vertical.xlsx,The target is tilted.,135,46,6,5,0,1,1,1,1,1,1,1,1,1,1,1,1,11,12,135,space,7.733943499999896,None,0,1,2.902156499999819,None,space,3.1271478000001025,None,0,0,0,1,,,,,5,6,46,4,323.08810470000003,,,,,,,,,,,,,,,,,,,,,323.07284860000004,323.08810470000003,323.57178659999977,323.57665310000016,323.5959710999998,326.5042560999998,,,,,326.50445250000007,326.5191990999999,326.71968519999996,326.7038012999999,323.5959710999998,,,,,,,,0,1,2.902156499999819,None,,,,,,,,882,23,,R,2026-02-18_11h26.14.057,VisualSearch_2526_3,,2025.2.4,2026-02-18 11h26.14.416110 +0100,
vertical.xlsx,The target is tilted.,135,47,7,5,0,1,1,1,1,1,1,1,0,0,0,0,1,7,8,135,space,7.733943499999896,None,0,1,1.9251753999997163,None,space,3.1271478000001025,None,0,0,0,1,,,,,5,7,47,5,326.71968519999996,,,,,,,,,,,,,,,,,,,,,326.70452739999996,326.71968519999996,327.2035198000001,327.20881429999986,327.22799269999973,329.1686744000001,,,,,329.16879540000014,329.18482199999994,329.38492949999977,329.3690844,327.22799269999973,,,,,,,,0,1,1.9251753999997163,None,,,,,,,,882,23,,R,2026-02-18_11h26.14.057,VisualSearch_2526_3,,2025.2.4,2026-02-18 11h26.14.416110 +0100,
vertical.xlsx,The target is tilted.,135,48,0,6,0,1,1,1,1,1,1,1,1,1,1,1,1,11,12,135,space,7.733943499999896,None,0,1,1.9226317999996354,None,space,3.1271478000001025,None,0,0,0,1,,,,,6,0,48,4,329.38492949999977,,,,,,,,,,,,,,,,,,,,,329.36983110000006,329.38492949999977,329.86889659999974,329.87375610000004,329.8926445999998,331.81853739999974,,,,,331.8187350999999,331.8336723,332.0341477999998,332.01799389999974,329.8926445999998,,,,,,,,0,1,1.9226317999996354,None,,,,,,,,882,23,,R,2026-02-18_11h26.14.057,VisualSearch_2526_3,,2025.2.4,2026-02-18 11h26.14.416110 +0100,
vertical.xlsx,The target is tilted.,135,49,1,6,1,1,1,1,0,0,0,0,0,0,0,0,0,3,4,135,space,7.733943499999896,None,1,1,2.4424927999998545,None,space,3.1271478000001025,None,0,0,0,1,,,,,6,1,49,2,332.0341477999998,,,,,,,,,,,,,,,,,,,,,332.0187331999998,332.0341477999998,332.51795000000016,332.52368060000003,332.54372069999977,334.9994067,,,,,334.9995272999997,335.01584279999975,335.21577619999994,335.19959129999984,332.54372069999977,,,,,,,,1,1,2.4424927999998545,None,,,,,,,,882,23,,R,2026-02-18_11h26.14.057,VisualSearch_2526_3,,2025.2.4,2026-02-18 11h26.14.416110 +0100,
vertical.xlsx,The target is tilted.,135,50,2,6,0,0,0,0,0,0,0,0,0,0,0,0,1,1,1,135,space,7.733943499999896,None,0,1,3.2025383999998667,None,space,3.1271478000001025,None,0,0,0,1,,,,,6,2,50,7,335.21577619999994,,,,,,,,,,,,,,,,,,,,,335.20031970000014,335.21577619999994,335.6998323999999,335.7053515,335.72475359999976,338.9317196999998,,,,,338.93195760000003,338.9470152000001,339.14720509999984,339.1314136999997,335.72475359999976,,,,,,,,0,1,3.2025383999998667,None,,,,,,,,882,23,,R,2026-02-18_11h26.14.057,VisualSearch_2526_3,,2025.2.4,2026-02-18 11h26.14.416110 +0100,
vertical.xlsx,The target is tilted.,135,51,3,6,0,1,1,1,1,1,1,1,0,0,0,0,1,7,8,135,space,7.733943499999896,None,0,1,2.282308499999999,None,space,3.1271478000001025,None,0,0,0,1,,,,,6,3,51,5,339.14720509999984,,,,,,,,,,,,,,,,,,,,,339.13216869999974,339.14720509999984,339.63112320000005,339.63619029999995,339.6555238999997,341.9472696,,,,,341.9474653,341.9622158999998,342.1628869999997,342.14660200000003,339.6555238999997,,,,,,,,0,1,2.282308499999999,None,,,,,,,,882,23,,R,2026-02-18_11h26.14.057,VisualSearch_2526_3,,2025.2.4,2026-02-18 11h26.14.416110 +0100,
vertical.xlsx,The target is tilted.,135,52,4,6,1,1,1,1,1,1,1,1,0,0,0,0,0,7,8,135,space,7.733943499999896,None,1,1,0.87387630000012,None,space,3.1271478000001025,None,0,0,0,1,,,,,6,4,52,1,342.1628869999997,,,,,,,,,,,,,,,,,,,,,342.1473490000001,342.1628869999997,342.64631810000014,342.6517802999999,342.6705684000001,343.54639919999977,,,,,343.54659719999995,343.5614315999999,343.76213889999985,343.7456377000001,342.6705684000001,,,,,,,,1,1,0.87387630000012,None,,,,,,,,882,23,,R,2026-02-18_11h26.14.057,VisualSearch_2526_3,,2025.2.4,2026-02-18 11h26.14.416110 +0100,
vertical.xlsx,The target is tilted.,135,53,5,6,0,1,1,1,0,0,0,0,0,0,0,0,1,3,4,135,space,7.733943499999896,None,0,1,0.8089505000002646,None,space,3.1271478000001025,None,0,0,0,1,,,,,6,5,53,6,343.76213889999985,,,,,,,,,,,,,,,,,,,,,343.7464182000001,343.76213889999985,344.24571409999976,344.25057119999997,344.2616789000001,345.07937130000005,,,,,345.0795664,345.09454630000005,345.29468829999973,345.2786798999998,344.2616789000001,,,,,,,,0,1,0.8089505000002646,None,,,,,,,,882,23,,R,2026-02-18_11h26.14.057,VisualSearch_2526_3,,2025.2.4,2026-02-18 11h26.14.416110 +0100,
vertical.xlsx,The target is tilted.,135,54,6,6,1,1,1,1,1,1,1,1,1,1,1,1,0,11,12,135,space,7.733943499999896,None,1,1,1.0861971999997877,None,space,3.1271478000001025,None,0,0,0,1,,,,,6,6,54,0,345.29468829999973,,,,,,,,,,,,,,,,,,,,,345.2794376999998,345.29468829999973,345.7784061,345.7833862,345.80207940000014,346.89515589999996,,,,,346.8953504999997,346.9102400999998,347.1107337000001,347.09459779999975,345.80207940000014,,,,,,,,1,1,1.0861971999997877,None,,,,,,,,882,23,,R,2026-02-18_11h26.14.057,VisualSearch_2526_3,,2025.2.4,2026-02-18 11h26.14.416110 +0100,
vertical.xlsx,The target is tilted.,135,55,7,6,1,0,0,0,0,0,0,0,0,0,0,0,0,0,1,135,space,7.733943499999896,None,1,1,0.6114904999999453,None,space,3.1271478000001025,None,0,0,0,1,,,,,6,7,55,3,347.1107337000001,,,,,,,,,,,,,,,,,,,,,347.0954183000001,347.1107337000001,347.5943298999998,347.59903629999985,347.61018339999987,348.2278507999997,,,,,348.22804489999976,348.2426911,348.4428384999999,348.4268211000001,347.61018339999987,,,,,,,,1,1,0.6114904999999453,None,,,,,,,,882,23,,R,2026-02-18_11h26.14.057,VisualSearch_2526_3,,2025.2.4,2026-02-18 11h26.14.416110 +0100,
vertical.xlsx,The target is tilted.,135,56,0,7,0,1,1,1,0,0,0,0,0,0,0,0,1,3,4,135,space,7.733943499999896,None,0,1,0.8918980000003103,None,space,3.1271478000001025,None,0,0,0,1,,,,,7,0,56,6,348.4428384999999,,,,,,,,,,,,,,,,,,,,,348.4275719999998,348.4428384999999,348.92714839999985,348.9326659000001,348.95198479999976,349.8599794999998,,,,,349.860175,349.8754438999997,350.0758487999999,350.05981240000006,348.95198479999976,,,,,,,,0,1,0.8918980000003103,None,,,,,,,,882,23,,R,2026-02-18_11h26.14.057,VisualSearch_2526_3,,2025.2.4,2026-02-18 11h26.14.416110 +0100,
vertical.xlsx,The target is tilted.,135,57,1,7,1,0,0,0,0,0,0,0,0,0,0,0,0,0,1,135,space,7.733943499999896,None,1,1,0.5651425999999447,None,space,3.1271478000001025,None,0,0,0,1,,,,,7,1,57,3,350.0758487999999,,,,,,,,,,,,,,,,,,,,,350.06058610000014,350.0758487999999,350.5595565000001,350.56453209999995,350.5836864999999,351.15990880000004,,,,,351.16009899999995,351.17469559999995,351.3750730999998,351.35912810000013,350.5836864999999,,,,,,,,1,1,0.5651425999999447,None,,,,,,,,882,23,,R,2026-02-18_11h26.14.057,VisualSearch_2526_3,,2025.2.4,2026-02-18 11h26.14.416110 +0100,
vertical.xlsx,The target is tilted.,135,58,2,7,0,1,1,1,1,1,1,1,1,1,1,1,1,11,12,135,space,7.733943499999896,None,0,1,4.022293999999874,None,space,3.1271478000001025,None,0,0,0,1,,,,,7,2,58,4,351.3750730999998,,,,,,,,,,,,,,,,,,,,,351.359913,351.3750730999998,351.8589575999997,351.86357350000003,351.8749218999999,355.90767459999984,,,,,355.9078797999998,355.92252889999986,356.1231758000001,356.10699249999993,351.8749218999999,,,,,,,,0,1,4.022293999999874,None,,,,,,,,882,23,,R,2026-02-18_11h26.14.057,VisualSearch_2526_3,,2025.2.4,2026-02-18 11h26.14.416110 +0100,
vertical.xlsx,The target is tilted.,135,59,3,7,1,1,1,1,1,1,1,1,0,0,0,0,0,7,8,135,space,7.733943499999896,None,1,1,1.3207253999999011,None,space,3.1271478000001025,None,0,0,0,1,,,,,7,3,59,1,356.1231758000001,,,,,,,,,,,,,,,,,,,,,356.1077259000001,356.1231758000001,356.60674600000016,356.6114280999998,356.62280899999973,357.9558215999998,,,,,357.9559689,357.97209910000015,358.17183020000016,358.15558039999974,356.62280899999973,,,,,,,,1,1,1.3207253999999011,None,,,,,,,,882,23,,R,2026-02-18_11h26.14.057,VisualSearch_2526_3,,2025.2.4,2026-02-18 11h26.14.416110 +0100,
vertical.xlsx,The target is tilted.,135,60,4,7,1,1,1,1,0,0,0,0,0,0,0,0,0,3,4,135,space,7.733943499999896,None,1,1,4.713339100000212,None,space,3.1271478000001025,None,0,0,0,1,,,,,7,4,60,2,358.17183020000016,,,,,,,,,,,,,,,,,,,,,358.15633509999975,358.17183020000016,358.65557349999995,358.66038379999986,358.6794916000001,363.40433989999997,,,,,363.4045344999997,363.4193106,363.6192543999998,363.6031519999999,358.6794916000001,,,,,,,,1,1,4.713339100000212,None,,,,,,,,882,23,,R,2026-02-18_11h26.14.057,VisualSearch_2526_3,,2025.2.4,2026-02-18 11h26.14.416110 +0100,
vertical.xlsx,The target is tilted.,135,61,5,7,0,0,0,0,0,0,0,0,0,0,0,0,1,1,1,135,space,7.733943499999896,None,0,1,0.5873553999999785,None,space,3.1271478000001025,None,0,0,0,1,,,,,7,5,61,7,363.6192543999998,,,,,,,,,,,,,,,,,,,,,363.60357769999996,363.6192543999998,364.1033380000001,364.1081523999999,364.1272729,364.7203376,,,,,364.72053159999973,364.7354207000001,364.9357671999999,364.91942349999977,364.1272729,,,,,,,,0,1,0.5873553999999785,None,,,,,,,,882,23,,R,2026-02-18_11h26.14.057,VisualSearch_2526_3,,2025.2.4,2026-02-18 11h26.14.416110 +0100,
vertical.xlsx,The target is tilted.,135,62,6,7,0,1,1,1,1,1,1,1,0,0,0,0,1,7,8,135,space,7.733943499999896,None,0,1,2.4915955999999824,None,space,3.1271478000001025,None,0,0,0,1,,,,,7,6,62,5,364.9357671999999,,,,,,,,,,,,,,,,,,,,,364.92019779999987,364.9357671999999,365.41959759999986,365.42452739999976,365.44376369999986,367.95166589999985,,,,,367.95189779999987,367.96721139999977,368.1677407999998,368.15154289999987,365.44376369999986,,,,,,,,0,1,2.4915955999999824,None,,,,,,,,882,23,,R,2026-02-18_11h26.14.057,VisualSearch_2526_3,,2025.2.4,2026-02-18 11h26.14.416110 +0100,
vertical.xlsx,The target is tilted.,135,63,7,7,1,1,1,1,1,1,1,1,1,1,1,1,0,11,12,135,space,7.733943499999896,None,1,1,1.926561600000241,None,space,3.1271478000001025,None,0,0,0,1,,,,,7,7,63,0,368.1677407999998,,,,,,,,,,,,,,,,,,,,,368.15235959999995,368.1677407999998,368.65135369999985,368.6561068999997,368.66731920000007,370.60115280000014,,,,,370.60134619999985,370.61585709999986,370.8164558000001,370.80043790000013,368.66731920000007,,,,,,,,1,1,1.926561600000241,None,,,,,,,,882,23,,R,2026-02-18_11h26.14.057,VisualSearch_2526_3,,2025.2.4,2026-02-18 11h26.14.416110 +0100,
vertical.xlsx,The target is tilted.,135,64,0,8,0,1,1,1,0,0,0,0,0,0,0,0,1,3,4,135,space,7.733943499999896,None,0,1,1.7985678999998527,None,space,3.1271478000001025,None,0,0,0,1,,,,,8,0,64,6,370.8164558000001,,,,,,,,,,,,,,,,,,,,,370.80116440000006,370.8164558000001,371.3003928999999,371.30548999999996,371.3247289999997,373.1332676999998,,,,,373.1334795,373.14824010000007,373.34875209999996,373.33276950000004,371.3247289999997,,,,,,,,0,1,1.7985678999998527,None,,,,,,,,882,23,,R,2026-02-18_11h26.14.057,VisualSearch_2526_3,,2025.2.4,2026-02-18 11h26.14.416110 +0100,
vertical.xlsx,The target is tilted.,135,65,1,8,0,1,1,1,1,1,1,1,0,0,0,0,1,7,8,135,space,7.733943499999896,None,0,1,2.0109355999998115,None,space,3.1271478000001025,None,0,0,0,1,,,,,8,1,65,5,373.34875209999996,,,,,,,,,,,,,,,,,,,,,373.3335863,373.34875209999996,373.83238860000006,373.8371254000001,373.8526119999999,375.8653729,,,,,375.86556459999997,375.8801372999999,376.08073979999995,376.06460570000013,373.8526119999999,,,,,,,,0,1,2.0109355999998115,None,,,,,,,,882,23,,R,2026-02-18_11h26.14.057,VisualSearch_2526_3,,2025.2.4,2026-02-18 11h26.14.416110 +0100,
vertical.xlsx,The target is tilted.,135,66,2,8,1,1,1,1,1,1,1,1,1,1,1,1,0,11,12,135,space,7.733943499999896,None,1,1,0.8437682000003406,None,space,3.1271478000001025,None,0,0,0,1,,,,,8,2,66,0,376.08073979999995,,,,,,,,,,,,,,,,,,,,,376.06537159999993,376.08073979999995,376.5645066999998,376.5693678,376.5887077,377.4476312999998,,,,,377.44783170000005,377.4627675999998,377.6632883,377.64735719999976,376.5887077,,,,,,,,1,1,0.8437682000003406,None,,,,,,,,882,23,,R,2026-02-18_11h26.14.057,VisualSearch_2526_3,,2025.2.4,2026-02-18 11h26.14.416110 +0100,
vertical.xlsx,The target is tilted.,135,67,3,8,1,1,1,1,0,0,0,0,0,0,0,0,0,3,4,135,space,7.733943499999896,None,1,1,0.6291602999999668,None,space,3.1271478000001025,None,0,0,0,1,,,,,8,3,67,2,377.6632883,,,,,,,,,,,,,,,,,,,,,377.6481627999999,377.6632883,378.14698350000003,378.1517775,378.1709656999999,378.8128767999999,,,,,378.8129956999999,378.82923030000006,379.0294603,379.01327879999985,378.1709656999999,,,,,,,,1,1,0.6291602999999668,None,,,,,,,,882,23,,R,2026-02-18_11h26.14.057,VisualSearch_2526_3,,2025.2.4,2026-02-18 11h26.14.416110 +0100,
vertical.xlsx,The target is tilted.,135,68,4,8,0,0,0,0,0,0,0,0,0,0,0,0,1,1,1,135,space,7.733943499999896,None,0,1,0.5985218999999233,None,space,3.1271478000001025,None,0,0,0,1,,,,,8,4,68,7,379.0294603,,,,,,,,,,,,,,,,,,,,,379.01403259999984,379.0294603,379.51313909999976,379.5178742999999,379.52904779999994,380.1297013000001,,,,,380.1299136,380.14512089999994,380.34517059999985,380.32936760000007,379.52904779999994,,,,,,,,0,1,0.5985218999999233,None,,,,,,,,882,23,,R,2026-02-18_11h26.14.057,VisualSearch_2526_3,,2025.2.4,2026-02-18 11h26.14.416110 +0100,
vertical.xlsx,The target is tilted.,135,69,5,8,1,0,0,0,0,0,0,0,0,0,0,0,0,0,1,135,space,7.733943499999896,None,1,1,0.5896849999999176,None,space,3.1271478000001025,None,0,0,0,1,,,,,8,5,69,3,380.34517059999985,,,,,,,,,,,,,,,,,,,,,380.33017300000006,380.34517059999985,380.8291637,380.8339153999998,380.85283860000004,381.44577030000005,,,,,381.4459596999998,381.46121500000004,381.6613245000001,381.6454401999997,380.85283860000004,,,,,,,,1,1,0.5896849999999176,None,,,,,,,,882,23,,R,2026-02-18_11h26.14.057,VisualSearch_2526_3,,2025.2.4,2026-02-18 11h26.14.416110 +0100,
vertical.xlsx,The target is tilted.,135,70,6,8,1,1,1,1,1,1,1,1,0,0,0,0,0,7,8,135,space,7.733943499999896,None,1,1,0.7535327999999026,None,space,3.1271478000001025,None,0,0,0,1,,,,,8,6,70,1,381.6613245000001,,,,,,,,,,,,,,,,,,,,,381.6462533000001,381.6613245000001,382.1453285,382.1501197,382.1692436999999,382.9286715999999,,,,,382.9288651999998,382.94380780000006,383.14427139999975,383.12809600000014,382.1692436999999,,,,,,,,1,1,0.7535327999999026,None,,,,,,,,882,23,,R,2026-02-18_11h26.14.057,VisualSearch_2526_3,,2025.2.4,2026-02-18 11h26.14.416110 +0100,
vertical.xlsx,The target is tilted.,135,71,7,8,0,1,1,1,1,1,1,1,1,1,1,1,1,11,12,135,space,7.733943499999896,None,0,1,2.6082053999998607,None,space,3.1271478000001025,None,0,0,0,1,,,,,8,7,71,4,383.14427139999975,,,,,,,,,,,,,,,,,,,,,383.1288542,383.14427139999975,383.62775880000004,383.63265130000013,383.6510387000001,386.26075160000005,,,,,386.2609408999999,386.2756705999998,386.4760638,386.4601246,383.6510387000001,,,,,,,,0,1,2.6082053999998607,None,,,,,,,,882,23,,R,2026-02-18_11h26.14.057,VisualSearch_2526_3,,2025.2.4,2026-02-18 11h26.14.416110 +0100,
vertical.xlsx,The target is tilted.,135,72,0,9,0,1,1,1,0,0,0,0,0,0,0,0,1,3,4,135,space,7.733943499999896,None,0,1,0.6581734999999753,None,space,3.1271478000001025,None,0,0,0,1,,,,,9,0,72,6,386.4760638,,,,,,,,,,,,,,,,,,,,,386.46092999999996,386.4760638,386.9599909000001,386.9654917999999,386.98464119999994,387.65931720000003,,,,,387.6595268999997,387.67489139999975,387.87524389999976,387.8594565000001,386.98464119999994,,,,,,,,0,1,0.6581734999999753,None,,,,,,,,882,23,,R,2026-02-18_11h26.14.057,VisualSearch_2526_3,,2025.2.4,2026-02-18 11h26.14.416110 +0100,
vertical.xlsx,The target is tilted.,135,73,1,9,1,1,1,1,1,1,1,1,1,1,1,1,0,11,12,135,space,7.733943499999896,None,0,0,2.6171401999999944,None,space,3.1271478000001025,None,0,0,0,1,,,,,9,1,73,0,387.87524389999976,,,,,,,,,,,,,,,,,,,,,387.8602942,387.87524389999976,388.35914709999975,388.36425239999994,388.3832123999998,391.00935749999985,,,,,391.0095447000001,391.02350360000014,391.22398480000015,391.20779370000014,388.3832123999998,,,,,,,,0,0,2.6171401999999944,None,,,,,,,,882,23,,R,2026-02-18_11h26.14.057,VisualSearch_2526_3,,2025.2.4,2026-02-18 11h26.14.416110 +0100,
vertical.xlsx,The target is tilted.,135,74,2,9,1,1,1,1,0,0,0,0,0,0,0,0,0,3,4,135,space,7.733943499999896,None,1,1,0.5683509000000413,None,space,3.1271478000001025,None,0,0,0,1,,,,,9,2,74,2,391.22398480000015,,,,,,,,,,,,,,,,,,,,,391.2085427999998,391.22398480000015,391.70738270000015,391.7121741999997,391.73174289999974,392.30783099999985,,,,,392.30801959999985,392.3228944,392.5230101999998,392.50728030000005,391.73174289999974,,,,,,,,1,1,0.5683509000000413,None,,,,,,,,882,23,,R,2026-02-18_11h26.14.057,VisualSearch_2526_3,,2025.2.4,2026-02-18 11h26.14.416110 +0100,
vertical.xlsx,The target is tilted.,135,75,3,9,0,1,1,1,1,1,1,1,0,0,0,0,1,7,8,135,space,7.733943499999896,None,0,1,3.4158347000002323,None,space,3.1271478000001025,None,0,0,0,1,,,,,9,3,75,5,392.5230101999998,,,,,,,,,,,,,,,,,,,,,392.50800330000015,392.5230101999998,393.00625220000006,393.0090643000001,393.0225634000001,396.45545400000015,,,,,396.45564379999973,396.4709016999998,396.67147169999976,396.6552067,393.0225634000001,,,,,,,,0,1,3.4158347000002323,None,,,,,,,,882,23,,R,2026-02-18_11h26.14.057,VisualSearch_2526_3,,2025.2.4,2026-02-18 11h26.14.416110 +0100,
vertical.xlsx,The target is tilted.,135,76,4,9,1,1,1,1,1,1,1,1,0,0,0,0,0,7,8,135,space,7.733943499999896,None,1,1,1.6669276000002355,None,space,3.1271478000001025,None,0,0,0,1,,,,,9,4,76,1,396.67147169999976,,,,,,,,,,,,,,,,,,,,,396.6559501999998,396.67147169999976,397.15512460000014,397.16014169999994,397.1792441,398.8549012000001,,,,,398.85508700000014,398.8698993999999,399.07034180000005,399.05416200000013,397.1792441,,,,,,,,1,1,1.6669276000002355,None,,,,,,,,882,23,,R,2026-02-18_11h26.14.057,VisualSearch_2526_3,,2025.2.4,2026-02-18 11h26.14.416110 +0100,
vertical.xlsx,The target is tilted.,135,77,5,9,0,1,1,1,1,1,1,1,1,1,1,1,1,11,12,135,space,7.733943499999896,None,0,1,2.400606499999867,None,space,3.1271478000001025,None,0,0,0,1,,,,,9,5,77,4,399.07034180000005,,,,,,,,,,,,,,,,,,,,,399.05488820000005,399.07034180000005,399.55411119999985,399.5590070999999,399.5781638000001,401.98690090000014,,,,,401.98709099999974,402.0020125999997,402.2022669999999,402.1858009,399.5781638000001,,,,,,,,0,1,2.400606499999867,None,,,,,,,,882,23,,R,2026-02-18_11h26.14.057,VisualSearch_2526_3,,2025.2.4,2026-02-18 11h26.14.416110 +0100,
vertical.xlsx,The target is tilted.,135,78,6,9,1,0,0,0,0,0,0,0,0,0,0,0,0,0,1,135,space,7.733943499999896,None,1,1,0.5909818000000087,None,space,3.1271478000001025,None,0,0,0,1,,,,,9,6,78,3,402.2022669999999,,,,,,,,,,,,,,,,,,,,,402.18655779999995,402.2022669999999,402.68559979999986,402.6903378999998,402.7094789999999,403.3029171999999,,,,,403.3031349999999,403.3179391000001,403.5179863999999,403.5022295000001,402.7094789999999,,,,,,,,1,1,0.5909818000000087,None,,,,,,,,882,23,,R,2026-02-18_11h26.14.057,VisualSearch_2526_3,,2025.2.4,2026-02-18 11h26.14.416110 +0100,
vertical.xlsx,The target is tilted.,135,79,7,9,0,0,0,0,0,0,0,0,0,0,0,0,1,1,1,135,space,7.733943499999896,None,0,1,0.7330181000002085,None,space,3.1271478000001025,None,0,0,0,1,,,,,9,7,79,7,403.5179863999999,,,,,,,,,,,,,,,,,,,,,403.50298469999984,403.5179863999999,404.0022932999998,404.00756690000003,404.02595859999997,404.76886790000003,,,,,404.7690574999999,404.78392869999993,404.98426540000014,404.96782069999995,404.02595859999997,,,,,,,,0,1,0.7330181000002085,None,,,,,,,,882,23,,R,2026-02-18_11h26.14.057,VisualSearch_2526_3,,2025.2.4,2026-02-18 11h26.14.416110 +0100,
vertical.xlsx,The target is tilted.,135,80,0,10,0,1,1,1,1,1,1,1,1,1,1,1,1,11,12,135,space,7.733943499999896,None,0,1,3.4410633999996207,None,space,3.1271478000001025,None,0,0,0,1,,,,,10,0,80,4,404.98426540000014,,,,,,,,,,,,,,,,,,,,,404.96856909999974,404.98426540000014,405.4682006999999,405.4733156,405.49240589999977,408.9496650999997,,,,,408.94986349999976,408.96527649999985,409.1656111,409.149584,405.49240589999977,,,,,,,,0,1,3.4410633999996207,None,,,,,,,,882,23,,R,2026-02-18_11h26.14.057,VisualSearch_2526_3,,2025.2.4,2026-02-18 11h26.14.416110 +0100,
vertical.xlsx,The target is tilted.,135,81,1,10,1,1,1,1,1,1,1,1,1,1,1,1,0,11,12,135,space,7.733943499999896,None,1,1,3.5523419000001013,None,space,3.1271478000001025,None,0,0,0,1,,,,,10,1,81,0,409.1656111,,,,,,,,,,,,,,,,,,,,,409.15077589999987,409.1656111,409.64947849999976,409.6548891,409.6744215000001,413.2317658999998,,,,,413.2319540000001,413.24676539999996,413.4471880999997,413.43116910000003,409.6744215000001,,,,,,,,1,1,3.5523419000001013,None,,,,,,,,882,23,,R,2026-02-18_11h26.14.057,VisualSearch_2526_3,,2025.2.4,2026-02-18 11h26.14.416110 +0100,
vertical.xlsx,The target is tilted.,135,82,2,10,0,1,1,1,0,0,0,0,0,0,0,0,1,3,4,135,space,7.733943499999896,None,0,1,1.9080469000000448,None,space,3.1271478000001025,None,0,0,0,1,,,,,10,2,82,6,413.4471880999997,,,,,,,,,,,,,,,,,,,,,413.4319966999999,413.4471880999997,413.93102810000005,413.9365514999997,413.9566392999998,415.87996999999973,,,,,415.88016349999975,415.8954821,416.09592099999986,416.08003540000004,413.9566392999998,,,,,,,,0,1,1.9080469000000448,None,,,,,,,,882,23,,R,2026-02-18_11h26.14.057,VisualSearch_2526_3,,2025.2.4,2026-02-18 11h26.14.416110 +0100,
vertical.xlsx,The target is tilted.,135,83,3,10,1,1,1,1,1,1,1,1,0,0,0,0,0,7,8,135,space,7.733943499999896,None,1,1,2.605085499999859,None,space,3.1271478000001025,None,0,0,0,1,,,,,10,3,83,1,416.09592099999986,,,,,,,,,,,,,,,,,,,,,416.08086179999987,416.09592099999986,416.57968030000006,416.5845452000001,416.60378509999987,419.21213409999996,,,,,419.2123243999997,419.22775560000014,419.4276235,419.4115298999998,416.60378509999987,,,,,,,,1,1,2.605085499999859,None,,,,,,,,882,23,,R,2026-02-18_11h26.14.057,VisualSearch_2526_3,,2025.2.4,2026-02-18 11h26.14.416110 +0100,
vertical.xlsx,The target is tilted.,135,84,4,10,0,0,0,0,0,0,0,0,0,0,0,0,1,1,1,135,space,7.733943499999896,None,0,1,0.7177155999997922,None,space,3.1271478000001025,None,0,0,0,1,,,,,10,4,84,7,419.4276235,,,,,,,,,,,,,,,,,,,,,419.41239859999973,419.4276235,419.9114219999999,419.9161504000001,419.9330609000001,420.6616797999998,,,,,420.66188709999983,420.6772131,420.87716109999997,420.8610900000001,419.9330609000001,,,,,,,,0,1,0.7177155999997922,None,,,,,,,,882,23,,R,2026-02-18_11h26.14.057,VisualSearch_2526_3,,2025.2.4,2026-02-18 11h26.14.416110 +0100,
vertical.xlsx,The target is tilted.,135,85,5,10,1,1,1,1,0,0,0,0,0,0,0,0,0,3,4,135,space,7.733943499999896,None,1,1,0.9142974999999751,None,space,3.1271478000001025,None,0,0,0,1,,,,,10,5,85,2,420.87716109999997,,,,,,,,,,,,,,,,,,,,,420.8619768000001,420.87716109999997,421.36096999999995,421.3660158,421.38561920000006,422.31055330000004,,,,,422.3106987999997,422.3264622999998,422.5263616999998,422.5102438000001,421.38561920000006,,,,,,,,1,1,0.9142974999999751,None,,,,,,,,882,23,,R,2026-02-18_11h26.14.057,VisualSearch_2526_3,,2025.2.4,2026-02-18 11h26.14.416110 +0100,
vertical.xlsx,The target is tilted.,135,86,6,10,1,0,0,0,0,0,0,0,0,0,0,0,0,0,1,135,space,7.733943499999896,None,1,1,0.5389389000001756,None,space,3.1271478000001025,None,0,0,0,1,,,,,10,6,86,3,422.5263616999998,,,,,,,,,,,,,,,,,,,,,422.5110609999999,422.5263616999998,423.0108828,423.01560140000015,423.03427339999985,423.5766640999998,,,,,423.57685430000015,423.59247389999996,423.79247329999976,423.77631700000006,423.03427339999985,,,,,,,,1,1,0.5389389000001756,None,,,,,,,,882,23,,R,2026-02-18_11h26.14.057,VisualSearch_2526_3,,2025.2.4,2026-02-18 11h26.14.416110 +0100,
vertical.xlsx,The target is tilted.,135,87,7,10,0,1,1,1,1,1,1,1,0,0,0,0,1,7,8,135,space,7.733943499999896,None,0,1,1.6389208999999028,None,space,3.1271478000001025,None,0,0,0,1,,,,,10,7,87,5,423.79247329999976,,,,,,,,,,,,,,,,,,,,,423.77706179999973,423.79247329999976,424.2759816,424.28102460000014,424.30051609999987,425.9427371999998,,,,,425.9429563000001,425.9581531000001,426.15808159999983,426.1421951,424.30051609999987,,,,,,,,0,1,1.6389208999999028,None,,,,,,,,882,23,,R,2026-02-18_11h26.14.057,VisualSearch_2526_3,,2025.2.4,2026-02-18 11h26.14.416110 +0100,
vertical.xlsx,The target is tilted.,135,88,0,11,1,0,0,0,0,0,0,0,0,0,0,0,0,0,1,135,space,7.733943499999896,None,1,1,0.5445367000002079,None,space,3.1271478000001025,None,0,0,0,1,,,,,11,0,88,3,426.15808159999983,,,,,,,,,,,,,,,,,,,,,426.14346409999985,426.15808159999983,426.6418428999998,426.6465676,426.65770009999983,427.20840799999974,,,,,427.20859799999994,427.22432090000007,427.4240769999999,427.40792309999983,426.65770009999983,,,,,,,,1,1,0.5445367000002079,None,,,,,,,,882,23,,R,2026-02-18_11h26.14.057,VisualSearch_2526_3,,2025.2.4,2026-02-18 11h26.14.416110 +0100,
vertical.xlsx,The target is tilted.,135,89,1,11,0,1,1,1,1,1,1,1,0,0,0,0,1,7,8,135,space,7.733943499999896,None,0,1,2.122377199999846,None,space,3.1271478000001025,None,0,0,0,1,,,,,11,1,89,5,427.4240769999999,,,,,,,,,,,,,,,,,,,,,427.40867479999974,427.4240769999999,427.90773449999983,427.91249989999983,427.93149689999996,430.05715750000013,,,,,430.0573523999999,430.0730913,430.27291880000007,430.2566604000001,427.93149689999996,,,,,,,,0,1,2.122377199999846,None,,,,,,,,882,23,,R,2026-02-18_11h26.14.057,VisualSearch_2526_3,,2025.2.4,2026-02-18 11h26.14.416110 +0100,
vertical.xlsx,The target is tilted.,135,90,2,11,0,1,1,1,1,1,1,1,1,1,1,1,1,11,12,135,space,7.733943499999896,None,0,1,3.162839300000087,None,space,3.1271478000001025,None,0,0,0,1,,,,,11,2,90,4,430.27291880000007,,,,,,,,,,,,,,,,,,,,,430.25740410000003,430.27291880000007,430.7561979999998,430.76095039999996,430.7798719,433.95553749999976,,,,,433.95572860000016,433.9711228999997,434.17118000000005,434.15508739999973,430.7798719,,,,,,,,0,1,3.162839300000087,None,,,,,,,,882,23,,R,2026-02-18_11h26.14.057,VisualSearch_2526_3,,2025.2.4,2026-02-18 11h26.14.416110 +0100,
vertical.xlsx,The target is tilted.,135,91,3,11,1,1,1,1,1,1,1,1,1,1,1,1,0,11,12,135,space,7.733943499999896,None,1,1,1.0669623999997384,None,space,3.1271478000001025,None,0,0,0,1,,,,,11,3,91,0,434.17118000000005,,,,,,,,,,,,,,,,,,,,,434.15580739999973,434.17118000000005,434.6548670999998,434.659535,434.67074639999987,435.7546872999999,,,,,435.75487850000013,435.7702422,435.9703121,435.9544370000001,434.67074639999987,,,,,,,,1,1,1.0669623999997384,None,,,,,,,,882,23,,R,2026-02-18_11h26.14.057,VisualSearch_2526_3,,2025.2.4,2026-02-18 11h26.14.416110 +0100,
vertical.xlsx,The target is tilted.,135,92,4,11,0,0,0,0,0,0,0,0,0,0,0,0,1,1,1,135,space,7.733943499999896,None,0,1,0.7001126999998633,None,space,3.1271478000001025,None,0,0,0,1,,,,,11,4,92,7,435.9703121,,,,,,,,,,,,,,,,,,,,,435.9551260999999,435.9703121,436.4539999000001,436.4588003000001,436.47785210000006,437.1875048999998,,,,,437.18771949999996,437.2030004999999,437.4030258,437.38670079999997,436.47785210000006,,,,,,,,0,1,0.7001126999998633,None,,,,,,,,882,23,,R,2026-02-18_11h26.14.057,VisualSearch_2526_3,,2025.2.4,2026-02-18 11h26.14.416110 +0100,
vertical.xlsx,The target is tilted.,135,93,5,11,0,1,1,1,0,0,0,0,0,0,0,0,1,3,4,135,space,7.733943499999896,None,0,1,0.7272743999997147,None,space,3.1271478000001025,None,0,0,0,1,,,,,11,5,93,6,437.4030258,,,,,,,,,,,,,,,,,,,,,437.3875320999998,437.4030258,437.88651019999975,437.89122810000003,437.91060730000004,438.65308029999983,,,,,438.65326949999985,438.66872119999994,438.8689904999999,438.8529536999997,437.91060730000004,,,,,,,,0,1,0.7272743999997147,None,,,,,,,,882,23,,R,2026-02-18_11h26.14.057,VisualSearch_2526_3,,2025.2.4,2026-02-18 11h26.14.416110 +0100,
vertical.xlsx,The target is tilted.,135,94,6,11,1,1,1,1,1,1,1,1,0,0,0,0,0,7,8,135,space,7.733943499999896,None,1,1,0.8464036000000306,None,space,3.1271478000001025,None,0,0,0,1,,,,,11,6,94,1,438.8689904999999,,,,,,,,,,,,,,,,,,,,,438.8536704999999,438.8689904999999,439.35251219999986,439.35761709999974,439.37653799999975,440.23619989999975,,,,,440.2363911,440.2516948,440.45149000000015,440.43558199999984,439.37653799999975,,,,,,,,1,1,0.8464036000000306,None,,,,,,,,882,23,,R,2026-02-18_11h26.14.057,VisualSearch_2526_3,,2025.2.4,2026-02-18 11h26.14.416110 +0100,
vertical.xlsx,The target is tilted.,135,95,7,11,1,1,1,1,0,0,0,0,0,0,0,0,0,3,4,135,space,7.733943499999896,None,1,1,0.8138257999999041,None,space,3.1271478000001025,None,0,0,0,1,,,,,11,7,95,2,440.45149000000015,,,,,,,,,,,,,,,,,,,,,440.43630359999975,440.45149000000015,440.93533319999983,440.94003599999974,440.9592087999997,441.78542679999987,,,,,441.78561920000016,441.80104849999975,442.0010249999998,441.98497269999984,440.9592087999997,,,,,,,,1,1,0.8138257999999041,None,,,,,,,,882,23,,R,2026-02-18_11h26.14.057,VisualSearch_2526_3,,2025.2.4,2026-02-18 11h26.14.416110 +0100,
vertical.xlsx,The target is tilted.,135,96,0,12,1,1,1,1,0,0,0,0,0,0,0,0,0,3,4,135,space,7.733943499999896,None,1,1,0.7954491000000417,None,space,3.1271478000001025,None,0,0,0,1,,,,,12,0,96,2,442.0010249999998,,,,,,,,,,,,,,,,,,,,,441.9857592999999,442.0010249999998,442.4845487,442.4893417999999,442.5081696,443.31797570000003,,,,,443.31817049999995,443.33359749999977,443.53355290000013,443.51724769999987,442.5081696,,,,,,,,1,1,0.7954491000000417,None,,,,,,,,882,23,,R,2026-02-18_11h26.14.057,VisualSearch_2526_3,,2025.2.4,2026-02-18 11h26.14.416110 +0100,
vertical.xlsx,The target is tilted.,135,97,1,12,0,1,1,1,1,1,1,1,0,0,0,0,1,7,8,135,space,7.733943499999896,None,0,1,2.12726530000009,None,space,3.1271478000001025,None,0,0,0,1,,,,,12,1,97,5,443.53355290000013,,,,,,,,,,,,,,,,,,,,,443.5179824999998,443.53355290000013,444.01713670000004,444.0221055999998,444.04145779999976,446.1833759999997,,,,,446.18356579999977,446.1988398000001,446.3989199,446.3824449000001,444.04145779999976,,,,,,,,0,1,2.12726530000009,None,,,,,,,,882,23,,R,2026-02-18_11h26.14.057,VisualSearch_2526_3,,2025.2.4,2026-02-18 11h26.14.416110 +0100,
vertical.xlsx,The target is tilted.,135,98,2,12,1,0,0,0,0,0,0,0,0,0,0,0,0,0,1,135,space,7.733943499999896,None,1,1,0.7485682000001361,None,space,3.1271478000001025,None,0,0,0,1,,,,,12,2,98,3,446.3989199,,,,,,,,,,,,,,,,,,,,,446.38318760000016,446.3989199,446.88235710000004,446.88758919999987,446.9066571999999,447.6661351,,,,,447.6663264000001,447.6816489999999,447.8812102999998,447.8658204999999,446.9066571999999,,,,,,,,1,1,0.7485682000001361,None,,,,,,,,882,23,,R,2026-02-18_11h26.14.057,VisualSearch_2526_3,,2025.2.4,2026-02-18 11h26.14.416110 +0100,
vertical.xlsx,The target is tilted.,135,99,3,12,1,1,1,1,1,1,1,1,1,1,1,1,0,11,12,135,space,7.733943499999896,None,1,1,1.1230451999999786,None,space,3.1271478000001025,None,0,0,0,1,,,,,12,3,99,0,447.8812102999998,,,,,,,,,,,,,,,,,,,,,447.86654859999976,447.8812102999998,448.3651447,448.36989229999995,448.3812193000001,449.5152869000001,,,,,449.51547460000006,449.5304577999998,449.73058990000004,449.7146322000001,448.3812193000001,,,,,,,,1,1,1.1230451999999786,None,,,,,,,,882,23,,R,2026-02-18_11h26.14.057,VisualSearch_2526_3,,2025.2.4,2026-02-18 11h26.14.416110 +0100,
vertical.xlsx,The target is tilted.,135,100,4,12,0,1,1,1,0,0,0,0,0,0,0,0,1,3,4,135,space,7.733943499999896,None,0,1,0.8391689999998562,None,space,3.1271478000001025,None,0,0,0,1,,,,,12,4,100,6,449.73058990000004,,,,,,,,,,,,,,,,,,,,,449.71535770000014,449.73058990000004,450.2144117,450.2192050000001,450.2383729999999,451.0813688999999,,,,,451.08158419999995,451.09663479999995,451.29665550000004,451.28046359999985,450.2383729999999,,,,,,,,0,1,0.8391689999998562,None,,,,,,,,882,23,,R,2026-02-18_11h26.14.057,VisualSearch_2526_3,,2025.2.4,2026-02-18 11h26.14.416110 +0100,
vertical.xlsx,The target is tilted.,135,101,5,12,1,1,1,1,1,1,1,1,0,0,0,0,0,7,8,135,space,7.733943499999896,None,1,1,2.5187645000000884,None,space,3.1271478000001025,None,0,0,0,1,,,,,12,5,101,1,451.29665550000004,,,,,,,,,,,,,,,,,,,,,451.2812000000001,451.29665550000004,451.78033219999975,451.7851014999999,451.8043565999999,454.3297857,,,,,454.32997739999996,454.3449475,454.5450951,454.5289660000001,451.8043565999999,,,,,,,,1,1,2.5187645000000884,None,,,,,,,,882,23,,R,2026-02-18_11h26.14.057,VisualSearch_2526_3,,2025.2.4,2026-02-18 11h26.14.416110 +0100,
vertical.xlsx,The target is tilted.,135,102,6,12,0,1,1,1,1,1,1,1,1,1,1,1,1,11,12,135,space,7.733943499999896,None,0,1,4.610704100000021,None,space,3.1271478000001025,None,0,0,0,1,,,,,12,6,102,4,454.5450951,,,,,,,,,,,,,,,,,,,,,454.5297472999998,454.5450951,455.02862100000016,455.03388470000004,455.0528615999999,459.67725799999994,,,,,459.6774517000001,459.6929536,459.89266440000006,459.8763937000001,455.0528615999999,,,,,,,,0,1,4.610704100000021,None,,,,,,,,882,23,,R,2026-02-18_11h26.14.057,VisualSearch_2526_3,,2025.2.4,2026-02-18 11h26.14.416110 +0100,
vertical.xlsx,The target is tilted.,135,103,7,12,0,0,0,0,0,0,0,0,0,0,0,0,1,1,1,135,space,7.733943499999896,None,0,1,0.7665430000001834,None,space,3.1271478000001025,None,0,0,0,1,,,,,12,7,103,7,459.89266440000006,,,,,,,,,,,,,,,,,,,,,459.8771113,459.89266440000006,460.3760700999999,460.3808739999997,460.4004981999999,461.1763585000001,,,,,461.17654849999985,461.1920348000001,461.3920163999999,461.3758402000001,460.4004981999999,,,,,,,,0,1,0.7665430000001834,None,,,,,,,,882,23,,R,2026-02-18_11h26.14.057,VisualSearch_2526_3,,2025.2.4,2026-02-18 11h26.14.416110 +0100,
vertical.xlsx,The target is tilted.,135,104,0,13,0,1,1,1,1,1,1,1,0,0,0,0,1,7,8,135,space,7.733943499999896,None,0,1,2.0339398000000983,None,space,3.1271478000001025,None,0,0,0,1,,,,,13,0,104,5,461.3920163999999,,,,,,,,,,,,,,,,,,,,,461.37657609999974,461.3920163999999,461.87534089999986,461.87954160000004,461.8990253999998,463.9421313,,,,,463.9423261999998,463.9575177999998,464.15758889999984,464.1415838999999,461.8990253999998,,,,,,,,0,1,2.0339398000000983,None,,,,,,,,882,23,,R,2026-02-18_11h26.14.057,VisualSearch_2526_3,,2025.2.4,2026-02-18 11h26.14.416110 +0100,
vertical.xlsx,The target is tilted.,135,105,1,13,1,1,1,1,1,1,1,1,1,1,1,1,0,11,12,135,space,7.733943499999896,None,1,1,3.0455047000000377,None,space,3.1271478000001025,None,0,0,0,1,,,,,13,1,105,0,464.15758889999984,,,,,,,,,,,,,,,,,,,,,464.14241259999994,464.15758889999984,464.64090329999976,464.64633130000016,464.6657143,467.72375750000015,,,,,467.7239465,467.73906669999974,467.93903449999993,467.92311559999985,464.6657143,,,,,,,,1,1,3.0455047000000377,None,,,,,,,,882,23,,R,2026-02-18_11h26.14.057,VisualSearch_2526_3,,2025.2.4,2026-02-18 11h26.14.416110 +0100,
vertical.xlsx,The target is tilted.,135,106,2,13,0,1,1,1,1,1,1,1,1,1,1,1,1,11,12,135,space,7.733943499999896,None,0,1,1.649844099999882,None,space,3.1271478000001025,None,0,0,0,1,,,,,13,2,106,4,467.93903449999993,,,,,,,,,,,,,,,,,,,,,467.9238462999999,467.93903449999993,468.4227481999999,468.4274929999999,468.44673940000007,470.10589830000004,,,,,470.1061078,470.1213129999999,470.32152299999984,470.3054374999999,468.44673940000007,,,,,,,,0,1,1.649844099999882,None,,,,,,,,882,23,,R,2026-02-18_11h26.14.057,VisualSearch_2526_3,,2025.2.4,2026-02-18 11h26.14.416110 +0100,
vertical.xlsx,The target is tilted.,135,107,3,13,1,1,1,1,1,1,1,1,0,0,0,0,0,7,8,135,space,7.733943499999896,None,1,1,1.341555999999855,None,space,3.1271478000001025,None,0,0,0,1,,,,,13,3,107,1,470.32152299999984,,,,,,,,,,,,,,,,,,,,,470.30626800000005,470.32152299999984,470.80513559999986,470.8098299999999,470.82098440000004,472.17168049999987,,,,,472.17186979999974,472.187189,472.3868725,472.37113479999994,470.82098440000004,,,,,,,,1,1,1.341555999999855,None,,,,,,,,882,23,,R,2026-02-18_11h26.14.057,VisualSearch_2526_3,,2025.2.4,2026-02-18 11h26.14.416110 +0100,
vertical.xlsx,The target is tilted.,135,108,4,13,1,1,1,1,0,0,0,0,0,0,0,0,0,3,4,135,space,7.733943499999896,None,1,1,0.7559165000002395,None,space,3.1271478000001025,None,0,0,0,1,,,,,13,4,108,2,472.3868725,,,,,,,,,,,,,,,,,,,,,472.37195640000004,472.3868725,472.8707659999998,472.8755662000001,472.8947373999997,473.65395999999987,,,,,473.65414769999984,473.669811,473.8697681000001,473.85327010000015,472.8947373999997,,,,,,,,1,1,0.7559165000002395,None,,,,,,,,882,23,,R,2026-02-18_11h26.14.057,VisualSearch_2526_3,,2025.2.4,2026-02-18 11h26.14.416110 +0100,
vertical.xlsx,The target is tilted.,135,109,5,13,0,1,1,1,0,0,0,0,0,0,0,0,1,3,4,135,space,7.733943499999896,None,0,1,0.8650628999998844,None,space,3.1271478000001025,None,0,0,0,1,,,,,13,5,109,6,473.8697681000001,,,,,,,,,,,,,,,,,,,,,473.85400860000004,473.8697681000001,474.3527213,474.3554309999997,474.36896150000007,475.2369215000001,,,,,475.2371234,475.2521383999999,475.4524092999998,475.4361793999999,474.36896150000007,,,,,,,,0,1,0.8650628999998844,None,,,,,,,,882,23,,R,2026-02-18_11h26.14.057,VisualSearch_2526_3,,2025.2.4,2026-02-18 11h26.14.416110 +0100,
vertical.xlsx,The target is tilted.,135,110,6,13,1,0,0,0,0,0,0,0,0,0,0,0,0,0,1,135,space,7.733943499999896,None,1,1,0.6260202000003119,None,space,3.1271478000001025,None,0,0,0,1,,,,,13,6,110,3,475.4524092999998,,,,,,,,,,,,,,,,,,,,,475.4370223999997,475.4524092999998,475.9358632000001,475.94123179999974,475.96006809999994,476.60304410000003,,,,,476.60323489999996,476.6181264999998,476.8184212999997,476.8024017,475.96006809999994,,,,,,,,1,1,0.6260202000003119,None,,,,,,,,882,23,,R,2026-02-18_11h26.14.057,VisualSearch_2526_3,,2025.2.4,2026-02-18 11h26.14.416110 +0100,
vertical.xlsx,The target is tilted.,135,111,7,13,0,0,0,0,0,0,0,0,0,0,0,0,1,1,1,135,space,7.733943499999896,None,0,1,0.5984249999996791,None,space,3.1271478000001025,None,0,0,0,1,,,,,13,7,111,7,476.8184212999997,,,,,,,,,,,,,,,,,,,,,476.8031582000001,476.8184212999997,477.3017830000001,477.3066787999999,477.3255621999999,477.9356909999999,,,,,477.93587709999997,477.9508432,478.15128500000014,478.1351871999998,477.3255621999999,,,,,,,,0,1,0.5984249999996791,None,,,,,,,,882,23,,R,2026-02-18_11h26.14.057,VisualSearch_2526_3,,2025.2.4,2026-02-18 11h26.14.416110 +0100,
vertical.xlsx,The target is tilted.,135,112,0,14,1,0,0,0,0,0,0,0,0,0,0,0,0,0,1,135,space,7.733943499999896,None,1,1,0.5624742999998489,None,space,3.1271478000001025,None,0,0,0,1,,,,,14,0,112,3,478.15128500000014,,,,,,,,,,,,,,,,,,,,,478.13599539999973,478.15128500000014,478.63478800000007,478.63971779999997,478.6586042000001,479.23512460000006,,,,,479.2353178999999,479.25051610000014,479.4506478999999,479.43460709999977,478.6586042000001,,,,,,,,1,1,0.5624742999998489,None,,,,,,,,882,23,,R,2026-02-18_11h26.14.057,VisualSearch_2526_3,,2025.2.4,2026-02-18 11h26.14.416110 +0100,
vertical.xlsx,The target is tilted.,135,113,1,14,1,1,1,1,1,1,1,1,1,1,1,1,0,11,12,135,space,7.733943499999896,None,1,1,1.000840000000153,None,space,3.1271478000001025,None,0,0,0,1,,,,,14,1,113,0,479.4506478999999,,,,,,,,,,,,,,,,,,,,,479.4354227000001,479.4506478999999,479.93425649999995,479.93899239999996,479.9581781999998,480.96818129999997,,,,,480.9683794,480.98269619999996,481.1829685,481.16705609999985,479.9581781999998,,,,,,,,1,1,1.000840000000153,None,,,,,,,,882,23,,R,2026-02-18_11h26.14.057,VisualSearch_2526_3,,2025.2.4,2026-02-18 11h26.14.416110 +0100,
vertical.xlsx,The target is tilted.,135,114,2,14,0,1,1,1,1,1,1,1,1,1,1,1,1,11,12,135,space,7.733943499999896,None,0,1,2.605212699999811,None,space,3.1271478000001025,None,0,0,0,1,,,,,14,2,114,4,481.1829685,,,,,,,,,,,,,,,,,,,,,481.16786979999983,481.1829685,481.66654360000007,481.6716528999998,481.69113249999987,484.29981329999987,,,,,484.30000670000004,484.31490640000015,484.5151092999997,484.49900550000007,481.69113249999987,,,,,,,,0,1,2.605212699999811,None,,,,,,,,882,23,,R,2026-02-18_11h26.14.057,VisualSearch_2526_3,,2025.2.4,2026-02-18 11h26.14.416110 +0100,
vertical.xlsx,The target is tilted.,135,115,3,14,0,1,1,1,0,0,0,0,0,0,0,0,1,3,4,135,space,7.733943499999896,None,0,1,0.7192770000001474,None,space,3.1271478000001025,None,0,0,0,1,,,,,14,3,115,6,484.5151092999997,,,,,,,,,,,,,,,,,,,,,484.4998011,484.5151092999997,484.99859189999984,485.00341950000006,485.02246949999994,485.7488646999998,,,,,485.7490559999999,485.7640479999998,485.96393269999976,485.94827550000014,485.02246949999994,,,,,,,,0,1,0.7192770000001474,None,,,,,,,,882,23,,R,2026-02-18_11h26.14.057,VisualSearch_2526_3,,2025.2.4,2026-02-18 11h26.14.416110 +0100,
vertical.xlsx,The target is tilted.,135,116,4,14,1,1,1,1,0,0,0,0,0,0,0,0,0,3,4,135,space,7.733943499999896,None,1,1,0.5839396999999735,None,space,3.1271478000001025,None,0,0,0,1,,,,,14,4,116,2,485.96393269999976,,,,,,,,,,,,,,,,,,,,,485.9491194,485.96393269999976,486.4479144999998,486.45267089999993,486.47205439999993,487.06492490000005,,,,,487.0651141999999,487.08011039999997,487.28046819999986,487.26444179999976,486.47205439999993,,,,,,,,1,1,0.5839396999999735,None,,,,,,,,882,23,,R,2026-02-18_11h26.14.057,VisualSearch_2526_3,,2025.2.4,2026-02-18 11h26.14.416110 +0100,
vertical.xlsx,The target is tilted.,135,117,5,14,0,1,1,1,1,1,1,1,0,0,0,0,1,7,8,135,space,7.733943499999896,None,0,1,2.0620622999999796,None,space,3.1271478000001025,None,0,0,0,1,,,,,14,5,117,5,487.28046819999986,,,,,,,,,,,,,,,,,,,,,487.26524300000005,487.28046819999986,487.7640681999999,487.7687841999998,487.7877034999999,489.86365439999986,,,,,489.86384710000016,489.87913019999974,490.07910860000015,490.0627492000001,487.7877034999999,,,,,,,,0,1,2.0620622999999796,None,,,,,,,,882,23,,R,2026-02-18_11h26.14.057,VisualSearch_2526_3,,2025.2.4,2026-02-18 11h26.14.416110 +0100,
vertical.xlsx,The target is tilted.,135,118,6,14,0,0,0,0,0,0,0,0,0,0,0,0,1,1,1,135,space,7.733943499999896,None,0,1,0.6033348000000842,None,space,3.1271478000001025,None,0,0,0,1,,,,,14,6,118,7,490.07910860000015,,,,,,,,,,,,,,,,,,,,,490.06345269999997,490.07910860000015,490.56270169999993,490.5675838999998,490.5878839999998,491.19603159999974,,,,,491.19624640000006,491.2119789999999,491.4119066999999,491.3956476999999,490.5878839999998,,,,,,,,0,1,0.6033348000000842,None,,,,,,,,882,23,,R,2026-02-18_11h26.14.057,VisualSearch_2526_3,,2025.2.4,2026-02-18 11h26.14.416110 +0100,
vertical.xlsx,The target is tilted.,135,119,7,14,1,1,1,1,1,1,1,1,0,0,0,0,0,7,8,135,space,7.733943499999896,None,1,1,1.0354364999998324,None,space,3.1271478000001025,None,0,0,0,1,,,,,14,7,119,1,491.4119066999999,,,,,,,,,,,,,,,,,,,,,491.3964115000001,491.4119066999999,491.8954265,491.90020470000013,491.9192333999997,492.96230390000005,,,,,492.9625005999999,492.9777139,493.19854550000014,493.16154789999996,491.9192333999997,,,,,,,,1,1,1.0354364999998324,None,,,,,,,,882,23,,R,2026-02-18_11h26.14.057,VisualSearch_2526_3,,2025.2.4,2026-02-18 11h26.14.416110 +0100,
vertical.xlsx,The target is tilted.,135,0,0,0,,,,,,,,,,,,,,,,,space,7.733943499999896,None,,,,,space,3.1271478000001025,None,0,0,0,1,,,,,,,,,,,,,,,,,,,,,,,,,,,,,,,,,,,,,,,,,,,,,,,,,,,,,,,,,,,,,,,882,23,,R,2026-02-18_11h26.14.057,VisualSearch_2526_3,,2025.2.4,2026-02-18 11h26.14.416110 +0100,
tilted.xlsx,The target is tilted.,117,0,0,0,0,0,0,0,0,0,0,0,0,0,0,0,1,1,1,117,space,17.308429799999885,None,0,1,0.8636832000001959,None,,,,0,1,1,0,0,0,0,7,,,,,510.5543922999998,,,,,,,,,,,,,,,493.19854550000014,493.19854550000014,493.19854550000014,space,17.308429799999885,None,510.54999999999995,510.5543922999998,511.0364815999999,511.0413298000001,511.0602501000001,511.93698370000016,0,1,0.8636832000001959,None,511.93717279999987,511.9524666,512.1523953999997,512.1362155999998,,,,,,,,,,,,,,,,,,,,882,23,,R,2026-02-18_11h26.14.057,VisualSearch_2526_3,,2025.2.4,2026-02-18 11h26.14.416110 +0100,
tilted.xlsx,The target is tilted.,117,1,1,0,1,0,0,0,0,0,0,0,0,0,0,0,0,0,1,117,space,17.308429799999885,None,1,1,0.7319935999998961,None,,,,0,1,1,0,0,1,1,3,,,,,512.1523953999997,,,,,,,,,,,,,,,,,,,,,512.1369084999999,512.1523953999997,512.6358131,512.6410407999999,512.660247,513.4029872999997,1,1,0.7319935999998961,None,513.4031696,513.4184579,513.6181607999999,513.6021496999999,512.660247,,,,,,,,,,,,,,,,,,,882,23,,R,2026-02-18_11h26.14.057,VisualSearch_2526_3,,2025.2.4,2026-02-18 11h26.14.416110 +0100,
tilted.xlsx,The target is tilted.,117,2,2,0,1,1,1,1,0,0,0,0,0,0,0,0,0,3,4,117,space,17.308429799999885,None,1,1,1.3377316000000974,None,,,,0,1,1,0,0,2,2,2,,,,,513.6181607999999,,,,,,,,,,,,,,,,,,,,,513.6028672999998,513.6181607999999,514.1019405999998,514.1066315,514.1253252999998,515.4684267999999,1,1,1.3377316000000974,None,515.4686129999998,515.4841902000001,515.6842091000001,515.6680088999999,514.1253252999998,,,,,,,,,,,,,,,,,,,882,23,,R,2026-02-18_11h26.14.057,VisualSearch_2526_3,,2025.2.4,2026-02-18 11h26.14.416110 +0100,
tilted.xlsx,The target is tilted.,117,3,3,0,0,1,1,1,0,0,0,0,0,0,0,0,1,3,4,117,space,17.308429799999885,None,0,1,1.4992464000001746,None,,,,0,1,1,0,0,3,3,6,,,,,515.6842091000001,,,,,,,,,,,,,,,,,,,,,515.6687089,515.6842091000001,516.1678307,516.1725828000001,516.1920994,517.7010865999998,0,1,1.4992464000001746,None,517.7012778000001,517.7165097,517.9161295000001,517.9000306999999,516.1920994,,,,,,,,,,,,,,,,,,,882,23,,R,2026-02-18_11h26.14.057,VisualSearch_2526_3,,2025.2.4,2026-02-18 11h26.14.416110 +0100,
tilted.xlsx,The target is tilted.,117,4,4,0,0,1,1,1,1,1,1,1,1,1,1,1,1,11,12,117,space,17.308429799999885,None,0,1,6.908317200000056,None,,,,0,1,1,0,0,4,4,4,,,,,517.9161295000001,,,,,,,,,,,,,,,,,,,,,517.9007525999998,517.9161295000001,518.4001743000001,518.4049217999998,518.4238932000001,525.3475547,0,1,6.908317200000056,None,525.3477397999998,525.3630691999999,525.5629757999998,525.5467806999998,518.4238932000001,,,,,,,,,,,,,,,,,,,882,23,,R,2026-02-18_11h26.14.057,VisualSearch_2526_3,,2025.2.4,2026-02-18 11h26.14.416110 +0100,
tilted.xlsx,The target is tilted.,117,5,5,0,1,1,1,1,1,1,1,1,1,1,1,1,0,11,12,117,space,17.308429799999885,None,1,1,4.461840399999801,None,,,,0,1,1,0,0,5,5,0,,,,,525.5629757999998,,,,,,,,,,,,,,,,,,,,,525.5474831999998,525.5629757999998,526.0465934000001,526.0512680999998,526.0698547999998,530.5450041000001,1,1,4.461840399999801,None,530.5451712000001,530.5606903999999,530.7607270999999,530.7445319999999,526.0698547999998,,,,,,,,,,,,,,,,,,,882,23,,R,2026-02-18_11h26.14.057,VisualSearch_2526_3,,2025.2.4,2026-02-18 11h26.14.416110 +0100,
tilted.xlsx,The target is tilted.,117,6,6,0,1,1,1,1,1,1,1,1,0,0,0,0,0,7,8,117,space,17.308429799999885,None,1,1,1.0352447000000211,None,,,,0,1,1,0,0,6,6,1,,,,,530.7607270999999,,,,,,,,,,,,,,,,,,,,,530.7452197,530.7607270999999,531.2443824,531.2490778999997,531.2683131000001,532.3106323999998,1,1,1.0352447000000211,None,532.3108153000001,532.3265807,532.5264080999998,532.5101936999997,531.2683131000001,,,,,,,,,,,,,,,,,,,882,23,,R,2026-02-18_11h26.14.057,VisualSearch_2526_3,,2025.2.4,2026-02-18 11h26.14.416110 +0100,
tilted.xlsx,The target is tilted.,117,7,7,0,0,1,1,1,1,1,1,1,0,0,0,0,1,7,8,117,space,17.308429799999885,None,0,1,2.3179394000003413,None,,,,0,1,1,0,0,7,7,5,,,,,532.5264080999998,,,,,,,,,,,,,,,,,,,,,532.5108899999998,532.5264080999998,533.0103244999998,533.0157867999999,533.0350102,535.3596703999999,0,1,2.3179394000003413,None,535.3598552000001,535.3748494999998,535.5750759,535.5589411999997,533.0350102,,,,,,,,,,,,,,,,,,,882,23,,R,2026-02-18_11h26.14.057,VisualSearch_2526_3,,2025.2.4,2026-02-18 11h26.14.416110 +0100,
tilted.xlsx,The target is tilted.,117,0,0,0,1,1,1,1,0,0,0,0,0,0,0,0,0,3,4,117,space,17.308429799999885,None,1,1,1.1872607999998763,None,space,2.227142400000048,None,0,1,1,0,,,,,0,0,0,2,537.845724,,,,,,,,,,,,,,,,,,,,,537.8414802,537.845724,538.3243381999998,538.3298226999998,538.3491097999997,539.5407738000001,,,,,539.5409634,539.5562988999998,539.7566177000001,539.7406374,,535.5658869000001,535.5750759,535.5750759,537.8084742999997,space,2.227142400000048,None,1,1,1.1872607999998763,None,,,,,,,,882,23,,R,2026-02-18_11h26.14.057,VisualSearch_2526_3,,2025.2.4,2026-02-18 11h26.14.416110 +0100,
tilted.xlsx,The target is tilted.,117,1,1,0,0,1,1,1,1,1,1,1,1,1,1,1,1,11,12,117,space,17.308429799999885,None,0,1,3.006180200000017,None,space,2.227142400000048,None,0,1,1,0,,,,,0,1,1,4,539.7566177000001,,,,,,,,,,,,,,,,,,,,,539.7414258000001,539.7566177000001,540.2402672000001,540.2452369999999,540.2643234,543.2727253999999,,,,,543.2729253999998,543.2882750000001,543.4882492999998,543.4722828000001,540.2643234,,,,,,,,0,1,3.006180200000017,None,,,,,,,,882,23,,R,2026-02-18_11h26.14.057,VisualSearch_2526_3,,2025.2.4,2026-02-18 11h26.14.416110 +0100,
tilted.xlsx,The target is tilted.,117,2,2,0,1,1,1,1,1,1,1,1,0,0,0,0,0,7,8,117,space,17.308429799999885,None,1,1,1.814495099999931,None,space,2.227142400000048,None,0,1,1,0,,,,,0,2,2,1,543.4882492999998,,,,,,,,,,,,,,,,,,,,,543.4731522,543.4882492999998,543.9718144999999,543.9766649999999,543.9956172999998,545.8215137999998,,,,,545.8217013000001,545.8367882999999,546.0367018999998,546.0209821999999,543.9956172999998,,,,,,,,1,1,1.814495099999931,None,,,,,,,,882,23,,R,2026-02-18_11h26.14.057,VisualSearch_2526_3,,2025.2.4,2026-02-18 11h26.14.416110 +0100,
tilted.xlsx,The target is tilted.,117,3,3,0,0,1,1,1,1,1,1,1,0,0,0,0,1,7,8,117,space,17.308429799999885,None,1,0,5.021065500000077,None,space,2.227142400000048,None,0,1,1,0,,,,,0,3,3,5,546.0367018999998,,,,,,,,,,,,,,,,,,,,,546.0217009999999,546.0367018999998,546.5205181999997,546.5252534999997,546.5405660999998,551.5686349999999,,,,,551.5688251999998,551.5844049999998,551.7845168000001,551.7685372999997,546.5405660999998,,,,,,,,1,0,5.021065500000077,None,,,,,,,,882,23,,R,2026-02-18_11h26.14.057,VisualSearch_2526_3,,2025.2.4,2026-02-18 11h26.14.416110 +0100,
tilted.xlsx,The target is tilted.,117,4,4,0,0,1,1,1,0,0,0,0,0,0,0,0,1,3,4,117,space,17.308429799999885,None,0,1,1.562069099999917,None,space,2.227142400000048,None,0,1,1,0,,,,,0,4,4,6,551.7845168000001,,,,,,,,,,,,,,,,,,,,,551.7693338000001,551.7845168000001,552.2680678999998,552.2728123999998,552.2916063999999,553.8677108999998,,,,,553.8679016999997,553.8834177000001,554.0834315999998,554.0671786,552.2916063999999,,,,,,,,0,1,1.562069099999917,None,,,,,,,,882,23,,R,2026-02-18_11h26.14.057,VisualSearch_2526_3,,2025.2.4,2026-02-18 11h26.14.416110 +0100,
tilted.xlsx,The target is tilted.,117,5,5,0,1,0,0,0,0,0,0,0,0,0,0,0,0,0,1,117,space,17.308429799999885,None,1,1,0.7573028000001614,None,space,2.227142400000048,None,0,1,1,0,,,,,0,5,5,3,554.0834315999998,,,,,,,,,,,,,,,,,,,,,554.0679346999998,554.0834315999998,554.5670072999999,554.5717662,554.5909131999999,555.3504405000001,,,,,555.3506268999997,555.3659918000001,555.5659791999999,555.5500632000001,554.5909131999999,,,,,,,,1,1,0.7573028000001614,None,,,,,,,,882,23,,R,2026-02-18_11h26.14.057,VisualSearch_2526_3,,2025.2.4,2026-02-18 11h26.14.416110 +0100,
tilted.xlsx,The target is tilted.,117,6,6,0,0,0,0,0,0,0,0,0,0,0,0,0,1,1,1,117,space,17.308429799999885,None,0,1,0.7576579999999922,None,space,2.227142400000048,None,0,1,1,0,,,,,0,6,6,7,555.5659791999999,,,,,,,,,,,,,,,,,,,,,555.5508799000002,555.5659791999999,556.0496090999998,556.0543842,556.0729779999999,556.8332382000001,,,,,556.8334256,556.8488325000001,557.04865,557.0320407000002,556.0729779999999,,,,,,,,0,1,0.7576579999999922,None,,,,,,,,882,23,,R,2026-02-18_11h26.14.057,VisualSearch_2526_3,,2025.2.4,2026-02-18 11h26.14.416110 +0100,
tilted.xlsx,The target is tilted.,117,7,7,0,1,1,1,1,1,1,1,1,1,1,1,1,0,11,12,117,space,17.308429799999885,None,1,1,2.5689669999997022,None,space,2.227142400000048,None,0,1,1,0,,,,,0,7,7,0,557.04865,,,,,,,,,,,,,,,,,,,,,557.0327532999997,557.04865,557.5325242000001,557.5373606,557.5563777,560.1317858,,,,,560.1319840999997,560.1472794999997,560.3472358000001,560.3311947,557.5563777,,,,,,,,1,1,2.5689669999997022,None,,,,,,,,882,23,,R,2026-02-18_11h26.14.057,VisualSearch_2526_3,,2025.2.4,2026-02-18 11h26.14.416110 +0100,
tilted.xlsx,The target is tilted.,117,8,0,1,1,0,0,0,0,0,0,0,0,0,0,0,0,0,1,117,space,17.308429799999885,None,1,1,1.032854000000043,None,space,2.227142400000048,None,0,1,1,0,,,,,1,0,8,3,560.3472358000001,,,,,,,,,,,,,,,,,,,,,560.3319656000001,560.3472358000001,560.8310386999999,560.8364955,560.8553221,561.8976258,,,,,561.8978383000001,561.9131298,562.1130869000001,562.0969622999999,560.8553221,,,,,,,,1,1,1.032854000000043,None,,,,,,,,882,23,,R,2026-02-18_11h26.14.057,VisualSearch_2526_3,,2025.2.4,2026-02-18 11h26.14.416110 +0100,
tilted.xlsx,The target is tilted.,117,9,1,1,0,1,1,1,1,1,1,1,1,1,1,1,1,11,12,117,space,17.308429799999885,None,0,1,3.8949885000001814,None,space,2.227142400000048,None,0,1,1,0,,,,,1,1,9,4,562.1130869000001,,,,,,,,,,,,,,,,,,,,,562.097822,562.1130869000001,562.5966289999999,562.6013704999998,562.6206694,566.5287787,,,,,566.5289703000001,566.5443911,566.7444491999997,566.7282572000001,562.6206694,,,,,,,,0,1,3.8949885000001814,None,,,,,,,,882,23,,R,2026-02-18_11h26.14.057,VisualSearch_2526_3,,2025.2.4,2026-02-18 11h26.14.416110 +0100,
tilted.xlsx,The target is tilted.,117,10,2,1,1,1,1,1,1,1,1,1,0,0,0,0,0,7,8,117,space,17.308429799999885,None,1,1,2.139039700000012,None,space,2.227142400000048,None,0,1,1,0,,,,,1,2,10,1,566.7444491999997,,,,,,,,,,,,,,,,,,,,,566.7290547999999,566.7444491999997,567.2284118,567.2339501999998,567.2530970999999,569.3942624999997,,,,,569.3944485999998,569.4093250999997,569.6097452000001,569.5936260000001,567.2530970999999,,,,,,,,1,1,2.139039700000012,None,,,,,,,,882,23,,R,2026-02-18_11h26.14.057,VisualSearch_2526_3,,2025.2.4,2026-02-18 11h26.14.416110 +0100,
tilted.xlsx,The target is tilted.,117,11,3,1,0,0,0,0,0,0,0,0,0,0,0,0,1,1,1,117,space,17.308429799999885,None,0,1,0.708361199999672,None,space,2.227142400000048,None,0,1,1,0,,,,,1,3,11,7,569.6097452000001,,,,,,,,,,,,,,,,,,,,,569.594343,569.6097452000001,570.0934070999999,570.0980161,570.1093211999998,570.8269754,,,,,570.8271704000001,570.8425569999997,571.0424369,571.0259376000001,570.1093211999998,,,,,,,,0,1,0.708361199999672,None,,,,,,,,882,23,,R,2026-02-18_11h26.14.057,VisualSearch_2526_3,,2025.2.4,2026-02-18 11h26.14.416110 +0100,
tilted.xlsx,The target is tilted.,117,12,4,1,1,1,1,1,0,0,0,0,0,0,0,0,0,3,4,117,space,17.308429799999885,None,0,0,1.0308569999997417,None,space,2.227142400000048,None,0,1,1,0,,,,,1,4,12,2,571.0424369,,,,,,,,,,,,,,,,,,,,,571.0266838999999,571.0424369,571.5259619999999,571.5302386000001,571.5424439000001,572.5763070999999,,,,,572.5765082999999,572.5917554,572.7916376000001,572.7753114,571.5424439000001,,,,,,,,0,0,1.0308569999997417,None,,,,,,,,882,23,,R,2026-02-18_11h26.14.057,VisualSearch_2526_3,,2025.2.4,2026-02-18 11h26.14.416110 +0100,
tilted.xlsx,The target is tilted.,117,13,5,1,1,1,1,1,1,1,1,1,1,1,1,1,0,11,12,117,space,17.308429799999885,None,1,1,6.923881900000197,None,space,2.227142400000048,None,0,1,1,0,,,,,1,5,13,0,572.7916376000001,,,,,,,,,,,,,,,,,,,,,572.7761527,572.7916376000001,573.2753227000001,573.2800721000001,573.2992821,580.2393301,,,,,580.2395233,580.2548527000001,580.4548068000001,580.4386966,573.2992821,,,,,,,,1,1,6.923881900000197,None,,,,,,,,882,23,,R,2026-02-18_11h26.14.057,VisualSearch_2526_3,,2025.2.4,2026-02-18 11h26.14.416110 +0100,
tilted.xlsx,The target is tilted.,117,14,6,1,0,1,1,1,0,0,0,0,0,0,0,0,1,3,4,117,space,17.308429799999885,None,0,1,1.4416823999999906,None,space,2.227142400000048,None,0,1,1,0,,,,,1,6,14,6,580.4548068000001,,,,,,,,,,,,,,,,,,,,,580.4394217000001,580.4548068000001,580.9385255999998,580.9432027999999,580.9544634000001,582.4049916000001,,,,,582.4051772999999,582.4202168999998,582.6205238999999,582.6038037999999,580.9544634000001,,,,,,,,0,1,1.4416823999999906,None,,,,,,,,882,23,,R,2026-02-18_11h26.14.057,VisualSearch_2526_3,,2025.2.4,2026-02-18 11h26.14.416110 +0100,
tilted.xlsx,The target is tilted.,117,15,7,1,0,1,1,1,1,1,1,1,0,0,0,0,1,7,8,117,space,17.308429799999885,None,1,0,2.7358054999999695,None,space,2.227142400000048,None,0,1,1,0,,,,,1,7,15,5,582.6205238999999,,,,,,,,,,,,,,,,,,,,,582.6045369000001,582.6205238999999,583.1042085000001,583.1093070999998,583.128935,585.8700132000001,,,,,585.8701988999999,585.8852504999998,586.0851267,586.0695134,583.128935,,,,,,,,1,0,2.7358054999999695,None,,,,,,,,882,23,,R,2026-02-18_11h26.14.057,VisualSearch_2526_3,,2025.2.4,2026-02-18 11h26.14.416110 +0100,
tilted.xlsx,The target is tilted.,117,16,0,2,1,1,1,1,1,1,1,1,1,1,1,1,0,11,12,117,space,17.308429799999885,None,1,1,1.6945857000000615,None,space,2.227142400000048,None,0,1,1,0,,,,,2,0,16,0,586.0851267,,,,,,,,,,,,,,,,,,,,,586.0702561,586.0851267,586.5691863999998,586.5739529,586.5931616999999,588.3023568000001,,,,,588.3025464999998,588.3178430999999,588.5177568000001,588.5012857999998,586.5931616999999,,,,,,,,1,1,1.6945857000000615,None,,,,,,,,882,23,,R,2026-02-18_11h26.14.057,VisualSearch_2526_3,,2025.2.4,2026-02-18 11h26.14.416110 +0100,
tilted.xlsx,The target is tilted.,117,17,1,2,1,1,1,1,0,0,0,0,0,0,0,0,0,3,4,117,space,17.308429799999885,None,1,1,1.17267129999982,None,space,2.227142400000048,None,0,1,1,0,,,,,2,1,17,2,588.5177568000001,,,,,,,,,,,,,,,,,,,,,588.5020557999999,588.5177568000001,589.0014235000001,589.0062661999998,589.0253491000001,590.2013108999997,,,,,590.2015143000001,590.2169495999999,590.4169476999998,590.4009518,589.0253491000001,,,,,,,,1,1,1.17267129999982,None,,,,,,,,882,23,,R,2026-02-18_11h26.14.057,VisualSearch_2526_3,,2025.2.4,2026-02-18 11h26.14.416110 +0100,
tilted.xlsx,The target is tilted.,117,18,2,2,0,1,1,1,1,1,1,1,1,1,1,1,1,11,12,117,space,17.308429799999885,None,1,0,6.372312299999976,None,space,2.227142400000048,None,0,1,1,0,,,,,2,2,18,4,590.4169476999998,,,,,,,,,,,,,,,,,,,,,590.4017745999997,590.4169476999998,590.9006124999999,590.9053508999998,590.9186412000001,597.2982221999998,,,,,597.2984077999997,597.3134712999997,597.5136583999999,597.4971972000001,590.9186412000001,,,,,,,,1,0,6.372312299999976,None,,,,,,,,882,23,,R,2026-02-18_11h26.14.057,VisualSearch_2526_3,,2025.2.4,2026-02-18 11h26.14.416110 +0100,
tilted.xlsx,The target is tilted.,117,19,3,2,0,1,1,1,0,0,0,0,0,0,0,0,1,3,4,117,space,17.308429799999885,None,0,1,1.7494986000001518,None,space,2.227142400000048,None,0,1,1,0,,,,,2,3,19,6,597.5136583999999,,,,,,,,,,,,,,,,,,,,,597.4980075000001,597.5136583999999,597.9973248999997,598.0017752000001,598.0134222999998,599.7798191999998,,,,,599.7799591,599.7957960000001,599.9955806,599.9794193,598.0134222999998,,,,,,,,0,1,1.7494986000001518,None,,,,,,,,882,23,,R,2026-02-18_11h26.14.057,VisualSearch_2526_3,,2025.2.4,2026-02-18 11h26.14.416110 +0100,
tilted.xlsx,The target is tilted.,117,20,4,2,0,0,0,0,0,0,0,0,0,0,0,0,1,1,1,117,space,17.308429799999885,None,0,1,0.7174949000000197,None,space,2.227142400000048,None,0,1,1,0,,,,,2,4,20,7,599.9955806,,,,,,,,,,,,,,,,,,,,,599.9801523999997,599.9955806,600.4795243000001,600.4848061,600.5037205000001,601.2298534999998,,,,,601.2300404,601.2449411999999,601.4451535000001,601.4293420000001,600.5037205000001,,,,,,,,0,1,0.7174949000000197,None,,,,,,,,882,23,,R,2026-02-18_11h26.14.057,VisualSearch_2526_3,,2025.2.4,2026-02-18 11h26.14.416110 +0100,
tilted.xlsx,The target is tilted.,117,21,5,2,1,1,1,1,1,1,1,1,0,0,0,0,0,7,8,117,space,17.308429799999885,None,1,1,1.5741326000002118,None,space,2.227142400000048,None,0,1,1,0,,,,,2,5,21,1,601.4451535000001,,,,,,,,,,,,,,,,,,,,,601.4301662999999,601.4451535000001,601.9288848999997,601.9336347000001,601.9527353999999,603.5287246,,,,,603.5289110000001,603.5443271000001,603.7442097,603.7279886999997,601.9527353999999,,,,,,,,1,1,1.5741326000002118,None,,,,,,,,882,23,,R,2026-02-18_11h26.14.057,VisualSearch_2526_3,,2025.2.4,2026-02-18 11h26.14.416110 +0100,
tilted.xlsx,The target is tilted.,117,22,6,2,0,1,1,1,1,1,1,1,0,0,0,0,1,7,8,117,space,17.308429799999885,None,0,1,4.1458811999996215,None,space,2.227142400000048,None,0,1,1,0,,,,,2,6,22,5,603.7442097,,,,,,,,,,,,,,,,,,,,,603.7287586999998,603.7442097,604.227838,604.2324492,604.2442788000001,608.3933626,,,,,608.3935850999999,608.4084234,608.6087436999999,608.5927117999997,604.2442788000001,,,,,,,,0,1,4.1458811999996215,None,,,,,,,,882,23,,R,2026-02-18_11h26.14.057,VisualSearch_2526_3,,2025.2.4,2026-02-18 11h26.14.416110 +0100,
tilted.xlsx,The target is tilted.,117,23,7,2,1,0,0,0,0,0,0,0,0,0,0,0,0,0,1,117,space,17.308429799999885,None,1,1,0.6596411000000444,None,space,2.227142400000048,None,0,1,1,0,,,,,2,7,23,3,608.6087436999999,,,,,,,,,,,,,,,,,,,,,608.5935379,608.6087436999999,609.0923694,609.0971956999999,609.1160993999999,609.7925303999998,,,,,609.7927536,609.8080557000001,610.0080618,609.9919094999998,609.1160993999999,,,,,,,,1,1,0.6596411000000444,None,,,,,,,,882,23,,R,2026-02-18_11h26.14.057,VisualSearch_2526_3,,2025.2.4,2026-02-18 11h26.14.416110 +0100,
tilted.xlsx,The target is tilted.,117,24,0,3,1,1,1,1,1,1,1,1,0,0,0,0,0,7,8,117,space,17.308429799999885,None,1,1,2.6790468999997756,None,space,2.227142400000048,None,0,1,1,0,,,,,3,0,24,1,610.0080618,,,,,,,,,,,,,,,,,,,,,609.9927239000001,610.0080618,610.4917426,610.4964656999998,610.5159492,613.2076804000001,,,,,613.2078755,613.2232665999998,613.4232363999997,613.4071940000001,610.5159492,,,,,,,,1,1,2.6790468999997756,None,,,,,,,,882,23,,R,2026-02-18_11h26.14.057,VisualSearch_2526_3,,2025.2.4,2026-02-18 11h26.14.416110 +0100,
tilted.xlsx,The target is tilted.,117,25,1,3,1,1,1,1,0,0,0,0,0,0,0,0,0,3,4,117,space,17.308429799999885,None,1,1,1.0183154999999715,None,space,2.227142400000048,None,0,1,1,0,,,,,3,1,25,2,613.4232363999997,,,,,,,,,,,,,,,,,,,,,613.4080247999998,613.4232363999997,613.9069182000001,613.9115524000001,613.9227767,614.9568389999997,,,,,614.9570290999998,614.9722515999999,615.1719731999999,615.1558841999997,613.9227767,,,,,,,,1,1,1.0183154999999715,None,,,,,,,,882,23,,R,2026-02-18_11h26.14.057,VisualSearch_2526_3,,2025.2.4,2026-02-18 11h26.14.416110 +0100,
tilted.xlsx,The target is tilted.,117,26,2,3,0,1,1,1,0,0,0,0,0,0,0,0,1,3,4,117,space,17.308429799999885,None,0,1,1.9841609000000062,None,space,2.227142400000048,None,0,1,1,0,,,,,3,2,26,6,615.1719731999999,,,,,,,,,,,,,,,,,,,,,615.1566126,615.1719731999999,615.6556745999999,615.6604783,615.6794696,617.6724311,,,,,617.6726259,617.6879087999998,617.8878093999999,617.8715949,615.6794696,,,,,,,,0,1,1.9841609000000062,None,,,,,,,,882,23,,R,2026-02-18_11h26.14.057,VisualSearch_2526_3,,2025.2.4,2026-02-18 11h26.14.416110 +0100,
tilted.xlsx,The target is tilted.,117,27,3,3,0,1,1,1,1,1,1,1,1,1,1,1,1,11,12,117,space,17.308429799999885,None,1,0,2.2821108000002823,None,space,2.227142400000048,None,0,1,1,0,,,,,3,3,27,4,617.8878093999999,,,,,,,,,,,,,,,,,,,,,617.8723502999999,617.8878093999999,618.3715083999998,618.3763860000001,618.3892860999997,620.6872966999997,,,,,620.6874852999997,620.7028174,620.9032448,620.8869990000001,618.3892860999997,,,,,,,,1,0,2.2821108000002823,None,,,,,,,,882,23,,R,2026-02-18_11h26.14.057,VisualSearch_2526_3,,2025.2.4,2026-02-18 11h26.14.416110 +0100,
tilted.xlsx,The target is tilted.,117,28,4,3,0,0,0,0,0,0,0,0,0,0,0,0,1,1,1,117,space,17.308429799999885,None,0,1,0.6522030000000996,None,space,2.227142400000048,None,0,1,1,0,,,,,3,4,28,7,620.9032448,,,,,,,,,,,,,,,,,,,,,620.8877961000001,620.9032448,621.3867158999999,621.3914882000001,621.4107578999999,622.0703489,,,,,622.0705400999998,622.0858221000001,622.285678,622.2696966000001,621.4107578999999,,,,,,,,0,1,0.6522030000000996,None,,,,,,,,882,23,,R,2026-02-18_11h26.14.057,VisualSearch_2526_3,,2025.2.4,2026-02-18 11h26.14.416110 +0100,
tilted.xlsx,The target is tilted.,117,29,5,3,1,1,1,1,1,1,1,1,1,1,1,1,0,11,12,117,space,17.308429799999885,None,1,1,1.0131714999997712,None,space,2.227142400000048,None,0,1,1,0,,,,,3,5,29,0,622.285678,,,,,,,,,,,,,,,,,,,,,622.2704354,622.285678,622.7694298999997,622.7741887999998,622.7932365999998,623.8195769000001,,,,,623.8197730999998,623.8350223999998,624.0351004000001,624.0189794999999,622.7932365999998,,,,,,,,1,1,1.0131714999997712,None,,,,,,,,882,23,,R,2026-02-18_11h26.14.057,VisualSearch_2526_3,,2025.2.4,2026-02-18 11h26.14.416110 +0100,
tilted.xlsx,The target is tilted.,117,30,6,3,0,1,1,1,1,1,1,1,0,0,0,0,1,7,8,117,space,17.308429799999885,None,1,0,2.1424035000000003,None,space,2.227142400000048,None,0,1,1,0,,,,,3,6,30,5,624.0351004000001,,,,,,,,,,,,,,,,,,,,,624.0197583000001,624.0351004000001,624.5179992000001,624.5207984000001,624.5346367,626.6848373999999,,,,,626.6850271000001,626.7004894999998,626.9000561999999,626.8844191000001,624.5346367,,,,,,,,1,0,2.1424035000000003,None,,,,,,,,882,23,,R,2026-02-18_11h26.14.057,VisualSearch_2526_3,,2025.2.4,2026-02-18 11h26.14.416110 +0100,
tilted.xlsx,The target is tilted.,117,31,7,3,1,0,0,0,0,0,0,0,0,0,0,0,0,0,1,117,space,17.308429799999885,None,1,1,0.5495350000001054,None,space,2.227142400000048,None,0,1,1,0,,,,,3,7,31,3,626.9000561999999,,,,,,,,,,,,,,,,,,,,,626.8851352999998,626.9000561999999,627.3840397000001,627.3887533,627.4085929999999,627.9676383999997,,,,,627.9678618,627.9830998,628.1831543999999,628.1669273999998,627.4085929999999,,,,,,,,1,1,0.5495350000001054,None,,,,,,,,882,23,,R,2026-02-18_11h26.14.057,VisualSearch_2526_3,,2025.2.4,2026-02-18 11h26.14.416110 +0100,
tilted.xlsx,The target is tilted.,117,32,0,4,1,1,1,1,0,0,0,0,0,0,0,0,0,3,4,117,space,17.308429799999885,None,0,0,1.024009599999772,None,space,2.227142400000048,None,0,1,1,0,,,,,4,0,32,2,628.1831543999999,,,,,,,,,,,,,,,,,,,,,628.1676811,628.1831543999999,628.6666170999999,628.6712945000002,628.6899728000001,629.7166607000001,,,,,629.7168629999999,629.7323748000001,629.9323419999998,629.9159145000001,628.6899728000001,,,,,,,,0,0,1.024009599999772,None,,,,,,,,882,23,,R,2026-02-18_11h26.14.057,VisualSearch_2526_3,,2025.2.4,2026-02-18 11h26.14.416110 +0100,
tilted.xlsx,The target is tilted.,117,33,1,4,1,0,0,0,0,0,0,0,0,0,0,0,0,0,1,117,space,17.308429799999885,None,1,1,0.6253000000001521,None,space,2.227142400000048,None,0,1,1,0,,,,,4,1,33,3,629.9323419999998,,,,,,,,,,,,,,,,,,,,,629.9166757999999,629.9323419999998,630.4156467,630.4202754999999,630.4392203,631.0662445999999,,,,,631.0664352000001,631.0817724000001,631.2817097999998,631.2655053999999,630.4392203,,,,,,,,1,1,0.6253000000001521,None,,,,,,,,882,23,,R,2026-02-18_11h26.14.057,VisualSearch_2526_3,,2025.2.4,2026-02-18 11h26.14.416110 +0100,
tilted.xlsx,The target is tilted.,117,34,2,4,0,1,1,1,0,0,0,0,0,0,0,0,1,3,4,117,space,17.308429799999885,None,0,1,0.9831534999998439,None,space,2.227142400000048,None,0,1,1,0,,,,,4,2,34,6,631.2817097999998,,,,,,,,,,,,,,,,,,,,,631.2662702999999,631.2817097999998,631.7653394000001,631.7700803,631.7897430999999,632.7823448000001,,,,,632.7825546000001,632.7974123000001,632.9976673999997,632.9814844,631.7897430999999,,,,,,,,0,1,0.9831534999998439,None,,,,,,,,882,23,,R,2026-02-18_11h26.14.057,VisualSearch_2526_3,,2025.2.4,2026-02-18 11h26.14.416110 +0100,
tilted.xlsx,The target is tilted.,117,35,3,4,1,1,1,1,1,1,1,1,1,1,1,1,0,11,12,117,space,17.308429799999885,None,1,1,1.5335878000000776,None,space,2.227142400000048,None,0,1,1,0,,,,,4,3,35,0,632.9976673999997,,,,,,,,,,,,,,,,,,,,,632.9822516000002,632.9976673999997,633.4812347999998,633.4860418999999,633.5051888,635.0477478,,,,,635.0479359999997,635.0633568000001,635.2634286999998,635.2471686000001,633.5051888,,,,,,,,1,1,1.5335878000000776,None,,,,,,,,882,23,,R,2026-02-18_11h26.14.057,VisualSearch_2526_3,,2025.2.4,2026-02-18 11h26.14.416110 +0100,
tilted.xlsx,The target is tilted.,117,36,4,4,0,0,0,0,0,0,0,0,0,0,0,0,1,1,1,117,space,17.308429799999885,None,0,1,0.6270068000003448,None,space,2.227142400000048,None,0,1,1,0,,,,,4,4,36,7,635.2634286999998,,,,,,,,,,,,,,,,,,,,,635.2479701999998,635.2634286999998,635.7470393000001,635.7519780999999,635.7623904,636.3971235000001,,,,,636.397314,636.4128113999998,636.6125838999999,636.5962416999998,635.7623904,,,,,,,,0,1,0.6270068000003448,None,,,,,,,,882,23,,R,2026-02-18_11h26.14.057,VisualSearch_2526_3,,2025.2.4,2026-02-18 11h26.14.416110 +0100,
