file_name,block_instructions,target_example,thisN,thisTrialN,thisRepN,target_presence,opacity_1,opacity_2,opacity_3,opacity_4,opacity_5,opacity_6,opacity_7,opacity_8,opacity_9,opacity_10,opacity_11,opacity_12,n_distract,n_items,target_ori,key_resp_4.keys,key_resp_4.rt,key_resp_4.duration,key_resp.keys,key_resp.corr,key_resp.rt,key_resp.duration,key_resp_5.keys,key_resp_5.rt,key_resp_5.duration,blocks.thisRepN,blocks.thisTrialN,blocks.thisN,blocks.thisIndex,practice_trials.thisRepN,practice_trials.thisTrialN,practice_trials.thisN,practice_trials.thisIndex,trials.thisRepN,trials.thisTrialN,trials.thisN,trials.thisIndex,thisRow.t,notes,Welcome.started,WelcomeText.started,key_resp_2.started,Welcome.stopped,key_resp_2.keys,key_resp_2.rt,key_resp_2.duration,InformedConsent.started,text_4.started,InformedConsent.stopped,key_resp_6.keys,key_resp_6.rt,key_resp_6.duration,key_resp_4.started,example_target.started,text_3.started,blocks.key_resp_4.keys,blocks.key_resp_4.rt,blocks.key_resp_4.duration,FixCross.started,fixCross.started,FixCross.stopped,Stimulus.started,key_resp.started,Stimulus.stopped,practice_trials.key_resp.keys,practice_trials.key_resp.corr,practice_trials.key_resp.rt,practice_trials.key_resp.duration,BlankScreen.started,text.started,text.stopped,BlankScreen.stopped,fixCross.stopped,ExperimentStart.started,text_2.started,key_resp_5.started,ExperimentStart.stopped,blocks.key_resp_5.keys,blocks.key_resp_5.rt,blocks.key_resp_5.duration,trials.key_resp.keys,trials.key_resp.corr,trials.key_resp.rt,trials.key_resp.duration,Thanks.started,ThankYou.started,key_resp_3.started,Thanks.stopped,key_resp_3.keys,key_resp_3.rt,key_resp_3.duration,participant,leeftijd,gender,links/rechtshandig,date,expName,expVersion,psychopyVersion,expStart,
,,,,,,,,,,,,,,,,,,,,,,,,,,,,,,,,,,,,,,,,,,,,,,0.020327599999291124,0.03157459999965795,0.03157459999965795,38.28402859999915,space,38.221998600000006,None,,,,,,,,,,,,,,,,,,,,,,,,,,,,,,,,,,,,,,,,,,,,,,882,22,V,R,2026-02-23_12h13.42.205,VisualSearch_2526_3,,2025.2.4,2026-02-23 12h13.42.413956 +0100,
,,,,,,,,,,,,,,,,,,,,,,,,,,,,,,,,,,,,,,,,,,,,,,,,,,,,,38.284166899999946,38.290661299999556,46.36507859999983,y,8.071490999999696,None,,,,,,,,,,,,,,,,,,,,,,,,,,,,,,,,,,,,,,,,882,22,V,R,2026-02-23_12h13.42.205,VisualSearch_2526_3,,2025.2.4,2026-02-23 12h13.42.413956 +0100,
tilted.xlsx,The target is tilted.,117,0,0,0,1,0,0,0,0,0,0,0,0,0,0,0,0,0,1,117,space,7.3779192000001785,None,1,1,0.9862991999998485,None,,,,0,0,0,0,0,0,0,3,,,,,53.819823599999836,,,,,,,,,,,,,,,46.4017531999998,46.4017531999998,46.4017531999998,space,7.3779192000001785,None,53.815198999999666,53.819823599999836,54.31074229999922,54.31557899999916,54.32686439999998,55.32761909999954,1,1,0.9862991999998485,None,55.327811799999836,55.34327209999992,55.5429009999998,55.52673429999959,,,,,,,,,,,,,,,,,,,,882,22,V,R,2026-02-23_12h13.42.205,VisualSearch_2526_3,,2025.2.4,2026-02-23 12h13.42.413956 +0100,
tilted.xlsx,The target is tilted.,117,1,1,0,1,1,1,1,0,0,0,0,0,0,0,0,0,3,4,117,space,7.3779192000001785,None,1,1,1.0329905999997209,None,,,,0,0,0,0,0,1,1,2,,,,,55.5429009999998,,,,,,,,,,,,,,,,,,,,,55.527405399999225,55.5429009999998,56.026496999999836,56.03116149999914,56.045608899999934,57.092722099999264,1,1,1.0329905999997209,None,57.09285759999966,57.108996599999955,57.309034699999756,57.29278339999928,56.045608899999934,,,,,,,,,,,,,,,,,,,882,22,V,R,2026-02-23_12h13.42.205,VisualSearch_2526_3,,2025.2.4,2026-02-23 12h13.42.413956 +0100,
tilted.xlsx,The target is tilted.,117,2,2,0,1,1,1,1,1,1,1,1,0,0,0,0,0,7,8,117,space,7.3779192000001785,None,1,1,0.8925939999999173,None,,,,0,0,0,0,0,2,2,1,,,,,57.309034699999756,,,,,,,,,,,,,,,,,,,,,57.293569299999945,57.309034699999756,57.79268349999984,57.79706679999981,57.80860379999922,58.70901439999943,1,1,0.8925939999999173,None,58.70914989999983,58.72450140000001,58.9250207999994,58.90864689999944,57.80860379999922,,,,,,,,,,,,,,,,,,,882,22,V,R,2026-02-23_12h13.42.205,VisualSearch_2526_3,,2025.2.4,2026-02-23 12h13.42.413956 +0100,
tilted.xlsx,The target is tilted.,117,3,3,0,0,1,1,1,1,1,1,1,0,0,0,0,1,7,8,117,space,7.3779192000001785,None,0,1,1.9988554999999906,None,,,,0,0,0,0,0,3,3,5,,,,,58.9250207999994,,,,,,,,,,,,,,,,,,,,,58.90933529999984,58.9250207999994,59.40838529999928,59.41295749999972,59.427106599999206,61.440563199999815,0,1,1.9988554999999906,None,61.44069039999977,61.45659009999963,61.65668939999978,61.640948399999616,59.427106599999206,,,,,,,,,,,,,,,,,,,882,22,V,R,2026-02-23_12h13.42.205,VisualSearch_2526_3,,2025.2.4,2026-02-23 12h13.42.413956 +0100,
tilted.xlsx,The target is tilted.,117,4,4,0,1,1,1,1,1,1,1,1,1,1,1,1,0,11,12,117,space,7.3779192000001785,None,1,1,1.0902952000005826,None,,,,0,0,0,0,0,4,4,0,,,,,61.65668939999978,,,,,,,,,,,,,,,,,,,,,61.64160399999946,61.65668939999978,62.14064639999924,62.1452548999996,62.15967809999984,63.25711489999958,1,1,1.0902952000005826,None,63.25730739999926,63.272452399999565,63.472542199999225,63.45646629999919,62.15967809999984,,,,,,,,,,,,,,,,,,,882,22,V,R,2026-02-23_12h13.42.205,VisualSearch_2526_3,,2025.2.4,2026-02-23 12h13.42.413956 +0100,
tilted.xlsx,The target is tilted.,117,5,5,0,0,0,0,0,0,0,0,0,0,0,0,0,1,1,1,117,space,7.3779192000001785,None,0,1,0.8216877999993812,None,,,,0,0,0,0,0,5,5,7,,,,,63.472542199999225,,,,,,,,,,,,,,,,,,,,,63.457145800000035,63.472542199999225,63.95634369999971,63.96126629999981,63.974421699999766,64.80672269999923,0,1,0.8216877999993812,None,64.80691419999948,64.82173519999924,65.02213889999985,65.0059726999998,63.974421699999766,,,,,,,,,,,,,,,,,,,882,22,V,R,2026-02-23_12h13.42.205,VisualSearch_2526_3,,2025.2.4,2026-02-23 12h13.42.413956 +0100,
tilted.xlsx,The target is tilted.,117,6,6,0,0,1,1,1,1,1,1,1,1,1,1,1,1,11,12,117,space,7.3779192000001785,None,0,1,2.2139485999996396,None,,,,0,0,0,0,0,6,6,4,,,,,65.02213889999985,,,,,,,,,,,,,,,,,,,,,65.00666599999931,65.02213889999985,65.50595629999953,65.51046029999998,65.5256159999999,67.7545782999996,0,1,2.2139485999996396,None,67.7547027999999,67.77031989999978,67.97090919999937,67.95453379999981,65.5256159999999,,,,,,,,,,,,,,,,,,,882,22,V,R,2026-02-23_12h13.42.205,VisualSearch_2526_3,,2025.2.4,2026-02-23 12h13.42.413956 +0100,
tilted.xlsx,The target is tilted.,117,7,7,0,0,1,1,1,0,0,0,0,0,0,0,0,1,3,4,117,space,7.3779192000001785,None,0,1,0.9925671000000875,None,,,,0,0,0,0,0,7,7,6,,,,,67.97090919999937,,,,,,,,,,,,,,,,,,,,,67.95522559999972,67.97090919999937,68.45426809999935,68.45884299999943,68.47445069999958,69.47085309999966,0,1,0.9925671000000875,None,69.47102889999951,69.48627609999949,69.6862787,69.67040559999987,68.47445069999958,,,,,,,,,,,,,,,,,,,882,22,V,R,2026-02-23_12h13.42.205,VisualSearch_2526_3,,2025.2.4,2026-02-23 12h13.42.413956 +0100,
tilted.xlsx,The target is tilted.,117,0,0,0,1,1,1,1,0,0,0,0,0,0,0,0,0,3,4,117,space,7.3779192000001785,None,1,1,0.7696006000005582,None,space,2.0295908999996755,None,0,0,0,0,,,,,0,0,0,2,71.74947359999987,,,,,,,,,,,,,,,,,,,,,71.74554569999964,71.74947359999987,72.23588529999961,72.24061169999914,72.25632489999953,73.03671699999995,,,,,73.0369299999993,73.05131819999951,73.25183599999946,73.23574680000002,,69.67725589999918,69.6862787,69.6862787,71.71976249999989,space,2.0295908999996755,None,1,1,0.7696006000005582,None,,,,,,,,882,22,V,R,2026-02-23_12h13.42.205,VisualSearch_2526_3,,2025.2.4,2026-02-23 12h13.42.413956 +0100,
tilted.xlsx,The target is tilted.,117,1,1,0,1,0,0,0,0,0,0,0,0,0,0,0,0,0,1,117,space,7.3779192000001785,None,1,1,0.489366699999664,None,space,2.0295908999996755,None,0,0,0,0,,,,,0,1,1,3,73.25183599999946,,,,,,,,,,,,,,,,,,,,,73.23642489999929,73.25183599999946,73.7350609999994,73.73909289999938,73.75377879999996,74.25131779999992,,,,,74.25141069999972,74.26722029999928,,74.45152539999981,73.75377879999996,,,,,,,,1,1,0.489366699999664,None,,,,,,,,882,22,V,R,2026-02-23_12h13.42.205,VisualSearch_2526_3,,2025.2.4,2026-02-23 12h13.42.413956 +0100,
tilted.xlsx,The target is tilted.,117,2,2,0,1,1,1,1,1,1,1,1,0,0,0,0,0,7,8,117,space,7.3779192000001785,None,1,1,0.7683862000003501,None,space,2.0295908999996755,None,0,0,0,0,,,,,0,2,2,1,74.46774779999942,,,,,,,,,,,,,,,,,,,,,74.45231619999959,74.46774779999942,74.9516193999998,74.95616289999998,74.97132309999961,75.75187489999917,,,,,75.75209879999966,75.76681839999947,75.96719339999981,75.95117439999922,74.97132309999961,,,,,,,,1,1,0.7683862000003501,None,,,,,,,,882,22,V,R,2026-02-23_12h13.42.205,VisualSearch_2526_3,,2025.2.4,2026-02-23 12h13.42.413956 +0100,
tilted.xlsx,The target is tilted.,117,3,3,0,0,0,0,0,0,0,0,0,0,0,0,0,1,1,1,117,space,7.3779192000001785,None,0,1,0.6703575999999885,None,space,2.0295908999996755,None,0,0,0,0,,,,,0,3,3,7,75.96719339999981,,,,,,,,,,,,,,,,,,,,,75.9519279999995,75.96719339999981,76.45078739999917,76.45544229999996,76.47039979999954,77.15118069999971,,,,,77.1513873999993,77.16620359999979,77.36637439999959,77.35021779999988,76.47039979999954,,,,,,,,0,1,0.6703575999999885,None,,,,,,,,882,22,V,R,2026-02-23_12h13.42.205,VisualSearch_2526_3,,2025.2.4,2026-02-23 12h13.42.413956 +0100,
tilted.xlsx,The target is tilted.,117,4,4,0,0,1,1,1,1,1,1,1,1,1,1,1,1,11,12,117,space,7.3779192000001785,None,0,1,2.535738300000048,None,space,2.0295908999996755,None,0,0,0,0,,,,,0,4,4,4,77.36637439999959,,,,,,,,,,,,,,,,,,,,,77.35093509999933,77.36637439999959,77.85030809999989,77.85500299999967,77.87008839999999,80.41613999999936,,,,,80.4163208,80.4312745999996,80.63131079999948,80.61524049999935,77.87008839999999,,,,,,,,0,1,2.535738300000048,None,,,,,,,,882,22,V,R,2026-02-23_12h13.42.205,VisualSearch_2526_3,,2025.2.4,2026-02-23 12h13.42.413956 +0100,
tilted.xlsx,The target is tilted.,117,5,5,0,1,1,1,1,1,1,1,1,1,1,1,1,0,11,12,117,space,7.3779192000001785,None,0,0,1.8491911999999502,None,space,2.0295908999996755,None,0,0,0,0,,,,,0,5,5,0,80.63131079999948,,,,,,,,,,,,,,,,,,,,,80.61570709999978,80.63131079999948,81.1155278999995,81.12034949999997,81.13622929999929,82.99739259999933,,,,,82.99755370000003,83.01342260000001,83.21396849999928,83.19775359999949,81.13622929999929,,,,,,,,0,0,1.8491911999999502,None,,,,,,,,882,22,V,R,2026-02-23_12h13.42.205,VisualSearch_2526_3,,2025.2.4,2026-02-23 12h13.42.413956 +0100,
tilted.xlsx,The target is tilted.,117,6,6,0,0,1,1,1,1,1,1,1,0,0,0,0,1,7,8,117,space,7.3779192000001785,None,1,0,3.4719994999995833,None,space,2.0295908999996755,None,0,0,0,0,,,,,0,6,6,5,83.21396849999928,,,,,,,,,,,,,,,,,,,,,83.1985124999992,83.21396849999928,83.69730509999954,83.70193119999931,83.71637959999953,87.19634369999949,,,,,87.19648939999934,87.21156749999955,87.41208069999993,87.39592819999962,83.71637959999953,,,,,,,,1,0,3.4719994999995833,None,,,,,,,,882,22,V,R,2026-02-23_12h13.42.205,VisualSearch_2526_3,,2025.2.4,2026-02-23 12h13.42.413956 +0100,
tilted.xlsx,The target is tilted.,117,7,7,0,0,1,1,1,0,0,0,0,0,0,0,0,1,3,4,117,space,7.3779192000001785,None,0,1,1.0180421000004571,None,space,2.0295908999996755,None,0,0,0,0,,,,,0,7,7,6,87.41208069999993,,,,,,,,,,,,,,,,,,,,,87.39665199999945,87.41208069999993,87.89535569999953,87.90008119999948,87.91532909999933,88.94588669999939,,,,,88.94610809999995,88.96084789999986,89.16128570000001,89.14521069999955,87.91532909999933,,,,,,,,0,1,1.0180421000004571,None,,,,,,,,882,22,V,R,2026-02-23_12h13.42.205,VisualSearch_2526_3,,2025.2.4,2026-02-23 12h13.42.413956 +0100,
tilted.xlsx,The target is tilted.,117,8,0,1,1,1,1,1,1,1,1,1,0,0,0,0,0,7,8,117,space,7.3779192000001785,None,1,1,1.0739039999998568,None,space,2.0295908999996755,None,0,0,0,0,,,,,1,0,8,1,89.16128570000001,,,,,,,,,,,,,,,,,,,,,89.14595369999915,89.16128570000001,89.64490559999922,89.64945799999987,89.66460039999947,90.74497099999917,,,,,90.74518839999928,90.75998189999973,90.96031019999918,90.94421689999945,89.66460039999947,,,,,,,,1,1,1.0739039999998568,None,,,,,,,,882,22,V,R,2026-02-23_12h13.42.205,VisualSearch_2526_3,,2025.2.4,2026-02-23 12h13.42.413956 +0100,
tilted.xlsx,The target is tilted.,117,9,1,1,1,0,0,0,0,0,0,0,0,0,0,0,0,0,1,117,space,7.3779192000001785,None,1,1,0.9434320999998818,None,space,2.0295908999996755,None,0,0,0,0,,,,,1,1,9,3,90.96031019999918,,,,,,,,,,,,,,,,,,,,,90.9449666999999,90.96031019999918,91.4441354999999,91.44851699999981,91.46013689999927,92.41025249999984,,,,,92.41047359999993,92.4259505,92.62594209999952,92.60976309999933,91.46013689999927,,,,,,,,1,1,0.9434320999998818,None,,,,,,,,882,22,V,R,2026-02-23_12h13.42.205,VisualSearch_2526_3,,2025.2.4,2026-02-23 12h13.42.413956 +0100,
tilted.xlsx,The target is tilted.,117,10,2,1,0,1,1,1,0,0,0,0,0,0,0,0,1,3,4,117,space,7.3779192000001785,None,0,1,0.9003480999999738,None,space,2.0295908999996755,None,0,0,0,0,,,,,1,2,10,6,92.62594209999952,,,,,,,,,,,,,,,,,,,,,92.61034129999916,92.62594209999952,93.10999359999914,93.1145291999992,93.13303279999946,94.04235249999965,,,,,94.04245179999998,94.05825469999945,,94.24263229999997,93.13303279999946,,,,,,,,0,1,0.9003480999999738,None,,,,,,,,882,22,V,R,2026-02-23_12h13.42.205,VisualSearch_2526_3,,2025.2.4,2026-02-23 12h13.42.413956 +0100,
tilted.xlsx,The target is tilted.,117,11,3,1,1,1,1,1,1,1,1,1,1,1,1,1,0,11,12,117,space,7.3779192000001785,None,1,1,1.3677888000001985,None,space,2.0295908999996755,None,0,0,0,0,,,,,1,3,11,0,94.2589509999998,,,,,,,,,,,,,,,,,,,,,94.24337629999991,94.2589509999998,94.74265199999991,94.7472390999992,94.76203769999938,96.14197289999993,,,,,96.14215249999961,96.1575555999998,96.35794149999947,96.3414761999993,94.76203769999938,,,,,,,,1,1,1.3677888000001985,None,,,,,,,,882,22,V,R,2026-02-23_12h13.42.205,VisualSearch_2526_3,,2025.2.4,2026-02-23 12h13.42.413956 +0100,
tilted.xlsx,The target is tilted.,117,12,4,1,0,1,1,1,1,1,1,1,1,1,1,1,1,11,12,117,space,7.3779192000001785,None,0,1,2.9122723999998925,None,space,2.0295908999996755,None,0,0,0,0,,,,,1,4,12,4,96.35794149999947,,,,,,,,,,,,,,,,,,,,,96.34223709999969,96.35794149999947,96.84169479999946,96.84618349999982,96.85758569999962,99.77381089999926,,,,,99.77401169999939,99.78921269999955,99.98968409999998,99.97358709999935,96.85758569999962,,,,,,,,0,1,2.9122723999998925,None,,,,,,,,882,22,V,R,2026-02-23_12h13.42.205,VisualSearch_2526_3,,2025.2.4,2026-02-23 12h13.42.413956 +0100,
tilted.xlsx,The target is tilted.,117,13,5,1,0,0,0,0,0,0,0,0,0,0,0,0,1,1,1,117,space,7.3779192000001785,None,0,1,0.6740995000000112,None,space,2.0295908999996755,None,0,0,0,0,,,,,1,5,13,7,99.98968409999998,,,,,,,,,,,,,,,,,,,,,99.97428609999952,99.98968409999998,100.47312739999961,100.47834449999937,100.49364969999988,101.17356810000001,,,,,101.17376989999957,101.18840679999994,101.3890806999998,101.37288989999979,100.49364969999988,,,,,,,,0,1,0.6740995000000112,None,,,,,,,,882,22,V,R,2026-02-23_12h13.42.205,VisualSearch_2526_3,,2025.2.4,2026-02-23 12h13.42.413956 +0100,
tilted.xlsx,The target is tilted.,117,14,6,1,0,1,1,1,1,1,1,1,0,0,0,0,1,7,8,117,space,7.3779192000001785,None,0,1,1.743083100000149,None,space,2.0295908999996755,None,0,0,0,0,,,,,1,6,14,5,101.3890806999998,,,,,,,,,,,,,,,,,,,,,101.37366259999999,101.3890806999998,101.87275899999986,101.87729669999953,101.89223449999918,103.63831919999939,,,,,103.63845599999968,103.65414679999958,103.85411099999965,103.8381288999999,101.89223449999918,,,,,,,,0,1,1.743083100000149,None,,,,,,,,882,22,V,R,2026-02-23_12h13.42.205,VisualSearch_2526_3,,2025.2.4,2026-02-23 12h13.42.413956 +0100,
tilted.xlsx,The target is tilted.,117,15,7,1,1,1,1,1,0,0,0,0,0,0,0,0,0,3,4,117,space,7.3779192000001785,None,0,0,1.4435403999996197,None,space,2.0295908999996755,None,0,0,0,0,,,,,1,7,15,2,103.85411099999965,,,,,,,,,,,,,,,,,,,,,103.83887479999976,103.85411099999965,104.33812749999925,104.34276139999929,104.35425489999943,105.80406329999914,,,,,105.8041788999999,105.81965659999969,106.02028119999977,106.00412849999975,104.35425489999943,,,,,,,,0,0,1.4435403999996197,None,,,,,,,,882,22,V,R,2026-02-23_12h13.42.205,VisualSearch_2526_3,,2025.2.4,2026-02-23 12h13.42.413956 +0100,
tilted.xlsx,The target is tilted.,117,16,0,2,1,0,0,0,0,0,0,0,0,0,0,0,0,0,1,117,space,7.3779192000001785,None,1,1,1.041294000000562,None,space,2.0295908999996755,None,0,0,0,0,,,,,2,0,16,3,106.02028119999977,,,,,,,,,,,,,,,,,,,,,106.0048311999999,106.02028119999977,106.50405249999949,106.50871209999968,106.52423779999936,107.57051129999945,,,,,107.5707296999999,107.58575499999915,107.78586069999983,107.77006169999913,106.52423779999936,,,,,,,,1,1,1.041294000000562,None,,,,,,,,882,22,V,R,2026-02-23_12h13.42.205,VisualSearch_2526_3,,2025.2.4,2026-02-23 12h13.42.413956 +0100,
tilted.xlsx,The target is tilted.,117,17,1,2,0,1,1,1,1,1,1,1,0,0,0,0,1,7,8,117,space,7.3779192000001785,None,0,1,1.8268577999997433,None,space,2.0295908999996755,None,0,0,0,0,,,,,2,1,17,5,107.78586069999983,,,,,,,,,,,,,,,,,,,,,107.77078249999977,107.78586069999983,108.26951929999996,108.27420959999927,108.29021159999957,110.11927429999923,,,,,110.11945379999997,110.13455290000002,110.33499829999982,110.31880599999931,108.29021159999957,,,,,,,,0,1,1.8268577999997433,None,,,,,,,,882,22,V,R,2026-02-23_12h13.42.205,VisualSearch_2526_3,,2025.2.4,2026-02-23 12h13.42.413956 +0100,
tilted.xlsx,The target is tilted.,117,18,2,2,0,0,0,0,0,0,0,0,0,0,0,0,1,1,1,117,space,7.3779192000001785,None,0,1,0.7476153999996313,None,space,2.0295908999996755,None,0,0,0,0,,,,,2,2,18,7,110.33499829999982,,,,,,,,,,,,,,,,,,,,,110.3195526999998,110.33499829999982,110.81827939999948,110.82299079999939,110.8366116999996,111.58531029999995,,,,,111.58552379999946,111.6007995,111.8009820999996,111.78459789999943,110.8366116999996,,,,,,,,0,1,0.7476153999996313,None,,,,,,,,882,22,V,R,2026-02-23_12h13.42.205,VisualSearch_2526_3,,2025.2.4,2026-02-23 12h13.42.413956 +0100,
tilted.xlsx,The target is tilted.,117,19,3,2,0,1,1,1,0,0,0,0,0,0,0,0,1,3,4,117,space,7.3779192000001785,None,0,1,0.7388676999999007,None,space,2.0295908999996755,None,0,0,0,0,,,,,2,3,19,6,111.8009820999996,,,,,,,,,,,,,,,,,,,,,111.78533379999953,111.8009820999996,112.28462339999987,112.28918279999925,112.30495399999927,113.05150049999975,,,,,113.05172649999986,113.06656649999968,113.26688229999945,113.25110989999939,112.30495399999927,,,,,,,,0,1,0.7388676999999007,None,,,,,,,,882,22,V,R,2026-02-23_12h13.42.205,VisualSearch_2526_3,,2025.2.4,2026-02-23 12h13.42.413956 +0100,
tilted.xlsx,The target is tilted.,117,20,4,2,1,1,1,1,1,1,1,1,1,1,1,1,0,11,12,117,space,7.3779192000001785,None,0,0,1.9737399999994523,None,space,2.0295908999996755,None,0,0,0,0,,,,,2,4,20,0,113.26688229999945,,,,,,,,,,,,,,,,,,,,,113.25203239999973,113.26688229999945,113.75021099999958,113.754774,113.76980229999936,115.75015409999924,,,,,115.75033669999993,115.76529570000002,115.96563960000003,115.94971569999962,113.76980229999936,,,,,,,,0,0,1.9737399999994523,None,,,,,,,,882,22,V,R,2026-02-23_12h13.42.205,VisualSearch_2526_3,,2025.2.4,2026-02-23 12h13.42.413956 +0100,
tilted.xlsx,The target is tilted.,117,21,5,2,1,1,1,1,1,1,1,1,0,0,0,0,0,7,8,117,space,7.3779192000001785,None,0,0,1.9115630000005694,None,space,2.0295908999996755,None,0,0,0,0,,,,,2,5,21,1,115.96563960000003,,,,,,,,,,,,,,,,,,,,,115.95049499999914,115.96563960000003,116.44940809999935,116.4540094999993,116.4696586,118.38247989999945,,,,,118.38274599999932,118.39747869999974,118.59756629999993,118.58144139999968,116.4696586,,,,,,,,0,0,1.9115630000005694,None,,,,,,,,882,22,V,R,2026-02-23_12h13.42.205,VisualSearch_2526_3,,2025.2.4,2026-02-23 12h13.42.413956 +0100,
tilted.xlsx,The target is tilted.,117,22,6,2,1,1,1,1,0,0,0,0,0,0,0,0,0,3,4,117,space,7.3779192000001785,None,1,1,0.8804535999997825,None,space,2.0295908999996755,None,0,0,0,0,,,,,2,6,22,2,118.59756629999993,,,,,,,,,,,,,,,,,,,,,118.58217100000002,118.59756629999993,119.08158769999955,119.08600359999946,119.09750519999943,119.98139139999967,,,,,119.98159529999975,119.99670499999957,120.19713939999929,120.18105930000002,119.09750519999943,,,,,,,,1,1,0.8804535999997825,None,,,,,,,,882,22,V,R,2026-02-23_12h13.42.205,VisualSearch_2526_3,,2025.2.4,2026-02-23 12h13.42.413956 +0100,
tilted.xlsx,The target is tilted.,117,23,7,2,0,1,1,1,1,1,1,1,1,1,1,1,1,11,12,117,space,7.3779192000001785,None,0,1,2.4145498000007137,None,space,2.0295908999996755,None,0,0,0,0,,,,,2,7,23,4,120.19713939999929,,,,,,,,,,,,,,,,,,,,,120.18183569999928,120.19713939999929,120.68080529999952,120.68583089999993,120.70069859999967,123.12914589999946,,,,,123.12928209999973,123.14522169999964,123.34531119999974,123.32922879999933,120.70069859999967,,,,,,,,0,1,2.4145498000007137,None,,,,,,,,882,22,V,R,2026-02-23_12h13.42.205,VisualSearch_2526_3,,2025.2.4,2026-02-23 12h13.42.413956 +0100,
tilted.xlsx,The target is tilted.,117,24,0,3,0,0,0,0,0,0,0,0,0,0,0,0,1,1,1,117,space,7.3779192000001785,None,0,1,0.6594214999995529,None,space,2.0295908999996755,None,0,0,0,0,,,,,3,0,24,7,123.34531119999974,,,,,,,,,,,,,,,,,,,,,123.32996479999929,123.34531119999974,123.8293206999997,123.83404809999956,123.85006079999948,124.51274569999987,,,,,124.51295219999975,124.52797109999938,124.72846269999991,124.71224139999958,123.85006079999948,,,,,,,,0,1,0.6594214999995529,None,,,,,,,,882,22,V,R,2026-02-23_12h13.42.205,VisualSearch_2526_3,,2025.2.4,2026-02-23 12h13.42.413956 +0100,
tilted.xlsx,The target is tilted.,117,25,1,3,1,1,1,1,0,0,0,0,0,0,0,0,0,3,4,117,space,7.3779192000001785,None,0,0,0.7057817000004434,None,space,2.0295908999996755,None,0,0,0,0,,,,,3,1,25,2,124.72846269999991,,,,,,,,,,,,,,,,,,,,,124.71298409999963,124.72846269999991,125.21216869999989,125.21683109999958,125.23188559999926,125.94538749999992,,,,,125.94558799999959,125.96065309999994,126.16114589999961,126.14509539999926,125.23188559999926,,,,,,,,0,0,0.7057817000004434,None,,,,,,,,882,22,V,R,2026-02-23_12h13.42.205,VisualSearch_2526_3,,2025.2.4,2026-02-23 12h13.42.413956 +0100,
tilted.xlsx,The target is tilted.,117,26,2,3,1,0,0,0,0,0,0,0,0,0,0,0,0,0,1,117,space,7.3779192000001785,None,0,0,0.48844829999961803,None,space,2.0295908999996755,None,0,0,0,0,,,,,3,2,26,3,126.16114589999961,,,,,,,,,,,,,,,,,,,,,126.14580559999922,126.16114589999961,126.64489559999947,126.64947559999928,126.66525009999987,127.1616168999999,,,,,127.16180099999929,127.17679439999938,127.37717639999937,127.36107399999946,126.66525009999987,,,,,,,,0,0,0.48844829999961803,None,,,,,,,,882,22,V,R,2026-02-23_12h13.42.205,VisualSearch_2526_3,,2025.2.4,2026-02-23 12h13.42.413956 +0100,
tilted.xlsx,The target is tilted.,117,27,3,3,0,1,1,1,1,1,1,1,0,0,0,0,1,7,8,117,space,7.3779192000001785,None,0,1,1.623987500000112,None,space,2.0295908999996755,None,0,0,0,0,,,,,3,3,27,5,127.37717639999937,,,,,,,,,,,,,,,,,,,,,127.36181249999936,127.37717639999937,127.86121469999944,127.86614829999962,127.88114849999965,129.51039319999927,,,,,129.51061589999972,129.52570429999923,129.72577639999963,129.7100348999993,127.88114849999965,,,,,,,,0,1,1.623987500000112,None,,,,,,,,882,22,V,R,2026-02-23_12h13.42.205,VisualSearch_2526_3,,2025.2.4,2026-02-23 12h13.42.413956 +0100,
tilted.xlsx,The target is tilted.,117,28,4,3,1,1,1,1,1,1,1,1,0,0,0,0,0,7,8,117,space,7.3779192000001785,None,1,1,2.8870702000003803,None,space,2.0295908999996755,None,0,0,0,0,,,,,3,4,28,1,129.72577639999963,,,,,,,,,,,,,,,,,,,,,129.71073669999987,129.72577639999963,130.20981799999936,130.21502789999977,130.2294127999994,133.1257130999993,,,,,133.1259210999997,133.14071419999982,133.3412144999993,133.32497169999988,130.2294127999994,,,,,,,,1,1,2.8870702000003803,None,,,,,,,,882,22,V,R,2026-02-23_12h13.42.205,VisualSearch_2526_3,,2025.2.4,2026-02-23 12h13.42.413956 +0100,
tilted.xlsx,The target is tilted.,117,29,5,3,0,1,1,1,1,1,1,1,1,1,1,1,1,11,12,117,space,7.3779192000001785,None,0,1,2.485681199999817,None,space,2.0295908999996755,None,0,0,0,0,,,,,3,5,29,4,133.3412144999993,,,,,,,,,,,,,,,,,,,,,133.3257337999994,133.3412144999993,133.82492459999958,133.83009599999968,133.84332399999948,136.34092279999913,,,,,136.34112579999965,136.35599549999915,136.55614909999986,136.54034639999918,133.84332399999948,,,,,,,,0,1,2.485681199999817,None,,,,,,,,882,22,V,R,2026-02-23_12h13.42.205,VisualSearch_2526_3,,2025.2.4,2026-02-23 12h13.42.413956 +0100,
tilted.xlsx,The target is tilted.,117,30,6,3,0,1,1,1,0,0,0,0,0,0,0,0,1,3,4,117,space,7.3779192000001785,None,0,1,0.7382970999997269,None,space,2.0295908999996755,None,0,0,0,0,,,,,3,6,30,6,136.55614909999986,,,,,,,,,,,,,,,,,,,,,136.54106989999946,136.55614909999986,137.04001040000003,137.0446710999995,137.06035809999958,137.80648889999975,,,,,137.80663949999962,137.82199519999995,138.0225763999997,138.0065138,137.06035809999958,,,,,,,,0,1,0.7382970999997269,None,,,,,,,,882,22,V,R,2026-02-23_12h13.42.205,VisualSearch_2526_3,,2025.2.4,2026-02-23 12h13.42.413956 +0100,
tilted.xlsx,The target is tilted.,117,31,7,3,1,1,1,1,1,1,1,1,1,1,1,1,0,11,12,117,space,7.3779192000001785,None,0,0,1.960325500000181,None,space,2.0295908999996755,None,0,0,0,0,,,,,3,7,31,0,138.0225763999997,,,,,,,,,,,,,,,,,,,,,138.0073384999996,138.0225763999997,138.50612069999988,138.51079459999983,138.52707369999916,140.48924599999918,,,,,140.48948149999978,140.50409169999966,140.70401999999922,140.68838039999991,138.52707369999916,,,,,,,,0,0,1.960325500000181,None,,,,,,,,882,22,V,R,2026-02-23_12h13.42.205,VisualSearch_2526_3,,2025.2.4,2026-02-23 12h13.42.413956 +0100,
tilted.xlsx,The target is tilted.,117,32,0,4,1,1,1,1,1,1,1,1,1,1,1,1,0,11,12,117,space,7.3779192000001785,None,0,0,1.8502895999999964,None,space,2.0295908999996755,None,0,0,0,0,,,,,4,0,32,0,140.70401999999922,,,,,,,,,,,,,,,,,,,,,140.68909319999966,140.70401999999922,141.1881685999997,141.1927954999992,141.20698259999972,143.07078,,,,,143.07099769999968,143.08619739999995,143.28645059999963,143.27046999999948,141.20698259999972,,,,,,,,0,0,1.8502895999999964,None,,,,,,,,882,22,V,R,2026-02-23_12h13.42.205,VisualSearch_2526_3,,2025.2.4,2026-02-23 12h13.42.413956 +0100,
tilted.xlsx,The target is tilted.,117,33,1,4,1,0,0,0,0,0,0,0,0,0,0,0,0,0,1,117,space,7.3779192000001785,None,1,1,0.728604699999778,None,space,2.0295908999996755,None,0,0,0,0,,,,,4,1,33,3,143.28645059999963,,,,,,,,,,,,,,,,,,,,,143.27122189999955,143.28645059999963,143.76993700000003,143.7744077999996,143.78603329999987,144.52045409999937,,,,,144.52065499999935,144.53558879999946,144.73589889999948,144.7199955999995,143.78603329999987,,,,,,,,1,1,0.728604699999778,None,,,,,,,,882,22,V,R,2026-02-23_12h13.42.205,VisualSearch_2526_3,,2025.2.4,2026-02-23 12h13.42.413956 +0100,
tilted.xlsx,The target is tilted.,117,34,2,4,0,1,1,1,1,1,1,1,1,1,1,1,1,11,12,117,space,7.3779192000001785,None,0,1,3.0280468000000837,None,space,2.0295908999996755,None,0,0,0,0,,,,,4,2,34,4,144.73589889999948,,,,,,,,,,,,,,,,,,,,,144.72077219999937,144.73589889999948,145.21973269999944,145.22441069999968,145.2398706999993,148.28473669999948,,,,,148.28491489999942,148.30053569999927,148.50102269999934,148.4845437999993,145.2398706999993,,,,,,,,0,1,3.0280468000000837,None,,,,,,,,882,22,V,R,2026-02-23_12h13.42.205,VisualSearch_2526_3,,2025.2.4,2026-02-23 12h13.42.413956 +0100,
tilted.xlsx,The target is tilted.,117,35,3,4,1,1,1,1,1,1,1,1,0,0,0,0,0,7,8,117,space,7.3779192000001785,None,1,1,2.2845709999992323,None,space,2.0295908999996755,None,0,0,0,0,,,,,4,3,35,1,148.50102269999934,,,,,,,,,,,,,,,,,,,,,148.4852848999999,148.50102269999934,148.98442179999984,148.98895139999968,149.00449609999941,151.30044759999964,,,,,151.3006636,151.31592959999944,151.51591609999923,151.50022739999986,149.00449609999941,,,,,,,,1,1,2.2845709999992323,None,,,,,,,,882,22,V,R,2026-02-23_12h13.42.205,VisualSearch_2526_3,,2025.2.4,2026-02-23 12h13.42.413956 +0100,
tilted.xlsx,The target is tilted.,117,36,4,4,0,0,0,0,0,0,0,0,0,0,0,0,1,1,1,117,space,7.3779192000001785,None,0,1,0.8495480999999927,None,space,2.0295908999996755,None,0,0,0,0,,,,,4,4,36,7,151.51591609999923,,,,,,,,,,,,,,,,,,,,,151.50104069999998,151.51591609999923,151.99993939999968,152.00449659999958,152.0196260999992,152.88272179999967,,,,,152.88291039999967,152.89846259999922,153.09864369999923,153.0823907999993,152.0196260999992,,,,,,,,0,1,0.8495480999999927,None,,,,,,,,882,22,V,R,2026-02-23_12h13.42.205,VisualSearch_2526_3,,2025.2.4,2026-02-23 12h13.42.413956 +0100,
tilted.xlsx,The target is tilted.,117,37,5,4,0,1,1,1,1,1,1,1,0,0,0,0,1,7,8,117,space,7.3779192000001785,None,0,1,2.23250040000039,None,space,2.0295908999996755,None,0,0,0,0,,,,,4,5,37,5,153.09864369999923,,,,,,,,,,,,,,,,,,,,,153.0831135999997,153.09864369999923,153.58209839999927,153.58418749999964,153.59845640000003,155.84825079999973,,,,,155.84845309999946,155.86391809999986,156.0642304999992,156.04775899999913,153.59845640000003,,,,,,,,0,1,2.23250040000039,None,,,,,,,,882,22,V,R,2026-02-23_12h13.42.205,VisualSearch_2526_3,,2025.2.4,2026-02-23 12h13.42.413956 +0100,
tilted.xlsx,The target is tilted.,117,38,6,4,1,1,1,1,0,0,0,0,0,0,0,0,0,3,4,117,space,7.3779192000001785,None,0,0,1.3481033999996725,None,space,2.0295908999996755,None,0,0,0,0,,,,,4,6,38,2,156.0642304999992,,,,,,,,,,,,,,,,,,,,,156.04849019999983,156.0642304999992,156.54782929999965,156.55244529999982,156.56749339999988,157.93007099999977,,,,,157.93021829999998,157.94611879999957,158.14664989999983,158.13053629999922,156.56749339999988,,,,,,,,0,0,1.3481033999996725,None,,,,,,,,882,22,V,R,2026-02-23_12h13.42.205,VisualSearch_2526_3,,2025.2.4,2026-02-23 12h13.42.413956 +0100,
tilted.xlsx,The target is tilted.,117,39,7,4,0,1,1,1,0,0,0,0,0,0,0,0,1,3,4,117,space,7.3779192000001785,None,0,1,1.192257900000186,None,space,2.0295908999996755,None,0,0,0,0,,,,,4,7,39,6,158.14664989999983,,,,,,,,,,,,,,,,,,,,,158.13129859999935,158.14664989999983,158.63020699999925,158.63431169999967,158.64936019999914,159.84678299999996,,,,,159.84750729999996,159.86191579999922,160.06251489999977,160.04635939999935,158.64936019999914,,,,,,,,0,1,1.192257900000186,None,,,,,,,,882,22,V,R,2026-02-23_12h13.42.205,VisualSearch_2526_3,,2025.2.4,2026-02-23 12h13.42.413956 +0100,
tilted.xlsx,The target is tilted.,117,40,0,5,1,1,1,1,0,0,0,0,0,0,0,0,0,3,4,117,space,7.3779192000001785,None,1,1,1.3039253999995708,None,space,2.0295908999996755,None,0,0,0,0,,,,,5,0,40,2,160.06251489999977,,,,,,,,,,,,,,,,,,,,,160.0471061999997,160.06251489999977,160.54620479999994,160.5509005999993,160.56628659999933,161.8790315999995,,,,,161.87919559999955,161.89431279999917,162.09482409999964,162.0786808999992,160.56628659999933,,,,,,,,1,1,1.3039253999995708,None,,,,,,,,882,22,V,R,2026-02-23_12h13.42.205,VisualSearch_2526_3,,2025.2.4,2026-02-23 12h13.42.413956 +0100,
tilted.xlsx,The target is tilted.,117,41,1,5,1,0,0,0,0,0,0,0,0,0,0,0,0,0,1,117,space,7.3779192000001785,None,1,1,0.7281935000000885,None,space,2.0295908999996755,None,0,0,0,0,,,,,5,1,41,3,162.09482409999964,,,,,,,,,,,,,,,,,,,,,162.07940280000003,162.09482409999964,162.57822139999917,162.58002789999955,162.59439869999915,163.32812739999918,,,,,163.32832759999928,163.34371359999932,163.5438295999993,163.52763889999915,162.59439869999915,,,,,,,,1,1,0.7281935000000885,None,,,,,,,,882,22,V,R,2026-02-23_12h13.42.205,VisualSearch_2526_3,,2025.2.4,2026-02-23 12h13.42.413956 +0100,
tilted.xlsx,The target is tilted.,117,42,2,5,1,1,1,1,1,1,1,1,0,0,0,0,0,7,8,117,space,7.3779192000001785,None,0,0,1.6706188999996812,None,space,2.0295908999996755,None,0,0,0,0,,,,,5,2,42,1,163.5438295999993,,,,,,,,,,,,,,,,,,,,,163.52841329999956,163.5438295999993,164.02778829999988,164.03238279999914,164.04729299999963,165.7271284999997,,,,,165.72731059999933,165.74266839999927,165.94304549999924,165.92669149999983,164.04729299999963,,,,,,,,0,0,1.6706188999996812,None,,,,,,,,882,22,V,R,2026-02-23_12h13.42.205,VisualSearch_2526_3,,2025.2.4,2026-02-23 12h13.42.413956 +0100,
tilted.xlsx,The target is tilted.,117,43,3,5,0,1,1,1,0,0,0,0,0,0,0,0,1,3,4,117,space,7.3779192000001785,None,0,1,1.16137450000042,None,space,2.0295908999996755,None,0,0,0,0,,,,,5,3,43,6,165.94304549999924,,,,,,,,,,,,,,,,,,,,,165.9275392999998,165.94304549999924,166.4264530999999,166.43107819999932,166.44552909999948,167.6101595,,,,,167.61039729999993,167.6252655999997,167.82559799999945,167.8093063999995,166.44552909999948,,,,,,,,0,1,1.16137450000042,None,,,,,,,,882,22,V,R,2026-02-23_12h13.42.205,VisualSearch_2526_3,,2025.2.4,2026-02-23 12h13.42.413956 +0100,
tilted.xlsx,The target is tilted.,117,44,4,5,1,1,1,1,1,1,1,1,1,1,1,1,0,11,12,117,space,7.3779192000001785,None,0,0,2.1144889000006515,None,space,2.0295908999996755,None,0,0,0,0,,,,,5,4,44,0,167.82559799999945,,,,,,,,,,,,,,,,,,,,,167.8100661999997,167.82559799999945,168.30911619999915,168.31376289999935,168.32998699999916,170.45800729999974,,,,,170.45818769999914,170.47379519999959,170.67429059999995,170.65803349999987,168.32998699999916,,,,,,,,0,0,2.1144889000006515,None,,,,,,,,882,22,V,R,2026-02-23_12h13.42.205,VisualSearch_2526_3,,2025.2.4,2026-02-23 12h13.42.413956 +0100,
tilted.xlsx,The target is tilted.,117,45,5,5,0,1,1,1,1,1,1,1,1,1,1,1,1,11,12,117,space,7.3779192000001785,None,0,1,2.3131501999996544,None,space,2.0295908999996755,None,0,0,0,0,,,,,5,5,45,4,170.67429059999995,,,,,,,,,,,,,,,,,,,,,170.65876779999962,170.67429059999995,171.15789929999937,171.16250709999986,171.17733659999976,173.5059008999997,,,,,173.50601889999962,173.52238439999928,,173.7061266999999,171.17733659999976,,,,,,,,0,1,2.3131501999996544,None,,,,,,,,882,22,V,R,2026-02-23_12h13.42.205,VisualSearch_2526_3,,2025.2.4,2026-02-23 12h13.42.413956 +0100,
tilted.xlsx,The target is tilted.,117,46,6,5,0,1,1,1,1,1,1,1,0,0,0,0,1,7,8,117,space,7.3779192000001785,None,0,1,2.24917909999931,None,space,2.0295908999996755,None,0,0,0,0,,,,,5,6,46,5,173.72292369999923,,,,,,,,,,,,,,,,,,,,,173.70687409999937,173.72292369999923,174.20625759999984,174.21101980000003,174.2266823,176.4887794999995,,,,,176.48898119999922,176.50429199999962,176.70443159999922,176.6884915999999,,,,,,,,,0,1,2.24917909999931,None,,,,,,,,882,22,V,R,2026-02-23_12h13.42.205,VisualSearch_2526_3,,2025.2.4,2026-02-23 12h13.42.413956 +0100,
tilted.xlsx,The target is tilted.,117,47,7,5,0,0,0,0,0,0,0,0,0,0,0,0,1,1,1,117,space,7.3779192000001785,None,0,1,1.2114548000008654,None,space,2.0295908999996755,None,0,0,0,0,,,,,5,7,47,7,176.70443159999922,,,,,,,,,,,,,,,,,,,,,176.68921239999963,176.70443159999922,177.18826009999975,177.19279489999917,177.2082060999992,178.42178689999946,,,,,178.42198389999976,178.43684949999988,178.63726529999985,178.6211885999992,177.2082060999992,,,,,,,,0,1,1.2114548000008654,None,,,,,,,,882,22,V,R,2026-02-23_12h13.42.205,VisualSearch_2526_3,,2025.2.4,2026-02-23 12h13.42.413956 +0100,
tilted.xlsx,The target is tilted.,117,48,0,6,0,1,1,1,1,1,1,1,1,1,1,1,1,11,12,117,space,7.3779192000001785,None,0,1,3.6138977999999042,None,space,2.0295908999996755,None,0,0,0,0,,,,,6,0,48,4,178.63726529999985,,,,,,,,,,,,,,,,,,,,,178.62209829999938,178.63726529999985,179.1209687999999,179.12551769999936,179.1411481999994,182.76877049999985,,,,,182.76890939999976,182.78519499999948,182.98532149999937,182.9691043999992,179.1411481999994,,,,,,,,0,1,3.6138977999999042,None,,,,,,,,882,22,V,R,2026-02-23_12h13.42.205,VisualSearch_2526_3,,2025.2.4,2026-02-23 12h13.42.413956 +0100,
tilted.xlsx,The target is tilted.,117,49,1,6,0,1,1,1,0,0,0,0,0,0,0,0,1,3,4,117,space,7.3779192000001785,None,0,1,0.9520719000001918,None,space,2.0295908999996755,None,0,0,0,0,,,,,6,1,49,6,182.98532149999937,,,,,,,,,,,,,,,,,,,,,182.97003789999962,182.98532149999937,183.46902669999963,183.4734553999997,183.49198369999976,184.4529219999995,,,,,184.45315069999924,184.46746489999987,184.66753639999934,184.65142649999962,183.49198369999976,,,,,,,,0,1,0.9520719000001918,None,,,,,,,,882,22,V,R,2026-02-23_12h13.42.205,VisualSearch_2526_3,,2025.2.4,2026-02-23 12h13.42.413956 +0100,
tilted.xlsx,The target is tilted.,117,50,2,6,1,1,1,1,0,0,0,0,0,0,0,0,0,3,4,117,space,7.3779192000001785,None,1,1,1.4853967999997622,None,space,2.0295908999996755,None,0,0,0,0,,,,,6,2,50,2,184.66753639999934,,,,,,,,,,,,,,,,,,,,,184.65218079999977,184.66753639999934,185.15162799999962,185.1562817999993,185.17096669999955,186.66779699999915,,,,,186.66801159999977,186.68302569999923,186.88363739999932,186.8672749999996,185.17096669999955,,,,,,,,1,1,1.4853967999997622,None,,,,,,,,882,22,V,R,2026-02-23_12h13.42.205,VisualSearch_2526_3,,2025.2.4,2026-02-23 12h13.42.413956 +0100,
tilted.xlsx,The target is tilted.,117,51,3,6,1,1,1,1,1,1,1,1,0,0,0,0,0,7,8,117,space,7.3779192000001785,None,0,0,1.2484653999999864,None,space,2.0295908999996755,None,0,0,0,0,,,,,6,3,51,1,186.88363739999932,,,,,,,,,,,,,,,,,,,,,186.86800979999953,186.88363739999932,187.36688029999914,187.37155519999942,187.3851270999994,188.64979929999936,,,,,188.65000849999979,188.66553479999948,188.86594309999964,188.84982669999954,187.3851270999994,,,,,,,,0,0,1.2484653999999864,None,,,,,,,,882,22,V,R,2026-02-23_12h13.42.205,VisualSearch_2526_3,,2025.2.4,2026-02-23 12h13.42.413956 +0100,
tilted.xlsx,The target is tilted.,117,52,4,6,1,0,0,0,0,0,0,0,0,0,0,0,0,0,1,117,space,7.3779192000001785,None,1,1,0.8439865000000282,None,space,2.0295908999996755,None,0,0,0,0,,,,,6,4,52,3,188.86594309999964,,,,,,,,,,,,,,,,,,,,,188.85063679999985,188.86594309999964,189.34938799999964,189.35457629999928,189.3692418999999,190.21603770000002,,,,,190.21616039999935,190.23141319999922,190.4319728999999,190.41580839999915,189.3692418999999,,,,,,,,1,1,0.8439865000000282,None,,,,,,,,882,22,V,R,2026-02-23_12h13.42.205,VisualSearch_2526_3,,2025.2.4,2026-02-23 12h13.42.413956 +0100,
tilted.xlsx,The target is tilted.,117,53,5,6,0,0,0,0,0,0,0,0,0,0,0,0,1,1,1,117,space,7.3779192000001785,None,0,1,0.8332355000002281,None,space,2.0295908999996755,None,0,0,0,0,,,,,6,5,53,7,190.4319728999999,,,,,,,,,,,,,,,,,,,,,190.41654169999947,190.4319728999999,190.9156527999994,190.92015919999994,190.93127019999974,191.76574429999982,,,,,191.76596459999928,191.78074939999988,191.98128899999938,191.9649062999997,190.93127019999974,,,,,,,,0,1,0.8332355000002281,None,,,,,,,,882,22,V,R,2026-02-23_12h13.42.205,VisualSearch_2526_3,,2025.2.4,2026-02-23 12h13.42.413956 +0100,
tilted.xlsx,The target is tilted.,117,54,6,6,1,1,1,1,1,1,1,1,1,1,1,1,0,11,12,117,space,7.3779192000001785,None,0,0,2.6129469999996218,None,space,2.0295908999996755,None,0,0,0,0,,,,,6,6,54,0,191.98128899999938,,,,,,,,,,,,,,,,,,,,,191.96573739999985,191.98128899999938,192.4650474,192.46978449999915,192.48475419999977,195.11357469999984,,,,,195.1137648999993,195.12929039999926,195.32973979999952,195.3136612999997,192.48475419999977,,,,,,,,0,0,2.6129469999996218,None,,,,,,,,882,22,V,R,2026-02-23_12h13.42.205,VisualSearch_2526_3,,2025.2.4,2026-02-23 12h13.42.413956 +0100,
tilted.xlsx,The target is tilted.,117,55,7,6,0,1,1,1,1,1,1,1,0,0,0,0,1,7,8,117,space,7.3779192000001785,None,0,1,1.5737699999999677,None,space,2.0295908999996755,None,0,0,0,0,,,,,6,7,55,5,195.32973979999952,,,,,,,,,,,,,,,,,,,,,195.3143817,195.32973979999952,195.81350629999997,195.81805939999958,195.83426819999931,197.4126067999996,,,,,197.41278019999936,197.42829209999945,197.62812309999936,197.61190149999948,195.83426819999931,,,,,,,,0,1,1.5737699999999677,None,,,,,,,,882,22,V,R,2026-02-23_12h13.42.205,VisualSearch_2526_3,,2025.2.4,2026-02-23 12h13.42.413956 +0100,
tilted.xlsx,The target is tilted.,117,56,0,7,0,1,1,1,0,0,0,0,0,0,0,0,1,3,4,117,space,7.3779192000001785,None,0,1,1.2812628000001496,None,space,2.0295908999996755,None,0,0,0,0,,,,,7,0,56,6,197.62812309999936,,,,,,,,,,,,,,,,,,,,,197.6123007999995,197.62812309999936,198.11193679999997,198.11647079999966,198.1310857999997,199.4278835999994,,,,,199.42802249999932,199.44391469999937,199.64404769999965,199.6280227999996,198.1310857999997,,,,,,,,0,1,1.2812628000001496,None,,,,,,,,882,22,V,R,2026-02-23_12h13.42.205,VisualSearch_2526_3,,2025.2.4,2026-02-23 12h13.42.413956 +0100,
tilted.xlsx,The target is tilted.,117,57,1,7,1,1,1,1,0,0,0,0,0,0,0,0,0,3,4,117,space,7.3779192000001785,None,0,0,1.1449524999998175,None,space,2.0295908999996755,None,0,0,0,0,,,,,7,1,57,2,199.64404769999965,,,,,,,,,,,,,,,,,,,,,199.62873089999994,199.64404769999965,200.12692399999924,200.12857069999973,200.1434602999998,201.29405749999933,,,,,201.29422339999928,201.30969379999988,201.50989199999913,201.4938685999996,200.1434602999998,,,,,,,,0,0,1.1449524999998175,None,,,,,,,,882,22,V,R,2026-02-23_12h13.42.205,VisualSearch_2526_3,,2025.2.4,2026-02-23 12h13.42.413956 +0100,
tilted.xlsx,The target is tilted.,117,58,2,7,0,0,0,0,0,0,0,0,0,0,0,0,1,1,1,117,space,7.3779192000001785,None,0,1,1.2952522000005047,None,space,2.0295908999996755,None,0,0,0,0,,,,,7,2,58,7,201.50989199999913,,,,,,,,,,,,,,,,,,,,,201.49490409999999,201.50989199999913,201.99378479999996,201.99899209999967,202.01322639999944,203.31050589999995,,,,,203.31073109999943,203.3255326999997,203.52599379999992,203.5101212999998,202.01322639999944,,,,,,,,0,1,1.2952522000005047,None,,,,,,,,882,22,V,R,2026-02-23_12h13.42.205,VisualSearch_2526_3,,2025.2.4,2026-02-23 12h13.42.413956 +0100,
tilted.xlsx,The target is tilted.,117,59,3,7,0,1,1,1,1,1,1,1,1,1,1,1,1,11,12,117,space,7.3779192000001785,None,0,1,5.00955359999989,None,space,2.0295908999996755,None,0,0,0,0,,,,,7,3,59,4,203.52599379999992,,,,,,,,,,,,,,,,,,,,,203.51091559999986,203.52599379999992,204.00942079999913,204.0141550999997,204.03010899999936,209.0409839999993,,,,,209.0411480999992,209.05637699999988,209.25626889999967,209.24033579999923,204.03010899999936,,,,,,,,0,1,5.00955359999989,None,,,,,,,,882,22,V,R,2026-02-23_12h13.42.205,VisualSearch_2526_3,,2025.2.4,2026-02-23 12h13.42.413956 +0100,
tilted.xlsx,The target is tilted.,117,60,4,7,1,1,1,1,1,1,1,1,0,0,0,0,0,7,8,117,space,7.3779192000001785,None,0,0,1.9531981999998607,None,space,2.0295908999996755,None,0,0,0,0,,,,,7,4,60,1,209.25626889999967,,,,,,,,,,,,,,,,,,,,,209.24108329999945,209.25626889999967,209.74040579999928,209.74525119999998,209.76072639999984,211.7234069999995,,,,,211.72360069999922,211.7383866,211.93885749999936,211.92224719999922,209.76072639999984,,,,,,,,0,0,1.9531981999998607,None,,,,,,,,882,22,V,R,2026-02-23_12h13.42.205,VisualSearch_2526_3,,2025.2.4,2026-02-23 12h13.42.413956 +0100,
tilted.xlsx,The target is tilted.,117,61,5,7,1,1,1,1,1,1,1,1,1,1,1,1,0,11,12,117,space,7.3779192000001785,None,0,0,1.6397361999997884,None,space,2.0295908999996755,None,0,0,0,0,,,,,7,5,61,0,211.93885749999936,,,,,,,,,,,,,,,,,,,,,211.92302309999923,211.93885749999936,212.42225019999933,212.42682719999993,212.44182309999997,214.08897709999928,,,,,214.08917179999935,214.1040266,214.3039503,214.2880338999994,212.44182309999997,,,,,,,,0,0,1.6397361999997884,None,,,,,,,,882,22,V,R,2026-02-23_12h13.42.205,VisualSearch_2526_3,,2025.2.4,2026-02-23 12h13.42.413956 +0100,
tilted.xlsx,The target is tilted.,117,62,6,7,1,0,0,0,0,0,0,0,0,0,0,0,0,0,1,117,space,7.3779192000001785,None,1,1,0.7334427999994659,None,space,2.0295908999996755,None,0,0,0,0,,,,,7,6,62,3,214.3039503,,,,,,,,,,,,,,,,,,,,,214.28873489999933,214.3039503,214.7880284999992,214.7925841999995,214.8068233999993,215.55391099999997,,,,,215.5540492,215.5699681999995,215.77047219999986,215.75435539999944,214.8068233999993,,,,,,,,1,1,0.7334427999994659,None,,,,,,,,882,22,V,R,2026-02-23_12h13.42.205,VisualSearch_2526_3,,2025.2.4,2026-02-23 12h13.42.413956 +0100,
tilted.xlsx,The target is tilted.,117,63,7,7,0,1,1,1,1,1,1,1,0,0,0,0,1,7,8,117,space,7.3779192000001785,None,0,1,1.26089520000005,None,space,2.0295908999996755,None,0,0,0,0,,,,,7,7,63,5,215.77047219999986,,,,,,,,,,,,,,,,,,,,,215.75507469999957,215.77047219999986,216.25411639999948,216.2586414999996,216.2742630999992,217.5365673999995,,,,,217.53668749999997,217.55246999999963,217.7529268999997,217.73640579999937,216.2742630999992,,,,,,,,0,1,1.26089520000005,None,,,,,,,,882,22,V,R,2026-02-23_12h13.42.205,VisualSearch_2526_3,,2025.2.4,2026-02-23 12h13.42.413956 +0100,
tilted.xlsx,The target is tilted.,117,64,0,8,0,1,1,1,1,1,1,1,1,1,1,1,1,11,12,117,space,7.3779192000001785,None,0,1,1.9243655999998737,None,space,2.0295908999996755,None,0,0,0,0,,,,,8,0,64,4,217.7529268999997,,,,,,,,,,,,,,,,,,,,,217.73715419999917,217.7529268999997,218.23620299999948,218.2407678999998,218.25585749999937,220.18576659999962,,,,,220.18594719999965,220.20115569999962,220.40169759999935,220.3852084,218.25585749999937,,,,,,,,0,1,1.9243655999998737,None,,,,,,,,882,22,V,R,2026-02-23_12h13.42.205,VisualSearch_2526_3,,2025.2.4,2026-02-23 12h13.42.413956 +0100,
tilted.xlsx,The target is tilted.,117,65,1,8,1,1,1,1,1,1,1,1,0,0,0,0,0,7,8,117,space,7.3779192000001785,None,1,1,3.294162099999994,None,space,2.0295908999996755,None,0,0,0,0,,,,,8,1,65,1,220.40169759999935,,,,,,,,,,,,,,,,,,,,,220.3859513999996,220.40169759999935,220.88521409999976,220.88987699999961,220.90499399999953,224.20066849999967,,,,,224.20088809999925,224.21625349999977,224.41646559999936,224.40036409999993,220.90499399999953,,,,,,,,1,1,3.294162099999994,None,,,,,,,,882,22,V,R,2026-02-23_12h13.42.205,VisualSearch_2526_3,,2025.2.4,2026-02-23 12h13.42.413956 +0100,
tilted.xlsx,The target is tilted.,117,66,2,8,1,0,0,0,0,0,0,0,0,0,0,0,0,0,1,117,space,7.3779192000001785,None,1,1,0.6866115000002537,None,space,2.0295908999996755,None,0,0,0,0,,,,,8,2,66,3,224.41646559999936,,,,,,,,,,,,,,,,,,,,,224.4011434999993,224.41646559999936,224.90018619999955,224.90480349999962,224.9207155999993,225.61696389999997,,,,,225.6171758999999,225.63209889999962,225.83211669999946,225.81600589999925,224.9207155999993,,,,,,,,1,1,0.6866115000002537,None,,,,,,,,882,22,V,R,2026-02-23_12h13.42.205,VisualSearch_2526_3,,2025.2.4,2026-02-23 12h13.42.413956 +0100,
tilted.xlsx,The target is tilted.,117,67,3,8,0,1,1,1,1,1,1,1,0,0,0,0,1,7,8,117,space,7.3779192000001785,None,0,1,2.2412871000005907,None,space,2.0295908999996755,None,0,0,0,0,,,,,8,3,67,5,225.83211669999946,,,,,,,,,,,,,,,,,,,,,225.81672759999947,225.83211669999946,226.31614629999967,226.32076939999934,226.33540839999932,228.58153319999928,,,,,228.58161269999982,228.59715629999937,228.79785119999997,228.78180809999958,226.33540839999932,,,,,,,,0,1,2.2412871000005907,None,,,,,,,,882,22,V,R,2026-02-23_12h13.42.205,VisualSearch_2526_3,,2025.2.4,2026-02-23 12h13.42.413956 +0100,
tilted.xlsx,The target is tilted.,117,68,4,8,1,1,1,1,1,1,1,1,1,1,1,1,0,11,12,117,space,7.3779192000001785,None,0,0,3.4379872999998042,None,space,2.0295908999996755,None,0,0,0,0,,,,,8,4,68,0,228.79785119999997,,,,,,,,,,,,,,,,,,,,,228.78257029999986,228.79785119999997,229.2815154,229.28606579999996,229.3010979999999,232.74693409999963,,,,,232.74713749999955,232.76227949999975,232.9627456999997,232.94634619999943,229.3010979999999,,,,,,,,0,0,3.4379872999998042,None,,,,,,,,882,22,V,R,2026-02-23_12h13.42.205,VisualSearch_2526_3,,2025.2.4,2026-02-23 12h13.42.413956 +0100,
tilted.xlsx,The target is tilted.,117,69,5,8,0,1,1,1,0,0,0,0,0,0,0,0,1,3,4,117,space,7.3779192000001785,None,0,1,0.7489382000003388,None,space,2.0295908999996755,None,0,0,0,0,,,,,8,5,69,6,232.9627456999997,,,,,,,,,,,,,,,,,,,,,232.94709059999968,232.9627456999997,233.44645739999942,233.45103149999977,233.46618209999997,234.22913729999982,,,,,234.22934749999968,234.24489859999994,234.4450686,234.42909039999995,233.46618209999997,,,,,,,,0,1,0.7489382000003388,None,,,,,,,,882,22,V,R,2026-02-23_12h13.42.205,VisualSearch_2526_3,,2025.2.4,2026-02-23 12h13.42.413956 +0100,
tilted.xlsx,The target is tilted.,117,70,6,8,1,1,1,1,0,0,0,0,0,0,0,0,0,3,4,117,space,7.3779192000001785,None,1,1,1.4716839000002437,None,space,2.0295908999996755,None,0,0,0,0,,,,,8,6,70,2,234.4450686,,,,,,,,,,,,,,,,,,,,,234.4298571999998,234.4450686,234.9290091999992,234.93366459999925,234.94744319999973,236.4288087999994,,,,,236.42898629999945,236.44378309999956,236.64432339999985,236.62810769999942,234.94744319999973,,,,,,,,1,1,1.4716839000002437,None,,,,,,,,882,22,V,R,2026-02-23_12h13.42.205,VisualSearch_2526_3,,2025.2.4,2026-02-23 12h13.42.413956 +0100,
tilted.xlsx,The target is tilted.,117,71,7,8,0,0,0,0,0,0,0,0,0,0,0,0,1,1,1,117,space,7.3779192000001785,None,0,1,1.0196673000000374,None,space,2.0295908999996755,None,0,0,0,0,,,,,8,7,71,7,236.64432339999985,,,,,,,,,,,,,,,,,,,,,236.62885619999997,236.64432339999985,237.1276356999997,237.13212449999992,237.14795739999954,238.17769059999955,,,,,238.17789789999915,238.19295819999934,238.39353089999986,238.37735259999954,237.14795739999954,,,,,,,,0,1,1.0196673000000374,None,,,,,,,,882,22,V,R,2026-02-23_12h13.42.205,VisualSearch_2526_3,,2025.2.4,2026-02-23 12h13.42.413956 +0100,
tilted.xlsx,The target is tilted.,117,72,0,9,0,0,0,0,0,0,0,0,0,0,0,0,1,1,1,117,space,7.3779192000001785,None,0,1,0.8594383999998172,None,space,2.0295908999996755,None,0,0,0,0,,,,,9,0,72,7,238.39353089999986,,,,,,,,,,,,,,,,,,,,,238.3781857999993,238.39353089999986,238.8770283999993,238.8816113999992,238.89423199999965,239.76074379999955,,,,,239.76098019999972,239.77572259999943,239.97576749999917,239.9600066999992,238.89423199999965,,,,,,,,0,1,0.8594383999998172,None,,,,,,,,882,22,V,R,2026-02-23_12h13.42.205,VisualSearch_2526_3,,2025.2.4,2026-02-23 12h13.42.413956 +0100,
tilted.xlsx,The target is tilted.,117,73,1,9,1,1,1,1,1,1,1,1,1,1,1,1,0,11,12,117,space,7.3779192000001785,None,1,1,1.1403477000003477,None,space,2.0295908999996755,None,0,0,0,0,,,,,9,1,73,0,239.97576749999917,,,,,,,,,,,,,,,,,,,,,239.9607176999998,239.97576749999917,240.4597320999992,240.4642802999997,240.480047,241.62563469999986,,,,,241.62574179999956,241.6413419999999,241.84190299999955,241.82586749999973,240.480047,,,,,,,,1,1,1.1403477000003477,None,,,,,,,,882,22,V,R,2026-02-23_12h13.42.205,VisualSearch_2526_3,,2025.2.4,2026-02-23 12h13.42.413956 +0100,
tilted.xlsx,The target is tilted.,117,74,2,9,1,0,0,0,0,0,0,0,0,0,0,0,0,0,1,117,space,7.3779192000001785,None,1,1,0.6791194999996151,None,space,2.0295908999996755,None,0,0,0,0,,,,,9,2,74,3,241.84190299999955,,,,,,,,,,,,,,,,,,,,,241.82658329999958,241.84190299999955,242.32572319999963,242.3301894999995,242.3455156,243.04178089999914,,,,,243.04198089999954,243.0575457999994,243.2577900999995,243.24141529999997,242.3455156,,,,,,,,1,1,0.6791194999996151,None,,,,,,,,882,22,V,R,2026-02-23_12h13.42.205,VisualSearch_2526_3,,2025.2.4,2026-02-23 12h13.42.413956 +0100,
tilted.xlsx,The target is tilted.,117,75,3,9,0,1,1,1,1,1,1,1,0,0,0,0,1,7,8,117,space,7.3779192000001785,None,0,1,2.620261500000197,None,space,2.0295908999996755,None,0,0,0,0,,,,,9,3,75,5,243.2577900999995,,,,,,,,,,,,,,,,,,,,,243.24214109999957,243.2577900999995,243.7415977999999,243.7461358999999,243.7610752999999,246.39106619999984,,,,,246.39131049999924,246.40582209999957,246.60591320000003,246.5898305999999,243.7610752999999,,,,,,,,0,1,2.620261500000197,None,,,,,,,,882,22,V,R,2026-02-23_12h13.42.205,VisualSearch_2526_3,,2025.2.4,2026-02-23 12h13.42.413956 +0100,
tilted.xlsx,The target is tilted.,117,76,4,9,1,1,1,1,0,0,0,0,0,0,0,0,0,3,4,117,space,7.3779192000001785,None,1,1,2.39567260000058,None,space,2.0295908999996755,None,0,0,0,0,,,,,9,4,76,2,246.60591320000003,,,,,,,,,,,,,,,,,,,,,246.5901832999998,246.60591320000003,247.09002019999934,247.0945256999994,247.11030759999994,249.52263459999995,,,,,249.52280999999948,249.53792929999963,249.7383222999997,249.7223629,247.11030759999994,,,,,,,,1,1,2.39567260000058,None,,,,,,,,882,22,V,R,2026-02-23_12h13.42.205,VisualSearch_2526_3,,2025.2.4,2026-02-23 12h13.42.413956 +0100,
tilted.xlsx,The target is tilted.,117,77,5,9,0,1,1,1,1,1,1,1,1,1,1,1,1,11,12,117,space,7.3779192000001785,None,0,1,1.9187336000004507,None,space,2.0295908999996755,None,0,0,0,0,,,,,9,5,77,4,249.7383222999997,,,,,,,,,,,,,,,,,,,,,249.72309549999954,249.7383222999997,250.22208579999915,250.22752299999956,250.24266649999936,252.1711934999994,,,,,252.1713196999999,252.18664649999937,252.38713139999982,252.37094409999918,250.24266649999936,,,,,,,,0,1,1.9187336000004507,None,,,,,,,,882,22,V,R,2026-02-23_12h13.42.205,VisualSearch_2526_3,,2025.2.4,2026-02-23 12h13.42.413956 +0100,
tilted.xlsx,The target is tilted.,117,78,6,9,0,1,1,1,0,0,0,0,0,0,0,0,1,3,4,117,space,7.3779192000001785,None,0,1,0.7428563000003123,None,space,2.0295908999996755,None,0,0,0,0,,,,,9,6,78,6,252.38713139999982,,,,,,,,,,,,,,,,,,,,,252.37168089999977,252.38713139999982,252.8708689999994,252.87552949999917,252.8904161999999,253.63741089999985,,,,,253.63760589999947,253.65269689999968,253.85292339999978,253.83675129999938,252.8904161999999,,,,,,,,0,1,0.7428563000003123,None,,,,,,,,882,22,V,R,2026-02-23_12h13.42.205,VisualSearch_2526_3,,2025.2.4,2026-02-23 12h13.42.413956 +0100,
tilted.xlsx,The target is tilted.,117,79,7,9,1,1,1,1,1,1,1,1,0,0,0,0,0,7,8,117,space,7.3779192000001785,None,0,0,1.519695999999385,None,space,2.0295908999996755,None,0,0,0,0,,,,,9,7,79,1,253.85292339999978,,,,,,,,,,,,,,,,,,,,,253.83748109999942,253.85292339999978,254.3364671999998,254.34115029999975,254.3560682999996,255.8862337999999,,,,,255.88637010000002,255.9015357999997,256.1021695999998,256.0860933999993,254.3560682999996,,,,,,,,0,0,1.519695999999385,None,,,,,,,,882,22,V,R,2026-02-23_12h13.42.205,VisualSearch_2526_3,,2025.2.4,2026-02-23 12h13.42.413956 +0100,
tilted.xlsx,The target is tilted.,117,80,0,10,0,1,1,1,1,1,1,1,1,1,1,1,1,11,12,117,space,7.3779192000001785,None,0,1,2.595989599999484,None,space,2.0295908999996755,None,0,0,0,0,,,,,10,0,80,4,256.1021695999998,,,,,,,,,,,,,,,,,,,,,256.0868096999993,256.1021695999998,256.5857957999997,256.5904378999994,256.6028370999993,259.20190139999977,,,,,259.20209799999975,259.21689889999925,259.4172645999997,259.40074189999996,256.6028370999993,,,,,,,,0,1,2.595989599999484,None,,,,,,,,882,22,V,R,2026-02-23_12h13.42.205,VisualSearch_2526_3,,2025.2.4,2026-02-23 12h13.42.413956 +0100,
tilted.xlsx,The target is tilted.,117,81,1,10,1,1,1,1,1,1,1,1,1,1,1,1,0,11,12,117,space,7.3779192000001785,None,1,1,0.8482183000005534,None,space,2.0295908999996755,None,0,0,0,0,,,,,10,1,81,0,259.4172645999997,,,,,,,,,,,,,,,,,,,,,259.40140969999993,259.4172645999997,259.90113419999943,259.9062832999998,259.9215805999993,260.7834426999998,,,,,260.7835796999998,260.7994815999991,260.9994926999998,260.9834929999997,259.9215805999993,,,,,,,,1,1,0.8482183000005534,None,,,,,,,,882,22,V,R,2026-02-23_12h13.42.205,VisualSearch_2526_3,,2025.2.4,2026-02-23 12h13.42.413956 +0100,
tilted.xlsx,The target is tilted.,117,82,2,10,1,1,1,1,0,0,0,0,0,0,0,0,0,3,4,117,space,7.3779192000001785,None,0,0,0.8163469000000987,None,space,2.0295908999996755,None,0,0,0,0,,,,,10,2,82,2,260.9994926999998,,,,,,,,,,,,,,,,,,,,,260.9841944,260.9994926999998,261.48320669999976,261.48758089999956,261.49959149999995,262.3333152999994,,,,,262.33350809999956,262.34875379999994,262.5490372999993,262.53343139999924,261.49959149999995,,,,,,,,0,0,0.8163469000000987,None,,,,,,,,882,22,V,R,2026-02-23_12h13.42.205,VisualSearch_2526_3,,2025.2.4,2026-02-23 12h13.42.413956 +0100,
tilted.xlsx,The target is tilted.,117,83,3,10,1,0,0,0,0,0,0,0,0,0,0,0,0,0,1,117,space,7.3779192000001785,None,0,0,0.5166896000000634,None,space,2.0295908999996755,None,0,0,0,0,,,,,10,3,83,3,262.5490372999993,,,,,,,,,,,,,,,,,,,,,262.5344235999992,262.5490372999993,263.0324946999999,263.0370037999992,263.0515564999996,263.5820976999994,,,,,263.5821662999997,263.5980141,263.79863879999994,263.7823773,263.0515564999996,,,,,,,,0,0,0.5166896000000634,None,,,,,,,,882,22,V,R,2026-02-23_12h13.42.205,VisualSearch_2526_3,,2025.2.4,2026-02-23 12h13.42.413956 +0100,
tilted.xlsx,The target is tilted.,117,84,4,10,0,0,0,0,0,0,0,0,0,0,0,0,1,1,1,117,space,7.3779192000001785,None,0,1,0.7753133999995043,None,space,2.0295908999996755,None,0,0,0,0,,,,,10,4,84,7,263.79863879999994,,,,,,,,,,,,,,,,,,,,,263.7830989999993,263.79863879999994,264.2822963999997,264.28677139999945,264.30115939999996,265.08243609999954,,,,,265.08273309999913,265.0976665999997,265.29744349999964,265.2813372999999,264.30115939999996,,,,,,,,0,1,0.7753133999995043,None,,,,,,,,882,22,V,R,2026-02-23_12h13.42.205,VisualSearch_2526_3,,2025.2.4,2026-02-23 12h13.42.413956 +0100,
tilted.xlsx,The target is tilted.,117,85,5,10,0,1,1,1,0,0,0,0,0,0,0,0,1,3,4,117,space,7.3779192000001785,None,0,1,1.2319193000002997,None,space,2.0295908999996755,None,0,0,0,0,,,,,10,5,85,6,265.29744349999964,,,,,,,,,,,,,,,,,,,,,265.28173659999993,265.29744349999964,265.78145399999994,265.7860979999996,265.79788869999993,267.0316942999998,,,,,267.0319092999998,267.04695569999967,267.2470476999997,267.2309783999999,265.79788869999993,,,,,,,,0,1,1.2319193000002997,None,,,,,,,,882,22,V,R,2026-02-23_12h13.42.205,VisualSearch_2526_3,,2025.2.4,2026-02-23 12h13.42.413956 +0100,
tilted.xlsx,The target is tilted.,117,86,6,10,0,1,1,1,1,1,1,1,0,0,0,0,1,7,8,117,space,7.3779192000001785,None,0,1,3.042730600000141,None,space,2.0295908999996755,None,0,0,0,0,,,,,10,6,86,5,267.2470476999997,,,,,,,,,,,,,,,,,,,,,267.23172069999964,267.2470476999997,267.73074180000003,267.73523059999934,267.7504210999996,270.7959773999992,,,,,270.7961636,270.8121741999994,271.0120324999998,270.99612139999954,267.7504210999996,,,,,,,,0,1,3.042730600000141,None,,,,,,,,882,22,V,R,2026-02-23_12h13.42.205,VisualSearch_2526_3,,2025.2.4,2026-02-23 12h13.42.413956 +0100,
tilted.xlsx,The target is tilted.,117,87,7,10,1,1,1,1,1,1,1,1,0,0,0,0,0,7,8,117,space,7.3779192000001785,None,1,1,1.7407622999999148,None,space,2.0295908999996755,None,0,0,0,0,,,,,10,7,87,1,271.0120324999998,,,,,,,,,,,,,,,,,,,,,270.9968403999992,271.0120324999998,271.49579859999994,271.5002853999995,271.51524169999993,273.26195239999925,,,,,273.2621350999998,273.2774572999997,273.4775734999994,273.4617381999997,271.51524169999993,,,,,,,,1,1,1.7407622999999148,None,,,,,,,,882,22,V,R,2026-02-23_12h13.42.205,VisualSearch_2526_3,,2025.2.4,2026-02-23 12h13.42.413956 +0100,
tilted.xlsx,The target is tilted.,117,88,0,11,0,0,0,0,0,0,0,0,0,0,0,0,1,1,1,117,space,7.3779192000001785,None,0,1,1.000533400000677,None,space,2.0295908999996755,None,0,0,0,0,,,,,11,0,88,7,273.4775734999994,,,,,,,,,,,,,,,,,,,,,273.4625624999999,273.4775734999994,273.96122579999974,273.96577549999984,273.98098239999945,274.99412139999913,,,,,274.9942805999999,275.0099811,275.21011980000003,275.1940347999998,273.98098239999945,,,,,,,,0,1,1.000533400000677,None,,,,,,,,882,22,V,R,2026-02-23_12h13.42.205,VisualSearch_2526_3,,2025.2.4,2026-02-23 12h13.42.413956 +0100,
tilted.xlsx,The target is tilted.,117,89,1,11,1,1,1,1,0,0,0,0,0,0,0,0,0,3,4,117,space,7.3779192000001785,None,0,0,1.0318717999998626,None,space,2.0295908999996755,None,0,0,0,0,,,,,11,1,89,2,275.21011980000003,,,,,,,,,,,,,,,,,,,,,275.19477389999975,275.21011980000003,275.69392379999954,275.6985984999992,275.71409779999976,276.7605461999992,,,,,276.76074359999984,276.7759238999997,276.9755686999997,276.9595114999993,275.71409779999976,,,,,,,,0,0,1.0318717999998626,None,,,,,,,,882,22,V,R,2026-02-23_12h13.42.205,VisualSearch_2526_3,,2025.2.4,2026-02-23 12h13.42.413956 +0100,
tilted.xlsx,The target is tilted.,117,90,2,11,0,1,1,1,1,1,1,1,0,0,0,0,1,7,8,117,space,7.3779192000001785,None,0,1,2.139897199999723,None,space,2.0295908999996755,None,0,0,0,0,,,,,11,2,90,5,276.9755686999997,,,,,,,,,,,,,,,,,,,,,276.96027779999986,276.9755686999997,277.4595956999992,277.46419309999965,277.48027489999913,279.6257336999997,,,,,279.62589469999966,279.6411570999999,279.8413914999992,279.82529709999926,277.48027489999913,,,,,,,,0,1,2.139897199999723,None,,,,,,,,882,22,V,R,2026-02-23_12h13.42.205,VisualSearch_2526_3,,2025.2.4,2026-02-23 12h13.42.413956 +0100,
tilted.xlsx,The target is tilted.,117,91,3,11,0,1,1,1,0,0,0,0,0,0,0,0,1,3,4,117,space,7.3779192000001785,None,0,1,0.7975163000000975,None,space,2.0295908999996755,None,0,0,0,0,,,,,11,3,91,6,279.8413914999992,,,,,,,,,,,,,,,,,,,,,279.82601799999975,279.8413914999992,280.3250690999994,280.3294154999994,280.3408795999994,281.1417073999992,,,,,281.1419032999993,281.1572661,281.35696559999997,281.3411877999997,280.3408795999994,,,,,,,,0,1,0.7975163000000975,None,,,,,,,,882,22,V,R,2026-02-23_12h13.42.205,VisualSearch_2526_3,,2025.2.4,2026-02-23 12h13.42.413956 +0100,
tilted.xlsx,The target is tilted.,117,92,4,11,1,1,1,1,1,1,1,1,0,0,0,0,0,7,8,117,space,7.3779192000001785,None,0,0,1.6460018999996464,None,space,2.0295908999996755,None,0,0,0,0,,,,,11,4,92,1,281.35696559999997,,,,,,,,,,,,,,,,,,,,,281.3419678,281.35696559999997,281.84099849999984,281.84537999999975,281.86057339999934,283.52402639999946,,,,,283.5242015999993,283.5396355999992,283.7395915999996,283.72315759999947,281.86057339999934,,,,,,,,0,0,1.6460018999996464,None,,,,,,,,882,22,V,R,2026-02-23_12h13.42.205,VisualSearch_2526_3,,2025.2.4,2026-02-23 12h13.42.413956 +0100,
tilted.xlsx,The target is tilted.,117,93,5,11,0,1,1,1,1,1,1,1,1,1,1,1,1,11,12,117,space,7.3779192000001785,None,0,1,2.568305699999655,None,space,2.0295908999996755,None,0,0,0,0,,,,,11,5,93,4,283.7395915999996,,,,,,,,,,,,,,,,,,,,,283.7238719999996,283.7395915999996,284.2232471999996,284.2276084999994,284.2454324,286.8223903999997,,,,,286.82260529999985,286.83805829999983,287.03804649999984,287.0220411999999,284.2454324,,,,,,,,0,1,2.568305699999655,None,,,,,,,,882,22,V,R,2026-02-23_12h13.42.205,VisualSearch_2526_3,,2025.2.4,2026-02-23 12h13.42.413956 +0100,
tilted.xlsx,The target is tilted.,117,94,6,11,1,1,1,1,1,1,1,1,1,1,1,1,0,11,12,117,space,7.3779192000001785,None,0,0,2.9301869000000806,None,space,2.0295908999996755,None,0,0,0,0,,,,,11,6,94,0,287.03804649999984,,,,,,,,,,,,,,,,,,,,,287.0227765999998,287.03804649999984,287.5218118999992,287.5263505999992,287.5411977999993,290.48743939999986,,,,,290.4876517999992,290.5032520999994,290.7025492999992,290.68665769999916,287.5411977999993,,,,,,,,0,0,2.9301869000000806,None,,,,,,,,882,22,V,R,2026-02-23_12h13.42.205,VisualSearch_2526_3,,2025.2.4,2026-02-23 12h13.42.413956 +0100,
tilted.xlsx,The target is tilted.,117,95,7,11,1,0,0,0,0,0,0,0,0,0,0,0,0,0,1,117,space,7.3779192000001785,None,1,1,0.8939703000005466,None,space,2.0295908999996755,None,0,0,0,0,,,,,11,7,95,3,290.7025492999992,,,,,,,,,,,,,,,,,,,,,290.6873737999995,290.7025492999992,291.1864423999996,291.19094829999995,291.20511179999994,292.10288969999965,,,,,292.10306409999976,292.11913059999915,292.3189177999993,292.3029091999997,291.20511179999994,,,,,,,,1,1,0.8939703000005466,None,,,,,,,,882,22,V,R,2026-02-23_12h13.42.205,VisualSearch_2526_3,,2025.2.4,2026-02-23 12h13.42.413956 +0100,
tilted.xlsx,The target is tilted.,117,96,0,12,1,1,1,1,1,1,1,1,1,1,1,1,0,11,12,117,space,7.3779192000001785,None,0,0,1.8535861999998815,None,space,2.0295908999996755,None,0,0,0,0,,,,,12,0,96,0,292.3189177999993,,,,,,,,,,,,,,,,,,,,,292.3036044999999,292.3189177999993,292.8027506999997,292.80730009999934,292.82271349999974,294.68575879999935,,,,,294.6859532999997,294.7013356999996,294.9009053,294.8849468999997,292.82271349999974,,,,,,,,0,0,1.8535861999998815,None,,,,,,,,882,22,V,R,2026-02-23_12h13.42.205,VisualSearch_2526_3,,2025.2.4,2026-02-23 12h13.42.413956 +0100,
tilted.xlsx,The target is tilted.,117,97,1,12,1,1,1,1,0,0,0,0,0,0,0,0,0,3,4,117,space,7.3779192000001785,None,0,0,1.1370550999999978,None,space,2.0295908999996755,None,0,0,0,0,,,,,12,1,97,2,294.9009053,,,,,,,,,,,,,,,,,,,,,294.8856831999992,294.9009053,295.3849640999997,295.3894685999994,295.4054151,296.5516396999992,,,,,296.5518816999993,296.56704999999965,296.7666223999995,296.7507201999997,295.4054151,,,,,,,,0,0,1.1370550999999978,None,,,,,,,,882,22,V,R,2026-02-23_12h13.42.205,VisualSearch_2526_3,,2025.2.4,2026-02-23 12h13.42.413956 +0100,
tilted.xlsx,The target is tilted.,117,98,2,12,0,0,0,0,0,0,0,0,0,0,0,0,1,1,1,117,space,7.3779192000001785,None,0,1,0.7635982000001604,None,space,2.0295908999996755,None,0,0,0,0,,,,,12,2,98,7,296.7666223999995,,,,,,,,,,,,,,,,,,,,,296.75145599999996,296.7666223999995,297.2506674999995,297.2551819999999,297.27019759999985,298.0508934999998,,,,,298.0510884999994,298.0662539999994,298.26603779999914,298.2498188999998,297.27019759999985,,,,,,,,0,1,0.7635982000001604,None,,,,,,,,882,22,V,R,2026-02-23_12h13.42.205,VisualSearch_2526_3,,2025.2.4,2026-02-23 12h13.42.413956 +0100,
tilted.xlsx,The target is tilted.,117,99,3,12,0,1,1,1,0,0,0,0,0,0,0,0,1,3,4,117,space,7.3779192000001785,None,0,1,1.1043979000005493,None,space,2.0295908999996755,None,0,0,0,0,,,,,12,3,99,6,298.26603779999914,,,,,,,,,,,,,,,,,,,,,298.25053749999915,298.26603779999914,298.74990609999986,298.7544663999997,298.7700714999992,299.8834128999997,,,,,299.8836064999996,299.89895499999966,300.09866339999917,300.08243649999986,298.7700714999992,,,,,,,,0,1,1.1043979000005493,None,,,,,,,,882,22,V,R,2026-02-23_12h13.42.205,VisualSearch_2526_3,,2025.2.4,2026-02-23 12h13.42.413956 +0100,
tilted.xlsx,The target is tilted.,117,100,4,12,1,1,1,1,1,1,1,1,0,0,0,0,0,7,8,117,space,7.3779192000001785,None,1,1,1.5001996999999392,None,space,2.0295908999996755,None,0,0,0,0,,,,,12,4,100,1,300.09866339999917,,,,,,,,,,,,,,,,,,,,,300.0831705999999,300.09866339999917,300.58159589999923,300.58350319999954,300.59835849999945,302.11454649999996,,,,,302.1146334999994,302.13093669999944,302.3311759999997,302.31492979999985,300.59835849999945,,,,,,,,1,1,1.5001996999999392,None,,,,,,,,882,22,V,R,2026-02-23_12h13.42.205,VisualSearch_2526_3,,2025.2.4,2026-02-23 12h13.42.413956 +0100,
tilted.xlsx,The target is tilted.,117,101,5,12,1,0,0,0,0,0,0,0,0,0,0,0,0,0,1,117,space,7.3779192000001785,None,1,1,0.6419007000004058,None,space,2.0295908999996755,None,0,0,0,0,,,,,12,5,101,3,302.3311759999997,,,,,,,,,,,,,,,,,,,,,302.31561389999933,302.3311759999997,302.81495279999945,302.81949949999944,302.8349607,303.48075869999957,,,,,303.4808555999998,303.49678869999934,303.69715649999944,303.68106519999947,302.8349607,,,,,,,,1,1,0.6419007000004058,None,,,,,,,,882,22,V,R,2026-02-23_12h13.42.205,VisualSearch_2526_3,,2025.2.4,2026-02-23 12h13.42.413956 +0100,
tilted.xlsx,The target is tilted.,117,102,6,12,0,1,1,1,1,1,1,1,0,0,0,0,1,7,8,117,space,7.3779192000001785,None,0,1,2.94535839999935,None,space,2.0295908999996755,None,0,0,0,0,,,,,12,6,102,5,303.69715649999944,,,,,,,,,,,,,,,,,,,,,303.68179579999924,303.69715649999944,304.18051249999917,304.1850010999997,304.20016939999914,307.1473199999991,,,,,307.14761459999954,307.16207289999966,307.3622482999999,307.3461447999998,304.20016939999914,,,,,,,,0,1,2.94535839999935,None,,,,,,,,882,22,V,R,2026-02-23_12h13.42.205,VisualSearch_2526_3,,2025.2.4,2026-02-23 12h13.42.413956 +0100,
tilted.xlsx,The target is tilted.,117,103,7,12,0,1,1,1,1,1,1,1,1,1,1,1,1,11,12,117,space,7.3779192000001785,None,0,1,3.5211212000003798,None,space,2.0295908999996755,None,0,0,0,0,,,,,12,7,103,4,307.3622482999999,,,,,,,,,,,,,,,,,,,,,307.34686469999997,307.3622482999999,307.84543759999997,307.84993079999913,307.8644829999994,311.39430379999976,,,,,311.3944576999993,311.4100150999993,311.6102940999999,311.5942187999999,307.8644829999994,,,,,,,,0,1,3.5211212000003798,None,,,,,,,,882,22,V,R,2026-02-23_12h13.42.205,VisualSearch_2526_3,,2025.2.4,2026-02-23 12h13.42.413956 +0100,
tilted.xlsx,The target is tilted.,117,104,0,13,1,1,1,1,1,1,1,1,0,0,0,0,0,7,8,117,space,7.3779192000001785,None,1,1,2.340158599999995,None,space,2.0295908999996755,None,0,0,0,0,,,,,13,0,104,1,311.6102940999999,,,,,,,,,,,,,,,,,,,,,311.5949146999992,311.6102940999999,312.09356599999956,312.0980886999996,312.1137222999996,314.4601180999998,,,,,314.4603174999993,314.4752386,314.6756213999997,314.6594028999998,312.1137222999996,,,,,,,,1,1,2.340158599999995,None,,,,,,,,882,22,V,R,2026-02-23_12h13.42.205,VisualSearch_2526_3,,2025.2.4,2026-02-23 12h13.42.413956 +0100,
tilted.xlsx,The target is tilted.,117,105,1,13,0,1,1,1,0,0,0,0,0,0,0,0,1,3,4,117,space,7.3779192000001785,None,0,1,0.8414574000007633,None,space,2.0295908999996755,None,0,0,0,0,,,,,13,1,105,6,314.6756213999997,,,,,,,,,,,,,,,,,,,,,314.66016729999956,314.6756213999997,315.1591774999997,315.16370579999966,315.17897339999945,316.0260088999994,,,,,316.02621219999946,316.0412069999993,316.2411485999992,316.2254433999997,315.17897339999945,,,,,,,,0,1,0.8414574000007633,None,,,,,,,,882,22,V,R,2026-02-23_12h13.42.205,VisualSearch_2526_3,,2025.2.4,2026-02-23 12h13.42.413956 +0100,
tilted.xlsx,The target is tilted.,117,106,2,13,0,0,0,0,0,0,0,0,0,0,0,0,1,1,1,117,space,7.3779192000001785,None,0,1,0.7653260000006412,None,space,2.0295908999996755,None,0,0,0,0,,,,,13,2,106,7,316.2411485999992,,,,,,,,,,,,,,,,,,,,,316.2261632999998,316.2411485999992,316.72507589999987,316.7295918,316.74521989999994,317.5249466999994,,,,,317.52508839999973,317.5407460999995,317.74087359999976,317.7247232999998,316.74521989999994,,,,,,,,0,1,0.7653260000006412,None,,,,,,,,882,22,V,R,2026-02-23_12h13.42.205,VisualSearch_2526_3,,2025.2.4,2026-02-23 12h13.42.413956 +0100,
tilted.xlsx,The target is tilted.,117,107,3,13,0,1,1,1,1,1,1,1,0,0,0,0,1,7,8,117,space,7.3779192000001785,None,0,1,1.9156948999998349,None,space,2.0295908999996755,None,0,0,0,0,,,,,13,3,107,5,317.74087359999976,,,,,,,,,,,,,,,,,,,,,317.72547439999926,317.74087359999976,318.2244430999999,318.22893309999927,318.2450915999998,320.1742255999998,,,,,320.17442199999914,320.18932719999975,320.38967129999946,320.3734706999994,318.2450915999998,,,,,,,,0,1,1.9156948999998349,None,,,,,,,,882,22,V,R,2026-02-23_12h13.42.205,VisualSearch_2526_3,,2025.2.4,2026-02-23 12h13.42.413956 +0100,
tilted.xlsx,The target is tilted.,117,108,4,13,1,1,1,1,0,0,0,0,0,0,0,0,0,3,4,117,space,7.3779192000001785,None,0,0,2.2413001999993867,None,space,2.0295908999996755,None,0,0,0,0,,,,,13,4,108,2,320.38967129999946,,,,,,,,,,,,,,,,,,,,,320.37419669999963,320.38967129999946,320.87332179999976,320.8777550999994,320.8938234999996,323.13883109999915,,,,,323.13902679999956,323.15497719999985,323.3550452999998,323.3388036999995,320.8938234999996,,,,,,,,0,0,2.2413001999993867,None,,,,,,,,882,22,V,R,2026-02-23_12h13.42.205,VisualSearch_2526_3,,2025.2.4,2026-02-23 12h13.42.413956 +0100,
tilted.xlsx,The target is tilted.,117,109,5,13,1,1,1,1,1,1,1,1,1,1,1,1,0,11,12,117,space,7.3779192000001785,None,0,0,3.4688393000005817,None,space,2.0295908999996755,None,0,0,0,0,,,,,13,5,109,0,323.3550452999998,,,,,,,,,,,,,,,,,,,,,323.33954429999994,323.3550452999998,323.8381800999996,323.84261549999974,323.85760759999994,327.3366963999997,,,,,327.3368142999998,327.3529882999992,327.5530712,327.53656149999915,323.85760759999994,,,,,,,,0,0,3.4688393000005817,None,,,,,,,,882,22,V,R,2026-02-23_12h13.42.205,VisualSearch_2526_3,,2025.2.4,2026-02-23 12h13.42.413956 +0100,
tilted.xlsx,The target is tilted.,117,110,6,13,1,0,0,0,0,0,0,0,0,0,0,0,0,0,1,117,space,7.3779192000001785,None,1,1,1.0965421000000788,None,space,2.0295908999996755,None,0,0,0,0,,,,,13,6,110,3,327.5530712,,,,,,,,,,,,,,,,,,,,,327.5373108999993,327.5530712,328.03636369999913,328.0408519999992,328.0554655999995,329.15302169999995,,,,,329.1531793999993,329.1689499999993,329.36891449999985,329.3527265999992,328.0554655999995,,,,,,,,1,1,1.0965421000000788,None,,,,,,,,882,22,V,R,2026-02-23_12h13.42.205,VisualSearch_2526_3,,2025.2.4,2026-02-23 12h13.42.413956 +0100,
tilted.xlsx,The target is tilted.,117,111,7,13,0,1,1,1,1,1,1,1,1,1,1,1,1,11,12,117,space,7.3779192000001785,None,0,1,3.435533700000633,None,space,2.0295908999996755,None,0,0,0,0,,,,,13,7,111,4,329.36891449999985,,,,,,,,,,,,,,,,,,,,,329.3534714999996,329.36891449999985,329.85263209999994,329.8571329999995,329.8717311999999,333.3181872999994,,,,,333.31839599999967,333.3337197999999,333.53372879999915,333.5174640999994,329.8717311999999,,,,,,,,0,1,3.435533700000633,None,,,,,,,,882,22,V,R,2026-02-23_12h13.42.205,VisualSearch_2526_3,,2025.2.4,2026-02-23 12h13.42.413956 +0100,
tilted.xlsx,The target is tilted.,117,112,0,14,0,1,1,1,1,1,1,1,1,1,1,1,1,11,12,117,space,7.3779192000001785,None,0,1,2.9882535999995525,None,space,2.0295908999996755,None,0,0,0,0,,,,,14,0,112,4,333.53372879999915,,,,,,,,,,,,,,,,,,,,,333.5182219999997,333.53372879999915,334.0169647999992,334.0214619999997,334.03326599999946,337.03238169999986,,,,,337.03252819999943,337.0486960999997,337.24865149999914,337.2320293999992,334.03326599999946,,,,,,,,0,1,2.9882535999995525,None,,,,,,,,882,22,V,R,2026-02-23_12h13.42.205,VisualSearch_2526_3,,2025.2.4,2026-02-23 12h13.42.413956 +0100,
tilted.xlsx,The target is tilted.,117,113,1,14,1,1,1,1,1,1,1,1,0,0,0,0,0,7,8,117,space,7.3779192000001785,None,1,1,2.1818058999997447,None,space,2.0295908999996755,None,0,0,0,0,,,,,14,1,113,1,337.24865149999914,,,,,,,,,,,,,,,,,,,,,337.23277439999947,337.24865149999914,337.7323000999995,337.7367953999992,337.7516582999997,339.9482961999993,,,,,339.94847429999936,339.9636086999999,340.16394109999965,340.1477849999992,337.7516582999997,,,,,,,,1,1,2.1818058999997447,None,,,,,,,,882,22,V,R,2026-02-23_12h13.42.205,VisualSearch_2526_3,,2025.2.4,2026-02-23 12h13.42.413956 +0100,
tilted.xlsx,The target is tilted.,117,114,2,14,1,1,1,1,0,0,0,0,0,0,0,0,0,3,4,117,space,7.3779192000001785,None,0,0,1.326091699999779,None,space,2.0295908999996755,None,0,0,0,0,,,,,14,2,114,2,340.16394109999965,,,,,,,,,,,,,,,,,,,,,340.1485569999995,340.16394109999965,340.6478002999993,340.6528349,340.6681454999998,341.99716119999994,,,,,341.99733899999956,342.0132429999994,342.21313309999914,342.1966163999996,340.6681454999998,,,,,,,,0,0,1.326091699999779,None,,,,,,,,882,22,V,R,2026-02-23_12h13.42.205,VisualSearch_2526_3,,2025.2.4,2026-02-23 12h13.42.413956 +0100,
tilted.xlsx,The target is tilted.,117,115,3,14,0,0,0,0,0,0,0,0,0,0,0,0,1,1,1,117,space,7.3779192000001785,None,0,1,0.8538805999996839,None,space,2.0295908999996755,None,0,0,0,0,,,,,14,3,115,7,342.21313309999914,,,,,,,,,,,,,,,,,,,,,342.19733969999925,342.21313309999914,342.6964186999994,342.70099179999943,342.7156331999995,343.57938549999926,,,,,343.57952119999936,343.59560299999976,343.7957889999998,343.7797673999994,342.7156331999995,,,,,,,,0,1,0.8538805999996839,None,,,,,,,,882,22,V,R,2026-02-23_12h13.42.205,VisualSearch_2526_3,,2025.2.4,2026-02-23 12h13.42.413956 +0100,
tilted.xlsx,The target is tilted.,117,116,4,14,0,1,1,1,0,0,0,0,0,0,0,0,1,3,4,117,space,7.3779192000001785,None,0,1,1.155438600000707,None,space,2.0295908999996755,None,0,0,0,0,,,,,14,4,116,6,343.7957889999998,,,,,,,,,,,,,,,,,,,,,343.7804880999993,343.7957889999998,344.2792492999997,344.28381809999973,344.2983136999992,345.4632580999996,,,,,345.46345399999973,345.4779439999993,345.67817449999984,345.6620647999998,344.2983136999992,,,,,,,,0,1,1.155438600000707,None,,,,,,,,882,22,V,R,2026-02-23_12h13.42.205,VisualSearch_2526_3,,2025.2.4,2026-02-23 12h13.42.413956 +0100,
tilted.xlsx,The target is tilted.,117,117,5,14,1,1,1,1,1,1,1,1,1,1,1,1,0,11,12,117,space,7.3779192000001785,None,1,1,1.6767090000003009,None,space,2.0295908999996755,None,0,0,0,0,,,,,14,5,117,0,345.67817449999984,,,,,,,,,,,,,,,,,,,,,345.66282749999937,345.67817449999984,346.16178669999954,346.1662486999994,346.1812726999997,347.86124369999925,,,,,347.86143859999993,347.8770962999997,348.0767068999994,348.0608754999994,346.1812726999997,,,,,,,,1,1,1.6767090000003009,None,,,,,,,,882,22,V,R,2026-02-23_12h13.42.205,VisualSearch_2526_3,,2025.2.4,2026-02-23 12h13.42.413956 +0100,
tilted.xlsx,The target is tilted.,117,118,6,14,1,0,0,0,0,0,0,0,0,0,0,0,0,0,1,117,space,7.3779192000001785,None,1,1,0.7567826000004061,None,space,2.0295908999996755,None,0,0,0,0,,,,,14,6,118,3,348.0767068999994,,,,,,,,,,,,,,,,,,,,,348.0616721999995,348.0767068999994,348.56056649999937,348.56504959999984,348.5809382999996,349.34378469999956,,,,,349.3439817999997,349.3597457999995,349.55974159999914,349.5431687,348.5809382999996,,,,,,,,1,1,0.7567826000004061,None,,,,,,,,882,22,V,R,2026-02-23_12h13.42.205,VisualSearch_2526_3,,2025.2.4,2026-02-23 12h13.42.413956 +0100,
tilted.xlsx,The target is tilted.,117,119,7,14,0,1,1,1,1,1,1,1,0,0,0,0,1,7,8,117,space,7.3779192000001785,None,0,1,2.5246852000000217,None,space,2.0295908999996755,None,0,0,0,0,,,,,14,7,119,5,349.55974159999914,,,,,,,,,,,,,,,,,,,,,349.5438979999999,349.55974159999914,350.0433280999996,350.04782389999946,350.06412179999916,352.59168839999984,,,,,352.5917651,352.60795939999934,,352.7919635999997,350.06412179999916,,,,,,,,0,1,2.5246852000000217,None,,,,,,,,882,22,V,R,2026-02-23_12h13.42.205,VisualSearch_2526_3,,2025.2.4,2026-02-23 12h13.42.413956 +0100,
tilted.xlsx,The target is tilted.,117,0,0,0,,,,,,,,,,,,,,,,,space,7.3779192000001785,None,,,,,space,2.0295908999996755,None,0,0,0,0,,,,,,,,,,,,,,,,,,,,,,,,,,,,,,,,,,,,,,,,,,,,,,,,,,,,,,,,,,,,,,,882,22,V,R,2026-02-23_12h13.42.205,VisualSearch_2526_3,,2025.2.4,2026-02-23 12h13.42.413956 +0100,
vertical.xlsx,The target is tilted.,135,0,0,0,1,1,1,1,1,1,1,1,1,1,1,1,0,11,12,135,space,7.303270999999768,None,1,1,2.2282070000001113,None,,,,0,1,1,1,0,0,0,0,,,,,360.1633226999993,,,,,,,,,,,,,,,352.81961579999916,352.81961579999916,352.81961579999916,space,7.303270999999768,None,360.1597176999994,360.1633226999993,360.6551019999997,360.65972949999923,360.67482889999974,362.90445739999996,1,1,2.2282070000001113,None,362.90461949999917,362.92028259999915,363.12022649999926,363.10411529999965,,,,,,,,,,,,,,,,,,,,882,22,V,R,2026-02-23_12h13.42.205,VisualSearch_2526_3,,2025.2.4,2026-02-23 12h13.42.413956 +0100,
vertical.xlsx,The target is tilted.,135,1,1,0,1,0,0,0,0,0,0,0,0,0,0,0,0,0,1,135,space,7.303270999999768,None,1,1,0.46493550000013784,None,,,,0,1,1,1,0,1,1,3,,,,,363.12022649999926,,,,,,,,,,,,,,,,,,,,,363.1047775999996,363.12022649999926,363.6039618999994,363.60846029999993,363.6241723999992,364.1040594999995,1,1,0.46493550000013784,None,364.10423209999954,364.1196296999997,364.3196851999992,364.30357079999976,363.6241723999992,,,,,,,,,,,,,,,,,,,882,22,V,R,2026-02-23_12h13.42.205,VisualSearch_2526_3,,2025.2.4,2026-02-23 12h13.42.413956 +0100,
vertical.xlsx,The target is tilted.,135,2,2,0,0,1,1,1,1,1,1,1,1,1,1,1,1,11,12,135,space,7.303270999999768,None,0,1,2.148414300000695,None,,,,0,1,1,1,0,2,2,4,,,,,364.3196851999992,,,,,,,,,,,,,,,,,,,,,364.3042327999992,364.3196851999992,364.8034998999992,364.8082410999996,364.82300939999914,366.98598029999994,0,1,2.148414300000695,None,366.9861342999993,367.00171039999987,367.2017393999995,367.1856078999999,364.82300939999914,,,,,,,,,,,,,,,,,,,882,22,V,R,2026-02-23_12h13.42.205,VisualSearch_2526_3,,2025.2.4,2026-02-23 12h13.42.413956 +0100,
vertical.xlsx,The target is tilted.,135,3,3,0,0,0,0,0,0,0,0,0,0,0,0,0,1,1,1,135,space,7.303270999999768,None,0,1,0.6587093000007371,None,,,,0,1,1,1,0,3,3,7,,,,,367.2017393999995,,,,,,,,,,,,,,,,,,,,,367.18626779999977,367.2017393999995,367.68534779999936,367.6897891999997,367.70503649999955,368.36886909999976,0,1,0.6587093000007371,None,368.3690729,368.38401239999985,368.5842219999995,368.5681663999994,367.70503649999955,,,,,,,,,,,,,,,,,,,882,22,V,R,2026-02-23_12h13.42.205,VisualSearch_2526_3,,2025.2.4,2026-02-23 12h13.42.413956 +0100,
vertical.xlsx,The target is tilted.,135,4,4,0,1,1,1,1,1,1,1,1,0,0,0,0,0,7,8,135,space,7.303270999999768,None,0,0,1.367879499999617,None,,,,0,1,1,1,0,4,4,1,,,,,368.5842219999995,,,,,,,,,,,,,,,,,,,,,368.56887949999964,368.5842219999995,369.06805649999933,369.07240619999993,369.0840785999999,370.46747349999987,0,0,1.367879499999617,None,370.4676058999994,370.4835057,370.6834461999997,370.6672467999997,369.0840785999999,,,,,,,,,,,,,,,,,,,882,22,V,R,2026-02-23_12h13.42.205,VisualSearch_2526_3,,2025.2.4,2026-02-23 12h13.42.413956 +0100,
vertical.xlsx,The target is tilted.,135,5,5,0,1,1,1,1,0,0,0,0,0,0,0,0,0,3,4,135,space,7.303270999999768,None,1,1,1.2296062000004895,None,,,,0,1,1,1,0,5,5,2,,,,,370.6834461999997,,,,,,,,,,,,,,,,,,,,,370.6679495999997,370.6834461999997,371.16690259999996,371.1714044999999,371.18917489999967,372.433438,1,1,1.2296062000004895,None,372.43362459999935,372.4488782999997,372.6491174999992,372.6328477999996,371.18917489999967,,,,,,,,,,,,,,,,,,,882,22,V,R,2026-02-23_12h13.42.205,VisualSearch_2526_3,,2025.2.4,2026-02-23 12h13.42.413956 +0100,
vertical.xlsx,The target is tilted.,135,6,6,0,0,1,1,1,1,1,1,1,0,0,0,0,1,7,8,135,space,7.303270999999768,None,0,1,1.2236609999999928,None,,,,0,1,1,1,0,6,6,5,,,,,372.6491174999992,,,,,,,,,,,,,,,,,,,,,372.6335300999999,372.6491174999992,373.13295649999964,373.1374302999993,373.1518899999992,374.38278939999964,0,1,1.2236609999999928,None,374.38295989999915,374.3984252,374.5981020999998,374.58127199999944,373.1518899999992,,,,,,,,,,,,,,,,,,,882,22,V,R,2026-02-23_12h13.42.205,VisualSearch_2526_3,,2025.2.4,2026-02-23 12h13.42.413956 +0100,
vertical.xlsx,The target is tilted.,135,7,7,0,0,1,1,1,0,0,0,0,0,0,0,0,1,3,4,135,space,7.303270999999768,None,0,1,0.5594178000001193,None,,,,0,1,1,1,0,7,7,6,,,,,374.5981020999998,,,,,,,,,,,,,,,,,,,,,374.58160769999995,374.5981020999998,375.0820952999993,375.08663889999934,375.1016589999999,375.66587639999943,0,1,0.5594178000001193,None,375.6660933999992,375.68109019999974,375.88124459999926,375.8649495999998,375.1016589999999,,,,,,,,,,,,,,,,,,,882,22,V,R,2026-02-23_12h13.42.205,VisualSearch_2526_3,,2025.2.4,2026-02-23 12h13.42.413956 +0100,
vertical.xlsx,The target is tilted.,135,0,0,0,0,1,1,1,1,1,1,1,0,0,0,0,1,7,8,135,space,7.303270999999768,None,0,1,1.2684168999994654,None,space,1.4272063999997044,None,0,1,1,1,,,,,0,0,0,5,377.3440697999995,,,,,,,,,,,,,,,,,,,,,377.3400789999996,377.3440697999995,377.83016599999974,377.83470919999945,377.85042799999974,379.13126849999935,,,,,379.13148079999974,379.14594169999964,379.34579479999957,379.3298258999994,,375.87185059999956,375.88124459999926,375.88124459999926,377.3146356999996,space,1.4272063999997044,None,0,1,1.2684168999994654,None,,,,,,,,882,22,V,R,2026-02-23_12h13.42.205,VisualSearch_2526_3,,2025.2.4,2026-02-23 12h13.42.413956 +0100,
vertical.xlsx,The target is tilted.,135,1,1,0,0,0,0,0,0,0,0,0,0,0,0,0,1,1,1,135,space,7.303270999999768,None,0,1,0.6394645999998829,None,space,1.4272063999997044,None,0,1,1,1,,,,,0,1,1,7,379.34579479999957,,,,,,,,,,,,,,,,,,,,,379.3305402999995,379.34579479999957,379.83006059999934,379.8350075999997,379.85034669999914,380.49657469999966,,,,,380.49675359999947,380.51237539999966,380.7122776999995,380.69619219999913,379.85034669999914,,,,,,,,0,1,0.6394645999998829,None,,,,,,,,882,22,V,R,2026-02-23_12h13.42.205,VisualSearch_2526_3,,2025.2.4,2026-02-23 12h13.42.413956 +0100,
vertical.xlsx,The target is tilted.,135,2,2,0,1,1,1,1,1,1,1,1,1,1,1,1,0,11,12,135,space,7.303270999999768,None,1,1,0.7803427000008014,None,space,1.4272063999997044,None,0,1,1,1,,,,,0,2,2,0,380.7122776999995,,,,,,,,,,,,,,,,,,,,,380.6969075999996,380.7122776999995,381.1958709999999,381.20037890000003,381.21381869999914,381.99614569999994,,,,,381.9963435999998,382.0112548999996,382.21116939999956,382.1948728999996,381.21381869999914,,,,,,,,1,1,0.7803427000008014,None,,,,,,,,882,22,V,R,2026-02-23_12h13.42.205,VisualSearch_2526_3,,2025.2.4,2026-02-23 12h13.42.413956 +0100,
vertical.xlsx,The target is tilted.,135,3,3,0,0,1,1,1,0,0,0,0,0,0,0,0,1,3,4,135,space,7.303270999999768,None,0,1,0.5152654999992592,None,space,1.4272063999997044,None,0,1,1,1,,,,,0,3,3,6,382.21116939999956,,,,,,,,,,,,,,,,,,,,,382.1951094999995,382.21116939999956,382.69521039999927,382.6996440999992,382.71823999999924,383.24541079999926,,,,,383.2455872999999,383.2610632999995,383.46063929999946,383.44488659999934,382.71823999999924,,,,,,,,0,1,0.5152654999992592,None,,,,,,,,882,22,V,R,2026-02-23_12h13.42.205,VisualSearch_2526_3,,2025.2.4,2026-02-23 12h13.42.413956 +0100,
vertical.xlsx,The target is tilted.,135,4,4,0,1,0,0,0,0,0,0,0,0,0,0,0,0,0,1,135,space,7.303270999999768,None,1,1,0.7843423000003895,None,space,1.4272063999997044,None,0,1,1,1,,,,,0,4,4,3,383.46063929999946,,,,,,,,,,,,,,,,,,,,,383.4456047999993,383.46063929999946,383.9447266999996,383.9492059999993,383.96496389999993,384.76137709999966,,,,,384.7615739999992,384.7766931999995,384.9769405999996,384.9609369,383.96496389999993,,,,,,,,1,1,0.7843423000003895,None,,,,,,,,882,22,V,R,2026-02-23_12h13.42.205,VisualSearch_2526_3,,2025.2.4,2026-02-23 12h13.42.413956 +0100,
vertical.xlsx,The target is tilted.,135,5,5,0,0,1,1,1,1,1,1,1,1,1,1,1,1,11,12,135,space,7.303270999999768,None,0,1,1.1151757999996335,None,space,1.4272063999997044,None,0,1,1,1,,,,,0,5,5,4,384.9769405999996,,,,,,,,,,,,,,,,,,,,,384.96176339999965,384.9769405999996,385.4605537999996,385.4655735999995,385.4800846999997,386.61059679999926,,,,,386.6107749999992,386.6257664999994,386.82606450000003,386.8095739999999,385.4800846999997,,,,,,,,0,1,1.1151757999996335,None,,,,,,,,882,22,V,R,2026-02-23_12h13.42.205,VisualSearch_2526_3,,2025.2.4,2026-02-23 12h13.42.413956 +0100,
vertical.xlsx,The target is tilted.,135,6,6,0,1,1,1,1,0,0,0,0,0,0,0,0,0,3,4,135,space,7.303270999999768,None,1,1,0.5468996999998126,None,space,1.4272063999997044,None,0,1,1,1,,,,,0,6,6,2,386.82606450000003,,,,,,,,,,,,,,,,,,,,,386.81032029999915,386.82606450000003,387.3097728999992,387.3142653999994,387.3302971999992,387.8930529999998,,,,,387.8932487999991,387.9089692999996,388.1089143999998,388.0928406999992,387.3302971999992,,,,,,,,1,1,0.5468996999998126,None,,,,,,,,882,22,V,R,2026-02-23_12h13.42.205,VisualSearch_2526_3,,2025.2.4,2026-02-23 12h13.42.413956 +0100,
vertical.xlsx,The target is tilted.,135,7,7,0,1,1,1,1,1,1,1,1,0,0,0,0,0,7,8,135,space,7.303270999999768,None,0,0,0.7799638000005871,None,space,1.4272063999997044,None,0,1,1,1,,,,,0,7,7,1,388.1089143999998,,,,,,,,,,,,,,,,,,,,,388.0935757999996,388.1089143999998,388.5921282999998,388.5939879999996,388.60846049999964,389.39246249999997,,,,,389.3926941999998,389.40827529999933,389.6078493999994,389.5912297999994,388.60846049999964,,,,,,,,0,0,0.7799638000005871,None,,,,,,,,882,22,V,R,2026-02-23_12h13.42.205,VisualSearch_2526_3,,2025.2.4,2026-02-23 12h13.42.413956 +0100,
vertical.xlsx,The target is tilted.,135,8,0,1,0,1,1,1,1,1,1,1,1,1,1,1,1,11,12,135,space,7.303270999999768,None,0,1,1.0958196000001408,None,space,1.4272063999997044,None,0,1,1,1,,,,,1,0,8,4,389.6078493999994,,,,,,,,,,,,,,,,,,,,,389.5916084999999,389.6078493999994,390.0918942999997,390.09661029999916,390.1123024999997,391.22530669999924,,,,,391.2255052999999,391.2408263999996,391.44071129999975,391.42450429999917,390.1123024999997,,,,,,,,0,1,1.0958196000001408,None,,,,,,,,882,22,V,R,2026-02-23_12h13.42.205,VisualSearch_2526_3,,2025.2.4,2026-02-23 12h13.42.413956 +0100,
vertical.xlsx,The target is tilted.,135,9,1,1,0,0,0,0,0,0,0,0,0,0,0,0,1,1,1,135,space,7.303270999999768,None,0,1,0.570604600000479,None,space,1.4272063999997044,None,0,1,1,1,,,,,1,1,9,7,391.44071129999975,,,,,,,,,,,,,,,,,,,,,391.4253420999994,391.44071129999975,391.92442069999925,391.9289227999998,391.9444328999998,392.5247716999993,,,,,392.52499069999976,392.54017869999916,392.74016969999957,392.72404319999987,391.9444328999998,,,,,,,,0,1,0.570604600000479,None,,,,,,,,882,22,V,R,2026-02-23_12h13.42.205,VisualSearch_2526_3,,2025.2.4,2026-02-23 12h13.42.413956 +0100,
vertical.xlsx,The target is tilted.,135,10,2,1,1,1,1,1,0,0,0,0,0,0,0,0,0,3,4,135,space,7.303270999999768,None,1,1,0.6574952000000849,None,space,1.4272063999997044,None,0,1,1,1,,,,,1,2,10,2,392.74016969999957,,,,,,,,,,,,,,,,,,,,,392.72476709999955,392.74016969999957,393.22382129999914,393.2283089999992,393.24608289999924,393.9064970999998,,,,,393.9066193999997,393.92266839999957,394.1228508999993,394.10667509999985,393.24608289999924,,,,,,,,1,1,0.6574952000000849,None,,,,,,,,882,22,V,R,2026-02-23_12h13.42.205,VisualSearch_2526_3,,2025.2.4,2026-02-23 12h13.42.413956 +0100,
vertical.xlsx,The target is tilted.,135,11,3,1,1,1,1,1,1,1,1,1,0,0,0,0,0,7,8,135,space,7.303270999999768,None,0,0,0.687100800000735,None,space,1.4272063999997044,None,0,1,1,1,,,,,1,3,11,1,394.1228508999993,,,,,,,,,,,,,,,,,,,,,394.1074547999997,394.1228508999993,394.60588859999916,394.60822279999957,394.6224029999994,395.3224664999998,,,,,395.32260289999977,395.3387533999994,395.5384275999995,395.5227398999996,394.6224029999994,,,,,,,,0,0,0.687100800000735,None,,,,,,,,882,22,V,R,2026-02-23_12h13.42.205,VisualSearch_2526_3,,2025.2.4,2026-02-23 12h13.42.413956 +0100,
vertical.xlsx,The target is tilted.,135,12,4,1,1,0,0,0,0,0,0,0,0,0,0,0,0,0,1,135,space,7.303270999999768,None,1,1,0.8466840999999476,None,space,1.4272063999997044,None,0,1,1,1,,,,,1,4,12,3,395.5384275999995,,,,,,,,,,,,,,,,,,,,,395.5236262999997,395.5384275999995,396.0225783999995,396.0270527999992,396.04387359999964,396.9051910999997,,,,,396.9053535999992,396.92154499999924,397.1214874999996,397.1053506999997,396.04387359999964,,,,,,,,1,1,0.8466840999999476,None,,,,,,,,882,22,V,R,2026-02-23_12h13.42.205,VisualSearch_2526_3,,2025.2.4,2026-02-23 12h13.42.413956 +0100,
vertical.xlsx,The target is tilted.,135,13,5,1,1,1,1,1,1,1,1,1,1,1,1,1,0,11,12,135,space,7.303270999999768,None,0,0,1.054831500000546,None,space,1.4272063999997044,None,0,1,1,1,,,,,1,5,13,0,397.1214874999996,,,,,,,,,,,,,,,,,,,,,397.10606949999965,397.1214874999996,397.6052645999998,397.6097743,397.6249055999997,398.6885464999996,,,,,398.68874379999943,398.7039259999992,398.9040968999998,398.8878304,397.6249055999997,,,,,,,,0,0,1.054831500000546,None,,,,,,,,882,22,V,R,2026-02-23_12h13.42.205,VisualSearch_2526_3,,2025.2.4,2026-02-23 12h13.42.413956 +0100,
vertical.xlsx,The target is tilted.,135,14,6,1,0,1,1,1,1,1,1,1,0,0,0,0,1,7,8,135,space,7.303270999999768,None,0,1,0.7647379000000001,None,space,1.4272063999997044,None,0,1,1,1,,,,,1,6,14,5,398.9040968999998,,,,,,,,,,,,,,,,,,,,,398.8885789999995,398.9040968999998,399.38757149999947,399.3921287999992,399.40793080000003,400.18756499999927,,,,,400.18776049999997,400.2033589999992,400.40341199999966,400.3870516999996,399.40793080000003,,,,,,,,0,1,0.7647379000000001,None,,,,,,,,882,22,V,R,2026-02-23_12h13.42.205,VisualSearch_2526_3,,2025.2.4,2026-02-23 12h13.42.413956 +0100,
vertical.xlsx,The target is tilted.,135,15,7,1,0,1,1,1,0,0,0,0,0,0,0,0,1,3,4,135,space,7.303270999999768,None,0,1,0.6625984000002063,None,space,1.4272063999997044,None,0,1,1,1,,,,,1,7,15,6,400.40341199999966,,,,,,,,,,,,,,,,,,,,,400.38780529999985,400.40341199999966,400.88668659999985,400.8912799,400.90702839999994,401.58636249999927,,,,,401.5864396999996,401.60257159999946,401.80268519999936,401.7864119999995,400.90702839999994,,,,,,,,0,1,0.6625984000002063,None,,,,,,,,882,22,V,R,2026-02-23_12h13.42.205,VisualSearch_2526_3,,2025.2.4,2026-02-23 12h13.42.413956 +0100,
vertical.xlsx,The target is tilted.,135,16,0,2,1,0,0,0,0,0,0,0,0,0,0,0,0,0,1,135,space,7.303270999999768,None,1,1,0.626140999999734,None,space,1.4272063999997044,None,0,1,1,1,,,,,2,0,16,3,401.80268519999936,,,,,,,,,,,,,,,,,,,,,401.7871613999996,401.80268519999936,402.2864303999995,402.2908592999993,402.3054282999992,402.93648849999954,,,,,402.93668549999984,402.95203669999955,403.15206209999997,403.13600039999983,402.3054282999992,,,,,,,,1,1,0.626140999999734,None,,,,,,,,882,22,V,R,2026-02-23_12h13.42.205,VisualSearch_2526_3,,2025.2.4,2026-02-23 12h13.42.413956 +0100,
vertical.xlsx,The target is tilted.,135,17,1,2,0,1,1,1,0,0,0,0,0,0,0,0,1,3,4,135,space,7.303270999999768,None,0,1,0.8724236000007295,None,space,1.4272063999997044,None,0,1,1,1,,,,,2,1,17,6,403.15206209999997,,,,,,,,,,,,,,,,,,,,,403.1367167999997,403.15206209999997,403.63571449999927,403.64022419999947,403.6561278999998,404.53514749999977,,,,,404.5352594999995,404.5511807999992,404.75129489999927,404.73510989999977,403.6561278999998,,,,,,,,0,1,0.8724236000007295,None,,,,,,,,882,22,V,R,2026-02-23_12h13.42.205,VisualSearch_2526_3,,2025.2.4,2026-02-23 12h13.42.413956 +0100,
vertical.xlsx,The target is tilted.,135,18,2,2,1,1,1,1,1,1,1,1,1,1,1,1,0,11,12,135,space,7.303270999999768,None,1,1,1.1383153000006132,None,space,1.4272063999997044,None,0,1,1,1,,,,,2,2,18,0,404.75129489999927,,,,,,,,,,,,,,,,,,,,,404.7358918,404.75129489999927,405.2351323999992,405.2398983999992,405.25545989999955,406.4016957999993,,,,,406.40189159999954,406.4171655,406.6167691999999,406.6008791999993,405.25545989999955,,,,,,,,1,1,1.1383153000006132,None,,,,,,,,882,22,V,R,2026-02-23_12h13.42.205,VisualSearch_2526_3,,2025.2.4,2026-02-23 12h13.42.413956 +0100,
vertical.xlsx,The target is tilted.,135,19,3,2,1,1,1,1,1,1,1,1,0,0,0,0,0,7,8,135,space,7.303270999999768,None,1,1,0.6018444999999701,None,space,1.4272063999997044,None,0,1,1,1,,,,,2,3,19,1,406.6167691999999,,,,,,,,,,,,,,,,,,,,,406.6016477999992,406.6167691999999,407.1008135999991,407.1054589999994,407.1208872999996,407.7344755999993,,,,,407.73468589999993,407.7496031999999,407.9499274,407.93389169999955,407.1208872999996,,,,,,,,1,1,0.6018444999999701,None,,,,,,,,882,22,V,R,2026-02-23_12h13.42.205,VisualSearch_2526_3,,2025.2.4,2026-02-23 12h13.42.413956 +0100,
vertical.xlsx,The target is tilted.,135,20,4,2,0,1,1,1,1,1,1,1,0,0,0,0,1,7,8,135,space,7.303270999999768,None,0,1,0.9343783000003896,None,space,1.4272063999997044,None,0,1,1,1,,,,,2,4,20,5,407.9499274,,,,,,,,,,,,,,,,,,,,,407.93465619999915,407.9499274,408.43345059999956,408.43801369999983,408.4540509999997,409.40041159999964,,,,,409.40063799999916,409.4154589,409.6158431999993,409.5996839999998,408.4540509999997,,,,,,,,0,1,0.9343783000003896,None,,,,,,,,882,22,V,R,2026-02-23_12h13.42.205,VisualSearch_2526_3,,2025.2.4,2026-02-23 12h13.42.413956 +0100,
vertical.xlsx,The target is tilted.,135,21,5,2,0,1,1,1,1,1,1,1,1,1,1,1,1,11,12,135,space,7.303270999999768,None,0,1,1.0805979999995543,None,space,1.4272063999997044,None,0,1,1,1,,,,,2,5,21,4,409.6158431999993,,,,,,,,,,,,,,,,,,,,,409.6004286999996,409.6158431999993,410.09914469999967,410.1035376,410.1154692,411.1990627999994,,,,,411.1992397999993,411.2147256999997,411.4151039999997,411.39882339999986,410.1154692,,,,,,,,0,1,1.0805979999995543,None,,,,,,,,882,22,V,R,2026-02-23_12h13.42.205,VisualSearch_2526_3,,2025.2.4,2026-02-23 12h13.42.413956 +0100,
vertical.xlsx,The target is tilted.,135,22,6,2,1,1,1,1,0,0,0,0,0,0,0,0,0,3,4,135,space,7.303270999999768,None,1,1,0.6669793000000936,None,space,1.4272063999997044,None,0,1,1,1,,,,,2,6,22,2,411.4151039999997,,,,,,,,,,,,,,,,,,,,,411.39958379999916,411.4151039999997,411.89864529999977,411.90319679999993,411.9186872999999,412.5983618,,,,,412.59850989999995,412.6143315999998,412.81441129999985,412.79812779999975,411.9186872999999,,,,,,,,1,1,0.6669793000000936,None,,,,,,,,882,22,V,R,2026-02-23_12h13.42.205,VisualSearch_2526_3,,2025.2.4,2026-02-23 12h13.42.413956 +0100,
vertical.xlsx,The target is tilted.,135,23,7,2,0,0,0,0,0,0,0,0,0,0,0,0,1,1,1,135,space,7.303270999999768,None,0,1,0.7221008000005895,None,space,1.4272063999997044,None,0,1,1,1,,,,,2,7,23,7,412.81441129999985,,,,,,,,,,,,,,,,,,,,,412.7988808,412.81441129999985,413.29801059999954,413.3024981999997,413.31646179999916,414.0482007999999,,,,,414.0483951999995,414.0634795999995,414.26376059999984,414.2474749999992,413.31646179999916,,,,,,,,0,1,0.7221008000005895,None,,,,,,,,882,22,V,R,2026-02-23_12h13.42.205,VisualSearch_2526_3,,2025.2.4,2026-02-23 12h13.42.413956 +0100,
vertical.xlsx,The target is tilted.,135,24,0,3,0,0,0,0,0,0,0,0,0,0,0,0,1,1,1,135,space,7.303270999999768,None,0,1,0.671317000000272,None,space,1.4272063999997044,None,0,1,1,1,,,,,3,0,24,7,414.26376059999984,,,,,,,,,,,,,,,,,,,,,414.2482904999997,414.26376059999984,414.7472567999994,414.7517126999992,414.7688398,415.4468533999998,,,,,415.44699279999986,415.4629275999996,415.66316109999934,415.64662939999926,414.7688398,,,,,,,,0,1,0.671317000000272,None,,,,,,,,882,22,V,R,2026-02-23_12h13.42.205,VisualSearch_2526_3,,2025.2.4,2026-02-23 12h13.42.413956 +0100,
vertical.xlsx,The target is tilted.,135,25,1,3,0,1,1,1,0,0,0,0,0,0,0,0,1,3,4,135,space,7.303270999999768,None,0,1,0.8751879000001281,None,space,1.4272063999997044,None,0,1,1,1,,,,,3,1,25,6,415.66316109999934,,,,,,,,,,,,,,,,,,,,,415.64736729999913,415.66316109999934,416.1463787999992,416.1508283999992,416.1654230999993,417.0468486,,,,,417.04704409999977,417.0620306999999,417.26234529999965,417.2462194999998,416.1654230999993,,,,,,,,0,1,0.8751879000001281,None,,,,,,,,882,22,V,R,2026-02-23_12h13.42.205,VisualSearch_2526_3,,2025.2.4,2026-02-23 12h13.42.413956 +0100,
vertical.xlsx,The target is tilted.,135,26,2,3,1,1,1,1,1,1,1,1,0,0,0,0,0,7,8,135,space,7.303270999999768,None,1,1,0.6290865999999369,None,space,1.4272063999997044,None,0,1,1,1,,,,,3,2,26,1,417.26234529999965,,,,,,,,,,,,,,,,,,,,,417.24694349999936,417.26234529999965,417.7456730999993,417.7497470999997,417.76198099999965,418.39596449999954,,,,,418.3961597999996,418.4117727999992,418.6116330999994,418.5950972999999,417.76198099999965,,,,,,,,1,1,0.6290865999999369,None,,,,,,,,882,22,V,R,2026-02-23_12h13.42.205,VisualSearch_2526_3,,2025.2.4,2026-02-23 12h13.42.413956 +0100,
vertical.xlsx,The target is tilted.,135,27,3,3,0,1,1,1,1,1,1,1,1,1,1,1,1,11,12,135,space,7.303270999999768,None,0,1,1.904114699999809,None,space,1.4272063999997044,None,0,1,1,1,,,,,3,3,27,4,418.6116330999994,,,,,,,,,,,,,,,,,,,,,418.5954432999997,418.6116330999994,419.09537529999943,419.09990109999944,419.11512589999984,421.0274120999993,,,,,421.0274995,421.04337139999916,421.2439642999998,421.2276693999993,419.11512589999984,,,,,,,,0,1,1.904114699999809,None,,,,,,,,882,22,V,R,2026-02-23_12h13.42.205,VisualSearch_2526_3,,2025.2.4,2026-02-23 12h13.42.413956 +0100,
vertical.xlsx,The target is tilted.,135,28,4,3,1,0,0,0,0,0,0,0,0,0,0,0,0,0,1,135,space,7.303270999999768,None,1,1,0.7352098000001206,None,space,1.4272063999997044,None,0,1,1,1,,,,,3,4,28,3,421.2439642999998,,,,,,,,,,,,,,,,,,,,,421.2283992999992,421.2439642999998,421.7274961999992,421.7319895999999,421.7471147999995,422.4943334999998,,,,,422.4945276999997,422.50958009999977,422.70985799999926,422.6937447999999,421.7471147999995,,,,,,,,1,1,0.7352098000001206,None,,,,,,,,882,22,V,R,2026-02-23_12h13.42.205,VisualSearch_2526_3,,2025.2.4,2026-02-23 12h13.42.413956 +0100,
vertical.xlsx,The target is tilted.,135,29,5,3,1,1,1,1,0,0,0,0,0,0,0,0,0,3,4,135,space,7.303270999999768,None,1,1,0.8226196000005075,None,space,1.4272063999997044,None,0,1,1,1,,,,,3,5,29,2,422.70985799999926,,,,,,,,,,,,,,,,,,,,,422.69446659999994,422.70985799999926,423.19345929999963,423.1979352999997,423.21399049999945,424.04336349999994,,,,,424.0435119999993,424.0588777999992,424.25906789999954,424.2429227999992,423.21399049999945,,,,,,,,1,1,0.8226196000005075,None,,,,,,,,882,22,V,R,2026-02-23_12h13.42.205,VisualSearch_2526_3,,2025.2.4,2026-02-23 12h13.42.413956 +0100,
vertical.xlsx,The target is tilted.,135,30,6,3,1,1,1,1,1,1,1,1,1,1,1,1,0,11,12,135,space,7.303270999999768,None,1,1,2.36033419999967,None,space,1.4272063999997044,None,0,1,1,1,,,,,3,6,30,0,424.25906789999954,,,,,,,,,,,,,,,,,,,,,424.2436573999994,424.25906789999954,424.7427818999995,424.74732779999977,424.7619715999999,427.1254300999999,,,,,427.1256068999992,427.1409900999997,427.34112789999926,427.3249489,424.7619715999999,,,,,,,,1,1,2.36033419999967,None,,,,,,,,882,22,V,R,2026-02-23_12h13.42.205,VisualSearch_2526_3,,2025.2.4,2026-02-23 12h13.42.413956 +0100,
vertical.xlsx,The target is tilted.,135,31,7,3,0,1,1,1,1,1,1,1,0,0,0,0,1,7,8,135,space,7.303270999999768,None,0,1,1.275286899999628,None,space,1.4272063999997044,None,0,1,1,1,,,,,3,7,31,5,427.34112789999926,,,,,,,,,,,,,,,,,,,,,427.3256744,427.34112789999926,427.82436999999936,427.82880939999995,427.8437381999993,429.1242984999999,,,,,429.12451299999975,429.14017109999986,429.33979009999985,429.32389879999937,427.8437381999993,,,,,,,,0,1,1.275286899999628,None,,,,,,,,882,22,V,R,2026-02-23_12h13.42.205,VisualSearch_2526_3,,2025.2.4,2026-02-23 12h13.42.413956 +0100,
vertical.xlsx,The target is tilted.,135,32,0,4,0,1,1,1,1,1,1,1,0,0,0,0,1,7,8,135,space,7.303270999999768,None,0,1,1.0318420000003243,None,space,1.4272063999997044,None,0,1,1,1,,,,,4,0,32,5,429.33979009999985,,,,,,,,,,,,,,,,,,,,,429.32462189999933,429.33979009999985,429.8239068999992,429.8284045999999,429.84240449999925,430.8905700999994,,,,,430.8907670999997,430.9058073999995,431.10563959999945,431.08992109999963,429.84240449999925,,,,,,,,0,1,1.0318420000003243,None,,,,,,,,882,22,V,R,2026-02-23_12h13.42.205,VisualSearch_2526_3,,2025.2.4,2026-02-23 12h13.42.413956 +0100,
vertical.xlsx,The target is tilted.,135,33,1,4,0,0,0,0,0,0,0,0,0,0,0,0,1,1,1,135,space,7.303270999999768,None,0,1,0.875136399999974,None,space,1.4272063999997044,None,0,1,1,1,,,,,4,1,33,7,431.10563959999945,,,,,,,,,,,,,,,,,,,,,431.09074129999954,431.10563959999945,431.58919309999965,431.5912443999996,431.6056641999994,432.48934219999956,,,,,432.4894797999996,432.50521949999984,432.70490699999937,432.6888964,431.6056641999994,,,,,,,,0,1,0.875136399999974,None,,,,,,,,882,22,V,R,2026-02-23_12h13.42.205,VisualSearch_2526_3,,2025.2.4,2026-02-23 12h13.42.413956 +0100,
