file_name,block_instructions,target_example,thisN,thisTrialN,thisRepN,target_presence,opacity_1,opacity_2,opacity_3,opacity_4,opacity_5,opacity_6,opacity_7,opacity_8,opacity_9,opacity_10,opacity_11,opacity_12,n_distract,n_items,target_ori,key_resp_4.keys,key_resp_4.rt,key_resp_4.duration,key_resp.keys,key_resp.corr,key_resp.rt,key_resp.duration,key_resp_5.keys,key_resp_5.rt,key_resp_5.duration,blocks.thisRepN,blocks.thisTrialN,blocks.thisN,blocks.thisIndex,practice_trials.thisRepN,practice_trials.thisTrialN,practice_trials.thisN,practice_trials.thisIndex,trials.thisRepN,trials.thisTrialN,trials.thisN,trials.thisIndex,thisRow.t,notes,Welcome.started,WelcomeText.started,key_resp_2.started,Welcome.stopped,key_resp_2.keys,key_resp_2.rt,key_resp_2.duration,InformedConsent.started,text_4.started,InformedConsent.stopped,key_resp_6.keys,key_resp_6.rt,key_resp_6.duration,key_resp_4.started,example_target.started,text_3.started,blocks.key_resp_4.keys,blocks.key_resp_4.rt,blocks.key_resp_4.duration,FixCross.started,fixCross.started,FixCross.stopped,Stimulus.started,key_resp.started,Stimulus.stopped,practice_trials.key_resp.keys,practice_trials.key_resp.corr,practice_trials.key_resp.rt,practice_trials.key_resp.duration,BlankScreen.started,text.started,text.stopped,BlankScreen.stopped,fixCross.stopped,ExperimentStart.started,text_2.started,key_resp_5.started,ExperimentStart.stopped,blocks.key_resp_5.keys,blocks.key_resp_5.rt,blocks.key_resp_5.duration,trials.key_resp.keys,trials.key_resp.corr,trials.key_resp.rt,trials.key_resp.duration,Thanks.started,ThankYou.started,key_resp_3.started,Thanks.stopped,key_resp_3.keys,key_resp_3.rt,key_resp_3.duration,participant,leeftijd,gender,links/rechtshandig,date,expName,expVersion,psychopyVersion,expStart,
,,,,,,,,,,,,,,,,,,,,,,,,,,,,,,,,,,,,,,,,,,,,,,0.025503800000024057,0.05373959999997169,0.05373959999997169,71.89249659999996,space,71.83540219999986,None,,,,,,,,,,,,,,,,,,,,,,,,,,,,,,,,,,,,,,,,,,,,,,883,21,M,R,2026-02-18_11h45.27.784,VisualSearch_2526_3,,2025.2.4,2026-02-18 11h45.27.989301 +0100,
,,,,,,,,,,,,,,,,,,,,,,,,,,,,,,,,,,,,,,,,,,,,,,,,,,,,,71.89263489999985,71.90775470000017,81.57090289999996,y,9.674596299999848,None,,,,,,,,,,,,,,,,,,,,,,,,,,,,,,,,,,,,,,,,883,21,M,R,2026-02-18_11h45.27.784,VisualSearch_2526_3,,2025.2.4,2026-02-18 11h45.27.989301 +0100,
tilted.xlsx,The target is tilted.,117,0,0,0,0,0,0,0,0,0,0,0,0,0,0,0,1,1,1,117,space,4.774195299999974,None,0,1,1.0203599999999824,None,,,,0,0,0,0,0,0,0,7,,,,,86.4110553999999,,,,,,,,,,,,,,,81.60696129999997,81.60696129999997,81.60696129999997,space,4.774195299999974,None,86.40621370000008,86.4110553999999,86.90106120000019,86.9061928000001,86.92214019999983,87.95143210000015,0,1,1.0203599999999824,None,87.9516208,87.96690260000014,88.16674210000019,88.15026979999993,,,,,,,,,,,,,,,,,,,,883,21,M,R,2026-02-18_11h45.27.784,VisualSearch_2526_3,,2025.2.4,2026-02-18 11h45.27.989301 +0100,
tilted.xlsx,The target is tilted.,117,1,1,0,1,0,0,0,0,0,0,0,0,0,0,0,0,0,1,117,space,4.774195299999974,None,1,1,0.8727613000000929,None,,,,0,0,0,0,0,1,1,3,,,,,88.16674210000019,,,,,,,,,,,,,,,,,,,,,88.1509431999998,88.16674210000019,88.6505044999999,88.6552757999998,88.66643479999993,89.55059459999984,1,1,0.8727613000000929,None,89.5507805000002,89.56613340000013,89.76617750000014,89.74998370000003,88.66643479999993,,,,,,,,,,,,,,,,,,,883,21,M,R,2026-02-18_11h45.27.784,VisualSearch_2526_3,,2025.2.4,2026-02-18 11h45.27.989301 +0100,
tilted.xlsx,The target is tilted.,117,2,2,0,1,1,1,1,1,1,1,1,1,1,1,1,0,11,12,117,space,4.774195299999974,None,1,1,1.2071866999999656,None,,,,0,0,0,0,0,2,2,0,,,,,89.76617750000014,,,,,,,,,,,,,,,,,,,,,89.75075319999996,89.76617750000014,90.2497045,90.2545227999999,90.27240849999998,91.4827306000002,1,1,1.2071866999999656,None,91.48289909999994,91.49818570000025,91.6985568,91.68227209999986,90.27240849999998,,,,,,,,,,,,,,,,,,,883,21,M,R,2026-02-18_11h45.27.784,VisualSearch_2526_3,,2025.2.4,2026-02-18 11h45.27.989301 +0100,
tilted.xlsx,The target is tilted.,117,3,3,0,0,1,1,1,1,1,1,1,0,0,0,0,1,7,8,117,space,4.774195299999974,None,1,0,2.8582265999998526,None,,,,0,0,0,0,0,3,3,5,,,,,91.6985568,,,,,,,,,,,,,,,,,,,,,91.68303689999993,91.6985568,92.18227780000007,92.18718810000018,92.20290100000011,95.0644685000002,1,0,2.8582265999998526,None,95.06468840000025,95.07989660000021,95.28016479999997,95.26393390000021,92.20290100000011,,,,,,,,,,,,,,,,,,,883,21,M,R,2026-02-18_11h45.27.784,VisualSearch_2526_3,,2025.2.4,2026-02-18 11h45.27.989301 +0100,
tilted.xlsx,The target is tilted.,117,4,4,0,0,1,1,1,1,1,1,1,1,1,1,1,1,11,12,117,space,4.774195299999974,None,1,0,1.1369520000002922,None,,,,0,0,0,0,0,4,4,4,,,,,95.28016479999997,,,,,,,,,,,,,,,,,,,,,95.26460350000025,95.28016479999997,95.76399360000005,95.76883379999981,95.78525769999987,96.93066439999984,1,0,1.1369520000002922,None,96.93085109999993,96.94567740000002,97.14613120000013,97.12994660000004,95.78525769999987,,,,,,,,,,,,,,,,,,,883,21,M,R,2026-02-18_11h45.27.784,VisualSearch_2526_3,,2025.2.4,2026-02-18 11h45.27.989301 +0100,
tilted.xlsx,The target is tilted.,117,5,5,0,0,1,1,1,0,0,0,0,0,0,0,0,1,3,4,117,space,4.774195299999974,None,0,1,1.2471356999999443,None,,,,0,0,0,0,0,5,5,6,,,,,97.14613120000013,,,,,,,,,,,,,,,,,,,,,97.13064029999987,97.14613120000013,97.62968039999987,97.63453620000018,97.65065860000004,98.91244030000007,0,1,1.2471356999999443,None,98.91263729999991,98.92807459999995,99.12847199999987,99.11240270000008,97.65065860000004,,,,,,,,,,,,,,,,,,,883,21,M,R,2026-02-18_11h45.27.784,VisualSearch_2526_3,,2025.2.4,2026-02-18 11h45.27.989301 +0100,
tilted.xlsx,The target is tilted.,117,6,6,0,1,1,1,1,1,1,1,1,0,0,0,0,0,7,8,117,space,4.774195299999974,None,1,1,0.754026299999623,None,,,,0,0,0,0,0,6,6,1,,,,,99.12847199999987,,,,,,,,,,,,,,,,,,,,,99.1131003999999,99.12847199999987,99.6122406999998,99.61713499999996,99.63255800000024,100.39566270000023,1,1,0.754026299999623,None,100.39585219999981,100.41077200000018,100.61119539999981,100.59504049999987,99.63255800000024,,,,,,,,,,,,,,,,,,,883,21,M,R,2026-02-18_11h45.27.784,VisualSearch_2526_3,,2025.2.4,2026-02-18 11h45.27.989301 +0100,
tilted.xlsx,The target is tilted.,117,7,7,0,1,1,1,1,0,0,0,0,0,0,0,0,0,3,4,117,space,4.774195299999974,None,0,0,1.5999296999998478,None,,,,0,0,0,0,0,7,7,2,,,,,100.61119539999981,,,,,,,,,,,,,,,,,,,,,100.59576389999984,100.61119539999981,101.09484999999995,101.09970490000023,101.11588399999982,102.72778580000022,0,0,1.5999296999998478,None,102.72794250000015,102.74305370000002,102.94308820000015,102.9270320999999,101.11588399999982,,,,,,,,,,,,,,,,,,,883,21,M,R,2026-02-18_11h45.27.784,VisualSearch_2526_3,,2025.2.4,2026-02-18 11h45.27.989301 +0100,
tilted.xlsx,The target is tilted.,117,0,0,0,0,1,1,1,0,0,0,0,0,0,0,0,1,3,4,117,space,4.774195299999974,None,0,1,1.6099522999998044,None,space,1.2163172999999006,None,0,0,0,0,,,,,0,0,0,6,104.20541120000007,,,,,,,,,,,,,,,,,,,,,104.20189889999983,104.20541120000007,104.6930083000002,104.6980867000002,104.71298879999995,106.32571599999983,,,,,106.32580770000004,106.34123850000014,106.54192990000001,106.52567249999993,,102.93400150000025,102.94308820000015,102.94308820000015,104.17650809999986,space,1.2163172999999006,None,0,1,1.6099522999998044,None,,,,,,,,883,21,M,R,2026-02-18_11h45.27.784,VisualSearch_2526_3,,2025.2.4,2026-02-18 11h45.27.989301 +0100,
tilted.xlsx,The target is tilted.,117,1,1,0,1,1,1,1,1,1,1,1,1,1,1,1,0,11,12,117,space,4.774195299999974,None,1,1,1.1079764000000978,None,space,1.2163172999999006,None,0,0,0,0,,,,,0,1,1,0,106.54192990000001,,,,,,,,,,,,,,,,,,,,,106.52644899999996,106.54192990000001,107.02559139999994,107.0306386000002,107.04796519999991,108.1585697999999,,,,,108.15876519999983,108.17392980000022,108.37441609999996,108.35790020000013,107.04796519999991,,,,,,,,1,1,1.1079764000000978,None,,,,,,,,883,21,M,R,2026-02-18_11h45.27.784,VisualSearch_2526_3,,2025.2.4,2026-02-18 11h45.27.989301 +0100,
tilted.xlsx,The target is tilted.,117,2,2,0,0,0,0,0,0,0,0,0,0,0,0,0,1,1,1,117,space,4.774195299999974,None,0,1,0.7327783999999156,None,space,1.2163172999999006,None,0,0,0,0,,,,,0,2,2,7,108.37441609999996,,,,,,,,,,,,,,,,,,,,,108.35865650000005,108.37441609999996,108.85761120000006,108.86247950000006,108.87818950000019,109.6242545,,,,,109.62448210000002,109.6398365,109.83985339999981,109.82406630000014,108.87818950000019,,,,,,,,0,1,0.7327783999999156,None,,,,,,,,883,21,M,R,2026-02-18_11h45.27.784,VisualSearch_2526_3,,2025.2.4,2026-02-18 11h45.27.989301 +0100,
tilted.xlsx,The target is tilted.,117,3,3,0,0,1,1,1,1,1,1,1,1,1,1,1,1,11,12,117,space,4.774195299999974,None,1,0,2.1887997999997424,None,space,1.2163172999999006,None,0,0,0,0,,,,,0,3,3,4,109.83985339999981,,,,,,,,,,,,,,,,,,,,,109.82481989999997,109.83985339999981,110.32405449999987,110.32899309999993,110.34538870000006,112.54016649999994,,,,,112.54036380000025,112.55514889999995,112.75573930000019,112.73951020000004,110.34538870000006,,,,,,,,1,0,2.1887997999997424,None,,,,,,,,883,21,M,R,2026-02-18_11h45.27.784,VisualSearch_2526_3,,2025.2.4,2026-02-18 11h45.27.989301 +0100,
tilted.xlsx,The target is tilted.,117,4,4,0,1,1,1,1,1,1,1,1,0,0,0,0,0,7,8,117,space,4.774195299999974,None,0,0,1.714562300000125,None,space,1.2163172999999006,None,0,0,0,0,,,,,0,4,4,1,112.75573930000019,,,,,,,,,,,,,,,,,,,,,112.74033770000005,112.75573930000019,113.23950359999981,113.24499419999984,113.25919049999993,114.98840259999997,,,,,114.98858410000003,115.00418500000023,115.2046220000002,115.18831379999983,113.25919049999993,,,,,,,,0,0,1.714562300000125,None,,,,,,,,883,21,M,R,2026-02-18_11h45.27.784,VisualSearch_2526_3,,2025.2.4,2026-02-18 11h45.27.989301 +0100,
tilted.xlsx,The target is tilted.,117,5,5,0,1,0,0,0,0,0,0,0,0,0,0,0,0,0,1,117,space,4.774195299999974,None,0,0,1.235961700000189,None,space,1.2163172999999006,None,0,0,0,0,,,,,0,5,5,3,115.2046220000002,,,,,,,,,,,,,,,,,,,,,115.18911660000003,115.2046220000002,115.68828510000003,115.69315869999991,115.70841449999989,116.95480910000015,,,,,116.95500649999985,116.9699455,117.17036039999994,117.15429039999981,115.70841449999989,,,,,,,,0,0,1.235961700000189,None,,,,,,,,883,21,M,R,2026-02-18_11h45.27.784,VisualSearch_2526_3,,2025.2.4,2026-02-18 11h45.27.989301 +0100,
tilted.xlsx,The target is tilted.,117,6,6,0,0,1,1,1,1,1,1,1,0,0,0,0,1,7,8,117,space,4.774195299999974,None,1,0,1.4154897000003075,None,space,1.2163172999999006,None,0,0,0,0,,,,,0,6,6,5,117.17036039999994,,,,,,,,,,,,,,,,,,,,,117.1550357000001,117.17036039999994,117.65396180000016,117.65884860000006,117.67523900000015,119.10331360000009,,,,,119.10356289999982,119.11894029999985,119.31941790000019,119.30325210000001,117.67523900000015,,,,,,,,1,0,1.4154897000003075,None,,,,,,,,883,21,M,R,2026-02-18_11h45.27.784,VisualSearch_2526_3,,2025.2.4,2026-02-18 11h45.27.989301 +0100,
tilted.xlsx,The target is tilted.,117,7,7,0,1,1,1,1,0,0,0,0,0,0,0,0,0,3,4,117,space,4.774195299999974,None,0,0,1.1924913000002562,None,space,1.2163172999999006,None,0,0,0,0,,,,,0,7,7,2,119.31941790000019,,,,,,,,,,,,,,,,,,,,,119.30403419999993,119.31941790000019,119.80315669999982,119.80820810000023,119.82336010000017,121.01916470000015,,,,,121.01936720000003,121.03473350000013,121.23522450000019,121.21896100000004,119.82336010000017,,,,,,,,0,0,1.1924913000002562,None,,,,,,,,883,21,M,R,2026-02-18_11h45.27.784,VisualSearch_2526_3,,2025.2.4,2026-02-18 11h45.27.989301 +0100,
tilted.xlsx,The target is tilted.,117,8,0,1,1,1,1,1,1,1,1,1,1,1,1,1,0,11,12,117,space,4.774195299999974,None,1,1,1.4220938999997088,None,space,1.2163172999999006,None,0,0,0,0,,,,,1,0,8,0,121.23522450000019,,,,,,,,,,,,,,,,,,,,,121.21976300000006,121.23522450000019,121.71874200000002,121.72357719999991,121.7385760000002,123.1688736000001,,,,,123.16911160000018,123.18374610000001,123.3841425999999,123.36772849999988,121.7385760000002,,,,,,,,1,1,1.4220938999997088,None,,,,,,,,883,21,M,R,2026-02-18_11h45.27.784,VisualSearch_2526_3,,2025.2.4,2026-02-18 11h45.27.989301 +0100,
tilted.xlsx,The target is tilted.,117,9,1,1,0,1,1,1,1,1,1,1,1,1,1,1,1,11,12,117,space,4.774195299999974,None,0,1,2.047052200000053,None,space,1.2163172999999006,None,0,0,0,0,,,,,1,1,9,4,123.3841425999999,,,,,,,,,,,,,,,,,,,,,123.36845189999985,123.3841425999999,123.8676618999998,123.87258239999983,123.8877821000001,125.9498110999998,,,,,125.94996769999989,125.96582579999995,126.16629190000003,126.15008059999991,123.8877821000001,,,,,,,,0,1,2.047052200000053,None,,,,,,,,883,21,M,R,2026-02-18_11h45.27.784,VisualSearch_2526_3,,2025.2.4,2026-02-18 11h45.27.989301 +0100,
tilted.xlsx,The target is tilted.,117,10,2,1,0,1,1,1,0,0,0,0,0,0,0,0,1,3,4,117,space,4.774195299999974,None,0,1,0.8755025999998907,None,space,1.2163172999999006,None,0,0,0,0,,,,,1,2,10,6,126.16629190000003,,,,,,,,,,,,,,,,,,,,,126.15082829999983,126.16629190000003,126.64981930000022,126.65348459999996,126.66593009999997,127.54951290000008,,,,,127.54973530000007,127.5651069999999,127.76562039999999,127.74939380000023,126.66593009999997,,,,,,,,0,1,0.8755025999998907,None,,,,,,,,883,21,M,R,2026-02-18_11h45.27.784,VisualSearch_2526_3,,2025.2.4,2026-02-18 11h45.27.989301 +0100,
tilted.xlsx,The target is tilted.,117,11,3,1,1,1,1,1,0,0,0,0,0,0,0,0,0,3,4,117,space,4.774195299999974,None,0,0,0.9021142999999938,None,space,1.2163172999999006,None,0,0,0,0,,,,,1,3,11,2,127.76562039999999,,,,,,,,,,,,,,,,,,,,,127.75056170000016,127.76562039999999,128.24921769999992,128.25365069999998,128.26523980000002,129.18198200000006,,,,,129.18217820000018,129.19771040000023,129.39802710000004,129.38197820000005,128.26523980000002,,,,,,,,0,0,0.9021142999999938,None,,,,,,,,883,21,M,R,2026-02-18_11h45.27.784,VisualSearch_2526_3,,2025.2.4,2026-02-18 11h45.27.989301 +0100,
tilted.xlsx,The target is tilted.,117,12,4,1,0,0,0,0,0,0,0,0,0,0,0,0,1,1,1,117,space,4.774195299999974,None,0,1,0.5129023999998026,None,space,1.2163172999999006,None,0,0,0,0,,,,,1,4,12,7,129.39802710000004,,,,,,,,,,,,,,,,,,,,,129.3827712000002,129.39802710000004,129.88185410000006,129.8868166000002,129.9025391,130.43144600000005,,,,,130.43165720000025,130.44715429999997,130.64725249999992,130.63139120000005,129.9025391,,,,,,,,0,1,0.5129023999998026,None,,,,,,,,883,21,M,R,2026-02-18_11h45.27.784,VisualSearch_2526_3,,2025.2.4,2026-02-18 11h45.27.989301 +0100,
tilted.xlsx,The target is tilted.,117,13,5,1,1,0,0,0,0,0,0,0,0,0,0,0,0,0,1,117,space,4.774195299999974,None,0,0,0.8782755000001998,None,space,1.2163172999999006,None,0,0,0,0,,,,,1,5,13,3,130.64725249999992,,,,,,,,,,,,,,,,,,,,,130.63215070000024,130.64725249999992,131.1312183,131.13604859999987,131.15147419999994,132.03148490000012,,,,,132.03168689999984,132.04632919999995,132.24694290000025,132.23074290000022,131.15147419999994,,,,,,,,0,0,0.8782755000001998,None,,,,,,,,883,21,M,R,2026-02-18_11h45.27.784,VisualSearch_2526_3,,2025.2.4,2026-02-18 11h45.27.989301 +0100,
tilted.xlsx,The target is tilted.,117,14,6,1,0,1,1,1,1,1,1,1,0,0,0,0,1,7,8,117,space,4.774195299999974,None,1,0,0.8943273999998382,None,space,1.2163172999999006,None,0,0,0,0,,,,,1,6,14,5,132.24694290000025,,,,,,,,,,,,,,,,,,,,,132.2315540999998,132.24694290000025,132.73049660000015,132.73534999999993,132.75175549999994,133.6473587999999,,,,,133.64755520000017,133.6623383000001,133.86286139999993,133.84671960000014,132.75175549999994,,,,,,,,1,0,0.8943273999998382,None,,,,,,,,883,21,M,R,2026-02-18_11h45.27.784,VisualSearch_2526_3,,2025.2.4,2026-02-18 11h45.27.989301 +0100,
tilted.xlsx,The target is tilted.,117,15,7,1,1,1,1,1,1,1,1,1,0,0,0,0,0,7,8,117,space,4.774195299999974,None,1,1,1.4146830999998201,None,space,1.2163172999999006,None,0,0,0,0,,,,,1,7,15,1,133.86286139999993,,,,,,,,,,,,,,,,,,,,,133.8474471999998,133.86286139999993,134.34653939999998,134.35122630000023,134.36239530000012,135.77950439999995,,,,,135.77968079999982,135.7947251999999,135.9952014999999,135.9788005999999,134.36239530000012,,,,,,,,1,1,1.4146830999998201,None,,,,,,,,883,21,M,R,2026-02-18_11h45.27.784,VisualSearch_2526_3,,2025.2.4,2026-02-18 11h45.27.989301 +0100,
tilted.xlsx,The target is tilted.,117,16,0,2,1,1,1,1,0,0,0,0,0,0,0,0,0,3,4,117,space,4.774195299999974,None,1,1,1.14066720000028,None,space,1.2163172999999006,None,0,0,0,0,,,,,2,0,16,2,135.9952014999999,,,,,,,,,,,,,,,,,,,,,135.97962890000008,135.9952014999999,136.478748,136.4836089999999,136.49888069999997,137.64557830000012,,,,,137.64577820000022,137.66059670000004,137.860862,137.8448389,136.49888069999997,,,,,,,,1,1,1.14066720000028,None,,,,,,,,883,21,M,R,2026-02-18_11h45.27.784,VisualSearch_2526_3,,2025.2.4,2026-02-18 11h45.27.989301 +0100,
tilted.xlsx,The target is tilted.,117,17,1,2,1,1,1,1,1,1,1,1,0,0,0,0,0,7,8,117,space,4.774195299999974,None,1,1,1.2513826999997946,None,space,1.2163172999999006,None,0,0,0,0,,,,,2,1,17,1,137.860862,,,,,,,,,,,,,,,,,,,,,137.8456031999999,137.860862,138.34462870000016,138.34967929999993,138.3633590999998,139.62752170000022,,,,,139.62766999999985,139.64265320000004,139.84303950000003,139.82705239999996,138.3633590999998,,,,,,,,1,1,1.2513826999997946,None,,,,,,,,883,21,M,R,2026-02-18_11h45.27.784,VisualSearch_2526_3,,2025.2.4,2026-02-18 11h45.27.989301 +0100,
tilted.xlsx,The target is tilted.,117,18,2,2,1,1,1,1,1,1,1,1,1,1,1,1,0,11,12,117,space,4.774195299999974,None,0,0,3.6295498999998017,None,space,1.2163172999999006,None,0,0,0,0,,,,,2,2,18,0,139.84303950000003,,,,,,,,,,,,,,,,,,,,,139.82779140000002,139.84303950000003,140.32710709999992,140.33196409999982,140.3481237000001,143.9923232000001,,,,,143.99252669999987,144.0076310999998,144.20776669999987,144.19181939999999,140.3481237000001,,,,,,,,0,0,3.6295498999998017,None,,,,,,,,883,21,M,R,2026-02-18_11h45.27.784,VisualSearch_2526_3,,2025.2.4,2026-02-18 11h45.27.989301 +0100,
tilted.xlsx,The target is tilted.,117,19,3,2,1,0,0,0,0,0,0,0,0,0,0,0,0,0,1,117,space,4.774195299999974,None,0,0,0.9470468999998047,None,space,1.2163172999999006,None,0,0,0,0,,,,,2,3,19,3,144.20776669999987,,,,,,,,,,,,,,,,,,,,,144.19256559999985,144.20776669999987,144.69179160000022,144.69669780000004,144.71242380000012,145.67418210000005,,,,,145.67432680000002,145.69028830000025,145.89066000000003,145.87459649999983,144.71242380000012,,,,,,,,0,0,0.9470468999998047,None,,,,,,,,883,21,M,R,2026-02-18_11h45.27.784,VisualSearch_2526_3,,2025.2.4,2026-02-18 11h45.27.989301 +0100,
tilted.xlsx,The target is tilted.,117,20,4,2,0,1,1,1,0,0,0,0,0,0,0,0,1,3,4,117,space,4.774195299999974,None,0,1,2.161142099999779,None,space,1.2163172999999006,None,0,0,0,0,,,,,2,4,20,6,145.89066000000003,,,,,,,,,,,,,,,,,,,,,145.8753403999999,145.89066000000003,146.37432239999998,146.37923249999994,146.3937636999999,148.5568870000002,,,,,148.55708099999993,148.5722507999999,148.77276560000018,148.7564986000002,146.3937636999999,,,,,,,,0,1,2.161142099999779,None,,,,,,,,883,21,M,R,2026-02-18_11h45.27.784,VisualSearch_2526_3,,2025.2.4,2026-02-18 11h45.27.989301 +0100,
tilted.xlsx,The target is tilted.,117,21,5,2,0,1,1,1,1,1,1,1,1,1,1,1,1,11,12,117,space,4.774195299999974,None,1,0,1.9586571999998341,None,space,1.2163172999999006,None,0,0,0,0,,,,,2,5,21,4,148.77276560000018,,,,,,,,,,,,,,,,,,,,,148.7573050000001,148.77276560000018,149.25617950000014,149.2614641,149.27636040000016,151.23905289999993,,,,,151.2392679999998,151.2543882,151.4544936000002,151.43828889999986,149.27636040000016,,,,,,,,1,0,1.9586571999998341,None,,,,,,,,883,21,M,R,2026-02-18_11h45.27.784,VisualSearch_2526_3,,2025.2.4,2026-02-18 11h45.27.989301 +0100,
tilted.xlsx,The target is tilted.,117,22,6,2,0,0,0,0,0,0,0,0,0,0,0,0,1,1,1,117,space,4.774195299999974,None,0,1,0.5957226000000446,None,space,1.2163172999999006,None,0,0,0,0,,,,,2,6,22,7,151.4544936000002,,,,,,,,,,,,,,,,,,,,,151.43905829999994,151.4544936000002,151.9373958000001,151.93922969999994,151.95387230000006,152.55409980000013,,,,,152.55418409999993,152.5703343,152.77020010000024,152.7538098,151.95387230000006,,,,,,,,0,1,0.5957226000000446,None,,,,,,,,883,21,M,R,2026-02-18_11h45.27.784,VisualSearch_2526_3,,2025.2.4,2026-02-18 11h45.27.989301 +0100,
tilted.xlsx,The target is tilted.,117,23,7,2,0,1,1,1,1,1,1,1,0,0,0,0,1,7,8,117,space,4.774195299999974,None,1,0,1.8511604000000261,None,space,1.2163172999999006,None,0,0,0,0,,,,,2,7,23,5,152.77020010000024,,,,,,,,,,,,,,,,,,,,,152.75414189999992,152.77020010000024,153.2535226,153.25528350000013,153.26991069999985,155.13616649999994,,,,,155.13629489999994,155.15297640000017,,155.33688110000003,153.26991069999985,,,,,,,,1,0,1.8511604000000261,None,,,,,,,,883,21,M,R,2026-02-18_11h45.27.784,VisualSearch_2526_3,,2025.2.4,2026-02-18 11h45.27.989301 +0100,
tilted.xlsx,The target is tilted.,117,24,0,3,0,0,0,0,0,0,0,0,0,0,0,0,1,1,1,117,space,4.774195299999974,None,0,1,0.6112957000000279,None,space,1.2163172999999006,None,0,0,0,0,,,,,3,0,24,7,155.3532180000002,,,,,,,,,,,,,,,,,,,,,155.33773740000015,155.3532180000002,155.83654079999997,155.84160380000003,155.85451710000007,156.46997409999994,,,,,156.47018419999995,156.48536169999988,156.6857955999999,156.66964229999985,,,,,,,,,0,1,0.6112957000000279,None,,,,,,,,883,21,M,R,2026-02-18_11h45.27.784,VisualSearch_2526_3,,2025.2.4,2026-02-18 11h45.27.989301 +0100,
tilted.xlsx,The target is tilted.,117,25,1,3,1,1,1,1,0,0,0,0,0,0,0,0,0,3,4,117,space,4.774195299999974,None,0,0,1.397379600000022,None,space,1.2163172999999006,None,0,0,0,0,,,,,3,1,25,2,156.6857955999999,,,,,,,,,,,,,,,,,,,,,156.67040270000007,156.6857955999999,157.16949720000002,157.1740832999999,157.18547050000006,158.58604460000015,,,,,158.5867118000001,158.6010752000002,158.8015574000001,158.7853639,157.18547050000006,,,,,,,,0,0,1.397379600000022,None,,,,,,,,883,21,M,R,2026-02-18_11h45.27.784,VisualSearch_2526_3,,2025.2.4,2026-02-18 11h45.27.989301 +0100,
tilted.xlsx,The target is tilted.,117,26,2,3,0,1,1,1,0,0,0,0,0,0,0,0,1,3,4,117,space,4.774195299999974,None,0,1,1.2645980000002055,None,space,1.2163172999999006,None,0,0,0,0,,,,,3,2,26,6,158.8015574000001,,,,,,,,,,,,,,,,,,,,,158.78613760000007,158.8015574000001,159.28490899999997,159.2899849999999,159.30569890000015,160.58409389999997,,,,,160.58423129999983,160.60011299999996,160.80057979999992,160.78442180000002,159.30569890000015,,,,,,,,0,1,1.2645980000002055,None,,,,,,,,883,21,M,R,2026-02-18_11h45.27.784,VisualSearch_2526_3,,2025.2.4,2026-02-18 11h45.27.989301 +0100,
tilted.xlsx,The target is tilted.,117,27,3,3,0,1,1,1,1,1,1,1,1,1,1,1,1,11,12,117,space,4.774195299999974,None,1,0,1.0516380999997637,None,space,1.2163172999999006,None,0,0,0,0,,,,,3,3,27,4,160.80057979999992,,,,,,,,,,,,,,,,,,,,,160.78519940000024,160.80057979999992,161.2841957999999,161.28918440000007,161.30566279999994,162.36775380000017,,,,,162.3679689999999,162.38265950000005,162.58304260000023,162.56666640000003,161.30566279999994,,,,,,,,1,0,1.0516380999997637,None,,,,,,,,883,21,M,R,2026-02-18_11h45.27.784,VisualSearch_2526_3,,2025.2.4,2026-02-18 11h45.27.989301 +0100,
tilted.xlsx,The target is tilted.,117,28,4,3,0,1,1,1,1,1,1,1,0,0,0,0,1,7,8,117,space,4.774195299999974,None,0,1,1.9707786999997552,None,space,1.2163172999999006,None,0,0,0,0,,,,,3,4,28,5,162.58304260000023,,,,,,,,,,,,,,,,,,,,,162.56741610000017,162.58304260000023,163.06606980000015,163.06960040000013,163.08318250000002,165.06590800000004,,,,,165.0661126,165.08143680000012,165.28198789999988,165.26585710000018,163.08318250000002,,,,,,,,0,1,1.9707786999997552,None,,,,,,,,883,21,M,R,2026-02-18_11h45.27.784,VisualSearch_2526_3,,2025.2.4,2026-02-18 11h45.27.989301 +0100,
tilted.xlsx,The target is tilted.,117,29,5,3,1,0,0,0,0,0,0,0,0,0,0,0,0,0,1,117,space,4.774195299999974,None,0,0,0.6893211999999949,None,space,1.2163172999999006,None,0,0,0,0,,,,,3,5,29,3,165.28198789999988,,,,,,,,,,,,,,,,,,,,,165.26668150000023,165.28198789999988,165.7657374999999,165.77143239999987,165.78511340000023,166.4823578999999,,,,,166.48255319999998,166.49747190000016,166.69783310000003,166.68179899999996,165.78511340000023,,,,,,,,0,0,0.6893211999999949,None,,,,,,,,883,21,M,R,2026-02-18_11h45.27.784,VisualSearch_2526_3,,2025.2.4,2026-02-18 11h45.27.989301 +0100,
tilted.xlsx,The target is tilted.,117,30,6,3,1,1,1,1,1,1,1,1,0,0,0,0,0,7,8,117,space,4.774195299999974,None,1,1,2.460042700000031,None,space,1.2163172999999006,None,0,0,0,0,,,,,3,6,30,1,166.69783310000003,,,,,,,,,,,,,,,,,,,,,166.68256960000008,166.69783310000003,167.18164350000006,167.18661079999993,167.20207519999985,169.66354009999986,,,,,169.66363300000012,169.67908110000008,169.87982469999997,169.8636544000001,167.20207519999985,,,,,,,,1,1,2.460042700000031,None,,,,,,,,883,21,M,R,2026-02-18_11h45.27.784,VisualSearch_2526_3,,2025.2.4,2026-02-18 11h45.27.989301 +0100,
tilted.xlsx,The target is tilted.,117,31,7,3,1,1,1,1,1,1,1,1,1,1,1,1,0,11,12,117,space,4.774195299999974,None,1,1,1.9365339999999378,None,space,1.2163172999999006,None,0,0,0,0,,,,,3,7,31,0,169.87982469999997,,,,,,,,,,,,,,,,,,,,,169.86445820000017,169.87982469999997,170.36343369999986,170.36838290000014,170.38585280000007,172.32975709999982,,,,,172.32995250000022,172.34465330000012,172.54529309999998,172.52903190000006,170.38585280000007,,,,,,,,1,1,1.9365339999999378,None,,,,,,,,883,21,M,R,2026-02-18_11h45.27.784,VisualSearch_2526_3,,2025.2.4,2026-02-18 11h45.27.989301 +0100,
tilted.xlsx,The target is tilted.,117,32,0,4,1,1,1,1,1,1,1,1,1,1,1,1,0,11,12,117,space,4.774195299999974,None,0,0,2.339059200000065,None,space,1.2163172999999006,None,0,0,0,0,,,,,4,0,32,0,172.54529309999998,,,,,,,,,,,,,,,,,,,,,172.52982139999995,172.54529309999998,173.02886020000005,173.03405030000022,173.0490804000001,175.3945905999999,,,,,175.3947317000002,175.40986810000004,175.61046979999992,175.5943060999998,173.0490804000001,,,,,,,,0,0,2.339059200000065,None,,,,,,,,883,21,M,R,2026-02-18_11h45.27.784,VisualSearch_2526_3,,2025.2.4,2026-02-18 11h45.27.989301 +0100,
tilted.xlsx,The target is tilted.,117,33,1,4,0,1,1,1,1,1,1,1,0,0,0,0,1,7,8,117,space,4.774195299999974,None,1,0,1.8779288000000633,None,space,1.2163172999999006,None,0,0,0,0,,,,,4,1,33,5,175.61046979999992,,,,,,,,,,,,,,,,,,,,,175.5950729000001,175.61046979999992,176.09416640000018,176.09908630000018,176.1149049999999,178.0093098000002,,,,,178.00942080000004,178.02595689999998,,178.2096335000001,176.1149049999999,,,,,,,,1,0,1.8779288000000633,None,,,,,,,,883,21,M,R,2026-02-18_11h45.27.784,VisualSearch_2526_3,,2025.2.4,2026-02-18 11h45.27.989301 +0100,
tilted.xlsx,The target is tilted.,117,34,2,4,0,1,1,1,1,1,1,1,1,1,1,1,1,11,12,117,space,4.774195299999974,None,1,0,1.6876416999998582,None,space,1.2163172999999006,None,0,0,0,0,,,,,4,2,34,4,178.2259715,,,,,,,,,,,,,,,,,,,,,178.21038690000023,178.2259715,178.70953839999993,178.71440250000023,178.72868740000013,180.4261151999999,,,,,180.42630850000023,180.44104759999982,180.64162739999983,180.6255059,178.72868740000013,,,,,,,,1,0,1.6876416999998582,None,,,,,,,,883,21,M,R,2026-02-18_11h45.27.784,VisualSearch_2526_3,,2025.2.4,2026-02-18 11h45.27.989301 +0100,
tilted.xlsx,The target is tilted.,117,35,3,4,0,1,1,1,0,0,0,0,0,0,0,0,1,3,4,117,space,4.774195299999974,None,0,1,0.7824039000001903,None,space,1.2163172999999006,None,0,0,0,0,,,,,4,3,35,6,180.64162739999983,,,,,,,,,,,,,,,,,,,,,180.62622899999997,180.64162739999983,181.12511029999996,181.13002760000018,181.1472146000001,181.94167900000002,,,,,181.94181579999986,181.95711500000016,182.1571938000002,182.14137970000002,181.1472146000001,,,,,,,,0,1,0.7824039000001903,None,,,,,,,,883,21,M,R,2026-02-18_11h45.27.784,VisualSearch_2526_3,,2025.2.4,2026-02-18 11h45.27.989301 +0100,
tilted.xlsx,The target is tilted.,117,36,4,4,1,1,1,1,1,1,1,1,0,0,0,0,0,7,8,117,space,4.774195299999974,None,0,0,2.048041999999896,None,space,1.2163172999999006,None,0,0,0,0,,,,,4,4,36,1,182.1571938000002,,,,,,,,,,,,,,,,,,,,,182.14214420000008,182.1571938000002,182.64116879999983,182.6460176999999,182.6618671000001,184.72344629999998,,,,,184.72362770000018,184.7392546000001,184.93965400000025,184.92351740000004,182.6618671000001,,,,,,,,0,0,2.048041999999896,None,,,,,,,,883,21,M,R,2026-02-18_11h45.27.784,VisualSearch_2526_3,,2025.2.4,2026-02-18 11h45.27.989301 +0100,
tilted.xlsx,The target is tilted.,117,37,5,4,1,1,1,1,0,0,0,0,0,0,0,0,0,3,4,117,space,4.774195299999974,None,0,0,1.0914615000001504,None,space,1.2163172999999006,None,0,0,0,0,,,,,4,5,37,2,184.93965400000025,,,,,,,,,,,,,,,,,,,,,184.92423880000024,184.93965400000025,185.42336430000023,185.42826659999992,185.44339219999983,186.53980890000003,,,,,186.5399897000002,186.55503,186.75554580000016,186.73926269999993,185.44339219999983,,,,,,,,0,0,1.0914615000001504,None,,,,,,,,883,21,M,R,2026-02-18_11h45.27.784,VisualSearch_2526_3,,2025.2.4,2026-02-18 11h45.27.989301 +0100,
tilted.xlsx,The target is tilted.,117,38,6,4,0,0,0,0,0,0,0,0,0,0,0,0,1,1,1,117,space,4.774195299999974,None,0,1,0.5264654000002338,None,space,1.2163172999999006,None,0,0,0,0,,,,,4,6,38,7,186.75554580000016,,,,,,,,,,,,,,,,,,,,,186.74006340000005,186.75554580000016,187.23905479999985,187.24391789999981,187.26016130000016,187.7894471999998,,,,,187.78965900000003,187.8044358000002,188.0049239,187.9887060000001,187.26016130000016,,,,,,,,0,1,0.5264654000002338,None,,,,,,,,883,21,M,R,2026-02-18_11h45.27.784,VisualSearch_2526_3,,2025.2.4,2026-02-18 11h45.27.989301 +0100,
tilted.xlsx,The target is tilted.,117,39,7,4,1,0,0,0,0,0,0,0,0,0,0,0,0,0,1,117,space,4.774195299999974,None,0,0,0.7632570999999189,None,space,1.2163172999999006,None,0,0,0,0,,,,,4,7,39,3,188.0049239,,,,,,,,,,,,,,,,,,,,,187.98945120000008,188.0049239,188.48855820000017,188.49381489999996,188.50890560000016,189.28817600000002,,,,,189.2884035000002,189.30379660000017,189.50417849999985,189.4877591999998,188.50890560000016,,,,,,,,0,0,0.7632570999999189,None,,,,,,,,883,21,M,R,2026-02-18_11h45.27.784,VisualSearch_2526_3,,2025.2.4,2026-02-18 11h45.27.989301 +0100,
tilted.xlsx,The target is tilted.,117,40,0,5,0,1,1,1,1,1,1,1,0,0,0,0,1,7,8,117,space,4.774195299999974,None,1,0,3.938347199999953,None,space,1.2163172999999006,None,0,0,0,0,,,,,5,0,40,5,189.50417849999985,,,,,,,,,,,,,,,,,,,,,189.48851710000008,189.50417849999985,189.98764540000002,189.99250100000017,190.00770460000012,193.9528279000001,,,,,193.95296839999992,193.96830060000002,194.1684037,194.15245140000025,190.00770460000012,,,,,,,,1,0,3.938347199999953,None,,,,,,,,883,21,M,R,2026-02-18_11h45.27.784,VisualSearch_2526_3,,2025.2.4,2026-02-18 11h45.27.989301 +0100,
tilted.xlsx,The target is tilted.,117,41,1,5,1,1,1,1,0,0,0,0,0,0,0,0,0,3,4,117,space,4.774195299999974,None,1,1,0.8770250999996279,None,space,1.2163172999999006,None,0,0,0,0,,,,,5,1,41,2,194.1684037,,,,,,,,,,,,,,,,,,,,,194.15320770000017,194.1684037,194.65243360000022,194.65719179999996,194.66840379999985,195.55235099999982,,,,,195.55253029999994,195.56765760000008,195.76769990000003,195.75178219999998,194.66840379999985,,,,,,,,1,1,0.8770250999996279,None,,,,,,,,883,21,M,R,2026-02-18_11h45.27.784,VisualSearch_2526_3,,2025.2.4,2026-02-18 11h45.27.989301 +0100,
tilted.xlsx,The target is tilted.,117,42,2,5,1,1,1,1,1,1,1,1,1,1,1,1,0,11,12,117,space,4.774195299999974,None,1,1,4.294578800000181,None,space,1.2163172999999006,None,0,0,0,0,,,,,5,2,42,0,195.76769990000003,,,,,,,,,,,,,,,,,,,,,195.7525341999999,195.76769990000003,196.25176950000014,196.2567168999999,196.27241270000013,200.58300180000015,,,,,200.5832104000001,200.59866650000004,200.79864959999986,200.78326270000025,196.27241270000013,,,,,,,,1,1,4.294578800000181,None,,,,,,,,883,21,M,R,2026-02-18_11h45.27.784,VisualSearch_2526_3,,2025.2.4,2026-02-18 11h45.27.989301 +0100,
tilted.xlsx,The target is tilted.,117,43,3,5,0,0,0,0,0,0,0,0,0,0,0,0,1,1,1,117,space,4.774195299999974,None,0,1,0.8408494999998766,None,space,1.2163172999999006,None,0,0,0,0,,,,,5,3,43,7,200.79864959999986,,,,,,,,,,,,,,,,,,,,,200.78408600000012,200.79864959999986,201.28250049999997,201.2875693000001,201.3027643999999,202.14939370000002,,,,,202.14960109999993,202.16460869999992,202.3650017,202.3485814999999,201.3027643999999,,,,,,,,0,1,0.8408494999998766,None,,,,,,,,883,21,M,R,2026-02-18_11h45.27.784,VisualSearch_2526_3,,2025.2.4,2026-02-18 11h45.27.989301 +0100,
tilted.xlsx,The target is tilted.,117,44,4,5,1,1,1,1,1,1,1,1,0,0,0,0,0,7,8,117,space,4.774195299999974,None,1,1,1.3514956999997594,None,space,1.2163172999999006,None,0,0,0,0,,,,,5,4,44,1,202.3650017,,,,,,,,,,,,,,,,,,,,,202.34931319999987,202.3650017,202.8484966000001,202.8533056000001,202.87108230000013,204.23183130000007,,,,,204.23200730000008,204.24700299999995,204.44713839999986,204.43133119999993,202.87108230000013,,,,,,,,1,1,1.3514956999997594,None,,,,,,,,883,21,M,R,2026-02-18_11h45.27.784,VisualSearch_2526_3,,2025.2.4,2026-02-18 11h45.27.989301 +0100,
tilted.xlsx,The target is tilted.,117,45,5,5,0,1,1,1,0,0,0,0,0,0,0,0,1,3,4,117,space,4.774195299999974,None,0,1,1.3163719000003766,None,space,1.2163172999999006,None,0,0,0,0,,,,,5,5,45,6,204.44713839999986,,,,,,,,,,,,,,,,,,,,,204.43210940000017,204.44713839999986,204.93079480000006,204.93565339999986,204.94807029999993,206.2802029999998,,,,,206.28036500000007,206.2960905,206.496576,206.4804291999999,204.94807029999993,,,,,,,,0,1,1.3163719000003766,None,,,,,,,,883,21,M,R,2026-02-18_11h45.27.784,VisualSearch_2526_3,,2025.2.4,2026-02-18 11h45.27.989301 +0100,
tilted.xlsx,The target is tilted.,117,46,6,5,1,0,0,0,0,0,0,0,0,0,0,0,0,0,1,117,space,4.774195299999974,None,1,1,0.6862103000003117,None,space,1.2163172999999006,None,0,0,0,0,,,,,5,6,46,3,206.496576,,,,,,,,,,,,,,,,,,,,,206.48120610000024,206.496576,206.98014869999997,206.98498359999985,206.99921780000022,207.69669209999984,,,,,207.69683590000022,207.71209709999994,207.91261339999983,207.89643410000008,206.99921780000022,,,,,,,,1,1,0.6862103000003117,None,,,,,,,,883,21,M,R,2026-02-18_11h45.27.784,VisualSearch_2526_3,,2025.2.4,2026-02-18 11h45.27.989301 +0100,
tilted.xlsx,The target is tilted.,117,47,7,5,0,1,1,1,1,1,1,1,1,1,1,1,1,11,12,117,space,4.774195299999974,None,0,1,3.0435782999998082,None,space,1.2163172999999006,None,0,0,0,0,,,,,5,7,47,4,207.91261339999983,,,,,,,,,,,,,,,,,,,,,207.89718690000018,207.91261339999983,208.3962915000002,208.4011888,208.4165742,211.4620887000001,,,,,211.46229949999997,211.4771535,211.67713959999992,211.66134360000024,208.4165742,,,,,,,,0,1,3.0435782999998082,None,,,,,,,,883,21,M,R,2026-02-18_11h45.27.784,VisualSearch_2526_3,,2025.2.4,2026-02-18 11h45.27.989301 +0100,
tilted.xlsx,The target is tilted.,117,48,0,6,1,0,0,0,0,0,0,0,0,0,0,0,0,0,1,117,space,4.774195299999974,None,1,1,0.6393173000001298,None,space,1.2163172999999006,None,0,0,0,0,,,,,6,0,48,3,211.67713959999992,,,,,,,,,,,,,,,,,,,,,211.66210679999995,211.67713959999992,212.16089680000005,212.16577640000014,212.1818045,212.8281075,,,,,212.82830479999984,212.84314589999985,213.04354419999981,213.02745570000025,212.1818045,,,,,,,,1,1,0.6393173000001298,None,,,,,,,,883,21,M,R,2026-02-18_11h45.27.784,VisualSearch_2526_3,,2025.2.4,2026-02-18 11h45.27.989301 +0100,
tilted.xlsx,The target is tilted.,117,49,1,6,0,1,1,1,1,1,1,1,1,1,1,1,1,11,12,117,space,4.774195299999974,None,0,1,4.410037699999975,None,space,1.2163172999999006,None,0,0,0,0,,,,,6,1,49,4,213.04354419999981,,,,,,,,,,,,,,,,,,,,,213.02819529999988,213.04354419999981,213.52733290000015,213.5326160999998,213.5476010000002,217.9746854,,,,,217.97482330000003,217.99123090000012,,218.17497890000004,213.5476010000002,,,,,,,,0,1,4.410037699999975,None,,,,,,,,883,21,M,R,2026-02-18_11h45.27.784,VisualSearch_2526_3,,2025.2.4,2026-02-18 11h45.27.989301 +0100,
tilted.xlsx,The target is tilted.,117,50,2,6,1,1,1,1,1,1,1,1,1,1,1,1,0,11,12,117,space,4.774195299999974,None,1,1,1.1554439999999886,None,space,1.2163172999999006,None,0,0,0,0,,,,,6,2,50,0,218.19116350000013,,,,,,,,,,,,,,,,,,,,,218.1757679000002,218.19116350000013,218.67496230000006,218.67974189999995,218.69600500000024,219.85788950000006,,,,,219.85817159999988,219.87324510000008,220.07333030000018,220.05720389999988,218.69600500000024,,,,,,,,1,1,1.1554439999999886,None,,,,,,,,883,21,M,R,2026-02-18_11h45.27.784,VisualSearch_2526_3,,2025.2.4,2026-02-18 11h45.27.989301 +0100,
tilted.xlsx,The target is tilted.,117,51,3,6,0,1,1,1,1,1,1,1,0,0,0,0,1,7,8,117,space,4.774195299999974,None,1,0,2.158898700000009,None,space,1.2163172999999006,None,0,0,0,0,,,,,6,3,51,5,220.07333030000018,,,,,,,,,,,,,,,,,,,,,220.05755520000002,220.07333030000018,220.55749520000018,220.56228629999987,220.5784337,222.7402557999999,,,,,222.74046809999982,222.7553001000001,222.9556977000002,222.93928779999987,220.5784337,,,,,,,,1,0,2.158898700000009,None,,,,,,,,883,21,M,R,2026-02-18_11h45.27.784,VisualSearch_2526_3,,2025.2.4,2026-02-18 11h45.27.989301 +0100,
tilted.xlsx,The target is tilted.,117,52,4,6,0,0,0,0,0,0,0,0,0,0,0,0,1,1,1,117,space,4.774195299999974,None,0,1,0.6736627999998746,None,space,1.2163172999999006,None,0,0,0,0,,,,,6,4,52,7,222.9556977000002,,,,,,,,,,,,,,,,,,,,,222.94003599999996,222.9556977000002,223.43933329999982,223.44422650000024,223.4601477000001,224.13963860000013,,,,,224.1398036999999,224.1547002000002,224.35515729999997,224.3388863,223.4601477000001,,,,,,,,0,1,0.6736627999998746,None,,,,,,,,883,21,M,R,2026-02-18_11h45.27.784,VisualSearch_2526_3,,2025.2.4,2026-02-18 11h45.27.989301 +0100,
tilted.xlsx,The target is tilted.,117,53,5,6,0,1,1,1,0,0,0,0,0,0,0,0,1,3,4,117,space,4.774195299999974,None,0,1,1.333919700000024,None,space,1.2163172999999006,None,0,0,0,0,,,,,6,5,53,6,224.35515729999997,,,,,,,,,,,,,,,,,,,,,224.3396389999998,224.35515729999997,224.83866660000012,224.84353379999993,224.85891700000002,226.20477970000002,,,,,226.20502350000015,226.2203559999998,226.42033410000022,226.4047774999999,224.85891700000002,,,,,,,,0,1,1.333919700000024,None,,,,,,,,883,21,M,R,2026-02-18_11h45.27.784,VisualSearch_2526_3,,2025.2.4,2026-02-18 11h45.27.989301 +0100,
tilted.xlsx,The target is tilted.,117,54,6,6,1,1,1,1,0,0,0,0,0,0,0,0,0,3,4,117,space,4.774195299999974,None,1,1,0.7092357000001357,None,space,1.2163172999999006,None,0,0,0,0,,,,,6,6,54,2,226.42033410000022,,,,,,,,,,,,,,,,,,,,,226.40551529999993,226.42033410000022,226.9044426999999,226.90940619999992,226.9267493000002,227.63826400000016,,,,,227.63847339999984,227.6530733999998,227.8535992000002,227.8375463000002,226.9267493000002,,,,,,,,1,1,0.7092357000001357,None,,,,,,,,883,21,M,R,2026-02-18_11h45.27.784,VisualSearch_2526_3,,2025.2.4,2026-02-18 11h45.27.989301 +0100,
tilted.xlsx,The target is tilted.,117,55,7,6,1,1,1,1,1,1,1,1,0,0,0,0,0,7,8,117,space,4.774195299999974,None,1,1,1.2324595999998564,None,space,1.2163172999999006,None,0,0,0,0,,,,,6,7,55,1,227.8535992000002,,,,,,,,,,,,,,,,,,,,,227.83833719999984,227.8535992000002,228.3371618000001,228.34195920000002,228.3580922000001,229.60304619999988,,,,,229.6032239000001,229.6188121,229.81929930000024,229.80309750000015,228.3580922000001,,,,,,,,1,1,1.2324595999998564,None,,,,,,,,883,21,M,R,2026-02-18_11h45.27.784,VisualSearch_2526_3,,2025.2.4,2026-02-18 11h45.27.989301 +0100,
tilted.xlsx,The target is tilted.,117,56,0,7,1,1,1,1,1,1,1,1,0,0,0,0,0,7,8,117,space,4.774195299999974,None,1,1,0.8617941999996219,None,space,1.2163172999999006,None,0,0,0,0,,,,,7,0,56,1,229.81929930000024,,,,,,,,,,,,,,,,,,,,,229.80383260000008,229.81929930000024,230.30293389999997,230.30772449999995,230.32302429999982,231.18637560000025,,,,,231.18656999999985,231.2014634000002,231.4017632,231.38554639999984,230.32302429999982,,,,,,,,1,1,0.8617941999996219,None,,,,,,,,883,21,M,R,2026-02-18_11h45.27.784,VisualSearch_2526_3,,2025.2.4,2026-02-18 11h45.27.989301 +0100,
tilted.xlsx,The target is tilted.,117,57,1,7,0,1,1,1,1,1,1,1,1,1,1,1,1,11,12,117,space,4.774195299999974,None,1,0,0.8450447999998687,None,space,1.2163172999999006,None,0,0,0,0,,,,,7,1,57,4,231.4017632,,,,,,,,,,,,,,,,,,,,,231.3862726000002,231.4017632,231.88558449999982,231.8904923,231.90577220000023,232.75205199999982,,,,,232.75230509999983,232.76717820000022,232.96772210000017,232.95170569999982,231.90577220000023,,,,,,,,1,0,0.8450447999998687,None,,,,,,,,883,21,M,R,2026-02-18_11h45.27.784,VisualSearch_2526_3,,2025.2.4,2026-02-18 11h45.27.989301 +0100,
tilted.xlsx,The target is tilted.,117,58,2,7,0,1,1,1,1,1,1,1,0,0,0,0,1,7,8,117,space,4.774195299999974,None,1,0,2.233475399999861,None,space,1.2163172999999006,None,0,0,0,0,,,,,7,2,58,5,232.96772210000017,,,,,,,,,,,,,,,,,,,,,232.95247229999995,232.96772210000017,233.4515947,233.4563280000002,233.47474809999994,235.71777520000023,,,,,235.71797860000015,235.73272940000015,235.93325249999998,235.9171425999998,233.47474809999994,,,,,,,,1,0,2.233475399999861,None,,,,,,,,883,21,M,R,2026-02-18_11h45.27.784,VisualSearch_2526_3,,2025.2.4,2026-02-18 11h45.27.989301 +0100,
tilted.xlsx,The target is tilted.,117,59,3,7,1,0,0,0,0,0,0,0,0,0,0,0,0,0,1,117,space,4.774195299999974,None,1,1,0.674748400000226,None,space,1.2163172999999006,None,0,0,0,0,,,,,7,3,59,3,235.93325249999998,,,,,,,,,,,,,,,,,,,,,235.9178551,235.93325249999998,236.41684350000014,236.42173000000003,236.43709239999998,237.11683630000016,,,,,237.11702860000014,237.13207490000013,237.3325829999999,237.31641059999993,236.43709239999998,,,,,,,,1,1,0.674748400000226,None,,,,,,,,883,21,M,R,2026-02-18_11h45.27.784,VisualSearch_2526_3,,2025.2.4,2026-02-18 11h45.27.989301 +0100,
tilted.xlsx,The target is tilted.,117,60,4,7,0,0,0,0,0,0,0,0,0,0,0,0,1,1,1,117,space,4.774195299999974,None,0,1,0.6049774999996771,None,space,1.2163172999999006,None,0,0,0,0,,,,,7,4,60,7,237.3325829999999,,,,,,,,,,,,,,,,,,,,,237.31719070000008,237.3325829999999,237.815924,237.82073500000024,237.8362361999998,238.44932130000007,,,,,238.44951489999994,238.46483799999987,238.66519319999998,238.64908130000003,237.8362361999998,,,,,,,,0,1,0.6049774999996771,None,,,,,,,,883,21,M,R,2026-02-18_11h45.27.784,VisualSearch_2526_3,,2025.2.4,2026-02-18 11h45.27.989301 +0100,
tilted.xlsx,The target is tilted.,117,61,5,7,1,1,1,1,0,0,0,0,0,0,0,0,0,3,4,117,space,4.774195299999974,None,1,1,0.8163532999997187,None,space,1.2163172999999006,None,0,0,0,0,,,,,7,5,61,2,238.66519319999998,,,,,,,,,,,,,,,,,,,,,238.64983269999993,238.66519319999998,239.14885000000004,239.15378340000007,239.16826390000006,239.99848479999991,,,,,239.99869910000007,240.01403720000008,240.2143901999998,240.19823309999992,239.16826390000006,,,,,,,,1,1,0.8163532999997187,None,,,,,,,,883,21,M,R,2026-02-18_11h45.27.784,VisualSearch_2526_3,,2025.2.4,2026-02-18 11h45.27.989301 +0100,
tilted.xlsx,The target is tilted.,117,62,6,7,0,1,1,1,0,0,0,0,0,0,0,0,1,3,4,117,space,4.774195299999974,None,0,1,0.927364199999829,None,space,1.2163172999999006,None,0,0,0,0,,,,,7,6,62,6,240.2143901999998,,,,,,,,,,,,,,,,,,,,,240.1990184000001,240.2143901999998,240.6978337999999,240.70273029999998,240.7171787000002,241.64798999999994,,,,,241.64818509999986,241.66340119999995,241.86384570000018,241.84755959999984,240.7171787000002,,,,,,,,0,1,0.927364199999829,None,,,,,,,,883,21,M,R,2026-02-18_11h45.27.784,VisualSearch_2526_3,,2025.2.4,2026-02-18 11h45.27.989301 +0100,
tilted.xlsx,The target is tilted.,117,63,7,7,1,1,1,1,1,1,1,1,1,1,1,1,0,11,12,117,space,4.774195299999974,None,1,1,0.9386567999999897,None,space,1.2163172999999006,None,0,0,0,0,,,,,7,7,63,0,241.86384570000018,,,,,,,,,,,,,,,,,,,,,241.84835740000017,241.86384570000018,242.3475853,242.35240329999988,242.36779780000006,243.31429059999982,,,,,243.3144828999998,243.32935369999996,243.52970970000024,243.51361910000014,242.36779780000006,,,,,,,,1,1,0.9386567999999897,None,,,,,,,,883,21,M,R,2026-02-18_11h45.27.784,VisualSearch_2526_3,,2025.2.4,2026-02-18 11h45.27.989301 +0100,
tilted.xlsx,The target is tilted.,117,64,0,8,1,1,1,1,1,1,1,1,1,1,1,1,0,11,12,117,space,4.774195299999974,None,1,1,1.660028400000101,None,space,1.2163172999999006,None,0,0,0,0,,,,,8,0,64,0,243.52970970000024,,,,,,,,,,,,,,,,,,,,,243.51437970000006,243.52970970000024,244.01345519999995,244.01826399999982,244.0332027999998,245.69613750000008,,,,,245.6962742999999,245.71156560000009,245.9120514000001,245.8958518999998,244.0332027999998,,,,,,,,1,1,1.660028400000101,None,,,,,,,,883,21,M,R,2026-02-18_11h45.27.784,VisualSearch_2526_3,,2025.2.4,2026-02-18 11h45.27.989301 +0100,
tilted.xlsx,The target is tilted.,117,65,1,8,0,0,0,0,0,0,0,0,0,0,0,0,1,1,1,117,space,4.774195299999974,None,0,1,0.5494014000000789,None,space,1.2163172999999006,None,0,0,0,0,,,,,8,1,65,7,245.9120514000001,,,,,,,,,,,,,,,,,,,,,245.8966329,245.9120514000001,246.39572399999997,246.40055170000005,246.41631860000007,246.97871429999987,,,,,246.97892349999984,246.99451550000003,247.19479050000018,247.17852170000015,246.41631860000007,,,,,,,,0,1,0.5494014000000789,None,,,,,,,,883,21,M,R,2026-02-18_11h45.27.784,VisualSearch_2526_3,,2025.2.4,2026-02-18 11h45.27.989301 +0100,
tilted.xlsx,The target is tilted.,117,66,2,8,0,1,1,1,1,1,1,1,0,0,0,0,1,7,8,117,space,4.774195299999974,None,1,0,2.0792672000002312,None,space,1.2163172999999006,None,0,0,0,0,,,,,8,2,66,5,247.19479050000018,,,,,,,,,,,,,,,,,,,,,247.1792691999999,247.19479050000018,247.67812110000023,247.68296539999983,247.69830150000007,249.7938809000002,,,,,249.7940555,249.8096928,250.01018999999997,249.99402820000023,247.69830150000007,,,,,,,,1,0,2.0792672000002312,None,,,,,,,,883,21,M,R,2026-02-18_11h45.27.784,VisualSearch_2526_3,,2025.2.4,2026-02-18 11h45.27.989301 +0100,
tilted.xlsx,The target is tilted.,117,67,3,8,1,1,1,1,1,1,1,1,0,0,0,0,0,7,8,117,space,4.774195299999974,None,1,1,2.0884774000001016,None,space,1.2163172999999006,None,0,0,0,0,,,,,8,3,67,1,250.01018999999997,,,,,,,,,,,,,,,,,,,,,249.99477620000016,250.01018999999997,250.4936846999999,250.49857800000018,250.51332469999988,252.60991809999996,,,,,252.61009839999997,252.62509120000004,252.82538310000018,252.80930059999991,250.51332469999988,,,,,,,,1,1,2.0884774000001016,None,,,,,,,,883,21,M,R,2026-02-18_11h45.27.784,VisualSearch_2526_3,,2025.2.4,2026-02-18 11h45.27.989301 +0100,
tilted.xlsx,The target is tilted.,117,68,4,8,0,1,1,1,1,1,1,1,1,1,1,1,1,11,12,117,space,4.774195299999974,None,0,1,2.1368852999999035,None,space,1.2163172999999006,None,0,0,0,0,,,,,8,4,68,4,252.82538310000018,,,,,,,,,,,,,,,,,,,,,252.81007309999995,252.82538310000018,253.30912050000006,253.31400040000017,253.3291038000002,255.47499030000017,,,,,255.47513160000017,255.49035970000023,255.6909568000001,255.67481640000005,253.3291038000002,,,,,,,,0,1,2.1368852999999035,None,,,,,,,,883,21,M,R,2026-02-18_11h45.27.784,VisualSearch_2526_3,,2025.2.4,2026-02-18 11h45.27.989301 +0100,
tilted.xlsx,The target is tilted.,117,69,5,8,1,0,0,0,0,0,0,0,0,0,0,0,0,0,1,117,space,4.774195299999974,None,1,1,0.6269790999999714,None,space,1.2163172999999006,None,0,0,0,0,,,,,8,5,69,3,255.6909568000001,,,,,,,,,,,,,,,,,,,,,255.67563299999983,255.6909568000001,256.1744778000002,256.17905500000006,256.1902202000001,256.82409659999985,,,,,256.8242399999999,256.8396002999998,257.0397214999998,257.0232946000001,256.1902202000001,,,,,,,,1,1,0.6269790999999714,None,,,,,,,,883,21,M,R,2026-02-18_11h45.27.784,VisualSearch_2526_3,,2025.2.4,2026-02-18 11h45.27.989301 +0100,
tilted.xlsx,The target is tilted.,117,70,6,8,1,1,1,1,0,0,0,0,0,0,0,0,0,3,4,117,space,4.774195299999974,None,1,1,1.2859324000000925,None,space,1.2163172999999006,None,0,0,0,0,,,,,8,6,70,2,257.0397214999998,,,,,,,,,,,,,,,,,,,,,257.0235954,257.0397214999998,257.52401169999985,257.5286750999999,257.5399507000002,258.8394727,,,,,258.83960620000016,258.8558928000002,259.0556224000002,259.0395532000002,257.5399507000002,,,,,,,,1,1,1.2859324000000925,None,,,,,,,,883,21,M,R,2026-02-18_11h45.27.784,VisualSearch_2526_3,,2025.2.4,2026-02-18 11h45.27.989301 +0100,
tilted.xlsx,The target is tilted.,117,71,7,8,0,1,1,1,0,0,0,0,0,0,0,0,1,3,4,117,space,4.774195299999974,None,0,1,1.1618906999997307,None,space,1.2163172999999006,None,0,0,0,0,,,,,8,7,71,6,259.0556224000002,,,,,,,,,,,,,,,,,,,,,259.03983070000004,259.0556224000002,259.5393230999998,259.5440853,259.5610056999999,260.7391160000002,,,,,260.73934800000006,260.7546959000001,260.95511179999994,260.9386635999999,259.5610056999999,,,,,,,,0,1,1.1618906999997307,None,,,,,,,,883,21,M,R,2026-02-18_11h45.27.784,VisualSearch_2526_3,,2025.2.4,2026-02-18 11h45.27.989301 +0100,
tilted.xlsx,The target is tilted.,117,72,0,9,0,1,1,1,1,1,1,1,1,1,1,1,1,11,12,117,space,4.774195299999974,None,0,1,2.363297099999727,None,space,1.2163172999999006,None,0,0,0,0,,,,,9,0,72,4,260.95511179999994,,,,,,,,,,,,,,,,,,,,,260.93940520000024,260.95511179999994,261.4387657000002,261.4435991999999,261.4608979999998,263.8376705999999,,,,,263.83781820000013,263.8531544000002,264.0535986,264.0377394000002,261.4608979999998,,,,,,,,0,1,2.363297099999727,None,,,,,,,,883,21,M,R,2026-02-18_11h45.27.784,VisualSearch_2526_3,,2025.2.4,2026-02-18 11h45.27.989301 +0100,
tilted.xlsx,The target is tilted.,117,73,1,9,0,0,0,0,0,0,0,0,0,0,0,0,1,1,1,117,space,4.774195299999974,None,0,1,0.5075855000000047,None,space,1.2163172999999006,None,0,0,0,0,,,,,9,1,73,7,264.0535986,,,,,,,,,,,,,,,,,,,,,264.0384595999999,264.0535986,264.53750649999984,264.5423171000002,264.5586460999998,265.07038790000024,,,,,265.07050419999996,265.0860735000001,265.2865575000001,265.27028470000005,264.5586460999998,,,,,,,,0,1,0.5075855000000047,None,,,,,,,,883,21,M,R,2026-02-18_11h45.27.784,VisualSearch_2526_3,,2025.2.4,2026-02-18 11h45.27.989301 +0100,
tilted.xlsx,The target is tilted.,117,74,2,9,1,0,0,0,0,0,0,0,0,0,0,0,0,0,1,117,space,4.774195299999974,None,1,1,0.6727805000000444,None,space,1.2163172999999006,None,0,0,0,0,,,,,9,2,74,3,265.2865575000001,,,,,,,,,,,,,,,,,,,,,265.2710219999999,265.2865575000001,265.77031850000003,265.77532599999995,265.7915294999998,266.47043889999986,,,,,266.4706464000001,266.4854857,266.6859657,266.6697276,265.7915294999998,,,,,,,,1,1,0.6727805000000444,None,,,,,,,,883,21,M,R,2026-02-18_11h45.27.784,VisualSearch_2526_3,,2025.2.4,2026-02-18 11h45.27.989301 +0100,
tilted.xlsx,The target is tilted.,117,75,3,9,0,1,1,1,0,0,0,0,0,0,0,0,1,3,4,117,space,4.774195299999974,None,0,1,1.2027455000002192,None,space,1.2163172999999006,None,0,0,0,0,,,,,9,3,75,6,266.6859657,,,,,,,,,,,,,,,,,,,,,266.6704828000002,266.6859657,267.1694591999999,267.1742140000001,267.1916194999999,268.4021965000002,,,,,268.4022826999999,268.4176959000001,268.61830899999995,268.6022158999999,267.1916194999999,,,,,,,,0,1,1.2027455000002192,None,,,,,,,,883,21,M,R,2026-02-18_11h45.27.784,VisualSearch_2526_3,,2025.2.4,2026-02-18 11h45.27.989301 +0100,
tilted.xlsx,The target is tilted.,117,76,4,9,1,1,1,1,0,0,0,0,0,0,0,0,0,3,4,117,space,4.774195299999974,None,1,1,0.910016799999994,None,space,1.2163172999999006,None,0,0,0,0,,,,,9,4,76,2,268.61830899999995,,,,,,,,,,,,,,,,,,,,,268.6029733999999,268.61830899999995,269.1023258,269.1070611,269.1229136000002,270.0352634000001,,,,,270.03545940000004,270.05033950000006,270.2510063,270.23445679999986,269.1229136000002,,,,,,,,1,1,0.910016799999994,None,,,,,,,,883,21,M,R,2026-02-18_11h45.27.784,VisualSearch_2526_3,,2025.2.4,2026-02-18 11h45.27.989301 +0100,
tilted.xlsx,The target is tilted.,117,77,5,9,0,1,1,1,1,1,1,1,0,0,0,0,1,7,8,117,space,4.774195299999974,None,1,0,2.20805399999972,None,space,1.2163172999999006,None,0,0,0,0,,,,,9,5,77,5,270.2510063,,,,,,,,,,,,,,,,,,,,,270.2351927999998,270.2510063,270.73451410000007,270.7394070999999,270.7556675999999,272.9666381000002,,,,,272.96676179999986,272.9824896,273.1830100000002,273.16691660000015,270.7556675999999,,,,,,,,1,0,2.20805399999972,None,,,,,,,,883,21,M,R,2026-02-18_11h45.27.784,VisualSearch_2526_3,,2025.2.4,2026-02-18 11h45.27.989301 +0100,
tilted.xlsx,The target is tilted.,117,78,6,9,1,1,1,1,1,1,1,1,0,0,0,0,0,7,8,117,space,4.774195299999974,None,1,1,0.7684002999999393,None,space,1.2163172999999006,None,0,0,0,0,,,,,9,6,78,1,273.1830100000002,,,,,,,,,,,,,,,,,,,,,273.1676572000001,273.1830100000002,273.6662617000002,273.67100930000015,273.68625539999994,274.4661950999998,,,,,274.4663062999998,274.4816701999998,274.6825620999998,274.6661875,273.68625539999994,,,,,,,,1,1,0.7684002999999393,None,,,,,,,,883,21,M,R,2026-02-18_11h45.27.784,VisualSearch_2526_3,,2025.2.4,2026-02-18 11h45.27.989301 +0100,
tilted.xlsx,The target is tilted.,117,79,7,9,1,1,1,1,1,1,1,1,1,1,1,1,0,11,12,117,space,4.774195299999974,None,1,1,1.0994731000000684,None,space,1.2163172999999006,None,0,0,0,0,,,,,9,7,79,0,274.6825620999998,,,,,,,,,,,,,,,,,,,,,274.66690719999997,274.6825620999998,275.1658984999999,275.17063450000023,275.18635529999983,276.29854639999985,,,,,276.2986856000002,276.31428400000004,276.5148457,276.4985015000002,275.18635529999983,,,,,,,,1,1,1.0994731000000684,None,,,,,,,,883,21,M,R,2026-02-18_11h45.27.784,VisualSearch_2526_3,,2025.2.4,2026-02-18 11h45.27.989301 +0100,
tilted.xlsx,The target is tilted.,117,80,0,10,0,0,0,0,0,0,0,0,0,0,0,0,1,1,1,117,space,4.774195299999974,None,0,1,0.6260273000002599,None,space,1.2163172999999006,None,0,0,0,0,,,,,10,0,80,7,276.5148457,,,,,,,,,,,,,,,,,,,,,276.4992993999999,276.5148457,276.99825069999997,277.0029929000002,277.0182338999998,277.64836379999997,,,,,277.64856640000016,277.6636950000002,277.8642021999999,277.8476728999999,277.0182338999998,,,,,,,,0,1,0.6260273000002599,None,,,,,,,,883,21,M,R,2026-02-18_11h45.27.784,VisualSearch_2526_3,,2025.2.4,2026-02-18 11h45.27.989301 +0100,
tilted.xlsx,The target is tilted.,117,81,1,10,1,0,0,0,0,0,0,0,0,0,0,0,0,0,1,117,space,4.774195299999974,None,1,1,0.5974076000002242,None,space,1.2163172999999006,None,0,0,0,0,,,,,10,1,81,3,277.8642021999999,,,,,,,,,,,,,,,,,,,,,277.84847500000024,277.8642021999999,278.3474667999999,278.35221630000024,278.36675030000015,278.9808130000001,,,,,278.9810256999999,278.99644579999995,279.1965203999998,279.1806981,278.36675030000015,,,,,,,,1,1,0.5974076000002242,None,,,,,,,,883,21,M,R,2026-02-18_11h45.27.784,VisualSearch_2526_3,,2025.2.4,2026-02-18 11h45.27.989301 +0100,
tilted.xlsx,The target is tilted.,117,82,2,10,0,1,1,1,0,0,0,0,0,0,0,0,1,3,4,117,space,4.774195299999974,None,0,1,1.0492881000000125,None,space,1.2163172999999006,None,0,0,0,0,,,,,10,2,82,6,279.1965203999998,,,,,,,,,,,,,,,,,,,,,279.1814552000001,279.1965203999998,279.6804963999998,279.6853553000001,279.6982068000002,280.76280959999985,,,,,280.76294270000017,280.77890350000007,,280.9630318999998,279.6982068000002,,,,,,,,0,1,1.0492881000000125,None,,,,,,,,883,21,M,R,2026-02-18_11h45.27.784,VisualSearch_2526_3,,2025.2.4,2026-02-18 11h45.27.989301 +0100,
tilted.xlsx,The target is tilted.,117,83,3,10,1,1,1,1,1,1,1,1,0,0,0,0,0,7,8,117,space,4.774195299999974,None,0,0,3.249148899999909,None,space,1.2163172999999006,None,0,0,0,0,,,,,10,3,83,1,280.97929490000024,,,,,,,,,,,,,,,,,,,,,280.9638527000002,280.97929490000024,281.4629141999999,281.46769529999983,281.4840113,284.74522509999997,,,,,284.7453915000001,284.7605220999999,284.9609193000001,284.94466779999993,281.4840113,,,,,,,,0,0,3.249148899999909,None,,,,,,,,883,21,M,R,2026-02-18_11h45.27.784,VisualSearch_2526_3,,2025.2.4,2026-02-18 11h45.27.989301 +0100,
tilted.xlsx,The target is tilted.,117,84,4,10,1,1,1,1,0,0,0,0,0,0,0,0,0,3,4,117,space,4.774195299999974,None,1,1,0.8751968000001398,None,space,1.2163172999999006,None,0,0,0,0,,,,,10,4,84,2,284.9609193000001,,,,,,,,,,,,,,,,,,,,,284.94555919999993,284.9609193000001,285.44457939999984,285.44940180000003,285.46474260000014,286.34452009999995,,,,,286.3447430000001,286.36025359999985,286.5601362000002,286.5439409999999,285.46474260000014,,,,,,,,1,1,0.8751968000001398,None,,,,,,,,883,21,M,R,2026-02-18_11h45.27.784,VisualSearch_2526_3,,2025.2.4,2026-02-18 11h45.27.989301 +0100,
tilted.xlsx,The target is tilted.,117,85,5,10,0,1,1,1,1,1,1,1,1,1,1,1,1,11,12,117,space,4.774195299999974,None,0,1,3.5847631999999976,None,space,1.2163172999999006,None,0,0,0,0,,,,,10,5,85,4,286.5601362000002,,,,,,,,,,,,,,,,,,,,,286.5446958000002,286.5601362000002,287.0434441000002,287.0454840000002,287.05988979999984,290.65945980000015,,,,,290.6596533000002,290.6749681000001,290.875141,290.85909979999997,287.05988979999984,,,,,,,,0,1,3.5847631999999976,None,,,,,,,,883,21,M,R,2026-02-18_11h45.27.784,VisualSearch_2526_3,,2025.2.4,2026-02-18 11h45.27.989301 +0100,
tilted.xlsx,The target is tilted.,117,86,6,10,0,1,1,1,1,1,1,1,0,0,0,0,1,7,8,117,space,4.774195299999974,None,1,0,1.9244165000000066,None,space,1.2163172999999006,None,0,0,0,0,,,,,10,6,86,5,290.875141,,,,,,,,,,,,,,,,,,,,,290.8599651999998,290.875141,291.35850900000014,291.3632883999999,291.3786135999999,293.3078719,,,,,293.30806570000004,293.3237712,293.5237919000001,293.5075889999998,291.3786135999999,,,,,,,,1,0,1.9244165000000066,None,,,,,,,,883,21,M,R,2026-02-18_11h45.27.784,VisualSearch_2526_3,,2025.2.4,2026-02-18 11h45.27.989301 +0100,
tilted.xlsx,The target is tilted.,117,87,7,10,1,1,1,1,1,1,1,1,1,1,1,1,0,11,12,117,space,4.774195299999974,None,1,1,1.1769985000000815,None,space,1.2163172999999006,None,0,0,0,0,,,,,10,7,87,0,293.5237919000001,,,,,,,,,,,,,,,,,,,,,293.50838010000007,293.5237919000001,294.00749050000013,294.0123394000002,294.02781700000014,295.20704179999984,,,,,295.2072478,295.2229387000002,295.4227356000001,295.40670150000005,294.02781700000014,,,,,,,,1,1,1.1769985000000815,None,,,,,,,,883,21,M,R,2026-02-18_11h45.27.784,VisualSearch_2526_3,,2025.2.4,2026-02-18 11h45.27.989301 +0100,
tilted.xlsx,The target is tilted.,117,88,0,11,1,1,1,1,0,0,0,0,0,0,0,0,0,3,4,117,space,4.774195299999974,None,1,1,1.4345843999999488,None,space,1.2163172999999006,None,0,0,0,0,,,,,11,0,88,2,295.4227356000001,,,,,,,,,,,,,,,,,,,,,295.40748429999985,295.4227356000001,295.90613889999986,295.91099829999985,295.9265860999999,297.37255719999985,,,,,297.3726938,297.3884858000001,297.5884105,297.5723969999999,295.9265860999999,,,,,,,,1,1,1.4345843999999488,None,,,,,,,,883,21,M,R,2026-02-18_11h45.27.784,VisualSearch_2526_3,,2025.2.4,2026-02-18 11h45.27.989301 +0100,
tilted.xlsx,The target is tilted.,117,89,1,11,1,1,1,1,1,1,1,1,1,1,1,1,0,11,12,117,space,4.774195299999974,None,1,1,3.1611299999999574,None,space,1.2163172999999006,None,0,0,0,0,,,,,11,1,89,0,297.5884105,,,,,,,,,,,,,,,,,,,,,297.5731725999999,297.5884105,298.07178840000006,298.0741091,298.0876481999999,301.2540420999999,,,,,301.2542023000001,301.26966519999996,301.4700640000001,301.4537862000002,298.0876481999999,,,,,,,,1,1,3.1611299999999574,None,,,,,,,,883,21,M,R,2026-02-18_11h45.27.784,VisualSearch_2526_3,,2025.2.4,2026-02-18 11h45.27.989301 +0100,
tilted.xlsx,The target is tilted.,117,90,2,11,0,0,0,0,0,0,0,0,0,0,0,0,1,1,1,117,space,4.774195299999974,None,0,1,0.7145130000003519,None,space,1.2163172999999006,None,0,0,0,0,,,,,11,2,90,7,301.4700640000001,,,,,,,,,,,,,,,,,,,,,301.4545191000002,301.4700640000001,301.9538311000001,301.9587455000001,301.97236090000024,302.7032776000001,,,,,302.7033528000002,302.71936099999994,302.9190821000002,302.90339670000003,301.97236090000024,,,,,,,,0,1,0.7145130000003519,None,,,,,,,,883,21,M,R,2026-02-18_11h45.27.784,VisualSearch_2526_3,,2025.2.4,2026-02-18 11h45.27.989301 +0100,
tilted.xlsx,The target is tilted.,117,91,3,11,1,0,0,0,0,0,0,0,0,0,0,0,0,0,1,117,space,4.774195299999974,None,1,1,0.6330017000000225,None,space,1.2163172999999006,None,0,0,0,0,,,,,11,3,91,3,302.9190821000002,,,,,,,,,,,,,,,,,,,,,302.9041793000001,302.9190821000002,303.4030751,303.4079234999999,303.4252467000001,304.0701463999999,,,,,304.0703392999999,304.08522129999983,304.2855472000001,304.26933880000024,303.4252467000001,,,,,,,,1,1,0.6330017000000225,None,,,,,,,,883,21,M,R,2026-02-18_11h45.27.784,VisualSearch_2526_3,,2025.2.4,2026-02-18 11h45.27.989301 +0100,
tilted.xlsx,The target is tilted.,117,92,4,11,1,1,1,1,1,1,1,1,0,0,0,0,0,7,8,117,space,4.774195299999974,None,1,1,0.9976446000000578,None,space,1.2163172999999006,None,0,0,0,0,,,,,11,4,92,1,304.2855472000001,,,,,,,,,,,,,,,,,,,,,304.2700666999999,304.2855472000001,304.7691206999998,304.7744954,304.7905010999998,305.8020891000001,,,,,305.8022126999999,305.8180014999998,306.01806510000006,306.00184519999993,304.7905010999998,,,,,,,,1,1,0.9976446000000578,None,,,,,,,,883,21,M,R,2026-02-18_11h45.27.784,VisualSearch_2526_3,,2025.2.4,2026-02-18 11h45.27.989301 +0100,
tilted.xlsx,The target is tilted.,117,93,5,11,0,1,1,1,0,0,0,0,0,0,0,0,1,3,4,117,space,4.774195299999974,None,0,1,0.8133684999997968,None,space,1.2163172999999006,None,0,0,0,0,,,,,11,5,93,6,306.01806510000006,,,,,,,,,,,,,,,,,,,,,306.0025863000001,306.01806510000006,306.5017561999998,306.50702009999986,306.5227248000001,307.35186239999985,,,,,307.35205140000016,307.36721739999984,307.5670024000001,307.55116069999985,306.5227248000001,,,,,,,,0,1,0.8133684999997968,None,,,,,,,,883,21,M,R,2026-02-18_11h45.27.784,VisualSearch_2526_3,,2025.2.4,2026-02-18 11h45.27.989301 +0100,
tilted.xlsx,The target is tilted.,117,94,6,11,0,1,1,1,1,1,1,1,0,0,0,0,1,7,8,117,space,4.774195299999974,None,1,0,0.869896499999868,None,space,1.2163172999999006,None,0,0,0,0,,,,,11,6,94,5,307.5670024000001,,,,,,,,,,,,,,,,,,,,,307.55196220000016,307.5670024000001,308.0510033999999,308.0558377000002,308.0718326000001,308.9504800999998,,,,,308.9505878,308.9665192000002,309.16669009999987,309.1504768,308.0718326000001,,,,,,,,1,0,0.869896499999868,None,,,,,,,,883,21,M,R,2026-02-18_11h45.27.784,VisualSearch_2526_3,,2025.2.4,2026-02-18 11h45.27.989301 +0100,
tilted.xlsx,The target is tilted.,117,95,7,11,0,1,1,1,1,1,1,1,1,1,1,1,1,11,12,117,space,4.774195299999974,None,0,1,2.3140588999999636,None,space,1.2163172999999006,None,0,0,0,0,,,,,11,7,95,4,309.16669009999987,,,,,,,,,,,,,,,,,,,,,309.15123440000025,309.16669009999987,309.65021209999986,309.65515460000006,309.6689541999999,311.99971189999997,,,,,311.9999077000002,312.01513190000014,312.21531110000024,312.1990811999999,309.6689541999999,,,,,,,,0,1,2.3140588999999636,None,,,,,,,,883,21,M,R,2026-02-18_11h45.27.784,VisualSearch_2526_3,,2025.2.4,2026-02-18 11h45.27.989301 +0100,
tilted.xlsx,The target is tilted.,117,96,0,12,1,0,0,0,0,0,0,0,0,0,0,0,0,0,1,117,space,4.774195299999974,None,1,1,0.7392429999999877,None,space,1.2163172999999006,None,0,0,0,0,,,,,12,0,96,3,312.21531110000024,,,,,,,,,,,,,,,,,,,,,312.19989380000015,312.21531110000024,312.6989054999999,312.7037918000001,312.71838750000006,313.4653687,,,,,313.4655017,313.48120370000015,313.68127219999997,313.6651858,312.71838750000006,,,,,,,,1,1,0.7392429999999877,None,,,,,,,,883,21,M,R,2026-02-18_11h45.27.784,VisualSearch_2526_3,,2025.2.4,2026-02-18 11h45.27.989301 +0100,
tilted.xlsx,The target is tilted.,117,97,1,12,1,1,1,1,1,1,1,1,0,0,0,0,0,7,8,117,space,4.774195299999974,None,1,1,1.113691000000017,None,space,1.2163172999999006,None,0,0,0,0,,,,,12,1,97,1,313.68127219999997,,,,,,,,,,,,,,,,,,,,,313.66593349999994,313.68127219999997,314.16489980000006,314.1694001999999,314.1808642000001,315.29757870000003,,,,,315.29849909999984,315.3137740000002,315.5138191000001,315.49702209999987,314.1808642000001,,,,,,,,1,1,1.113691000000017,None,,,,,,,,883,21,M,R,2026-02-18_11h45.27.784,VisualSearch_2526_3,,2025.2.4,2026-02-18 11h45.27.989301 +0100,
tilted.xlsx,The target is tilted.,117,98,2,12,0,1,1,1,1,1,1,1,1,1,1,1,1,11,12,117,space,4.774195299999974,None,0,1,2.184968700000354,None,space,1.2163172999999006,None,0,0,0,0,,,,,12,2,98,4,315.5138191000001,,,,,,,,,,,,,,,,,,,,,315.4978108999999,315.5138191000001,315.9975365,316.00227810000024,316.0174450999998,318.21361960000013,,,,,318.2138547999998,318.2291906999999,318.42897170000015,318.4126804000002,316.0174450999998,,,,,,,,0,1,2.184968700000354,None,,,,,,,,883,21,M,R,2026-02-18_11h45.27.784,VisualSearch_2526_3,,2025.2.4,2026-02-18 11h45.27.989301 +0100,
tilted.xlsx,The target is tilted.,117,99,3,12,0,0,0,0,0,0,0,0,0,0,0,0,1,1,1,117,space,4.774195299999974,None,0,1,0.7398760000000948,None,space,1.2163172999999006,None,0,0,0,0,,,,,12,3,99,7,318.42897170000015,,,,,,,,,,,,,,,,,,,,,318.41340709999986,318.42897170000015,318.9127070999998,318.917551,318.9323975000002,319.67963850000024,,,,,319.6798308000002,319.6948676000002,319.89516749999984,319.8785819999998,318.9323975000002,,,,,,,,0,1,0.7398760000000948,None,,,,,,,,883,21,M,R,2026-02-18_11h45.27.784,VisualSearch_2526_3,,2025.2.4,2026-02-18 11h45.27.989301 +0100,
tilted.xlsx,The target is tilted.,117,100,4,12,1,1,1,1,1,1,1,1,1,1,1,1,0,11,12,117,space,4.774195299999974,None,1,1,1.0113431999998284,None,space,1.2163172999999006,None,0,0,0,0,,,,,12,4,100,0,319.89516749999984,,,,,,,,,,,,,,,,,,,,,319.87944389999984,319.89516749999984,320.3786801000001,320.3834281999998,320.39861070000006,321.4113989000002,,,,,321.41149110000015,321.42731189999995,321.62724879999996,321.61153809999996,320.39861070000006,,,,,,,,1,1,1.0113431999998284,None,,,,,,,,883,21,M,R,2026-02-18_11h45.27.784,VisualSearch_2526_3,,2025.2.4,2026-02-18 11h45.27.989301 +0100,
tilted.xlsx,The target is tilted.,117,101,5,12,1,1,1,1,0,0,0,0,0,0,0,0,0,3,4,117,space,4.774195299999974,None,1,1,0.7575356000002103,None,space,1.2163172999999006,None,0,0,0,0,,,,,12,5,101,2,321.62724879999996,,,,,,,,,,,,,,,,,,,,,321.61227150000013,321.62724879999996,322.1114072999999,322.1159911,322.12690939999993,322.89490290000003,,,,,322.8950926000002,322.91038389999994,323.1103911,323.09417699999995,322.12690939999993,,,,,,,,1,1,0.7575356000002103,None,,,,,,,,883,21,M,R,2026-02-18_11h45.27.784,VisualSearch_2526_3,,2025.2.4,2026-02-18 11h45.27.989301 +0100,
tilted.xlsx,The target is tilted.,117,102,6,12,0,1,1,1,1,1,1,1,0,0,0,0,1,7,8,117,space,4.774195299999974,None,1,0,1.3784388999997645,None,space,1.2163172999999006,None,0,0,0,0,,,,,12,6,102,5,323.1103911,,,,,,,,,,,,,,,,,,,,,323.0949448000001,323.1103911,323.59392909999997,323.59874690000015,323.61387879999984,324.9938557999999,,,,,324.9940462999998,325.0091301000002,325.2093060000002,325.1931711000002,323.61387879999984,,,,,,,,1,0,1.3784388999997645,None,,,,,,,,883,21,M,R,2026-02-18_11h45.27.784,VisualSearch_2526_3,,2025.2.4,2026-02-18 11h45.27.989301 +0100,
tilted.xlsx,The target is tilted.,117,103,7,12,0,1,1,1,0,0,0,0,0,0,0,0,1,3,4,117,space,4.774195299999974,None,0,1,0.8828465999999935,None,space,1.2163172999999006,None,0,0,0,0,,,,,12,7,103,6,325.2093060000002,,,,,,,,,,,,,,,,,,,,,325.1939545,325.2093060000002,325.69292640000003,325.6977354999999,325.7124573000001,326.6094932000001,,,,,326.6096484999998,326.62538170000016,326.82520909999994,326.80912279999984,325.7124573000001,,,,,,,,0,1,0.8828465999999935,None,,,,,,,,883,21,M,R,2026-02-18_11h45.27.784,VisualSearch_2526_3,,2025.2.4,2026-02-18 11h45.27.989301 +0100,
tilted.xlsx,The target is tilted.,117,104,0,13,0,0,0,0,0,0,0,0,0,0,0,0,1,1,1,117,space,4.774195299999974,None,0,1,0.5801799000000756,None,space,1.2163172999999006,None,0,0,0,0,,,,,13,0,104,7,326.82520909999994,,,,,,,,,,,,,,,,,,,,,326.8099198,326.82520909999994,327.3089030000001,327.31352389999984,327.32497479999984,327.9088987,,,,,327.9090887000002,327.92463039999984,328.1246557999998,328.10822229999985,327.32497479999984,,,,,,,,0,1,0.5801799000000756,None,,,,,,,,883,21,M,R,2026-02-18_11h45.27.784,VisualSearch_2526_3,,2025.2.4,2026-02-18 11h45.27.989301 +0100,
tilted.xlsx,The target is tilted.,117,105,1,13,1,1,1,1,1,1,1,1,0,0,0,0,0,7,8,117,space,4.774195299999974,None,1,1,1.0514765000002626,None,space,1.2163172999999006,None,0,0,0,0,,,,,13,1,105,1,328.1246557999998,,,,,,,,,,,,,,,,,,,,,328.10900119999997,328.1246557999998,328.6082554999998,328.61306939999986,328.62790940000014,329.6918340000002,,,,,329.6920246999998,329.70718639999996,329.9070962999999,329.8911063999999,328.62790940000014,,,,,,,,1,1,1.0514765000002626,None,,,,,,,,883,21,M,R,2026-02-18_11h45.27.784,VisualSearch_2526_3,,2025.2.4,2026-02-18 11h45.27.989301 +0100,
tilted.xlsx,The target is tilted.,117,106,2,13,1,0,0,0,0,0,0,0,0,0,0,0,0,0,1,117,space,4.774195299999974,None,1,1,0.6639522000000397,None,space,1.2163172999999006,None,0,0,0,0,,,,,13,2,106,3,329.9070962999999,,,,,,,,,,,,,,,,,,,,,329.8918794000001,329.9070962999999,330.3904981999999,330.3953056999999,330.4110934,331.09039699999994,,,,,331.0904839,331.1063475000001,331.30666710000014,331.2904601,330.4110934,,,,,,,,1,1,0.6639522000000397,None,,,,,,,,883,21,M,R,2026-02-18_11h45.27.784,VisualSearch_2526_3,,2025.2.4,2026-02-18 11h45.27.989301 +0100,
tilted.xlsx,The target is tilted.,117,107,3,13,1,1,1,1,1,1,1,1,1,1,1,1,0,11,12,117,space,4.774195299999974,None,1,1,0.9897547000000486,None,space,1.2163172999999006,None,0,0,0,0,,,,,13,3,107,0,331.30666710000014,,,,,,,,,,,,,,,,,,,,,331.29121480000003,331.30666710000014,331.7901787999999,331.7949223999999,331.8087522999999,332.8069974,,,,,332.8071887000001,332.82238240000015,333.02260380000007,333.0059864,331.8087522999999,,,,,,,,1,1,0.9897547000000486,None,,,,,,,,883,21,M,R,2026-02-18_11h45.27.784,VisualSearch_2526_3,,2025.2.4,2026-02-18 11h45.27.989301 +0100,
tilted.xlsx,The target is tilted.,117,108,4,13,1,1,1,1,0,0,0,0,0,0,0,0,0,3,4,117,space,4.774195299999974,None,1,1,0.8578770999997687,None,space,1.2163172999999006,None,0,0,0,0,,,,,13,4,108,2,333.02260380000007,,,,,,,,,,,,,,,,,,,,,333.0067187999998,333.02260380000007,333.5061661,333.5108564000002,333.52618140000004,334.38927839999997,,,,,334.3894693000002,334.40482410000004,334.60513279999986,334.58892160000005,333.52618140000004,,,,,,,,1,1,0.8578770999997687,None,,,,,,,,883,21,M,R,2026-02-18_11h45.27.784,VisualSearch_2526_3,,2025.2.4,2026-02-18 11h45.27.989301 +0100,
tilted.xlsx,The target is tilted.,117,109,5,13,0,1,1,1,1,1,1,1,1,1,1,1,1,11,12,117,space,4.774195299999974,None,0,1,1.8439181999997345,None,space,1.2163172999999006,None,0,0,0,0,,,,,13,5,109,4,334.60513279999986,,,,,,,,,,,,,,,,,,,,,334.589692,334.60513279999986,335.0886375,335.0931424999999,335.10481660000005,336.9545005,,,,,336.9546104000001,336.9702636000002,337.17065589999993,337.1545709000002,335.10481660000005,,,,,,,,0,1,1.8439181999997345,None,,,,,,,,883,21,M,R,2026-02-18_11h45.27.784,VisualSearch_2526_3,,2025.2.4,2026-02-18 11h45.27.989301 +0100,
tilted.xlsx,The target is tilted.,117,110,6,13,0,1,1,1,0,0,0,0,0,0,0,0,1,3,4,117,space,4.774195299999974,None,0,1,1.126041399999849,None,space,1.2163172999999006,None,0,0,0,0,,,,,13,6,110,6,337.17065589999993,,,,,,,,,,,,,,,,,,,,,337.1552759000001,337.17065589999993,337.65421460000016,337.6590537000002,337.6753792999998,338.80453309999984,,,,,338.80476769999996,338.8197246999998,339.0197395,339.00325569999995,337.6753792999998,,,,,,,,0,1,1.126041399999849,None,,,,,,,,883,21,M,R,2026-02-18_11h45.27.784,VisualSearch_2526_3,,2025.2.4,2026-02-18 11h45.27.989301 +0100,
tilted.xlsx,The target is tilted.,117,111,7,13,0,1,1,1,1,1,1,1,0,0,0,0,1,7,8,117,space,4.774195299999974,None,0,1,2.8105665999996745,None,space,1.2163172999999006,None,0,0,0,0,,,,,13,7,111,5,339.0197395,,,,,,,,,,,,,,,,,,,,,339.0039932999998,339.0197395,339.5033579000001,339.5081432000002,339.5194342,342.33597880000025,,,,,342.33619420000014,342.3511146999999,342.55158729999994,342.5353903,339.5194342,,,,,,,,0,1,2.8105665999996745,None,,,,,,,,883,21,M,R,2026-02-18_11h45.27.784,VisualSearch_2526_3,,2025.2.4,2026-02-18 11h45.27.989301 +0100,
tilted.xlsx,The target is tilted.,117,112,0,14,1,1,1,1,1,1,1,1,0,0,0,0,0,7,8,117,space,4.774195299999974,None,1,1,1.825716199999988,None,space,1.2163172999999006,None,0,0,0,0,,,,,14,0,112,1,342.55158729999994,,,,,,,,,,,,,,,,,,,,,342.53615219999983,342.55158729999994,343.03472820000025,343.0395632999998,343.0521094999999,344.8849046,,,,,344.88510670000005,344.90040499999986,345.10032490000003,345.08385709999993,343.0521094999999,,,,,,,,1,1,1.825716199999988,None,,,,,,,,883,21,M,R,2026-02-18_11h45.27.784,VisualSearch_2526_3,,2025.2.4,2026-02-18 11h45.27.989301 +0100,
tilted.xlsx,The target is tilted.,117,113,1,14,0,1,1,1,1,1,1,1,1,1,1,1,1,11,12,117,space,4.774195299999974,None,0,1,2.372477599999911,None,space,1.2163172999999006,None,0,0,0,0,,,,,14,1,113,4,345.10032490000003,,,,,,,,,,,,,,,,,,,,,345.08461720000014,345.10032490000003,345.58381959999997,345.5891093,345.60346419999996,347.98298699999987,,,,,347.98316030000024,347.99886909999987,348.1987978000002,348.18234200000006,345.60346419999996,,,,,,,,0,1,2.372477599999911,None,,,,,,,,883,21,M,R,2026-02-18_11h45.27.784,VisualSearch_2526_3,,2025.2.4,2026-02-18 11h45.27.989301 +0100,
tilted.xlsx,The target is tilted.,117,114,2,14,1,1,1,1,0,0,0,0,0,0,0,0,0,3,4,117,space,4.774195299999974,None,1,1,1.0678639000002477,None,space,1.2163172999999006,None,0,0,0,0,,,,,14,2,114,2,348.1987978000002,,,,,,,,,,,,,,,,,,,,,348.1830847000001,348.1987978000002,348.68263979999983,348.68738170000006,348.7025794000001,349.78269880000016,,,,,349.78290259999994,349.79811370000016,349.9980561000002,349.9819910000001,348.7025794000001,,,,,,,,1,1,1.0678639000002477,None,,,,,,,,883,21,M,R,2026-02-18_11h45.27.784,VisualSearch_2526_3,,2025.2.4,2026-02-18 11h45.27.989301 +0100,
tilted.xlsx,The target is tilted.,117,115,3,14,1,0,0,0,0,0,0,0,0,0,0,0,0,0,1,117,space,4.774195299999974,None,1,1,0.8313614999997299,None,space,1.2163172999999006,None,0,0,0,0,,,,,14,3,115,3,349.9980561000002,,,,,,,,,,,,,,,,,,,,,349.98277400000006,349.9980561000002,350.48177810000016,350.48658000000023,350.5018866999999,351.34863129999985,,,,,351.3488253999999,351.36414060000016,351.5641826000001,351.54764699999987,350.5018866999999,,,,,,,,1,1,0.8313614999997299,None,,,,,,,,883,21,M,R,2026-02-18_11h45.27.784,VisualSearch_2526_3,,2025.2.4,2026-02-18 11h45.27.989301 +0100,
tilted.xlsx,The target is tilted.,117,116,4,14,1,1,1,1,1,1,1,1,1,1,1,1,0,11,12,117,space,4.774195299999974,None,1,1,2.3698229000001447,None,space,1.2163172999999006,None,0,0,0,0,,,,,14,4,116,0,351.5641826000001,,,,,,,,,,,,,,,,,,,,,351.54839360000005,351.5641826000001,352.04727170000024,352.05203059999985,352.06927339999993,354.44768780000004,,,,,354.44789260000016,354.46274649999987,354.6625933999999,354.6461340999999,352.06927339999993,,,,,,,,1,1,2.3698229000001447,None,,,,,,,,883,21,M,R,2026-02-18_11h45.27.784,VisualSearch_2526_3,,2025.2.4,2026-02-18 11h45.27.989301 +0100,
tilted.xlsx,The target is tilted.,117,117,5,14,0,0,0,0,0,0,0,0,0,0,0,0,1,1,1,117,space,4.774195299999974,None,0,1,0.5749825999996574,None,space,1.2163172999999006,None,0,0,0,0,,,,,14,5,117,7,354.6625933999999,,,,,,,,,,,,,,,,,,,,,354.64688780000006,354.6625933999999,355.14637249999987,355.1511661999998,355.16641819999995,355.7464586000001,,,,,355.7466496000002,355.76204469999993,355.9621705999998,355.9459668999998,355.16641819999995,,,,,,,,0,1,0.5749825999996574,None,,,,,,,,883,21,M,R,2026-02-18_11h45.27.784,VisualSearch_2526_3,,2025.2.4,2026-02-18 11h45.27.989301 +0100,
tilted.xlsx,The target is tilted.,117,118,6,14,0,1,1,1,1,1,1,1,0,0,0,0,1,7,8,117,space,4.774195299999974,None,1,0,0.874605199999678,None,space,1.2163172999999006,None,0,0,0,0,,,,,14,6,118,5,355.9621705999998,,,,,,,,,,,,,,,,,,,,,355.9466956000001,355.9621705999998,356.4453864000002,356.45022470000004,356.46522559999994,357.3453393,,,,,357.3454805000001,357.3613495999998,357.56101750000016,357.5452601000002,356.46522559999994,,,,,,,,1,0,0.874605199999678,None,,,,,,,,883,21,M,R,2026-02-18_11h45.27.784,VisualSearch_2526_3,,2025.2.4,2026-02-18 11h45.27.989301 +0100,
tilted.xlsx,The target is tilted.,117,119,7,14,0,1,1,1,0,0,0,0,0,0,0,0,1,3,4,117,space,4.774195299999974,None,0,1,0.6813004999999066,None,space,1.2163172999999006,None,0,0,0,0,,,,,14,7,119,6,357.56101750000016,,,,,,,,,,,,,,,,,,,,,357.54601749999983,357.56101750000016,358.04521479999994,358.05016449999994,358.0662381000002,358.76192119999996,,,,,358.7621140000001,358.7769466,358.99103719999994,358.9612238999998,358.0662381000002,,,,,,,,0,1,0.6813004999999066,None,,,,,,,,883,21,M,R,2026-02-18_11h45.27.784,VisualSearch_2526_3,,2025.2.4,2026-02-18 11h45.27.989301 +0100,
tilted.xlsx,The target is tilted.,117,0,0,0,,,,,,,,,,,,,,,,,space,4.774195299999974,None,,,,,space,1.2163172999999006,None,0,0,0,0,,,,,,,,,,,,,,,,,,,,,,,,,,,,,,,,,,,,,,,,,,,,,,,,,,,,,,,,,,,,,,,883,21,M,R,2026-02-18_11h45.27.784,VisualSearch_2526_3,,2025.2.4,2026-02-18 11h45.27.989301 +0100,
vertical.xlsx,The target is tilted.,135,0,0,0,0,0,0,0,0,0,0,0,0,0,0,0,1,1,1,135,space,4.049583800000164,None,0,1,0.6040803000000778,None,,,,0,1,1,1,0,0,0,7,,,,,363.0600281000002,,,,,,,,,,,,,,,358.99103719999994,358.99103719999994,358.99103719999994,space,4.049583800000164,None,363.05639470000006,363.0600281000002,363.55833459999985,363.5615094,363.5745879000001,364.19224780000013,0,1,0.6040803000000778,None,364.1924229000001,364.20796229999996,364.40776099999994,364.3919596999999,,,,,,,,,,,,,,,,,,,,883,21,M,R,2026-02-18_11h45.27.784,VisualSearch_2526_3,,2025.2.4,2026-02-18 11h45.27.989301 +0100,
vertical.xlsx,The target is tilted.,135,1,1,0,1,1,1,1,1,1,1,1,0,0,0,0,0,7,8,135,space,4.049583800000164,None,1,1,0.6935957999999118,None,,,,0,1,1,1,0,1,1,1,,,,,364.40776099999994,,,,,,,,,,,,,,,,,,,,,364.3929889000001,364.40776099999994,364.8919027000002,364.8966835000001,364.91228920000003,365.60889399999996,1,1,0.6935957999999118,None,365.6090783999998,365.6238704000002,365.8243510000002,365.80816360000017,364.91228920000003,,,,,,,,,,,,,,,,,,,883,21,M,R,2026-02-18_11h45.27.784,VisualSearch_2526_3,,2025.2.4,2026-02-18 11h45.27.989301 +0100,
vertical.xlsx,The target is tilted.,135,2,2,0,1,1,1,1,1,1,1,1,1,1,1,1,0,11,12,135,space,4.049583800000164,None,1,1,0.5106006000000889,None,,,,0,1,1,1,0,2,2,0,,,,,365.8243510000002,,,,,,,,,,,,,,,,,,,,,365.8088911,365.8243510000002,366.30773469999986,366.31302890000006,366.32771679999996,366.841504,1,1,0.5106006000000889,None,366.84170170000016,366.85708509999995,367.0567234,367.0404497999998,366.32771679999996,,,,,,,,,,,,,,,,,,,883,21,M,R,2026-02-18_11h45.27.784,VisualSearch_2526_3,,2025.2.4,2026-02-18 11h45.27.989301 +0100,
vertical.xlsx,The target is tilted.,135,3,3,0,0,1,1,1,1,1,1,1,1,1,1,1,1,11,12,135,space,4.049583800000164,None,1,0,0.4798168000002079,None,,,,0,1,1,1,0,3,3,4,,,,,367.0567234,,,,,,,,,,,,,,,,,,,,,367.04078500000014,367.0567234,367.54065850000006,367.5461086,367.56093120000014,368.0572235999998,1,0,0.4798168000002079,None,368.05735289999984,368.07328270000016,368.2731512999999,368.2570977999999,367.56093120000014,,,,,,,,,,,,,,,,,,,883,21,M,R,2026-02-18_11h45.27.784,VisualSearch_2526_3,,2025.2.4,2026-02-18 11h45.27.989301 +0100,
vertical.xlsx,The target is tilted.,135,4,4,0,1,1,1,1,0,0,0,0,0,0,0,0,0,3,4,135,space,4.049583800000164,None,1,1,0.4339325999999346,None,,,,0,1,1,1,0,4,4,2,,,,,368.2731512999999,,,,,,,,,,,,,,,,,,,,,368.2577670999999,368.2731512999999,368.7567325,368.7614523000002,368.77616390000003,369.2238314000001,1,1,0.4339325999999346,None,369.2240191000001,369.2392725999998,369.43928510000023,369.42312010000023,368.77616390000003,,,,,,,,,,,,,,,,,,,883,21,M,R,2026-02-18_11h45.27.784,VisualSearch_2526_3,,2025.2.4,2026-02-18 11h45.27.989301 +0100,
vertical.xlsx,The target is tilted.,135,5,5,0,0,1,1,1,0,0,0,0,0,0,0,0,1,3,4,135,space,4.049583800000164,None,0,1,0.47918950000030236,None,,,,0,1,1,1,0,5,5,6,,,,,369.43928510000023,,,,,,,,,,,,,,,,,,,,,369.4238596,369.43928510000023,369.92291860000023,369.92770340000015,369.9425964000002,370.42323750000014,0,1,0.47918950000030236,None,370.42342199999985,370.43830620000017,370.6388148000001,370.62282349999987,369.9425964000002,,,,,,,,,,,,,,,,,,,883,21,M,R,2026-02-18_11h45.27.784,VisualSearch_2526_3,,2025.2.4,2026-02-18 11h45.27.989301 +0100,
vertical.xlsx,The target is tilted.,135,6,6,0,1,0,0,0,0,0,0,0,0,0,0,0,0,0,1,135,space,4.049583800000164,None,1,1,0.5063727000001563,None,,,,0,1,1,1,0,6,6,3,,,,,370.6388148000001,,,,,,,,,,,,,,,,,,,,,370.62357629999997,370.6388148000001,371.12206389999983,371.1268200999998,371.14221480000015,371.6554922,1,1,0.5063727000001563,None,371.655659,371.6716154999999,371.87160270000004,371.85552180000013,371.14221480000015,,,,,,,,,,,,,,,,,,,883,21,M,R,2026-02-18_11h45.27.784,VisualSearch_2526_3,,2025.2.4,2026-02-18 11h45.27.989301 +0100,
vertical.xlsx,The target is tilted.,135,7,7,0,0,1,1,1,1,1,1,1,0,0,0,0,1,7,8,135,space,4.049583800000164,None,0,1,0.8037418999997499,None,,,,0,1,1,1,0,7,7,5,,,,,371.87160270000004,,,,,,,,,,,,,,,,,,,,,371.8563481000001,371.87160270000004,372.35492479999994,372.3597058999999,372.37630660000013,373.1884783999999,0,1,0.8037418999997499,None,373.1886095,373.2040391999999,373.4041830000001,373.3878344999998,372.37630660000013,,,,,,,,,,,,,,,,,,,883,21,M,R,2026-02-18_11h45.27.784,VisualSearch_2526_3,,2025.2.4,2026-02-18 11h45.27.989301 +0100,
vertical.xlsx,The target is tilted.,135,0,0,0,1,1,1,1,1,1,1,1,0,0,0,0,0,7,8,135,space,4.049583800000164,None,1,1,0.5726260999999795,None,space,1.5312051000000793,None,0,1,1,1,,,,,0,0,0,1,374.9656903,,,,,,,,,,,,,,,,,,,,,374.96180219999997,374.9656903,375.45360040000014,375.45842330000005,375.4737491000001,376.05349879999994,,,,,376.0536723,376.069438,376.2692038,376.25296930000013,,373.39510710000013,373.4041830000001,373.4041830000001,374.93772230000013,space,1.5312051000000793,None,1,1,0.5726260999999795,None,,,,,,,,883,21,M,R,2026-02-18_11h45.27.784,VisualSearch_2526_3,,2025.2.4,2026-02-18 11h45.27.989301 +0100,
vertical.xlsx,The target is tilted.,135,1,1,0,0,1,1,1,0,0,0,0,0,0,0,0,1,3,4,135,space,4.049583800000164,None,0,1,0.7575164999998378,None,space,1.5312051000000793,None,0,1,1,1,,,,,0,1,1,6,376.2692038,,,,,,,,,,,,,,,,,,,,,376.2536994000002,376.2692038,376.7532133999998,376.7580858000001,376.7732332999999,377.53640240000004,,,,,377.53659719999996,377.5522052000001,377.75222669999994,377.73612249999996,376.7732332999999,,,,,,,,0,1,0.7575164999998378,None,,,,,,,,883,21,M,R,2026-02-18_11h45.27.784,VisualSearch_2526_3,,2025.2.4,2026-02-18 11h45.27.989301 +0100,
vertical.xlsx,The target is tilted.,135,2,2,0,1,1,1,1,0,0,0,0,0,0,0,0,0,3,4,135,space,4.049583800000164,None,1,1,0.4085371999999552,None,space,1.5312051000000793,None,0,1,1,1,,,,,0,2,2,2,377.75222669999994,,,,,,,,,,,,,,,,,,,,,377.73684749999984,377.75222669999994,378.2359580000002,378.2406682000001,378.25355549999995,378.6691095000001,,,,,378.6692843999999,378.6850866,378.88506659999985,378.86875499999996,378.25355549999995,,,,,,,,1,1,0.4085371999999552,None,,,,,,,,883,21,M,R,2026-02-18_11h45.27.784,VisualSearch_2526_3,,2025.2.4,2026-02-18 11h45.27.989301 +0100,
vertical.xlsx,The target is tilted.,135,3,3,0,1,1,1,1,1,1,1,1,1,1,1,1,0,11,12,135,space,4.049583800000164,None,1,1,0.65340470000001,None,space,1.5312051000000793,None,0,1,1,1,,,,,0,3,3,0,378.88506659999985,,,,,,,,,,,,,,,,,,,,,378.86950479999996,378.88506659999985,379.3685857999999,379.37335399999984,379.388011,380.05199219999986,,,,,380.05214669999987,380.0677105999998,380.26773679999997,380.251475,379.388011,,,,,,,,1,1,0.65340470000001,None,,,,,,,,883,21,M,R,2026-02-18_11h45.27.784,VisualSearch_2526_3,,2025.2.4,2026-02-18 11h45.27.989301 +0100,
vertical.xlsx,The target is tilted.,135,4,4,0,0,1,1,1,1,1,1,1,0,0,0,0,1,7,8,135,space,4.049583800000164,None,0,1,0.892960199999834,None,space,1.5312051000000793,None,0,1,1,1,,,,,0,4,4,5,380.26773679999997,,,,,,,,,,,,,,,,,,,,,380.25225469999987,380.26773679999997,380.7514308,380.75600029999987,380.7669642000001,381.6681718,,,,,381.66836360000025,381.68342170000005,381.8835236,381.8675054999999,380.7669642000001,,,,,,,,0,1,0.892960199999834,None,,,,,,,,883,21,M,R,2026-02-18_11h45.27.784,VisualSearch_2526_3,,2025.2.4,2026-02-18 11h45.27.989301 +0100,
vertical.xlsx,The target is tilted.,135,5,5,0,1,0,0,0,0,0,0,0,0,0,0,0,0,0,1,135,space,4.049583800000164,None,1,1,0.5609843000002002,None,space,1.5312051000000793,None,0,1,1,1,,,,,0,5,5,3,381.8835236,,,,,,,,,,,,,,,,,,,,,381.86869260000003,381.8835236,382.3673641999999,382.3721380000002,382.3877572000001,382.95075829999996,,,,,382.9509266,382.9661323999999,383.1664807000002,383.15024059999996,382.3877572000001,,,,,,,,1,1,0.5609843000002002,None,,,,,,,,883,21,M,R,2026-02-18_11h45.27.784,VisualSearch_2526_3,,2025.2.4,2026-02-18 11h45.27.989301 +0100,
vertical.xlsx,The target is tilted.,135,6,6,0,0,1,1,1,1,1,1,1,1,1,1,1,1,11,12,135,space,4.049583800000164,None,0,1,1.500605700000051,None,space,1.5312051000000793,None,0,1,1,1,,,,,0,6,6,4,383.1664807000002,,,,,,,,,,,,,,,,,,,,,383.1510994999999,383.1664807000002,383.65004799999997,383.65483099999983,383.6701330000001,385.18264050000016,,,,,385.1827698000002,385.19847789999994,385.3986608,385.38256200000023,383.6701330000001,,,,,,,,0,1,1.500605700000051,None,,,,,,,,883,21,M,R,2026-02-18_11h45.27.784,VisualSearch_2526_3,,2025.2.4,2026-02-18 11h45.27.989301 +0100,
vertical.xlsx,The target is tilted.,135,7,7,0,0,0,0,0,0,0,0,0,0,0,0,0,1,1,1,135,space,4.049583800000164,None,0,1,0.697946199999933,None,space,1.5312051000000793,None,0,1,1,1,,,,,0,7,7,7,385.3986608,,,,,,,,,,,,,,,,,,,,,385.38330080000014,385.3986608,385.8823775999999,385.8871634000002,385.9023876000001,386.6156160999999,,,,,386.6157628000001,386.63144060000013,386.83142880000014,386.8152845999998,385.9023876000001,,,,,,,,0,1,0.697946199999933,None,,,,,,,,883,21,M,R,2026-02-18_11h45.27.784,VisualSearch_2526_3,,2025.2.4,2026-02-18 11h45.27.989301 +0100,
vertical.xlsx,The target is tilted.,135,8,0,1,1,1,1,1,1,1,1,1,0,0,0,0,0,7,8,135,space,4.049583800000164,None,1,1,0.9399857999997039,None,space,1.5312051000000793,None,0,1,1,1,,,,,1,0,8,1,386.83142880000014,,,,,,,,,,,,,,,,,,,,,386.8160492000002,386.83142880000014,387.31510320000007,387.31987389999995,387.33529420000013,388.2810675999999,,,,,388.2811480999999,388.2972033000001,388.4971157,388.48116519999985,387.33529420000013,,,,,,,,1,1,0.9399857999997039,None,,,,,,,,883,21,M,R,2026-02-18_11h45.27.784,VisualSearch_2526_3,,2025.2.4,2026-02-18 11h45.27.989301 +0100,
vertical.xlsx,The target is tilted.,135,9,1,1,0,1,1,1,0,0,0,0,0,0,0,0,1,3,4,135,space,4.049583800000164,None,0,1,0.6873919999998179,None,space,1.5312051000000793,None,0,1,1,1,,,,,1,1,9,6,388.4971157,,,,,,,,,,,,,,,,,,,,,388.48192900000004,388.4971157,388.98087829999986,388.9856745000002,389.00092510000013,389.69745950000015,,,,,389.69758420000016,389.7133543,389.9134207000002,389.8973430000001,389.00092510000013,,,,,,,,0,1,0.6873919999998179,None,,,,,,,,883,21,M,R,2026-02-18_11h45.27.784,VisualSearch_2526_3,,2025.2.4,2026-02-18 11h45.27.989301 +0100,
vertical.xlsx,The target is tilted.,135,10,2,1,1,0,0,0,0,0,0,0,0,0,0,0,0,0,1,135,space,4.049583800000164,None,1,1,0.45239349999974365,None,space,1.5312051000000793,None,0,1,1,1,,,,,1,2,10,3,389.9134207000002,,,,,,,,,,,,,,,,,,,,,389.89811199999986,389.9134207000002,390.39660649999996,390.40136630000006,390.4186921999999,390.8807121,,,,,390.8809024000002,390.8958871,391.09612960000004,391.08000549999997,390.4186921999999,,,,,,,,1,1,0.45239349999974365,None,,,,,,,,883,21,M,R,2026-02-18_11h45.27.784,VisualSearch_2526_3,,2025.2.4,2026-02-18 11h45.27.989301 +0100,
vertical.xlsx,The target is tilted.,135,11,3,1,0,0,0,0,0,0,0,0,0,0,0,0,1,1,1,135,space,4.049583800000164,None,0,1,0.5312618000002658,None,space,1.5312051000000793,None,0,1,1,1,,,,,1,3,11,7,391.09612960000004,,,,,,,,,,,,,,,,,,,,,391.0807881999999,391.09612960000004,391.57947950000016,391.58422280000013,391.59980929999983,392.14669619999995,,,,,392.14688669999987,392.16190770000003,392.3623143,392.3461554999999,391.59980929999983,,,,,,,,0,1,0.5312618000002658,None,,,,,,,,883,21,M,R,2026-02-18_11h45.27.784,VisualSearch_2526_3,,2025.2.4,2026-02-18 11h45.27.989301 +0100,
vertical.xlsx,The target is tilted.,135,12,4,1,1,1,1,1,1,1,1,1,1,1,1,1,0,11,12,135,space,4.049583800000164,None,1,1,0.43357570000034684,None,space,1.5312051000000793,None,0,1,1,1,,,,,1,4,12,0,392.3623143,,,,,,,,,,,,,,,,,,,,,392.3468766000001,392.3623143,392.8458770000002,392.8506203000002,392.86584630000016,393.31216570000015,,,,,393.31230860000005,393.3280242000001,393.5284743000002,393.51237820000006,392.86584630000016,,,,,,,,1,1,0.43357570000034684,None,,,,,,,,883,21,M,R,2026-02-18_11h45.27.784,VisualSearch_2526_3,,2025.2.4,2026-02-18 11h45.27.989301 +0100,
vertical.xlsx,The target is tilted.,135,13,5,1,0,1,1,1,1,1,1,1,0,0,0,0,1,7,8,135,space,4.049583800000164,None,1,0,0.5227774999998474,None,space,1.5312051000000793,None,0,1,1,1,,,,,1,5,13,5,393.5284743000002,,,,,,,,,,,,,,,,,,,,,393.5131897000001,393.5284743000002,394.0120046000002,394.01680510000006,394.0318817000002,394.5616596,,,,,394.5617622,394.5777290000001,394.77778549999994,394.7617153000001,394.0318817000002,,,,,,,,1,0,0.5227774999998474,None,,,,,,,,883,21,M,R,2026-02-18_11h45.27.784,VisualSearch_2526_3,,2025.2.4,2026-02-18 11h45.27.989301 +0100,
vertical.xlsx,The target is tilted.,135,14,6,1,0,1,1,1,1,1,1,1,1,1,1,1,1,11,12,135,space,4.049583800000164,None,0,1,0.898104400000193,None,space,1.5312051000000793,None,0,1,1,1,,,,,1,6,14,4,394.77778549999994,,,,,,,,,,,,,,,,,,,,,394.76245180000024,394.77778549999994,395.2615624,395.266165,395.28559170000017,396.1949887999999,,,,,396.1951783999998,396.21013660000017,396.4103500000001,396.39419940000016,395.28559170000017,,,,,,,,0,1,0.898104400000193,None,,,,,,,,883,21,M,R,2026-02-18_11h45.27.784,VisualSearch_2526_3,,2025.2.4,2026-02-18 11h45.27.989301 +0100,
vertical.xlsx,The target is tilted.,135,15,7,1,1,1,1,1,0,0,0,0,0,0,0,0,0,3,4,135,space,4.049583800000164,None,1,1,0.5265088000001015,None,space,1.5312051000000793,None,0,1,1,1,,,,,1,7,15,2,396.4103500000001,,,,,,,,,,,,,,,,,,,,,396.39495799999986,396.4103500000001,396.8941547999998,396.8988678999999,396.9100020000001,397.4444463,,,,,397.4446406000002,397.4596022999999,397.65986470000007,397.64364680000017,396.9100020000001,,,,,,,,1,1,0.5265088000001015,None,,,,,,,,883,21,M,R,2026-02-18_11h45.27.784,VisualSearch_2526_3,,2025.2.4,2026-02-18 11h45.27.989301 +0100,
vertical.xlsx,The target is tilted.,135,16,0,2,0,1,1,1,1,1,1,1,1,1,1,1,1,11,12,135,space,4.049583800000164,None,0,1,1.262937200000124,None,space,1.5312051000000793,None,0,1,1,1,,,,,2,0,16,4,397.65986470000007,,,,,,,,,,,,,,,,,,,,,397.6444442000002,397.65986470000007,398.14326200000005,398.14838009999994,398.1637346000002,399.4434984999998,,,,,399.4436922,399.45898639999996,399.65900550000015,399.6430144000001,398.1637346000002,,,,,,,,0,1,1.262937200000124,None,,,,,,,,883,21,M,R,2026-02-18_11h45.27.784,VisualSearch_2526_3,,2025.2.4,2026-02-18 11h45.27.989301 +0100,
vertical.xlsx,The target is tilted.,135,17,1,2,1,1,1,1,0,0,0,0,0,0,0,0,0,3,4,135,space,4.049583800000164,None,1,1,0.5279740000000857,None,space,1.5312051000000793,None,0,1,1,1,,,,,2,1,17,2,399.65900550000015,,,,,,,,,,,,,,,,,,,,,399.6438128,399.65900550000015,400.1425147,400.1472770999999,400.16253259999985,400.692822,,,,,400.6930232999998,400.70838379999987,400.9083301999999,400.8923734,400.16253259999985,,,,,,,,1,1,0.5279740000000857,None,,,,,,,,883,21,M,R,2026-02-18_11h45.27.784,VisualSearch_2526_3,,2025.2.4,2026-02-18 11h45.27.989301 +0100,
vertical.xlsx,The target is tilted.,135,18,2,2,1,1,1,1,1,1,1,1,1,1,1,1,0,11,12,135,space,4.049583800000164,None,1,1,0.9332307999998193,None,space,1.5312051000000793,None,0,1,1,1,,,,,2,2,18,0,400.9083301999999,,,,,,,,,,,,,,,,,,,,,400.89307880000024,400.9083301999999,401.3920111000002,401.39684669999997,401.41286500000024,402.3585340999998,,,,,402.3587244999999,402.37442439999995,402.5742215999999,402.55779250000023,401.41286500000024,,,,,,,,1,1,0.9332307999998193,None,,,,,,,,883,21,M,R,2026-02-18_11h45.27.784,VisualSearch_2526_3,,2025.2.4,2026-02-18 11h45.27.989301 +0100,
vertical.xlsx,The target is tilted.,135,19,3,2,0,1,1,1,1,1,1,1,0,0,0,0,1,7,8,135,space,4.049583800000164,None,0,1,0.8626140000001215,None,space,1.5312051000000793,None,0,1,1,1,,,,,2,3,19,5,402.5742215999999,,,,,,,,,,,,,,,,,,,,,402.5585970000002,402.5742215999999,403.0576065999999,403.0623635000002,403.07575469999983,403.94152940000004,,,,,403.94171800000004,403.95700799999986,404.1565436000001,404.14070600000014,403.07575469999983,,,,,,,,0,1,0.8626140000001215,None,,,,,,,,883,21,M,R,2026-02-18_11h45.27.784,VisualSearch_2526_3,,2025.2.4,2026-02-18 11h45.27.989301 +0100,
vertical.xlsx,The target is tilted.,135,20,4,2,0,1,1,1,0,0,0,0,0,0,0,0,1,3,4,135,space,4.049583800000164,None,0,1,0.6100012000001698,None,space,1.5312051000000793,None,0,1,1,1,,,,,2,4,20,6,404.1565436000001,,,,,,,,,,,,,,,,,,,,,404.1414890000001,404.1565436000001,404.6405171000001,404.6458837,404.66110260000005,405.2743000999999,,,,,405.27454709999984,405.28971649999994,405.48962740000024,405.4733424000001,404.66110260000005,,,,,,,,0,1,0.6100012000001698,None,,,,,,,,883,21,M,R,2026-02-18_11h45.27.784,VisualSearch_2526_3,,2025.2.4,2026-02-18 11h45.27.989301 +0100,
vertical.xlsx,The target is tilted.,135,21,5,2,0,0,0,0,0,0,0,0,0,0,0,0,1,1,1,135,space,4.049583800000164,None,0,1,0.4325050999996165,None,space,1.5312051000000793,None,0,1,1,1,,,,,2,5,21,7,405.48962740000024,,,,,,,,,,,,,,,,,,,,,405.47412650000024,405.48962740000024,405.9733769999998,405.97795799999994,405.9892571999999,406.4234061000002,,,,,406.42355959999986,406.43900970000004,406.6390815,406.62300959999993,405.9892571999999,,,,,,,,0,1,0.4325050999996165,None,,,,,,,,883,21,M,R,2026-02-18_11h45.27.784,VisualSearch_2526_3,,2025.2.4,2026-02-18 11h45.27.989301 +0100,
vertical.xlsx,The target is tilted.,135,22,6,2,1,1,1,1,1,1,1,1,0,0,0,0,0,7,8,135,space,4.049583800000164,None,1,1,0.6667339000000538,None,space,1.5312051000000793,None,0,1,1,1,,,,,2,6,22,1,406.6390815,,,,,,,,,,,,,,,,,,,,,406.6237854000001,406.6390815,407.12286570000015,407.12758459999986,407.1451784000001,407.8227075,,,,,407.8229298000001,407.8381989999998,408.03811270000006,408.0223368000002,407.1451784000001,,,,,,,,1,1,0.6667339000000538,None,,,,,,,,883,21,M,R,2026-02-18_11h45.27.784,VisualSearch_2526_3,,2025.2.4,2026-02-18 11h45.27.989301 +0100,
vertical.xlsx,The target is tilted.,135,23,7,2,1,0,0,0,0,0,0,0,0,0,0,0,0,0,1,135,space,4.049583800000164,None,1,1,0.3994065000001683,None,space,1.5312051000000793,None,0,1,1,1,,,,,2,7,23,3,408.03811270000006,,,,,,,,,,,,,,,,,,,,,408.02316370000017,408.03811270000006,408.52208150000024,408.52672070000017,408.5380199000001,408.93896110000014,,,,,408.9391386000002,408.95437330000004,409.15461460000006,409.13834989999987,408.5380199000001,,,,,,,,1,1,0.3994065000001683,None,,,,,,,,883,21,M,R,2026-02-18_11h45.27.784,VisualSearch_2526_3,,2025.2.4,2026-02-18 11h45.27.989301 +0100,
vertical.xlsx,The target is tilted.,135,24,0,3,1,1,1,1,0,0,0,0,0,0,0,0,0,3,4,135,space,4.049583800000164,None,0,0,0.5535413000002336,None,space,1.5312051000000793,None,0,1,1,1,,,,,3,0,24,2,409.15461460000006,,,,,,,,,,,,,,,,,,,,,409.13909809999996,409.15461460000006,409.63795459999983,409.64262629999985,409.6612393999999,410.2217162000002,,,,,410.22188719999986,410.2374592000001,410.43716570000015,410.42121899999984,409.6612393999999,,,,,,,,0,0,0.5535413000002336,None,,,,,,,,883,21,M,R,2026-02-18_11h45.27.784,VisualSearch_2526_3,,2025.2.4,2026-02-18 11h45.27.989301 +0100,
vertical.xlsx,The target is tilted.,135,25,1,3,1,1,1,1,1,1,1,1,1,1,1,1,0,11,12,135,space,4.049583800000164,None,1,1,0.6931978000002346,None,space,1.5312051000000793,None,0,1,1,1,,,,,3,1,25,0,410.43716570000015,,,,,,,,,,,,,,,,,,,,,410.42204200000015,410.43716570000015,410.9209544999999,410.92569189999995,410.9411786999999,411.6375859,,,,,411.6377745,411.6533727000001,411.8534813000001,411.8372724999999,410.9411786999999,,,,,,,,1,1,0.6931978000002346,None,,,,,,,,883,21,M,R,2026-02-18_11h45.27.784,VisualSearch_2526_3,,2025.2.4,2026-02-18 11h45.27.989301 +0100,
vertical.xlsx,The target is tilted.,135,26,2,3,0,1,1,1,1,1,1,1,0,0,0,0,1,7,8,135,space,4.049583800000164,None,0,1,0.9295493999998143,None,space,1.5312051000000793,None,0,1,1,1,,,,,3,2,26,5,411.8534813000001,,,,,,,,,,,,,,,,,,,,,411.83808369999997,411.8534813000001,412.3371032,412.34190230000013,412.3577111999998,413.3031113000002,,,,,413.3031882,413.3192090000002,413.51934040000015,413.5033096000002,412.3577111999998,,,,,,,,0,1,0.9295493999998143,None,,,,,,,,883,21,M,R,2026-02-18_11h45.27.784,VisualSearch_2526_3,,2025.2.4,2026-02-18 11h45.27.989301 +0100,
vertical.xlsx,The target is tilted.,135,27,3,3,0,1,1,1,1,1,1,1,1,1,1,1,1,11,12,135,space,4.049583800000164,None,0,1,0.7535046000002694,None,space,1.5312051000000793,None,0,1,1,1,,,,,3,3,27,4,413.51934040000015,,,,,,,,,,,,,,,,,,,,,413.5040509999999,413.51934040000015,414.0029648999998,414.0077454000002,414.0251696999999,414.7853633999998,,,,,414.78546030000007,414.8015949999999,,414.9856537999999,414.0251696999999,,,,,,,,0,1,0.7535046000002694,None,,,,,,,,883,21,M,R,2026-02-18_11h45.27.784,VisualSearch_2526_3,,2025.2.4,2026-02-18 11h45.27.989301 +0100,
vertical.xlsx,The target is tilted.,135,28,4,3,0,1,1,1,0,0,0,0,0,0,0,0,1,3,4,135,space,4.049583800000164,None,0,1,0.5676641000000018,None,space,1.5312051000000793,None,0,1,1,1,,,,,3,4,28,6,415.00196749999986,,,,,,,,,,,,,,,,,,,,,414.9864166000002,415.00196749999986,415.4852523999998,415.49008749999985,415.5047734999998,416.0854773000001,,,,,416.08561180000015,416.1014052999999,416.3013368000002,416.28525949999994,415.5047734999998,,,,,,,,0,1,0.5676641000000018,None,,,,,,,,883,21,M,R,2026-02-18_11h45.27.784,VisualSearch_2526_3,,2025.2.4,2026-02-18 11h45.27.989301 +0100,
vertical.xlsx,The target is tilted.,135,29,5,3,1,1,1,1,1,1,1,1,0,0,0,0,0,7,8,135,space,4.049583800000164,None,1,1,0.7128497000003335,None,space,1.5312051000000793,None,0,1,1,1,,,,,3,5,29,1,416.3013368000002,,,,,,,,,,,,,,,,,,,,,416.2860294000002,416.3013368000002,416.7850705000001,416.7899950000001,416.8052763999999,417.53512610000007,,,,,417.53531699999985,417.5508384,417.7507518000002,417.7346385000001,416.8052763999999,,,,,,,,1,1,0.7128497000003335,None,,,,,,,,883,21,M,R,2026-02-18_11h45.27.784,VisualSearch_2526_3,,2025.2.4,2026-02-18 11h45.27.989301 +0100,
vertical.xlsx,The target is tilted.,135,30,6,3,0,0,0,0,0,0,0,0,0,0,0,0,1,1,1,135,space,4.049583800000164,None,0,1,0.5426603000000796,None,space,1.5312051000000793,None,0,1,1,1,,,,,3,6,30,7,417.7507518000002,,,,,,,,,,,,,,,,,,,,,417.73535949999996,417.7507518000002,418.23436159999983,418.23911150000004,418.2540939999999,418.80098020000014,,,,,418.8011796999999,418.8168644000002,419.0169777000001,419.0007817999999,418.2540939999999,,,,,,,,0,1,0.5426603000000796,None,,,,,,,,883,21,M,R,2026-02-18_11h45.27.784,VisualSearch_2526_3,,2025.2.4,2026-02-18 11h45.27.989301 +0100,
vertical.xlsx,The target is tilted.,135,31,7,3,1,0,0,0,0,0,0,0,0,0,0,0,0,0,1,135,space,4.049583800000164,None,1,1,0.5031081000001905,None,space,1.5312051000000793,None,0,1,1,1,,,,,3,7,31,3,419.0169777000001,,,,,,,,,,,,,,,,,,,,,419.0015957999999,419.0169777000001,419.5005861999998,419.50515989999985,419.5225366999998,420.0336086000002,,,,,420.03379799999993,420.04954150000003,420.2495801,420.2335278999999,419.5225366999998,,,,,,,,1,1,0.5031081000001905,None,,,,,,,,883,21,M,R,2026-02-18_11h45.27.784,VisualSearch_2526_3,,2025.2.4,2026-02-18 11h45.27.989301 +0100,
vertical.xlsx,The target is tilted.,135,32,0,4,1,1,1,1,1,1,1,1,1,1,1,1,0,11,12,135,space,4.049583800000164,None,1,1,0.8373378999999659,None,space,1.5312051000000793,None,0,1,1,1,,,,,4,0,32,0,420.2495801,,,,,,,,,,,,,,,,,,,,,420.2342702000001,420.2495801,420.73317020000013,420.73803739999994,420.7524078000001,421.60008789999983,,,,,421.60027630000013,421.6152689999999,421.81555750000007,421.79904239999996,420.7524078000001,,,,,,,,1,1,0.8373378999999659,None,,,,,,,,883,21,M,R,2026-02-18_11h45.27.784,VisualSearch_2526_3,,2025.2.4,2026-02-18 11h45.27.989301 +0100,
vertical.xlsx,The target is tilted.,135,33,1,4,0,0,0,0,0,0,0,0,0,0,0,0,1,1,1,135,space,4.049583800000164,None,0,1,0.46437890000015614,None,space,1.5312051000000793,None,0,1,1,1,,,,,4,1,33,7,421.81555750000007,,,,,,,,,,,,,,,,,,,,,421.7997866999999,421.81555750000007,422.29918439999983,422.3039896,422.32023789999994,422.7992506999999,,,,,422.79944290000003,422.8149533999999,423.0150411999998,422.9987772999998,422.32023789999994,,,,,,,,0,1,0.46437890000015614,None,,,,,,,,883,21,M,R,2026-02-18_11h45.27.784,VisualSearch_2526_3,,2025.2.4,2026-02-18 11h45.27.989301 +0100,
vertical.xlsx,The target is tilted.,135,34,2,4,0,1,1,1,1,1,1,1,0,0,0,0,1,7,8,135,space,4.049583800000164,None,0,1,1.1767918000000464,None,space,1.5312051000000793,None,0,1,1,1,,,,,4,2,34,5,423.0150411999998,,,,,,,,,,,,,,,,,,,,,422.99953370000003,423.0150411999998,423.49855389999993,423.50334120000025,423.51838450000014,424.69832069999984,,,,,424.69848839999986,424.71415430000025,424.91389949999984,424.8975349000002,423.51838450000014,,,,,,,,0,1,1.1767918000000464,None,,,,,,,,883,21,M,R,2026-02-18_11h45.27.784,VisualSearch_2526_3,,2025.2.4,2026-02-18 11h45.27.989301 +0100,
