file_name,block_instructions,target_example,thisN,thisTrialN,thisRepN,target_presence,opacity_1,opacity_2,opacity_3,opacity_4,opacity_5,opacity_6,opacity_7,opacity_8,opacity_9,opacity_10,opacity_11,opacity_12,n_distract,n_items,target_ori,key_resp_4.keys,key_resp_4.rt,key_resp_4.duration,key_resp.keys,key_resp.corr,key_resp.rt,key_resp.duration,key_resp_5.keys,key_resp_5.rt,key_resp_5.duration,blocks.thisRepN,blocks.thisTrialN,blocks.thisN,blocks.thisIndex,practice_trials.thisRepN,practice_trials.thisTrialN,practice_trials.thisN,practice_trials.thisIndex,trials.thisRepN,trials.thisTrialN,trials.thisN,trials.thisIndex,thisRow.t,notes,Welcome.started,WelcomeText.started,key_resp_2.started,Welcome.stopped,key_resp_2.keys,key_resp_2.rt,key_resp_2.duration,InformedConsent.started,text_4.started,InformedConsent.stopped,key_resp_6.keys,key_resp_6.rt,key_resp_6.duration,key_resp_4.started,example_target.started,text_3.started,blocks.key_resp_4.keys,blocks.key_resp_4.rt,blocks.key_resp_4.duration,FixCross.started,fixCross.started,FixCross.stopped,Stimulus.started,key_resp.started,Stimulus.stopped,practice_trials.key_resp.keys,practice_trials.key_resp.corr,practice_trials.key_resp.rt,practice_trials.key_resp.duration,BlankScreen.started,text.started,text.stopped,BlankScreen.stopped,fixCross.stopped,ExperimentStart.started,text_2.started,key_resp_5.started,ExperimentStart.stopped,blocks.key_resp_5.keys,blocks.key_resp_5.rt,blocks.key_resp_5.duration,trials.key_resp.keys,trials.key_resp.corr,trials.key_resp.rt,trials.key_resp.duration,Thanks.started,ThankYou.started,key_resp_3.started,Thanks.stopped,key_resp_3.keys,key_resp_3.rt,key_resp_3.duration,participant,leeftijd,gender,links/rechtshandig,date,expName,expVersion,psychopyVersion,expStart,
,,,,,,,,,,,,,,,,,,,,,,,,,,,,,,,,,,,,,,,,,,,,,,0.02634130000001278,0.05377099999998336,0.05377099999998336,33.992698299999915,space,33.819439800000055,None,,,,,,,,,,,,,,,,,,,,,,,,,,,,,,,,,,,,,,,,,,,,,,883,25,M,R,2026-02-25_11h05.29.946,VisualSearch_2526_3,,2025.2.4,2026-02-25 11h05.30.459210 +0100,
,,,,,,,,,,,,,,,,,,,,,,,,,,,,,,,,,,,,,,,,,,,,,,,,,,,,,33.9927467,33.997755900000016,57.281793799999946,y,23.27296410000008,None,,,,,,,,,,,,,,,,,,,,,,,,,,,,,,,,,,,,,,,,883,25,M,R,2026-02-25_11h05.29.946,VisualSearch_2526_3,,2025.2.4,2026-02-25 11h05.30.459210 +0100,
tilted.xlsx,The target is tilted.,117,0,0,0,0,1,1,1,0,0,0,0,0,0,0,0,1,3,4,117,space,11.79712619999998,None,1,0,3.912775500000066,None,,,,0,0,0,0,0,0,0,6,,,,,69.26406409999993,,,,,,,,,,,,,,,57.387791799999945,57.387791799999945,57.387791799999945,space,11.79712619999998,None,69.25808949999998,69.26406409999993,69.70856849999996,69.7133566,69.72996039999998,73.6571755,1,0,3.912775500000066,None,73.65731039999991,73.67266339999992,73.87267169999996,73.85682199999997,,,,,,,,,,,,,,,,,,,,883,25,M,R,2026-02-25_11h05.29.946,VisualSearch_2526_3,,2025.2.4,2026-02-25 11h05.30.459210 +0100,
tilted.xlsx,The target is tilted.,117,1,1,0,1,1,1,1,1,1,1,1,0,0,0,0,0,7,8,117,space,11.79712619999998,None,1,1,2.5682996999998977,None,,,,0,0,0,0,0,1,1,1,,,,,73.87267169999996,,,,,,,,,,,,,,,,,,,,,73.85749639999995,73.87267169999996,74.35674429999995,74.36130659999992,74.37805289999994,76.95568639999999,1,1,2.5682996999998977,None,76.9558591,76.97147480000001,77.17148829999996,77.15539359999991,74.37805289999994,,,,,,,,,,,,,,,,,,,883,25,M,R,2026-02-25_11h05.29.946,VisualSearch_2526_3,,2025.2.4,2026-02-25 11h05.30.459210 +0100,
tilted.xlsx,The target is tilted.,117,2,2,0,1,0,0,0,0,0,0,0,0,0,0,0,0,0,1,117,space,11.79712619999998,None,0,0,0.8053705999999465,None,,,,0,0,0,0,0,2,2,3,,,,,77.17148829999996,,,,,,,,,,,,,,,,,,,,,77.1560379,77.17148829999996,77.65511349999997,77.65975179999998,77.67355850000001,78.48824989999991,0,0,0.8053705999999465,None,78.48838209999997,78.50368299999991,78.70412799999997,78.68762499999991,77.67355850000001,,,,,,,,,,,,,,,,,,,883,25,M,R,2026-02-25_11h05.29.946,VisualSearch_2526_3,,2025.2.4,2026-02-25 11h05.30.459210 +0100,
tilted.xlsx,The target is tilted.,117,3,3,0,1,1,1,1,1,1,1,1,1,1,1,1,0,11,12,117,space,11.79712619999998,None,1,1,1.7049799999999777,None,,,,0,0,0,0,0,3,3,0,,,,,78.70412799999997,,,,,,,,,,,,,,,,,,,,,78.6883047,78.70412799999997,79.18766129999995,79.19227869999997,79.20873989999996,80.92036810000002,1,1,1.7049799999999777,None,80.92055640000001,80.93593950000002,81.13641610000002,81.1203314999999,79.20873989999996,,,,,,,,,,,,,,,,,,,883,25,M,R,2026-02-25_11h05.29.946,VisualSearch_2526_3,,2025.2.4,2026-02-25 11h05.30.459210 +0100,
tilted.xlsx,The target is tilted.,117,4,4,0,0,1,1,1,1,1,1,1,0,0,0,0,1,7,8,117,space,11.79712619999998,None,1,0,2.2769782000000305,None,,,,0,0,0,0,0,4,4,5,,,,,81.13641610000002,,,,,,,,,,,,,,,,,,,,,81.12096399999996,81.13641610000002,81.62010479999992,81.62466719999998,81.64114669999992,83.9193181999999,1,0,2.2769782000000305,None,83.91951019999999,83.93462939999995,84.13427939999997,84.11799999999994,81.64114669999992,,,,,,,,,,,,,,,,,,,883,25,M,R,2026-02-25_11h05.29.946,VisualSearch_2526_3,,2025.2.4,2026-02-25 11h05.30.459210 +0100,
tilted.xlsx,The target is tilted.,117,5,5,0,0,0,0,0,0,0,0,0,0,0,0,0,1,1,1,117,space,11.79712619999998,None,0,1,0.8396011999999473,None,,,,0,0,0,0,0,5,5,7,,,,,84.13427939999997,,,,,,,,,,,,,,,,,,,,,84.1185577,84.13427939999997,84.6183704,84.6214506,84.63417629999992,85.48550979999993,0,1,0.8396011999999473,None,85.48569779999991,85.50051969999993,85.70102439999994,85.68481499999996,84.63417629999992,,,,,,,,,,,,,,,,,,,883,25,M,R,2026-02-25_11h05.29.946,VisualSearch_2526_3,,2025.2.4,2026-02-25 11h05.30.459210 +0100,
tilted.xlsx,The target is tilted.,117,6,6,0,0,1,1,1,1,1,1,1,1,1,1,1,1,11,12,117,space,11.79712619999998,None,1,0,2.501672800000051,None,,,,0,0,0,0,0,6,6,4,,,,,85.70102439999994,,,,,,,,,,,,,,,,,,,,,85.68557169999997,85.70102439999994,86.18420070000002,86.18932229999996,86.20622189999995,88.71744439999998,1,0,2.501672800000051,None,88.71765340000002,88.73243830000001,88.93262829999992,88.9164644,86.20622189999995,,,,,,,,,,,,,,,,,,,883,25,M,R,2026-02-25_11h05.29.946,VisualSearch_2526_3,,2025.2.4,2026-02-25 11h05.30.459210 +0100,
tilted.xlsx,The target is tilted.,117,7,7,0,1,1,1,1,0,0,0,0,0,0,0,0,0,3,4,117,space,11.79712619999998,None,0,0,1.02924459999997,None,,,,0,0,0,0,0,7,7,2,,,,,88.93262829999992,,,,,,,,,,,,,,,,,,,,,88.91712380000001,88.93262829999992,89.41653780000001,89.42110659999992,89.43757779999999,90.48256179999998,0,0,1.02924459999997,None,90.48276239999996,90.49821969999994,90.6980782999999,90.68160539999997,89.43757779999999,,,,,,,,,,,,,,,,,,,883,25,M,R,2026-02-25_11h05.29.946,VisualSearch_2526_3,,2025.2.4,2026-02-25 11h05.30.459210 +0100,
tilted.xlsx,The target is tilted.,117,0,0,0,0,1,1,1,1,1,1,1,0,0,0,0,1,7,8,117,space,11.79712619999998,None,1,0,2.5349189999999453,None,space,3.2726595000000316,None,0,0,0,0,,,,,0,0,0,5,94.01454209999997,,,,,,,,,,,,,,,,,,,,,94.01036099999999,94.01454209999997,94.4972755,94.50192809999999,94.51858299999992,97.06327979999992,,,,,97.06347889999995,97.07855859999995,97.27868309999997,97.26270009999996,,90.68559499999992,90.6980782999999,90.6980782999999,93.98166839999999,space,3.2726595000000316,None,1,0,2.5349189999999453,None,,,,,,,,883,25,M,R,2026-02-25_11h05.29.946,VisualSearch_2526_3,,2025.2.4,2026-02-25 11h05.30.459210 +0100,
tilted.xlsx,The target is tilted.,117,1,1,0,1,1,1,1,1,1,1,1,0,0,0,0,0,7,8,117,space,11.79712619999998,None,1,1,0.9597182999999632,None,space,3.2726595000000316,None,0,0,0,0,,,,,0,1,1,1,97.27868309999997,,,,,,,,,,,,,,,,,,,,,97.26353449999999,97.27868309999997,97.76290039999992,97.76802779999991,97.78416879999997,98.74556619999998,,,,,98.74569389999999,98.76123849999999,98.96168379999995,98.94564149999997,97.78416879999997,,,,,,,,1,1,0.9597182999999632,None,,,,,,,,883,25,M,R,2026-02-25_11h05.29.946,VisualSearch_2526_3,,2025.2.4,2026-02-25 11h05.30.459210 +0100,
tilted.xlsx,The target is tilted.,117,2,2,0,1,1,1,1,1,1,1,1,1,1,1,1,0,11,12,117,space,11.79712619999998,None,1,1,1.8638043000000835,None,space,3.2726595000000316,None,0,0,0,0,,,,,0,2,2,0,98.96168379999995,,,,,,,,,,,,,,,,,,,,,98.94651829999998,98.96168379999995,99.44522469999993,99.44963059999998,99.46127549999994,101.32807259999993,,,,,101.32826919999991,101.34332139999992,101.54352180000001,101.52774069999998,99.46127549999994,,,,,,,,1,1,1.8638043000000835,None,,,,,,,,883,25,M,R,2026-02-25_11h05.29.946,VisualSearch_2526_3,,2025.2.4,2026-02-25 11h05.30.459210 +0100,
tilted.xlsx,The target is tilted.,117,3,3,0,1,1,1,1,0,0,0,0,0,0,0,0,0,3,4,117,space,11.79712619999998,None,0,0,1.3601071000000502,None,space,3.2726595000000316,None,0,0,0,0,,,,,0,3,3,2,101.54352180000001,,,,,,,,,,,,,,,,,,,,,101.52846289999991,101.54352180000001,102.02746489999993,102.03204349999999,102.0469094,103.41027020000001,,,,,103.41044979999992,103.42575079999995,103.6261925,103.61008789999994,102.0469094,,,,,,,,0,0,1.3601071000000502,None,,,,,,,,883,25,M,R,2026-02-25_11h05.29.946,VisualSearch_2526_3,,2025.2.4,2026-02-25 11h05.30.459210 +0100,
tilted.xlsx,The target is tilted.,117,4,4,0,0,1,1,1,0,0,0,0,0,0,0,0,1,3,4,117,space,11.79712619999998,None,0,1,0.8295220999999628,None,space,3.2726595000000316,None,0,0,0,0,,,,,0,4,4,6,103.6261925,,,,,,,,,,,,,,,,,,,,,103.61078889999999,103.6261925,104.10970009999994,104.11427609999998,104.13014659999999,104.9758673,,,,,104.97604439999998,104.99162530000001,105.19217839999999,105.17627659999994,104.13014659999999,,,,,,,,0,1,0.8295220999999628,None,,,,,,,,883,25,M,R,2026-02-25_11h05.29.946,VisualSearch_2526_3,,2025.2.4,2026-02-25 11h05.30.459210 +0100,
tilted.xlsx,The target is tilted.,117,5,5,0,0,0,0,0,0,0,0,0,0,0,0,0,1,1,1,117,space,11.79712619999998,None,0,1,0.7456337999999505,None,space,3.2726595000000316,None,0,0,0,0,,,,,0,5,5,7,105.19217839999999,,,,,,,,,,,,,,,,,,,,,105.17717989999994,105.19217839999999,105.67572729999995,105.68036889999996,105.69726939999998,106.45903569999996,,,,,106.45925030000001,106.47447469999997,106.67454449999991,106.65889859999993,105.69726939999998,,,,,,,,0,1,0.7456337999999505,None,,,,,,,,883,25,M,R,2026-02-25_11h05.29.946,VisualSearch_2526_3,,2025.2.4,2026-02-25 11h05.30.459210 +0100,
tilted.xlsx,The target is tilted.,117,6,6,0,0,1,1,1,1,1,1,1,1,1,1,1,1,11,12,117,space,11.79712619999998,None,1,0,1.1081355999999687,None,space,3.2726595000000316,None,0,0,0,0,,,,,0,6,6,4,106.67454449999991,,,,,,,,,,,,,,,,,,,,,106.6597276,106.67454449999991,107.1586072,107.16381769999998,107.18070209999996,108.29182270000001,,,,,108.29201999999998,108.30687139999998,108.50736619999998,108.4913209,107.18070209999996,,,,,,,,1,0,1.1081355999999687,None,,,,,,,,883,25,M,R,2026-02-25_11h05.29.946,VisualSearch_2526_3,,2025.2.4,2026-02-25 11h05.30.459210 +0100,
tilted.xlsx,The target is tilted.,117,7,7,0,1,0,0,0,0,0,0,0,0,0,0,0,0,0,1,117,space,11.79712619999998,None,0,0,1.4342682000000195,None,space,3.2726595000000316,None,0,0,0,0,,,,,0,7,7,3,108.50736619999998,,,,,,,,,,,,,,,,,,,,,108.49211309999998,108.50736619999998,108.99095549999993,108.99564149999992,109.01203620000001,110.45729599999993,,,,,110.4574725,110.47251589999996,110.67263439999999,110.65648249999992,109.01203620000001,,,,,,,,0,0,1.4342682000000195,None,,,,,,,,883,25,M,R,2026-02-25_11h05.29.946,VisualSearch_2526_3,,2025.2.4,2026-02-25 11h05.30.459210 +0100,
tilted.xlsx,The target is tilted.,117,8,0,1,1,1,1,1,1,1,1,1,1,1,1,1,0,11,12,117,space,11.79712619999998,None,1,1,1.7217750000000933,None,space,3.2726595000000316,None,0,0,0,0,,,,,1,0,8,0,110.67263439999999,,,,,,,,,,,,,,,,,,,,,110.65720349999992,110.67263439999999,111.1566383999999,111.16123770000002,111.17938749999996,112.9059499,,,,,112.90612509999994,112.92143279999993,113.12189130000002,113.10578479999992,111.17938749999996,,,,,,,,1,1,1.7217750000000933,None,,,,,,,,883,25,M,R,2026-02-25_11h05.29.946,VisualSearch_2526_3,,2025.2.4,2026-02-25 11h05.30.459210 +0100,
tilted.xlsx,The target is tilted.,117,9,1,1,0,0,0,0,0,0,0,0,0,0,0,0,1,1,1,117,space,11.79712619999998,None,0,1,0.7241801000000123,None,space,3.2726595000000316,None,0,0,0,0,,,,,1,1,9,7,113.12189130000002,,,,,,,,,,,,,,,,,,,,,113.10658879999994,113.12189130000002,113.6055407,113.61008889999994,113.62571830000002,114.35570419999999,,,,,114.35590239999999,114.37075099999993,114.57106290000002,114.55478959999994,113.62571830000002,,,,,,,,0,1,0.7241801000000123,None,,,,,,,,883,25,M,R,2026-02-25_11h05.29.946,VisualSearch_2526_3,,2025.2.4,2026-02-25 11h05.30.459210 +0100,
tilted.xlsx,The target is tilted.,117,10,2,1,0,1,1,1,1,1,1,1,1,1,1,1,1,11,12,117,space,11.79712619999998,None,1,0,1.4324693999999454,None,space,3.2726595000000316,None,0,0,0,0,,,,,1,2,10,4,114.57106290000002,,,,,,,,,,,,,,,,,,,,,114.55555299999992,114.57106290000002,115.05480349999993,115.05943289999993,115.07514589999994,116.52068359999998,,,,,116.52087459999996,116.53639369999996,116.73635119999994,116.72077609999997,115.07514589999994,,,,,,,,1,0,1.4324693999999454,None,,,,,,,,883,25,M,R,2026-02-25_11h05.29.946,VisualSearch_2526_3,,2025.2.4,2026-02-25 11h05.30.459210 +0100,
tilted.xlsx,The target is tilted.,117,11,3,1,0,1,1,1,0,0,0,0,0,0,0,0,1,3,4,117,space,11.79712619999998,None,0,1,1.1483254999999417,None,space,3.2726595000000316,None,0,0,0,0,,,,,1,3,11,6,116.73635119999994,,,,,,,,,,,,,,,,,,,,,116.72147699999994,116.73635119999994,117.2205576,117.22510469999997,117.24149219999993,118.40324950000002,,,,,118.40346339999996,118.41884589999995,118.61939039999993,118.60340829999996,117.24149219999993,,,,,,,,0,1,1.1483254999999417,None,,,,,,,,883,25,M,R,2026-02-25_11h05.29.946,VisualSearch_2526_3,,2025.2.4,2026-02-25 11h05.30.459210 +0100,
tilted.xlsx,The target is tilted.,117,12,4,1,1,1,1,1,0,0,0,0,0,0,0,0,0,3,4,117,space,11.79712619999998,None,0,0,0.9441289999999753,None,space,3.2726595000000316,None,0,0,0,0,,,,,1,4,12,2,118.61939039999993,,,,,,,,,,,,,,,,,,,,,118.60437649999994,118.61939039999993,119.10266049999996,119.10733749999997,119.12353459999997,120.06957599999998,,,,,120.06975269999998,120.08477089999997,120.28528559999995,120.26915799999995,119.12353459999997,,,,,,,,0,0,0.9441289999999753,None,,,,,,,,883,25,M,R,2026-02-25_11h05.29.946,VisualSearch_2526_3,,2025.2.4,2026-02-25 11h05.30.459210 +0100,
tilted.xlsx,The target is tilted.,117,13,5,1,1,0,0,0,0,0,0,0,0,0,0,0,0,0,1,117,space,11.79712619999998,None,0,0,0.7801153999999997,None,space,3.2726595000000316,None,0,0,0,0,,,,,1,5,13,3,120.28528559999995,,,,,,,,,,,,,,,,,,,,,120.26988819999997,120.28528559999995,120.76894049999999,120.77348429999995,120.7910415,121.58511339999995,,,,,121.58534850000001,121.6007353,121.80098620000001,121.78489409999997,120.7910415,,,,,,,,0,0,0.7801153999999997,None,,,,,,,,883,25,M,R,2026-02-25_11h05.29.946,VisualSearch_2526_3,,2025.2.4,2026-02-25 11h05.30.459210 +0100,
tilted.xlsx,The target is tilted.,117,14,6,1,0,1,1,1,1,1,1,1,0,0,0,0,1,7,8,117,space,11.79712619999998,None,1,0,1.4694439000001012,None,space,3.2726595000000316,None,0,0,0,0,,,,,1,6,14,5,121.80098620000001,,,,,,,,,,,,,,,,,,,,,121.78559919999998,121.80098620000001,122.28492259999996,122.2894546,122.30655730000001,123.7848186,,,,,123.78505259999997,123.79984339999999,124.00018439999997,123.98400609999999,122.30655730000001,,,,,,,,1,0,1.4694439000001012,None,,,,,,,,883,25,M,R,2026-02-25_11h05.29.946,VisualSearch_2526_3,,2025.2.4,2026-02-25 11h05.30.459210 +0100,
tilted.xlsx,The target is tilted.,117,15,7,1,1,1,1,1,1,1,1,1,0,0,0,0,0,7,8,117,space,11.79712619999998,None,1,1,0.9839715999999044,None,space,3.2726595000000316,None,0,0,0,0,,,,,1,7,15,1,124.00018439999997,,,,,,,,,,,,,,,,,,,,,123.98474479999993,124.00018439999997,124.48396479999997,124.48973879999994,124.49984829999994,125.49998459999995,,,,,125.5002088,125.51562369999999,125.71606609999992,125.69988890000002,124.49984829999994,,,,,,,,1,1,0.9839715999999044,None,,,,,,,,883,25,M,R,2026-02-25_11h05.29.946,VisualSearch_2526_3,,2025.2.4,2026-02-25 11h05.30.459210 +0100,
tilted.xlsx,The target is tilted.,117,16,0,2,1,1,1,1,1,1,1,1,1,1,1,1,0,11,12,117,space,11.79712619999998,None,1,1,4.582407999999987,None,space,3.2726595000000316,None,0,0,0,0,,,,,2,0,16,0,125.71606609999992,,,,,,,,,,,,,,,,,,,,,125.70065360000001,125.71606609999992,126.19943119999994,126.20404289999999,126.22062840000001,130.81483179999998,,,,,130.81502849999993,130.82988360000002,131.03024429999994,131.01360519999992,126.22062840000001,,,,,,,,1,1,4.582407999999987,None,,,,,,,,883,25,M,R,2026-02-25_11h05.29.946,VisualSearch_2526_3,,2025.2.4,2026-02-25 11h05.30.459210 +0100,
tilted.xlsx,The target is tilted.,117,17,1,2,1,1,1,1,0,0,0,0,0,0,0,0,0,3,4,117,space,11.79712619999998,None,0,0,0.6872556999999233,None,space,3.2726595000000316,None,0,0,0,0,,,,,2,1,17,2,131.03024429999994,,,,,,,,,,,,,,,,,,,,,131.01406929999996,131.03024429999994,131.51413359999992,131.51943039999992,131.53715,132.23091809999994,,,,,132.23111319999998,132.24593219999997,132.44641449999995,132.4299674,131.53715,,,,,,,,0,0,0.6872556999999233,None,,,,,,,,883,25,M,R,2026-02-25_11h05.29.946,VisualSearch_2526_3,,2025.2.4,2026-02-25 11h05.30.459210 +0100,
tilted.xlsx,The target is tilted.,117,18,2,2,0,1,1,1,1,1,1,1,1,1,1,1,1,11,12,117,space,11.79712619999998,None,1,0,0.9497521000000688,None,space,3.2726595000000316,None,0,0,0,0,,,,,2,2,18,4,132.44641449999995,,,,,,,,,,,,,,,,,,,,,132.43067989999997,132.44641449999995,132.9300925,132.9346332,132.9519138999999,133.91320380000002,,,,,133.91340049999997,133.92850439999995,134.12850500000002,134.11272269999995,132.9519138999999,,,,,,,,1,0,0.9497521000000688,None,,,,,,,,883,25,M,R,2026-02-25_11h05.29.946,VisualSearch_2526_3,,2025.2.4,2026-02-25 11h05.30.459210 +0100,
tilted.xlsx,The target is tilted.,117,19,3,2,0,0,0,0,0,0,0,0,0,0,0,0,1,1,1,117,space,11.79712619999998,None,0,1,0.8893266999999696,None,space,3.2726595000000316,None,0,0,0,0,,,,,2,3,19,7,134.12850500000002,,,,,,,,,,,,,,,,,,,,,134.11355519999995,134.12850500000002,134.61255359999996,134.61717009999995,134.63430499999993,135.5293661999999,,,,,135.52955899999995,135.54440779999993,135.74475789999997,135.72880079999993,134.63430499999993,,,,,,,,0,1,0.8893266999999696,None,,,,,,,,883,25,M,R,2026-02-25_11h05.29.946,VisualSearch_2526_3,,2025.2.4,2026-02-25 11h05.30.459210 +0100,
tilted.xlsx,The target is tilted.,117,20,4,2,1,1,1,1,1,1,1,1,0,0,0,0,0,7,8,117,space,11.79712619999998,None,1,1,0.9633278999999675,None,space,3.2726595000000316,None,0,0,0,0,,,,,2,4,20,1,135.74475789999997,,,,,,,,,,,,,,,,,,,,,135.72961069999997,135.74475789999997,136.2284156999999,136.23302679999995,136.25061859999994,137.22788279999997,,,,,137.2280897999999,137.24366279999992,137.44408479999993,137.42804009999998,136.25061859999994,,,,,,,,1,1,0.9633278999999675,None,,,,,,,,883,25,M,R,2026-02-25_11h05.29.946,VisualSearch_2526_3,,2025.2.4,2026-02-25 11h05.30.459210 +0100,
tilted.xlsx,The target is tilted.,117,21,5,2,0,1,1,1,1,1,1,1,0,0,0,0,1,7,8,117,space,11.79712619999998,None,1,0,1.1318330999999944,None,space,3.2726595000000316,None,0,0,0,0,,,,,2,5,21,5,137.44408479999993,,,,,,,,,,,,,,,,,,,,,137.42875719999995,137.44408479999993,137.9274934,137.93264249999993,137.95123449999994,139.0944647,,,,,139.0946606,139.1094981,139.30990969999993,139.29370189999997,137.95123449999994,,,,,,,,1,0,1.1318330999999944,None,,,,,,,,883,25,M,R,2026-02-25_11h05.29.946,VisualSearch_2526_3,,2025.2.4,2026-02-25 11h05.30.459210 +0100,
tilted.xlsx,The target is tilted.,117,22,6,2,1,0,0,0,0,0,0,0,0,0,0,0,0,0,1,117,space,11.79712619999998,None,0,0,1.0763292999999976,None,space,3.2726595000000316,None,0,0,0,0,,,,,2,6,22,3,139.30990969999993,,,,,,,,,,,,,,,,,,,,,139.2944751,139.30990969999993,139.79349739999998,139.79804749999994,139.8129333999999,140.8933207,,,,,140.8935196,140.9086906,141.10897239999997,141.09271219999994,139.8129333999999,,,,,,,,0,0,1.0763292999999976,None,,,,,,,,883,25,M,R,2026-02-25_11h05.29.946,VisualSearch_2526_3,,2025.2.4,2026-02-25 11h05.30.459210 +0100,
tilted.xlsx,The target is tilted.,117,23,7,2,0,1,1,1,0,0,0,0,0,0,0,0,1,3,4,117,space,11.79712619999998,None,0,1,1.4355355000000145,None,space,3.2726595000000316,None,0,0,0,0,,,,,2,7,23,6,141.10897239999997,,,,,,,,,,,,,,,,,,,,,141.09341529999995,141.10897239999997,141.59263409999994,141.59720919999995,141.61370390000002,143.0589683999999,,,,,143.059164,143.0742239,143.2743767999999,143.2586344,141.61370390000002,,,,,,,,0,1,1.4355355000000145,None,,,,,,,,883,25,M,R,2026-02-25_11h05.29.946,VisualSearch_2526_3,,2025.2.4,2026-02-25 11h05.30.459210 +0100,
tilted.xlsx,The target is tilted.,117,24,0,3,1,1,1,1,1,1,1,1,0,0,0,0,0,7,8,117,space,11.79712619999998,None,1,1,1.8813733999999158,None,space,3.2726595000000316,None,0,0,0,0,,,,,3,0,24,1,143.2743767999999,,,,,,,,,,,,,,,,,,,,,143.25941879999993,143.2743767999999,143.7584819,143.76310059999992,143.77994219999994,145.674035,,,,,145.67423929999995,145.6897712,145.89027939999994,145.8738591,143.77994219999994,,,,,,,,1,1,1.8813733999999158,None,,,,,,,,883,25,M,R,2026-02-25_11h05.29.946,VisualSearch_2526_3,,2025.2.4,2026-02-25 11h05.30.459210 +0100,
tilted.xlsx,The target is tilted.,117,25,1,3,0,1,1,1,0,0,0,0,0,0,0,0,1,3,4,117,space,11.79712619999998,None,0,1,0.9832347000000254,None,space,3.2726595000000316,None,0,0,0,0,,,,,3,1,25,6,145.89027939999994,,,,,,,,,,,,,,,,,,,,,145.87469409999994,145.89027939999994,146.37388169999997,146.37847319999992,146.3941201,147.38981549999994,,,,,147.3899917,147.40569889999995,147.60616959999993,147.58973219999996,146.3941201,,,,,,,,0,1,0.9832347000000254,None,,,,,,,,883,25,M,R,2026-02-25_11h05.29.946,VisualSearch_2526_3,,2025.2.4,2026-02-25 11h05.30.459210 +0100,
tilted.xlsx,The target is tilted.,117,26,2,3,1,0,0,0,0,0,0,0,0,0,0,0,0,0,1,117,space,11.79712619999998,None,0,0,0.5838949000000184,None,space,3.2726595000000316,None,0,0,0,0,,,,,3,2,26,3,147.60616959999993,,,,,,,,,,,,,,,,,,,,,147.59071299999994,147.60616959999993,148.08938339999997,148.09388609999996,148.10584659999995,148.70613319999995,,,,,148.70631939999998,148.72172569999998,148.92207639999992,148.9062225,148.10584659999995,,,,,,,,0,0,0.5838949000000184,None,,,,,,,,883,25,M,R,2026-02-25_11h05.29.946,VisualSearch_2526_3,,2025.2.4,2026-02-25 11h05.30.459210 +0100,
tilted.xlsx,The target is tilted.,117,27,3,3,1,1,1,1,1,1,1,1,1,1,1,1,0,11,12,117,space,11.79712619999998,None,1,1,1.2629458000000113,None,space,3.2726595000000316,None,0,0,0,0,,,,,3,3,27,0,148.92207639999992,,,,,,,,,,,,,,,,,,,,,148.90701089999993,148.92207639999992,149.40548230000002,149.4101994,149.4262683999999,150.7046272,,,,,150.70474619999993,150.72119709999993,,150.9048492999999,149.4262683999999,,,,,,,,1,1,1.2629458000000113,None,,,,,,,,883,25,M,R,2026-02-25_11h05.29.946,VisualSearch_2526_3,,2025.2.4,2026-02-25 11h05.30.459210 +0100,
tilted.xlsx,The target is tilted.,117,28,4,3,1,1,1,1,0,0,0,0,0,0,0,0,0,3,4,117,space,11.79712619999998,None,0,0,1.1978450000000294,None,space,3.2726595000000316,None,0,0,0,0,,,,,3,4,28,2,150.92087889999993,,,,,,,,,,,,,,,,,,,,,150.9056400999999,150.92087889999993,151.40463349999993,151.4092346,151.4263102,152.6376252,,,,,152.63785369999994,152.65327089999994,152.85380650000002,152.8377979999999,151.4263102,,,,,,,,0,0,1.1978450000000294,None,,,,,,,,883,25,M,R,2026-02-25_11h05.29.946,VisualSearch_2526_3,,2025.2.4,2026-02-25 11h05.30.459210 +0100,
tilted.xlsx,The target is tilted.,117,29,5,3,0,1,1,1,1,1,1,1,1,1,1,1,1,11,12,117,space,11.79712619999998,None,1,0,1.7094746000000214,None,space,3.2726595000000316,None,0,0,0,0,,,,,3,5,29,4,152.85380650000002,,,,,,,,,,,,,,,,,,,,,152.8385882,152.85380650000002,153.33743729999992,153.3425264,153.3589045,155.07061019999992,,,,,155.07082249999996,155.0855457,155.28594139999996,155.26991950000001,153.3589045,,,,,,,,1,0,1.7094746000000214,None,,,,,,,,883,25,M,R,2026-02-25_11h05.29.946,VisualSearch_2526_3,,2025.2.4,2026-02-25 11h05.30.459210 +0100,
tilted.xlsx,The target is tilted.,117,30,6,3,0,0,0,0,0,0,0,0,0,0,0,0,1,1,1,117,space,11.79712619999998,None,0,1,0.5757061000000476,None,space,3.2726595000000316,None,0,0,0,0,,,,,3,6,30,7,155.28594139999996,,,,,,,,,,,,,,,,,,,,,155.27063179999993,155.28594139999996,155.76974919999998,155.77434599999992,155.7910832,156.3700556,,,,,156.37025999999992,156.38495749999993,156.58500589999994,156.56873999999993,155.7910832,,,,,,,,0,1,0.5757061000000476,None,,,,,,,,883,25,M,R,2026-02-25_11h05.29.946,VisualSearch_2526_3,,2025.2.4,2026-02-25 11h05.30.459210 +0100,
tilted.xlsx,The target is tilted.,117,31,7,3,0,1,1,1,1,1,1,1,0,0,0,0,1,7,8,117,space,11.79712619999998,None,1,0,2.1847525000000587,None,space,3.2726595000000316,None,0,0,0,0,,,,,3,7,31,5,156.58500589999994,,,,,,,,,,,,,,,,,,,,,156.56909139999993,156.58500589999994,157.0690151,157.07353969999997,157.09159009999996,159.2852628999999,,,,,159.28546069999993,159.3004085,159.50071219999995,159.48425639999994,157.09159009999996,,,,,,,,1,0,2.1847525000000587,None,,,,,,,,883,25,M,R,2026-02-25_11h05.29.946,VisualSearch_2526_3,,2025.2.4,2026-02-25 11h05.30.459210 +0100,
tilted.xlsx,The target is tilted.,117,32,0,4,0,1,1,1,0,0,0,0,0,0,0,0,1,3,4,117,space,11.79712619999998,None,0,1,0.8121973999999454,None,space,3.2726595000000316,None,0,0,0,0,,,,,4,0,32,6,159.50071219999995,,,,,,,,,,,,,,,,,,,,,159.48504709999997,159.50071219999995,159.9843601,159.9889448,160.0065085,160.83368929999995,,,,,160.83387929999992,160.84951059999992,161.05005949999997,161.03382219999992,160.0065085,,,,,,,,0,1,0.8121973999999454,None,,,,,,,,883,25,M,R,2026-02-25_11h05.29.946,VisualSearch_2526_3,,2025.2.4,2026-02-25 11h05.30.459210 +0100,
tilted.xlsx,The target is tilted.,117,33,1,4,1,1,1,1,1,1,1,1,0,0,0,0,0,7,8,117,space,11.79712619999998,None,1,1,0.9828340999999909,None,space,3.2726595000000316,None,0,0,0,0,,,,,4,1,33,1,161.05005949999997,,,,,,,,,,,,,,,,,,,,,161.0345608,161.05005949999997,161.5334567,161.53807959999995,161.55390039999997,162.54985929999998,,,,,162.55003639999995,162.5653165,162.7654685,162.74983439999994,161.55390039999997,,,,,,,,1,1,0.9828340999999909,None,,,,,,,,883,25,M,R,2026-02-25_11h05.29.946,VisualSearch_2526_3,,2025.2.4,2026-02-25 11h05.30.459210 +0100,
tilted.xlsx,The target is tilted.,117,34,2,4,0,1,1,1,1,1,1,1,1,1,1,1,1,11,12,117,space,11.79712619999998,None,1,0,1.0767706999999973,None,space,3.2726595000000316,None,0,0,0,0,,,,,4,2,34,4,162.7654685,,,,,,,,,,,,,,,,,,,,,162.7505567999999,162.7654685,163.2491966,163.25381089999996,163.2651876,164.34831079999992,,,,,164.34836389999998,164.3644678999999,164.56446659999995,164.54812249999998,163.2651876,,,,,,,,1,0,1.0767706999999973,None,,,,,,,,883,25,M,R,2026-02-25_11h05.29.946,VisualSearch_2526_3,,2025.2.4,2026-02-25 11h05.30.459210 +0100,
tilted.xlsx,The target is tilted.,117,35,3,4,0,1,1,1,1,1,1,1,0,0,0,0,1,7,8,117,space,11.79712619999998,None,0,1,1.305283099999997,None,space,3.2726595000000316,None,0,0,0,0,,,,,4,3,35,5,164.56446659999995,,,,,,,,,,,,,,,,,,,,,164.54852729999993,164.56446659999995,165.04774859999998,165.04969319999998,165.06413239999995,166.38164329999995,,,,,166.3817975999999,166.39704669999992,166.59673279999993,166.58014549999996,165.06413239999995,,,,,,,,0,1,1.305283099999997,None,,,,,,,,883,25,M,R,2026-02-25_11h05.29.946,VisualSearch_2526_3,,2025.2.4,2026-02-25 11h05.30.459210 +0100,
tilted.xlsx,The target is tilted.,117,36,4,4,1,0,0,0,0,0,0,0,0,0,0,0,0,0,1,117,space,11.79712619999998,None,0,0,1.0135022000000617,None,space,3.2726595000000316,None,0,0,0,0,,,,,4,4,36,3,166.59673279999993,,,,,,,,,,,,,,,,,,,,,166.580422,166.59673279999993,167.0808232999999,167.08554709999999,167.1033096,168.13056699999993,,,,,168.13072649999992,168.14627859999996,168.3461469,168.329967,167.1033096,,,,,,,,0,0,1.0135022000000617,None,,,,,,,,883,25,M,R,2026-02-25_11h05.29.946,VisualSearch_2526_3,,2025.2.4,2026-02-25 11h05.30.459210 +0100,
tilted.xlsx,The target is tilted.,117,37,5,4,0,0,0,0,0,0,0,0,0,0,0,0,1,1,1,117,space,11.79712619999998,None,0,1,1.1304847999999765,None,space,3.2726595000000316,None,0,0,0,0,,,,,4,5,37,7,168.3461469,,,,,,,,,,,,,,,,,,,,,168.33050759999992,168.3461469,168.83048889999998,168.83570699999996,168.85255889999996,169.99602779999998,,,,,169.99618149999992,170.01204139999993,170.21228829999995,170.1961799999999,168.85255889999996,,,,,,,,0,1,1.1304847999999765,None,,,,,,,,883,25,M,R,2026-02-25_11h05.29.946,VisualSearch_2526_3,,2025.2.4,2026-02-25 11h05.30.459210 +0100,
tilted.xlsx,The target is tilted.,117,38,6,4,1,1,1,1,1,1,1,1,1,1,1,1,0,11,12,117,space,11.79712619999998,None,1,1,1.4511455000000524,None,space,3.2726595000000316,None,0,0,0,0,,,,,4,6,38,0,170.21228829999995,,,,,,,,,,,,,,,,,,,,,170.19699219999995,170.21228829999995,170.69633409999994,170.70142449999992,170.7194783,172.17948760000002,,,,,172.1797027,172.19442619999995,172.39488429999994,172.37833389999992,170.7194783,,,,,,,,1,1,1.4511455000000524,None,,,,,,,,883,25,M,R,2026-02-25_11h05.29.946,VisualSearch_2526_3,,2025.2.4,2026-02-25 11h05.30.459210 +0100,
tilted.xlsx,The target is tilted.,117,39,7,4,1,1,1,1,0,0,0,0,0,0,0,0,0,3,4,117,space,11.79712619999998,None,0,0,1.0693846000000349,None,space,3.2726595000000316,None,0,0,0,0,,,,,4,7,39,2,172.39488429999994,,,,,,,,,,,,,,,,,,,,,172.37906850000002,172.39488429999994,172.87848199999996,172.88305129999992,172.8987492,173.9781504,,,,,173.97823519999997,173.9933494999999,174.19365749999997,174.178181,172.8987492,,,,,,,,0,0,1.0693846000000349,None,,,,,,,,883,25,M,R,2026-02-25_11h05.29.946,VisualSearch_2526_3,,2025.2.4,2026-02-25 11h05.30.459210 +0100,
tilted.xlsx,The target is tilted.,117,40,0,5,0,1,1,1,1,1,1,1,1,1,1,1,1,11,12,117,space,11.79712619999998,None,1,0,1.2273002000000588,None,space,3.2726595000000316,None,0,0,0,0,,,,,5,0,40,4,174.19365749999997,,,,,,,,,,,,,,,,,,,,,174.1789943,174.19365749999997,174.6775546,174.68216539999992,174.6997311,175.94358069999998,,,,,175.94378399999994,175.95932099999993,176.15989819999993,176.14355360000002,174.6997311,,,,,,,,1,0,1.2273002000000588,None,,,,,,,,883,25,M,R,2026-02-25_11h05.29.946,VisualSearch_2526_3,,2025.2.4,2026-02-25 11h05.30.459210 +0100,
tilted.xlsx,The target is tilted.,117,41,1,5,0,0,0,0,0,0,0,0,0,0,0,0,1,1,1,117,space,11.79712619999998,None,0,1,0.6516973000000235,None,space,3.2726595000000316,None,0,0,0,0,,,,,5,1,41,7,176.15989819999993,,,,,,,,,,,,,,,,,,,,,176.1442915,176.15989819999993,176.64319119999993,176.64781169999992,176.6637478,177.32647299999996,,,,,177.32665409999993,177.34203019999995,177.5422019,177.5264231,176.6637478,,,,,,,,0,1,0.6516973000000235,None,,,,,,,,883,25,M,R,2026-02-25_11h05.29.946,VisualSearch_2526_3,,2025.2.4,2026-02-25 11h05.30.459210 +0100,
tilted.xlsx,The target is tilted.,117,42,2,5,0,1,1,1,1,1,1,1,0,0,0,0,1,7,8,117,space,11.79712619999998,None,1,0,1.008819600000038,None,space,3.2726595000000316,None,0,0,0,0,,,,,5,2,42,5,177.5422019,,,,,,,,,,,,,,,,,,,,,177.52713089999997,177.5422019,178.02623599999993,178.03081539999994,178.0474292,179.05957639999997,,,,,179.05977829999995,179.07463309999991,179.2747812,179.25903419999997,178.0474292,,,,,,,,1,0,1.008819600000038,None,,,,,,,,883,25,M,R,2026-02-25_11h05.29.946,VisualSearch_2526_3,,2025.2.4,2026-02-25 11h05.30.459210 +0100,
tilted.xlsx,The target is tilted.,117,43,3,5,1,1,1,1,1,1,1,1,0,0,0,0,0,7,8,117,space,11.79712619999998,None,0,0,1.1257507999999916,None,space,3.2726595000000316,None,0,0,0,0,,,,,5,3,43,1,179.2747812,,,,,,,,,,,,,,,,,,,,,179.2598107,179.2747812,179.75869479999994,179.7632481999999,179.78002849999996,180.90883129999997,,,,,180.9090549,180.9237749,181.12419949999992,181.10819559999993,179.78002849999996,,,,,,,,0,0,1.1257507999999916,None,,,,,,,,883,25,M,R,2026-02-25_11h05.29.946,VisualSearch_2526_3,,2025.2.4,2026-02-25 11h05.30.459210 +0100,
tilted.xlsx,The target is tilted.,117,44,4,5,1,0,0,0,0,0,0,0,0,0,0,0,0,0,1,117,space,11.79712619999998,None,0,0,0.7597531000000117,None,space,3.2726595000000316,None,0,0,0,0,,,,,5,4,44,3,181.12419949999992,,,,,,,,,,,,,,,,,,,,,181.10904699999992,181.12419949999992,181.60791849999998,181.61302079999996,181.62939529999994,182.39125809999996,,,,,182.39145489999999,182.4064115,182.60683689999996,182.59037389999992,181.62939529999994,,,,,,,,0,0,0.7597531000000117,None,,,,,,,,883,25,M,R,2026-02-25_11h05.29.946,VisualSearch_2526_3,,2025.2.4,2026-02-25 11h05.30.459210 +0100,
tilted.xlsx,The target is tilted.,117,45,5,5,1,1,1,1,0,0,0,0,0,0,0,0,0,3,4,117,space,11.79712619999998,None,0,0,0.8000118000001066,None,space,3.2726595000000316,None,0,0,0,0,,,,,5,5,45,2,182.60683689999996,,,,,,,,,,,,,,,,,,,,,182.59086509999997,182.60683689999996,183.09058729999992,183.09520399999997,183.11175579999997,183.92395039999997,,,,,183.92414309999992,183.93907489999992,184.13954739999997,184.12320060000002,183.11175579999997,,,,,,,,0,0,0.8000118000001066,None,,,,,,,,883,25,M,R,2026-02-25_11h05.29.946,VisualSearch_2526_3,,2025.2.4,2026-02-25 11h05.30.459210 +0100,
tilted.xlsx,The target is tilted.,117,46,6,5,1,1,1,1,1,1,1,1,1,1,1,1,0,11,12,117,space,11.79712619999998,None,1,1,1.068943900000022,None,space,3.2726595000000316,None,0,0,0,0,,,,,5,6,46,0,184.13954739999997,,,,,,,,,,,,,,,,,,,,,184.1239177,184.13954739999997,184.6228628,184.6275518,184.64376579999998,185.72268029999998,,,,,185.7228192,185.737973,185.9387332,185.9226362999999,184.64376579999998,,,,,,,,1,1,1.068943900000022,None,,,,,,,,883,25,M,R,2026-02-25_11h05.29.946,VisualSearch_2526_3,,2025.2.4,2026-02-25 11h05.30.459210 +0100,
tilted.xlsx,The target is tilted.,117,47,7,5,0,1,1,1,0,0,0,0,0,0,0,0,1,3,4,117,space,11.79712619999998,None,0,1,0.8638025000000198,None,space,3.2726595000000316,None,0,0,0,0,,,,,5,7,47,6,185.9387332,,,,,,,,,,,,,,,,,,,,,185.9233390999999,185.9387332,186.422415,186.42700479999996,186.4437403999999,187.32172689999993,,,,,187.32190979999996,187.3374326999999,187.5375692,187.5218964999999,186.4437403999999,,,,,,,,0,1,0.8638025000000198,None,,,,,,,,883,25,M,R,2026-02-25_11h05.29.946,VisualSearch_2526_3,,2025.2.4,2026-02-25 11h05.30.459210 +0100,
tilted.xlsx,The target is tilted.,117,48,0,6,0,1,1,1,1,1,1,1,1,1,1,1,1,11,12,117,space,11.79712619999998,None,1,0,1.7197170999999116,None,space,3.2726595000000316,None,0,0,0,0,,,,,6,0,48,4,187.5375692,,,,,,,,,,,,,,,,,,,,,187.52259199999992,187.5375692,188.02158699999995,188.0260743,188.0414796,189.7713660999999,,,,,189.7715624,189.7863418999999,189.98682229999997,189.97039369999993,188.0414796,,,,,,,,1,0,1.7197170999999116,None,,,,,,,,883,25,M,R,2026-02-25_11h05.29.946,VisualSearch_2526_3,,2025.2.4,2026-02-25 11h05.30.459210 +0100,
tilted.xlsx,The target is tilted.,117,49,1,6,0,1,1,1,0,0,0,0,0,0,0,0,1,3,4,117,space,11.79712619999998,None,0,1,0.734539199999972,None,space,3.2726595000000316,None,0,0,0,0,,,,,6,1,49,6,189.98682229999997,,,,,,,,,,,,,,,,,,,,,189.97110179999993,189.98682229999997,190.4705252,190.4751402999999,190.49094919999993,191.23739609999996,,,,,191.2375907999999,191.2524042,191.45275049999998,191.4367891999999,190.49094919999993,,,,,,,,0,1,0.734539199999972,None,,,,,,,,883,25,M,R,2026-02-25_11h05.29.946,VisualSearch_2526_3,,2025.2.4,2026-02-25 11h05.30.459210 +0100,
tilted.xlsx,The target is tilted.,117,50,2,6,1,0,0,0,0,0,0,0,0,0,0,0,0,0,1,117,space,11.79712619999998,None,0,0,0.7031154999999671,None,space,3.2726595000000316,None,0,0,0,0,,,,,6,2,50,3,191.45275049999998,,,,,,,,,,,,,,,,,,,,,191.43759269999998,191.45275049999998,191.93654619999995,191.9410788,191.95846429999995,192.67013529999997,,,,,192.67036399999995,192.68506209999998,192.8851090999999,192.86937509999996,191.95846429999995,,,,,,,,0,0,0.7031154999999671,None,,,,,,,,883,25,M,R,2026-02-25_11h05.29.946,VisualSearch_2526_3,,2025.2.4,2026-02-25 11h05.30.459210 +0100,
tilted.xlsx,The target is tilted.,117,51,3,6,0,0,0,0,0,0,0,0,0,0,0,0,1,1,1,117,space,11.79712619999998,None,0,1,0.6603585000000294,None,space,3.2726595000000316,None,0,0,0,0,,,,,6,3,51,7,192.8851090999999,,,,,,,,,,,,,,,,,,,,,192.87008059999994,192.8851090999999,193.36921610000002,193.37371599999994,193.39062539999998,194.05287809999993,,,,,194.0530837,194.06778899999995,194.2682224,194.25204569999994,193.39062539999998,,,,,,,,0,1,0.6603585000000294,None,,,,,,,,883,25,M,R,2026-02-25_11h05.29.946,VisualSearch_2526_3,,2025.2.4,2026-02-25 11h05.30.459210 +0100,
tilted.xlsx,The target is tilted.,117,52,4,6,1,1,1,1,1,1,1,1,1,1,1,1,0,11,12,117,space,11.79712619999998,None,1,1,1.2189935999999761,None,space,3.2726595000000316,None,0,0,0,0,,,,,6,4,52,0,194.2682224,,,,,,,,,,,,,,,,,,,,,194.25277489999996,194.2682224,194.7518589,194.75635009999996,194.7727734,196.00119769999992,,,,,196.0013366999999,196.01684019999993,196.21706339999992,196.20120759999998,194.7727734,,,,,,,,1,1,1.2189935999999761,None,,,,,,,,883,25,M,R,2026-02-25_11h05.29.946,VisualSearch_2526_3,,2025.2.4,2026-02-25 11h05.30.459210 +0100,
tilted.xlsx,The target is tilted.,117,53,5,6,0,1,1,1,1,1,1,1,0,0,0,0,1,7,8,117,space,11.79712619999998,None,1,0,1.1017300999999406,None,space,3.2726595000000316,None,0,0,0,0,,,,,6,5,53,5,196.21706339999992,,,,,,,,,,,,,,,,,,,,,196.20195059999992,196.21706339999992,196.70114109999997,196.70569319999993,196.72213499999998,197.8343297,,,,,197.83452739999996,197.84944129999997,198.04990009999995,198.03362659999993,196.72213499999998,,,,,,,,1,0,1.1017300999999406,None,,,,,,,,883,25,M,R,2026-02-25_11h05.29.946,VisualSearch_2526_3,,2025.2.4,2026-02-25 11h05.30.459210 +0100,
tilted.xlsx,The target is tilted.,117,54,6,6,1,1,1,1,0,0,0,0,0,0,0,0,0,3,4,117,space,11.79712619999998,None,0,0,0.9081048000000465,None,space,3.2726595000000316,None,0,0,0,0,,,,,6,6,54,2,198.04990009999995,,,,,,,,,,,,,,,,,,,,,198.03445579999993,198.04990009999995,198.5333667,198.53791449999994,198.5552632,199.46656099999996,,,,,199.4667362,199.48198079999997,199.68214269999999,199.66636659999995,198.5552632,,,,,,,,0,0,0.9081048000000465,None,,,,,,,,883,25,M,R,2026-02-25_11h05.29.946,VisualSearch_2526_3,,2025.2.4,2026-02-25 11h05.30.459210 +0100,
tilted.xlsx,The target is tilted.,117,55,7,6,1,1,1,1,1,1,1,1,0,0,0,0,0,7,8,117,space,11.79712619999998,None,0,0,1.2992586999999958,None,space,3.2726595000000316,None,0,0,0,0,,,,,6,7,55,1,199.68214269999999,,,,,,,,,,,,,,,,,,,,,199.6670719,199.68214269999999,200.16593909999995,200.17054529999996,200.1882933999999,201.4994772,,,,,201.4996893,201.51444189999995,201.7148916,201.69877709999992,200.1882933999999,,,,,,,,0,0,1.2992586999999958,None,,,,,,,,883,25,M,R,2026-02-25_11h05.29.946,VisualSearch_2526_3,,2025.2.4,2026-02-25 11h05.30.459210 +0100,
tilted.xlsx,The target is tilted.,117,56,0,7,1,1,1,1,1,1,1,1,0,0,0,0,0,7,8,117,space,11.79712619999998,None,1,1,0.8747544999999946,None,space,3.2726595000000316,None,0,0,0,0,,,,,7,0,56,1,201.7148916,,,,,,,,,,,,,,,,,,,,,201.69958780000002,201.7148916,202.1984804,202.2030251,202.2191729,203.09824049999997,,,,,203.09843560000002,203.11364259999993,203.31379459999994,203.2978774999999,202.2191729,,,,,,,,1,1,0.8747544999999946,None,,,,,,,,883,25,M,R,2026-02-25_11h05.29.946,VisualSearch_2526_3,,2025.2.4,2026-02-25 11h05.30.459210 +0100,
tilted.xlsx,The target is tilted.,117,57,1,7,1,1,1,1,1,1,1,1,1,1,1,1,0,11,12,117,space,11.79712619999998,None,1,1,1.5647205000000213,None,space,3.2726595000000316,None,0,0,0,0,,,,,7,1,57,0,203.31379459999994,,,,,,,,,,,,,,,,,,,,,203.2985906,203.31379459999994,203.79793439999992,203.80243869999993,203.81881769999995,205.39679949999993,,,,,205.39697609999996,205.41258399999992,205.6127166,205.59680879999996,203.81881769999995,,,,,,,,1,1,1.5647205000000213,None,,,,,,,,883,25,M,R,2026-02-25_11h05.29.946,VisualSearch_2526_3,,2025.2.4,2026-02-25 11h05.30.459210 +0100,
tilted.xlsx,The target is tilted.,117,58,2,7,0,0,0,0,0,0,0,0,0,0,0,0,1,1,1,117,space,11.79712619999998,None,0,1,0.6533960000000434,None,space,3.2726595000000316,None,0,0,0,0,,,,,7,2,58,7,205.6127166,,,,,,,,,,,,,,,,,,,,,205.5976958,205.6127166,206.0966955,206.10121199999992,206.11260689999995,206.7796598,,,,,206.77985009999998,206.7952856999999,206.99571359999993,206.97940540000002,206.11260689999995,,,,,,,,0,1,0.6533960000000434,None,,,,,,,,883,25,M,R,2026-02-25_11h05.29.946,VisualSearch_2526_3,,2025.2.4,2026-02-25 11h05.30.459210 +0100,
tilted.xlsx,The target is tilted.,117,59,3,7,0,1,1,1,1,1,1,1,1,1,1,1,1,11,12,117,space,11.79712619999998,None,1,0,1.650111000000038,None,space,3.2726595000000316,None,0,0,0,0,,,,,7,3,59,4,206.99571359999993,,,,,,,,,,,,,,,,,,,,,206.98011680000002,206.99571359999993,207.47950089999995,207.48402009999995,207.50084909999998,209.1626670999999,,,,,209.162869,209.17754409999998,209.37771379999992,209.3619036,207.50084909999998,,,,,,,,1,0,1.650111000000038,None,,,,,,,,883,25,M,R,2026-02-25_11h05.29.946,VisualSearch_2526_3,,2025.2.4,2026-02-25 11h05.30.459210 +0100,
tilted.xlsx,The target is tilted.,117,60,4,7,1,0,0,0,0,0,0,0,0,0,0,0,0,0,1,117,space,11.79712619999998,None,0,0,0.7237052000000403,None,space,3.2726595000000316,None,0,0,0,0,,,,,7,4,60,3,209.37771379999992,,,,,,,,,,,,,,,,,,,,,209.36260479999999,209.37771379999992,209.86169559999996,209.8661962,209.88255219999996,210.61148489999994,,,,,210.61169710000001,210.62693479999996,210.82698749999997,210.81115799999998,209.88255219999996,,,,,,,,0,0,0.7237052000000403,None,,,,,,,,883,25,M,R,2026-02-25_11h05.29.946,VisualSearch_2526_3,,2025.2.4,2026-02-25 11h05.30.459210 +0100,
tilted.xlsx,The target is tilted.,117,61,5,7,0,1,1,1,1,1,1,1,0,0,0,0,1,7,8,117,space,11.79712619999998,None,1,0,1.4168485000000146,None,space,3.2726595000000316,None,0,0,0,0,,,,,7,5,61,5,210.82698749999997,,,,,,,,,,,,,,,,,,,,,210.81190029999993,210.82698749999997,211.3110906999999,211.315702,211.33231460000002,212.7610105,,,,,212.76122739999994,212.77594509999994,212.97641699999997,212.9603373,211.33231460000002,,,,,,,,1,0,1.4168485000000146,None,,,,,,,,883,25,M,R,2026-02-25_11h05.29.946,VisualSearch_2526_3,,2025.2.4,2026-02-25 11h05.30.459210 +0100,
tilted.xlsx,The target is tilted.,117,62,6,7,1,1,1,1,0,0,0,0,0,0,0,0,0,3,4,117,space,11.79712619999998,None,0,0,0.8997563000000355,None,space,3.2726595000000316,None,0,0,0,0,,,,,7,6,62,2,212.97641699999997,,,,,,,,,,,,,,,,,,,,,212.96103779999999,212.97641699999997,213.46008169999993,213.4646414,213.48100699999998,214.39307439999993,,,,,214.39325069999995,214.40848849999998,214.6087258,214.59185489999993,213.48100699999998,,,,,,,,0,0,0.8997563000000355,None,,,,,,,,883,25,M,R,2026-02-25_11h05.29.946,VisualSearch_2526_3,,2025.2.4,2026-02-25 11h05.30.459210 +0100,
tilted.xlsx,The target is tilted.,117,63,7,7,0,1,1,1,0,0,0,0,0,0,0,0,1,3,4,117,space,11.79712619999998,None,0,1,1.0756580999999414,None,space,3.2726595000000316,None,0,0,0,0,,,,,7,7,63,6,214.6087258,,,,,,,,,,,,,,,,,,,,,214.59222039999997,214.6087258,215.09247759999994,215.09702729999992,215.1130172999999,216.19242709999992,,,,,216.1926241,216.2076040999999,216.40782509999997,216.39165449999996,215.1130172999999,,,,,,,,0,1,1.0756580999999414,None,,,,,,,,883,25,M,R,2026-02-25_11h05.29.946,VisualSearch_2526_3,,2025.2.4,2026-02-25 11h05.30.459210 +0100,
tilted.xlsx,The target is tilted.,117,64,0,8,0,1,1,1,0,0,0,0,0,0,0,0,1,3,4,117,space,11.79712619999998,None,0,1,1.0142416999999568,None,space,3.2726595000000316,None,0,0,0,0,,,,,8,0,64,6,216.40782509999997,,,,,,,,,,,,,,,,,,,,,216.39237329999992,216.40782509999997,216.89137199999993,216.89646749999997,216.91236749999996,217.9414117,,,,,217.9416167999999,217.95682799999997,218.1573277,218.1411003999999,216.91236749999996,,,,,,,,0,1,1.0142416999999568,None,,,,,,,,883,25,M,R,2026-02-25_11h05.29.946,VisualSearch_2526_3,,2025.2.4,2026-02-25 11h05.30.459210 +0100,
tilted.xlsx,The target is tilted.,117,65,1,8,0,1,1,1,1,1,1,1,1,1,1,1,1,11,12,117,space,11.79712619999998,None,1,0,1.368981799999915,None,space,3.2726595000000316,None,0,0,0,0,,,,,8,1,65,4,218.1573277,,,,,,,,,,,,,,,,,,,,,218.1418069,218.1573277,218.64098979999994,218.64564659999996,218.66210709999996,220.04038259999993,,,,,220.04052049999996,220.05591089999996,220.25647159999994,220.24044659999993,218.66210709999996,,,,,,,,1,0,1.368981799999915,None,,,,,,,,883,25,M,R,2026-02-25_11h05.29.946,VisualSearch_2526_3,,2025.2.4,2026-02-25 11h05.30.459210 +0100,
tilted.xlsx,The target is tilted.,117,66,2,8,1,1,1,1,0,0,0,0,0,0,0,0,0,3,4,117,space,11.79712619999998,None,0,0,0.6731826999999839,None,space,3.2726595000000316,None,0,0,0,0,,,,,8,2,66,2,220.25647159999994,,,,,,,,,,,,,,,,,,,,,220.24123329999998,220.25647159999994,220.74021519999997,220.74516999999992,220.76129359999993,221.43942029999994,,,,,221.43952289999993,221.45516669999995,221.6558212,221.63934749999999,220.76129359999993,,,,,,,,0,0,0.6731826999999839,None,,,,,,,,883,25,M,R,2026-02-25_11h05.29.946,VisualSearch_2526_3,,2025.2.4,2026-02-25 11h05.30.459210 +0100,
tilted.xlsx,The target is tilted.,117,67,3,8,1,1,1,1,1,1,1,1,1,1,1,1,0,11,12,117,space,11.79712619999998,None,1,1,1.7796094999999923,None,space,3.2726595000000316,None,0,0,0,0,,,,,8,3,67,0,221.6558212,,,,,,,,,,,,,,,,,,,,,221.6400559,221.6558212,222.13931349999996,222.14385570000002,222.1601816,223.95504129999995,,,,,223.95521739999992,223.97085259999994,224.1713198,224.1550952,222.1601816,,,,,,,,1,1,1.7796094999999923,None,,,,,,,,883,25,M,R,2026-02-25_11h05.29.946,VisualSearch_2526_3,,2025.2.4,2026-02-25 11h05.30.459210 +0100,
tilted.xlsx,The target is tilted.,117,68,4,8,1,0,0,0,0,0,0,0,0,0,0,0,0,0,1,117,space,11.79712619999998,None,0,0,0.9328424999999925,None,space,3.2726595000000316,None,0,0,0,0,,,,,8,4,68,3,224.1713198,,,,,,,,,,,,,,,,,,,,,224.15583059999994,224.1713198,224.6549622,224.6594126,224.6773958,225.62158749999992,,,,,225.62176149999993,225.63675079999996,225.8372377999999,225.82110139999998,224.6773958,,,,,,,,0,0,0.9328424999999925,None,,,,,,,,883,25,M,R,2026-02-25_11h05.29.946,VisualSearch_2526_3,,2025.2.4,2026-02-25 11h05.30.459210 +0100,
tilted.xlsx,The target is tilted.,117,69,5,8,1,1,1,1,1,1,1,1,0,0,0,0,0,7,8,117,space,11.79712619999998,None,1,1,0.9593081000000439,None,space,3.2726595000000316,None,0,0,0,0,,,,,8,5,69,1,225.8372377999999,,,,,,,,,,,,,,,,,,,,,225.8218061,225.8372377999999,226.32081399999993,226.3256872999999,226.34203019999995,227.30380789999992,,,,,227.30396559999997,227.31930599999998,227.51979759999995,227.5036005999999,226.34203019999995,,,,,,,,1,1,0.9593081000000439,None,,,,,,,,883,25,M,R,2026-02-25_11h05.29.946,VisualSearch_2526_3,,2025.2.4,2026-02-25 11h05.30.459210 +0100,
tilted.xlsx,The target is tilted.,117,70,6,8,0,1,1,1,1,1,1,1,0,0,0,0,1,7,8,117,space,11.79712619999998,None,1,0,1.512675300000069,None,space,3.2726595000000316,None,0,0,0,0,,,,,8,6,70,5,227.51979759999995,,,,,,,,,,,,,,,,,,,,,227.5043071,227.51979759999995,228.00323789999993,228.0078416,228.0243739,229.55237809999994,,,,,229.55255019999993,229.56826919999992,229.76829899999996,229.75232139999991,228.0243739,,,,,,,,1,0,1.512675300000069,None,,,,,,,,883,25,M,R,2026-02-25_11h05.29.946,VisualSearch_2526_3,,2025.2.4,2026-02-25 11h05.30.459210 +0100,
tilted.xlsx,The target is tilted.,117,71,7,8,0,0,0,0,0,0,0,0,0,0,0,0,1,1,1,117,space,11.79712619999998,None,0,1,0.9629233000000568,None,space,3.2726595000000316,None,0,0,0,0,,,,,8,7,71,7,229.76829899999996,,,,,,,,,,,,,,,,,,,,,229.75303999999994,229.76829899999996,230.2520571,230.25673799999993,230.26837279999995,231.23553479999998,,,,,231.23573509999994,231.2508851,231.45128419999992,231.43508020000002,230.26837279999995,,,,,,,,0,1,0.9629233000000568,None,,,,,,,,883,25,M,R,2026-02-25_11h05.29.946,VisualSearch_2526_3,,2025.2.4,2026-02-25 11h05.30.459210 +0100,
tilted.xlsx,The target is tilted.,117,72,0,9,0,0,0,0,0,0,0,0,0,0,0,0,1,1,1,117,space,11.79712619999998,None,0,1,0.5934278999999378,None,space,3.2726595000000316,None,0,0,0,0,,,,,9,0,72,7,231.45128419999992,,,,,,,,,,,,,,,,,,,,,231.4358464999999,231.45128419999992,231.93459469999993,231.93917639999995,231.9556076,232.5512425999999,,,,,232.5513737,232.56673319999993,232.76740389999998,232.75117439999997,231.9556076,,,,,,,,0,1,0.5934278999999378,None,,,,,,,,883,25,M,R,2026-02-25_11h05.29.946,VisualSearch_2526_3,,2025.2.4,2026-02-25 11h05.30.459210 +0100,
tilted.xlsx,The target is tilted.,117,73,1,9,1,0,0,0,0,0,0,0,0,0,0,0,0,0,1,117,space,11.79712619999998,None,0,0,0.5355273999999781,None,space,3.2726595000000316,None,0,0,0,0,,,,,9,1,73,3,232.76740389999998,,,,,,,,,,,,,,,,,,,,,232.7519130999999,232.76740389999998,233.2506475,233.2551608,233.2698350999999,233.81722519999994,,,,,233.81740109999998,233.8329658,234.03332569999998,234.0172316999999,233.2698350999999,,,,,,,,0,0,0.5355273999999781,None,,,,,,,,883,25,M,R,2026-02-25_11h05.29.946,VisualSearch_2526_3,,2025.2.4,2026-02-25 11h05.30.459210 +0100,
tilted.xlsx,The target is tilted.,117,74,2,9,1,1,1,1,1,1,1,1,0,0,0,0,0,7,8,117,space,11.79712619999998,None,1,1,0.8214378000000124,None,space,3.2726595000000316,None,0,0,0,0,,,,,9,2,74,1,234.03332569999998,,,,,,,,,,,,,,,,,,,,,234.017961,234.03332569999998,234.5171651999999,234.52174359999992,234.5384547,235.36716289999993,,,,,235.3673412999999,235.3822616,235.5824394,235.5660451,234.5384547,,,,,,,,1,1,0.8214378000000124,None,,,,,,,,883,25,M,R,2026-02-25_11h05.29.946,VisualSearch_2526_3,,2025.2.4,2026-02-25 11h05.30.459210 +0100,
tilted.xlsx,The target is tilted.,117,75,3,9,1,1,1,1,0,0,0,0,0,0,0,0,0,3,4,117,space,11.79712619999998,None,0,0,1.07616100000007,None,space,3.2726595000000316,None,0,0,0,0,,,,,9,3,75,2,235.5824394,,,,,,,,,,,,,,,,,,,,,235.56633820000002,235.5824394,236.06646449999994,236.07090970000002,236.0859264999999,237.1661158999999,,,,,237.16633249999995,237.1815406999999,237.38196219999998,237.36571619999995,236.0859264999999,,,,,,,,0,0,1.07616100000007,None,,,,,,,,883,25,M,R,2026-02-25_11h05.29.946,VisualSearch_2526_3,,2025.2.4,2026-02-25 11h05.30.459210 +0100,
tilted.xlsx,The target is tilted.,117,76,4,9,0,1,1,1,1,1,1,1,1,1,1,1,1,11,12,117,space,11.79712619999998,None,1,0,1.5404903999999533,None,space,3.2726595000000316,None,0,0,0,0,,,,,9,4,76,4,237.38196219999998,,,,,,,,,,,,,,,,,,,,,237.36652859999992,237.38196219999998,237.86564729999998,237.87005729999998,237.88643349999995,239.43166129999997,,,,,239.4318369,239.4470791,239.64761209999995,239.63148609999996,237.88643349999995,,,,,,,,1,0,1.5404903999999533,None,,,,,,,,883,25,M,R,2026-02-25_11h05.29.946,VisualSearch_2526_3,,2025.2.4,2026-02-25 11h05.30.459210 +0100,
tilted.xlsx,The target is tilted.,117,77,5,9,0,1,1,1,1,1,1,1,0,0,0,0,1,7,8,117,space,11.79712619999998,None,1,0,1.0135029000000486,None,space,3.2726595000000316,None,0,0,0,0,,,,,9,5,77,5,239.64761209999995,,,,,,,,,,,,,,,,,,,,,239.6321911,239.64761209999995,240.13119619999998,240.13565139999992,240.15222399999993,241.1804520999999,,,,,241.18062769999995,241.19629539999994,241.3968446,241.380723,240.15222399999993,,,,,,,,1,0,1.0135029000000486,None,,,,,,,,883,25,M,R,2026-02-25_11h05.29.946,VisualSearch_2526_3,,2025.2.4,2026-02-25 11h05.30.459210 +0100,
tilted.xlsx,The target is tilted.,117,78,6,9,1,1,1,1,1,1,1,1,1,1,1,1,0,11,12,117,space,11.79712619999998,None,1,1,1.4273666999999932,None,space,3.2726595000000316,None,0,0,0,0,,,,,9,6,78,0,241.3968446,,,,,,,,,,,,,,,,,,,,,241.38144499999999,241.3968446,241.88036549999993,241.88488080000002,241.9013079,243.32937859999993,,,,,243.32950549999998,243.3452173999999,243.54582289999996,243.52962779999996,241.9013079,,,,,,,,1,1,1.4273666999999932,None,,,,,,,,883,25,M,R,2026-02-25_11h05.29.946,VisualSearch_2526_3,,2025.2.4,2026-02-25 11h05.30.459210 +0100,
tilted.xlsx,The target is tilted.,117,79,7,9,0,1,1,1,0,0,0,0,0,0,0,0,1,3,4,117,space,11.79712619999998,None,0,1,1.8754183000000921,None,space,3.2726595000000316,None,0,0,0,0,,,,,9,7,79,6,243.54582289999996,,,,,,,,,,,,,,,,,,,,,243.530345,243.54582289999996,244.0297822,244.03459479999992,244.05077469999992,245.9288755,,,,,245.92908019999993,245.9442282,246.14409479999995,246.1276858,244.05077469999992,,,,,,,,0,1,1.8754183000000921,None,,,,,,,,883,25,M,R,2026-02-25_11h05.29.946,VisualSearch_2526_3,,2025.2.4,2026-02-25 11h05.30.459210 +0100,
tilted.xlsx,The target is tilted.,117,80,0,10,0,1,1,1,1,1,1,1,0,0,0,0,1,7,8,117,space,11.79712619999998,None,1,0,0.727402199999915,None,space,3.2726595000000316,None,0,0,0,0,,,,,10,0,80,5,246.14409479999995,,,,,,,,,,,,,,,,,,,,,246.12815899999998,246.14409479999995,246.6270518,246.62842009999997,246.64356179999993,247.37708339999995,,,,,247.37717069999997,247.39322129999994,247.593168,247.5768453999999,246.64356179999993,,,,,,,,1,0,0.727402199999915,None,,,,,,,,883,25,M,R,2026-02-25_11h05.29.946,VisualSearch_2526_3,,2025.2.4,2026-02-25 11h05.30.459210 +0100,
tilted.xlsx,The target is tilted.,117,81,1,10,1,1,1,1,1,1,1,1,0,0,0,0,0,7,8,117,space,11.79712619999998,None,0,0,0.9368240999999671,None,space,3.2726595000000316,None,0,0,0,0,,,,,10,1,81,1,247.593168,,,,,,,,,,,,,,,,,,,,,247.57722649999994,247.593168,248.0771893,248.08165739999993,248.09773129999996,249.04314779999993,,,,,249.04322989999991,249.05917439999996,,249.2435069999999,248.09773129999996,,,,,,,,0,0,0.9368240999999671,None,,,,,,,,883,25,M,R,2026-02-25_11h05.29.946,VisualSearch_2526_3,,2025.2.4,2026-02-25 11h05.30.459210 +0100,
tilted.xlsx,The target is tilted.,117,82,2,10,0,1,1,1,1,1,1,1,1,1,1,1,1,11,12,117,space,11.79712619999998,None,1,0,2.3084824999999682,None,space,3.2726595000000316,None,0,0,0,0,,,,,10,2,82,4,249.2598842,,,,,,,,,,,,,,,,,,,,,249.24443939999992,249.2598842,249.74356039999998,249.74862439999993,249.76572169999997,252.07562339999993,,,,,252.07571329999996,252.09118449999994,252.29194859999996,252.27577799999995,249.76572169999997,,,,,,,,1,0,2.3084824999999682,None,,,,,,,,883,25,M,R,2026-02-25_11h05.29.946,VisualSearch_2526_3,,2025.2.4,2026-02-25 11h05.30.459210 +0100,
tilted.xlsx,The target is tilted.,117,83,3,10,1,0,0,0,0,0,0,0,0,0,0,0,0,0,1,117,space,11.79712619999998,None,0,0,0.7172276999999667,None,space,3.2726595000000316,None,0,0,0,0,,,,,10,3,83,3,252.29194859999996,,,,,,,,,,,,,,,,,,,,,252.27660529999991,252.29194859999996,252.77544769999997,252.7799291,252.7965683,253.52570029999993,,,,,253.52589039999998,253.54067679999991,253.74037950000002,253.7238714,252.7965683,,,,,,,,0,0,0.7172276999999667,None,,,,,,,,883,25,M,R,2026-02-25_11h05.29.946,VisualSearch_2526_3,,2025.2.4,2026-02-25 11h05.30.459210 +0100,
tilted.xlsx,The target is tilted.,117,84,4,10,0,1,1,1,0,0,0,0,0,0,0,0,1,3,4,117,space,11.79712619999998,None,0,1,1.455276700000013,None,space,3.2726595000000316,None,0,0,0,0,,,,,10,4,84,6,253.74037950000002,,,,,,,,,,,,,,,,,,,,,253.7241841,253.74037950000002,254.2248598,254.22932889999993,254.2443998,255.7076449,,,,,255.70781799999997,255.723567,255.92348489999995,255.9074432,254.2443998,,,,,,,,0,1,1.455276700000013,None,,,,,,,,883,25,M,R,2026-02-25_11h05.29.946,VisualSearch_2526_3,,2025.2.4,2026-02-25 11h05.30.459210 +0100,
tilted.xlsx,The target is tilted.,117,85,5,10,1,1,1,1,1,1,1,1,1,1,1,1,0,11,12,117,space,11.79712619999998,None,1,1,0.9507963000000927,None,space,3.2726595000000316,None,0,0,0,0,,,,,10,5,85,0,255.92348489999995,,,,,,,,,,,,,,,,,,,,,255.90824369999996,255.92348489999995,256.4067397,256.4111616,256.4246799,257.3904165,,,,,257.3905909,257.40597909999997,257.6061839,257.5900005,256.4246799,,,,,,,,1,1,0.9507963000000927,None,,,,,,,,883,25,M,R,2026-02-25_11h05.29.946,VisualSearch_2526_3,,2025.2.4,2026-02-25 11h05.30.459210 +0100,
tilted.xlsx,The target is tilted.,117,86,6,10,0,0,0,0,0,0,0,0,0,0,0,0,1,1,1,117,space,11.79712619999998,None,0,1,0.9364101999999548,None,space,3.2726595000000316,None,0,0,0,0,,,,,10,6,86,7,257.6061839,,,,,,,,,,,,,,,,,,,,,257.59069709999994,257.6061839,258.08936229999995,258.09384249999994,258.10795229999997,259.0561022999999,,,,,259.05629369999997,259.0716424,259.2721246,259.25599139999997,258.10795229999997,,,,,,,,0,1,0.9364101999999548,None,,,,,,,,883,25,M,R,2026-02-25_11h05.29.946,VisualSearch_2526_3,,2025.2.4,2026-02-25 11h05.30.459210 +0100,
tilted.xlsx,The target is tilted.,117,87,7,10,1,1,1,1,0,0,0,0,0,0,0,0,0,3,4,117,space,11.79712619999998,None,0,0,1.031691099999989,None,space,3.2726595000000316,None,0,0,0,0,,,,,10,7,87,2,259.2721246,,,,,,,,,,,,,,,,,,,,,259.2568076,259.2721246,259.755673,259.7601556999999,259.7748879999999,260.82237039999995,,,,,260.8225656999999,260.83788159999995,261.0378661,261.0218004999999,259.7748879999999,,,,,,,,0,0,1.031691099999989,None,,,,,,,,883,25,M,R,2026-02-25_11h05.29.946,VisualSearch_2526_3,,2025.2.4,2026-02-25 11h05.30.459210 +0100,
tilted.xlsx,The target is tilted.,117,88,0,11,0,0,0,0,0,0,0,0,0,0,0,0,1,1,1,117,space,11.79712619999998,None,1,0,0.7034615000000031,None,space,3.2726595000000316,None,0,0,0,0,,,,,11,0,88,7,261.0378661,,,,,,,,,,,,,,,,,,,,,261.0225008,261.0378661,261.5214651,261.5258991999999,261.5422529,262.2550563,,,,,262.2552486999999,262.2705827,262.4704833999999,262.4543729999999,261.5422529,,,,,,,,1,0,0.7034615000000031,None,,,,,,,,883,25,M,R,2026-02-25_11h05.29.946,VisualSearch_2526_3,,2025.2.4,2026-02-25 11h05.30.459210 +0100,
tilted.xlsx,The target is tilted.,117,89,1,11,1,1,1,1,0,0,0,0,0,0,0,0,0,3,4,117,space,11.79712619999998,None,0,0,0.6574785999999904,None,space,3.2726595000000316,None,0,0,0,0,,,,,11,1,89,2,262.4704833999999,,,,,,,,,,,,,,,,,,,,,262.45508169999994,262.4704833999999,262.9542666,262.9593456,262.97493,263.63648249999994,,,,,263.6365359,263.65250749999996,,263.8369015999999,262.97493,,,,,,,,0,0,0.6574785999999904,None,,,,,,,,883,25,M,R,2026-02-25_11h05.29.946,VisualSearch_2526_3,,2025.2.4,2026-02-25 11h05.30.459210 +0100,
tilted.xlsx,The target is tilted.,117,90,2,11,1,1,1,1,1,1,1,1,1,1,1,1,0,11,12,117,space,11.79712619999998,None,1,1,2.1640032000000247,None,space,3.2726595000000316,None,0,0,0,0,,,,,11,2,90,0,263.8527908,,,,,,,,,,,,,,,,,,,,,263.83767119999993,263.8527908,264.3364365,264.33952179999994,264.3524524999999,266.5187829,,,,,266.51894889999994,266.53480479999996,266.73512959999994,266.7191782,264.3524524999999,,,,,,,,1,1,2.1640032000000247,None,,,,,,,,883,25,M,R,2026-02-25_11h05.29.946,VisualSearch_2526_3,,2025.2.4,2026-02-25 11h05.30.459210 +0100,
tilted.xlsx,The target is tilted.,117,91,3,11,0,1,1,1,1,1,1,1,1,1,1,1,1,11,12,117,space,11.79712619999998,None,1,0,2.8194356999999854,None,space,3.2726595000000316,None,0,0,0,0,,,,,11,3,91,4,266.73512959999994,,,,,,,,,,,,,,,,,,,,,266.7198816,266.73512959999994,267.21883979999996,267.2234155,267.24212579999994,270.0677657,,,,,270.0679566,270.0837073,270.2835063,270.2670419,267.24212579999994,,,,,,,,1,0,2.8194356999999854,None,,,,,,,,883,25,M,R,2026-02-25_11h05.29.946,VisualSearch_2526_3,,2025.2.4,2026-02-25 11h05.30.459210 +0100,
tilted.xlsx,The target is tilted.,117,92,4,11,1,1,1,1,1,1,1,1,0,0,0,0,0,7,8,117,space,11.79712619999998,None,1,1,1.1063685999999961,None,space,3.2726595000000316,None,0,0,0,0,,,,,11,4,92,1,270.2835063,,,,,,,,,,,,,,,,,,,,,270.2677685,270.2835063,270.7675347999999,270.7725968,270.78963369999997,271.90033819999996,,,,,271.90053119999993,271.91624809999996,272.11617179999996,272.10006239999996,270.78963369999997,,,,,,,,1,1,1.1063685999999961,None,,,,,,,,883,25,M,R,2026-02-25_11h05.29.946,VisualSearch_2526_3,,2025.2.4,2026-02-25 11h05.30.459210 +0100,
tilted.xlsx,The target is tilted.,117,93,5,11,0,1,1,1,0,0,0,0,0,0,0,0,1,3,4,117,space,11.79712619999998,None,0,1,1.5943410999999514,None,space,3.2726595000000316,None,0,0,0,0,,,,,11,5,93,6,272.11617179999996,,,,,,,,,,,,,,,,,,,,,272.1007589999999,272.11617179999996,272.59984169999996,272.60431429999994,272.6204143,274.2162399,,,,,274.2164303999999,274.23137539999993,274.4318532,274.41578979999997,272.6204143,,,,,,,,0,1,1.5943410999999514,None,,,,,,,,883,25,M,R,2026-02-25_11h05.29.946,VisualSearch_2526_3,,2025.2.4,2026-02-25 11h05.30.459210 +0100,
tilted.xlsx,The target is tilted.,117,94,6,11,1,0,0,0,0,0,0,0,0,0,0,0,0,0,1,117,space,11.79712619999998,None,0,0,0.9300338000000465,None,space,3.2726595000000316,None,0,0,0,0,,,,,11,6,94,3,274.4318532,,,,,,,,,,,,,,,,,,,,,274.41666439999995,274.4318532,274.93093049999993,274.9328135999999,274.9473345,275.88121939999996,,,,,275.8813139,275.8971993,276.0976582999999,276.0815210999999,,,,,,,,,0,0,0.9300338000000465,None,,,,,,,,883,25,M,R,2026-02-25_11h05.29.946,VisualSearch_2526_3,,2025.2.4,2026-02-25 11h05.30.459210 +0100,
tilted.xlsx,The target is tilted.,117,95,7,11,0,1,1,1,1,1,1,1,0,0,0,0,1,7,8,117,space,11.79712619999998,None,1,0,2.842510700000048,None,space,3.2726595000000316,None,0,0,0,0,,,,,11,7,95,5,276.0976582999999,,,,,,,,,,,,,,,,,,,,,276.08229859999994,276.0976582999999,276.5808012,276.58288289999996,276.59726209999997,279.44695679999995,,,,,279.4471483,279.4626549999999,279.66242449999993,279.6464833,276.59726209999997,,,,,,,,1,0,2.842510700000048,None,,,,,,,,883,25,M,R,2026-02-25_11h05.29.946,VisualSearch_2526_3,,2025.2.4,2026-02-25 11h05.30.459210 +0100,
tilted.xlsx,The target is tilted.,117,96,0,12,1,1,1,1,1,1,1,1,0,0,0,0,0,7,8,117,space,11.79712619999998,None,1,1,1.9182294000000866,None,space,3.2726595000000316,None,0,0,0,0,,,,,12,0,96,1,279.66242449999993,,,,,,,,,,,,,,,,,,,,,279.64724649999994,279.66242449999993,280.14649959999997,280.15127039999993,280.1660267,282.09590259999993,,,,,282.0960768,282.11141899999996,282.3115164999999,282.29540269999995,280.1660267,,,,,,,,1,1,1.9182294000000866,None,,,,,,,,883,25,M,R,2026-02-25_11h05.29.946,VisualSearch_2526_3,,2025.2.4,2026-02-25 11h05.30.459210 +0100,
tilted.xlsx,The target is tilted.,117,97,1,12,1,0,0,0,0,0,0,0,0,0,0,0,0,0,1,117,space,11.79712619999998,None,0,0,0.7169732000000977,None,space,3.2726595000000316,None,0,0,0,0,,,,,12,1,97,3,282.3115164999999,,,,,,,,,,,,,,,,,,,,,282.29619909999997,282.3115164999999,282.7951830999999,282.7996529999999,282.8151426999999,283.5453385999999,,,,,283.54552879999994,283.560529,283.7608742,283.74468719999993,282.8151426999999,,,,,,,,0,0,0.7169732000000977,None,,,,,,,,883,25,M,R,2026-02-25_11h05.29.946,VisualSearch_2526_3,,2025.2.4,2026-02-25 11h05.30.459210 +0100,
tilted.xlsx,The target is tilted.,117,98,2,12,1,1,1,1,0,0,0,0,0,0,0,0,0,3,4,117,space,11.79712619999998,None,0,0,1.5084022999999434,None,space,3.2726595000000316,None,0,0,0,0,,,,,12,2,98,2,283.7608742,,,,,,,,,,,,,,,,,,,,,283.7454604999999,283.7608742,284.24446349999994,284.248882,284.26565199999993,285.7772375999999,,,,,285.7774104,285.79286019999995,285.9931694999999,285.9770785999999,284.26565199999993,,,,,,,,0,0,1.5084022999999434,None,,,,,,,,883,25,M,R,2026-02-25_11h05.29.946,VisualSearch_2526_3,,2025.2.4,2026-02-25 11h05.30.459210 +0100,
tilted.xlsx,The target is tilted.,117,99,3,12,1,1,1,1,1,1,1,1,1,1,1,1,0,11,12,117,space,11.79712619999998,None,1,1,1.4269666000000143,None,space,3.2726595000000316,None,0,0,0,0,,,,,12,3,99,0,285.9931694999999,,,,,,,,,,,,,,,,,,,,,285.97778489999996,285.9931694999999,286.47683099999995,286.4819096,286.4969901999999,287.92663059999995,,,,,287.92682049999996,287.94181019999996,288.1420482,288.1260198,286.4969901999999,,,,,,,,1,1,1.4269666000000143,None,,,,,,,,883,25,M,R,2026-02-25_11h05.29.946,VisualSearch_2526_3,,2025.2.4,2026-02-25 11h05.30.459210 +0100,
tilted.xlsx,The target is tilted.,117,100,4,12,0,0,0,0,0,0,0,0,0,0,0,0,1,1,1,117,space,11.79712619999998,None,0,1,0.6701662000000397,None,space,3.2726595000000316,None,0,0,0,0,,,,,12,4,100,7,288.1420482,,,,,,,,,,,,,,,,,,,,,288.1267885,288.1420482,288.62561159999996,288.6300668,288.6470466999999,289.32598529999996,,,,,289.3261586,289.34147659999996,289.54112009999994,289.5251124,288.6470466999999,,,,,,,,0,1,0.6701662000000397,None,,,,,,,,883,25,M,R,2026-02-25_11h05.29.946,VisualSearch_2526_3,,2025.2.4,2026-02-25 11h05.30.459210 +0100,
tilted.xlsx,The target is tilted.,117,101,5,12,0,1,1,1,1,1,1,1,0,0,0,0,1,7,8,117,space,11.79712619999998,None,1,0,1.27871719999996,None,space,3.2726595000000316,None,0,0,0,0,,,,,12,5,101,5,289.54112009999994,,,,,,,,,,,,,,,,,,,,,289.5258114999999,289.54112009999994,290.02521749999994,290.029683,290.04529549999995,291.32519349999995,,,,,291.32538939999995,291.3403940999999,291.5402451,291.5243491,290.04529549999995,,,,,,,,1,0,1.27871719999996,None,,,,,,,,883,25,M,R,2026-02-25_11h05.29.946,VisualSearch_2526_3,,2025.2.4,2026-02-25 11h05.30.459210 +0100,
tilted.xlsx,The target is tilted.,117,102,6,12,0,1,1,1,1,1,1,1,1,1,1,1,1,11,12,117,space,11.79712619999998,None,1,0,0.8655691999999817,None,space,3.2726595000000316,None,0,0,0,0,,,,,12,6,102,4,291.5402451,,,,,,,,,,,,,,,,,,,,,291.52507549999996,291.5402451,292.02405049999993,292.0286447,292.0443611999999,292.9243730999999,,,,,292.92458639999995,292.93986429999995,293.1398732,293.1233241,292.0443611999999,,,,,,,,1,0,0.8655691999999817,None,,,,,,,,883,25,M,R,2026-02-25_11h05.29.946,VisualSearch_2526_3,,2025.2.4,2026-02-25 11h05.30.459210 +0100,
tilted.xlsx,The target is tilted.,117,103,7,12,0,1,1,1,0,0,0,0,0,0,0,0,1,3,4,117,space,11.79712619999998,None,0,1,1.07444380000004,None,space,3.2726595000000316,None,0,0,0,0,,,,,12,7,103,6,293.1398732,,,,,,,,,,,,,,,,,,,,,293.1240567,293.1398732,293.6233569,293.6278788999999,293.6441846,294.72296559999995,,,,,294.72317799999996,294.7391121999999,294.93909469999994,294.92278009999995,293.6441846,,,,,,,,0,1,1.07444380000004,None,,,,,,,,883,25,M,R,2026-02-25_11h05.29.946,VisualSearch_2526_3,,2025.2.4,2026-02-25 11h05.30.459210 +0100,
tilted.xlsx,The target is tilted.,117,104,0,13,0,1,1,1,1,1,1,1,1,1,1,1,1,11,12,117,space,11.79712619999998,None,1,0,0.9899834999999939,None,space,3.2726595000000316,None,0,0,0,0,,,,,13,0,104,4,294.93909469999994,,,,,,,,,,,,,,,,,,,,,294.9235172,294.93909469999994,295.4223905,295.42685789999996,295.44314009999994,296.43946959999994,,,,,296.4396595999999,296.4550431,296.6549844,296.63888439999994,295.44314009999994,,,,,,,,1,0,0.9899834999999939,None,,,,,,,,883,25,M,R,2026-02-25_11h05.29.946,VisualSearch_2526_3,,2025.2.4,2026-02-25 11h05.30.459210 +0100,
tilted.xlsx,The target is tilted.,117,105,1,13,0,1,1,1,0,0,0,0,0,0,0,0,1,3,4,117,space,11.79712619999998,None,0,1,0.7264030000000048,None,space,3.2726595000000316,None,0,0,0,0,,,,,13,1,105,6,296.6549844,,,,,,,,,,,,,,,,,,,,,296.63960829999996,296.6549844,297.1386715,297.1431273999999,297.1594726999999,297.88891949999993,,,,,297.8891393,297.90399059999993,298.1043294,298.0882484,297.1594726999999,,,,,,,,0,1,0.7264030000000048,None,,,,,,,,883,25,M,R,2026-02-25_11h05.29.946,VisualSearch_2526_3,,2025.2.4,2026-02-25 11h05.30.459210 +0100,
tilted.xlsx,The target is tilted.,117,106,2,13,1,1,1,1,0,0,0,0,0,0,0,0,0,3,4,117,space,11.79712619999998,None,0,0,0.7342775000000756,None,space,3.2726595000000316,None,0,0,0,0,,,,,13,2,106,2,298.1043294,,,,,,,,,,,,,,,,,,,,,298.0890622999999,298.1043294,298.5879089,298.592347,298.6080167,299.35485259999996,,,,,299.3550475999999,299.3700887,299.57017669999993,299.55415719999996,298.6080167,,,,,,,,0,0,0.7342775000000756,None,,,,,,,,883,25,M,R,2026-02-25_11h05.29.946,VisualSearch_2526_3,,2025.2.4,2026-02-25 11h05.30.459210 +0100,
tilted.xlsx,The target is tilted.,117,107,3,13,0,0,0,0,0,0,0,0,0,0,0,0,1,1,1,117,space,11.79712619999998,None,0,1,0.483697799999959,None,space,3.2726595000000316,None,0,0,0,0,,,,,13,3,107,7,299.57017669999993,,,,,,,,,,,,,,,,,,,,,299.5548615,299.57017669999993,300.05388919999996,300.0584043,300.0750198999999,300.5701928,,,,,300.5702722,300.5862316,300.7865428,300.77047789999995,300.0750198999999,,,,,,,,0,1,0.483697799999959,None,,,,,,,,883,25,M,R,2026-02-25_11h05.29.946,VisualSearch_2526_3,,2025.2.4,2026-02-25 11h05.30.459210 +0100,
tilted.xlsx,The target is tilted.,117,108,4,13,1,0,0,0,0,0,0,0,0,0,0,0,0,0,1,117,space,11.79712619999998,None,0,0,1.258676400000013,None,space,3.2726595000000316,None,0,0,0,0,,,,,13,4,108,3,300.7865428,,,,,,,,,,,,,,,,,,,,,300.7713610999999,300.7865428,301.2701242999999,301.2745801,301.29146819999994,302.55345669999997,,,,,302.55368509999994,302.56888649999996,302.7688147,302.7524002,301.29146819999994,,,,,,,,0,0,1.258676400000013,None,,,,,,,,883,25,M,R,2026-02-25_11h05.29.946,VisualSearch_2526_3,,2025.2.4,2026-02-25 11h05.30.459210 +0100,
tilted.xlsx,The target is tilted.,117,109,5,13,1,1,1,1,1,1,1,1,1,1,1,1,0,11,12,117,space,11.79712619999998,None,1,1,1.3053853999999774,None,space,3.2726595000000316,None,0,0,0,0,,,,,13,5,109,0,302.7688147,,,,,,,,,,,,,,,,,,,,,302.7530977,302.7688147,303.25263469999993,303.25706879999996,303.27278979999994,304.58577159999993,,,,,304.585963,304.6012306,304.8012347,304.7848399999999,303.27278979999994,,,,,,,,1,1,1.3053853999999774,None,,,,,,,,883,25,M,R,2026-02-25_11h05.29.946,VisualSearch_2526_3,,2025.2.4,2026-02-25 11h05.30.459210 +0100,
tilted.xlsx,The target is tilted.,117,110,6,13,1,1,1,1,1,1,1,1,0,0,0,0,0,7,8,117,space,11.79712619999998,None,1,1,1.378723300000047,None,space,3.2726595000000316,None,0,0,0,0,,,,,13,6,110,1,304.8012347,,,,,,,,,,,,,,,,,,,,,304.7855383,304.8012347,305.2848839999999,305.2895917999999,305.3051081,306.7015794,,,,,306.7017520999999,306.71663279999996,306.91703689999997,306.9009654,305.3051081,,,,,,,,1,1,1.378723300000047,None,,,,,,,,883,25,M,R,2026-02-25_11h05.29.946,VisualSearch_2526_3,,2025.2.4,2026-02-25 11h05.30.459210 +0100,
tilted.xlsx,The target is tilted.,117,111,7,13,0,1,1,1,1,1,1,1,0,0,0,0,1,7,8,117,space,11.79712619999998,None,1,0,2.034153800000013,None,space,3.2726595000000316,None,0,0,0,0,,,,,13,7,111,5,306.91703689999997,,,,,,,,,,,,,,,,,,,,,306.9016962999999,306.91703689999997,307.4007216,307.40522899999996,307.42036199999995,309.4665779999999,,,,,309.4667859,309.48217999999997,309.6821413,309.66629179999995,307.42036199999995,,,,,,,,1,0,2.034153800000013,None,,,,,,,,883,25,M,R,2026-02-25_11h05.29.946,VisualSearch_2526_3,,2025.2.4,2026-02-25 11h05.30.459210 +0100,
tilted.xlsx,The target is tilted.,117,112,0,14,0,1,1,1,1,1,1,1,0,0,0,0,1,7,8,117,space,11.79712619999998,None,1,0,2.004655600000092,None,space,3.2726595000000316,None,0,0,0,0,,,,,14,0,112,5,309.6821413,,,,,,,,,,,,,,,,,,,,,309.6671036,309.6821413,310.16554829999995,310.1700126999999,310.18494739999994,312.1989347,,,,,312.19912969999996,312.2144158,312.4140735,312.3983704,310.18494739999994,,,,,,,,1,0,2.004655600000092,None,,,,,,,,883,25,M,R,2026-02-25_11h05.29.946,VisualSearch_2526_3,,2025.2.4,2026-02-25 11h05.30.459210 +0100,
tilted.xlsx,The target is tilted.,117,113,1,14,1,1,1,1,0,0,0,0,0,0,0,0,0,3,4,117,space,11.79712619999998,None,0,0,1.18162540000003,None,space,3.2726595000000316,None,0,0,0,0,,,,,14,1,113,2,312.4140735,,,,,,,,,,,,,,,,,,,,,312.39919399999997,312.4140735,312.8976917,312.9021265,312.9180272,314.1147933,,,,,314.11498959999994,314.1302941,314.33023049999997,314.3139709999999,312.9180272,,,,,,,,0,0,1.18162540000003,None,,,,,,,,883,25,M,R,2026-02-25_11h05.29.946,VisualSearch_2526_3,,2025.2.4,2026-02-25 11h05.30.459210 +0100,
tilted.xlsx,The target is tilted.,117,114,2,14,1,0,0,0,0,0,0,0,0,0,0,0,0,0,1,117,space,11.79712619999998,None,0,0,0.9738625999999613,None,space,3.2726595000000316,None,0,0,0,0,,,,,14,2,114,3,314.33023049999997,,,,,,,,,,,,,,,,,,,,,314.3147752,314.33023049999997,314.81383099999994,314.81835149999995,314.8343100999999,315.8138785,,,,,315.8140753,315.82939279999994,316.0294056,316.01325199999997,314.8343100999999,,,,,,,,0,0,0.9738625999999613,None,,,,,,,,883,25,M,R,2026-02-25_11h05.29.946,VisualSearch_2526_3,,2025.2.4,2026-02-25 11h05.30.459210 +0100,
tilted.xlsx,The target is tilted.,117,115,3,14,1,1,1,1,1,1,1,1,1,1,1,1,0,11,12,117,space,11.79712619999998,None,1,1,1.149686000000088,None,space,3.2726595000000316,None,0,0,0,0,,,,,14,3,115,0,316.0294056,,,,,,,,,,,,,,,,,,,,,316.0139949999999,316.0294056,316.5127898999999,316.51733289999993,316.534172,317.69653089999997,,,,,317.6967446,317.7119997,317.91198069999996,317.89580049999995,316.534172,,,,,,,,1,1,1.149686000000088,None,,,,,,,,883,25,M,R,2026-02-25_11h05.29.946,VisualSearch_2526_3,,2025.2.4,2026-02-25 11h05.30.459210 +0100,
tilted.xlsx,The target is tilted.,117,116,4,14,0,1,1,1,1,1,1,1,1,1,1,1,1,11,12,117,space,11.79712619999998,None,1,0,4.024461199999905,None,space,3.2726595000000316,None,0,0,0,0,,,,,14,4,116,4,317.91198069999996,,,,,,,,,,,,,,,,,,,,,317.8965036999999,317.91198069999996,318.39563769999995,318.40009799999996,318.4168439,322.4441005,,,,,322.4443059,322.45941859999994,322.65951929999994,322.64381289999994,318.4168439,,,,,,,,1,0,4.024461199999905,None,,,,,,,,883,25,M,R,2026-02-25_11h05.29.946,VisualSearch_2526_3,,2025.2.4,2026-02-25 11h05.30.459210 +0100,
tilted.xlsx,The target is tilted.,117,117,5,14,0,0,0,0,0,0,0,0,0,0,0,0,1,1,1,117,space,11.79712619999998,None,1,0,2.0913252000000284,None,space,3.2726595000000316,None,0,0,0,0,,,,,14,5,117,7,322.65951929999994,,,,,,,,,,,,,,,,,,,,,322.64464,322.65951929999994,323.14327679999997,323.14775699999996,323.165703,325.2597604,,,,,325.260004,325.27522909999993,325.47523309999997,325.4590965,323.165703,,,,,,,,1,0,2.0913252000000284,None,,,,,,,,883,25,M,R,2026-02-25_11h05.29.946,VisualSearch_2526_3,,2025.2.4,2026-02-25 11h05.30.459210 +0100,
tilted.xlsx,The target is tilted.,117,118,6,14,1,1,1,1,1,1,1,1,0,0,0,0,0,7,8,117,space,11.79712619999998,None,1,1,1.1600730000000112,None,space,3.2726595000000316,None,0,0,0,0,,,,,14,6,118,1,325.47523309999997,,,,,,,,,,,,,,,,,,,,,325.4598146999999,325.47523309999997,325.95848649999994,325.96295929999997,325.9791343999999,327.1421608999999,,,,,327.1423626999999,327.1577401999999,327.3573596,327.3415966,325.9791343999999,,,,,,,,1,1,1.1600730000000112,None,,,,,,,,883,25,M,R,2026-02-25_11h05.29.946,VisualSearch_2526_3,,2025.2.4,2026-02-25 11h05.30.459210 +0100,
tilted.xlsx,The target is tilted.,117,119,7,14,0,1,1,1,0,0,0,0,0,0,0,0,1,3,4,117,space,11.79712619999998,None,0,1,1.6613080000000764,None,space,3.2726595000000316,None,0,0,0,0,,,,,14,7,119,6,327.3573596,,,,,,,,,,,,,,,,,,,,,327.34232739999993,327.3573596,327.84135019999997,327.84608189999994,327.86241829999994,329.5404515,,,,,329.5405956999999,329.55643739999994,329.77050069999996,329.740505,327.86241829999994,,,,,,,,0,1,1.6613080000000764,None,,,,,,,,883,25,M,R,2026-02-25_11h05.29.946,VisualSearch_2526_3,,2025.2.4,2026-02-25 11h05.30.459210 +0100,
tilted.xlsx,The target is tilted.,117,0,0,0,,,,,,,,,,,,,,,,,space,11.79712619999998,None,,,,,space,3.2726595000000316,None,0,0,0,0,,,,,,,,,,,,,,,,,,,,,,,,,,,,,,,,,,,,,,,,,,,,,,,,,,,,,,,,,,,,,,,883,25,M,R,2026-02-25_11h05.29.946,VisualSearch_2526_3,,2025.2.4,2026-02-25 11h05.30.459210 +0100,
vertical.xlsx,The target is tilted.,135,0,0,0,0,1,1,1,1,1,1,1,0,0,0,0,1,7,8,135,space,5.3377537000000075,None,0,1,1.9903915999999526,None,,,,0,1,1,1,0,0,0,5,,,,,335.18338029999995,,,,,,,,,,,,,,,329.77050069999996,329.77050069999996,329.77050069999996,space,5.3377537000000075,None,335.1791644,335.18338029999995,335.6375517,335.6421084,335.65994979999994,337.6537605,0,1,1.9903915999999526,None,337.6539502999999,337.669576,337.8695690999999,337.8532113,,,,,,,,,,,,,,,,,,,,883,25,M,R,2026-02-25_11h05.29.946,VisualSearch_2526_3,,2025.2.4,2026-02-25 11h05.30.459210 +0100,
vertical.xlsx,The target is tilted.,135,1,1,0,1,0,0,0,0,0,0,0,0,0,0,0,0,0,1,135,space,5.3377537000000075,None,1,1,0.6478867000000719,None,,,,0,1,1,1,0,1,1,3,,,,,337.8695690999999,,,,,,,,,,,,,,,,,,,,,337.8538899,337.8695690999999,338.3532447,338.3576946999999,338.37371199999995,339.03663389999997,1,1,0.6478867000000719,None,339.03681829999994,339.05203819999997,339.25217829999997,339.23616459999994,338.37371199999995,,,,,,,,,,,,,,,,,,,883,25,M,R,2026-02-25_11h05.29.946,VisualSearch_2526_3,,2025.2.4,2026-02-25 11h05.30.459210 +0100,
vertical.xlsx,The target is tilted.,135,2,2,0,1,1,1,1,1,1,1,1,0,0,0,0,0,7,8,135,space,5.3377537000000075,None,1,1,1.1525362999999516,None,,,,0,1,1,1,0,2,2,1,,,,,339.25217829999997,,,,,,,,,,,,,,,,,,,,,339.23682859999997,339.25217829999997,339.73593729999993,339.74036019999994,339.7566601,340.919125,1,1,1.1525362999999516,None,340.9192908,340.9347845,341.13458059999994,341.11810589999993,339.7566601,,,,,,,,,,,,,,,,,,,883,25,M,R,2026-02-25_11h05.29.946,VisualSearch_2526_3,,2025.2.4,2026-02-25 11h05.30.459210 +0100,
vertical.xlsx,The target is tilted.,135,3,3,0,0,1,1,1,1,1,1,1,1,1,1,1,1,11,12,135,space,5.3377537000000075,None,0,1,2.186227400000007,None,,,,0,1,1,1,0,3,3,4,,,,,341.13458059999994,,,,,,,,,,,,,,,,,,,,,341.1187877,341.13458059999994,341.61806109999986,341.62137559999985,341.63516100000004,343.83465779999995,0,1,2.186227400000007,None,343.8348947999999,343.8502050000001,344.04992830000003,344.03378699999996,341.63516100000004,,,,,,,,,,,,,,,,,,,883,25,M,R,2026-02-25_11h05.29.946,VisualSearch_2526_3,,2025.2.4,2026-02-25 11h05.30.459210 +0100,
vertical.xlsx,The target is tilted.,135,4,4,0,1,1,1,1,0,0,0,0,0,0,0,0,0,3,4,135,space,5.3377537000000075,None,1,1,0.6369185999999445,None,,,,0,1,1,1,0,4,4,2,,,,,344.04992830000003,,,,,,,,,,,,,,,,,,,,,344.03445350000004,344.04992830000003,344.53355539999995,344.5380658999999,344.55459259999986,345.2007881999999,1,1,0.6369185999999445,None,345.2009941,345.21587779999993,345.41614820000007,345.39950340000007,344.55459259999986,,,,,,,,,,,,,,,,,,,883,25,M,R,2026-02-25_11h05.29.946,VisualSearch_2526_3,,2025.2.4,2026-02-25 11h05.30.459210 +0100,
vertical.xlsx,The target is tilted.,135,5,5,0,0,0,0,0,0,0,0,0,0,0,0,0,1,1,1,135,space,5.3377537000000075,None,0,1,0.7170479000001251,None,,,,0,1,1,1,0,5,5,7,,,,,345.41614820000007,,,,,,,,,,,,,,,,,,,,,345.4001786,345.41614820000007,345.89941239999996,345.9039692,345.920391,346.64990610000007,0,1,0.7170479000001251,None,346.6500735000001,346.66550670000004,346.8654886999999,346.8493766999999,345.920391,,,,,,,,,,,,,,,,,,,883,25,M,R,2026-02-25_11h05.29.946,VisualSearch_2526_3,,2025.2.4,2026-02-25 11h05.30.459210 +0100,
vertical.xlsx,The target is tilted.,135,6,6,0,0,1,1,1,0,0,0,0,0,0,0,0,1,3,4,135,space,5.3377537000000075,None,0,1,0.626317699999845,None,,,,0,1,1,1,0,6,6,6,,,,,346.8654886999999,,,,,,,,,,,,,,,,,,,,,346.8500293000001,346.8654886999999,347.34914590000005,347.3537663999999,347.3702992,347.9992721,0,1,0.626317699999845,None,347.99949119999985,348.01489119999985,348.21486330000005,348.19874820000007,347.3702992,,,,,,,,,,,,,,,,,,,883,25,M,R,2026-02-25_11h05.29.946,VisualSearch_2526_3,,2025.2.4,2026-02-25 11h05.30.459210 +0100,
vertical.xlsx,The target is tilted.,135,7,7,0,1,1,1,1,1,1,1,1,1,1,1,1,0,11,12,135,space,5.3377537000000075,None,1,1,0.9865174999999908,None,,,,0,1,1,1,0,7,7,0,,,,,348.21486330000005,,,,,,,,,,,,,,,,,,,,,348.1994185,348.21486330000005,348.6983059999999,348.70285639999986,348.72057630000006,349.71515599999987,1,1,0.9865174999999908,None,349.7153433,349.7305026999999,349.9307032999999,349.9148646,348.72057630000006,,,,,,,,,,,,,,,,,,,883,25,M,R,2026-02-25_11h05.29.946,VisualSearch_2526_3,,2025.2.4,2026-02-25 11h05.30.459210 +0100,
vertical.xlsx,The target is tilted.,135,0,0,0,0,1,1,1,1,1,1,1,1,1,1,1,1,11,12,135,space,5.3377537000000075,None,0,1,1.1782005999998546,None,space,1.4090068999998948,None,0,1,1,1,,,,,0,0,0,4,351.38277690000007,,,,,,,,,,,,,,,,,,,,,351.37818660000005,351.38277690000007,351.86343249999993,351.8679899,351.8842584,353.0802814,,,,,353.0804729,353.0958098,353.29600160000007,353.27976909999995,,349.92166910000003,349.9307032999999,349.9307032999999,351.34761089999995,space,1.4090068999998948,None,0,1,1.1782005999998546,None,,,,,,,,883,25,M,R,2026-02-25_11h05.29.946,VisualSearch_2526_3,,2025.2.4,2026-02-25 11h05.30.459210 +0100,
vertical.xlsx,The target is tilted.,135,1,1,0,1,1,1,1,0,0,0,0,0,0,0,0,0,3,4,135,space,5.3377537000000075,None,1,1,0.5781482000002143,None,space,1.4090068999998948,None,0,1,1,1,,,,,0,1,1,2,353.29600160000007,,,,,,,,,,,,,,,,,,,,,353.2804809999999,353.29600160000007,353.77932799999996,353.78380359999994,353.7993751,354.3797555,,,,,354.37994850000007,354.3952903999999,354.59502940000004,354.57867939999994,353.7993751,,,,,,,,1,1,0.5781482000002143,None,,,,,,,,883,25,M,R,2026-02-25_11h05.29.946,VisualSearch_2526_3,,2025.2.4,2026-02-25 11h05.30.459210 +0100,
vertical.xlsx,The target is tilted.,135,2,2,0,0,1,1,1,1,1,1,1,0,0,0,0,1,7,8,135,space,5.3377537000000075,None,0,1,1.0364792000000307,None,space,1.4090068999998948,None,0,1,1,1,,,,,0,2,2,5,354.59502940000004,,,,,,,,,,,,,,,,,,,,,354.57939550000003,354.59502940000004,355.0786506999999,355.0830715999999,355.0997974999999,356.1455763,,,,,356.14576640000007,356.1611618999999,356.36117150000007,356.34504200000003,355.0997974999999,,,,,,,,0,1,1.0364792000000307,None,,,,,,,,883,25,M,R,2026-02-25_11h05.29.946,VisualSearch_2526_3,,2025.2.4,2026-02-25 11h05.30.459210 +0100,
vertical.xlsx,The target is tilted.,135,3,3,0,0,1,1,1,0,0,0,0,0,0,0,0,1,3,4,135,space,5.3377537000000075,None,0,1,0.6168758000001162,None,space,1.4090068999998948,None,0,1,1,1,,,,,0,3,3,6,356.36117150000007,,,,,,,,,,,,,,,,,,,,,356.34584029999985,356.36117150000007,356.8448135,356.8492674999999,356.8656385999999,357.4950163,,,,,357.49520670000004,357.5105434000001,357.7103977999999,357.6938853999999,356.8656385999999,,,,,,,,0,1,0.6168758000001162,None,,,,,,,,883,25,M,R,2026-02-25_11h05.29.946,VisualSearch_2526_3,,2025.2.4,2026-02-25 11h05.30.459210 +0100,
vertical.xlsx,The target is tilted.,135,4,4,0,1,0,0,0,0,0,0,0,0,0,0,0,0,0,1,135,space,5.3377537000000075,None,1,1,0.5118752999999288,None,space,1.4090068999998948,None,0,1,1,1,,,,,0,4,4,3,357.7103977999999,,,,,,,,,,,,,,,,,,,,,357.69468159999985,357.7103977999999,358.1941315,358.19858220000003,358.21550880000007,358.74443400000007,,,,,358.74463189999994,358.75956029999986,358.9599801999999,358.9437508,358.21550880000007,,,,,,,,1,1,0.5118752999999288,None,,,,,,,,883,25,M,R,2026-02-25_11h05.29.946,VisualSearch_2526_3,,2025.2.4,2026-02-25 11h05.30.459210 +0100,
vertical.xlsx,The target is tilted.,135,5,5,0,1,1,1,1,1,1,1,1,1,1,1,1,0,11,12,135,space,5.3377537000000075,None,1,1,0.9786323000000721,None,space,1.4090068999998948,None,0,1,1,1,,,,,0,5,5,0,358.9599801999999,,,,,,,,,,,,,,,,,,,,,358.94449769999994,358.9599801999999,359.4436698999999,359.44812119999995,359.46647070000006,360.46015520000003,,,,,360.46032660000003,360.4758820999999,360.6758506,360.6595824,359.46647070000006,,,,,,,,1,1,0.9786323000000721,None,,,,,,,,883,25,M,R,2026-02-25_11h05.29.946,VisualSearch_2526_3,,2025.2.4,2026-02-25 11h05.30.459210 +0100,
vertical.xlsx,The target is tilted.,135,6,6,0,1,1,1,1,1,1,1,1,0,0,0,0,0,7,8,135,space,5.3377537000000075,None,1,1,0.7553629999999885,None,space,1.4090068999998948,None,0,1,1,1,,,,,0,6,6,1,360.6758506,,,,,,,,,,,,,,,,,,,,,360.6603214999999,360.6758506,361.1595630999999,361.1640871999999,361.17532500000004,361.942582,,,,,361.9427752,361.9581609999999,362.15853129999994,362.1425493999999,361.17532500000004,,,,,,,,1,1,0.7553629999999885,None,,,,,,,,883,25,M,R,2026-02-25_11h05.29.946,VisualSearch_2526_3,,2025.2.4,2026-02-25 11h05.30.459210 +0100,
vertical.xlsx,The target is tilted.,135,7,7,0,0,0,0,0,0,0,0,0,0,0,0,0,1,1,1,135,space,5.3377537000000075,None,0,1,0.5380359000000681,None,space,1.4090068999998948,None,0,1,1,1,,,,,0,7,7,7,362.15853129999994,,,,,,,,,,,,,,,,,,,,,362.14325870000005,362.15853129999994,362.6422394,362.64675569999997,362.6617754,363.2078089999999,,,,,363.2078951,363.224429,,363.40814680000005,362.6617754,,,,,,,,0,1,0.5380359000000681,None,,,,,,,,883,25,M,R,2026-02-25_11h05.29.946,VisualSearch_2526_3,,2025.2.4,2026-02-25 11h05.30.459210 +0100,
vertical.xlsx,The target is tilted.,135,8,0,1,1,1,1,1,1,1,1,1,1,1,1,1,0,11,12,135,space,5.3377537000000075,None,1,1,1.0678373000000647,None,space,1.4090068999998948,None,0,1,1,1,,,,,1,0,8,0,363.4245565,,,,,,,,,,,,,,,,,,,,,363.4088777999999,363.4245565,363.9079988,363.91272279999987,363.92948850000005,365.00802239999996,,,,,365.00820829999986,365.02353299999993,365.2236855,365.20761389999996,,,,,,,,,1,1,1.0678373000000647,None,,,,,,,,883,25,M,R,2026-02-25_11h05.29.946,VisualSearch_2526_3,,2025.2.4,2026-02-25 11h05.30.459210 +0100,
vertical.xlsx,The target is tilted.,135,9,1,1,0,1,1,1,0,0,0,0,0,0,0,0,1,3,4,135,space,5.3377537000000075,None,0,1,0.6720362999999452,None,space,1.4090068999998948,None,0,1,1,1,,,,,1,1,9,6,365.2236855,,,,,,,,,,,,,,,,,,,,,365.20831799999985,365.2236855,365.70736210000007,365.71146680000004,365.7237208,366.4072748,,,,,366.4074313,366.4230693999999,366.62271499999986,366.6069211999999,365.7237208,,,,,,,,0,1,0.6720362999999452,None,,,,,,,,883,25,M,R,2026-02-25_11h05.29.946,VisualSearch_2526_3,,2025.2.4,2026-02-25 11h05.30.459210 +0100,
vertical.xlsx,The target is tilted.,135,10,2,1,1,1,1,1,1,1,1,1,0,0,0,0,0,7,8,135,space,5.3377537000000075,None,1,1,0.8009761000000708,None,space,1.4090068999998948,None,0,1,1,1,,,,,1,2,10,1,366.62271499999986,,,,,,,,,,,,,,,,,,,,,366.6077199,366.62271499999986,367.10659240000007,367.1110307,367.12894649999987,367.93987660000005,,,,,367.94001160000005,367.9557836,368.15571179999995,368.13972290000004,367.12894649999987,,,,,,,,1,1,0.8009761000000708,None,,,,,,,,883,25,M,R,2026-02-25_11h05.29.946,VisualSearch_2526_3,,2025.2.4,2026-02-25 11h05.30.459210 +0100,
vertical.xlsx,The target is tilted.,135,11,3,1,0,1,1,1,1,1,1,1,0,0,0,0,1,7,8,135,space,5.3377537000000075,None,0,1,1.110261199999968,None,space,1.4090068999998948,None,0,1,1,1,,,,,1,3,11,5,368.15571179999995,,,,,,,,,,,,,,,,,,,,,368.1404179,368.15571179999995,368.6392809,368.6437691,368.6594916999999,369.7729593,,,,,369.7731863,369.78828020000003,369.9882778,369.97198939999987,368.6594916999999,,,,,,,,0,1,1.110261199999968,None,,,,,,,,883,25,M,R,2026-02-25_11h05.29.946,VisualSearch_2526_3,,2025.2.4,2026-02-25 11h05.30.459210 +0100,
vertical.xlsx,The target is tilted.,135,12,4,1,1,1,1,1,0,0,0,0,0,0,0,0,0,3,4,135,space,5.3377537000000075,None,1,1,0.6093637000001308,None,space,1.4090068999998948,None,0,1,1,1,,,,,1,4,12,2,369.9882778,,,,,,,,,,,,,,,,,,,,,369.9727523,369.9882778,370.4715009999999,370.4761737,370.49221380000006,371.1052464999999,,,,,371.10543829999995,371.12111219999986,371.32086029999994,371.3045593999999,370.49221380000006,,,,,,,,1,1,0.6093637000001308,None,,,,,,,,883,25,M,R,2026-02-25_11h05.29.946,VisualSearch_2526_3,,2025.2.4,2026-02-25 11h05.30.459210 +0100,
vertical.xlsx,The target is tilted.,135,13,5,1,1,0,0,0,0,0,0,0,0,0,0,0,0,0,1,135,space,5.3377537000000075,None,1,1,0.6391353000001345,None,space,1.4090068999998948,None,0,1,1,1,,,,,1,5,13,3,371.32086029999994,,,,,,,,,,,,,,,,,,,,,371.305256,371.32086029999994,371.80446889999996,371.8089710999999,371.8256668999999,372.4713851,,,,,372.4715745,372.4869104999999,372.6870482999999,372.67100560000006,371.8256668999999,,,,,,,,1,1,0.6391353000001345,None,,,,,,,,883,25,M,R,2026-02-25_11h05.29.946,VisualSearch_2526_3,,2025.2.4,2026-02-25 11h05.30.459210 +0100,
vertical.xlsx,The target is tilted.,135,14,6,1,0,0,0,0,0,0,0,0,0,0,0,0,1,1,1,135,space,5.3377537000000075,None,0,1,0.9674254999999903,None,space,1.4090068999998948,None,0,1,1,1,,,,,1,6,14,7,372.6870482999999,,,,,,,,,,,,,,,,,,,,,372.67170369999997,372.6870482999999,373.17073500000004,373.17531610000003,373.19121170000005,374.1704896,,,,,374.17069950000007,374.18596489999993,374.3862576999999,374.37018610000007,373.19121170000005,,,,,,,,0,1,0.9674254999999903,None,,,,,,,,883,25,M,R,2026-02-25_11h05.29.946,VisualSearch_2526_3,,2025.2.4,2026-02-25 11h05.30.459210 +0100,
vertical.xlsx,The target is tilted.,135,15,7,1,0,1,1,1,1,1,1,1,1,1,1,1,1,11,12,135,space,5.3377537000000075,None,0,1,1.5073096999999507,None,space,1.4090068999998948,None,0,1,1,1,,,,,1,7,15,4,374.3862576999999,,,,,,,,,,,,,,,,,,,,,374.37090079999996,374.3862576999999,374.87005409999995,374.87452369999994,374.8912884,376.40280229999996,,,,,376.4029959999999,376.4186501999999,376.61861740000006,376.60248579999995,374.8912884,,,,,,,,0,1,1.5073096999999507,None,,,,,,,,883,25,M,R,2026-02-25_11h05.29.946,VisualSearch_2526_3,,2025.2.4,2026-02-25 11h05.30.459210 +0100,
vertical.xlsx,The target is tilted.,135,16,0,2,0,1,1,1,1,1,1,1,0,0,0,0,1,7,8,135,space,5.3377537000000075,None,0,1,1.0252361000000292,None,space,1.4090068999998948,None,0,1,1,1,,,,,2,0,16,5,376.61861740000006,,,,,,,,,,,,,,,,,,,,,376.6031881,376.61861740000006,377.10228010000003,377.1067832,377.12295030000007,378.15203759999997,,,,,378.1522283999999,378.16769280000005,378.3678054999999,378.3516123999999,377.12295030000007,,,,,,,,0,1,1.0252361000000292,None,,,,,,,,883,25,M,R,2026-02-25_11h05.29.946,VisualSearch_2526_3,,2025.2.4,2026-02-25 11h05.30.459210 +0100,
vertical.xlsx,The target is tilted.,135,17,1,2,0,1,1,1,0,0,0,0,0,0,0,0,1,3,4,135,space,5.3377537000000075,None,0,1,0.6774780999999166,None,space,1.4090068999998948,None,0,1,1,1,,,,,2,1,17,6,378.3678054999999,,,,,,,,,,,,,,,,,,,,,378.3523299,378.3678054999999,378.85149609999996,378.8569331,378.87174360000006,379.5516411,,,,,379.551832,379.5666857,379.7669689999999,379.7507979999999,378.87174360000006,,,,,,,,0,1,0.6774780999999166,None,,,,,,,,883,25,M,R,2026-02-25_11h05.29.946,VisualSearch_2526_3,,2025.2.4,2026-02-25 11h05.30.459210 +0100,
vertical.xlsx,The target is tilted.,135,18,2,2,0,0,0,0,0,0,0,0,0,0,0,0,1,1,1,135,space,5.3377537000000075,None,0,1,0.4535555000002205,None,space,1.4090068999998948,None,0,1,1,1,,,,,2,2,18,7,379.7669689999999,,,,,,,,,,,,,,,,,,,,,379.7515050999999,379.7669689999999,380.2504567,380.2550319999999,380.27130469999986,380.7345036999999,,,,,380.73469869999997,380.7500710999999,380.9499130999999,380.93378819999987,380.27130469999986,,,,,,,,0,1,0.4535555000002205,None,,,,,,,,883,25,M,R,2026-02-25_11h05.29.946,VisualSearch_2526_3,,2025.2.4,2026-02-25 11h05.30.459210 +0100,
vertical.xlsx,The target is tilted.,135,19,3,2,1,0,0,0,0,0,0,0,0,0,0,0,0,0,1,135,space,5.3377537000000075,None,1,1,0.5183448999998745,None,space,1.4090068999998948,None,0,1,1,1,,,,,2,3,19,3,380.9499130999999,,,,,,,,,,,,,,,,,,,,,380.93451289999996,380.9499130999999,381.43321609999987,381.43768869999997,381.45518649999997,381.9838994999999,,,,,381.9840897999999,381.9992375999999,382.1992377999999,382.182737,381.45518649999997,,,,,,,,1,1,0.5183448999998745,None,,,,,,,,883,25,M,R,2026-02-25_11h05.29.946,VisualSearch_2526_3,,2025.2.4,2026-02-25 11h05.30.459210 +0100,
vertical.xlsx,The target is tilted.,135,20,4,2,1,1,1,1,0,0,0,0,0,0,0,0,0,3,4,135,space,5.3377537000000075,None,1,1,0.6400373999999829,None,space,1.4090068999998948,None,0,1,1,1,,,,,2,4,20,2,382.1992377999999,,,,,,,,,,,,,,,,,,,,,382.18343849999985,382.1992377999999,382.6826588,382.68727,382.7042270999999,383.3499843999999,,,,,383.35017830000004,383.3654482999999,383.5652836999999,383.54890339999986,382.7042270999999,,,,,,,,1,1,0.6400373999999829,None,,,,,,,,883,25,M,R,2026-02-25_11h05.29.946,VisualSearch_2526_3,,2025.2.4,2026-02-25 11h05.30.459210 +0100,
vertical.xlsx,The target is tilted.,135,21,5,2,0,1,1,1,1,1,1,1,1,1,1,1,1,11,12,135,space,5.3377537000000075,None,0,1,0.9249480999999378,None,space,1.4090068999998948,None,0,1,1,1,,,,,2,5,21,4,383.5652836999999,,,,,,,,,,,,,,,,,,,,,383.549437,383.5652836999999,384.0490174999999,384.0534386999999,384.0713440999999,384.99929639999993,,,,,384.9994966999999,385.0147312,385.21470250000004,385.1986676999999,384.0713440999999,,,,,,,,0,1,0.9249480999999378,None,,,,,,,,883,25,M,R,2026-02-25_11h05.29.946,VisualSearch_2526_3,,2025.2.4,2026-02-25 11h05.30.459210 +0100,
vertical.xlsx,The target is tilted.,135,22,6,2,1,1,1,1,1,1,1,1,0,0,0,0,0,7,8,135,space,5.3377537000000075,None,1,1,0.6000099000000318,None,space,1.4090068999998948,None,0,1,1,1,,,,,2,6,22,1,385.21470250000004,,,,,,,,,,,,,,,,,,,,,385.19943439999986,385.21470250000004,385.6978994,385.70238759999995,385.71876659999987,386.3317854999999,,,,,386.33195749999993,386.3474488999999,386.54705320000005,386.53111879999994,385.71876659999987,,,,,,,,1,1,0.6000099000000318,None,,,,,,,,883,25,M,R,2026-02-25_11h05.29.946,VisualSearch_2526_3,,2025.2.4,2026-02-25 11h05.30.459210 +0100,
vertical.xlsx,The target is tilted.,135,23,7,2,1,1,1,1,1,1,1,1,1,1,1,1,0,11,12,135,space,5.3377537000000075,None,1,1,0.8932047999999213,None,space,1.4090068999998948,None,0,1,1,1,,,,,2,7,23,0,386.54705320000005,,,,,,,,,,,,,,,,,,,,,386.5318796999999,386.54705320000005,387.0311310000001,387.0356931,387.0519005,387.9478266,,,,,387.9480187999999,387.9631553999999,388.1630429999999,388.14689179999993,387.0519005,,,,,,,,1,1,0.8932047999999213,None,,,,,,,,883,25,M,R,2026-02-25_11h05.29.946,VisualSearch_2526_3,,2025.2.4,2026-02-25 11h05.30.459210 +0100,
vertical.xlsx,The target is tilted.,135,24,0,3,1,1,1,1,0,0,0,0,0,0,0,0,0,3,4,135,space,5.3377537000000075,None,1,1,0.5965575000000172,None,space,1.4090068999998948,None,0,1,1,1,,,,,3,0,24,2,388.1630429999999,,,,,,,,,,,,,,,,,,,,,388.14762959999996,388.1630429999999,388.6470432,388.6515051,388.66984709999986,389.28054839999993,,,,,389.28073989999996,389.29602369999986,389.4960648,389.47996249999994,388.66984709999986,,,,,,,,1,1,0.5965575000000172,None,,,,,,,,883,25,M,R,2026-02-25_11h05.29.946,VisualSearch_2526_3,,2025.2.4,2026-02-25 11h05.30.459210 +0100,
vertical.xlsx,The target is tilted.,135,25,1,3,0,1,1,1,0,0,0,0,0,0,0,0,1,3,4,135,space,5.3377537000000075,None,0,1,0.7201589999999669,None,space,1.4090068999998948,None,0,1,1,1,,,,,3,1,25,6,389.4960648,,,,,,,,,,,,,,,,,,,,,389.48068279999995,389.4960648,389.9798480999999,389.98496839999996,390.0014924000001,390.7299273,,,,,390.7301182,390.74533310000004,390.94504300000006,390.92885509999985,390.0014924000001,,,,,,,,0,1,0.7201589999999669,None,,,,,,,,883,25,M,R,2026-02-25_11h05.29.946,VisualSearch_2526_3,,2025.2.4,2026-02-25 11h05.30.459210 +0100,
vertical.xlsx,The target is tilted.,135,26,2,3,1,0,0,0,0,0,0,0,0,0,0,0,0,0,1,135,space,5.3377537000000075,None,1,1,0.5392868999999791,None,space,1.4090068999998948,None,0,1,1,1,,,,,3,2,26,3,390.94504300000006,,,,,,,,,,,,,,,,,,,,,390.9297195999999,390.94504300000006,391.42916409999987,391.43413109999995,391.4504530999999,391.99572720000003,,,,,391.99592819999987,392.01158069999985,392.2115362999999,392.1954291999999,391.4504530999999,,,,,,,,1,1,0.5392868999999791,None,,,,,,,,883,25,M,R,2026-02-25_11h05.29.946,VisualSearch_2526_3,,2025.2.4,2026-02-25 11h05.30.459210 +0100,
vertical.xlsx,The target is tilted.,135,27,3,3,1,1,1,1,1,1,1,1,0,0,0,0,0,7,8,135,space,5.3377537000000075,None,1,1,1.0607001999999284,None,space,1.4090068999998948,None,0,1,1,1,,,,,3,3,27,1,392.2115362999999,,,,,,,,,,,,,,,,,,,,,392.19614839999997,392.2115362999999,392.6952150000001,392.7000806,392.7163758999999,393.77845779999996,,,,,393.77864799999986,393.79405269999995,393.9938982,393.97791330000007,392.7163758999999,,,,,,,,1,1,1.0607001999999284,None,,,,,,,,883,25,M,R,2026-02-25_11h05.29.946,VisualSearch_2526_3,,2025.2.4,2026-02-25 11h05.30.459210 +0100,
vertical.xlsx,The target is tilted.,135,28,4,3,1,1,1,1,1,1,1,1,1,1,1,1,0,11,12,135,space,5.3377537000000075,None,1,1,1.0130409999999301,None,space,1.4090068999998948,None,0,1,1,1,,,,,3,4,28,0,393.9938982,,,,,,,,,,,,,,,,,,,,,393.9786928,393.9938982,394.4775263999999,394.4820753,394.49727139999993,395.5269491,,,,,395.52709070000003,395.5429668999999,395.74315509999985,395.72698819999994,394.49727139999993,,,,,,,,1,1,1.0130409999999301,None,,,,,,,,883,25,M,R,2026-02-25_11h05.29.946,VisualSearch_2526_3,,2025.2.4,2026-02-25 11h05.30.459210 +0100,
vertical.xlsx,The target is tilted.,135,29,5,3,0,1,1,1,1,1,1,1,0,0,0,0,1,7,8,135,space,5.3377537000000075,None,0,1,0.9241085999999541,None,space,1.4090068999998948,None,0,1,1,1,,,,,3,5,29,5,395.74315509999985,,,,,,,,,,,,,,,,,,,,,395.72772069999985,395.74315509999985,396.22678110000004,396.23130019999996,396.24991549999993,397.17704560000004,,,,,397.17727120000006,397.19251569999994,397.3923925999999,397.3761212999999,396.24991549999993,,,,,,,,0,1,0.9241085999999541,None,,,,,,,,883,25,M,R,2026-02-25_11h05.29.946,VisualSearch_2526_3,,2025.2.4,2026-02-25 11h05.30.459210 +0100,
vertical.xlsx,The target is tilted.,135,30,6,3,0,1,1,1,1,1,1,1,1,1,1,1,1,11,12,135,space,5.3377537000000075,None,0,1,1.2996161999999458,None,space,1.4090068999998948,None,0,1,1,1,,,,,3,6,30,4,397.3923925999999,,,,,,,,,,,,,,,,,,,,,397.37694550000003,397.3923925999999,397.8767790999999,397.88195489999987,397.89849319999996,399.2092067,,,,,399.2093776999999,399.22488680000004,399.4248630999999,399.4087673999999,397.89849319999996,,,,,,,,0,1,1.2996161999999458,None,,,,,,,,883,25,M,R,2026-02-25_11h05.29.946,VisualSearch_2526_3,,2025.2.4,2026-02-25 11h05.30.459210 +0100,
vertical.xlsx,The target is tilted.,135,31,7,3,0,0,0,0,0,0,0,0,0,0,0,0,1,1,1,135,space,5.3377537000000075,None,0,1,0.8723362999999154,None,space,1.4090068999998948,None,0,1,1,1,,,,,3,7,31,7,399.4248630999999,,,,,,,,,,,,,,,,,,,,,399.40946759999986,399.4248630999999,399.9085285,399.91300680000006,399.93040140000005,400.80850399999997,,,,,400.80867550000005,400.82408369999996,401.0241235,401.00787019999996,399.93040140000005,,,,,,,,0,1,0.8723362999999154,None,,,,,,,,883,25,M,R,2026-02-25_11h05.29.946,VisualSearch_2526_3,,2025.2.4,2026-02-25 11h05.30.459210 +0100,
vertical.xlsx,The target is tilted.,135,32,0,4,1,1,1,1,1,1,1,1,0,0,0,0,0,7,8,135,space,5.3377537000000075,None,1,1,0.6472238999999718,None,space,1.4090068999998948,None,0,1,1,1,,,,,4,0,32,1,401.0241235,,,,,,,,,,,,,,,,,,,,,401.00869249999994,401.0241235,401.5078175,401.51226570000006,401.52987139999993,402.19128050000006,,,,,402.1914539999999,402.2067673999999,402.4068088999999,402.39065560000006,401.52987139999993,,,,,,,,1,1,0.6472238999999718,None,,,,,,,,883,25,M,R,2026-02-25_11h05.29.946,VisualSearch_2526_3,,2025.2.4,2026-02-25 11h05.30.459210 +0100,
vertical.xlsx,The target is tilted.,135,33,1,4,1,1,1,1,0,0,0,0,0,0,0,0,0,3,4,135,space,5.3377537000000075,None,1,1,0.5933946000000105,None,space,1.4090068999998948,None,0,1,1,1,,,,,4,1,33,2,402.4068088999999,,,,,,,,,,,,,,,,,,,,,402.3913667999999,402.4068088999999,402.89049599999987,402.89489689999994,402.9103752,403.5068895999999,,,,,403.5070494999999,403.52272119999986,403.72277529999985,403.7067254,402.9103752,,,,,,,,1,1,0.5933946000000105,None,,,,,,,,883,25,M,R,2026-02-25_11h05.29.946,VisualSearch_2526_3,,2025.2.4,2026-02-25 11h05.30.459210 +0100,
vertical.xlsx,The target is tilted.,135,34,2,4,0,1,1,1,1,1,1,1,1,1,1,1,1,11,12,135,space,5.3377537000000075,None,0,1,1.461447700000008,None,space,1.4090068999998948,None,0,1,1,1,,,,,4,2,34,4,403.72277529999985,,,,,,,,,,,,,,,,,,,,,403.7074392999999,403.72277529999985,404.20649160000005,404.21095189999994,404.22612259999994,405.68891329999985,,,,,405.68900369999994,405.70508889999985,405.9052513999999,405.88914880000004,404.22612259999994,,,,,,,,0,1,1.461447700000008,None,,,,,,,,883,25,M,R,2026-02-25_11h05.29.946,VisualSearch_2526_3,,2025.2.4,2026-02-25 11h05.30.459210 +0100,
vertical.xlsx,The target is tilted.,135,35,3,4,1,0,0,0,0,0,0,0,0,0,0,0,0,0,1,135,space,5.3377537000000075,None,1,1,1.0250042000000121,None,space,1.4090068999998948,None,0,1,1,1,,,,,4,3,35,3,405.9052513999999,,,,,,,,,,,,,,,,,,,,,405.8898484,405.9052513999999,406.3889447,406.3940646,406.41096159999995,407.4392514,,,,,407.4394495,407.45424749999995,407.6544731,407.6383738999999,406.41096159999995,,,,,,,,1,1,1.0250042000000121,None,,,,,,,,883,25,M,R,2026-02-25_11h05.29.946,VisualSearch_2526_3,,2025.2.4,2026-02-25 11h05.30.459210 +0100,
vertical.xlsx,The target is tilted.,135,36,4,4,1,1,1,1,1,1,1,1,1,1,1,1,0,11,12,135,space,5.3377537000000075,None,1,1,0.9989190999999664,None,space,1.4090068999998948,None,0,1,1,1,,,,,4,4,36,0,407.6544731,,,,,,,,,,,,,,,,,,,,,407.6391353,407.6544731,408.13797349999993,408.1428958,408.15902530000005,409.1712738,,,,,409.17144730000007,409.18691290000004,409.3866755,409.37091410000005,408.15902530000005,,,,,,,,1,1,0.9989190999999664,None,,,,,,,,883,25,M,R,2026-02-25_11h05.29.946,VisualSearch_2526_3,,2025.2.4,2026-02-25 11h05.30.459210 +0100,
vertical.xlsx,The target is tilted.,135,37,5,4,0,1,1,1,0,0,0,0,0,0,0,0,1,3,4,135,space,5.3377537000000075,None,0,1,0.9470135000001392,None,space,1.4090068999998948,None,0,1,1,1,,,,,4,5,37,6,409.3866755,,,,,,,,,,,,,,,,,,,,,409.37161320000007,409.3866755,409.8705784,409.87505010000007,409.88660029999994,410.8370905999999,,,,,410.83728689999987,410.8528052999999,411.05259209999997,411.0368012,409.88660029999994,,,,,,,,0,1,0.9470135000001392,None,,,,,,,,883,25,M,R,2026-02-25_11h05.29.946,VisualSearch_2526_3,,2025.2.4,2026-02-25 11h05.30.459210 +0100,
vertical.xlsx,The target is tilted.,135,38,6,4,0,0,0,0,0,0,0,0,0,0,0,0,1,1,1,135,space,5.3377537000000075,None,0,1,0.524160400000028,None,space,1.4090068999998948,None,0,1,1,1,,,,,4,6,38,7,411.05259209999997,,,,,,,,,,,,,,,,,,,,,411.0375673,411.05259209999997,411.5362036999999,411.54063510000003,411.55242899999996,412.0864266,,,,,412.0866259999999,412.10213179999994,412.30186319999996,412.28637360000005,411.55242899999996,,,,,,,,0,1,0.524160400000028,None,,,,,,,,883,25,M,R,2026-02-25_11h05.29.946,VisualSearch_2526_3,,2025.2.4,2026-02-25 11h05.30.459210 +0100,
