file_name,block_instructions,target_example,thisN,thisTrialN,thisRepN,target_presence,opacity_1,opacity_2,opacity_3,opacity_4,opacity_5,opacity_6,opacity_7,opacity_8,opacity_9,opacity_10,opacity_11,opacity_12,n_distract,n_items,target_ori,key_resp_4.keys,key_resp_4.rt,key_resp_4.duration,key_resp.keys,key_resp.corr,key_resp.rt,key_resp.duration,key_resp_5.keys,key_resp_5.rt,key_resp_5.duration,blocks.thisRepN,blocks.thisTrialN,blocks.thisN,blocks.thisIndex,practice_trials.thisRepN,practice_trials.thisTrialN,practice_trials.thisN,practice_trials.thisIndex,trials.thisRepN,trials.thisTrialN,trials.thisN,trials.thisIndex,thisRow.t,notes,Welcome.started,WelcomeText.started,key_resp_2.started,Welcome.stopped,key_resp_2.keys,key_resp_2.rt,key_resp_2.duration,InformedConsent.started,text_4.started,InformedConsent.stopped,key_resp_6.keys,key_resp_6.rt,key_resp_6.duration,key_resp_4.started,example_target.started,text_3.started,blocks.key_resp_4.keys,blocks.key_resp_4.rt,blocks.key_resp_4.duration,FixCross.started,fixCross.started,FixCross.stopped,Stimulus.started,key_resp.started,Stimulus.stopped,practice_trials.key_resp.keys,practice_trials.key_resp.corr,practice_trials.key_resp.rt,practice_trials.key_resp.duration,BlankScreen.started,text.started,text.stopped,BlankScreen.stopped,fixCross.stopped,ExperimentStart.started,text_2.started,key_resp_5.started,ExperimentStart.stopped,blocks.key_resp_5.keys,blocks.key_resp_5.rt,blocks.key_resp_5.duration,trials.key_resp.keys,trials.key_resp.corr,trials.key_resp.rt,trials.key_resp.duration,Thanks.started,ThankYou.started,key_resp_3.started,Thanks.stopped,key_resp_3.keys,key_resp_3.rt,key_resp_3.duration,participant,leeftijd,gender,links/rechtshandig,date,expName,expVersion,psychopyVersion,expStart,
,,,,,,,,,,,,,,,,,,,,,,,,,,,,,,,,,,,,,,,,,,,,,,0.024395299999923736,0.05323010000006434,0.05323010000006434,49.676013099999864,space,49.60345459999985,None,,,,,,,,,,,,,,,,,,,,,,,,,,,,,,,,,,,,,,,,,,,,,,884,22,V,R,2026-02-25_11h16.17.120,VisualSearch_2526_3,,2025.2.4,2026-02-25 11h16.17.346649 +0100,
,,,,,,,,,,,,,,,,,,,,,,,,,,,,,,,,,,,,,,,,,,,,,,,,,,,,,49.676083699999936,49.68376369999987,52.40057120000006,y,2.7208763000001,None,,,,,,,,,,,,,,,,,,,,,,,,,,,,,,,,,,,,,,,,884,22,V,R,2026-02-25_11h16.17.120,VisualSearch_2526_3,,2025.2.4,2026-02-25 11h16.17.346649 +0100,
tilted.xlsx,The target is tilted.,117,0,0,0,1,1,1,1,1,1,1,1,0,0,0,0,0,7,8,117,space,5.804815400000052,None,1,1,0.9761717999999746,None,,,,0,0,0,0,0,0,0,1,,,,,58.27648129999989,,,,,,,,,,,,,,,52.42763029999992,52.42763029999992,52.42763029999992,space,5.804815400000052,None,58.27137629999993,58.27648129999989,58.763199100000065,58.76785789999985,58.784318400000075,59.76371019999988,1,1,0.9761717999999746,None,59.76394430000005,59.779121499999974,59.97875479999993,59.962771100000055,,,,,,,,,,,,,,,,,,,,884,22,V,R,2026-02-25_11h16.17.120,VisualSearch_2526_3,,2025.2.4,2026-02-25 11h16.17.346649 +0100,
tilted.xlsx,The target is tilted.,117,1,1,0,1,1,1,1,1,1,1,1,1,1,1,1,0,11,12,117,space,5.804815400000052,None,1,1,1.0915712999999414,None,,,,0,0,0,0,0,1,1,0,,,,,59.97875479999993,,,,,,,,,,,,,,,,,,,,,59.96346100000005,59.97875479999993,60.46272699999986,60.46722879999993,60.485374800000045,61.57938790000003,1,1,1.0915712999999414,None,61.57957659999988,61.59490389999996,61.79480599999988,61.778761999999915,60.485374800000045,,,,,,,,,,,,,,,,,,,884,22,V,R,2026-02-25_11h16.17.120,VisualSearch_2526_3,,2025.2.4,2026-02-25 11h16.17.346649 +0100,
tilted.xlsx,The target is tilted.,117,2,2,0,0,1,1,1,0,0,0,0,0,0,0,0,1,3,4,117,space,5.804815400000052,None,0,1,0.9732240999999249,None,,,,0,0,0,0,0,2,2,6,,,,,61.79480599999988,,,,,,,,,,,,,,,,,,,,,61.77944309999998,61.79480599999988,62.278194299999996,62.28270079999993,62.2999949,63.27857319999998,0,1,0.9732240999999249,None,63.27876019999985,63.2935622,63.49404720000007,63.477999199999886,62.2999949,,,,,,,,,,,,,,,,,,,884,22,V,R,2026-02-25_11h16.17.120,VisualSearch_2526_3,,2025.2.4,2026-02-25 11h16.17.346649 +0100,
tilted.xlsx,The target is tilted.,117,3,3,0,0,1,1,1,1,1,1,1,0,0,0,0,1,7,8,117,space,5.804815400000052,None,1,0,0.693624699999873,None,,,,0,0,0,0,0,3,3,5,,,,,63.49404720000007,,,,,,,,,,,,,,,,,,,,,63.47864729999992,63.49404720000007,63.97778119999998,63.98225400000001,63.99752560000002,64.69445289999999,1,0,0.693624699999873,None,64.6946484,64.70968049999988,64.91011879999996,64.89364419999993,63.99752560000002,,,,,,,,,,,,,,,,,,,884,22,V,R,2026-02-25_11h16.17.120,VisualSearch_2526_3,,2025.2.4,2026-02-25 11h16.17.346649 +0100,
tilted.xlsx,The target is tilted.,117,4,4,0,0,1,1,1,1,1,1,1,1,1,1,1,1,11,12,117,space,5.804815400000052,None,1,0,1.2900357999999414,None,,,,0,0,0,0,0,4,4,4,,,,,64.91011879999996,,,,,,,,,,,,,,,,,,,,,64.8943076999999,64.91011879999996,65.3934185999999,65.39796669999987,65.41576699999996,66.70948750000002,1,0,1.2900357999999414,None,66.70963660000007,66.72535130000006,66.92586269999993,66.90975379999986,65.41576699999996,,,,,,,,,,,,,,,,,,,884,22,V,R,2026-02-25_11h16.17.120,VisualSearch_2526_3,,2025.2.4,2026-02-25 11h16.17.346649 +0100,
tilted.xlsx,The target is tilted.,117,5,5,0,1,1,1,1,0,0,0,0,0,0,0,0,0,3,4,117,space,5.804815400000052,None,1,1,1.379930700000159,None,,,,0,0,0,0,0,5,5,2,,,,,66.92586269999993,,,,,,,,,,,,,,,,,,,,,66.91048720000003,66.92586269999993,67.40952739999989,67.41405639999994,67.43076329999985,68.82500630000004,1,1,1.379930700000159,None,68.8251714999999,68.84103849999997,69.04151639999986,69.02526820000003,67.43076329999985,,,,,,,,,,,,,,,,,,,884,22,V,R,2026-02-25_11h16.17.120,VisualSearch_2526_3,,2025.2.4,2026-02-25 11h16.17.346649 +0100,
tilted.xlsx,The target is tilted.,117,6,6,0,0,0,0,0,0,0,0,0,0,0,0,0,1,1,1,117,space,5.804815400000052,None,0,1,0.7068056999999044,None,,,,0,0,0,0,0,6,6,7,,,,,69.04151639999986,,,,,,,,,,,,,,,,,,,,,69.02597909999986,69.04151639999986,69.52483889999985,69.5294151999999,69.54541019999988,70.25873189999993,0,1,0.7068056999999044,None,70.25891819999993,70.27382740000007,70.4740867999999,70.4577867999999,69.54541019999988,,,,,,,,,,,,,,,,,,,884,22,V,R,2026-02-25_11h16.17.120,VisualSearch_2526_3,,2025.2.4,2026-02-25 11h16.17.346649 +0100,
tilted.xlsx,The target is tilted.,117,7,7,0,1,0,0,0,0,0,0,0,0,0,0,0,0,0,1,117,space,5.804815400000052,None,0,0,0.8188052000000425,None,,,,0,0,0,0,0,7,7,3,,,,,70.4740867999999,,,,,,,,,,,,,,,,,,,,,70.45849980000003,70.4740867999999,70.95792340000003,70.96253559999991,70.97927809999987,71.80773109999996,0,0,0.8188052000000425,None,71.80792040000006,71.82304950000002,72.02356179999992,72.00742089999994,70.97927809999987,,,,,,,,,,,,,,,,,,,884,22,V,R,2026-02-25_11h16.17.120,VisualSearch_2526_3,,2025.2.4,2026-02-25 11h16.17.346649 +0100,
tilted.xlsx,The target is tilted.,117,0,0,0,1,0,0,0,0,0,0,0,0,0,0,0,0,0,1,117,space,5.804815400000052,None,1,1,0.6492812000001322,None,space,1.9645135999999184,None,0,0,0,0,,,,,0,0,0,3,74.0225109999999,,,,,,,,,,,,,,,,,,,,,74.0182671,74.0225109999999,74.50593260000005,74.51050020000002,74.52612799999997,75.18925549999994,,,,,75.18945400000007,75.20482029999994,75.4053171999999,75.38904209999987,,72.01421430000005,72.02356179999992,72.02356179999992,73.99014949999992,space,1.9645135999999184,None,1,1,0.6492812000001322,None,,,,,,,,884,22,V,R,2026-02-25_11h16.17.120,VisualSearch_2526_3,,2025.2.4,2026-02-25 11h16.17.346649 +0100,
tilted.xlsx,The target is tilted.,117,1,1,0,0,1,1,1,0,0,0,0,0,0,0,0,1,3,4,117,space,5.804815400000052,None,0,1,1.3622599999998783,None,space,1.9645135999999184,None,0,0,0,0,,,,,0,1,1,6,75.4053171999999,,,,,,,,,,,,,,,,,,,,,75.38980470000001,75.4053171999999,75.88903409999989,75.89358879999986,75.90992340000003,77.28820219999989,,,,,77.28842519999989,77.30377580000004,77.50433900000007,77.48827030000007,75.90992340000003,,,,,,,,0,1,1.3622599999998783,None,,,,,,,,884,22,V,R,2026-02-25_11h16.17.120,VisualSearch_2526_3,,2025.2.4,2026-02-25 11h16.17.346649 +0100,
tilted.xlsx,The target is tilted.,117,2,2,0,0,1,1,1,1,1,1,1,1,1,1,1,1,11,12,117,space,5.804815400000052,None,0,1,3.2621257999999216,None,space,1.9645135999999184,None,0,0,0,0,,,,,0,2,2,4,77.50433900000007,,,,,,,,,,,,,,,,,,,,,77.4889862,77.50433900000007,77.98787579999998,77.99249880000002,78.00904689999993,81.28631659999996,,,,,81.28651859999991,81.30202629999985,81.50257889999989,81.48592510000003,78.00904689999993,,,,,,,,0,1,3.2621257999999216,None,,,,,,,,884,22,V,R,2026-02-25_11h16.17.120,VisualSearch_2526_3,,2025.2.4,2026-02-25 11h16.17.346649 +0100,
tilted.xlsx,The target is tilted.,117,3,3,0,1,1,1,1,1,1,1,1,1,1,1,1,0,11,12,117,space,5.804815400000052,None,1,1,3.8018475999999737,None,space,1.9645135999999184,None,0,0,0,0,,,,,0,3,3,0,81.50257889999989,,,,,,,,,,,,,,,,,,,,,81.48664499999995,81.50257889999989,81.98621249999997,81.99076409999998,82.00642429999994,85.81732850000003,,,,,85.81745180000007,85.83328189999997,86.03367649999996,86.01771140000005,82.00642429999994,,,,,,,,1,1,3.8018475999999737,None,,,,,,,,884,22,V,R,2026-02-25_11h16.17.120,VisualSearch_2526_3,,2025.2.4,2026-02-25 11h16.17.346649 +0100,
tilted.xlsx,The target is tilted.,117,4,4,0,1,1,1,1,1,1,1,1,0,0,0,0,0,7,8,117,space,5.804815400000052,None,1,1,0.7058196000000407,None,space,1.9645135999999184,None,0,0,0,0,,,,,0,4,4,1,86.03367649999996,,,,,,,,,,,,,,,,,,,,,86.01842160000001,86.03367649999996,86.51753329999997,86.52204059999985,86.53974749999998,87.25094079999985,,,,,87.25113770000007,87.26599390000001,87.46648290000007,87.45043450000003,86.53974749999998,,,,,,,,1,1,0.7058196000000407,None,,,,,,,,884,22,V,R,2026-02-25_11h16.17.120,VisualSearch_2526_3,,2025.2.4,2026-02-25 11h16.17.346649 +0100,
tilted.xlsx,The target is tilted.,117,5,5,0,0,1,1,1,1,1,1,1,0,0,0,0,1,7,8,117,space,5.804815400000052,None,0,1,2.411322299999938,None,space,1.9645135999999184,None,0,0,0,0,,,,,0,5,5,5,87.46648290000007,,,,,,,,,,,,,,,,,,,,,87.45114480000007,87.46648290000007,87.95021109999993,87.9547121999999,87.96864540000001,90.38218030000007,,,,,90.38227469999993,90.39776600000005,90.59792870000001,90.58230509999999,87.96864540000001,,,,,,,,0,1,2.411322299999938,None,,,,,,,,884,22,V,R,2026-02-25_11h16.17.120,VisualSearch_2526_3,,2025.2.4,2026-02-25 11h16.17.346649 +0100,
tilted.xlsx,The target is tilted.,117,6,6,0,0,0,0,0,0,0,0,0,0,0,0,0,1,1,1,117,space,5.804815400000052,None,0,1,0.852265799999941,None,space,1.9645135999999184,None,0,0,0,0,,,,,0,6,6,7,90.59792870000001,,,,,,,,,,,,,,,,,,,,,90.58304169999997,90.59792870000001,91.08164089999991,91.0862732999999,91.10327400000006,91.96546420000004,,,,,91.96566189999999,91.98049689999993,92.18055959999992,92.16454049999993,91.10327400000006,,,,,,,,0,1,0.852265799999941,None,,,,,,,,884,22,V,R,2026-02-25_11h16.17.120,VisualSearch_2526_3,,2025.2.4,2026-02-25 11h16.17.346649 +0100,
tilted.xlsx,The target is tilted.,117,7,7,0,1,1,1,1,0,0,0,0,0,0,0,0,0,3,4,117,space,5.804815400000052,None,1,1,0.7431647999999313,None,space,1.9645135999999184,None,0,0,0,0,,,,,0,7,7,2,92.18055959999992,,,,,,,,,,,,,,,,,,,,,92.16525539999998,92.18055959999992,92.6641224,92.66883519999988,92.68064690000006,93.43133020000005,,,,,93.43150930000002,93.44651879999992,93.6469932,93.63092729999994,92.68064690000006,,,,,,,,1,1,0.7431647999999313,None,,,,,,,,884,22,V,R,2026-02-25_11h16.17.120,VisualSearch_2526_3,,2025.2.4,2026-02-25 11h16.17.346649 +0100,
tilted.xlsx,The target is tilted.,117,8,0,1,0,1,1,1,1,1,1,1,1,1,1,1,1,11,12,117,space,5.804815400000052,None,0,1,3.086745399999927,None,space,1.9645135999999184,None,0,0,0,0,,,,,1,0,8,4,93.6469932,,,,,,,,,,,,,,,,,,,,,93.63164019999999,93.6469932,94.13032580000004,94.13486469999998,94.15094410000006,97.24647600000003,,,,,97.24668750000001,97.26154339999994,97.46200240000007,97.44585069999994,94.15094410000006,,,,,,,,0,1,3.086745399999927,None,,,,,,,,884,22,V,R,2026-02-25_11h16.17.120,VisualSearch_2526_3,,2025.2.4,2026-02-25 11h16.17.346649 +0100,
tilted.xlsx,The target is tilted.,117,9,1,1,1,1,1,1,0,0,0,0,0,0,0,0,0,3,4,117,space,5.804815400000052,None,1,1,0.9386594000000059,None,space,1.9645135999999184,None,0,0,0,0,,,,,1,1,9,2,97.46200240000007,,,,,,,,,,,,,,,,,,,,,97.44666740000002,97.46200240000007,97.9455751999999,97.95005029999993,97.96674250000001,98.91184399999997,,,,,98.91204470000002,98.92740920000006,99.1279422,99.11170489999995,97.96674250000001,,,,,,,,1,1,0.9386594000000059,None,,,,,,,,884,22,V,R,2026-02-25_11h16.17.120,VisualSearch_2526_3,,2025.2.4,2026-02-25 11h16.17.346649 +0100,
tilted.xlsx,The target is tilted.,117,10,2,1,1,1,1,1,1,1,1,1,0,0,0,0,0,7,8,117,space,5.804815400000052,None,1,1,1.2695209000000887,None,space,1.9645135999999184,None,0,0,0,0,,,,,1,2,10,1,99.1279422,,,,,,,,,,,,,,,,,,,,,99.1124327,99.1279422,99.61113759999989,99.61574159999986,99.62743780000005,100.91069429999993,,,,,100.91089569999986,100.92638319999992,101.12695729999996,101.11045239999999,99.62743780000005,,,,,,,,1,1,1.2695209000000887,None,,,,,,,,884,22,V,R,2026-02-25_11h16.17.120,VisualSearch_2526_3,,2025.2.4,2026-02-25 11h16.17.346649 +0100,
tilted.xlsx,The target is tilted.,117,11,3,1,0,1,1,1,1,1,1,1,0,0,0,0,1,7,8,117,space,5.804815400000052,None,1,0,3.6831586999999217,None,space,1.9645135999999184,None,0,0,0,0,,,,,1,3,11,5,101.12695729999996,,,,,,,,,,,,,,,,,,,,,101.11118209999995,101.12695729999996,101.61068309999996,101.6152709999999,101.63179979999995,105.32584739999993,,,,,105.32604930000002,105.3411403,105.5414303,105.52504969999995,101.63179979999995,,,,,,,,1,0,3.6831586999999217,None,,,,,,,,884,22,V,R,2026-02-25_11h16.17.120,VisualSearch_2526_3,,2025.2.4,2026-02-25 11h16.17.346649 +0100,
tilted.xlsx,The target is tilted.,117,12,4,1,1,1,1,1,1,1,1,1,1,1,1,1,0,11,12,117,space,5.804815400000052,None,1,1,0.5837652000000162,None,space,1.9645135999999184,None,0,0,0,0,,,,,1,4,12,0,105.5414303,,,,,,,,,,,,,,,,,,,,,105.52565000000004,105.5414303,106.02457099999992,106.02921859999992,106.04630240000006,106.6421676,,,,,106.64236989999995,106.65716789999988,106.85738990000004,106.8416729999999,106.04630240000006,,,,,,,,1,1,0.5837652000000162,None,,,,,,,,884,22,V,R,2026-02-25_11h16.17.120,VisualSearch_2526_3,,2025.2.4,2026-02-25 11h16.17.346649 +0100,
tilted.xlsx,The target is tilted.,117,13,5,1,1,0,0,0,0,0,0,0,0,0,0,0,0,0,1,117,space,5.804815400000052,None,1,1,0.5362115000000358,None,space,1.9645135999999184,None,0,0,0,0,,,,,1,5,13,3,106.85738990000004,,,,,,,,,,,,,,,,,,,,,106.84241249999991,106.85738990000004,107.34155379999993,107.3465475999999,107.36330769999995,107.90813619999994,,,,,107.90831809999986,107.92330429999993,108.12361409999994,108.10764769999992,107.36330769999995,,,,,,,,1,1,0.5362115000000358,None,,,,,,,,884,22,V,R,2026-02-25_11h16.17.120,VisualSearch_2526_3,,2025.2.4,2026-02-25 11h16.17.346649 +0100,
tilted.xlsx,The target is tilted.,117,14,6,1,0,0,0,0,0,0,0,0,0,0,0,0,1,1,1,117,space,5.804815400000052,None,0,1,0.5636853000000883,None,space,1.9645135999999184,None,0,0,0,0,,,,,1,6,14,7,108.12361409999994,,,,,,,,,,,,,,,,,,,,,108.10835700000007,108.12361409999994,108.60703719999992,108.61182759999997,108.62309119999986,109.19074150000006,,,,,109.19093909999992,109.20604049999997,109.40651890000004,109.39052620000007,108.62309119999986,,,,,,,,0,1,0.5636853000000883,None,,,,,,,,884,22,V,R,2026-02-25_11h16.17.120,VisualSearch_2526_3,,2025.2.4,2026-02-25 11h16.17.346649 +0100,
tilted.xlsx,The target is tilted.,117,15,7,1,0,1,1,1,0,0,0,0,0,0,0,0,1,3,4,117,space,5.804815400000052,None,0,1,1.3990077000000838,None,space,1.9645135999999184,None,0,0,0,0,,,,,1,7,15,6,109.40651890000004,,,,,,,,,,,,,,,,,,,,,109.39135850000002,109.40651890000004,109.89018999999985,109.89468620000002,109.91006990000005,111.3228681999999,,,,,111.32307190000006,111.33814059999986,111.53888280000001,111.52277009999989,109.91006990000005,,,,,,,,0,1,1.3990077000000838,None,,,,,,,,884,22,V,R,2026-02-25_11h16.17.120,VisualSearch_2526_3,,2025.2.4,2026-02-25 11h16.17.346649 +0100,
tilted.xlsx,The target is tilted.,117,16,0,2,1,0,0,0,0,0,0,0,0,0,0,0,0,0,1,117,space,5.804815400000052,None,1,1,0.4681465000001026,None,space,1.9645135999999184,None,0,0,0,0,,,,,2,0,16,3,111.53888280000001,,,,,,,,,,,,,,,,,,,,,111.52347910000003,111.53888280000001,112.02258110000002,112.02719279999997,112.04335509999987,112.52281270000003,,,,,112.52301199999988,112.53784870000004,112.73841270000003,112.7222468,112.04335509999987,,,,,,,,1,1,0.4681465000001026,None,,,,,,,,884,22,V,R,2026-02-25_11h16.17.120,VisualSearch_2526_3,,2025.2.4,2026-02-25 11h16.17.346649 +0100,
tilted.xlsx,The target is tilted.,117,17,1,2,0,1,1,1,1,1,1,1,1,1,1,1,1,11,12,117,space,5.804815400000052,None,1,0,2.7618587000001753,None,space,1.9645135999999184,None,0,0,0,0,,,,,2,1,17,4,112.73841270000003,,,,,,,,,,,,,,,,,,,,,112.72296030000007,112.73841270000003,113.22201189999987,113.22659299999987,113.24304289999986,116.02051979999987,,,,,116.02071290000004,116.0362318,116.23675170000001,116.22056299999986,113.24304289999986,,,,,,,,1,0,2.7618587000001753,None,,,,,,,,884,22,V,R,2026-02-25_11h16.17.120,VisualSearch_2526_3,,2025.2.4,2026-02-25 11h16.17.346649 +0100,
tilted.xlsx,The target is tilted.,117,18,2,2,0,0,0,0,0,0,0,0,0,0,0,0,1,1,1,117,space,5.804815400000052,None,0,1,1.5573068999999577,None,space,1.9645135999999184,None,0,0,0,0,,,,,2,2,18,7,116.23675170000001,,,,,,,,,,,,,,,,,,,,,116.22127290000003,116.23675170000001,116.7202322999999,116.72474229999989,116.74175249999985,118.30300629999988,,,,,118.30321179999987,118.31853539999997,118.51905740000007,118.5028084999999,116.74175249999985,,,,,,,,0,1,1.5573068999999577,None,,,,,,,,884,22,V,R,2026-02-25_11h16.17.120,VisualSearch_2526_3,,2025.2.4,2026-02-25 11h16.17.346649 +0100,
tilted.xlsx,The target is tilted.,117,19,3,2,1,1,1,1,1,1,1,1,0,0,0,0,0,7,8,117,space,5.804815400000052,None,1,1,1.1932905000001028,None,space,1.9645135999999184,None,0,0,0,0,,,,,2,3,19,1,118.51905740000007,,,,,,,,,,,,,,,,,,,,,118.50356829999987,118.51905740000007,119.00252939999996,119.00700030000007,119.02329069999996,120.21927370000003,,,,,120.21941309999988,120.23433449999993,120.43478699999991,120.41822449999995,119.02329069999996,,,,,,,,1,1,1.1932905000001028,None,,,,,,,,884,22,V,R,2026-02-25_11h16.17.120,VisualSearch_2526_3,,2025.2.4,2026-02-25 11h16.17.346649 +0100,
tilted.xlsx,The target is tilted.,117,20,4,2,0,1,1,1,0,0,0,0,0,0,0,0,1,3,4,117,space,5.804815400000052,None,0,1,0.6602778000001308,None,space,1.9645135999999184,None,0,0,0,0,,,,,2,4,20,6,120.43478699999991,,,,,,,,,,,,,,,,,,,,,120.41896780000002,120.43478699999991,120.91863390000003,120.92364040000007,120.93437169999993,121.60198850000006,,,,,121.60218680000003,121.61703769999986,121.81734129999995,121.8011876999999,120.93437169999993,,,,,,,,0,1,0.6602778000001308,None,,,,,,,,884,22,V,R,2026-02-25_11h16.17.120,VisualSearch_2526_3,,2025.2.4,2026-02-25 11h16.17.346649 +0100,
tilted.xlsx,The target is tilted.,117,21,5,2,1,1,1,1,0,0,0,0,0,0,0,0,0,3,4,117,space,5.804815400000052,None,0,0,0.852607899999839,None,space,1.9645135999999184,None,0,0,0,0,,,,,2,5,21,2,121.81734129999995,,,,,,,,,,,,,,,,,,,,,121.80192769999985,121.81734129999995,122.30061580000006,122.30508570000006,122.31872569999996,123.18408599999998,,,,,123.18428599999993,123.19960070000002,123.40017420000004,123.38363520000007,122.31872569999996,,,,,,,,0,0,0.852607899999839,None,,,,,,,,884,22,V,R,2026-02-25_11h16.17.120,VisualSearch_2526_3,,2025.2.4,2026-02-25 11h16.17.346649 +0100,
tilted.xlsx,The target is tilted.,117,22,6,2,1,1,1,1,1,1,1,1,1,1,1,1,0,11,12,117,space,5.804815400000052,None,1,1,1.5944306999999753,None,space,1.9645135999999184,None,0,0,0,0,,,,,2,6,22,0,123.40017420000004,,,,,,,,,,,,,,,,,,,,,123.3843758999999,123.40017420000004,123.88344219999999,123.88800519999995,123.90447719999997,125.51628549999987,,,,,125.51652119999994,125.53188120000004,125.7319453,125.71641629999999,123.90447719999997,,,,,,,,1,1,1.5944306999999753,None,,,,,,,,884,22,V,R,2026-02-25_11h16.17.120,VisualSearch_2526_3,,2025.2.4,2026-02-25 11h16.17.346649 +0100,
tilted.xlsx,The target is tilted.,117,23,7,2,0,1,1,1,1,1,1,1,0,0,0,0,1,7,8,117,space,5.804815400000052,None,0,1,1.8682756000000609,None,space,1.9645135999999184,None,0,0,0,0,,,,,2,7,23,5,125.7319453,,,,,,,,,,,,,,,,,,,,,125.71716190000006,125.7319453,126.21537760000001,126.21958589999986,126.23499560000005,128.11570959999995,,,,,128.1159103,128.1307878,128.33122019999996,128.31516599999986,126.23499560000005,,,,,,,,0,1,1.8682756000000609,None,,,,,,,,884,22,V,R,2026-02-25_11h16.17.120,VisualSearch_2526_3,,2025.2.4,2026-02-25 11h16.17.346649 +0100,
tilted.xlsx,The target is tilted.,117,24,0,3,1,1,1,1,1,1,1,1,1,1,1,1,0,11,12,117,space,5.804815400000052,None,1,1,2.5977509000001646,None,space,1.9645135999999184,None,0,0,0,0,,,,,3,0,24,0,128.33122019999996,,,,,,,,,,,,,,,,,,,,,128.31607359999998,128.33122019999996,128.8147704999999,128.81937440000002,128.83639700000003,131.44706939999992,,,,,131.44727080000007,131.4625527999999,131.66284829999995,131.64693429999988,128.83639700000003,,,,,,,,1,1,2.5977509000001646,None,,,,,,,,884,22,V,R,2026-02-25_11h16.17.120,VisualSearch_2526_3,,2025.2.4,2026-02-25 11h16.17.346649 +0100,
tilted.xlsx,The target is tilted.,117,25,1,3,0,0,0,0,0,0,0,0,0,0,0,0,1,1,1,117,space,5.804815400000052,None,0,1,0.9221557000000757,None,space,1.9645135999999184,None,0,0,0,0,,,,,3,1,25,7,131.66284829999995,,,,,,,,,,,,,,,,,,,,,131.64769539999998,131.66284829999995,132.14630209999996,132.15095810000003,132.1672739999999,133.09671559999992,,,,,133.09691900000007,133.1117953999999,133.31211170000006,133.29603440000005,132.1672739999999,,,,,,,,0,1,0.9221557000000757,None,,,,,,,,884,22,V,R,2026-02-25_11h16.17.120,VisualSearch_2526_3,,2025.2.4,2026-02-25 11h16.17.346649 +0100,
tilted.xlsx,The target is tilted.,117,26,2,3,0,1,1,1,0,0,0,0,0,0,0,0,1,3,4,117,space,5.804815400000052,None,0,1,1.2907904999999573,None,space,1.9645135999999184,None,0,0,0,0,,,,,3,2,26,6,133.31211170000006,,,,,,,,,,,,,,,,,,,,,133.29680359999998,133.31211170000006,133.7958913,133.80038590000004,133.81460019999986,135.11230299999988,,,,,135.11248369999998,135.12756519999994,135.3277046999999,135.3119382,133.81460019999986,,,,,,,,0,1,1.2907904999999573,None,,,,,,,,884,22,V,R,2026-02-25_11h16.17.120,VisualSearch_2526_3,,2025.2.4,2026-02-25 11h16.17.346649 +0100,
tilted.xlsx,The target is tilted.,117,27,3,3,0,1,1,1,1,1,1,1,1,1,1,1,1,11,12,117,space,5.804815400000052,None,0,1,3.805866199999855,None,space,1.9645135999999184,None,0,0,0,0,,,,,3,3,27,4,135.3277046999999,,,,,,,,,,,,,,,,,,,,,135.3126517999999,135.3277046999999,135.81153210000002,135.81611199999998,135.83306089999996,139.64348339999992,,,,,139.64369209999995,139.65887769999995,139.8593871999999,139.84302359999992,135.83306089999996,,,,,,,,0,1,3.805866199999855,None,,,,,,,,884,22,V,R,2026-02-25_11h16.17.120,VisualSearch_2526_3,,2025.2.4,2026-02-25 11h16.17.346649 +0100,
tilted.xlsx,The target is tilted.,117,28,4,3,0,1,1,1,1,1,1,1,0,0,0,0,1,7,8,117,space,5.804815400000052,None,0,1,2.456197700000075,None,space,1.9645135999999184,None,0,0,0,0,,,,,3,4,28,5,139.8593871999999,,,,,,,,,,,,,,,,,,,,,139.84386040000004,139.8593871999999,140.34320449999996,140.34787260000007,140.36615779999988,142.82531159999985,,,,,142.82545579999987,142.8407534999999,143.0411896999999,143.02497519999997,140.36615779999988,,,,,,,,0,1,2.456197700000075,None,,,,,,,,884,22,V,R,2026-02-25_11h16.17.120,VisualSearch_2526_3,,2025.2.4,2026-02-25 11h16.17.346649 +0100,
tilted.xlsx,The target is tilted.,117,29,5,3,1,0,0,0,0,0,0,0,0,0,0,0,0,0,1,117,space,5.804815400000052,None,1,1,0.5817734999998265,None,space,1.9645135999999184,None,0,0,0,0,,,,,3,5,29,3,143.0411896999999,,,,,,,,,,,,,,,,,,,,,143.0257317999999,143.0411896999999,143.5248428,143.52943119999986,143.54466359999992,144.14096900000004,,,,,144.1411470999999,144.15670009999985,144.3572569999999,144.3411013,143.54466359999992,,,,,,,,1,1,0.5817734999998265,None,,,,,,,,884,22,V,R,2026-02-25_11h16.17.120,VisualSearch_2526_3,,2025.2.4,2026-02-25 11h16.17.346649 +0100,
tilted.xlsx,The target is tilted.,117,30,6,3,1,1,1,1,1,1,1,1,0,0,0,0,0,7,8,117,space,5.804815400000052,None,1,1,0.971119999999928,None,space,1.9645135999999184,None,0,0,0,0,,,,,3,6,30,1,144.3572569999999,,,,,,,,,,,,,,,,,,,,,144.34181809999995,144.3572569999999,144.8409655999999,144.84554819999994,144.86332100000004,145.83987479999996,,,,,145.83999870000002,145.8559161999999,,146.04016679999995,144.86332100000004,,,,,,,,1,1,0.971119999999928,None,,,,,,,,884,22,V,R,2026-02-25_11h16.17.120,VisualSearch_2526_3,,2025.2.4,2026-02-25 11h16.17.346649 +0100,
tilted.xlsx,The target is tilted.,117,31,7,3,1,1,1,1,0,0,0,0,0,0,0,0,0,3,4,117,space,5.804815400000052,None,0,0,0.8527826000001824,None,space,1.9645135999999184,None,0,0,0,0,,,,,3,7,31,2,146.05624289999992,,,,,,,,,,,,,,,,,,,,,146.04093339999986,146.05624289999992,146.53977609999993,146.54436140000007,146.56213060000005,147.42352099999994,,,,,147.4237031,147.43864289999988,147.6390816999999,147.62249180000003,146.56213060000005,,,,,,,,0,0,0.8527826000001824,None,,,,,,,,884,22,V,R,2026-02-25_11h16.17.120,VisualSearch_2526_3,,2025.2.4,2026-02-25 11h16.17.346649 +0100,
tilted.xlsx,The target is tilted.,117,32,0,4,0,1,1,1,0,0,0,0,0,0,0,0,1,3,4,117,space,5.804815400000052,None,0,1,0.9807158000000982,None,space,1.9645135999999184,None,0,0,0,0,,,,,4,0,32,6,147.6390816999999,,,,,,,,,,,,,,,,,,,,,147.62323549999996,147.6390816999999,148.12279390000003,148.12732230000006,148.1427948999999,149.13833369999998,,,,,149.1384762,149.15491159999988,,149.33863819999988,148.1427948999999,,,,,,,,0,1,0.9807158000000982,None,,,,,,,,884,22,V,R,2026-02-25_11h16.17.120,VisualSearch_2526_3,,2025.2.4,2026-02-25 11h16.17.346649 +0100,
tilted.xlsx,The target is tilted.,117,33,1,4,0,1,1,1,1,1,1,1,0,0,0,0,1,7,8,117,space,5.804815400000052,None,0,1,2.8067387999999482,None,space,1.9645135999999184,None,0,0,0,0,,,,,4,1,33,5,149.35498510000002,,,,,,,,,,,,,,,,,,,,,149.33941140000002,149.35498510000002,149.8383612,149.84291310000003,149.85919519999993,152.67177379999998,,,,,152.67197929999998,152.68624879999993,152.88673229999995,152.87063609999996,149.85919519999993,,,,,,,,0,1,2.8067387999999482,None,,,,,,,,884,22,V,R,2026-02-25_11h16.17.120,VisualSearch_2526_3,,2025.2.4,2026-02-25 11h16.17.346649 +0100,
tilted.xlsx,The target is tilted.,117,34,2,4,1,1,1,1,1,1,1,1,1,1,1,1,0,11,12,117,space,5.804815400000052,None,0,0,3.004172599999947,None,space,1.9645135999999184,None,0,0,0,0,,,,,4,2,34,0,152.88673229999995,,,,,,,,,,,,,,,,,,,,,152.87135209999997,152.88673229999995,153.37036749999993,153.3748450999999,153.3919722999999,156.40287450000005,,,,,156.40307929999994,156.4175983,156.61810549999996,156.6020335999999,153.3919722999999,,,,,,,,0,0,3.004172599999947,None,,,,,,,,884,22,V,R,2026-02-25_11h16.17.120,VisualSearch_2526_3,,2025.2.4,2026-02-25 11h16.17.346649 +0100,
tilted.xlsx,The target is tilted.,117,35,3,4,0,1,1,1,1,1,1,1,1,1,1,1,1,11,12,117,space,5.804815400000052,None,1,0,0.826192600000013,None,space,1.9645135999999184,None,0,0,0,0,,,,,4,3,35,4,156.61810549999996,,,,,,,,,,,,,,,,,,,,,156.60280639999996,156.61810549999996,157.1020317,157.10664229999998,157.1231883999999,157.95222639999997,,,,,157.95246150000003,157.96725679999986,158.16769479999994,158.15161609999996,157.1231883999999,,,,,,,,1,0,0.826192600000013,None,,,,,,,,884,22,V,R,2026-02-25_11h16.17.120,VisualSearch_2526_3,,2025.2.4,2026-02-25 11h16.17.346649 +0100,
tilted.xlsx,The target is tilted.,117,36,4,4,1,1,1,1,1,1,1,1,0,0,0,0,0,7,8,117,space,5.804815400000052,None,1,1,0.7106534999998075,None,space,1.9645135999999184,None,0,0,0,0,,,,,4,4,36,1,158.16769479999994,,,,,,,,,,,,,,,,,,,,,158.1523654,158.16769479999994,158.65135229999987,158.65584149999995,158.67227609999986,159.3845515999999,,,,,159.38474969999993,159.39985580000007,159.60033299999986,159.58403470000007,158.67227609999986,,,,,,,,1,1,0.7106534999998075,None,,,,,,,,884,22,V,R,2026-02-25_11h16.17.120,VisualSearch_2526_3,,2025.2.4,2026-02-25 11h16.17.346649 +0100,
tilted.xlsx,The target is tilted.,117,37,5,4,1,1,1,1,0,0,0,0,0,0,0,0,0,3,4,117,space,5.804815400000052,None,0,0,1.0526139000000967,None,space,1.9645135999999184,None,0,0,0,0,,,,,4,5,37,2,159.60033299999986,,,,,,,,,,,,,,,,,,,,,159.58476859999996,159.60033299999986,160.08399059999988,160.08858629999986,160.10637659999998,161.16712959999995,,,,,161.16733090000002,161.18234549999988,161.38285919999998,161.36668510000004,160.10637659999998,,,,,,,,0,0,1.0526139000000967,None,,,,,,,,884,22,V,R,2026-02-25_11h16.17.120,VisualSearch_2526_3,,2025.2.4,2026-02-25 11h16.17.346649 +0100,
tilted.xlsx,The target is tilted.,117,38,6,4,0,0,0,0,0,0,0,0,0,0,0,0,1,1,1,117,space,5.804815400000052,None,0,1,0.8916822000001048,None,space,1.9645135999999184,None,0,0,0,0,,,,,4,6,38,7,161.38285919999998,,,,,,,,,,,,,,,,,,,,,161.36739239999997,161.38285919999998,161.8665105,161.87100429999987,161.88806539999996,162.7830953,,,,,162.7833361999999,162.7983291999999,162.99888629999987,162.9826877999999,161.88806539999996,,,,,,,,0,1,0.8916822000001048,None,,,,,,,,884,22,V,R,2026-02-25_11h16.17.120,VisualSearch_2526_3,,2025.2.4,2026-02-25 11h16.17.346649 +0100,
tilted.xlsx,The target is tilted.,117,39,7,4,1,0,0,0,0,0,0,0,0,0,0,0,0,0,1,117,space,5.804815400000052,None,1,1,0.55139209999993,None,space,1.9645135999999184,None,0,0,0,0,,,,,4,7,39,3,162.99888629999987,,,,,,,,,,,,,,,,,,,,,162.98339659999988,162.99888629999987,163.48244899999986,163.48693329999992,163.50394789999996,164.0660281999999,,,,,164.06622760000005,164.08101310000006,164.28150400000004,164.26536650000003,163.50394789999996,,,,,,,,1,1,0.55139209999993,None,,,,,,,,884,22,V,R,2026-02-25_11h16.17.120,VisualSearch_2526_3,,2025.2.4,2026-02-25 11h16.17.346649 +0100,
tilted.xlsx,The target is tilted.,117,40,0,5,0,1,1,1,1,1,1,1,0,0,0,0,1,7,8,117,space,5.804815400000052,None,1,0,0.9950985000000401,None,space,1.9645135999999184,None,0,0,0,0,,,,,5,0,40,5,164.28150400000004,,,,,,,,,,,,,,,,,,,,,164.26609970000004,164.28150400000004,164.76484019999998,164.76940079999986,164.78538179999987,165.78201379999996,,,,,165.78223639999987,165.79692210000007,165.99743569999987,165.98133719999987,164.78538179999987,,,,,,,,1,0,0.9950985000000401,None,,,,,,,,884,22,V,R,2026-02-25_11h16.17.120,VisualSearch_2526_3,,2025.2.4,2026-02-25 11h16.17.346649 +0100,
tilted.xlsx,The target is tilted.,117,41,1,5,1,0,0,0,0,0,0,0,0,0,0,0,0,0,1,117,space,5.804815400000052,None,1,1,0.5168383999998696,None,space,1.9645135999999184,None,0,0,0,0,,,,,5,1,41,3,165.99743569999987,,,,,,,,,,,,,,,,,,,,,165.98204669999996,165.99743569999987,166.48091150000005,166.48541490000002,166.50227989999985,167.0313283999999,,,,,167.03155079999988,167.04636600000003,167.24660999999992,167.23111199999994,166.50227989999985,,,,,,,,1,1,0.5168383999998696,None,,,,,,,,884,22,V,R,2026-02-25_11h16.17.120,VisualSearch_2526_3,,2025.2.4,2026-02-25 11h16.17.346649 +0100,
tilted.xlsx,The target is tilted.,117,42,2,5,0,1,1,1,0,0,0,0,0,0,0,0,1,3,4,117,space,5.804815400000052,None,0,1,1.1161093999999139,None,space,1.9645135999999184,None,0,0,0,0,,,,,5,2,42,6,167.24660999999992,,,,,,,,,,,,,,,,,,,,,167.23196319999988,167.24660999999992,167.73051599999985,167.73513619999994,167.7522151999999,168.88052059999995,,,,,168.88072650000004,168.8956358999999,169.0960181999999,169.07989799999996,167.7522151999999,,,,,,,,0,1,1.1161093999999139,None,,,,,,,,884,22,V,R,2026-02-25_11h16.17.120,VisualSearch_2526_3,,2025.2.4,2026-02-25 11h16.17.346649 +0100,
tilted.xlsx,The target is tilted.,117,43,3,5,0,1,1,1,1,1,1,1,1,1,1,1,1,11,12,117,space,5.804815400000052,None,0,1,2.1159772000000885,None,space,1.9645135999999184,None,0,0,0,0,,,,,5,3,43,4,169.0960181999999,,,,,,,,,,,,,,,,,,,,,169.08061410000005,169.0960181999999,169.5795768999999,169.58407999999986,169.6005181999999,171.72890830000006,,,,,171.72910939999997,171.74426210000001,171.94467459999987,171.92840929999988,169.6005181999999,,,,,,,,0,1,2.1159772000000885,None,,,,,,,,884,22,V,R,2026-02-25_11h16.17.120,VisualSearch_2526_3,,2025.2.4,2026-02-25 11h16.17.346649 +0100,
tilted.xlsx,The target is tilted.,117,44,4,5,0,0,0,0,0,0,0,0,0,0,0,0,1,1,1,117,space,5.804815400000052,None,0,1,0.9246411000001444,None,space,1.9645135999999184,None,0,0,0,0,,,,,5,4,44,7,171.94467459999987,,,,,,,,,,,,,,,,,,,,,171.92914599999995,171.94467459999987,172.4283820999999,172.43293289999997,172.4498592,173.37814379999986,,,,,173.37834210000005,173.3935374,173.59390759999997,173.57786710000005,172.4498592,,,,,,,,0,1,0.9246411000001444,None,,,,,,,,884,22,V,R,2026-02-25_11h16.17.120,VisualSearch_2526_3,,2025.2.4,2026-02-25 11h16.17.346649 +0100,
tilted.xlsx,The target is tilted.,117,45,5,5,1,1,1,1,1,1,1,1,0,0,0,0,0,7,8,117,space,5.804815400000052,None,1,1,1.8469714999998814,None,space,1.9645135999999184,None,0,0,0,0,,,,,5,5,45,1,173.59390759999997,,,,,,,,,,,,,,,,,,,,,173.57856919999995,173.59390759999997,174.07763479999994,174.0826909,174.09759439999993,175.95993899999985,,,,,175.96013760000005,175.97563650000006,176.17596209999988,176.16005559999985,174.09759439999993,,,,,,,,1,1,1.8469714999998814,None,,,,,,,,884,22,V,R,2026-02-25_11h16.17.120,VisualSearch_2526_3,,2025.2.4,2026-02-25 11h16.17.346649 +0100,
tilted.xlsx,The target is tilted.,117,46,6,5,1,1,1,1,0,0,0,0,0,0,0,0,0,3,4,117,space,5.804815400000052,None,1,1,1.117095000000063,None,space,1.9645135999999184,None,0,0,0,0,,,,,5,6,46,2,176.17596209999988,,,,,,,,,,,,,,,,,,,,,176.16076539999995,176.17596209999988,176.6598277999999,176.66433499999994,176.6811679,177.80977689999986,,,,,177.80997869999987,177.8247801,178.02485239999987,178.0086346999999,176.6811679,,,,,,,,1,1,1.117095000000063,None,,,,,,,,884,22,V,R,2026-02-25_11h16.17.120,VisualSearch_2526_3,,2025.2.4,2026-02-25 11h16.17.346649 +0100,
tilted.xlsx,The target is tilted.,117,47,7,5,1,1,1,1,1,1,1,1,1,1,1,1,0,11,12,117,space,5.804815400000052,None,1,1,2.4505896000000575,None,space,1.9645135999999184,None,0,0,0,0,,,,,5,7,47,0,178.02485239999987,,,,,,,,,,,,,,,,,,,,,178.0093738999999,178.02485239999987,178.50913590000005,178.51402529999996,178.52870759999996,180.99150959999997,,,,,180.99169200000006,181.0067254999999,181.2067689999999,181.1910476999999,178.52870759999996,,,,,,,,1,1,2.4505896000000575,None,,,,,,,,884,22,V,R,2026-02-25_11h16.17.120,VisualSearch_2526_3,,2025.2.4,2026-02-25 11h16.17.346649 +0100,
tilted.xlsx,The target is tilted.,117,48,0,6,0,1,1,1,0,0,0,0,0,0,0,0,1,3,4,117,space,5.804815400000052,None,0,1,0.997244000000137,None,space,1.9645135999999184,None,0,0,0,0,,,,,6,0,48,6,181.2067689999999,,,,,,,,,,,,,,,,,,,,,181.19177179999997,181.2067689999999,181.69038610000007,181.6921287,181.7064507,182.70669539999994,,,,,182.70682579999993,182.72251119999987,182.92289579999988,182.90678739999998,181.7064507,,,,,,,,0,1,0.997244000000137,None,,,,,,,,884,22,V,R,2026-02-25_11h16.17.120,VisualSearch_2526_3,,2025.2.4,2026-02-25 11h16.17.346649 +0100,
tilted.xlsx,The target is tilted.,117,49,1,6,1,1,1,1,1,1,1,1,1,1,1,1,0,11,12,117,space,5.804815400000052,None,1,1,2.5234195000000454,None,space,1.9645135999999184,None,0,0,0,0,,,,,6,1,49,0,182.92289579999988,,,,,,,,,,,,,,,,,,,,,182.9075226,182.92289579999988,183.40635670000006,183.4108999,183.42659209999988,185.95588509999993,,,,,185.95608779999998,185.9711385999999,186.17166659999998,186.15546879999988,183.42659209999988,,,,,,,,1,1,2.5234195000000454,None,,,,,,,,884,22,V,R,2026-02-25_11h16.17.120,VisualSearch_2526_3,,2025.2.4,2026-02-25 11h16.17.346649 +0100,
tilted.xlsx,The target is tilted.,117,50,2,6,0,1,1,1,1,1,1,1,0,0,0,0,1,7,8,117,space,5.804815400000052,None,1,0,1.1816650000000664,None,space,1.9645135999999184,None,0,0,0,0,,,,,6,2,50,5,186.17166659999998,,,,,,,,,,,,,,,,,,,,,186.15618589999985,186.17166659999998,186.65507709999997,186.65958709999995,186.6757702,187.8710587999999,,,,,187.87123640000004,187.88688409999986,188.0873778,188.07126730000004,186.6757702,,,,,,,,1,0,1.1816650000000664,None,,,,,,,,884,22,V,R,2026-02-25_11h16.17.120,VisualSearch_2526_3,,2025.2.4,2026-02-25 11h16.17.346649 +0100,
tilted.xlsx,The target is tilted.,117,51,3,6,0,0,0,0,0,0,0,0,0,0,0,0,1,1,1,117,space,5.804815400000052,None,0,1,0.5632095999999365,None,space,1.9645135999999184,None,0,0,0,0,,,,,6,3,51,7,188.0873778,,,,,,,,,,,,,,,,,,,,,188.0719775,188.0873778,188.57097369999997,188.57543149999992,188.5911205,189.17046329999994,,,,,189.1706420999999,189.1862481999999,189.3868063,189.3706792999999,188.5911205,,,,,,,,0,1,0.5632095999999365,None,,,,,,,,884,22,V,R,2026-02-25_11h16.17.120,VisualSearch_2526_3,,2025.2.4,2026-02-25 11h16.17.346649 +0100,
tilted.xlsx,The target is tilted.,117,52,4,6,1,1,1,1,0,0,0,0,0,0,0,0,0,3,4,117,space,5.804815400000052,None,1,1,1.3224204000000555,None,space,1.9645135999999184,None,0,0,0,0,,,,,6,4,52,2,189.3868063,,,,,,,,,,,,,,,,,,,,,189.37141629999996,189.3868063,189.87045749999993,189.8753374999999,189.89196019999986,191.2201152,,,,,191.22032279999985,191.2352487999999,191.435567,191.41931449999993,189.89196019999986,,,,,,,,1,1,1.3224204000000555,None,,,,,,,,884,22,V,R,2026-02-25_11h16.17.120,VisualSearch_2526_3,,2025.2.4,2026-02-25 11h16.17.346649 +0100,
tilted.xlsx,The target is tilted.,117,53,5,6,1,1,1,1,1,1,1,1,0,0,0,0,0,7,8,117,space,5.804815400000052,None,1,1,1.457055999999966,None,space,1.9645135999999184,None,0,0,0,0,,,,,6,5,53,1,191.435567,,,,,,,,,,,,,,,,,,,,,191.42008250000003,191.435567,191.91962719999992,191.92421650000006,191.93547190000004,193.40246179999986,,,,,193.40264320000006,193.41774770000006,193.61803759999998,193.6017614,191.93547190000004,,,,,,,,1,1,1.457055999999966,None,,,,,,,,884,22,V,R,2026-02-25_11h16.17.120,VisualSearch_2526_3,,2025.2.4,2026-02-25 11h16.17.346649 +0100,
tilted.xlsx,The target is tilted.,117,54,6,6,1,0,0,0,0,0,0,0,0,0,0,0,0,0,1,117,space,5.804815400000052,None,1,1,0.570656500000041,None,space,1.9645135999999184,None,0,0,0,0,,,,,6,6,54,3,193.61803759999998,,,,,,,,,,,,,,,,,,,,,193.60251119999998,193.61803759999998,194.10191689999988,194.10648390000006,194.12423149999995,194.7018197,,,,,194.70203249999986,194.71714780000002,194.91759690000004,194.90107119999993,194.12423149999995,,,,,,,,1,1,0.570656500000041,None,,,,,,,,884,22,V,R,2026-02-25_11h16.17.120,VisualSearch_2526_3,,2025.2.4,2026-02-25 11h16.17.346649 +0100,
tilted.xlsx,The target is tilted.,117,55,7,6,0,1,1,1,1,1,1,1,1,1,1,1,1,11,12,117,space,5.804815400000052,None,1,0,4.871656499999972,None,space,1.9645135999999184,None,0,0,0,0,,,,,6,7,55,4,194.91759690000004,,,,,,,,,,,,,,,,,,,,,194.90184299999987,194.91759690000004,195.40119099999993,195.40565029999993,195.4224689,200.2995403,,,,,200.29975620000005,200.31458509999993,200.51503679999996,200.49889000000007,195.4224689,,,,,,,,1,0,4.871656499999972,None,,,,,,,,884,22,V,R,2026-02-25_11h16.17.120,VisualSearch_2526_3,,2025.2.4,2026-02-25 11h16.17.346649 +0100,
tilted.xlsx,The target is tilted.,117,56,0,7,1,0,0,0,0,0,0,0,0,0,0,0,0,0,1,117,space,5.804815400000052,None,1,1,0.6294937000000118,None,space,1.9645135999999184,None,0,0,0,0,,,,,7,0,56,3,200.51503679999996,,,,,,,,,,,,,,,,,,,,,200.49960599999986,200.51503679999996,200.99838669999986,201.00287950000006,201.01933429999985,201.6641743,,,,,201.66426660000002,201.68068429999994,,201.86480929999993,201.01933429999985,,,,,,,,1,1,0.6294937000000118,None,,,,,,,,884,22,V,R,2026-02-25_11h16.17.120,VisualSearch_2526_3,,2025.2.4,2026-02-25 11h16.17.346649 +0100,
tilted.xlsx,The target is tilted.,117,57,1,7,0,1,1,1,1,1,1,1,0,0,0,0,1,7,8,117,space,5.804815400000052,None,0,1,2.62763259999997,None,space,1.9645135999999184,None,0,0,0,0,,,,,7,1,57,5,201.88122780000003,,,,,,,,,,,,,,,,,,,,,201.86567130000003,201.88122780000003,202.36458820000007,202.36974970000006,202.38632370000005,205.02969299999995,,,,,205.02987400000006,205.04570599999988,205.2458064,205.22943199999986,,,,,,,,,0,1,2.62763259999997,None,,,,,,,,884,22,V,R,2026-02-25_11h16.17.120,VisualSearch_2526_3,,2025.2.4,2026-02-25 11h16.17.346649 +0100,
tilted.xlsx,The target is tilted.,117,58,2,7,0,1,1,1,0,0,0,0,0,0,0,0,1,3,4,117,space,5.804815400000052,None,0,1,0.8254555000000892,None,space,1.9645135999999184,None,0,0,0,0,,,,,7,2,58,6,205.2458064,,,,,,,,,,,,,,,,,,,,,205.22994010000002,205.2458064,205.7296991999999,205.7342475999999,205.75093859999993,206.57975970000007,,,,,206.5799629999999,206.5950175999999,206.79509529999996,206.77941220000002,205.75093859999993,,,,,,,,0,1,0.8254555000000892,None,,,,,,,,884,22,V,R,2026-02-25_11h16.17.120,VisualSearch_2526_3,,2025.2.4,2026-02-25 11h16.17.346649 +0100,
tilted.xlsx,The target is tilted.,117,59,3,7,1,1,1,1,1,1,1,1,1,1,1,1,0,11,12,117,space,5.804815400000052,None,1,1,2.619881600000099,None,space,1.9645135999999184,None,0,0,0,0,,,,,7,3,59,0,206.79509529999996,,,,,,,,,,,,,,,,,,,,,206.78011730000003,206.79509529999996,207.2792305999999,207.28381620000005,207.30019629999993,209.92737339999985,,,,,209.92748259999985,209.94329709999988,210.14393339999992,210.12777979999987,207.30019629999993,,,,,,,,1,1,2.619881600000099,None,,,,,,,,884,22,V,R,2026-02-25_11h16.17.120,VisualSearch_2526_3,,2025.2.4,2026-02-25 11h16.17.346649 +0100,
tilted.xlsx,The target is tilted.,117,60,4,7,0,0,0,0,0,0,0,0,0,0,0,0,1,1,1,117,space,5.804815400000052,None,0,1,0.7366584999999759,None,space,1.9645135999999184,None,0,0,0,0,,,,,7,4,60,7,210.14393339999992,,,,,,,,,,,,,,,,,,,,,210.12858140000003,210.14393339999992,210.62760230000004,210.63209849999998,210.6489795,211.39421479999987,,,,,211.39440990000003,211.40949569999998,211.60995709999997,211.59344029999988,210.6489795,,,,,,,,0,1,0.7366584999999759,None,,,,,,,,884,22,V,R,2026-02-25_11h16.17.120,VisualSearch_2526_3,,2025.2.4,2026-02-25 11h16.17.346649 +0100,
tilted.xlsx,The target is tilted.,117,61,5,7,1,1,1,1,1,1,1,1,0,0,0,0,0,7,8,117,space,5.804815400000052,None,1,1,0.5545902999999726,None,space,1.9645135999999184,None,0,0,0,0,,,,,7,5,61,1,211.60995709999997,,,,,,,,,,,,,,,,,,,,,211.59417259999987,211.60995709999997,212.09338989999992,212.09803540000007,212.11618950000002,212.67692949999991,,,,,212.67712570000003,212.6923222999999,212.89239729999986,212.8766197,212.11618950000002,,,,,,,,1,1,0.5545902999999726,None,,,,,,,,884,22,V,R,2026-02-25_11h16.17.120,VisualSearch_2526_3,,2025.2.4,2026-02-25 11h16.17.346649 +0100,
tilted.xlsx,The target is tilted.,117,62,6,7,1,1,1,1,0,0,0,0,0,0,0,0,0,3,4,117,space,5.804815400000052,None,1,1,0.8597631000000092,None,space,1.9645135999999184,None,0,0,0,0,,,,,7,6,62,2,212.89239729999986,,,,,,,,,,,,,,,,,,,,,212.8773291,212.89239729999986,213.37640770000007,213.3809523,213.39808590000007,214.25955709999994,,,,,214.25975330000006,214.2748979999999,214.4751286999999,214.4592763999999,213.39808590000007,,,,,,,,1,1,0.8597631000000092,None,,,,,,,,884,22,V,R,2026-02-25_11h16.17.120,VisualSearch_2526_3,,2025.2.4,2026-02-25 11h16.17.346649 +0100,
tilted.xlsx,The target is tilted.,117,63,7,7,0,1,1,1,1,1,1,1,1,1,1,1,1,11,12,117,space,5.804815400000052,None,1,0,3.187521699999934,None,space,1.9645135999999184,None,0,0,0,0,,,,,7,7,63,4,214.4751286999999,,,,,,,,,,,,,,,,,,,,,214.45998729999997,214.4751286999999,214.9590530999999,214.96362279999994,214.98068609999996,218.17479529999991,,,,,218.17501479999987,218.18974320000007,218.39008850000005,218.37373490000004,214.98068609999996,,,,,,,,1,0,3.187521699999934,None,,,,,,,,884,22,V,R,2026-02-25_11h16.17.120,VisualSearch_2526_3,,2025.2.4,2026-02-25 11h16.17.346649 +0100,
tilted.xlsx,The target is tilted.,117,64,0,8,1,1,1,1,1,1,1,1,1,1,1,1,0,11,12,117,space,5.804815400000052,None,1,1,0.7124292000000878,None,space,1.9645135999999184,None,0,0,0,0,,,,,8,0,64,0,218.39008850000005,,,,,,,,,,,,,,,,,,,,,218.37446599999998,218.39008850000005,218.87354060000007,218.87806060000003,218.89462869999988,219.62368960000003,,,,,219.6238515,219.6390452999999,219.83952490000001,219.82333649999987,218.89462869999988,,,,,,,,1,1,0.7124292000000878,None,,,,,,,,884,22,V,R,2026-02-25_11h16.17.120,VisualSearch_2526_3,,2025.2.4,2026-02-25 11h16.17.346649 +0100,
tilted.xlsx,The target is tilted.,117,65,1,8,0,1,1,1,1,1,1,1,1,1,1,1,1,11,12,117,space,5.804815400000052,None,1,0,2.850360099999989,None,space,1.9645135999999184,None,0,0,0,0,,,,,8,1,65,4,219.83952490000001,,,,,,,,,,,,,,,,,,,,,219.82408529999998,219.83952490000001,220.3233648999999,220.32789290000005,220.34415519999993,223.20586249999997,,,,,223.20609459999991,223.22086309999986,223.42076270000007,223.4046922,220.34415519999993,,,,,,,,1,0,2.850360099999989,None,,,,,,,,884,22,V,R,2026-02-25_11h16.17.120,VisualSearch_2526_3,,2025.2.4,2026-02-25 11h16.17.346649 +0100,
tilted.xlsx,The target is tilted.,117,66,2,8,1,1,1,1,0,0,0,0,0,0,0,0,0,3,4,117,space,5.804815400000052,None,1,1,0.73910839999985,None,space,1.9645135999999184,None,0,0,0,0,,,,,8,2,66,2,223.42076270000007,,,,,,,,,,,,,,,,,,,,,223.40535649999993,223.42076270000007,223.90474900000004,223.90924919999998,223.9261778,224.67174950000003,,,,,224.67194799999993,224.68669369999998,224.88694110000006,224.8711725999999,223.9261778,,,,,,,,1,1,0.73910839999985,None,,,,,,,,884,22,V,R,2026-02-25_11h16.17.120,VisualSearch_2526_3,,2025.2.4,2026-02-25 11h16.17.346649 +0100,
tilted.xlsx,The target is tilted.,117,67,3,8,0,1,1,1,0,0,0,0,0,0,0,0,1,3,4,117,space,5.804815400000052,None,0,1,1.1420276999999714,None,space,1.9645135999999184,None,0,0,0,0,,,,,8,3,67,6,224.88694110000006,,,,,,,,,,,,,,,,,,,,,224.87188220000007,224.88694110000006,225.37104490000002,225.37557279999987,225.39329240000006,226.53759479999985,,,,,226.5377888999999,226.55267019999997,226.75287149999986,226.7370120999999,225.39329240000006,,,,,,,,0,1,1.1420276999999714,None,,,,,,,,884,22,V,R,2026-02-25_11h16.17.120,VisualSearch_2526_3,,2025.2.4,2026-02-25 11h16.17.346649 +0100,
tilted.xlsx,The target is tilted.,117,68,4,8,1,1,1,1,1,1,1,1,0,0,0,0,0,7,8,117,space,5.804815400000052,None,1,1,0.9668501999999535,None,space,1.9645135999999184,None,0,0,0,0,,,,,8,4,68,1,226.75287149999986,,,,,,,,,,,,,,,,,,,,,226.73771859999988,226.75287149999986,227.23659999999995,227.24061919999986,227.25493740000002,228.2365092,,,,,228.23670549999997,228.25201070000003,228.45249790000003,228.43636919999994,227.25493740000002,,,,,,,,1,1,0.9668501999999535,None,,,,,,,,884,22,V,R,2026-02-25_11h16.17.120,VisualSearch_2526_3,,2025.2.4,2026-02-25 11h16.17.346649 +0100,
tilted.xlsx,The target is tilted.,117,69,5,8,1,0,0,0,0,0,0,0,0,0,0,0,0,0,1,117,space,5.804815400000052,None,1,1,0.5772064000000228,None,space,1.9645135999999184,None,0,0,0,0,,,,,8,5,69,3,228.45249790000003,,,,,,,,,,,,,,,,,,,,,228.43718769999987,228.45249790000003,228.93599949999998,228.94056490000003,228.95577179999987,229.53604300000006,,,,,229.53621999999996,229.55127390000007,229.7517539999999,229.7356577999999,228.95577179999987,,,,,,,,1,1,0.5772064000000228,None,,,,,,,,884,22,V,R,2026-02-25_11h16.17.120,VisualSearch_2526_3,,2025.2.4,2026-02-25 11h16.17.346649 +0100,
tilted.xlsx,The target is tilted.,117,70,6,8,0,0,0,0,0,0,0,0,0,0,0,0,1,1,1,117,space,5.804815400000052,None,0,1,0.5585078999999951,None,space,1.9645135999999184,None,0,0,0,0,,,,,8,6,70,7,229.7517539999999,,,,,,,,,,,,,,,,,,,,,229.73638299999993,229.7517539999999,230.23538630000007,230.23985459999994,230.25736630000006,230.8187401,,,,,230.81889939999996,230.8340263,231.03442859999996,231.01831289999996,230.25736630000006,,,,,,,,0,1,0.5585078999999951,None,,,,,,,,884,22,V,R,2026-02-25_11h16.17.120,VisualSearch_2526_3,,2025.2.4,2026-02-25 11h16.17.346649 +0100,
tilted.xlsx,The target is tilted.,117,71,7,8,0,1,1,1,1,1,1,1,0,0,0,0,1,7,8,117,space,5.804815400000052,None,0,1,2.328731199999993,None,space,1.9645135999999184,None,0,0,0,0,,,,,8,7,71,5,231.03442859999996,,,,,,,,,,,,,,,,,,,,,231.01901640000006,231.03442859999996,231.51818060000005,231.52258600000005,231.53888400000005,233.88357840000003,,,,,233.88379269999996,233.89926289999994,234.09938149999994,234.08331699999985,231.53888400000005,,,,,,,,0,1,2.328731199999993,None,,,,,,,,884,22,V,R,2026-02-25_11h16.17.120,VisualSearch_2526_3,,2025.2.4,2026-02-25 11h16.17.346649 +0100,
tilted.xlsx,The target is tilted.,117,72,0,9,0,1,1,1,0,0,0,0,0,0,0,0,1,3,4,117,space,5.804815400000052,None,0,1,1.1344252999999753,None,space,1.9645135999999184,None,0,0,0,0,,,,,9,0,72,6,234.09938149999994,,,,,,,,,,,,,,,,,,,,,234.08402479999995,234.09938149999994,234.58332040000005,234.58775149999997,234.60322150000002,235.7496994999999,,,,,235.74983529999986,235.76485379999986,235.96531879999998,235.94950530000006,234.60322150000002,,,,,,,,0,1,1.1344252999999753,None,,,,,,,,884,22,V,R,2026-02-25_11h16.17.120,VisualSearch_2526_3,,2025.2.4,2026-02-25 11h16.17.346649 +0100,
tilted.xlsx,The target is tilted.,117,73,1,9,1,1,1,1,1,1,1,1,1,1,1,1,0,11,12,117,space,5.804815400000052,None,1,1,2.046231899999839,None,space,1.9645135999999184,None,0,0,0,0,,,,,9,1,73,0,235.96531879999998,,,,,,,,,,,,,,,,,,,,,235.95021500000007,235.96531879999998,236.44927600000005,236.45367399999986,236.47074909999992,238.53068089999988,,,,,238.53078949999986,238.54739819999986,,238.73121719999995,236.47074909999992,,,,,,,,1,1,2.046231899999839,None,,,,,,,,884,22,V,R,2026-02-25_11h16.17.120,VisualSearch_2526_3,,2025.2.4,2026-02-25 11h16.17.346649 +0100,
tilted.xlsx,The target is tilted.,117,74,2,9,0,1,1,1,1,1,1,1,0,0,0,0,1,7,8,117,space,5.804815400000052,None,1,0,3.4760019999998804,None,space,1.9645135999999184,None,0,0,0,0,,,,,9,2,74,5,238.7476299,,,,,,,,,,,,,,,,,,,,,238.7320052,238.7476299,239.23109980000004,239.23560229999998,239.25108780000005,242.73032609999996,,,,,242.73054669999988,242.7453054,242.94570449999992,242.92946259999985,,,,,,,,,1,0,3.4760019999998804,None,,,,,,,,884,22,V,R,2026-02-25_11h16.17.120,VisualSearch_2526_3,,2025.2.4,2026-02-25 11h16.17.346649 +0100,
tilted.xlsx,The target is tilted.,117,75,3,9,0,0,0,0,0,0,0,0,0,0,0,0,1,1,1,117,space,5.804815400000052,None,0,1,0.6273343000000295,None,space,1.9645135999999184,None,0,0,0,0,,,,,9,3,75,7,242.94570449999992,,,,,,,,,,,,,,,,,,,,,242.93019430000004,242.94570449999992,243.42909080000004,243.43356399999993,243.44972469999993,244.0792139,,,,,244.07936070000005,244.09459330000004,244.29510949999985,244.27894379999998,243.44972469999993,,,,,,,,0,1,0.6273343000000295,None,,,,,,,,884,22,V,R,2026-02-25_11h16.17.120,VisualSearch_2526_3,,2025.2.4,2026-02-25 11h16.17.346649 +0100,
tilted.xlsx,The target is tilted.,117,76,4,9,1,0,0,0,0,0,0,0,0,0,0,0,0,0,1,117,space,5.804815400000052,None,1,1,0.6178926000000047,None,space,1.9645135999999184,None,0,0,0,0,,,,,9,4,76,3,244.29510949999985,,,,,,,,,,,,,,,,,,,,,244.27964789999987,244.29510949999985,244.7787269999999,244.78317749999997,244.79861119999987,245.42886610000005,,,,,245.42906049999988,245.44403669999997,245.64441710000006,245.6282971999999,244.79861119999987,,,,,,,,1,1,0.6178926000000047,None,,,,,,,,884,22,V,R,2026-02-25_11h16.17.120,VisualSearch_2526_3,,2025.2.4,2026-02-25 11h16.17.346649 +0100,
tilted.xlsx,The target is tilted.,117,77,5,9,1,1,1,1,0,0,0,0,0,0,0,0,0,3,4,117,space,5.804815400000052,None,1,1,0.686478999999963,None,space,1.9645135999999184,None,0,0,0,0,,,,,9,5,77,2,245.64441710000006,,,,,,,,,,,,,,,,,,,,,245.6290216,245.64441710000006,246.12819919999993,246.13271259999988,246.14947170000005,246.84508529999994,,,,,246.84532339999987,246.8599345,247.06056560000002,247.04419789999997,246.14947170000005,,,,,,,,1,1,0.686478999999963,None,,,,,,,,884,22,V,R,2026-02-25_11h16.17.120,VisualSearch_2526_3,,2025.2.4,2026-02-25 11h16.17.346649 +0100,
tilted.xlsx,The target is tilted.,117,78,6,9,1,1,1,1,1,1,1,1,0,0,0,0,0,7,8,117,space,5.804815400000052,None,1,1,1.5358222000002115,None,space,1.9645135999999184,None,0,0,0,0,,,,,9,6,78,1,247.06056560000002,,,,,,,,,,,,,,,,,,,,,247.044934,247.06056560000002,247.54398309999988,247.5484859999999,247.56475869999986,249.11064579999993,,,,,249.11086120000004,249.12566960000004,249.32615499999997,249.3100677,247.56475869999986,,,,,,,,1,1,1.5358222000002115,None,,,,,,,,884,22,V,R,2026-02-25_11h16.17.120,VisualSearch_2526_3,,2025.2.4,2026-02-25 11h16.17.346649 +0100,
tilted.xlsx,The target is tilted.,117,79,7,9,0,1,1,1,1,1,1,1,1,1,1,1,1,11,12,117,space,5.804815400000052,None,1,0,1.490281300000106,None,space,1.9645135999999184,None,0,0,0,0,,,,,9,7,79,4,249.32615499999997,,,,,,,,,,,,,,,,,,,,,249.31078950000006,249.32615499999997,249.81000139999992,249.81468789999985,249.8310477,251.32653319999986,,,,,251.32675189999986,251.34146629999987,251.54181909999988,251.5256531,249.8310477,,,,,,,,1,0,1.490281300000106,None,,,,,,,,884,22,V,R,2026-02-25_11h16.17.120,VisualSearch_2526_3,,2025.2.4,2026-02-25 11h16.17.346649 +0100,
tilted.xlsx,The target is tilted.,117,80,0,10,1,1,1,1,0,0,0,0,0,0,0,0,0,3,4,117,space,5.804815400000052,None,1,1,0.8402003999999579,None,space,1.9645135999999184,None,0,0,0,0,,,,,10,0,80,2,251.54181909999988,,,,,,,,,,,,,,,,,,,,,251.52641909999988,251.54181909999988,252.02547049999998,252.02983569999992,252.04502439999987,252.89206839999997,,,,,252.8922439999999,252.90720080000006,253.10731959999998,253.0916600999999,252.04502439999987,,,,,,,,1,1,0.8402003999999579,None,,,,,,,,884,22,V,R,2026-02-25_11h16.17.120,VisualSearch_2526_3,,2025.2.4,2026-02-25 11h16.17.346649 +0100,
tilted.xlsx,The target is tilted.,117,81,1,10,0,1,1,1,1,1,1,1,1,1,1,1,1,11,12,117,space,5.804815400000052,None,1,0,1.3879466000000775,None,space,1.9645135999999184,None,0,0,0,0,,,,,10,1,81,4,253.10731959999998,,,,,,,,,,,,,,,,,,,,,253.09236459999988,253.10731959999998,253.59133610000004,253.59584229999996,253.61222580000003,255.0079707,,,,,255.00816859999986,255.02305030000002,255.22345180000002,255.20701069999996,253.61222580000003,,,,,,,,1,0,1.3879466000000775,None,,,,,,,,884,22,V,R,2026-02-25_11h16.17.120,VisualSearch_2526_3,,2025.2.4,2026-02-25 11h16.17.346649 +0100,
tilted.xlsx,The target is tilted.,117,82,2,10,0,1,1,1,0,0,0,0,0,0,0,0,1,3,4,117,space,5.804815400000052,None,0,1,0.9231853999999657,None,space,1.9645135999999184,None,0,0,0,0,,,,,10,2,82,6,255.22345180000002,,,,,,,,,,,,,,,,,,,,,255.20771479999985,255.22345180000002,255.70726779999995,255.71173219999991,255.72862280000004,256.6571801,,,,,256.6573748999999,256.6722792999999,256.8728286999999,256.85655199999997,255.72862280000004,,,,,,,,0,1,0.9231853999999657,None,,,,,,,,884,22,V,R,2026-02-25_11h16.17.120,VisualSearch_2526_3,,2025.2.4,2026-02-25 11h16.17.346649 +0100,
tilted.xlsx,The target is tilted.,117,83,3,10,0,1,1,1,1,1,1,1,0,0,0,0,1,7,8,117,space,5.804815400000052,None,1,0,2.061038399999916,None,space,1.9645135999999184,None,0,0,0,0,,,,,10,3,83,5,256.8728286999999,,,,,,,,,,,,,,,,,,,,,256.8572557,256.8728286999999,257.35640880000005,257.36082680000004,257.3783893,259.45557669999994,,,,,259.4557732999999,259.47092069999985,259.67145600000003,259.6552428,257.3783893,,,,,,,,1,0,2.061038399999916,None,,,,,,,,884,22,V,R,2026-02-25_11h16.17.120,VisualSearch_2526_3,,2025.2.4,2026-02-25 11h16.17.346649 +0100,
tilted.xlsx,The target is tilted.,117,84,4,10,1,1,1,1,1,1,1,1,1,1,1,1,0,11,12,117,space,5.804815400000052,None,0,0,3.954136999999946,None,space,1.9645135999999184,None,0,0,0,0,,,,,10,4,84,0,259.67145600000003,,,,,,,,,,,,,,,,,,,,,259.6560408999999,259.67145600000003,260.1549614999999,260.1593559999999,260.1751523999999,264.1371766,,,,,264.13737019999985,264.15284700000007,264.35220129999993,264.3365572,260.1751523999999,,,,,,,,0,0,3.954136999999946,None,,,,,,,,884,22,V,R,2026-02-25_11h16.17.120,VisualSearch_2526_3,,2025.2.4,2026-02-25 11h16.17.346649 +0100,
tilted.xlsx,The target is tilted.,117,85,5,10,1,1,1,1,1,1,1,1,0,0,0,0,0,7,8,117,space,5.804815400000052,None,1,1,0.8894665000000259,None,space,1.9645135999999184,None,0,0,0,0,,,,,10,5,85,1,264.35220129999993,,,,,,,,,,,,,,,,,,,,,264.33736279999994,264.35220129999993,264.8362178,264.8406748,264.8560132,265.7528362999999,,,,,265.75301149999996,265.76861740000004,265.96867829999997,265.9525865999999,264.8560132,,,,,,,,1,1,0.8894665000000259,None,,,,,,,,884,22,V,R,2026-02-25_11h16.17.120,VisualSearch_2526_3,,2025.2.4,2026-02-25 11h16.17.346649 +0100,
tilted.xlsx,The target is tilted.,117,86,6,10,0,0,0,0,0,0,0,0,0,0,0,0,1,1,1,117,space,5.804815400000052,None,0,1,0.6721012000000428,None,space,1.9645135999999184,None,0,0,0,0,,,,,10,6,86,7,265.96867829999997,,,,,,,,,,,,,,,,,,,,,265.9534011999999,265.96867829999997,266.45231749999994,266.45680300000004,266.47348179999994,267.15238180000006,,,,,267.1525726,267.16796279999994,267.3676174,267.35213810000005,266.47348179999994,,,,,,,,0,1,0.6721012000000428,None,,,,,,,,884,22,V,R,2026-02-25_11h16.17.120,VisualSearch_2526_3,,2025.2.4,2026-02-25 11h16.17.346649 +0100,
tilted.xlsx,The target is tilted.,117,87,7,10,1,0,0,0,0,0,0,0,0,0,0,0,0,0,1,117,space,5.804815400000052,None,1,1,0.5389689999999518,None,space,1.9645135999999184,None,0,0,0,0,,,,,10,7,87,3,267.3676174,,,,,,,,,,,,,,,,,,,,,267.3528085999999,267.3676174,267.8515751,267.8559728,267.8722401,268.4184075999999,,,,,268.418582,268.43405400000006,268.63362289999986,268.61775119999993,267.8722401,,,,,,,,1,1,0.5389689999999518,None,,,,,,,,884,22,V,R,2026-02-25_11h16.17.120,VisualSearch_2526_3,,2025.2.4,2026-02-25 11h16.17.346649 +0100,
tilted.xlsx,The target is tilted.,117,88,0,11,1,1,1,1,0,0,0,0,0,0,0,0,0,3,4,117,space,5.804815400000052,None,1,1,0.6757694000000356,None,space,1.9645135999999184,None,0,0,0,0,,,,,11,0,88,2,268.63362289999986,,,,,,,,,,,,,,,,,,,,,268.61849540000003,268.63362289999986,269.1176943999999,269.1220639999999,269.138463,269.8175638,,,,,269.81775879999987,269.83323730000006,270.0330821,270.0172797,269.138463,,,,,,,,1,1,0.6757694000000356,None,,,,,,,,884,22,V,R,2026-02-25_11h16.17.120,VisualSearch_2526_3,,2025.2.4,2026-02-25 11h16.17.346649 +0100,
tilted.xlsx,The target is tilted.,117,89,1,11,0,1,1,1,0,0,0,0,0,0,0,0,1,3,4,117,space,5.804815400000052,None,0,1,1.414583900000025,None,space,1.9645135999999184,None,0,0,0,0,,,,,11,1,89,6,270.0330821,,,,,,,,,,,,,,,,,,,,,270.01800349999985,270.0330821,270.51700800000003,270.5224461999999,270.53705809999997,271.9674061999999,,,,,271.9675978999999,271.9820428999999,272.18246150000004,272.16620999999986,270.53705809999997,,,,,,,,0,1,1.414583900000025,None,,,,,,,,884,22,V,R,2026-02-25_11h16.17.120,VisualSearch_2526_3,,2025.2.4,2026-02-25 11h16.17.346649 +0100,
tilted.xlsx,The target is tilted.,117,90,2,11,1,1,1,1,1,1,1,1,1,1,1,1,0,11,12,117,space,5.804815400000052,None,1,1,1.0875831999999264,None,space,1.9645135999999184,None,0,0,0,0,,,,,11,2,90,0,272.18246150000004,,,,,,,,,,,,,,,,,,,,,272.1670239,272.18246150000004,272.66602420000004,272.67042679999986,272.68742,273.78248499999995,,,,,273.78267989999995,273.7981732999999,273.9982743999999,273.98219859999995,272.68742,,,,,,,,1,1,1.0875831999999264,None,,,,,,,,884,22,V,R,2026-02-25_11h16.17.120,VisualSearch_2526_3,,2025.2.4,2026-02-25 11h16.17.346649 +0100,
tilted.xlsx,The target is tilted.,117,91,3,11,1,0,0,0,0,0,0,0,0,0,0,0,0,0,1,117,space,5.804815400000052,None,1,1,0.6131997999998475,None,space,1.9645135999999184,None,0,0,0,0,,,,,11,3,91,3,273.9982743999999,,,,,,,,,,,,,,,,,,,,,273.98292089999995,273.9982743999999,274.48136679999993,274.4858337999999,274.49789020000003,275.1151577999999,,,,,275.1153508,275.13103909999995,275.33090960000004,275.31482159999996,274.49789020000003,,,,,,,,1,1,0.6131997999998475,None,,,,,,,,884,22,V,R,2026-02-25_11h16.17.120,VisualSearch_2526_3,,2025.2.4,2026-02-25 11h16.17.346649 +0100,
tilted.xlsx,The target is tilted.,117,92,4,11,0,1,1,1,1,1,1,1,1,1,1,1,1,11,12,117,space,5.804815400000052,None,1,0,2.280286100000012,None,space,1.9645135999999184,None,0,0,0,0,,,,,11,4,92,4,275.33090960000004,,,,,,,,,,,,,,,,,,,,,275.3155887999999,275.33090960000004,275.81456479999997,275.81898049999995,275.8357549,278.1309125,,,,,278.1311303,278.14624060000006,278.34623639999995,278.3300477999999,275.8357549,,,,,,,,1,0,2.280286100000012,None,,,,,,,,884,22,V,R,2026-02-25_11h16.17.120,VisualSearch_2526_3,,2025.2.4,2026-02-25 11h16.17.346649 +0100,
tilted.xlsx,The target is tilted.,117,93,5,11,0,1,1,1,1,1,1,1,0,0,0,0,1,7,8,117,space,5.804815400000052,None,0,1,2.6679781000000276,None,space,1.9645135999999184,None,0,0,0,0,,,,,11,5,93,5,278.34623639999995,,,,,,,,,,,,,,,,,,,,,278.3307990999999,278.34623639999995,278.8299953999999,278.83440759999985,278.8457521999999,281.52865900000006,,,,,281.52881950000005,281.5446402,281.7442168,281.7286844999999,278.8457521999999,,,,,,,,0,1,2.6679781000000276,None,,,,,,,,884,22,V,R,2026-02-25_11h16.17.120,VisualSearch_2526_3,,2025.2.4,2026-02-25 11h16.17.346649 +0100,
tilted.xlsx,The target is tilted.,117,94,6,11,1,1,1,1,1,1,1,1,0,0,0,0,0,7,8,117,space,5.804815400000052,None,1,1,1.6026306999999633,None,space,1.9645135999999184,None,0,0,0,0,,,,,11,6,94,1,281.7442168,,,,,,,,,,,,,,,,,,,,,281.72939369999995,281.7442168,282.228077,282.2324621999999,282.24910679999994,283.8610042,,,,,283.8612040999999,283.8770927999999,284.07699849999995,284.06055620000006,282.24910679999994,,,,,,,,1,1,1.6026306999999633,None,,,,,,,,884,22,V,R,2026-02-25_11h16.17.120,VisualSearch_2526_3,,2025.2.4,2026-02-25 11h16.17.346649 +0100,
tilted.xlsx,The target is tilted.,117,95,7,11,0,0,0,0,0,0,0,0,0,0,0,0,1,1,1,117,space,5.804815400000052,None,0,1,0.5502211999998963,None,space,1.9645135999999184,None,0,0,0,0,,,,,11,7,95,7,284.07699849999995,,,,,,,,,,,,,,,,,,,,,284.06126689999996,284.07699849999995,284.56070449999993,284.56513900000004,284.5821099,285.1445277999999,,,,,285.14472009999986,285.15999829999987,285.35929809999993,285.34324790000005,284.5821099,,,,,,,,0,1,0.5502211999998963,None,,,,,,,,884,22,V,R,2026-02-25_11h16.17.120,VisualSearch_2526_3,,2025.2.4,2026-02-25 11h16.17.346649 +0100,
tilted.xlsx,The target is tilted.,117,96,0,12,0,0,0,0,0,0,0,0,0,0,0,0,1,1,1,117,space,5.804815400000052,None,0,1,1.471273500000052,None,space,1.9645135999999184,None,0,0,0,0,,,,,12,0,96,7,285.35929809999993,,,,,,,,,,,,,,,,,,,,,285.34397609999996,285.35929809999993,285.84343779999995,285.8479270999999,285.8629054999999,287.34327200000007,,,,,287.3434685,287.3587147999999,287.55876139999987,287.5426666000001,285.8629054999999,,,,,,,,0,1,1.471273500000052,None,,,,,,,,884,22,V,R,2026-02-25_11h16.17.120,VisualSearch_2526_3,,2025.2.4,2026-02-25 11h16.17.346649 +0100,
tilted.xlsx,The target is tilted.,117,97,1,12,0,1,1,1,1,1,1,1,1,1,1,1,1,11,12,117,space,5.804815400000052,None,1,0,1.080116099999941,None,space,1.9645135999999184,None,0,0,0,0,,,,,12,1,97,4,287.55876139999987,,,,,,,,,,,,,,,,,,,,,287.54336569999987,287.55876139999987,288.0424513999999,288.04680340000004,288.0603942,289.1424480999999,,,,,289.1426437,289.1579790999999,289.3579345999999,289.34180679999986,288.0603942,,,,,,,,1,0,1.080116099999941,None,,,,,,,,884,22,V,R,2026-02-25_11h16.17.120,VisualSearch_2526_3,,2025.2.4,2026-02-25 11h16.17.346649 +0100,
tilted.xlsx,The target is tilted.,117,98,2,12,0,1,1,1,1,1,1,1,0,0,0,0,1,7,8,117,space,5.804815400000052,None,1,0,0.866004299999986,None,space,1.9645135999999184,None,0,0,0,0,,,,,12,2,98,5,289.3579345999999,,,,,,,,,,,,,,,,,,,,,289.3425336999999,289.3579345999999,289.8416322999999,289.84598230000006,289.8626402,290.74193049999985,,,,,290.7421488,290.7572926999999,290.9572108,290.94067500000006,289.8626402,,,,,,,,1,0,0.866004299999986,None,,,,,,,,884,22,V,R,2026-02-25_11h16.17.120,VisualSearch_2526_3,,2025.2.4,2026-02-25 11h16.17.346649 +0100,
tilted.xlsx,The target is tilted.,117,99,3,12,1,0,0,0,0,0,0,0,0,0,0,0,0,0,1,117,space,5.804815400000052,None,1,1,0.629490799999985,None,space,1.9645135999999184,None,0,0,0,0,,,,,12,3,99,3,290.9572108,,,,,,,,,,,,,,,,,,,,,290.94145260000005,290.9572108,291.4408747,291.44529139999986,291.46239549999996,292.1071079999999,,,,,292.10722869999995,292.1227214999999,292.32285279999996,292.3067091999999,291.46239549999996,,,,,,,,1,1,0.629490799999985,None,,,,,,,,884,22,V,R,2026-02-25_11h16.17.120,VisualSearch_2526_3,,2025.2.4,2026-02-25 11h16.17.346649 +0100,
tilted.xlsx,The target is tilted.,117,100,4,12,0,1,1,1,0,0,0,0,0,0,0,0,1,3,4,117,space,5.804815400000052,None,0,1,1.0691457000000355,None,space,1.9645135999999184,None,0,0,0,0,,,,,12,4,100,6,292.32285279999996,,,,,,,,,,,,,,,,,,,,,292.3074686,292.32285279999996,292.8066836999999,292.8111924,292.8264010999999,293.9063073,,,,,293.90649859999985,293.92217800000003,294.1220819,294.1059872999999,292.8264010999999,,,,,,,,0,1,1.0691457000000355,None,,,,,,,,884,22,V,R,2026-02-25_11h16.17.120,VisualSearch_2526_3,,2025.2.4,2026-02-25 11h16.17.346649 +0100,
tilted.xlsx,The target is tilted.,117,101,5,12,1,1,1,1,1,1,1,1,0,0,0,0,0,7,8,117,space,5.804815400000052,None,1,1,1.2144972999999482,None,space,1.9645135999999184,None,0,0,0,0,,,,,12,5,101,1,294.1220819,,,,,,,,,,,,,,,,,,,,,294.1066940999999,294.1220819,294.6059931,294.6104591999999,294.62589809999986,295.8555747999999,,,,,295.8557266,295.8714130999999,296.07153160000007,296.05497979999996,294.62589809999986,,,,,,,,1,1,1.2144972999999482,None,,,,,,,,884,22,V,R,2026-02-25_11h16.17.120,VisualSearch_2526_3,,2025.2.4,2026-02-25 11h16.17.346649 +0100,
tilted.xlsx,The target is tilted.,117,102,6,12,1,1,1,1,0,0,0,0,0,0,0,0,0,3,4,117,space,5.804815400000052,None,1,1,0.9380903000001126,None,space,1.9645135999999184,None,0,0,0,0,,,,,12,6,102,2,296.07153160000007,,,,,,,,,,,,,,,,,,,,,296.0556884,296.07153160000007,296.55504139999994,296.5596748999999,296.5755105999999,297.52194229999986,,,,,297.5221362,297.5374809,297.73752779999995,297.7213683,296.5755105999999,,,,,,,,1,1,0.9380903000001126,None,,,,,,,,884,22,V,R,2026-02-25_11h16.17.120,VisualSearch_2526_3,,2025.2.4,2026-02-25 11h16.17.346649 +0100,
tilted.xlsx,The target is tilted.,117,103,7,12,1,1,1,1,1,1,1,1,1,1,1,1,0,11,12,117,space,5.804815400000052,None,0,0,4.152421499999946,None,space,1.9645135999999184,None,0,0,0,0,,,,,12,7,103,0,297.73752779999995,,,,,,,,,,,,,,,,,,,,,297.72207649999996,297.73752779999995,298.2211388999999,298.2255602,298.24152789999994,302.40304749999996,,,,,302.4032514999999,302.4185969,302.61865579999994,302.6024763999999,298.24152789999994,,,,,,,,0,0,4.152421499999946,None,,,,,,,,884,22,V,R,2026-02-25_11h16.17.120,VisualSearch_2526_3,,2025.2.4,2026-02-25 11h16.17.346649 +0100,
tilted.xlsx,The target is tilted.,117,104,0,13,0,1,1,1,1,1,1,1,1,1,1,1,1,11,12,117,space,5.804815400000052,None,0,1,2.37072709999984,None,space,1.9645135999999184,None,0,0,0,0,,,,,13,0,104,4,302.61865579999994,,,,,,,,,,,,,,,,,,,,,302.60321699999986,302.61865579999994,303.1021688000001,303.1065859999999,303.1228853,305.501812,,,,,305.50204229999986,305.5169160999999,305.71712120000007,305.7010310999999,303.1228853,,,,,,,,0,1,2.37072709999984,None,,,,,,,,884,22,V,R,2026-02-25_11h16.17.120,VisualSearch_2526_3,,2025.2.4,2026-02-25 11h16.17.346649 +0100,
tilted.xlsx,The target is tilted.,117,105,1,13,0,1,1,1,0,0,0,0,0,0,0,0,1,3,4,117,space,5.804815400000052,None,0,1,1.3104941999999937,None,space,1.9645135999999184,None,0,0,0,0,,,,,13,1,105,6,305.71712120000007,,,,,,,,,,,,,,,,,,,,,305.70175029999996,305.71712120000007,306.20084959999986,306.20524209999985,306.2184692999999,307.5339142,,,,,307.5341114999999,307.54960159999996,307.74959839999997,307.7330565,306.2184692999999,,,,,,,,0,1,1.3104941999999937,None,,,,,,,,884,22,V,R,2026-02-25_11h16.17.120,VisualSearch_2526_3,,2025.2.4,2026-02-25 11h16.17.346649 +0100,
tilted.xlsx,The target is tilted.,117,106,2,13,1,1,1,1,1,1,1,1,1,1,1,1,0,11,12,117,space,5.804815400000052,None,1,1,1.6431969000000208,None,space,1.9645135999999184,None,0,0,0,0,,,,,13,2,106,0,307.74959839999997,,,,,,,,,,,,,,,,,,,,,307.73362309999993,307.74959839999997,308.23326309999993,308.2376626999999,308.2528551999999,309.89973480000003,,,,,309.89996829999995,309.91472539999995,310.1151158,310.0987379999999,308.2528551999999,,,,,,,,1,1,1.6431969000000208,None,,,,,,,,884,22,V,R,2026-02-25_11h16.17.120,VisualSearch_2526_3,,2025.2.4,2026-02-25 11h16.17.346649 +0100,
tilted.xlsx,The target is tilted.,117,107,3,13,1,0,0,0,0,0,0,0,0,0,0,0,0,0,1,117,space,5.804815400000052,None,1,1,0.670935800000052,None,space,1.9645135999999184,None,0,0,0,0,,,,,13,3,107,3,310.1151158,,,,,,,,,,,,,,,,,,,,,310.09946990000003,310.1151158,310.5988376,310.6033376999999,310.6195164999999,311.2990278,,,,,311.29921880000006,311.3142662999999,311.5140947,311.4980510999999,310.6195164999999,,,,,,,,1,1,0.670935800000052,None,,,,,,,,884,22,V,R,2026-02-25_11h16.17.120,VisualSearch_2526_3,,2025.2.4,2026-02-25 11h16.17.346649 +0100,
tilted.xlsx,The target is tilted.,117,108,4,13,1,1,1,1,0,0,0,0,0,0,0,0,0,3,4,117,space,5.804815400000052,None,1,1,1.3022152999999435,None,space,1.9645135999999184,None,0,0,0,0,,,,,13,4,108,2,311.5140947,,,,,,,,,,,,,,,,,,,,,311.49876300000005,311.5140947,311.9981573,312.0026267999999,312.0190628999999,313.33140679999997,,,,,313.3315978999999,313.34695650000003,313.5469495,313.5308525999999,312.0190628999999,,,,,,,,1,1,1.3022152999999435,None,,,,,,,,884,22,V,R,2026-02-25_11h16.17.120,VisualSearch_2526_3,,2025.2.4,2026-02-25 11h16.17.346649 +0100,
tilted.xlsx,The target is tilted.,117,109,5,13,1,1,1,1,1,1,1,1,0,0,0,0,0,7,8,117,space,5.804815400000052,None,1,1,0.8651520000000801,None,space,1.9645135999999184,None,0,0,0,0,,,,,13,5,109,1,313.5469495,,,,,,,,,,,,,,,,,,,,,313.5315687,313.5469495,314.03070589999993,314.0351361999999,314.0502179,314.9307199,,,,,314.9309166999999,314.94622359999994,315.1458602,315.1298784999999,314.0502179,,,,,,,,1,1,0.8651520000000801,None,,,,,,,,884,22,V,R,2026-02-25_11h16.17.120,VisualSearch_2526_3,,2025.2.4,2026-02-25 11h16.17.346649 +0100,
tilted.xlsx,The target is tilted.,117,110,6,13,0,0,0,0,0,0,0,0,0,0,0,0,1,1,1,117,space,5.804815400000052,None,0,1,0.626570700000002,None,space,1.9645135999999184,None,0,0,0,0,,,,,13,6,110,7,315.1458602,,,,,,,,,,,,,,,,,,,,,315.13061189999985,315.1458602,315.6298334999999,315.6342738999999,315.65140500000007,316.27979600000003,,,,,316.27999410000007,316.29521079999995,316.4953940999999,316.47938780000004,315.65140500000007,,,,,,,,0,1,0.626570700000002,None,,,,,,,,884,22,V,R,2026-02-25_11h16.17.120,VisualSearch_2526_3,,2025.2.4,2026-02-25 11h16.17.346649 +0100,
tilted.xlsx,The target is tilted.,117,111,7,13,0,1,1,1,1,1,1,1,0,0,0,0,1,7,8,117,space,5.804815400000052,None,1,0,1.369075500000008,None,space,1.9645135999999184,None,0,0,0,0,,,,,13,7,111,5,316.4953940999999,,,,,,,,,,,,,,,,,,,,,316.4801072999999,316.4953940999999,316.97927949999985,316.9837525999999,317.00155369999993,318.3790835,,,,,318.37927360000003,318.39430530000004,318.5945569999999,318.57854900000007,317.00155369999993,,,,,,,,1,0,1.369075500000008,None,,,,,,,,884,22,V,R,2026-02-25_11h16.17.120,VisualSearch_2526_3,,2025.2.4,2026-02-25 11h16.17.346649 +0100,
tilted.xlsx,The target is tilted.,117,112,0,14,0,0,0,0,0,0,0,0,0,0,0,0,1,1,1,117,space,5.804815400000052,None,0,1,0.5472704000001158,None,space,1.9645135999999184,None,0,0,0,0,,,,,14,0,112,7,318.5945569999999,,,,,,,,,,,,,,,,,,,,,318.57925339999997,318.5945569999999,319.0783005999999,319.08269659999996,319.10253020000005,319.6617231,,,,,319.66189859999986,319.6770159,319.87717670000006,319.86063790000003,319.10253020000005,,,,,,,,0,1,0.5472704000001158,None,,,,,,,,884,22,V,R,2026-02-25_11h16.17.120,VisualSearch_2526_3,,2025.2.4,2026-02-25 11h16.17.346649 +0100,
tilted.xlsx,The target is tilted.,117,113,1,14,0,1,1,1,0,0,0,0,0,0,0,0,1,3,4,117,space,5.804815400000052,None,0,1,1.1997521999999208,None,space,1.9645135999999184,None,0,0,0,0,,,,,14,1,113,6,319.87717670000006,,,,,,,,,,,,,,,,,,,,,319.86101929999995,319.87717670000006,320.36114109999994,320.36555299999986,320.38236089999987,321.59406050000007,,,,,321.5942579,321.60951150000005,321.8099015,321.79337740000005,320.38236089999987,,,,,,,,0,1,1.1997521999999208,None,,,,,,,,884,22,V,R,2026-02-25_11h16.17.120,VisualSearch_2526_3,,2025.2.4,2026-02-25 11h16.17.346649 +0100,
tilted.xlsx,The target is tilted.,117,114,2,14,1,1,1,1,1,1,1,1,1,1,1,1,0,11,12,117,space,5.804815400000052,None,1,1,0.6115132000002177,None,space,1.9645135999999184,None,0,0,0,0,,,,,14,2,114,0,321.8099015,,,,,,,,,,,,,,,,,,,,,321.79411959999993,321.8099015,322.2932662999999,322.2978241999999,322.31314410000005,322.9270816999999,,,,,322.9272767,322.94257619999985,323.1425921,323.1263885999999,322.31314410000005,,,,,,,,1,1,0.6115132000002177,None,,,,,,,,884,22,V,R,2026-02-25_11h16.17.120,VisualSearch_2526_3,,2025.2.4,2026-02-25 11h16.17.346649 +0100,
tilted.xlsx,The target is tilted.,117,115,3,14,0,1,1,1,1,1,1,1,0,0,0,0,1,7,8,117,space,5.804815400000052,None,0,1,1.7457454000000325,None,space,1.9645135999999184,None,0,0,0,0,,,,,14,3,115,5,323.1425921,,,,,,,,,,,,,,,,,,,,,323.12708169999996,323.1425921,323.6261967999999,323.6306267,323.64234740000006,325.39286229999993,,,,,325.39306149999993,325.4081455999999,325.6081193,325.5920286999999,323.64234740000006,,,,,,,,0,1,1.7457454000000325,None,,,,,,,,884,22,V,R,2026-02-25_11h16.17.120,VisualSearch_2526_3,,2025.2.4,2026-02-25 11h16.17.346649 +0100,
tilted.xlsx,The target is tilted.,117,116,4,14,1,1,1,1,0,0,0,0,0,0,0,0,0,3,4,117,space,5.804815400000052,None,1,1,0.8238940999999613,None,space,1.9645135999999184,None,0,0,0,0,,,,,14,4,116,2,325.6081193,,,,,,,,,,,,,,,,,,,,,325.59281799999985,325.6081193,326.0917715999999,326.09618539999997,326.11436609999987,326.94147269999985,,,,,326.94166530000007,326.95717390000004,327.15741579999985,327.14123470000004,326.11436609999987,,,,,,,,1,1,0.8238940999999613,None,,,,,,,,884,22,V,R,2026-02-25_11h16.17.120,VisualSearch_2526_3,,2025.2.4,2026-02-25 11h16.17.346649 +0100,
tilted.xlsx,The target is tilted.,117,117,5,14,0,1,1,1,1,1,1,1,1,1,1,1,1,11,12,117,space,5.804815400000052,None,0,1,3.181802899999866,None,space,1.9645135999999184,None,0,0,0,0,,,,,14,5,117,4,327.15741579999985,,,,,,,,,,,,,,,,,,,,,327.1419357,327.15741579999985,327.6409813,327.6453486999999,327.6613949,330.85677340000007,,,,,330.8569734,330.8723757999999,331.07227940000007,331.0561714999999,327.6613949,,,,,,,,0,1,3.181802899999866,None,,,,,,,,884,22,V,R,2026-02-25_11h16.17.120,VisualSearch_2526_3,,2025.2.4,2026-02-25 11h16.17.346649 +0100,
tilted.xlsx,The target is tilted.,117,118,6,14,1,1,1,1,1,1,1,1,0,0,0,0,0,7,8,117,space,5.804815400000052,None,1,1,1.5329824000000372,None,space,1.9645135999999184,None,0,0,0,0,,,,,14,6,118,1,331.07227940000007,,,,,,,,,,,,,,,,,,,,,331.0569937999999,331.07227940000007,331.5557417,331.5601523999999,331.5781141,333.12241459999996,,,,,333.12260790000005,333.13798010000005,333.33807449999995,333.32200379999995,331.5781141,,,,,,,,1,1,1.5329824000000372,None,,,,,,,,884,22,V,R,2026-02-25_11h16.17.120,VisualSearch_2526_3,,2025.2.4,2026-02-25 11h16.17.346649 +0100,
tilted.xlsx,The target is tilted.,117,119,7,14,1,0,0,0,0,0,0,0,0,0,0,0,0,0,1,117,space,5.804815400000052,None,1,1,0.5701430999999957,None,space,1.9645135999999184,None,0,0,0,0,,,,,14,7,119,3,333.33807449999995,,,,,,,,,,,,,,,,,,,,,333.3227090999999,333.33807449999995,333.8215187999999,333.82588609999993,333.8443178,334.42132730000003,,,,,334.4214757,334.4372762999999,334.6401819,334.6213378,333.8443178,,,,,,,,1,1,0.5701430999999957,None,,,,,,,,884,22,V,R,2026-02-25_11h16.17.120,VisualSearch_2526_3,,2025.2.4,2026-02-25 11h16.17.346649 +0100,
tilted.xlsx,The target is tilted.,117,0,0,0,,,,,,,,,,,,,,,,,space,5.804815400000052,None,,,,,space,1.9645135999999184,None,0,0,0,0,,,,,,,,,,,,,,,,,,,,,,,,,,,,,,,,,,,,,,,,,,,,,,,,,,,,,,,,,,,,,,,884,22,V,R,2026-02-25_11h16.17.120,VisualSearch_2526_3,,2025.2.4,2026-02-25 11h16.17.346649 +0100,
vertical.xlsx,The target is tilted.,135,0,0,0,0,1,1,1,1,1,1,1,1,1,1,1,1,11,12,135,space,4.0614609000001565,None,0,1,2.2691602999998395,None,,,,0,1,1,1,0,0,0,4,,,,,338.73171520000005,,,,,,,,,,,,,,,334.6401819,334.6401819,334.6401819,space,4.0614609000001565,None,338.72740909999993,338.73171520000005,339.21897880000006,339.22418289999996,339.24137589999987,341.5186563,0,1,2.2691602999998395,None,341.518871,341.53403349999985,341.73403200000007,341.7179922,,,,,,,,,,,,,,,,,,,,884,22,V,R,2026-02-25_11h16.17.120,VisualSearch_2526_3,,2025.2.4,2026-02-25 11h16.17.346649 +0100,
vertical.xlsx,The target is tilted.,135,1,1,0,0,0,0,0,0,0,0,0,0,0,0,0,1,1,1,135,space,4.0614609000001565,None,0,1,1.007817599999953,None,,,,0,1,1,1,0,1,1,7,,,,,341.73403200000007,,,,,,,,,,,,,,,,,,,,,341.71864000000005,341.73403200000007,342.2178495999999,342.2222446999999,342.23848499999986,343.25080290000005,0,1,1.007817599999953,None,343.25098879999996,343.2665786,343.46666189999996,343.45064619999994,342.23848499999986,,,,,,,,,,,,,,,,,,,884,22,V,R,2026-02-25_11h16.17.120,VisualSearch_2526_3,,2025.2.4,2026-02-25 11h16.17.346649 +0100,
vertical.xlsx,The target is tilted.,135,2,2,0,1,1,1,1,1,1,1,1,0,0,0,0,0,7,8,135,space,4.0614609000001565,None,1,1,0.7297566000002007,None,,,,0,1,1,1,0,2,2,1,,,,,343.46666189999996,,,,,,,,,,,,,,,,,,,,,343.45138729999985,343.46666189999996,343.95051339999986,343.95529809999994,343.97172249999994,344.71699190000004,1,1,0.7297566000002007,None,344.7171587,344.7326900999999,344.9326833,344.9162268,343.97172249999994,,,,,,,,,,,,,,,,,,,884,22,V,R,2026-02-25_11h16.17.120,VisualSearch_2526_3,,2025.2.4,2026-02-25 11h16.17.346649 +0100,
vertical.xlsx,The target is tilted.,135,3,3,0,0,1,1,1,1,1,1,1,0,0,0,0,1,7,8,135,space,4.0614609000001565,None,0,1,1.448096299999861,None,,,,0,1,1,1,0,3,3,5,,,,,344.9326833,,,,,,,,,,,,,,,,,,,,,344.9169505,344.9326833,345.4164183999999,345.42118529999993,345.4392642,346.8992559999999,0,1,1.448096299999861,None,346.89944160000005,346.91500529999985,347.11493199999995,347.0989118,345.4392642,,,,,,,,,,,,,,,,,,,884,22,V,R,2026-02-25_11h16.17.120,VisualSearch_2526_3,,2025.2.4,2026-02-25 11h16.17.346649 +0100,
vertical.xlsx,The target is tilted.,135,4,4,0,1,0,0,0,0,0,0,0,0,0,0,0,0,0,1,135,space,4.0614609000001565,None,1,1,0.5671979999999621,None,,,,0,1,1,1,0,4,4,3,,,,,347.11493199999995,,,,,,,,,,,,,,,,,,,,,347.09956080000006,347.11493199999995,347.5986361999999,347.6029942,347.6187703999999,348.19872510000005,1,1,0.5671979999999621,None,348.1988953,348.21395259999986,348.41413149999994,348.3979431999999,347.6187703999999,,,,,,,,,,,,,,,,,,,884,22,V,R,2026-02-25_11h16.17.120,VisualSearch_2526_3,,2025.2.4,2026-02-25 11h16.17.346649 +0100,
vertical.xlsx,The target is tilted.,135,5,5,0,1,1,1,1,1,1,1,1,1,1,1,1,0,11,12,135,space,4.0614609000001565,None,1,1,1.2714487000000645,None,,,,0,1,1,1,0,5,5,0,,,,,348.41413149999994,,,,,,,,,,,,,,,,,,,,,348.3985912999999,348.41413149999994,348.89778709999996,348.90219809999985,348.9180939999999,350.1983433999999,1,1,1.2714487000000645,None,350.19855499999994,350.21351860000004,350.4132603999999,350.39751120000005,348.9180939999999,,,,,,,,,,,,,,,,,,,884,22,V,R,2026-02-25_11h16.17.120,VisualSearch_2526_3,,2025.2.4,2026-02-25 11h16.17.346649 +0100,
vertical.xlsx,The target is tilted.,135,6,6,0,0,1,1,1,0,0,0,0,0,0,0,0,1,3,4,135,space,4.0614609000001565,None,0,1,0.7413141999998061,None,,,,0,1,1,1,0,6,6,6,,,,,350.4132603999999,,,,,,,,,,,,,,,,,,,,,350.3982484999999,350.4132603999999,350.89715009999986,350.9015365,350.9193637999999,351.6639531999999,0,1,0.7413141999998061,None,351.66413769999986,351.6794181,351.87950219999993,351.86338539999997,350.9193637999999,,,,,,,,,,,,,,,,,,,884,22,V,R,2026-02-25_11h16.17.120,VisualSearch_2526_3,,2025.2.4,2026-02-25 11h16.17.346649 +0100,
vertical.xlsx,The target is tilted.,135,7,7,0,1,1,1,1,0,0,0,0,0,0,0,0,0,3,4,135,space,4.0614609000001565,None,0,0,0.7006470000001173,None,,,,0,1,1,1,0,7,7,2,,,,,351.87950219999993,,,,,,,,,,,,,,,,,,,,,351.8640364999999,351.87950219999993,352.36301520000006,352.3673882999999,352.3836684999999,353.09661559999995,0,0,0.7006470000001173,None,353.0968028,353.11190869999996,353.3118116999999,353.2960547,352.3836684999999,,,,,,,,,,,,,,,,,,,884,22,V,R,2026-02-25_11h16.17.120,VisualSearch_2526_3,,2025.2.4,2026-02-25 11h16.17.346649 +0100,
vertical.xlsx,The target is tilted.,135,0,0,0,0,0,0,0,0,0,0,0,0,0,0,0,1,1,1,135,space,4.0614609000001565,None,0,1,1.117716900000005,None,space,2.133591999999908,None,0,1,1,1,,,,,0,0,0,7,355.4927911,,,,,,,,,,,,,,,,,,,,,355.4889490999999,355.4927911,355.97775709999996,355.98225679999996,355.99879009999995,357.1280308999999,,,,,357.1282142,357.1433115,357.34360649999985,357.3274842000001,,353.30280419999985,353.3118116999999,353.3118116999999,355.46198490000006,space,2.133591999999908,None,0,1,1.117716900000005,None,,,,,,,,884,22,V,R,2026-02-25_11h16.17.120,VisualSearch_2526_3,,2025.2.4,2026-02-25 11h16.17.346649 +0100,
vertical.xlsx,The target is tilted.,135,1,1,0,1,1,1,1,0,0,0,0,0,0,0,0,0,3,4,135,space,4.0614609000001565,None,1,1,0.7202188000001115,None,space,2.133591999999908,None,0,1,1,1,,,,,0,1,1,2,357.34360649999985,,,,,,,,,,,,,,,,,,,,,357.3281775999999,357.34360649999985,357.8269656,357.8313648000001,357.84697140000003,358.57725949999985,,,,,358.57743329999994,358.5929438999999,358.7928337999999,358.77650900000003,357.84697140000003,,,,,,,,1,1,0.7202188000001115,None,,,,,,,,884,22,V,R,2026-02-25_11h16.17.120,VisualSearch_2526_3,,2025.2.4,2026-02-25 11h16.17.346649 +0100,
vertical.xlsx,The target is tilted.,135,2,2,0,0,1,1,1,1,1,1,1,1,1,1,1,1,11,12,135,space,4.0614609000001565,None,0,1,2.131019900000183,None,space,2.133591999999908,None,0,1,1,1,,,,,0,2,2,4,358.7928337999999,,,,,,,,,,,,,,,,,,,,,358.777286,358.7928337999999,359.27664490000006,359.28110279999987,359.29902620000007,361.4425882999999,,,,,361.44275019999986,361.4584115,361.6582876,361.6417956999999,359.29902620000007,,,,,,,,0,1,2.131019900000183,None,,,,,,,,884,22,V,R,2026-02-25_11h16.17.120,VisualSearch_2526_3,,2025.2.4,2026-02-25 11h16.17.346649 +0100,
vertical.xlsx,The target is tilted.,135,3,3,0,1,0,0,0,0,0,0,0,0,0,0,0,0,0,1,135,space,4.0614609000001565,None,1,1,0.5470224000000599,None,space,2.133591999999908,None,0,1,1,1,,,,,0,3,3,3,361.6582876,,,,,,,,,,,,,,,,,,,,,361.64253689999987,361.6582876,362.14166350000005,362.14605299999994,362.16262729999994,362.72481089999997,,,,,362.7249167,362.7409338,362.94102580000003,362.9249462,362.16262729999994,,,,,,,,1,1,0.5470224000000599,None,,,,,,,,884,22,V,R,2026-02-25_11h16.17.120,VisualSearch_2526_3,,2025.2.4,2026-02-25 11h16.17.346649 +0100,
vertical.xlsx,The target is tilted.,135,4,4,0,1,1,1,1,1,1,1,1,1,1,1,1,0,11,12,135,space,4.0614609000001565,None,1,1,0.7482543999999507,None,space,2.133591999999908,None,0,1,1,1,,,,,0,4,4,0,362.94102580000003,,,,,,,,,,,,,,,,,,,,,362.9257052999999,362.94102580000003,363.42458609999994,363.4290874999999,363.44507150000004,364.20823730000006,,,,,364.20843079999986,364.2236654000001,364.42360570000005,364.40758789999995,363.44507150000004,,,,,,,,1,1,0.7482543999999507,None,,,,,,,,884,22,V,R,2026-02-25_11h16.17.120,VisualSearch_2526_3,,2025.2.4,2026-02-25 11h16.17.346649 +0100,
vertical.xlsx,The target is tilted.,135,5,5,0,0,1,1,1,1,1,1,1,0,0,0,0,1,7,8,135,space,4.0614609000001565,None,0,1,1.1720890999999938,None,space,2.133591999999908,None,0,1,1,1,,,,,0,5,5,5,364.42360570000005,,,,,,,,,,,,,,,,,,,,,364.40829600000006,364.42360570000005,364.9074278999999,364.9118154,364.9289328,366.1073695,,,,,366.10756590000005,366.1229584,366.3225697999999,366.3066845999999,364.9289328,,,,,,,,0,1,1.1720890999999938,None,,,,,,,,884,22,V,R,2026-02-25_11h16.17.120,VisualSearch_2526_3,,2025.2.4,2026-02-25 11h16.17.346649 +0100,
vertical.xlsx,The target is tilted.,135,6,6,0,0,1,1,1,0,0,0,0,0,0,0,0,1,3,4,135,space,4.0614609000001565,None,0,1,0.7457780999998249,None,space,2.133591999999908,None,0,1,1,1,,,,,0,6,6,6,366.3225697999999,,,,,,,,,,,,,,,,,,,,,366.3075286999999,366.3225697999999,366.80656799999997,366.8109488,366.82628840000007,367.5733659,,,,,367.5735582,367.5886728999999,367.78844490000006,367.7726562999999,366.82628840000007,,,,,,,,0,1,0.7457780999998249,None,,,,,,,,884,22,V,R,2026-02-25_11h16.17.120,VisualSearch_2526_3,,2025.2.4,2026-02-25 11h16.17.346649 +0100,
vertical.xlsx,The target is tilted.,135,7,7,0,1,1,1,1,1,1,1,1,0,0,0,0,0,7,8,135,space,4.0614609000001565,None,1,1,1.101617000000033,None,space,2.133591999999908,None,0,1,1,1,,,,,0,7,7,1,367.78844490000006,,,,,,,,,,,,,,,,,,,,,367.77342440000007,367.78844490000006,368.2725905,368.27703440000005,368.29349120000006,369.40589439999985,,,,,369.40609130000007,369.421384,369.6213994,369.60533280000004,368.29349120000006,,,,,,,,1,1,1.101617000000033,None,,,,,,,,884,22,V,R,2026-02-25_11h16.17.120,VisualSearch_2526_3,,2025.2.4,2026-02-25 11h16.17.346649 +0100,
vertical.xlsx,The target is tilted.,135,8,0,1,1,1,1,1,1,1,1,1,0,0,0,0,0,7,8,135,space,4.0614609000001565,None,1,1,0.6493748999998843,None,space,2.133591999999908,None,0,1,1,1,,,,,1,0,8,1,369.6213994,,,,,,,,,,,,,,,,,,,,,369.6061261,369.6213994,370.1051023,370.10949099999993,370.1251133999999,370.7886899,,,,,370.78891410000006,370.8041504999999,371.0040408,370.98792809999986,370.1251133999999,,,,,,,,1,1,0.6493748999998843,None,,,,,,,,884,22,V,R,2026-02-25_11h16.17.120,VisualSearch_2526_3,,2025.2.4,2026-02-25 11h16.17.346649 +0100,
vertical.xlsx,The target is tilted.,135,9,1,1,1,0,0,0,0,0,0,0,0,0,0,0,0,0,1,135,space,4.0614609000001565,None,1,1,0.5553173000000697,None,space,2.133591999999908,None,0,1,1,1,,,,,1,1,9,3,371.0040408,,,,,,,,,,,,,,,,,,,,,370.98870369999986,371.0040408,371.4877927,371.49218989999986,371.5087696999999,372.07132209999986,,,,,372.07151339999996,372.08680619999996,372.28674209999986,372.27074029999994,371.5087696999999,,,,,,,,1,1,0.5553173000000697,None,,,,,,,,884,22,V,R,2026-02-25_11h16.17.120,VisualSearch_2526_3,,2025.2.4,2026-02-25 11h16.17.346649 +0100,
vertical.xlsx,The target is tilted.,135,10,2,1,0,0,0,0,0,0,0,0,0,0,0,0,1,1,1,135,space,4.0614609000001565,None,0,1,0.5509293000000071,None,space,2.133591999999908,None,0,1,1,1,,,,,1,2,10,7,372.28674209999986,,,,,,,,,,,,,,,,,,,,,372.2714447000001,372.28674209999986,372.77040769999985,372.77480119999996,372.78973199999996,373.35383320000005,,,,,373.3540249,373.36964569999986,373.5695412,373.5532684,372.78973199999996,,,,,,,,0,1,0.5509293000000071,None,,,,,,,,884,22,V,R,2026-02-25_11h16.17.120,VisualSearch_2526_3,,2025.2.4,2026-02-25 11h16.17.346649 +0100,
vertical.xlsx,The target is tilted.,135,11,3,1,1,1,1,1,0,0,0,0,0,0,0,0,0,3,4,135,space,4.0614609000001565,None,1,1,0.6269987000000583,None,space,2.133591999999908,None,0,1,1,1,,,,,1,3,11,2,373.5695412,,,,,,,,,,,,,,,,,,,,,373.55398450000007,373.5695412,374.05326560000003,374.057732,374.07403739999995,374.7033466999999,,,,,374.70351989999995,374.71897680000006,374.91902230000005,374.90292249999993,374.07403739999995,,,,,,,,1,1,0.6269987000000583,None,,,,,,,,884,22,V,R,2026-02-25_11h16.17.120,VisualSearch_2526_3,,2025.2.4,2026-02-25 11h16.17.346649 +0100,
vertical.xlsx,The target is tilted.,135,12,4,1,0,1,1,1,1,1,1,1,1,1,1,1,1,11,12,135,space,4.0614609000001565,None,0,1,1.8660168999999769,None,space,2.133591999999908,None,0,1,1,1,,,,,1,4,12,4,374.91902230000005,,,,,,,,,,,,,,,,,,,,,374.90364,374.91902230000005,375.4027120999999,375.40716150000003,375.42350379999993,377.3020365,,,,,377.30223909999995,377.31784990000006,377.5178369999999,377.50171049999994,375.42350379999993,,,,,,,,0,1,1.8660168999999769,None,,,,,,,,884,22,V,R,2026-02-25_11h16.17.120,VisualSearch_2526_3,,2025.2.4,2026-02-25 11h16.17.346649 +0100,
vertical.xlsx,The target is tilted.,135,13,5,1,0,1,1,1,1,1,1,1,0,0,0,0,1,7,8,135,space,4.0614609000001565,None,0,1,0.8367078999999649,None,space,2.133591999999908,None,0,1,1,1,,,,,1,5,13,5,377.5178369999999,,,,,,,,,,,,,,,,,,,,,377.50251230000003,377.5178369999999,378.00150229999986,378.00599439999996,378.0238047,378.86820420000004,,,,,378.8683942,378.88367219999986,379.0836133999999,379.06768009999996,378.0238047,,,,,,,,0,1,0.8367078999999649,None,,,,,,,,884,22,V,R,2026-02-25_11h16.17.120,VisualSearch_2526_3,,2025.2.4,2026-02-25 11h16.17.346649 +0100,
vertical.xlsx,The target is tilted.,135,14,6,1,1,1,1,1,1,1,1,1,1,1,1,1,0,11,12,135,space,4.0614609000001565,None,1,1,0.6690618000000086,None,space,2.133591999999908,None,0,1,1,1,,,,,1,6,14,0,379.0836133999999,,,,,,,,,,,,,,,,,,,,,379.0683878,379.0836133999999,379.5671743999999,379.57161199999996,379.586601,380.26759160000006,,,,,380.2677819999999,380.28286860000003,380.4829265999999,380.46690179999996,379.586601,,,,,,,,1,1,0.6690618000000086,None,,,,,,,,884,22,V,R,2026-02-25_11h16.17.120,VisualSearch_2526_3,,2025.2.4,2026-02-25 11h16.17.346649 +0100,
vertical.xlsx,The target is tilted.,135,15,7,1,0,1,1,1,0,0,0,0,0,0,0,0,1,3,4,135,space,4.0614609000001565,None,0,1,0.6247372000000269,None,space,2.133591999999908,None,0,1,1,1,,,,,1,7,15,6,380.4829265999999,,,,,,,,,,,,,,,,,,,,,380.46764140000005,380.4829265999999,380.96671979999996,380.9712248999999,380.9885783,381.6166452,,,,,381.61683489999996,381.63224709999986,381.8326027999999,381.81640319999997,380.9885783,,,,,,,,0,1,0.6247372000000269,None,,,,,,,,884,22,V,R,2026-02-25_11h16.17.120,VisualSearch_2526_3,,2025.2.4,2026-02-25 11h16.17.346649 +0100,
vertical.xlsx,The target is tilted.,135,16,0,2,1,0,0,0,0,0,0,0,0,0,0,0,0,0,1,135,space,4.0614609000001565,None,1,1,0.6023021999999401,None,space,2.133591999999908,None,0,1,1,1,,,,,2,0,16,3,381.8326027999999,,,,,,,,,,,,,,,,,,,,,381.81722519999994,381.8326027999999,382.3160842,382.32047480000006,382.33550149999996,382.94956209999987,,,,,382.94973690000006,382.96515580000005,383.1651853999999,383.14905499999986,382.33550149999996,,,,,,,,1,1,0.6023021999999401,None,,,,,,,,884,22,V,R,2026-02-25_11h16.17.120,VisualSearch_2526_3,,2025.2.4,2026-02-25 11h16.17.346649 +0100,
vertical.xlsx,The target is tilted.,135,17,1,2,0,1,1,1,1,1,1,1,1,1,1,1,1,11,12,135,space,4.0614609000001565,None,0,1,1.5256354000000556,None,space,2.133591999999908,None,0,1,1,1,,,,,2,1,17,4,383.1651853999999,,,,,,,,,,,,,,,,,,,,,383.14975789999994,383.1651853999999,383.64892859999986,383.6532737,383.66449420000004,385.19873099999995,,,,,385.1989260999999,385.2142351,385.41408009999986,385.3977574999999,383.66449420000004,,,,,,,,0,1,1.5256354000000556,None,,,,,,,,884,22,V,R,2026-02-25_11h16.17.120,VisualSearch_2526_3,,2025.2.4,2026-02-25 11h16.17.346649 +0100,
vertical.xlsx,The target is tilted.,135,18,2,2,1,1,1,1,1,1,1,1,1,1,1,1,0,11,12,135,space,4.0614609000001565,None,0,0,1.4526452999998583,None,space,2.133591999999908,None,0,1,1,1,,,,,2,2,18,0,385.41408009999986,,,,,,,,,,,,,,,,,,,,,385.398494,385.41408009999986,385.8979806,385.9023511999999,385.92042319999996,387.38119729999994,,,,,387.38141199999995,387.39633460000005,387.59651099999996,387.5803724,385.92042319999996,,,,,,,,0,0,1.4526452999998583,None,,,,,,,,884,22,V,R,2026-02-25_11h16.17.120,VisualSearch_2526_3,,2025.2.4,2026-02-25 11h16.17.346649 +0100,
vertical.xlsx,The target is tilted.,135,19,3,2,0,1,1,1,1,1,1,1,0,0,0,0,1,7,8,135,space,4.0614609000001565,None,0,1,0.9139952999998968,None,space,2.133591999999908,None,0,1,1,1,,,,,2,3,19,5,387.59651099999996,,,,,,,,,,,,,,,,,,,,,387.58110250000004,387.59651099999996,388.08004319999986,388.08437950000007,388.0960763999999,389.01332449999995,,,,,389.0135164999999,389.02911990000007,389.2287406999999,389.2131316,388.0960763999999,,,,,,,,0,1,0.9139952999998968,None,,,,,,,,884,22,V,R,2026-02-25_11h16.17.120,VisualSearch_2526_3,,2025.2.4,2026-02-25 11h16.17.346649 +0100,
vertical.xlsx,The target is tilted.,135,20,4,2,0,1,1,1,0,0,0,0,0,0,0,0,1,3,4,135,space,4.0614609000001565,None,0,1,0.5587944999999763,None,space,2.133591999999908,None,0,1,1,1,,,,,2,4,20,6,389.2287406999999,,,,,,,,,,,,,,,,,,,,,389.21388709999997,389.2287406999999,389.71283229999995,389.71723969999994,389.7343008,390.29635899999994,,,,,390.29655260000004,390.3116691,390.51187060000007,390.4957313,389.7343008,,,,,,,,0,1,0.5587944999999763,None,,,,,,,,884,22,V,R,2026-02-25_11h16.17.120,VisualSearch_2526_3,,2025.2.4,2026-02-25 11h16.17.346649 +0100,
vertical.xlsx,The target is tilted.,135,21,5,2,1,1,1,1,1,1,1,1,0,0,0,0,0,7,8,135,space,4.0614609000001565,None,1,1,0.8292708000001312,None,space,2.133591999999908,None,0,1,1,1,,,,,2,5,21,1,390.51187060000007,,,,,,,,,,,,,,,,,,,,,390.49645510000005,390.51187060000007,390.99508249999985,390.9995211999999,391.0164161,391.8623456999999,,,,,391.86253999999985,391.8778236999999,392.0774208999999,392.0612437,391.0164161,,,,,,,,1,1,0.8292708000001312,None,,,,,,,,884,22,V,R,2026-02-25_11h16.17.120,VisualSearch_2526_3,,2025.2.4,2026-02-25 11h16.17.346649 +0100,
vertical.xlsx,The target is tilted.,135,22,6,2,1,1,1,1,0,0,0,0,0,0,0,0,0,3,4,135,space,4.0614609000001565,None,1,1,0.5680683000000499,None,space,2.133591999999908,None,0,1,1,1,,,,,2,6,22,2,392.0774208999999,,,,,,,,,,,,,,,,,,,,,392.0620139,392.0774208999999,392.56149359999995,392.5658888999999,392.5814304999999,393.16144729999996,,,,,393.16162209999993,393.1771567999999,393.3772119999999,393.3611687,392.5814304999999,,,,,,,,1,1,0.5680683000000499,None,,,,,,,,884,22,V,R,2026-02-25_11h16.17.120,VisualSearch_2526_3,,2025.2.4,2026-02-25 11h16.17.346649 +0100,
vertical.xlsx,The target is tilted.,135,23,7,2,0,0,0,0,0,0,0,0,0,0,0,0,1,1,1,135,space,4.0614609000001565,None,0,1,0.5993473000000904,None,space,2.133591999999908,None,0,1,1,1,,,,,2,7,23,7,393.3772119999999,,,,,,,,,,,,,,,,,,,,,393.361887,393.3772119999999,393.8607159999999,393.8651861999999,393.88158610000005,394.4939683,,,,,394.494142,394.51004809999995,394.70951190000005,394.6935977999999,393.88158610000005,,,,,,,,0,1,0.5993473000000904,None,,,,,,,,884,22,V,R,2026-02-25_11h16.17.120,VisualSearch_2526_3,,2025.2.4,2026-02-25 11h16.17.346649 +0100,
vertical.xlsx,The target is tilted.,135,24,0,3,1,1,1,1,1,1,1,1,0,0,0,0,0,7,8,135,space,4.0614609000001565,None,1,1,0.5812516000000869,None,space,2.133591999999908,None,0,1,1,1,,,,,3,0,24,1,394.70951190000005,,,,,,,,,,,,,,,,,,,,,394.69436369999994,394.70951190000005,395.1933812,395.19793060000006,395.21289679999995,395.80993739999985,,,,,395.81012570000007,395.82585730000005,396.025975,396.00991729999987,395.21289679999995,,,,,,,,1,1,0.5812516000000869,None,,,,,,,,884,22,V,R,2026-02-25_11h16.17.120,VisualSearch_2526_3,,2025.2.4,2026-02-25 11h16.17.346649 +0100,
vertical.xlsx,The target is tilted.,135,25,1,3,0,1,1,1,1,1,1,1,0,0,0,0,1,7,8,135,space,4.0614609000001565,None,0,1,0.8719677999999931,None,space,2.133591999999908,None,0,1,1,1,,,,,3,1,25,5,396.025975,,,,,,,,,,,,,,,,,,,,,396.0106206999999,396.025975,396.50975389999985,396.5141678,396.5304678,397.4094444,,,,,397.40964110000004,397.4252509999999,397.62501270000007,397.6093169999999,396.5304678,,,,,,,,0,1,0.8719677999999931,None,,,,,,,,884,22,V,R,2026-02-25_11h16.17.120,VisualSearch_2526_3,,2025.2.4,2026-02-25 11h16.17.346649 +0100,
vertical.xlsx,The target is tilted.,135,26,2,3,0,0,0,0,0,0,0,0,0,0,0,0,1,1,1,135,space,4.0614609000001565,None,0,1,0.5470242999999755,None,space,2.133591999999908,None,0,1,1,1,,,,,3,2,26,7,397.62501270000007,,,,,,,,,,,,,,,,,,,,,397.6100495999999,397.62501270000007,398.1090044,398.1135841,398.13036910000005,398.6925288,,,,,398.6927490999999,398.70816579999996,398.90806759999987,398.89187790000005,398.13036910000005,,,,,,,,0,1,0.5470242999999755,None,,,,,,,,884,22,V,R,2026-02-25_11h16.17.120,VisualSearch_2526_3,,2025.2.4,2026-02-25 11h16.17.346649 +0100,
vertical.xlsx,The target is tilted.,135,27,3,3,0,1,1,1,1,1,1,1,1,1,1,1,1,11,12,135,space,4.0614609000001565,None,0,1,1.9688654000001407,None,space,2.133591999999908,None,0,1,1,1,,,,,3,3,27,4,398.90806759999987,,,,,,,,,,,,,,,,,,,,,398.89259590000006,398.90806759999987,399.39162809999993,399.39614289999986,399.41273439999986,401.3910272999999,,,,,401.3912020999999,401.4064920999999,401.6067490999999,401.59092080000005,399.41273439999986,,,,,,,,0,1,1.9688654000001407,None,,,,,,,,884,22,V,R,2026-02-25_11h16.17.120,VisualSearch_2526_3,,2025.2.4,2026-02-25 11h16.17.346649 +0100,
vertical.xlsx,The target is tilted.,135,28,4,3,1,0,0,0,0,0,0,0,0,0,0,0,0,0,1,135,space,4.0614609000001565,None,1,1,0.4830964000000222,None,space,2.133591999999908,None,0,1,1,1,,,,,3,4,28,3,401.6067490999999,,,,,,,,,,,,,,,,,,,,,401.59177309999995,401.6067490999999,402.0905376999999,402.09559949999993,402.11211520000006,402.60721109999986,,,,,402.6073847,402.6227279,402.8228503,402.8066498999999,402.11211520000006,,,,,,,,1,1,0.4830964000000222,None,,,,,,,,884,22,V,R,2026-02-25_11h16.17.120,VisualSearch_2526_3,,2025.2.4,2026-02-25 11h16.17.346649 +0100,
vertical.xlsx,The target is tilted.,135,29,5,3,0,1,1,1,0,0,0,0,0,0,0,0,1,3,4,135,space,4.0614609000001565,None,0,1,0.6253182999998899,None,space,2.133591999999908,None,0,1,1,1,,,,,3,5,29,6,402.8228503,,,,,,,,,,,,,,,,,,,,,402.8073715999999,402.8228503,403.30620729999987,403.310575,403.32339460000003,403.95627749999994,,,,,403.95640419999995,403.9722078,404.1724572999999,404.1561778,403.32339460000003,,,,,,,,0,1,0.6253182999998899,None,,,,,,,,884,22,V,R,2026-02-25_11h16.17.120,VisualSearch_2526_3,,2025.2.4,2026-02-25 11h16.17.346649 +0100,
vertical.xlsx,The target is tilted.,135,30,6,3,1,1,1,1,1,1,1,1,1,1,1,1,0,11,12,135,space,4.0614609000001565,None,1,1,0.6076982000001863,None,space,2.133591999999908,None,0,1,1,1,,,,,3,6,30,0,404.1724572999999,,,,,,,,,,,,,,,,,,,,,404.15699199999995,404.1724572999999,404.65593220000005,404.66043719999993,404.67795079999996,405.2892569999999,,,,,405.28945049999993,405.3048377,405.50459539999997,405.4889813,404.67795079999996,,,,,,,,1,1,0.6076982000001863,None,,,,,,,,884,22,V,R,2026-02-25_11h16.17.120,VisualSearch_2526_3,,2025.2.4,2026-02-25 11h16.17.346649 +0100,
vertical.xlsx,The target is tilted.,135,31,7,3,1,1,1,1,0,0,0,0,0,0,0,0,0,3,4,135,space,4.0614609000001565,None,1,1,0.5485320000000229,None,space,2.133591999999908,None,0,1,1,1,,,,,3,7,31,2,405.50459539999997,,,,,,,,,,,,,,,,,,,,,405.4897971999999,405.50459539999997,405.9884247,405.99280010000007,406.00921659999995,406.57229039999993,,,,,406.5725049,406.58791199999996,406.78779669999994,406.77133989999993,406.00921659999995,,,,,,,,1,1,0.5485320000000229,None,,,,,,,,884,22,V,R,2026-02-25_11h16.17.120,VisualSearch_2526_3,,2025.2.4,2026-02-25 11h16.17.346649 +0100,
vertical.xlsx,The target is tilted.,135,32,0,4,1,1,1,1,1,1,1,1,1,1,1,1,0,11,12,135,space,4.0614609000001565,None,1,1,0.9425355000000764,None,space,2.133591999999908,None,0,1,1,1,,,,,4,0,32,0,406.78779669999994,,,,,,,,,,,,,,,,,,,,,406.7720855,406.78779669999994,407.27122499999996,407.2757147,407.29236549999996,408.23817329999997,,,,,408.2383654999999,408.2534794999999,408.4535398999999,408.43758409999987,407.29236549999996,,,,,,,,1,1,0.9425355000000764,None,,,,,,,,884,22,V,R,2026-02-25_11h16.17.120,VisualSearch_2526_3,,2025.2.4,2026-02-25 11h16.17.346649 +0100,
vertical.xlsx,The target is tilted.,135,33,1,4,0,0,0,0,0,0,0,0,0,0,0,0,1,1,1,135,space,4.0614609000001565,None,0,1,0.6447871000000305,None,space,2.133591999999908,None,0,1,1,1,,,,,4,1,33,7,408.4535398999999,,,,,,,,,,,,,,,,,,,,,408.43828540000004,408.4535398999999,408.93738669999993,408.9418516999999,408.9593516,409.6202771999999,,,,,409.62045139999987,409.63638279999986,409.8364328,409.8203765999999,408.9593516,,,,,,,,0,1,0.6447871000000305,None,,,,,,,,884,22,V,R,2026-02-25_11h16.17.120,VisualSearch_2526_3,,2025.2.4,2026-02-25 11h16.17.346649 +0100,
vertical.xlsx,The target is tilted.,135,34,2,4,1,1,1,1,0,0,0,0,0,0,0,0,0,3,4,135,space,4.0614609000001565,None,1,1,0.6479954999999791,None,space,2.133591999999908,None,0,1,1,1,,,,,4,2,34,2,409.8364328,,,,,,,,,,,,,,,,,,,,,409.82108629999993,409.8364328,410.3196917999999,410.32413470000006,410.3398422999999,411.0036654999999,,,,,411.0038560999999,411.01905639999995,411.2190696,411.20301670000003,410.3398422999999,,,,,,,,1,1,0.6479954999999791,None,,,,,,,,884,22,V,R,2026-02-25_11h16.17.120,VisualSearch_2526_3,,2025.2.4,2026-02-25 11h16.17.346649 +0100,
vertical.xlsx,The target is tilted.,135,35,3,4,1,1,1,1,1,1,1,1,0,0,0,0,0,7,8,135,space,4.0614609000001565,None,1,1,1.3588890999999421,None,space,2.133591999999908,None,0,1,1,1,,,,,4,3,35,1,411.2190696,,,,,,,,,,,,,,,,,,,,,411.2037255,411.2190696,411.7028708,411.70732099999987,411.72356979999995,413.0857736999999,,,,,413.0859676,413.1012977999999,413.30166080000004,413.2855033999999,411.72356979999995,,,,,,,,1,1,1.3588890999999421,None,,,,,,,,884,22,V,R,2026-02-25_11h16.17.120,VisualSearch_2526_3,,2025.2.4,2026-02-25 11h16.17.346649 +0100,
vertical.xlsx,The target is tilted.,135,36,4,4,0,1,1,1,0,0,0,0,0,0,0,0,1,3,4,135,space,4.0614609000001565,None,0,1,0.6018231000000469,None,space,2.133591999999908,None,0,1,1,1,,,,,4,4,36,6,413.30166080000004,,,,,,,,,,,,,,,,,,,,,413.28635629999985,413.30166080000004,413.78483359999996,413.7892726,413.8072869,414.4182547999999,,,,,414.4183796,414.4340938999999,414.63417849999996,414.6181280999999,413.8072869,,,,,,,,0,1,0.6018231000000469,None,,,,,,,,884,22,V,R,2026-02-25_11h16.17.120,VisualSearch_2526_3,,2025.2.4,2026-02-25 11h16.17.346649 +0100,
