file_name,block_instructions,target_example,thisN,thisTrialN,thisRepN,target_presence,opacity_1,opacity_2,opacity_3,opacity_4,opacity_5,opacity_6,opacity_7,opacity_8,opacity_9,opacity_10,opacity_11,opacity_12,n_distract,n_items,target_ori,key_resp_4.keys,key_resp_4.rt,key_resp_4.duration,key_resp.keys,key_resp.corr,key_resp.rt,key_resp.duration,key_resp_5.keys,key_resp_5.rt,key_resp_5.duration,blocks.thisRepN,blocks.thisTrialN,blocks.thisN,blocks.thisIndex,practice_trials.thisRepN,practice_trials.thisTrialN,practice_trials.thisN,practice_trials.thisIndex,trials.thisRepN,trials.thisTrialN,trials.thisN,trials.thisIndex,thisRow.t,notes,Welcome.started,WelcomeText.started,key_resp_2.started,Welcome.stopped,key_resp_2.keys,key_resp_2.rt,key_resp_2.duration,InformedConsent.started,text_4.started,InformedConsent.stopped,key_resp_6.keys,key_resp_6.rt,key_resp_6.duration,key_resp_4.started,example_target.started,text_3.started,blocks.key_resp_4.keys,blocks.key_resp_4.rt,blocks.key_resp_4.duration,FixCross.started,fixCross.started,FixCross.stopped,Stimulus.started,key_resp.started,Stimulus.stopped,practice_trials.key_resp.keys,practice_trials.key_resp.corr,practice_trials.key_resp.rt,practice_trials.key_resp.duration,BlankScreen.started,text.started,text.stopped,BlankScreen.stopped,fixCross.stopped,ExperimentStart.started,text_2.started,key_resp_5.started,ExperimentStart.stopped,blocks.key_resp_5.keys,blocks.key_resp_5.rt,blocks.key_resp_5.duration,trials.key_resp.keys,trials.key_resp.corr,trials.key_resp.rt,trials.key_resp.duration,Thanks.started,ThankYou.started,key_resp_3.started,Thanks.stopped,key_resp_3.keys,key_resp_3.rt,key_resp_3.duration,participant,leeftijd,gender,links/rechtshandig,date,expName,expVersion,psychopyVersion,expStart,
,,,,,,,,,,,,,,,,,,,,,,,,,,,,,,,,,,,,,,,,,,,,,,0.01587580000023081,0.04501200000004246,0.04501200000004246,41.464002900000196,space,41.40703620000022,None,,,,,,,,,,,,,,,,,,,,,,,,,,,,,,,,,,,,,,,,,,,,,,884,20,M,R,2026-02-18_11h58.41.834,VisualSearch_2526_3,,2025.2.4,2026-02-18 11h58.42.027951 +0100,
,,,,,,,,,,,,,,,,,,,,,,,,,,,,,,,,,,,,,,,,,,,,,,,,,,,,,41.46415359999992,41.47929310000018,62.10448750000023,y,20.630428500000107,None,,,,,,,,,,,,,,,,,,,,,,,,,,,,,,,,,,,,,,,,884,20,M,R,2026-02-18_11h58.41.834,VisualSearch_2526_3,,2025.2.4,2026-02-18 11h58.42.027951 +0100,
vertical.xlsx,The target is tilted.,135,0,0,0,1,1,1,1,1,1,1,1,1,1,1,1,0,11,12,135,space,10.166816899999958,None,1,1,2.1179802999999993,None,,,,0,0,0,1,0,0,0,0,,,,,72.3418059999999,,,,,,,,,,,,,,,62.140829100000246,62.140829100000246,62.140829100000246,space,10.166816899999958,None,72.33673050000016,72.3418059999999,72.83176240000012,72.83681800000022,72.85286880000012,74.98084599999993,1,1,2.1179802999999993,None,74.98093749999998,74.99693539999998,75.19703310000023,75.18083519999982,,,,,,,,,,,,,,,,,,,,884,20,M,R,2026-02-18_11h58.41.834,VisualSearch_2526_3,,2025.2.4,2026-02-18 11h58.42.027951 +0100,
vertical.xlsx,The target is tilted.,135,1,1,0,1,0,0,0,0,0,0,0,0,0,0,0,0,0,1,135,space,10.166816899999958,None,1,1,1.0518100999997841,None,,,,0,0,0,1,0,1,1,3,,,,,75.19703310000023,,,,,,,,,,,,,,,,,,,,,75.18154430000004,75.19703310000023,75.68061080000007,75.68552550000004,75.70257739999988,76.76411820000021,1,1,1.0518100999997841,None,76.76430630000004,76.77963790000013,76.97966140000017,76.96360319999985,75.70257739999988,,,,,,,,,,,,,,,,,,,884,20,M,R,2026-02-18_11h58.41.834,VisualSearch_2526_3,,2025.2.4,2026-02-18 11h58.42.027951 +0100,
vertical.xlsx,The target is tilted.,135,2,2,0,0,0,0,0,0,0,0,0,0,0,0,0,1,1,1,135,space,10.166816899999958,None,0,1,0.781815800000004,None,,,,0,0,0,1,0,2,2,7,,,,,76.97966140000017,,,,,,,,,,,,,,,,,,,,,76.9643215000001,76.97966140000017,77.4632744999999,77.4682542999999,77.48381500000005,78.27946320000001,0,1,0.781815800000004,None,78.27966130000004,78.29513690000022,78.49549759999991,78.47930739999993,77.48381500000005,,,,,,,,,,,,,,,,,,,884,20,M,R,2026-02-18_11h58.41.834,VisualSearch_2526_3,,2025.2.4,2026-02-18 11h58.42.027951 +0100,
vertical.xlsx,The target is tilted.,135,3,3,0,0,1,1,1,1,1,1,1,1,1,1,1,1,11,12,135,space,10.166816899999958,None,0,1,2.408933900000193,None,,,,0,0,0,1,0,3,3,4,,,,,78.49549759999991,,,,,,,,,,,,,,,,,,,,,78.48006759999998,78.49549759999991,78.97902879999992,78.98469849999992,78.9951646999998,81.41197229999989,0,1,2.408933900000193,None,81.41216149999991,81.42701829999987,81.62754459999996,81.61132300000008,78.9951646999998,,,,,,,,,,,,,,,,,,,884,20,M,R,2026-02-18_11h58.41.834,VisualSearch_2526_3,,2025.2.4,2026-02-18 11h58.42.027951 +0100,
vertical.xlsx,The target is tilted.,135,4,4,0,1,1,1,1,1,1,1,1,0,0,0,0,0,7,8,135,space,10.166816899999958,None,0,0,1.2429716999999982,None,,,,0,0,0,1,0,4,4,1,,,,,81.62754459999996,,,,,,,,,,,,,,,,,,,,,81.61208709999983,81.62754459999996,82.1111850000002,82.11602140000014,82.1325111000001,83.3771969999998,0,0,1.2429716999999982,None,83.37733990000015,83.39282839999987,83.59338329999991,83.57718040000009,82.1325111000001,,,,,,,,,,,,,,,,,,,884,20,M,R,2026-02-18_11h58.41.834,VisualSearch_2526_3,,2025.2.4,2026-02-18 11h58.42.027951 +0100,
vertical.xlsx,The target is tilted.,135,5,5,0,1,1,1,1,0,0,0,0,0,0,0,0,0,3,4,135,space,10.166816899999958,None,1,1,0.7503102000000581,None,,,,0,0,0,1,0,5,5,2,,,,,83.59338329999991,,,,,,,,,,,,,,,,,,,,,83.5778436999999,83.59338329999991,84.07688439999993,84.08170669999981,84.09555219999993,84.85985110000001,1,1,0.7503102000000581,None,84.8600707999999,84.87548530000004,85.0758937999999,85.0598328000001,84.09555219999993,,,,,,,,,,,,,,,,,,,884,20,M,R,2026-02-18_11h58.41.834,VisualSearch_2526_3,,2025.2.4,2026-02-18 11h58.42.027951 +0100,
vertical.xlsx,The target is tilted.,135,6,6,0,0,1,1,1,1,1,1,1,0,0,0,0,1,7,8,135,space,10.166816899999958,None,0,1,1.3915243999999802,None,,,,0,0,0,1,0,6,6,5,,,,,85.0758937999999,,,,,,,,,,,,,,,,,,,,,85.06063700000004,85.0758937999999,85.55940550000014,85.56428779999987,85.57965379999996,86.97602599999982,0,1,1.3915243999999802,None,86.9762040999999,86.99125270000013,87.19160969999984,87.1754847000002,85.57965379999996,,,,,,,,,,,,,,,,,,,884,20,M,R,2026-02-18_11h58.41.834,VisualSearch_2526_3,,2025.2.4,2026-02-18 11h58.42.027951 +0100,
vertical.xlsx,The target is tilted.,135,7,7,0,0,1,1,1,0,0,0,0,0,0,0,0,1,3,4,135,space,10.166816899999958,None,0,1,0.7667602000001352,None,,,,0,0,0,1,0,7,7,6,,,,,87.19160969999984,,,,,,,,,,,,,,,,,,,,,87.17621310000004,87.19160969999984,87.67530290000013,87.68056590000015,87.6955081000001,88.47440610000012,0,1,0.7667602000001352,None,88.47453929999983,88.4904977000001,88.69098380000014,88.67484449999984,87.6955081000001,,,,,,,,,,,,,,,,,,,884,20,M,R,2026-02-18_11h58.41.834,VisualSearch_2526_3,,2025.2.4,2026-02-18 11h58.42.027951 +0100,
vertical.xlsx,The target is tilted.,135,0,0,0,0,0,0,0,0,0,0,0,0,0,0,0,1,1,1,135,space,10.166816899999958,None,0,1,1.1447053000001688,None,space,5.730091899999934,None,0,0,0,1,,,,,0,0,0,7,94.45142350000015,,,,,,,,,,,,,,,,,,,,,94.44756529999995,94.45142350000015,94.9384841000001,94.94338319999997,94.9585920999998,96.10545420000017,,,,,96.10570370000005,96.12042810000003,96.32078469999988,96.3046847999999,,88.68227690000003,88.69098380000014,88.69098380000014,94.42254580000008,space,5.730091899999934,None,0,1,1.1447053000001688,None,,,,,,,,884,20,M,R,2026-02-18_11h58.41.834,VisualSearch_2526_3,,2025.2.4,2026-02-18 11h58.42.027951 +0100,
vertical.xlsx,The target is tilted.,135,1,1,0,1,0,0,0,0,0,0,0,0,0,0,0,0,0,1,135,space,10.166816899999958,None,1,1,0.5274193000000196,None,space,5.730091899999934,None,0,0,0,1,,,,,0,1,1,3,96.32078469999988,,,,,,,,,,,,,,,,,,,,,96.3054646999999,96.32078469999988,96.80415579999999,96.80889849999994,96.82441460000018,97.35492160000013,,,,,97.35516760000019,97.36979139999994,97.57027199999993,97.55415140000014,96.82441460000018,,,,,,,,1,1,0.5274193000000196,None,,,,,,,,884,20,M,R,2026-02-18_11h58.41.834,VisualSearch_2526_3,,2025.2.4,2026-02-18 11h58.42.027951 +0100,
vertical.xlsx,The target is tilted.,135,2,2,0,1,1,1,1,1,1,1,1,1,1,1,1,0,11,12,135,space,10.166816899999958,None,1,1,1.226306300000033,None,space,5.730091899999934,None,0,0,0,1,,,,,0,2,2,0,97.57027199999993,,,,,,,,,,,,,,,,,,,,,97.55489510000007,97.57027199999993,98.0536105000001,98.05796770000006,98.07419530000016,99.30324920000021,,,,,99.30337969999982,99.3188352000002,99.51937739999994,99.50344589999986,98.07419530000016,,,,,,,,1,1,1.226306300000033,None,,,,,,,,884,20,M,R,2026-02-18_11h58.41.834,VisualSearch_2526_3,,2025.2.4,2026-02-18 11h58.42.027951 +0100,
vertical.xlsx,The target is tilted.,135,3,3,0,1,1,1,1,1,1,1,1,0,0,0,0,0,7,8,135,space,10.166816899999958,None,0,0,1.4935359000000972,None,space,5.730091899999934,None,0,0,0,1,,,,,0,3,3,1,99.51937739999994,,,,,,,,,,,,,,,,,,,,,99.50427480000008,99.51937739999994,100.00248139999985,100.00462779999998,100.01887369999986,101.51959679999982,,,,,101.51979660000006,101.53462500000023,101.73453819999986,101.71873770000002,100.01887369999986,,,,,,,,0,0,1.4935359000000972,None,,,,,,,,884,20,M,R,2026-02-18_11h58.41.834,VisualSearch_2526_3,,2025.2.4,2026-02-18 11h58.42.027951 +0100,
vertical.xlsx,The target is tilted.,135,4,4,0,0,1,1,1,1,1,1,1,0,0,0,0,1,7,8,135,space,10.166816899999958,None,0,1,2.564017000000149,None,space,5.730091899999934,None,0,0,0,1,,,,,0,4,4,5,101.73453819999986,,,,,,,,,,,,,,,,,,,,,101.71984389999989,101.73453819999986,102.2185316,102.22341520000009,102.23708369999986,104.81667310000012,,,,,104.81677459999992,104.83340940000016,,105.01711040000009,102.23708369999986,,,,,,,,0,1,2.564017000000149,None,,,,,,,,884,20,M,R,2026-02-18_11h58.41.834,VisualSearch_2526_3,,2025.2.4,2026-02-18 11h58.42.027951 +0100,
vertical.xlsx,The target is tilted.,135,5,5,0,1,1,1,1,0,0,0,0,0,0,0,0,0,3,4,135,space,10.166816899999958,None,1,1,0.6401068999998643,None,space,5.730091899999934,None,0,0,0,1,,,,,0,5,5,2,105.03359980000005,,,,,,,,,,,,,,,,,,,,,105.01785319999999,105.03359980000005,105.51699710000003,105.5219932,105.53797470000018,106.18396350000012,,,,,106.18416230000003,106.1991253000001,106.39952170000015,106.38349280000011,,,,,,,,,1,1,0.6401068999998643,None,,,,,,,,884,20,M,R,2026-02-18_11h58.41.834,VisualSearch_2526_3,,2025.2.4,2026-02-18 11h58.42.027951 +0100,
vertical.xlsx,The target is tilted.,135,6,6,0,0,1,1,1,0,0,0,0,0,0,0,0,1,3,4,135,space,10.166816899999958,None,0,1,1.1132470999996258,None,space,5.730091899999934,None,0,0,0,1,,,,,0,6,6,6,106.39952170000015,,,,,,,,,,,,,,,,,,,,,106.38422010000022,106.39952170000015,106.88318299999992,106.88815190000014,106.90154650000022,108.01618580000013,,,,,108.01632729999983,108.03163429999995,108.23209059999999,108.21599120000019,106.90154650000022,,,,,,,,0,1,1.1132470999996258,None,,,,,,,,884,20,M,R,2026-02-18_11h58.41.834,VisualSearch_2526_3,,2025.2.4,2026-02-18 11h58.42.027951 +0100,
vertical.xlsx,The target is tilted.,135,7,7,0,0,1,1,1,1,1,1,1,1,1,1,1,1,11,12,135,space,10.166816899999958,None,0,1,2.574689099999887,None,space,5.730091899999934,None,0,0,0,1,,,,,0,7,7,4,108.23209059999999,,,,,,,,,,,,,,,,,,,,,108.21671830000014,108.23209059999999,108.7158571,108.72111300000006,108.73709680000002,111.31452530000024,,,,,111.31467389999989,111.32986540000002,111.53025800000023,111.51450119999981,108.73709680000002,,,,,,,,0,1,2.574689099999887,None,,,,,,,,884,20,M,R,2026-02-18_11h58.41.834,VisualSearch_2526_3,,2025.2.4,2026-02-18 11h58.42.027951 +0100,
vertical.xlsx,The target is tilted.,135,8,0,1,1,1,1,1,0,0,0,0,0,0,0,0,0,3,4,135,space,10.166816899999958,None,1,1,1.006845500000054,None,space,5.730091899999934,None,0,0,0,1,,,,,1,0,8,2,111.53025800000023,,,,,,,,,,,,,,,,,,,,,111.51524319999999,111.53025800000023,112.01368730000013,112.01592889999984,112.02984060000017,113.04649199999994,,,,,113.0465892000002,113.0624315,113.26312880000023,113.24689249999983,112.02984060000017,,,,,,,,1,1,1.006845500000054,None,,,,,,,,884,20,M,R,2026-02-18_11h58.41.834,VisualSearch_2526_3,,2025.2.4,2026-02-18 11h58.42.027951 +0100,
vertical.xlsx,The target is tilted.,135,9,1,1,1,1,1,1,1,1,1,1,1,1,1,1,0,11,12,135,space,10.166816899999958,None,1,1,1.1770732999998472,None,space,5.730091899999934,None,0,0,0,1,,,,,1,1,9,0,113.26312880000023,,,,,,,,,,,,,,,,,,,,,113.2476443999999,113.26312880000023,113.74685050000016,113.75154870000006,113.76279049999994,114.9465280999998,,,,,114.94671190000008,114.96179840000013,115.16231299999981,115.14617980000003,113.76279049999994,,,,,,,,1,1,1.1770732999998472,None,,,,,,,,884,20,M,R,2026-02-18_11h58.41.834,VisualSearch_2526_3,,2025.2.4,2026-02-18 11h58.42.027951 +0100,
vertical.xlsx,The target is tilted.,135,10,2,1,0,1,1,1,0,0,0,0,0,0,0,0,1,3,4,135,space,10.166816899999958,None,0,1,0.9158195999998497,None,space,5.730091899999934,None,0,0,0,1,,,,,1,2,10,6,115.16231299999981,,,,,,,,,,,,,,,,,,,,,115.14691099999982,115.16231299999981,115.64591389999987,115.65070689999993,115.6672822999999,116.59546760000012,,,,,116.59570949999988,116.61106680000012,116.81146489999992,116.7953934000002,115.6672822999999,,,,,,,,0,1,0.9158195999998497,None,,,,,,,,884,20,M,R,2026-02-18_11h58.41.834,VisualSearch_2526_3,,2025.2.4,2026-02-18 11h58.42.027951 +0100,
vertical.xlsx,The target is tilted.,135,11,3,1,0,1,1,1,1,1,1,1,0,0,0,0,1,7,8,135,space,10.166816899999958,None,0,1,1.715332600000238,None,space,5.730091899999934,None,0,0,0,1,,,,,1,3,11,5,116.81146489999992,,,,,,,,,,,,,,,,,,,,,116.79663140000002,116.81146489999992,117.29521669999986,117.29995890000009,117.31371709999985,119.04424770000014,,,,,119.04446629999984,119.05999639999982,119.26041880000002,119.2442629000002,117.31371709999985,,,,,,,,0,1,1.715332600000238,None,,,,,,,,884,20,M,R,2026-02-18_11h58.41.834,VisualSearch_2526_3,,2025.2.4,2026-02-18 11h58.42.027951 +0100,
vertical.xlsx,The target is tilted.,135,12,4,1,1,0,0,0,0,0,0,0,0,0,0,0,0,0,1,135,space,10.166816899999958,None,1,1,0.5282531000002564,None,space,5.730091899999934,None,0,0,0,1,,,,,1,4,12,3,119.26041880000002,,,,,,,,,,,,,,,,,,,,,119.24507420000009,119.26041880000002,119.74379660000022,119.74876769999992,119.76376429999982,120.29388680000011,,,,,120.29408580000018,120.30940950000013,120.50983159999987,120.49364620000006,119.76376429999982,,,,,,,,1,1,0.5282531000002564,None,,,,,,,,884,20,M,R,2026-02-18_11h58.41.834,VisualSearch_2526_3,,2025.2.4,2026-02-18 11h58.42.027951 +0100,
vertical.xlsx,The target is tilted.,135,13,5,1,1,1,1,1,1,1,1,1,0,0,0,0,0,7,8,135,space,10.166816899999958,None,1,1,0.7353016000001844,None,space,5.730091899999934,None,0,0,0,1,,,,,1,5,13,1,120.50983159999987,,,,,,,,,,,,,,,,,,,,,120.49440490000006,120.50983159999987,120.99358900000016,120.99846819999993,121.01199499999984,121.75931390000005,,,,,121.7594508000002,121.77574670000013,121.97587010000007,121.95961820000002,121.01199499999984,,,,,,,,1,1,0.7353016000001844,None,,,,,,,,884,20,M,R,2026-02-18_11h58.41.834,VisualSearch_2526_3,,2025.2.4,2026-02-18 11h58.42.027951 +0100,
vertical.xlsx,The target is tilted.,135,14,6,1,0,0,0,0,0,0,0,0,0,0,0,0,1,1,1,135,space,10.166816899999958,None,0,1,0.6043414999999186,None,space,5.730091899999934,None,0,0,0,1,,,,,1,6,14,7,121.97587010000007,,,,,,,,,,,,,,,,,,,,,121.96040570000014,121.97587010000007,122.4593375999998,122.46417139999994,122.47897169999987,123.09282190000022,,,,,123.09295239999983,123.1078935999999,123.30821939999987,123.29249489999984,122.47897169999987,,,,,,,,0,1,0.6043414999999186,None,,,,,,,,884,20,M,R,2026-02-18_11h58.41.834,VisualSearch_2526_3,,2025.2.4,2026-02-18 11h58.42.027951 +0100,
vertical.xlsx,The target is tilted.,135,15,7,1,0,1,1,1,1,1,1,1,1,1,1,1,1,11,12,135,space,10.166816899999958,None,0,1,2.9371516000001066,None,space,5.730091899999934,None,0,0,0,1,,,,,1,7,15,4,123.30821939999987,,,,,,,,,,,,,,,,,,,,,123.29323250000016,123.30821939999987,123.79213900000013,123.79707159999998,123.81271449999986,126.7581252,,,,,126.75832500000024,126.77318560000003,126.97349919999988,126.95741039999984,123.81271449999986,,,,,,,,0,1,2.9371516000001066,None,,,,,,,,884,20,M,R,2026-02-18_11h58.41.834,VisualSearch_2526_3,,2025.2.4,2026-02-18 11h58.42.027951 +0100,
vertical.xlsx,The target is tilted.,135,16,0,2,1,0,0,0,0,0,0,0,0,0,0,0,0,0,1,135,space,10.166816899999958,None,1,1,0.5994722000000365,None,space,5.730091899999934,None,0,0,0,1,,,,,2,0,16,3,126.97349919999988,,,,,,,,,,,,,,,,,,,,,126.9581745999999,126.97349919999988,127.45728999999983,127.46199569999999,127.47317350000003,128.07342440000002,,,,,128.07351659999995,128.0890516999998,128.28963310000017,128.27368620000016,127.47317350000003,,,,,,,,1,1,0.5994722000000365,None,,,,,,,,884,20,M,R,2026-02-18_11h58.41.834,VisualSearch_2526_3,,2025.2.4,2026-02-18 11h58.42.027951 +0100,
vertical.xlsx,The target is tilted.,135,17,1,2,0,0,0,0,0,0,0,0,0,0,0,0,1,1,1,135,space,10.166816899999958,None,0,1,1.0961422000000312,None,space,5.730091899999934,None,0,0,0,1,,,,,2,1,17,7,128.28963310000017,,,,,,,,,,,,,,,,,,,,,128.2745120999998,128.28963310000017,128.77334299999984,128.77830919999997,128.79541770000014,129.9056697000001,,,,,129.9058341,129.92171139999982,130.1222114000002,130.10606599999983,128.79541770000014,,,,,,,,0,1,1.0961422000000312,None,,,,,,,,884,20,M,R,2026-02-18_11h58.41.834,VisualSearch_2526_3,,2025.2.4,2026-02-18 11h58.42.027951 +0100,
vertical.xlsx,The target is tilted.,135,18,2,2,0,1,1,1,1,1,1,1,0,0,0,0,1,7,8,135,space,10.166816899999958,None,0,1,1.0457938999998078,None,space,5.730091899999934,None,0,0,0,1,,,,,2,2,18,5,130.1222114000002,,,,,,,,,,,,,,,,,,,,,130.10678730000018,130.1222114000002,130.6057012000001,130.61053089999996,130.62443359999997,131.67255320000004,,,,,131.67278299999998,131.6876044999999,131.8881749000002,131.8719415999999,130.62443359999997,,,,,,,,0,1,1.0457938999998078,None,,,,,,,,884,20,M,R,2026-02-18_11h58.41.834,VisualSearch_2526_3,,2025.2.4,2026-02-18 11h58.42.027951 +0100,
vertical.xlsx,The target is tilted.,135,19,3,2,0,1,1,1,0,0,0,0,0,0,0,0,1,3,4,135,space,10.166816899999958,None,0,1,0.7285228999999163,None,space,5.730091899999934,None,0,0,0,1,,,,,2,3,19,6,131.8881749000002,,,,,,,,,,,,,,,,,,,,,131.87266510000018,131.8881749000002,132.37136469999996,132.37635330000012,132.3927345000002,133.13722020000023,,,,,133.1373263999999,133.15405039999996,,133.3377261999999,132.3927345000002,,,,,,,,0,1,0.7285228999999163,None,,,,,,,,884,20,M,R,2026-02-18_11h58.41.834,VisualSearch_2526_3,,2025.2.4,2026-02-18 11h58.42.027951 +0100,
vertical.xlsx,The target is tilted.,135,20,4,2,0,1,1,1,1,1,1,1,1,1,1,1,1,11,12,135,space,10.166816899999958,None,0,1,1.6414333999996416,None,space,5.730091899999934,None,0,0,0,1,,,,,2,4,20,4,133.3539897999999,,,,,,,,,,,,,,,,,,,,,133.33850759999996,133.3539897999999,133.8374819999999,133.8424740999999,133.8578425999999,135.50345560000005,,,,,135.50365650000003,135.5191552000001,135.71955759999992,135.70363180000004,,,,,,,,,0,1,1.6414333999996416,None,,,,,,,,884,20,M,R,2026-02-18_11h58.41.834,VisualSearch_2526_3,,2025.2.4,2026-02-18 11h58.42.027951 +0100,
vertical.xlsx,The target is tilted.,135,21,5,2,1,1,1,1,1,1,1,1,0,0,0,0,0,7,8,135,space,10.166816899999958,None,1,1,0.726064999999835,None,space,5.730091899999934,None,0,0,0,1,,,,,2,5,21,1,135.71955759999992,,,,,,,,,,,,,,,,,,,,,135.70437140000013,135.71955759999992,136.2033078999998,136.20819239999992,136.22377959999994,136.95268750000014,,,,,136.9528166,136.96829660000003,137.16889450000008,137.15274880000015,136.22377959999994,,,,,,,,1,1,0.726064999999835,None,,,,,,,,884,20,M,R,2026-02-18_11h58.41.834,VisualSearch_2526_3,,2025.2.4,2026-02-18 11h58.42.027951 +0100,
vertical.xlsx,The target is tilted.,135,22,6,2,1,1,1,1,0,0,0,0,0,0,0,0,0,3,4,135,space,10.166816899999958,None,1,1,0.563336100000015,None,space,5.730091899999934,None,0,0,0,1,,,,,2,6,22,2,137.16889450000008,,,,,,,,,,,,,,,,,,,,,137.153499,137.16889450000008,137.65260320000016,137.65752789999988,137.67215350000015,138.2522881,,,,,138.25252349999982,138.26795549999997,138.46810490000007,138.4522176999999,137.67215350000015,,,,,,,,1,1,0.563336100000015,None,,,,,,,,884,20,M,R,2026-02-18_11h58.41.834,VisualSearch_2526_3,,2025.2.4,2026-02-18 11h58.42.027951 +0100,
vertical.xlsx,The target is tilted.,135,23,7,2,1,1,1,1,1,1,1,1,1,1,1,1,0,11,12,135,space,10.166816899999958,None,1,1,1.1411999000001742,None,space,5.730091899999934,None,0,0,0,1,,,,,2,7,23,0,138.46810490000007,,,,,,,,,,,,,,,,,,,,,138.45297900000014,138.46810490000007,138.95206280000002,138.95661090000021,138.9679304000001,140.1181802000001,,,,,140.11891109999988,140.1337699999999,140.33418170000004,140.31800639999983,138.9679304000001,,,,,,,,1,1,1.1411999000001742,None,,,,,,,,884,20,M,R,2026-02-18_11h58.41.834,VisualSearch_2526_3,,2025.2.4,2026-02-18 11h58.42.027951 +0100,
vertical.xlsx,The target is tilted.,135,24,0,3,0,1,1,1,1,1,1,1,0,0,0,0,1,7,8,135,space,10.166816899999958,None,1,0,1.9177028999997674,None,space,5.730091899999934,None,0,0,0,1,,,,,3,0,24,5,140.33418170000004,,,,,,,,,,,,,,,,,,,,,140.31878629999983,140.33418170000004,140.81791930000009,140.82265199999983,140.83408310000004,142.7662303000002,,,,,142.76634280000007,142.78282179999997,,142.9666103999998,140.83408310000004,,,,,,,,1,0,1.9177028999997674,None,,,,,,,,884,20,M,R,2026-02-18_11h58.41.834,VisualSearch_2526_3,,2025.2.4,2026-02-18 11h58.42.027951 +0100,
vertical.xlsx,The target is tilted.,135,25,1,3,0,0,0,0,0,0,0,0,0,0,0,0,1,1,1,135,space,10.166816899999958,None,0,1,0.5812477999998009,None,space,5.730091899999934,None,0,0,0,1,,,,,3,1,25,7,142.9824539000001,,,,,,,,,,,,,,,,,,,,,142.96736139999985,142.9824539000001,143.46654050000006,143.47182509999993,143.48704589999988,144.0825918999999,,,,,144.08273109999982,144.0986309,144.2988564000002,144.28290920000018,,,,,,,,,0,1,0.5812477999998009,None,,,,,,,,884,20,M,R,2026-02-18_11h58.41.834,VisualSearch_2526_3,,2025.2.4,2026-02-18 11h58.42.027951 +0100,
vertical.xlsx,The target is tilted.,135,26,2,3,0,1,1,1,1,1,1,1,1,1,1,1,1,11,12,135,space,10.166816899999958,None,0,1,2.6886374000000615,None,space,5.730091899999934,None,0,0,0,1,,,,,3,2,26,4,144.2988564000002,,,,,,,,,,,,,,,,,,,,,144.28366899999992,144.2988564000002,144.7827041999999,144.7875927,144.80082249999987,147.49804350000022,,,,,147.49814879999985,147.51363559999982,147.71424320000006,147.69796129999986,144.80082249999987,,,,,,,,0,1,2.6886374000000615,None,,,,,,,,884,20,M,R,2026-02-18_11h58.41.834,VisualSearch_2526_3,,2025.2.4,2026-02-18 11h58.42.027951 +0100,
vertical.xlsx,The target is tilted.,135,27,3,3,1,0,0,0,0,0,0,0,0,0,0,0,0,0,1,135,space,10.166816899999958,None,1,1,0.5081761000001279,None,space,5.730091899999934,None,0,0,0,1,,,,,3,3,27,3,147.71424320000006,,,,,,,,,,,,,,,,,,,,,147.6987680000002,147.71424320000006,148.19755029999988,148.2024339999998,148.21789549999994,148.7314110000002,,,,,148.73162439999987,148.7464417000001,148.94702330000018,148.93079230000012,148.21789549999994,,,,,,,,1,1,0.5081761000001279,None,,,,,,,,884,20,M,R,2026-02-18_11h58.41.834,VisualSearch_2526_3,,2025.2.4,2026-02-18 11h58.42.027951 +0100,
vertical.xlsx,The target is tilted.,135,28,4,3,1,1,1,1,0,0,0,0,0,0,0,0,0,3,4,135,space,10.166816899999958,None,1,1,0.5932793000001766,None,space,5.730091899999934,None,0,0,0,1,,,,,3,4,28,2,148.94702330000018,,,,,,,,,,,,,,,,,,,,,148.93153170000005,148.94702330000018,149.43061450000005,149.43556290000015,149.44984720000002,150.04729869999983,,,,,150.04749619999984,150.06259009999985,150.2630334999999,150.2468690999999,149.44984720000002,,,,,,,,1,1,0.5932793000001766,None,,,,,,,,884,20,M,R,2026-02-18_11h58.41.834,VisualSearch_2526_3,,2025.2.4,2026-02-18 11h58.42.027951 +0100,
vertical.xlsx,The target is tilted.,135,29,5,3,1,1,1,1,1,1,1,1,1,1,1,1,0,11,12,135,space,10.166816899999958,None,1,1,0.7155563000001166,None,space,5.730091899999934,None,0,0,0,1,,,,,3,5,29,0,150.2630334999999,,,,,,,,,,,,,,,,,,,,,150.24763660000008,150.2630334999999,150.7466328999999,150.75154410000005,150.7683176999999,151.49678559999984,,,,,151.49698669999998,151.512025,151.71233269999993,151.6962023000001,150.7683176999999,,,,,,,,1,1,0.7155563000001166,None,,,,,,,,884,20,M,R,2026-02-18_11h58.41.834,VisualSearch_2526_3,,2025.2.4,2026-02-18 11h58.42.027951 +0100,
vertical.xlsx,The target is tilted.,135,30,6,3,0,1,1,1,0,0,0,0,0,0,0,0,1,3,4,135,space,10.166816899999958,None,0,1,1.1193459999999504,None,space,5.730091899999934,None,0,0,0,1,,,,,3,6,30,6,151.71233269999993,,,,,,,,,,,,,,,,,,,,,151.69698299999982,151.71233269999993,152.1962423,152.2016736999999,152.21498639999982,153.3460971999998,,,,,153.34629829999994,153.36103120000007,153.5611743999998,153.54533760000004,152.21498639999982,,,,,,,,0,1,1.1193459999999504,None,,,,,,,,884,20,M,R,2026-02-18_11h58.41.834,VisualSearch_2526_3,,2025.2.4,2026-02-18 11h58.42.027951 +0100,
vertical.xlsx,The target is tilted.,135,31,7,3,1,1,1,1,1,1,1,1,0,0,0,0,0,7,8,135,space,10.166816899999958,None,1,1,1.0546885999997357,None,space,5.730091899999934,None,0,0,0,1,,,,,3,7,31,1,153.5611743999998,,,,,,,,,,,,,,,,,,,,,153.54609410000012,153.5611743999998,154.04517110000006,154.05009539999992,154.06552740000006,155.12797799999998,,,,,155.1281597000002,155.14354559999992,155.3440102999998,155.32786080000005,154.06552740000006,,,,,,,,1,1,1.0546885999997357,None,,,,,,,,884,20,M,R,2026-02-18_11h58.41.834,VisualSearch_2526_3,,2025.2.4,2026-02-18 11h58.42.027951 +0100,
vertical.xlsx,The target is tilted.,135,32,0,4,1,1,1,1,0,0,0,0,0,0,0,0,0,3,4,135,space,10.166816899999958,None,1,1,0.9820746999998846,None,space,5.730091899999934,None,0,0,0,1,,,,,4,0,32,2,155.3440102999998,,,,,,,,,,,,,,,,,,,,,155.32860699999992,155.3440102999998,155.82777110000006,155.83269269999982,155.84792909999987,156.84374449999996,,,,,156.84392320000006,156.85951190000014,157.05954740000016,157.04365270000017,155.84792909999987,,,,,,,,1,1,0.9820746999998846,None,,,,,,,,884,20,M,R,2026-02-18_11h58.41.834,VisualSearch_2526_3,,2025.2.4,2026-02-18 11h58.42.027951 +0100,
vertical.xlsx,The target is tilted.,135,33,1,4,0,1,1,1,0,0,0,0,0,0,0,0,1,3,4,135,space,10.166816899999958,None,0,1,0.7701173000000381,None,space,5.730091899999934,None,0,0,0,1,,,,,4,1,33,6,157.05954740000016,,,,,,,,,,,,,,,,,,,,,157.0444250999999,157.05954740000016,157.54362219999985,157.54851689999987,157.56587649999983,158.3438132000001,,,,,158.34401040000012,158.3588221,158.55910499999982,158.54291569999987,157.56587649999983,,,,,,,,0,1,0.7701173000000381,None,,,,,,,,884,20,M,R,2026-02-18_11h58.41.834,VisualSearch_2526_3,,2025.2.4,2026-02-18 11h58.42.027951 +0100,
vertical.xlsx,The target is tilted.,135,34,2,4,0,0,0,0,0,0,0,0,0,0,0,0,1,1,1,135,space,10.166816899999958,None,0,1,0.6305299000000559,None,space,5.730091899999934,None,0,0,0,1,,,,,4,2,34,7,158.55910499999982,,,,,,,,,,,,,,,,,,,,,158.54373149999992,158.55910499999982,159.0428181000002,159.0476523000002,159.06459339999992,159.70854390000022,,,,,159.70864819999997,159.72517530000005,159.9253577999998,159.90880640000023,159.06459339999992,,,,,,,,0,1,0.6305299000000559,None,,,,,,,,884,20,M,R,2026-02-18_11h58.41.834,VisualSearch_2526_3,,2025.2.4,2026-02-18 11h58.42.027951 +0100,
vertical.xlsx,The target is tilted.,135,35,3,4,1,1,1,1,1,1,1,1,1,1,1,1,0,11,12,135,space,10.166816899999958,None,1,1,2.3754358999999567,None,space,5.730091899999934,None,0,0,0,1,,,,,4,3,35,0,159.9253577999998,,,,,,,,,,,,,,,,,,,,,159.90962290000016,159.9253577999998,160.40864610000017,160.41345349999983,160.42936270000018,162.80779949999987,,,,,162.8079716000002,162.82347740000023,163.0238445,163.00801309999997,160.42936270000018,,,,,,,,1,1,2.3754358999999567,None,,,,,,,,884,20,M,R,2026-02-18_11h58.41.834,VisualSearch_2526_3,,2025.2.4,2026-02-18 11h58.42.027951 +0100,
vertical.xlsx,The target is tilted.,135,36,4,4,0,1,1,1,1,1,1,1,1,1,1,1,1,11,12,135,space,10.166816899999958,None,0,1,2.6030507999998918,None,space,5.730091899999934,None,0,0,0,1,,,,,4,4,36,4,163.0238445,,,,,,,,,,,,,,,,,,,,,163.00871300000017,163.0238445,163.50733820000005,163.5123020000001,163.52723379999998,166.14021619999994,,,,,166.14043700000002,166.15529749999996,166.3554723000002,166.3394145000002,163.52723379999998,,,,,,,,0,1,2.6030507999998918,None,,,,,,,,884,20,M,R,2026-02-18_11h58.41.834,VisualSearch_2526_3,,2025.2.4,2026-02-18 11h58.42.027951 +0100,
vertical.xlsx,The target is tilted.,135,37,5,4,1,0,0,0,0,0,0,0,0,0,0,0,0,0,1,135,space,10.166816899999958,None,1,1,0.4964007000003221,None,space,5.730091899999934,None,0,0,0,1,,,,,4,5,37,3,166.3554723000002,,,,,,,,,,,,,,,,,,,,,166.34017029999995,166.3554723000002,166.83906230000002,166.84400719999985,166.8588697,167.37239120000004,,,,,167.3726219,167.3880349000001,167.5882673000001,167.57223759999988,166.8588697,,,,,,,,1,1,0.4964007000003221,None,,,,,,,,884,20,M,R,2026-02-18_11h58.41.834,VisualSearch_2526_3,,2025.2.4,2026-02-18 11h58.42.027951 +0100,
vertical.xlsx,The target is tilted.,135,38,6,4,1,1,1,1,1,1,1,1,0,0,0,0,0,7,8,135,space,10.166816899999958,None,1,1,1.1183782000002793,None,space,5.730091899999934,None,0,0,0,1,,,,,4,6,38,1,167.5882673000001,,,,,,,,,,,,,,,,,,,,,167.57297070000004,167.5882673000001,168.072228,168.07703040000024,168.08794369999987,169.2214512999999,,,,,169.22163120000005,169.23716939999986,169.4378339,169.4217107999998,168.08794369999987,,,,,,,,1,1,1.1183782000002793,None,,,,,,,,884,20,M,R,2026-02-18_11h58.41.834,VisualSearch_2526_3,,2025.2.4,2026-02-18 11h58.42.027951 +0100,
vertical.xlsx,The target is tilted.,135,39,7,4,0,1,1,1,1,1,1,1,0,0,0,0,1,7,8,135,space,10.166816899999958,None,0,1,1.728324100000009,None,space,5.730091899999934,None,0,0,0,1,,,,,4,7,39,5,169.4378339,,,,,,,,,,,,,,,,,,,,,169.42251149999993,169.4378339,169.9213393,169.92630390000022,169.93999369999983,171.6708322999998,,,,,171.67100900000014,171.68618819999983,171.8865936000002,171.8703845,169.93999369999983,,,,,,,,0,1,1.728324100000009,None,,,,,,,,884,20,M,R,2026-02-18_11h58.41.834,VisualSearch_2526_3,,2025.2.4,2026-02-18 11h58.42.027951 +0100,
vertical.xlsx,The target is tilted.,135,40,0,5,0,1,1,1,0,0,0,0,0,0,0,0,1,3,4,135,space,10.166816899999958,None,0,1,1.1521594000000732,None,space,5.730091899999934,None,0,0,0,1,,,,,5,0,40,6,171.8865936000002,,,,,,,,,,,,,,,,,,,,,171.8711271000002,171.8865936000002,172.37012890000005,172.37463939999998,172.38620500000025,173.55314809999982,,,,,173.5533101000001,173.56858310000007,173.76892420000013,173.75288640000008,172.38620500000025,,,,,,,,0,1,1.1521594000000732,None,,,,,,,,884,20,M,R,2026-02-18_11h58.41.834,VisualSearch_2526_3,,2025.2.4,2026-02-18 11h58.42.027951 +0100,
vertical.xlsx,The target is tilted.,135,41,1,5,1,1,1,1,1,1,1,1,1,1,1,1,0,11,12,135,space,10.166816899999958,None,1,1,3.421303299999636,None,space,5.730091899999934,None,0,0,0,1,,,,,5,1,41,0,173.76892420000013,,,,,,,,,,,,,,,,,,,,,173.75368200000003,173.76892420000013,174.2527116000001,174.25759890000018,174.27219430000014,177.70140489999994,,,,,177.7016392999999,177.71674680000024,177.91719839999996,177.9008872999998,174.27219430000014,,,,,,,,1,1,3.421303299999636,None,,,,,,,,884,20,M,R,2026-02-18_11h58.41.834,VisualSearch_2526_3,,2025.2.4,2026-02-18 11h58.42.027951 +0100,
vertical.xlsx,The target is tilted.,135,42,2,5,1,1,1,1,0,0,0,0,0,0,0,0,0,3,4,135,space,10.166816899999958,None,1,1,1.2321773999997276,None,space,5.730091899999934,None,0,0,0,1,,,,,5,2,42,2,177.91719839999996,,,,,,,,,,,,,,,,,,,,,177.90166110000018,177.91719839999996,178.40067709999994,178.40556950000018,178.42124160000003,179.66646589999982,,,,,179.6666067000001,179.6825272000001,179.8829722999999,179.86675389999982,178.42124160000003,,,,,,,,1,1,1.2321773999997276,None,,,,,,,,884,20,M,R,2026-02-18_11h58.41.834,VisualSearch_2526_3,,2025.2.4,2026-02-18 11h58.42.027951 +0100,
vertical.xlsx,The target is tilted.,135,43,3,5,0,1,1,1,1,1,1,1,0,0,0,0,1,7,8,135,space,10.166816899999958,None,0,1,2.0740608000000975,None,space,5.730091899999934,None,0,0,0,1,,,,,5,3,43,5,179.8829722999999,,,,,,,,,,,,,,,,,,,,,179.867522,179.8829722999999,180.36687070000016,180.3724004999999,180.38758259999986,182.46581640000022,,,,,182.4660162,182.48124169999983,182.6816385000002,182.66543570000022,180.38758259999986,,,,,,,,0,1,2.0740608000000975,None,,,,,,,,884,20,M,R,2026-02-18_11h58.41.834,VisualSearch_2526_3,,2025.2.4,2026-02-18 11h58.42.027951 +0100,
vertical.xlsx,The target is tilted.,135,44,4,5,1,1,1,1,1,1,1,1,0,0,0,0,0,7,8,135,space,10.166816899999958,None,1,1,0.864737200000036,None,space,5.730091899999934,None,0,0,0,1,,,,,5,4,44,1,182.6816385000002,,,,,,,,,,,,,,,,,,,,,182.66619500000024,182.6816385000002,183.16529579999997,183.17023960000006,183.18485069999997,184.06515249999984,,,,,184.06546260000005,184.08046689999992,184.28093119999994,184.2649053,183.18485069999997,,,,,,,,1,1,0.864737200000036,None,,,,,,,,884,20,M,R,2026-02-18_11h58.41.834,VisualSearch_2526_3,,2025.2.4,2026-02-18 11h58.42.027951 +0100,
vertical.xlsx,The target is tilted.,135,45,5,5,0,0,0,0,0,0,0,0,0,0,0,0,1,1,1,135,space,10.166816899999958,None,0,1,0.6634687000000667,None,space,5.730091899999934,None,0,0,0,1,,,,,5,5,45,7,184.28093119999994,,,,,,,,,,,,,,,,,,,,,184.26564400000007,184.28093119999994,184.76459750000004,184.76950510000006,184.78475230000004,185.46371980000004,,,,,185.4638605,185.47984459999998,185.68026929999996,185.66403750000018,184.78475230000004,,,,,,,,0,1,0.6634687000000667,None,,,,,,,,884,20,M,R,2026-02-18_11h58.41.834,VisualSearch_2526_3,,2025.2.4,2026-02-18 11h58.42.027951 +0100,
vertical.xlsx,The target is tilted.,135,46,6,5,1,0,0,0,0,0,0,0,0,0,0,0,0,0,1,135,space,10.166816899999958,None,1,1,0.5925474999999096,None,space,5.730091899999934,None,0,0,0,1,,,,,5,6,46,3,185.68026929999996,,,,,,,,,,,,,,,,,,,,,185.66479740000023,185.68026929999996,186.16375060000018,186.16853679999986,186.18602069999997,186.7806415,,,,,186.78081930000008,186.79584250000016,186.99647259999983,186.98014999999987,186.18602069999997,,,,,,,,1,1,0.5925474999999096,None,,,,,,,,884,20,M,R,2026-02-18_11h58.41.834,VisualSearch_2526_3,,2025.2.4,2026-02-18 11h58.42.027951 +0100,
vertical.xlsx,The target is tilted.,135,47,7,5,0,1,1,1,1,1,1,1,1,1,1,1,1,11,12,135,space,10.166816899999958,None,0,1,3.3209624000000986,None,space,5.730091899999934,None,0,0,0,1,,,,,5,7,47,4,186.99647259999983,,,,,,,,,,,,,,,,,,,,,186.9809266000002,186.99647259999983,187.4797407000001,187.48459649999995,187.50132930000018,190.8283795000002,,,,,190.8284647999999,190.8437815000002,191.04457580000008,191.02844490000007,187.50132930000018,,,,,,,,0,1,3.3209624000000986,None,,,,,,,,884,20,M,R,2026-02-18_11h58.41.834,VisualSearch_2526_3,,2025.2.4,2026-02-18 11h58.42.027951 +0100,
vertical.xlsx,The target is tilted.,135,48,0,6,1,1,1,1,1,1,1,1,0,0,0,0,0,7,8,135,space,10.166816899999958,None,1,1,0.6314534999996795,None,space,5.730091899999934,None,0,0,0,1,,,,,6,0,48,1,191.04457580000008,,,,,,,,,,,,,,,,,,,,,191.02916670000013,191.04457580000008,191.52785380000023,191.53278120000004,191.54995390000022,192.19508880000012,,,,,192.1952894000001,192.21007980000013,192.4105866,192.3944388,191.54995390000022,,,,,,,,1,1,0.6314534999996795,None,,,,,,,,884,20,M,R,2026-02-18_11h58.41.834,VisualSearch_2526_3,,2025.2.4,2026-02-18 11h58.42.027951 +0100,
vertical.xlsx,The target is tilted.,135,49,1,6,1,1,1,1,1,1,1,1,1,1,1,1,0,11,12,135,space,10.166816899999958,None,1,1,1.6368603000000803,None,space,5.730091899999934,None,0,0,0,1,,,,,6,1,49,0,192.4105866,,,,,,,,,,,,,,,,,,,,,192.39523139999983,192.4105866,192.89419279999993,192.89914709999994,192.9143253000002,194.55998409999984,,,,,194.56009380000023,194.57561639999994,194.77609600000005,194.75990779999984,192.9143253000002,,,,,,,,1,1,1.6368603000000803,None,,,,,,,,884,20,M,R,2026-02-18_11h58.41.834,VisualSearch_2526_3,,2025.2.4,2026-02-18 11h58.42.027951 +0100,
vertical.xlsx,The target is tilted.,135,50,2,6,0,1,1,1,0,0,0,0,0,0,0,0,1,3,4,135,space,10.166816899999958,None,0,1,0.7861437999999907,None,space,5.730091899999934,None,0,0,0,1,,,,,6,2,50,6,194.77609600000005,,,,,,,,,,,,,,,,,,,,,194.7606648000001,194.77609600000005,195.2597667,195.26447899999994,195.2825385000001,196.07669620000024,,,,,196.0768994,196.09175749999986,196.29182750000018,196.27605099999982,195.2825385000001,,,,,,,,0,1,0.7861437999999907,None,,,,,,,,884,20,M,R,2026-02-18_11h58.41.834,VisualSearch_2526_3,,2025.2.4,2026-02-18 11h58.42.027951 +0100,
vertical.xlsx,The target is tilted.,135,51,3,6,0,1,1,1,1,1,1,1,0,0,0,0,1,7,8,135,space,10.166816899999958,None,0,1,1.864838200000122,None,space,5.730091899999934,None,0,0,0,1,,,,,6,3,51,5,196.29182750000018,,,,,,,,,,,,,,,,,,,,,196.27677790000007,196.29182750000018,196.77576880000015,196.78074349999997,196.7971152,198.6755804999998,,,,,198.67578820000017,198.69048199999997,198.89096130000007,198.87486799999988,196.7971152,,,,,,,,0,1,1.864838200000122,None,,,,,,,,884,20,M,R,2026-02-18_11h58.41.834,VisualSearch_2526_3,,2025.2.4,2026-02-18 11h58.42.027951 +0100,
vertical.xlsx,The target is tilted.,135,52,4,6,1,1,1,1,0,0,0,0,0,0,0,0,0,3,4,135,space,10.166816899999958,None,1,1,0.7884960999999748,None,space,5.730091899999934,None,0,0,0,1,,,,,6,4,52,2,198.89096130000007,,,,,,,,,,,,,,,,,,,,,198.8756460999998,198.89096130000007,199.37444219999998,199.3793384999999,199.39601549999998,200.19147340000018,,,,,200.19167490000018,200.20648819999997,200.40705579999985,200.3907804999999,199.39601549999998,,,,,,,,1,1,0.7884960999999748,None,,,,,,,,884,20,M,R,2026-02-18_11h58.41.834,VisualSearch_2526_3,,2025.2.4,2026-02-18 11h58.42.027951 +0100,
vertical.xlsx,The target is tilted.,135,53,5,6,0,0,0,0,0,0,0,0,0,0,0,0,1,1,1,135,space,10.166816899999958,None,0,1,0.6765172999998867,None,space,5.730091899999934,None,0,0,0,1,,,,,6,5,53,7,200.40705579999985,,,,,,,,,,,,,,,,,,,,,200.39158110000017,200.40705579999985,200.890578,200.8954832999998,200.9111929999999,201.5908942000001,,,,,201.59109279999984,201.60590450000018,201.80637819999993,201.79012809999995,200.9111929999999,,,,,,,,0,1,0.6765172999998867,None,,,,,,,,884,20,M,R,2026-02-18_11h58.41.834,VisualSearch_2526_3,,2025.2.4,2026-02-18 11h58.42.027951 +0100,
vertical.xlsx,The target is tilted.,135,54,6,6,1,0,0,0,0,0,0,0,0,0,0,0,0,0,1,135,space,10.166816899999958,None,1,1,0.583063200000197,None,space,5.730091899999934,None,0,0,0,1,,,,,6,6,54,3,201.80637819999993,,,,,,,,,,,,,,,,,,,,,201.7909338999998,201.80637819999993,202.28992800000015,202.29467179999983,202.3059847999998,202.90633389999994,,,,,202.90656350000017,202.92195360000005,203.1223997000002,203.1062007999999,202.3059847999998,,,,,,,,1,1,0.583063200000197,None,,,,,,,,884,20,M,R,2026-02-18_11h58.41.834,VisualSearch_2526_3,,2025.2.4,2026-02-18 11h58.42.027951 +0100,
vertical.xlsx,The target is tilted.,135,55,7,6,0,1,1,1,1,1,1,1,1,1,1,1,1,11,12,135,space,10.166816899999958,None,0,1,4.514119200000096,None,space,5.730091899999934,None,0,0,0,1,,,,,6,7,55,4,203.1223997000002,,,,,,,,,,,,,,,,,,,,,203.1069381000002,203.1223997000002,203.6060736999998,203.61088430000018,203.62674079999988,208.1544447000001,,,,,208.15463490000002,208.16953469999999,208.37005529999988,208.3540837999999,203.62674079999988,,,,,,,,0,1,4.514119200000096,None,,,,,,,,884,20,M,R,2026-02-18_11h58.41.834,VisualSearch_2526_3,,2025.2.4,2026-02-18 11h58.42.027951 +0100,
vertical.xlsx,The target is tilted.,135,56,0,7,0,1,1,1,0,0,0,0,0,0,0,0,1,3,4,135,space,10.166816899999958,None,0,1,0.9037789999997585,None,space,5.730091899999934,None,0,0,0,1,,,,,7,0,56,6,208.37005529999988,,,,,,,,,,,,,,,,,,,,,208.3548848999999,208.37005529999988,208.85373900000013,208.85840749999988,208.8694387999999,209.78656020000017,,,,,209.78677789999983,209.80216370000016,210.0022210000002,209.9865777,208.8694387999999,,,,,,,,0,1,0.9037789999997585,None,,,,,,,,884,20,M,R,2026-02-18_11h58.41.834,VisualSearch_2526_3,,2025.2.4,2026-02-18 11h58.42.027951 +0100,
vertical.xlsx,The target is tilted.,135,57,1,7,0,1,1,1,1,1,1,1,0,0,0,0,1,7,8,135,space,10.166816899999958,None,0,1,1.7695203000002948,None,space,5.730091899999934,None,0,0,0,1,,,,,7,1,57,5,210.0022210000002,,,,,,,,,,,,,,,,,,,,,209.98729559999992,210.0022210000002,210.48627570000008,210.49266089999992,210.5032643999998,212.28492469999992,,,,,212.28506400000015,212.30101809999996,212.5014970000002,212.4853207000001,210.5032643999998,,,,,,,,0,1,1.7695203000002948,None,,,,,,,,884,20,M,R,2026-02-18_11h58.41.834,VisualSearch_2526_3,,2025.2.4,2026-02-18 11h58.42.027951 +0100,
vertical.xlsx,The target is tilted.,135,58,2,7,0,0,0,0,0,0,0,0,0,0,0,0,1,1,1,135,space,10.166816899999958,None,1,0,1.1334842000001117,None,space,5.730091899999934,None,0,0,0,1,,,,,7,2,58,7,212.5014970000002,,,,,,,,,,,,,,,,,,,,,212.48609870000018,212.5014970000002,212.98477850000017,212.98711009999988,213.00103549999994,214.1506457999999,,,,,214.15077680000013,214.1672754000001,214.3671233,214.35093469999993,213.00103549999994,,,,,,,,1,0,1.1334842000001117,None,,,,,,,,884,20,M,R,2026-02-18_11h58.41.834,VisualSearch_2526_3,,2025.2.4,2026-02-18 11h58.42.027951 +0100,
vertical.xlsx,The target is tilted.,135,59,3,7,1,1,1,1,0,0,0,0,0,0,0,0,0,3,4,135,space,10.166816899999958,None,1,1,0.9245409000000109,None,space,5.730091899999934,None,0,0,0,1,,,,,7,3,59,2,214.3671233,,,,,,,,,,,,,,,,,,,,,214.35161289999996,214.3671233,214.85115170000017,214.85672040000009,214.87030080000022,215.80081139999993,,,,,215.8009734000002,215.81608469999992,216.016216,216.00053660000003,214.87030080000022,,,,,,,,1,1,0.9245409000000109,None,,,,,,,,884,20,M,R,2026-02-18_11h58.41.834,VisualSearch_2526_3,,2025.2.4,2026-02-18 11h58.42.027951 +0100,
vertical.xlsx,The target is tilted.,135,60,4,7,1,1,1,1,1,1,1,1,0,0,0,0,0,7,8,135,space,10.166816899999958,None,1,1,2.633141499999965,None,space,5.730091899999934,None,0,0,0,1,,,,,7,4,60,1,216.016216,,,,,,,,,,,,,,,,,,,,,216.00123680000024,216.016216,216.5002131000001,216.50552329999982,216.51903010000024,219.16515949999985,,,,,219.16529649999984,219.18118000000004,219.3813537000001,219.36556269999983,216.51903010000024,,,,,,,,1,1,2.633141499999965,None,,,,,,,,884,20,M,R,2026-02-18_11h58.41.834,VisualSearch_2526_3,,2025.2.4,2026-02-18 11h58.42.027951 +0100,
vertical.xlsx,The target is tilted.,135,61,5,7,1,0,0,0,0,0,0,0,0,0,0,0,0,0,1,135,space,10.166816899999958,None,1,1,0.6044581999999536,None,space,5.730091899999934,None,0,0,0,1,,,,,7,5,61,3,219.3813537000001,,,,,,,,,,,,,,,,,,,,,219.36633549999988,219.3813537000001,219.86525419999998,219.87015710000014,219.88684509999985,220.4988997999999,,,,,220.49909549999984,220.51396840000007,220.71424579999984,220.69815030000018,219.88684509999985,,,,,,,,1,1,0.6044581999999536,None,,,,,,,,884,20,M,R,2026-02-18_11h58.41.834,VisualSearch_2526_3,,2025.2.4,2026-02-18 11h58.42.027951 +0100,
vertical.xlsx,The target is tilted.,135,62,6,7,1,1,1,1,1,1,1,1,1,1,1,1,0,11,12,135,space,10.166816899999958,None,0,0,3.941036300000178,None,space,5.730091899999934,None,0,0,0,1,,,,,7,6,62,0,220.71424579999984,,,,,,,,,,,,,,,,,,,,,220.6989308000002,220.71424579999984,221.19808779999994,221.20291339999994,221.21869629999992,225.1631394000001,,,,,225.16333870000017,225.1785378999998,225.3785984000001,225.36276899999984,221.21869629999992,,,,,,,,0,0,3.941036300000178,None,,,,,,,,884,20,M,R,2026-02-18_11h58.41.834,VisualSearch_2526_3,,2025.2.4,2026-02-18 11h58.42.027951 +0100,
vertical.xlsx,The target is tilted.,135,63,7,7,0,1,1,1,1,1,1,1,1,1,1,1,1,11,12,135,space,10.166816899999958,None,0,1,2.121000300000105,None,space,5.730091899999934,None,0,0,0,1,,,,,7,7,63,4,225.3785984000001,,,,,,,,,,,,,,,,,,,,,225.36352960000022,225.3785984000001,225.86263430000008,225.86746760000005,225.88331299999982,228.01229319999993,,,,,228.01249030000008,228.02721169999995,228.22770059999993,228.21144860000004,225.88331299999982,,,,,,,,0,1,2.121000300000105,None,,,,,,,,884,20,M,R,2026-02-18_11h58.41.834,VisualSearch_2526_3,,2025.2.4,2026-02-18 11h58.42.027951 +0100,
vertical.xlsx,The target is tilted.,135,64,0,8,1,1,1,1,1,1,1,1,1,1,1,1,0,11,12,135,space,10.166816899999958,None,1,1,1.4462757999999667,None,space,5.730091899999934,None,0,0,0,1,,,,,8,0,64,0,228.22770059999993,,,,,,,,,,,,,,,,,,,,,228.21218670000007,228.22770059999993,228.71129699999983,228.71577049999996,228.7272923999999,230.1775318,,,,,230.17772819999982,230.19279219999999,230.39297540000007,230.3772554000002,228.7272923999999,,,,,,,,1,1,1.4462757999999667,None,,,,,,,,884,20,M,R,2026-02-18_11h58.41.834,VisualSearch_2526_3,,2025.2.4,2026-02-18 11h58.42.027951 +0100,
vertical.xlsx,The target is tilted.,135,65,1,8,0,1,1,1,1,1,1,1,0,0,0,0,1,7,8,135,space,10.166816899999958,None,0,1,2.475051899999926,None,space,5.730091899999934,None,0,0,0,1,,,,,8,1,65,5,230.39297540000007,,,,,,,,,,,,,,,,,,,,,230.3779843000002,230.39297540000007,230.87702940000008,230.88181810000015,230.89717329999985,233.37606689999984,,,,,233.37626499999988,233.3913376999999,233.59194800000023,233.57574239999985,230.89717329999985,,,,,,,,0,1,2.475051899999926,None,,,,,,,,884,20,M,R,2026-02-18_11h58.41.834,VisualSearch_2526_3,,2025.2.4,2026-02-18 11h58.42.027951 +0100,
vertical.xlsx,The target is tilted.,135,66,2,8,0,1,1,1,1,1,1,1,1,1,1,1,1,11,12,135,space,10.166816899999958,None,0,1,2.8769901000000573,None,space,5.730091899999934,None,0,0,0,1,,,,,8,2,66,4,233.59194800000023,,,,,,,,,,,,,,,,,,,,,233.57650120000017,233.59194800000023,234.07545770000024,234.08052550000002,234.09647080000013,236.97480970000015,,,,,236.97500820000005,236.98988929999996,237.19032220000008,237.17433170000004,234.09647080000013,,,,,,,,0,1,2.8769901000000573,None,,,,,,,,884,20,M,R,2026-02-18_11h58.41.834,VisualSearch_2526_3,,2025.2.4,2026-02-18 11h58.42.027951 +0100,
vertical.xlsx,The target is tilted.,135,67,3,8,0,0,0,0,0,0,0,0,0,0,0,0,1,1,1,135,space,10.166816899999958,None,0,1,0.6831846000000041,None,space,5.730091899999934,None,0,0,0,1,,,,,8,3,67,7,237.19032220000008,,,,,,,,,,,,,,,,,,,,,237.17518560000008,237.19032220000008,237.67393040000024,237.6788833999999,237.69414229999984,238.3901310000001,,,,,238.3903390999999,238.40582219999988,238.60593689999996,238.59013959999993,237.69414229999984,,,,,,,,0,1,0.6831846000000041,None,,,,,,,,884,20,M,R,2026-02-18_11h58.41.834,VisualSearch_2526_3,,2025.2.4,2026-02-18 11h58.42.027951 +0100,
vertical.xlsx,The target is tilted.,135,68,4,8,0,1,1,1,0,0,0,0,0,0,0,0,1,3,4,135,space,10.166816899999958,None,0,1,0.8988749000000098,None,space,5.730091899999934,None,0,0,0,1,,,,,8,4,68,6,238.60593689999996,,,,,,,,,,,,,,,,,,,,,238.59089919999997,238.60593689999996,239.08990589999985,239.0946087000002,239.10595030000013,240.00602029999982,,,,,240.00610189999998,240.0215079999998,240.2214942999999,240.20512400000007,239.10595030000013,,,,,,,,0,1,0.8988749000000098,None,,,,,,,,884,20,M,R,2026-02-18_11h58.41.834,VisualSearch_2526_3,,2025.2.4,2026-02-18 11h58.42.027951 +0100,
vertical.xlsx,The target is tilted.,135,69,5,8,1,1,1,1,0,0,0,0,0,0,0,0,0,3,4,135,space,10.166816899999958,None,1,1,1.2585204000001795,None,space,5.730091899999934,None,0,0,0,1,,,,,8,5,69,2,240.2214942999999,,,,,,,,,,,,,,,,,,,,,240.20547679999981,240.2214942999999,240.70566210000015,240.71051990000024,240.7241508000002,241.98870750000015,,,,,241.9889235999999,242.0042684,242.20457350000015,242.1886810000001,240.7241508000002,,,,,,,,1,1,1.2585204000001795,None,,,,,,,,884,20,M,R,2026-02-18_11h58.41.834,VisualSearch_2526_3,,2025.2.4,2026-02-18 11h58.42.027951 +0100,
vertical.xlsx,The target is tilted.,135,70,6,8,1,1,1,1,1,1,1,1,0,0,0,0,0,7,8,135,space,10.166816899999958,None,0,0,3.5567974000000504,None,space,5.730091899999934,None,0,0,0,1,,,,,8,6,70,1,242.20457350000015,,,,,,,,,,,,,,,,,,,,,242.18949010000006,242.20457350000015,242.6885298000002,242.69381049999993,242.7090836000002,246.27006720000008,,,,,246.27019969999992,246.28558030000022,246.48619450000024,246.4698701000002,242.7090836000002,,,,,,,,0,0,3.5567974000000504,None,,,,,,,,884,20,M,R,2026-02-18_11h58.41.834,VisualSearch_2526_3,,2025.2.4,2026-02-18 11h58.42.027951 +0100,
vertical.xlsx,The target is tilted.,135,71,7,8,1,0,0,0,0,0,0,0,0,0,0,0,0,0,1,135,space,10.166816899999958,None,1,1,0.6625248000000283,None,space,5.730091899999934,None,0,0,0,1,,,,,8,7,71,3,246.48619450000024,,,,,,,,,,,,,,,,,,,,,246.4706301000001,246.48619450000024,246.96970009999995,246.97348169999987,246.9855864000001,247.65221759999986,,,,,247.65230969999993,247.6681011999999,247.8685104000001,247.85243320000018,246.9855864000001,,,,,,,,1,1,0.6625248000000283,None,,,,,,,,884,20,M,R,2026-02-18_11h58.41.834,VisualSearch_2526_3,,2025.2.4,2026-02-18 11h58.42.027951 +0100,
vertical.xlsx,The target is tilted.,135,72,0,9,1,1,1,1,1,1,1,1,0,0,0,0,0,7,8,135,space,10.166816899999958,None,1,1,0.9954649999999674,None,space,5.730091899999934,None,0,0,0,1,,,,,9,0,72,1,247.8685104000001,,,,,,,,,,,,,,,,,,,,,247.85316479999983,247.8685104000001,248.35238620000018,248.35718069999984,248.37333219999982,249.38521179999998,,,,,249.3854351,249.4008414,249.60137200000008,249.58509860000004,248.37333219999982,,,,,,,,1,1,0.9954649999999674,None,,,,,,,,884,20,M,R,2026-02-18_11h58.41.834,VisualSearch_2526_3,,2025.2.4,2026-02-18 11h58.42.027951 +0100,
vertical.xlsx,The target is tilted.,135,73,1,9,0,1,1,1,1,1,1,1,1,1,1,1,1,11,12,135,space,10.166816899999958,None,0,1,2.295585299999857,None,space,5.730091899999934,None,0,0,0,1,,,,,9,1,73,4,249.60137200000008,,,,,,,,,,,,,,,,,,,,,249.58586749999995,249.60137200000008,250.0849935000001,250.0901428000002,250.10568469999998,252.41695879999997,,,,,252.41716369999995,252.43284189999986,252.63333009999997,252.61705870000014,250.10568469999998,,,,,,,,0,1,2.295585299999857,None,,,,,,,,884,20,M,R,2026-02-18_11h58.41.834,VisualSearch_2526_3,,2025.2.4,2026-02-18 11h58.42.027951 +0100,
vertical.xlsx,The target is tilted.,135,74,2,9,1,0,0,0,0,0,0,0,0,0,0,0,0,0,1,135,space,10.166816899999958,None,1,1,0.41043569999965257,None,space,5.730091899999934,None,0,0,0,1,,,,,9,2,74,3,252.63333009999997,,,,,,,,,,,,,,,,,,,,,252.6178116000001,252.63333009999997,253.11695400000008,253.1217772,253.1369125000001,253.55061389999992,,,,,253.55080550000002,253.56563830000005,253.7657153,253.74992490000022,253.1369125000001,,,,,,,,1,1,0.41043569999965257,None,,,,,,,,884,20,M,R,2026-02-18_11h58.41.834,VisualSearch_2526_3,,2025.2.4,2026-02-18 11h58.42.027951 +0100,
vertical.xlsx,The target is tilted.,135,75,3,9,1,1,1,1,1,1,1,1,1,1,1,1,0,11,12,135,space,10.166816899999958,None,1,1,1.1303241000000526,None,space,5.730091899999934,None,0,0,0,1,,,,,9,3,75,0,253.7657153,,,,,,,,,,,,,,,,,,,,,253.7507168000002,253.7657153,254.24975780000022,254.25449419999995,254.26900620000015,255.41540450000002,,,,,255.41554099999985,255.43145159999995,255.6319755999998,255.61573069999986,254.26900620000015,,,,,,,,1,1,1.1303241000000526,None,,,,,,,,884,20,M,R,2026-02-18_11h58.41.834,VisualSearch_2526_3,,2025.2.4,2026-02-18 11h58.42.027951 +0100,
vertical.xlsx,The target is tilted.,135,76,4,9,1,1,1,1,0,0,0,0,0,0,0,0,0,3,4,135,space,10.166816899999958,None,1,1,0.5101737999998477,None,space,5.730091899999934,None,0,0,0,1,,,,,9,4,76,2,255.6319755999998,,,,,,,,,,,,,,,,,,,,,255.61648060000016,255.6319755999998,256.11559369999986,256.1207061,256.1357541000002,256.6490561999999,,,,,256.64922979999983,256.6642127,256.8647314,256.84885029999987,256.1357541000002,,,,,,,,1,1,0.5101737999998477,None,,,,,,,,884,20,M,R,2026-02-18_11h58.41.834,VisualSearch_2526_3,,2025.2.4,2026-02-18 11h58.42.027951 +0100,
vertical.xlsx,The target is tilted.,135,77,5,9,0,1,1,1,0,0,0,0,0,0,0,0,1,3,4,135,space,10.166816899999958,None,0,1,0.8215739000002031,None,space,5.730091899999934,None,0,0,0,1,,,,,9,5,77,6,256.8647314,,,,,,,,,,,,,,,,,,,,,256.84960009999986,256.8647314,257.34842260000005,257.3531707000002,257.36902340000006,258.1976235000002,,,,,258.1977267000002,258.21332900000016,258.4139134000002,258.3972789999998,257.36902340000006,,,,,,,,0,1,0.8215739000002031,None,,,,,,,,884,20,M,R,2026-02-18_11h58.41.834,VisualSearch_2526_3,,2025.2.4,2026-02-18 11h58.42.027951 +0100,
vertical.xlsx,The target is tilted.,135,78,6,9,0,0,0,0,0,0,0,0,0,0,0,0,1,1,1,135,space,10.166816899999958,None,0,1,1.1082980999999563,None,space,5.730091899999934,None,0,0,0,1,,,,,9,6,78,7,258.4139134000002,,,,,,,,,,,,,,,,,,,,,258.3980064000002,258.4139134000002,258.89762010000004,258.9024128000001,258.9177359,260.0309824000001,,,,,260.0311749000002,260.04606620000004,260.2465324,260.2302969000002,258.9177359,,,,,,,,0,1,1.1082980999999563,None,,,,,,,,884,20,M,R,2026-02-18_11h58.41.834,VisualSearch_2526_3,,2025.2.4,2026-02-18 11h58.42.027951 +0100,
vertical.xlsx,The target is tilted.,135,79,7,9,0,1,1,1,1,1,1,1,0,0,0,0,1,7,8,135,space,10.166816899999958,None,0,1,1.7743630999998459,None,space,5.730091899999934,None,0,0,0,1,,,,,9,7,79,5,260.2465324,,,,,,,,,,,,,,,,,,,,,260.23112040000024,260.2465324,260.7300753999998,260.7348004999999,260.7494471,262.52980130000014,,,,,262.52999390000014,262.5448692,262.7452652000002,262.72890039999993,260.7494471,,,,,,,,0,1,1.7743630999998459,None,,,,,,,,884,20,M,R,2026-02-18_11h58.41.834,VisualSearch_2526_3,,2025.2.4,2026-02-18 11h58.42.027951 +0100,
vertical.xlsx,The target is tilted.,135,80,0,10,1,1,1,1,0,0,0,0,0,0,0,0,0,3,4,135,space,10.166816899999958,None,1,1,0.922019900000123,None,space,5.730091899999934,None,0,0,0,1,,,,,10,0,80,2,262.7452652000002,,,,,,,,,,,,,,,,,,,,,262.72965060000024,262.7452652000002,263.2289614000001,263.23419839999997,263.24950960000024,264.1784038999999,,,,,264.17849000000024,264.1939311000001,264.3942305999999,264.37845749999997,263.24950960000024,,,,,,,,1,1,0.922019900000123,None,,,,,,,,884,20,M,R,2026-02-18_11h58.41.834,VisualSearch_2526_3,,2025.2.4,2026-02-18 11h58.42.027951 +0100,
vertical.xlsx,The target is tilted.,135,81,1,10,0,1,1,1,1,1,1,1,0,0,0,0,1,7,8,135,space,10.166816899999958,None,0,1,1.5931359999999586,None,space,5.730091899999934,None,0,0,0,1,,,,,10,1,81,5,264.3942305999999,,,,,,,,,,,,,,,,,,,,,264.37920799999984,264.3942305999999,264.8783865999999,264.8832112,264.89822090000007,266.4942922,,,,,266.4944246,266.50980500000014,266.71022129999983,266.69404889999987,264.89822090000007,,,,,,,,0,1,1.5931359999999586,None,,,,,,,,884,20,M,R,2026-02-18_11h58.41.834,VisualSearch_2526_3,,2025.2.4,2026-02-18 11h58.42.027951 +0100,
vertical.xlsx,The target is tilted.,135,82,2,10,0,0,0,0,0,0,0,0,0,0,0,0,1,1,1,135,space,10.166816899999958,None,0,1,0.8005914000000303,None,space,5.730091899999934,None,0,0,0,1,,,,,10,2,82,7,266.71022129999983,,,,,,,,,,,,,,,,,,,,,266.6948312999998,266.71022129999983,267.19389839999985,267.1986959999999,267.2132018000002,268.0273443000001,,,,,268.0275375000001,268.0429214999999,268.2426224000001,268.2269301000001,267.2132018000002,,,,,,,,0,1,0.8005914000000303,None,,,,,,,,884,20,M,R,2026-02-18_11h58.41.834,VisualSearch_2526_3,,2025.2.4,2026-02-18 11h58.42.027951 +0100,
vertical.xlsx,The target is tilted.,135,83,3,10,0,1,1,1,1,1,1,1,1,1,1,1,1,11,12,135,space,10.166816899999958,None,0,1,3.0193773000000874,None,space,5.730091899999934,None,0,0,0,1,,,,,10,3,83,4,268.2426224000001,,,,,,,,,,,,,,,,,,,,,268.22766779999984,268.2426224000001,268.726588,268.73128940000015,268.74602300000015,271.7758641999999,,,,,271.7760739999999,271.7911846000002,271.99115930000016,271.97509820000005,268.74602300000015,,,,,,,,0,1,3.0193773000000874,None,,,,,,,,884,20,M,R,2026-02-18_11h58.41.834,VisualSearch_2526_3,,2025.2.4,2026-02-18 11h58.42.027951 +0100,
vertical.xlsx,The target is tilted.,135,84,4,10,1,1,1,1,1,1,1,1,0,0,0,0,0,7,8,135,space,10.166816899999958,None,1,1,2.144547800000055,None,space,5.730091899999934,None,0,0,0,1,,,,,10,4,84,1,271.99115930000016,,,,,,,,,,,,,,,,,,,,,271.9758327999998,271.99115930000016,272.47506509999994,272.48011959999985,272.4947981,274.64069199999994,,,,,274.6408842000001,274.65652249999994,274.85620389999985,274.8400826000002,272.4947981,,,,,,,,1,1,2.144547800000055,None,,,,,,,,884,20,M,R,2026-02-18_11h58.41.834,VisualSearch_2526_3,,2025.2.4,2026-02-18 11h58.42.027951 +0100,
vertical.xlsx,The target is tilted.,135,85,5,10,1,0,0,0,0,0,0,0,0,0,0,0,0,0,1,135,space,10.166816899999958,None,1,1,0.5797445000002881,None,space,5.730091899999934,None,0,0,0,1,,,,,10,5,85,3,274.85620389999985,,,,,,,,,,,,,,,,,,,,,274.8408287000002,274.85620389999985,275.34025900000006,275.34485510000013,275.3562130999999,275.9399099000002,,,,,275.9400982000002,275.95606110000017,276.15600529999983,276.13975660000006,275.3562130999999,,,,,,,,1,1,0.5797445000002881,None,,,,,,,,884,20,M,R,2026-02-18_11h58.41.834,VisualSearch_2526_3,,2025.2.4,2026-02-18 11h58.42.027951 +0100,
vertical.xlsx,The target is tilted.,135,86,6,10,0,1,1,1,0,0,0,0,0,0,0,0,1,3,4,135,space,10.166816899999958,None,0,1,1.7149435999999696,None,space,5.730091899999934,None,0,0,0,1,,,,,10,6,86,6,276.15600529999983,,,,,,,,,,,,,,,,,,,,,276.1405208000001,276.15600529999983,276.6395272,276.6446326999999,276.6586416,278.3887393,,,,,278.38892609999994,278.4047691999999,278.60480229999985,278.5882624999999,276.6586416,,,,,,,,0,1,1.7149435999999696,None,,,,,,,,884,20,M,R,2026-02-18_11h58.41.834,VisualSearch_2526_3,,2025.2.4,2026-02-18 11h58.42.027951 +0100,
vertical.xlsx,The target is tilted.,135,87,7,10,1,1,1,1,1,1,1,1,1,1,1,1,0,11,12,135,space,10.166816899999958,None,1,1,1.6109321000003547,None,space,5.730091899999934,None,0,0,0,1,,,,,10,7,87,0,278.60480229999985,,,,,,,,,,,,,,,,,,,,,278.58910160000005,278.60480229999985,279.08865259999993,279.0935175999998,279.1091677999998,280.7214494,,,,,280.7216272999999,280.73682580000013,280.9367496,280.9212594999999,279.1091677999998,,,,,,,,1,1,1.6109321000003547,None,,,,,,,,884,20,M,R,2026-02-18_11h58.41.834,VisualSearch_2526_3,,2025.2.4,2026-02-18 11h58.42.027951 +0100,
vertical.xlsx,The target is tilted.,135,88,0,11,1,1,1,1,1,1,1,1,0,0,0,0,0,7,8,135,space,10.166816899999958,None,1,1,2.2724373000000924,None,space,5.730091899999934,None,0,0,0,1,,,,,11,0,88,1,280.9367496,,,,,,,,,,,,,,,,,,,,,280.9219355,280.9367496,281.42043030000013,281.42514789999996,281.44211429999996,283.71983820000014,,,,,283.71999330000017,283.73574229999986,283.93539090000013,283.91981769999984,281.44211429999996,,,,,,,,1,1,2.2724373000000924,None,,,,,,,,884,20,M,R,2026-02-18_11h58.41.834,VisualSearch_2526_3,,2025.2.4,2026-02-18 11h58.42.027951 +0100,
vertical.xlsx,The target is tilted.,135,89,1,11,0,1,1,1,1,1,1,1,0,0,0,0,1,7,8,135,space,10.166816899999958,None,0,1,2.7464403999997558,None,space,5.730091899999934,None,0,0,0,1,,,,,11,1,89,5,283.93539090000013,,,,,,,,,,,,,,,,,,,,,283.9205569999999,283.93539090000013,284.4191332999999,284.42381680000017,284.43991000000005,287.2018495000002,,,,,287.2020253999999,287.2174178999999,287.4175562999999,287.40128400000003,284.43991000000005,,,,,,,,0,1,2.7464403999997558,None,,,,,,,,884,20,M,R,2026-02-18_11h58.41.834,VisualSearch_2526_3,,2025.2.4,2026-02-18 11h58.42.027951 +0100,
vertical.xlsx,The target is tilted.,135,90,2,11,1,1,1,1,1,1,1,1,1,1,1,1,0,11,12,135,space,10.166816899999958,None,1,1,2.1837594999997236,None,space,5.730091899999934,None,0,0,0,1,,,,,11,2,90,0,287.4175562999999,,,,,,,,,,,,,,,,,,,,,287.4020344999999,287.4175562999999,287.90103150000004,287.9056400999998,287.91723460000003,290.11796330000016,,,,,290.11816929999986,290.1327904,290.3328454000002,290.31635540000025,287.91723460000003,,,,,,,,1,1,2.1837594999997236,None,,,,,,,,884,20,M,R,2026-02-18_11h58.41.834,VisualSearch_2526_3,,2025.2.4,2026-02-18 11h58.42.027951 +0100,
vertical.xlsx,The target is tilted.,135,91,3,11,0,1,1,1,1,1,1,1,1,1,1,1,1,11,12,135,space,10.166816899999958,None,0,1,2.9391304000000673,None,space,5.730091899999934,None,0,0,0,1,,,,,11,3,91,4,290.3328454000002,,,,,,,,,,,,,,,,,,,,,290.3170914000002,290.3328454000002,290.8164815,290.8212881999998,290.8369342000001,293.78242050000017,,,,,293.7826153000001,293.7975379999998,293.99790399999983,293.98169480000024,290.8369342000001,,,,,,,,0,1,2.9391304000000673,None,,,,,,,,884,20,M,R,2026-02-18_11h58.41.834,VisualSearch_2526_3,,2025.2.4,2026-02-18 11h58.42.027951 +0100,
vertical.xlsx,The target is tilted.,135,92,4,11,1,1,1,1,0,0,0,0,0,0,0,0,0,3,4,135,space,10.166816899999958,None,1,1,0.7974320999996962,None,space,5.730091899999934,None,0,0,0,1,,,,,11,4,92,2,293.99790399999983,,,,,,,,,,,,,,,,,,,,,293.9825655999998,293.99790399999983,294.48112119999996,294.4859013,294.50112339999987,295.3151085999998,,,,,295.31531570000016,295.33042969999997,295.53048560000025,295.5151089000001,294.50112339999987,,,,,,,,1,1,0.7974320999996962,None,,,,,,,,884,20,M,R,2026-02-18_11h58.41.834,VisualSearch_2526_3,,2025.2.4,2026-02-18 11h58.42.027951 +0100,
vertical.xlsx,The target is tilted.,135,93,5,11,1,0,0,0,0,0,0,0,0,0,0,0,0,0,1,135,space,10.166816899999958,None,1,1,0.5599234000001161,None,space,5.730091899999934,None,0,0,0,1,,,,,11,5,93,3,295.53048560000025,,,,,,,,,,,,,,,,,,,,,295.51589030000014,295.53048560000025,296.0142214000002,296.0190542,296.03407749999997,296.5968544000002,,,,,296.596951,296.61313599999994,296.8132108,296.79740730000003,296.03407749999997,,,,,,,,1,1,0.5599234000001161,None,,,,,,,,884,20,M,R,2026-02-18_11h58.41.834,VisualSearch_2526_3,,2025.2.4,2026-02-18 11h58.42.027951 +0100,
vertical.xlsx,The target is tilted.,135,94,6,11,0,0,0,0,0,0,0,0,0,0,0,0,1,1,1,135,space,10.166816899999958,None,0,1,0.6450361000001976,None,space,5.730091899999934,None,0,0,0,1,,,,,11,6,94,7,296.8132108,,,,,,,,,,,,,,,,,,,,,296.7981020000002,296.8132108,297.29691,297.30166210000016,297.31430839999985,297.9634295999999,,,,,297.96362309999995,297.9792814000002,298.1792848,298.16313420000006,297.31430839999985,,,,,,,,0,1,0.6450361000001976,None,,,,,,,,884,20,M,R,2026-02-18_11h58.41.834,VisualSearch_2526_3,,2025.2.4,2026-02-18 11h58.42.027951 +0100,
vertical.xlsx,The target is tilted.,135,95,7,11,0,1,1,1,0,0,0,0,0,0,0,0,1,3,4,135,space,10.166816899999958,None,0,1,1.2704448999998021,None,space,5.730091899999934,None,0,0,0,1,,,,,11,7,95,6,298.1792848,,,,,,,,,,,,,,,,,,,,,298.1638917999999,298.1792848,298.66285789999984,298.6675144999999,298.67886739999994,299.96292970000013,,,,,299.9631319,299.9783978999999,300.17821219999996,300.16237360000014,298.67886739999994,,,,,,,,0,1,1.2704448999998021,None,,,,,,,,884,20,M,R,2026-02-18_11h58.41.834,VisualSearch_2526_3,,2025.2.4,2026-02-18 11h58.42.027951 +0100,
vertical.xlsx,The target is tilted.,135,96,0,12,0,1,1,1,1,1,1,1,0,0,0,0,1,7,8,135,space,10.166816899999958,None,0,1,3.3987990000000536,None,space,5.730091899999934,None,0,0,0,1,,,,,12,0,96,5,300.17821219999996,,,,,,,,,,,,,,,,,,,,,300.1632245999999,300.17821219999996,300.66198870000017,300.66668530000015,300.68256629999996,304.0943430000002,,,,,304.09452220000003,304.1095488000001,304.3098079000001,304.29362089999995,300.68256629999996,,,,,,,,0,1,3.3987990000000536,None,,,,,,,,884,20,M,R,2026-02-18_11h58.41.834,VisualSearch_2526_3,,2025.2.4,2026-02-18 11h58.42.027951 +0100,
vertical.xlsx,The target is tilted.,135,97,1,12,1,1,1,1,1,1,1,1,0,0,0,0,0,7,8,135,space,10.166816899999958,None,1,1,1.4110358999996606,None,space,5.730091899999934,None,0,0,0,1,,,,,12,1,97,1,304.3098079000001,,,,,,,,,,,,,,,,,,,,,304.2943513,304.3098079000001,304.7935459,304.7983164000002,304.8133564,306.22627079999984,,,,,306.22640839999985,306.24213980000013,306.4421834,306.4259959000001,304.8133564,,,,,,,,1,1,1.4110358999996606,None,,,,,,,,884,20,M,R,2026-02-18_11h58.41.834,VisualSearch_2526_3,,2025.2.4,2026-02-18 11h58.42.027951 +0100,
vertical.xlsx,The target is tilted.,135,98,2,12,1,0,0,0,0,0,0,0,0,0,0,0,0,0,1,135,space,10.166816899999958,None,1,1,0.47552459999997154,None,space,5.730091899999934,None,0,0,0,1,,,,,12,2,98,3,306.4421834,,,,,,,,,,,,,,,,,,,,,306.4267441000002,306.4421834,306.92588560000013,306.93058299999984,306.9463522000001,307.4258436,,,,,307.42603640000016,307.44160779999993,307.64163499999995,307.6254537,306.9463522000001,,,,,,,,1,1,0.47552459999997154,None,,,,,,,,884,20,M,R,2026-02-18_11h58.41.834,VisualSearch_2526_3,,2025.2.4,2026-02-18 11h58.42.027951 +0100,
vertical.xlsx,The target is tilted.,135,99,3,12,0,0,0,0,0,0,0,0,0,0,0,0,1,1,1,135,space,10.166816899999958,None,0,1,0.5510760000001937,None,space,5.730091899999934,None,0,0,0,1,,,,,12,3,99,7,307.64163499999995,,,,,,,,,,,,,,,,,,,,,307.62623399999984,307.64163499999995,308.1253981,308.1300855999998,308.14606809999987,308.7083560000001,,,,,308.70850229999996,308.7242854000001,308.92436880000014,308.9081765000001,308.14606809999987,,,,,,,,0,1,0.5510760000001937,None,,,,,,,,884,20,M,R,2026-02-18_11h58.41.834,VisualSearch_2526_3,,2025.2.4,2026-02-18 11h58.42.027951 +0100,
vertical.xlsx,The target is tilted.,135,100,4,12,1,1,1,1,1,1,1,1,1,1,1,1,0,11,12,135,space,10.166816899999958,None,1,1,0.5550326000002315,None,space,5.730091899999934,None,0,0,0,1,,,,,12,4,100,0,308.92436880000014,,,,,,,,,,,,,,,,,,,,,308.9089233999998,308.92436880000014,309.4077376,309.41247109999995,309.426837,309.9909871,,,,,309.9910679999998,310.0070847000002,310.20670770000015,310.1907033000002,309.426837,,,,,,,,1,1,0.5550326000002315,None,,,,,,,,884,20,M,R,2026-02-18_11h58.41.834,VisualSearch_2526_3,,2025.2.4,2026-02-18 11h58.42.027951 +0100,
vertical.xlsx,The target is tilted.,135,101,5,12,1,1,1,1,0,0,0,0,0,0,0,0,0,3,4,135,space,10.166816899999958,None,1,1,0.594412999999804,None,space,5.730091899999934,None,0,0,0,1,,,,,12,5,101,2,310.20670770000015,,,,,,,,,,,,,,,,,,,,,310.1914568000002,310.20670770000015,310.69084380000004,310.69552479999993,310.7125681000002,311.32344190000003,,,,,311.32353319999993,311.33957850000024,311.53986799999984,311.52363939999987,310.7125681000002,,,,,,,,1,1,0.594412999999804,None,,,,,,,,884,20,M,R,2026-02-18_11h58.41.834,VisualSearch_2526_3,,2025.2.4,2026-02-18 11h58.42.027951 +0100,
vertical.xlsx,The target is tilted.,135,102,6,12,0,1,1,1,1,1,1,1,1,1,1,1,1,11,12,135,space,10.166816899999958,None,0,1,1.6655728999999155,None,space,5.730091899999934,None,0,0,0,1,,,,,12,6,102,4,311.53986799999984,,,,,,,,,,,,,,,,,,,,,311.52440209999986,311.53986799999984,312.023455,312.02825829999983,312.0394913,313.70663090000016,,,,,313.7068383999999,313.7222955000002,313.92207959999996,313.90589610000006,312.0394913,,,,,,,,0,1,1.6655728999999155,None,,,,,,,,884,20,M,R,2026-02-18_11h58.41.834,VisualSearch_2526_3,,2025.2.4,2026-02-18 11h58.42.027951 +0100,
vertical.xlsx,The target is tilted.,135,103,7,12,0,1,1,1,0,0,0,0,0,0,0,0,1,3,4,135,space,10.166816899999958,None,0,1,0.8847230999999738,None,space,5.730091899999934,None,0,0,0,1,,,,,12,7,103,6,313.92207959999996,,,,,,,,,,,,,,,,,,,,,313.90663829999994,313.92207959999996,314.4057171999998,314.41051960000004,314.4265513,315.3225615000001,,,,,315.3227560999999,315.33784190000006,315.53811970000015,315.52200919999996,314.4265513,,,,,,,,0,1,0.8847230999999738,None,,,,,,,,884,20,M,R,2026-02-18_11h58.41.834,VisualSearch_2526_3,,2025.2.4,2026-02-18 11h58.42.027951 +0100,
vertical.xlsx,The target is tilted.,135,104,0,13,0,1,1,1,1,1,1,1,1,1,1,1,1,11,12,135,space,10.166816899999958,None,0,1,1.8969990000000507,None,space,5.730091899999934,None,0,0,0,1,,,,,13,0,104,4,315.53811970000015,,,,,,,,,,,,,,,,,,,,,315.52276710000024,315.53811970000015,316.02149150000014,316.0262266,316.0398187999999,317.93804610000007,,,,,317.9382389000002,317.9534472,318.15368149999995,318.13769120000006,316.0398187999999,,,,,,,,0,1,1.8969990000000507,None,,,,,,,,884,20,M,R,2026-02-18_11h58.41.834,VisualSearch_2526_3,,2025.2.4,2026-02-18 11h58.42.027951 +0100,
vertical.xlsx,The target is tilted.,135,105,1,13,0,1,1,1,0,0,0,0,0,0,0,0,1,3,4,135,space,10.166816899999958,None,0,1,0.7457939000000806,None,space,5.730091899999934,None,0,0,0,1,,,,,13,1,105,6,318.15368149999995,,,,,,,,,,,,,,,,,,,,,318.1385172,318.15368149999995,318.63729520000015,318.64210490000005,318.6572959,319.42002460000003,,,,,319.42011360000015,319.43594470000016,319.6363200999999,319.6201949000001,318.6572959,,,,,,,,0,1,0.7457939000000806,None,,,,,,,,884,20,M,R,2026-02-18_11h58.41.834,VisualSearch_2526_3,,2025.2.4,2026-02-18 11h58.42.027951 +0100,
vertical.xlsx,The target is tilted.,135,106,2,13,1,1,1,1,1,1,1,1,1,1,1,1,0,11,12,135,space,10.166816899999958,None,1,1,1.972844299999906,None,space,5.730091899999934,None,0,0,0,1,,,,,13,2,106,0,319.6363200999999,,,,,,,,,,,,,,,,,,,,,319.6210301000001,319.6363200999999,320.1199053,320.12463100000014,320.1387383000001,322.11925580000025,,,,,322.11945509999987,322.1350822999998,322.33501239999987,322.31879059999983,320.1387383000001,,,,,,,,1,1,1.972844299999906,None,,,,,,,,884,20,M,R,2026-02-18_11h58.41.834,VisualSearch_2526_3,,2025.2.4,2026-02-18 11h58.42.027951 +0100,
vertical.xlsx,The target is tilted.,135,107,3,13,1,1,1,1,1,1,1,1,0,0,0,0,0,7,8,135,space,10.166816899999958,None,0,0,1.8097732000001088,None,space,5.730091899999934,None,0,0,0,1,,,,,13,3,107,1,322.33501239999987,,,,,,,,,,,,,,,,,,,,,322.31961679999995,322.33501239999987,322.8186297000002,322.82340509999995,322.8381162999999,324.65142019999985,,,,,324.65161739999985,324.66715380000005,324.86724349999986,324.8509617999998,322.8381162999999,,,,,,,,0,0,1.8097732000001088,None,,,,,,,,884,20,M,R,2026-02-18_11h58.41.834,VisualSearch_2526_3,,2025.2.4,2026-02-18 11h58.42.027951 +0100,
vertical.xlsx,The target is tilted.,135,108,4,13,1,0,0,0,0,0,0,0,0,0,0,0,0,0,1,135,space,10.166816899999958,None,1,1,0.5633843999999044,None,space,5.730091899999934,None,0,0,0,1,,,,,13,4,108,3,324.86724349999986,,,,,,,,,,,,,,,,,,,,,324.8517479000002,324.86724349999986,325.35081420000006,325.35555239999985,325.3715032,325.95055550000006,,,,,325.95068360000005,325.9664514000001,326.16663560000006,326.15040450000015,325.3715032,,,,,,,,1,1,0.5633843999999044,None,,,,,,,,884,20,M,R,2026-02-18_11h58.41.834,VisualSearch_2526_3,,2025.2.4,2026-02-18 11h58.42.027951 +0100,
vertical.xlsx,The target is tilted.,135,109,5,13,1,1,1,1,0,0,0,0,0,0,0,0,0,3,4,135,space,10.166816899999958,None,1,1,0.6213243999995939,None,space,5.730091899999934,None,0,0,0,1,,,,,13,5,109,2,326.16663560000006,,,,,,,,,,,,,,,,,,,,,326.15114589999985,326.16663560000006,326.6499173000002,326.6546576999999,326.66973370000005,327.3009588,,,,,327.30115049999995,327.3159759,327.51605180000024,327.4997582000001,326.66973370000005,,,,,,,,1,1,0.6213243999995939,None,,,,,,,,884,20,M,R,2026-02-18_11h58.41.834,VisualSearch_2526_3,,2025.2.4,2026-02-18 11h58.42.027951 +0100,
vertical.xlsx,The target is tilted.,135,110,6,13,0,0,0,0,0,0,0,0,0,0,0,0,1,1,1,135,space,10.166816899999958,None,0,1,0.5476821000002019,None,space,5.730091899999934,None,0,0,0,1,,,,,13,6,110,7,327.51605180000024,,,,,,,,,,,,,,,,,,,,,327.50050950000013,327.51605180000024,327.9991424,328.00388239999984,328.02080650000016,328.5833094999998,,,,,328.58350280000013,328.5984042,328.7984835000002,328.78275650000023,328.02080650000016,,,,,,,,0,1,0.5476821000002019,None,,,,,,,,884,20,M,R,2026-02-18_11h58.41.834,VisualSearch_2526_3,,2025.2.4,2026-02-18 11h58.42.027951 +0100,
vertical.xlsx,The target is tilted.,135,111,7,13,0,1,1,1,1,1,1,1,0,0,0,0,1,7,8,135,space,10.166816899999958,None,0,1,1.2816837000000305,None,space,5.730091899999934,None,0,0,0,1,,,,,13,7,111,5,328.7984835000002,,,,,,,,,,,,,,,,,,,,,328.78360680000014,328.7984835000002,329.2823225000002,329.28716799999984,329.3029935999998,330.5986303999998,,,,,330.5987685,330.6144583999999,330.8143583000001,330.79828240000006,329.3029935999998,,,,,,,,0,1,1.2816837000000305,None,,,,,,,,884,20,M,R,2026-02-18_11h58.41.834,VisualSearch_2526_3,,2025.2.4,2026-02-18 11h58.42.027951 +0100,
vertical.xlsx,The target is tilted.,135,112,0,14,0,1,1,1,1,1,1,1,1,1,1,1,1,11,12,135,space,10.166816899999958,None,0,1,2.416701799999828,None,space,5.730091899999934,None,0,0,0,1,,,,,14,0,112,4,330.8143583000001,,,,,,,,,,,,,,,,,,,,,330.79914020000024,330.8143583000001,331.2981033000001,331.302866,331.3160312,333.7473765,,,,,333.7475365999999,333.7631035999998,333.9626923999999,333.9468944,331.3160312,,,,,,,,0,1,2.416701799999828,None,,,,,,,,884,20,M,R,2026-02-18_11h58.41.834,VisualSearch_2526_3,,2025.2.4,2026-02-18 11h58.42.027951 +0100,
vertical.xlsx,The target is tilted.,135,113,1,14,0,1,1,1,0,0,0,0,0,0,0,0,1,3,4,135,space,10.166816899999958,None,0,1,4.083337000000029,None,space,5.730091899999934,None,0,0,0,1,,,,,14,1,113,6,333.9626923999999,,,,,,,,,,,,,,,,,,,,,333.9476577999999,333.9626923999999,334.44674769999983,334.4523116999999,334.4677308999999,338.5621679000001,,,,,338.56236690000014,338.57726189999994,338.7775683,338.7613320999999,334.4677308999999,,,,,,,,0,1,4.083337000000029,None,,,,,,,,884,20,M,R,2026-02-18_11h58.41.834,VisualSearch_2526_3,,2025.2.4,2026-02-18 11h58.42.027951 +0100,
vertical.xlsx,The target is tilted.,135,114,2,14,0,0,0,0,0,0,0,0,0,0,0,0,1,1,1,135,space,10.166816899999958,None,0,1,1.7206203000000642,None,space,5.730091899999934,None,0,0,0,1,,,,,14,2,114,7,338.7775683,,,,,,,,,,,,,,,,,,,,,338.7620990999999,338.7775683,339.2608184999999,339.2656016000001,339.2817568999999,341.0108515000002,,,,,341.01104140000007,341.0263791000002,341.22647499999994,341.21020069999986,339.2817568999999,,,,,,,,0,1,1.7206203000000642,None,,,,,,,,884,20,M,R,2026-02-18_11h58.41.834,VisualSearch_2526_3,,2025.2.4,2026-02-18 11h58.42.027951 +0100,
vertical.xlsx,The target is tilted.,135,115,3,14,0,1,1,1,1,1,1,1,0,0,0,0,1,7,8,135,space,10.166816899999958,None,0,1,3.553793100000348,None,space,5.730091899999934,None,0,0,0,1,,,,,14,3,115,5,341.22647499999994,,,,,,,,,,,,,,,,,,,,,341.2109538999998,341.22647499999994,341.7100283,341.7148265000001,341.73040579999997,345.29170669999985,,,,,345.29183049999983,345.30767749999995,345.5078632,345.49167780000016,341.73040579999997,,,,,,,,0,1,3.553793100000348,None,,,,,,,,884,20,M,R,2026-02-18_11h58.41.834,VisualSearch_2526_3,,2025.2.4,2026-02-18 11h58.42.027951 +0100,
vertical.xlsx,The target is tilted.,135,116,4,14,1,1,1,1,1,1,1,1,0,0,0,0,0,7,8,135,space,10.166816899999958,None,1,1,6.029601800000364,None,space,5.730091899999934,None,0,0,0,1,,,,,14,4,116,1,345.5078632,,,,,,,,,,,,,,,,,,,,,345.4925066999999,345.5078632,345.9911304000002,345.9958904,346.00973539999995,352.0553325000001,,,,,352.05555809999987,352.0713850000002,352.2712431,352.2552504,346.00973539999995,,,,,,,,1,1,6.029601800000364,None,,,,,,,,884,20,M,R,2026-02-18_11h58.41.834,VisualSearch_2526_3,,2025.2.4,2026-02-18 11h58.42.027951 +0100,
vertical.xlsx,The target is tilted.,135,117,5,14,1,1,1,1,0,0,0,0,0,0,0,0,0,3,4,135,space,10.166816899999958,None,1,1,1.3987153999996735,None,space,5.730091899999934,None,0,0,0,1,,,,,14,5,117,2,352.2712431,,,,,,,,,,,,,,,,,,,,,352.25603379999984,352.2712431,352.7552214000002,352.75997050000024,352.7747961,354.18737409999994,,,,,354.18744479999987,354.2031603999999,354.4038337000002,354.38792460000013,352.7747961,,,,,,,,1,1,1.3987153999996735,None,,,,,,,,884,20,M,R,2026-02-18_11h58.41.834,VisualSearch_2526_3,,2025.2.4,2026-02-18 11h58.42.027951 +0100,
vertical.xlsx,The target is tilted.,135,118,6,14,1,0,0,0,0,0,0,0,0,0,0,0,0,0,1,135,space,10.166816899999958,None,1,1,0.6567893999999797,None,space,5.730091899999934,None,0,0,0,1,,,,,14,6,118,3,354.4038337000002,,,,,,,,,,,,,,,,,,,,,354.3886201,354.4038337000002,354.88745800000015,354.89209979999987,354.90848659999983,355.57104200000003,,,,,355.5712400000002,355.58652949999987,355.7864562999998,355.7700245000001,354.90848659999983,,,,,,,,1,1,0.6567893999999797,None,,,,,,,,884,20,M,R,2026-02-18_11h58.41.834,VisualSearch_2526_3,,2025.2.4,2026-02-18 11h58.42.027951 +0100,
vertical.xlsx,The target is tilted.,135,119,7,14,1,1,1,1,1,1,1,1,1,1,1,1,0,11,12,135,space,10.166816899999958,None,1,1,2.016364600000088,None,space,5.730091899999934,None,0,0,0,1,,,,,14,7,119,0,355.7864562999998,,,,,,,,,,,,,,,,,,,,,355.7708080000002,355.7864562999998,356.27010599999994,356.27479129999983,356.28619260000005,358.31932830000005,,,,,358.31950730000017,358.3351794,358.54795620000004,358.51919420000013,356.28619260000005,,,,,,,,1,1,2.016364600000088,None,,,,,,,,884,20,M,R,2026-02-18_11h58.41.834,VisualSearch_2526_3,,2025.2.4,2026-02-18 11h58.42.027951 +0100,
vertical.xlsx,The target is tilted.,135,0,0,0,,,,,,,,,,,,,,,,,space,10.166816899999958,None,,,,,space,5.730091899999934,None,0,0,0,1,,,,,,,,,,,,,,,,,,,,,,,,,,,,,,,,,,,,,,,,,,,,,,,,,,,,,,,,,,,,,,,884,20,M,R,2026-02-18_11h58.41.834,VisualSearch_2526_3,,2025.2.4,2026-02-18 11h58.42.027951 +0100,
tilted.xlsx,The target is tilted.,117,0,0,0,0,1,1,1,1,1,1,1,0,0,0,0,1,7,8,117,space,40.69805899999983,None,1,0,3.3424512000001414,None,,,,0,1,1,0,0,0,0,5,,,,,399.2754774,,,,,,,,,,,,,,,358.54795620000004,358.54795620000004,358.54795620000004,space,40.69805899999983,None,399.2715796000002,399.2754774,399.7668177999999,399.77154010000004,399.78314820000014,403.1326595999999,1,0,3.3424512000001414,None,403.1328345000002,403.1481174999999,403.3480964999999,403.33209560000023,,,,,,,,,,,,,,,,,,,,884,20,M,R,2026-02-18_11h58.41.834,VisualSearch_2526_3,,2025.2.4,2026-02-18 11h58.42.027951 +0100,
tilted.xlsx,The target is tilted.,117,1,1,0,0,0,0,0,0,0,0,0,0,0,0,0,1,1,1,117,space,40.69805899999983,None,0,1,0.944472599999699,None,,,,0,1,1,0,0,1,1,7,,,,,403.3480964999999,,,,,,,,,,,,,,,,,,,,,403.3328427000001,403.3480964999999,403.8318856000001,403.83676620000006,403.85034829999995,404.7983309000001,0,1,0.944472599999699,None,404.79851620000045,404.8141286,405.0141757000001,404.99799129999974,403.85034829999995,,,,,,,,,,,,,,,,,,,884,20,M,R,2026-02-18_11h58.41.834,VisualSearch_2526_3,,2025.2.4,2026-02-18 11h58.42.027951 +0100,
tilted.xlsx,The target is tilted.,117,2,2,0,0,1,1,1,1,1,1,1,1,1,1,1,1,11,12,117,space,40.69805899999983,None,1,0,2.8701203000000532,None,,,,0,1,1,0,0,2,2,4,,,,,405.0141757000001,,,,,,,,,,,,,,,,,,,,,404.9987027999996,405.0141757000001,405.49762250000003,405.5027650000002,405.5173732000003,408.3970602999998,1,0,2.8701203000000532,None,408.3972445999998,408.41229029999977,408.61231320000024,408.59619829999974,405.5173732000003,,,,,,,,,,,,,,,,,,,884,20,M,R,2026-02-18_11h58.41.834,VisualSearch_2526_3,,2025.2.4,2026-02-18 11h58.42.027951 +0100,
tilted.xlsx,The target is tilted.,117,3,3,0,1,1,1,1,1,1,1,1,0,0,0,0,0,7,8,117,space,40.69805899999983,None,1,1,1.412848899999517,None,,,,0,1,1,0,0,3,3,1,,,,,408.61231320000024,,,,,,,,,,,,,,,,,,,,,408.59695680000004,408.61231320000024,409.0962478000001,409.10129140000026,409.1168856000004,410.5461028999998,1,1,1.412848899999517,None,410.54629490000025,410.5616395999996,410.76138700000047,410.74539689999983,409.1168856000004,,,,,,,,,,,,,,,,,,,884,20,M,R,2026-02-18_11h58.41.834,VisualSearch_2526_3,,2025.2.4,2026-02-18 11h58.42.027951 +0100,
tilted.xlsx,The target is tilted.,117,4,4,0,1,1,1,1,1,1,1,1,1,1,1,1,0,11,12,117,space,40.69805899999983,None,1,1,2.5186752999998134,None,,,,0,1,1,0,0,4,4,0,,,,,410.76138700000047,,,,,,,,,,,,,,,,,,,,,410.74612570000045,410.76138700000047,411.24524310000015,411.2501008999998,411.2657744999997,413.7946592999997,1,1,2.5186752999998134,None,413.79484460000003,413.80977020000046,414.0098447999999,413.99347560000024,411.2657744999997,,,,,,,,,,,,,,,,,,,884,20,M,R,2026-02-18_11h58.41.834,VisualSearch_2526_3,,2025.2.4,2026-02-18 11h58.42.027951 +0100,
tilted.xlsx,The target is tilted.,117,5,5,0,0,1,1,1,0,0,0,0,0,0,0,0,1,3,4,117,space,40.69805899999983,None,0,1,1.93323109999983,None,,,,0,1,1,0,0,5,5,6,,,,,414.0098447999999,,,,,,,,,,,,,,,,,,,,,413.9937603999997,414.0098447999999,414.4937514000003,414.49846249999973,414.51344700000027,416.45997720000014,0,1,1.93323109999983,None,416.4601601000004,416.47571270000026,416.6756994999996,416.659302,414.51344700000027,,,,,,,,,,,,,,,,,,,884,20,M,R,2026-02-18_11h58.41.834,VisualSearch_2526_3,,2025.2.4,2026-02-18 11h58.42.027951 +0100,
tilted.xlsx,The target is tilted.,117,6,6,0,1,0,0,0,0,0,0,0,0,0,0,0,0,0,1,117,space,40.69805899999983,None,1,1,0.728045399999246,None,,,,0,1,1,0,0,6,6,3,,,,,416.6756994999996,,,,,,,,,,,,,,,,,,,,,416.66009140000006,416.6756994999996,417.15887529999964,417.16370710000047,417.1786546000003,417.90916519999973,1,1,0.728045399999246,None,417.9093541000002,417.92494799999986,418.12495359999957,418.10860969999976,417.1786546000003,,,,,,,,,,,,,,,,,,,884,20,M,R,2026-02-18_11h58.41.834,VisualSearch_2526_3,,2025.2.4,2026-02-18 11h58.42.027951 +0100,
tilted.xlsx,The target is tilted.,117,7,7,0,1,1,1,1,0,0,0,0,0,0,0,0,0,3,4,117,space,40.69805899999983,None,1,1,1.1214254000005894,None,,,,0,1,1,0,0,7,7,2,,,,,418.12495359999957,,,,,,,,,,,,,,,,,,,,,418.1092994999999,418.12495359999957,418.6084294000002,418.6131624999998,418.6283986999997,419.7580952999997,1,1,1.1214254000005894,None,419.7582166000002,419.7740818000002,419.97395680000045,419.95826209999996,418.6283986999997,,,,,,,,,,,,,,,,,,,884,20,M,R,2026-02-18_11h58.41.834,VisualSearch_2526_3,,2025.2.4,2026-02-18 11h58.42.027951 +0100,
tilted.xlsx,The target is tilted.,117,0,0,0,0,0,0,0,0,0,0,0,0,0,0,0,1,1,1,117,space,40.69805899999983,None,0,1,0.814177700000073,None,space,2.222092099999827,None,0,1,1,0,,,,,0,0,0,7,422.23568780000005,,,,,,,,,,,,,,,,,,,,,422.23177880000003,422.23568780000005,422.72309049999967,422.7279282999998,422.74413430000004,423.5730051999999,,,,,423.5731314000004,423.5889586000003,423.7888888999996,423.77305909999995,,419.96612079999977,419.97395680000045,419.97395680000045,422.20731499999965,space,2.222092099999827,None,0,1,0.814177700000073,None,,,,,,,,884,20,M,R,2026-02-18_11h58.41.834,VisualSearch_2526_3,,2025.2.4,2026-02-18 11h58.42.027951 +0100,
tilted.xlsx,The target is tilted.,117,1,1,0,1,1,1,1,1,1,1,1,0,0,0,0,0,7,8,117,space,40.69805899999983,None,1,1,2.7643263999998453,None,space,2.222092099999827,None,0,1,1,0,,,,,0,1,1,1,423.7888888999996,,,,,,,,,,,,,,,,,,,,,423.77385680000043,423.7888888999996,424.2722794000001,424.2768782000003,424.2885769000004,427.0549686000004,,,,,427.0551810999996,427.07058510000024,427.27071270000033,427.25455729999976,424.2885769000004,,,,,,,,1,1,2.7643263999998453,None,,,,,,,,884,20,M,R,2026-02-18_11h58.41.834,VisualSearch_2526_3,,2025.2.4,2026-02-18 11h58.42.027951 +0100,
tilted.xlsx,The target is tilted.,117,2,2,0,0,1,1,1,1,1,1,1,0,0,0,0,1,7,8,117,space,40.69805899999983,None,1,0,1.3785628999994515,None,space,2.222092099999827,None,0,1,1,0,,,,,0,2,2,5,427.27071270000033,,,,,,,,,,,,,,,,,,,,,427.25529860000006,427.27071270000033,427.7544605000003,427.75931130000026,427.7743813999996,429.1542325999999,,,,,429.1544319000004,429.1697935000002,429.3697960999998,429.3538736999999,427.7743813999996,,,,,,,,1,0,1.3785628999994515,None,,,,,,,,884,20,M,R,2026-02-18_11h58.41.834,VisualSearch_2526_3,,2025.2.4,2026-02-18 11h58.42.027951 +0100,
tilted.xlsx,The target is tilted.,117,3,3,0,0,1,1,1,1,1,1,1,1,1,1,1,1,11,12,117,space,40.69805899999983,None,1,0,3.760852100000193,None,space,2.222092099999827,None,0,1,1,0,,,,,0,3,3,4,429.3697960999998,,,,,,,,,,,,,,,,,,,,,429.3546944999998,429.3697960999998,429.8535189000004,429.85809599999993,429.8693622999999,433.6354131999997,,,,,433.63558769999963,433.65107890000036,433.8511228999996,433.83515009999974,429.8693622999999,,,,,,,,1,0,3.760852100000193,None,,,,,,,,884,20,M,R,2026-02-18_11h58.41.834,VisualSearch_2526_3,,2025.2.4,2026-02-18 11h58.42.027951 +0100,
tilted.xlsx,The target is tilted.,117,4,4,0,1,0,0,0,0,0,0,0,0,0,0,0,0,0,1,117,space,40.69805899999983,None,1,1,1.189533599999777,None,space,2.222092099999827,None,0,1,1,0,,,,,0,4,4,3,433.8511228999996,,,,,,,,,,,,,,,,,,,,,433.8359038999997,433.8511228999996,434.3346700000002,434.3394337999998,434.35420090000025,435.55069639999965,,,,,435.55083300000024,435.5668974,435.76693200000045,435.7507241000003,434.35420090000025,,,,,,,,1,1,1.189533599999777,None,,,,,,,,884,20,M,R,2026-02-18_11h58.41.834,VisualSearch_2526_3,,2025.2.4,2026-02-18 11h58.42.027951 +0100,
tilted.xlsx,The target is tilted.,117,5,5,0,1,1,1,1,1,1,1,1,1,1,1,1,0,11,12,117,space,40.69805899999983,None,1,1,2.761356699999851,None,space,2.222092099999827,None,0,1,1,0,,,,,0,5,5,0,435.76693200000045,,,,,,,,,,,,,,,,,,,,,435.7514893999996,435.76693200000045,436.25041520000013,436.2551831999999,436.2719301999996,439.04934440000034,,,,,439.04948930000046,439.06532100000004,439.2653548999997,439.2488205999998,436.2719301999996,,,,,,,,1,1,2.761356699999851,None,,,,,,,,884,20,M,R,2026-02-18_11h58.41.834,VisualSearch_2526_3,,2025.2.4,2026-02-18 11h58.42.027951 +0100,
tilted.xlsx,The target is tilted.,117,6,6,0,0,1,1,1,0,0,0,0,0,0,0,0,1,3,4,117,space,40.69805899999983,None,0,1,1.1331977999998344,None,space,2.222092099999827,None,0,1,1,0,,,,,0,6,6,6,439.2653548999997,,,,,,,,,,,,,,,,,,,,,439.2495836999997,439.2653548999997,439.74864290000005,439.75343880000037,439.76802359999965,440.91523589999997,,,,,440.9153815999998,440.93119860000024,441.1309518999997,441.1147348000004,439.76802359999965,,,,,,,,0,1,1.1331977999998344,None,,,,,,,,884,20,M,R,2026-02-18_11h58.41.834,VisualSearch_2526_3,,2025.2.4,2026-02-18 11h58.42.027951 +0100,
tilted.xlsx,The target is tilted.,117,7,7,0,1,1,1,1,0,0,0,0,0,0,0,0,0,3,4,117,space,40.69805899999983,None,1,1,1.8271598999999696,None,space,2.222092099999827,None,0,1,1,0,,,,,0,7,7,2,441.1309518999997,,,,,,,,,,,,,,,,,,,,,441.1154882999999,441.1309518999997,441.6148248999998,441.62066400000003,441.6352644999997,443.4645532000004,,,,,443.4647670000004,443.4798953999998,443.6795685999996,443.6638254999998,441.6352644999997,,,,,,,,1,1,1.8271598999999696,None,,,,,,,,884,20,M,R,2026-02-18_11h58.41.834,VisualSearch_2526_3,,2025.2.4,2026-02-18 11h58.42.027951 +0100,
tilted.xlsx,The target is tilted.,117,8,0,1,0,1,1,1,0,0,0,0,0,0,0,0,1,3,4,117,space,40.69805899999983,None,0,1,1.1485663000003115,None,space,2.222092099999827,None,0,1,1,0,,,,,1,0,8,6,443.6795685999996,,,,,,,,,,,,,,,,,,,,,443.6645871999999,443.6795685999996,444.1636977999997,444.16856220000045,444.1839424,445.34684370000014,,,,,445.34701680000035,445.3625269000004,445.56241580000005,445.5462094000004,444.1839424,,,,,,,,0,1,1.1485663000003115,None,,,,,,,,884,20,M,R,2026-02-18_11h58.41.834,VisualSearch_2526_3,,2025.2.4,2026-02-18 11h58.42.027951 +0100,
tilted.xlsx,The target is tilted.,117,9,1,1,0,0,0,0,0,0,0,0,0,0,0,0,1,1,1,117,space,40.69805899999983,None,0,1,0.7795296000003873,None,space,2.222092099999827,None,0,1,1,0,,,,,1,1,9,7,445.56241580000005,,,,,,,,,,,,,,,,,,,,,445.5469767000004,445.56241580000005,446.04625860000033,446.0510631999996,446.06668400000035,446.8627816999997,,,,,446.8629549999996,446.8781319999998,447.07819689999997,447.0623810999996,446.06668400000035,,,,,,,,0,1,0.7795296000003873,None,,,,,,,,884,20,M,R,2026-02-18_11h58.41.834,VisualSearch_2526_3,,2025.2.4,2026-02-18 11h58.42.027951 +0100,
tilted.xlsx,The target is tilted.,117,10,2,1,1,1,1,1,1,1,1,1,0,0,0,0,0,7,8,117,space,40.69805899999983,None,0,0,3.8012810000000172,None,space,2.222092099999827,None,0,1,1,0,,,,,1,2,10,1,447.07819689999997,,,,,,,,,,,,,,,,,,,,,447.06310329999997,447.07819689999997,447.5620504999997,447.56681899999967,447.58310640000036,451.3943078000002,,,,,451.3944967999996,451.4094464,451.6097166999998,451.5937839999997,447.58310640000036,,,,,,,,0,0,3.8012810000000172,None,,,,,,,,884,20,M,R,2026-02-18_11h58.41.834,VisualSearch_2526_3,,2025.2.4,2026-02-18 11h58.42.027951 +0100,
tilted.xlsx,The target is tilted.,117,11,3,1,1,0,0,0,0,0,0,0,0,0,0,0,0,0,1,117,space,40.69805899999983,None,1,1,0.9091785999999047,None,space,2.222092099999827,None,0,1,1,0,,,,,1,3,11,3,451.6097166999998,,,,,,,,,,,,,,,,,,,,,451.59458429999995,451.6097166999998,452.093038,452.09781290000046,452.1132948000004,453.0261591999997,,,,,453.0263412000004,453.0423873,453.2423740000004,453.2262165000002,452.1132948000004,,,,,,,,1,1,0.9091785999999047,None,,,,,,,,884,20,M,R,2026-02-18_11h58.41.834,VisualSearch_2526_3,,2025.2.4,2026-02-18 11h58.42.027951 +0100,
tilted.xlsx,The target is tilted.,117,12,4,1,0,1,1,1,1,1,1,1,0,0,0,0,1,7,8,117,space,40.69805899999983,None,0,1,4.634085700000469,None,space,2.222092099999827,None,0,1,1,0,,,,,1,4,12,5,453.2423740000004,,,,,,,,,,,,,,,,,,,,,453.2270480999996,453.2423740000004,453.7258920000004,453.7307178000001,453.74643470000046,458.3907657,,,,,458.3909241000001,458.40659680000044,458.60657400000036,458.5901205,453.74643470000046,,,,,,,,0,1,4.634085700000469,None,,,,,,,,884,20,M,R,2026-02-18_11h58.41.834,VisualSearch_2526_3,,2025.2.4,2026-02-18 11h58.42.027951 +0100,
tilted.xlsx,The target is tilted.,117,13,5,1,1,1,1,1,1,1,1,1,1,1,1,1,0,11,12,117,space,40.69805899999983,None,1,1,6.023310499999752,None,space,2.222092099999827,None,0,1,1,0,,,,,1,5,13,0,458.60657400000036,,,,,,,,,,,,,,,,,,,,,458.5908907000003,458.60657400000036,459.0900572999999,459.09483269999964,459.11162950000016,465.13819239999975,,,,,465.13839650000045,465.1531868000002,465.3535224999996,465.3374856999999,459.11162950000016,,,,,,,,1,1,6.023310499999752,None,,,,,,,,884,20,M,R,2026-02-18_11h58.41.834,VisualSearch_2526_3,,2025.2.4,2026-02-18 11h58.42.027951 +0100,
tilted.xlsx,The target is tilted.,117,14,6,1,1,1,1,1,0,0,0,0,0,0,0,0,0,3,4,117,space,40.69805899999983,None,1,1,0.8462666000004901,None,space,2.222092099999827,None,0,1,1,0,,,,,1,6,14,2,465.3535224999996,,,,,,,,,,,,,,,,,,,,,465.33830240000043,465.3535224999996,465.83740709999984,465.8427824999999,465.8577068000004,466.7206354,,,,,466.72082899999987,466.73614739999994,466.93616269999984,466.91990350000015,465.8577068000004,,,,,,,,1,1,0.8462666000004901,None,,,,,,,,884,20,M,R,2026-02-18_11h58.41.834,VisualSearch_2526_3,,2025.2.4,2026-02-18 11h58.42.027951 +0100,
tilted.xlsx,The target is tilted.,117,15,7,1,0,1,1,1,1,1,1,1,1,1,1,1,1,11,12,117,space,40.69805899999983,None,0,1,3.609997100000328,None,space,2.222092099999827,None,0,1,1,0,,,,,1,7,15,4,466.93616269999984,,,,,,,,,,,,,,,,,,,,,466.92063810000036,466.93616269999984,467.41958049999994,467.42440480000005,467.4394046999996,471.0519360999997,,,,,471.0521418999997,471.0674035000002,471.26759479999964,471.25104939999983,467.4394046999996,,,,,,,,0,1,3.609997100000328,None,,,,,,,,884,20,M,R,2026-02-18_11h58.41.834,VisualSearch_2526_3,,2025.2.4,2026-02-18 11h58.42.027951 +0100,
tilted.xlsx,The target is tilted.,117,16,0,2,1,1,1,1,1,1,1,1,0,0,0,0,0,7,8,117,space,40.69805899999983,None,1,1,1.4418574999999691,None,space,2.222092099999827,None,0,1,1,0,,,,,2,0,16,1,471.26759479999964,,,,,,,,,,,,,,,,,,,,,471.2517792999997,471.26759479999964,471.75106700000015,471.7558304000004,471.7719549000003,473.2169235000001,,,,,473.2170710999999,473.2329926000002,473.43318890000046,473.41716689999976,471.7719549000003,,,,,,,,1,1,1.4418574999999691,None,,,,,,,,884,20,M,R,2026-02-18_11h58.41.834,VisualSearch_2526_3,,2025.2.4,2026-02-18 11h58.42.027951 +0100,
tilted.xlsx,The target is tilted.,117,17,1,2,1,1,1,1,1,1,1,1,1,1,1,1,0,11,12,117,space,40.69805899999983,None,1,1,4.304344900000615,None,space,2.222092099999827,None,0,1,1,0,,,,,2,1,17,0,473.43318890000046,,,,,,,,,,,,,,,,,,,,,473.4180187000002,473.43318890000046,473.9168058000005,473.9216342999998,473.9368969999996,478.24876849999964,,,,,478.24896100000024,478.2638950999999,478.4639278000004,478.44806270000026,473.9368969999996,,,,,,,,1,1,4.304344900000615,None,,,,,,,,884,20,M,R,2026-02-18_11h58.41.834,VisualSearch_2526_3,,2025.2.4,2026-02-18 11h58.42.027951 +0100,
tilted.xlsx,The target is tilted.,117,18,2,2,0,1,1,1,1,1,1,1,1,1,1,1,1,11,12,117,space,40.69805899999983,None,0,1,4.2785502999995515,None,space,2.222092099999827,None,0,1,1,0,,,,,2,2,18,4,478.4639278000004,,,,,,,,,,,,,,,,,,,,,478.44883990000017,478.4639278000004,478.94797780000044,478.9530533999996,478.96756300000015,483.2628324999996,,,,,483.2630108000003,483.27870559999974,483.47820239999965,483.46246710000014,478.96756300000015,,,,,,,,0,1,4.2785502999995515,None,,,,,,,,884,20,M,R,2026-02-18_11h58.41.834,VisualSearch_2526_3,,2025.2.4,2026-02-18 11h58.42.027951 +0100,
tilted.xlsx,The target is tilted.,117,19,3,2,0,0,0,0,0,0,0,0,0,0,0,0,1,1,1,117,space,40.69805899999983,None,0,1,0.9850538999999117,None,space,2.222092099999827,None,0,1,1,0,,,,,2,3,19,7,483.47820239999965,,,,,,,,,,,,,,,,,,,,,483.46327649999967,483.47820239999965,483.9622148999997,483.9670070000002,483.98256180000044,484.97914109999965,,,,,484.9793662000002,484.9944998000001,485.1945237,485.17847230000007,483.98256180000044,,,,,,,,0,1,0.9850538999999117,None,,,,,,,,884,20,M,R,2026-02-18_11h58.41.834,VisualSearch_2526_3,,2025.2.4,2026-02-18 11h58.42.027951 +0100,
tilted.xlsx,The target is tilted.,117,20,4,2,1,0,0,0,0,0,0,0,0,0,0,0,0,0,1,117,space,40.69805899999983,None,1,1,0.8193312000003061,None,space,2.222092099999827,None,0,1,1,0,,,,,2,4,20,3,485.1945237,,,,,,,,,,,,,,,,,,,,,485.1793053000001,485.1945237,485.6775399999997,485.6823218999998,485.6947060000002,486.5282780999996,,,,,486.5284525999996,486.5437122000003,486.7434295000003,486.72760709999966,485.6947060000002,,,,,,,,1,1,0.8193312000003061,None,,,,,,,,884,20,M,R,2026-02-18_11h58.41.834,VisualSearch_2526_3,,2025.2.4,2026-02-18 11h58.42.027951 +0100,
tilted.xlsx,The target is tilted.,117,21,5,2,0,1,1,1,0,0,0,0,0,0,0,0,1,3,4,117,space,40.69805899999983,None,0,1,1.2534028000000035,None,space,2.222092099999827,None,0,1,1,0,,,,,2,5,21,6,486.7434295000003,,,,,,,,,,,,,,,,,,,,,486.72839380000005,486.7434295000003,487.2275245000001,487.23221100000046,487.24692909999976,488.51078770000004,,,,,488.5109798000003,488.5263396999999,488.7258062000001,488.710024,487.24692909999976,,,,,,,,0,1,1.2534028000000035,None,,,,,,,,884,20,M,R,2026-02-18_11h58.41.834,VisualSearch_2526_3,,2025.2.4,2026-02-18 11h58.42.027951 +0100,
tilted.xlsx,The target is tilted.,117,22,6,2,1,1,1,1,0,0,0,0,0,0,0,0,0,3,4,117,space,40.69805899999983,None,0,0,1.8727884999998423,None,space,2.222092099999827,None,0,1,1,0,,,,,2,6,22,2,488.7258062000001,,,,,,,,,,,,,,,,,,,,,488.7108207000001,488.7258062000001,489.20982379999987,489.2144595,489.22580279999966,491.10871810000026,,,,,491.1089132999996,491.12502849999964,491.32504210000025,491.3088985000004,489.22580279999966,,,,,,,,0,0,1.8727884999998423,None,,,,,,,,884,20,M,R,2026-02-18_11h58.41.834,VisualSearch_2526_3,,2025.2.4,2026-02-18 11h58.42.027951 +0100,
tilted.xlsx,The target is tilted.,117,23,7,2,0,1,1,1,1,1,1,1,0,0,0,0,1,7,8,117,space,40.69805899999983,None,0,1,3.7300336999996944,None,space,2.222092099999827,None,0,1,1,0,,,,,2,7,23,5,491.32504210000025,,,,,,,,,,,,,,,,,,,,,491.30973110000014,491.32504210000025,491.80831730000045,491.81280309999966,491.8247431,495.5576487999997,,,,,495.5578423999996,495.57270320000043,495.7730653999997,495.75690870000017,491.8247431,,,,,,,,0,1,3.7300336999996944,None,,,,,,,,884,20,M,R,2026-02-18_11h58.41.834,VisualSearch_2526_3,,2025.2.4,2026-02-18 11h58.42.027951 +0100,
tilted.xlsx,The target is tilted.,117,24,0,3,0,1,1,1,1,1,1,1,1,1,1,1,1,11,12,117,space,40.69805899999983,None,0,1,6.510175700000218,None,space,2.222092099999827,None,0,1,1,0,,,,,3,0,24,4,495.7730653999997,,,,,,,,,,,,,,,,,,,,,495.75766120000026,495.7730653999997,496.2568914000003,496.2619070999999,496.27742709999984,502.8037995000004,,,,,502.80393449999974,502.8195447999997,503.01957740000034,503.00317540000015,496.27742709999984,,,,,,,,0,1,6.510175700000218,None,,,,,,,,884,20,M,R,2026-02-18_11h58.41.834,VisualSearch_2526_3,,2025.2.4,2026-02-18 11h58.42.027951 +0100,
tilted.xlsx,The target is tilted.,117,25,1,3,0,1,1,1,0,0,0,0,0,0,0,0,1,3,4,117,space,40.69805899999983,None,0,1,1.4465171000001646,None,space,2.222092099999827,None,0,1,1,0,,,,,3,1,25,6,503.01957740000034,,,,,,,,,,,,,,,,,,,,,503.00356509999983,503.01957740000034,503.5034679999999,503.5081475999996,503.51943029999984,504.96964600000047,,,,,504.96983809999983,504.9851179999996,505.18529130000024,505.1689798999996,503.51943029999984,,,,,,,,0,1,1.4465171000001646,None,,,,,,,,884,20,M,R,2026-02-18_11h58.41.834,VisualSearch_2526_3,,2025.2.4,2026-02-18 11h58.42.027951 +0100,
tilted.xlsx,The target is tilted.,117,26,2,3,0,0,0,0,0,0,0,0,0,0,0,0,1,1,1,117,space,40.69805899999983,None,0,1,0.7391452000001664,None,space,2.222092099999827,None,0,1,1,0,,,,,3,2,26,7,505.18529130000024,,,,,,,,,,,,,,,,,,,,,505.16972090000036,505.18529130000024,505.66898909999964,505.6742626000005,505.68896510000013,506.43544050000037,,,,,506.4355717999997,506.45137669999986,506.65138170000046,506.63536920000024,505.68896510000013,,,,,,,,0,1,0.7391452000001664,None,,,,,,,,884,20,M,R,2026-02-18_11h58.41.834,VisualSearch_2526_3,,2025.2.4,2026-02-18 11h58.42.027951 +0100,
tilted.xlsx,The target is tilted.,117,27,3,3,1,1,1,1,0,0,0,0,0,0,0,0,0,3,4,117,space,40.69805899999983,None,0,0,1.5679046000004746,None,space,2.222092099999827,None,0,1,1,0,,,,,3,3,27,2,506.65138170000046,,,,,,,,,,,,,,,,,,,,,506.6360672999999,506.65138170000046,507.1344423999999,507.13883970000006,507.1541651999996,508.73477660000026,,,,,508.7349554000002,508.75042140000005,508.95036170000003,508.93414459999985,507.1541651999996,,,,,,,,0,0,1.5679046000004746,None,,,,,,,,884,20,M,R,2026-02-18_11h58.41.834,VisualSearch_2526_3,,2025.2.4,2026-02-18 11h58.42.027951 +0100,
tilted.xlsx,The target is tilted.,117,28,4,3,1,1,1,1,1,1,1,1,1,1,1,1,0,11,12,117,space,40.69805899999983,None,1,1,2.9109752000003937,None,space,2.222092099999827,None,0,1,1,0,,,,,3,4,28,0,508.95036170000003,,,,,,,,,,,,,,,,,,,,,508.93493690000014,508.95036170000003,509.4338015000003,509.4391334000002,509.45390959999986,512.3664569000002,,,,,512.3666499000001,512.3820796,512.5816556,512.5661982000001,509.45390959999986,,,,,,,,1,1,2.9109752000003937,None,,,,,,,,884,20,M,R,2026-02-18_11h58.41.834,VisualSearch_2526_3,,2025.2.4,2026-02-18 11h58.42.027951 +0100,
tilted.xlsx,The target is tilted.,117,29,5,3,1,1,1,1,1,1,1,1,0,0,0,0,0,7,8,117,space,40.69805899999983,None,1,1,3.5603656000002957,None,space,2.222092099999827,None,0,1,1,0,,,,,3,5,29,1,512.5816556,,,,,,,,,,,,,,,,,,,,,512.5669024999997,512.5816556,513.0658813,513.0711253,513.0867153999998,516.6646329000005,,,,,516.6648256999997,516.6802550000002,516.8801661999996,516.8641170999999,513.0867153999998,,,,,,,,1,1,3.5603656000002957,None,,,,,,,,884,20,M,R,2026-02-18_11h58.41.834,VisualSearch_2526_3,,2025.2.4,2026-02-18 11h58.42.027951 +0100,
tilted.xlsx,The target is tilted.,117,30,6,3,1,0,0,0,0,0,0,0,0,0,0,0,0,0,1,117,space,40.69805899999983,None,1,1,0.7225055999997494,None,space,2.222092099999827,None,0,1,1,0,,,,,3,6,30,3,516.8801661999996,,,,,,,,,,,,,,,,,,,,,516.8649624,516.8801661999996,517.3633897999998,517.3682146000001,517.3832646999999,518.1140765,,,,,518.1142702999996,518.1294826000003,518.3293460000004,518.3129875000004,517.3832646999999,,,,,,,,1,1,0.7225055999997494,None,,,,,,,,884,20,M,R,2026-02-18_11h58.41.834,VisualSearch_2526_3,,2025.2.4,2026-02-18 11h58.42.027951 +0100,
tilted.xlsx,The target is tilted.,117,31,7,3,0,1,1,1,1,1,1,1,0,0,0,0,1,7,8,117,space,40.69805899999983,None,0,1,8.825525300000663,None,space,2.222092099999827,None,0,1,1,0,,,,,3,7,31,5,518.3293460000004,,,,,,,,,,,,,,,,,,,,,518.3137646000005,518.3293460000004,518.8131049000003,518.8180936999997,518.8336557000002,527.6758861999997,,,,,527.6760559000004,527.6919024999997,527.8914132,527.8758568000003,518.8336557000002,,,,,,,,0,1,8.825525300000663,None,,,,,,,,884,20,M,R,2026-02-18_11h58.41.834,VisualSearch_2526_3,,2025.2.4,2026-02-18 11h58.42.027951 +0100,
tilted.xlsx,The target is tilted.,117,32,0,4,0,1,1,1,1,1,1,1,1,1,1,1,1,11,12,117,space,40.69805899999983,None,0,1,3.5187795000001643,None,space,2.222092099999827,None,0,1,1,0,,,,,4,0,32,4,527.8914132,,,,,,,,,,,,,,,,,,,,,527.8766812000003,527.8914132,528.3756816000005,528.3809733999997,528.3958229999998,531.9241748000004,,,,,531.9243515999997,531.9395849000002,532.1397648000002,532.1233309999998,528.3958229999998,,,,,,,,0,1,3.5187795000001643,None,,,,,,,,884,20,M,R,2026-02-18_11h58.41.834,VisualSearch_2526_3,,2025.2.4,2026-02-18 11h58.42.027951 +0100,
tilted.xlsx,The target is tilted.,117,33,1,4,1,1,1,1,1,1,1,1,1,1,1,1,0,11,12,117,space,40.69805899999983,None,1,1,2.0301603000007162,None,space,2.222092099999827,None,0,1,1,0,,,,,4,1,33,0,532.1397648000002,,,,,,,,,,,,,,,,,,,,,532.1240827000001,532.1397648000002,532.6234586,532.6282647999997,532.6434120000004,534.6892445000003,,,,,534.6894155999998,534.7052113,534.9052041000004,534.8890899999997,532.6434120000004,,,,,,,,1,1,2.0301603000007162,None,,,,,,,,884,20,M,R,2026-02-18_11h58.41.834,VisualSearch_2526_3,,2025.2.4,2026-02-18 11h58.42.027951 +0100,
tilted.xlsx,The target is tilted.,117,34,2,4,1,1,1,1,0,0,0,0,0,0,0,0,0,3,4,117,space,40.69805899999983,None,1,1,0.8887307000004512,None,space,2.222092099999827,None,0,1,1,0,,,,,4,2,34,2,534.9052041000004,,,,,,,,,,,,,,,,,,,,,534.88987,534.9052041000004,535.3888948000003,535.3941298999998,535.4087453000002,536.3056442999996,,,,,536.3058173,536.3211756000001,536.5212536999998,536.5050020999997,535.4087453000002,,,,,,,,1,1,0.8887307000004512,None,,,,,,,,884,20,M,R,2026-02-18_11h58.41.834,VisualSearch_2526_3,,2025.2.4,2026-02-18 11h58.42.027951 +0100,
