file_name,block_instructions,target_example,thisN,thisTrialN,thisRepN,target_presence,opacity_1,opacity_2,opacity_3,opacity_4,opacity_5,opacity_6,opacity_7,opacity_8,opacity_9,opacity_10,opacity_11,opacity_12,n_distract,n_items,target_ori,key_resp_4.keys,key_resp_4.rt,key_resp_4.duration,key_resp.keys,key_resp.corr,key_resp.rt,key_resp.duration,key_resp_5.keys,key_resp_5.rt,key_resp_5.duration,blocks.thisRepN,blocks.thisTrialN,blocks.thisN,blocks.thisIndex,practice_trials.thisRepN,practice_trials.thisTrialN,practice_trials.thisN,practice_trials.thisIndex,trials.thisRepN,trials.thisTrialN,trials.thisN,trials.thisIndex,thisRow.t,notes,Welcome.started,WelcomeText.started,key_resp_2.started,Welcome.stopped,key_resp_2.keys,key_resp_2.rt,key_resp_2.duration,InformedConsent.started,text_4.started,InformedConsent.stopped,key_resp_6.keys,key_resp_6.rt,key_resp_6.duration,key_resp_4.started,example_target.started,text_3.started,blocks.key_resp_4.keys,blocks.key_resp_4.rt,blocks.key_resp_4.duration,FixCross.started,fixCross.started,FixCross.stopped,Stimulus.started,key_resp.started,Stimulus.stopped,practice_trials.key_resp.keys,practice_trials.key_resp.corr,practice_trials.key_resp.rt,practice_trials.key_resp.duration,BlankScreen.started,text.started,text.stopped,BlankScreen.stopped,fixCross.stopped,ExperimentStart.started,text_2.started,key_resp_5.started,ExperimentStart.stopped,blocks.key_resp_5.keys,blocks.key_resp_5.rt,blocks.key_resp_5.duration,trials.key_resp.keys,trials.key_resp.corr,trials.key_resp.rt,trials.key_resp.duration,Thanks.started,ThankYou.started,key_resp_3.started,Thanks.stopped,key_resp_3.keys,key_resp_3.rt,key_resp_3.duration,participant,leeftijd,gender,links/rechtshandig,date,expName,expVersion,psychopyVersion,expStart,
,,,,,,,,,,,,,,,,,,,,,,,,,,,,,,,,,,,,,,,,,,,,,,0.012758999999959997,0.04088239999987309,0.04088239999987309,36.706882699999824,space,36.644217000000026,None,,,,,,,,,,,,,,,,,,,,,,,,,,,,,,,,,,,,,,,,,,,,,,885,23,M,R,2026-02-25_11h28.05.512,VisualSearch_2526_3,,2025.2.4,2026-02-25 11h28.05.709199 +0100,
,,,,,,,,,,,,,,,,,,,,,,,,,,,,,,,,,,,,,,,,,,,,,,,,,,,,,36.706939899999725,36.71240790000002,43.007745500000055,y,6.29069920000029,None,,,,,,,,,,,,,,,,,,,,,,,,,,,,,,,,,,,,,,,,885,23,M,R,2026-02-25_11h28.05.512,VisualSearch_2526_3,,2025.2.4,2026-02-25 11h28.05.709199 +0100,
vertical.xlsx,The target is tilted.,135,0,0,0,1,1,1,1,0,0,0,0,0,0,0,0,0,3,4,135,space,6.412052799999856,None,1,1,0.9022554999996828,None,,,,0,0,0,1,0,0,0,2,,,,,49.488865599999826,,,,,,,,,,,,,,,43.044923800000106,43.044923800000106,43.044923800000106,space,6.412052799999856,None,49.4840307999998,49.488865599999826,49.986775999999736,49.99162989999968,50.007459800000106,50.92024700000002,1,1,0.9022554999996828,None,50.92041859999972,50.93610630000012,51.13587980000011,51.1196259999997,,,,,,,,,,,,,,,,,,,,885,23,M,R,2026-02-25_11h28.05.512,VisualSearch_2526_3,,2025.2.4,2026-02-25 11h28.05.709199 +0100,
vertical.xlsx,The target is tilted.,135,1,1,0,1,1,1,1,1,1,1,1,1,1,1,1,0,11,12,135,space,6.412052799999856,None,1,1,0.7648224999998092,None,,,,0,0,0,1,0,1,1,0,,,,,51.13587980000011,,,,,,,,,,,,,,,,,,,,,51.120329500000025,51.13587980000011,51.61932320000005,51.62411179999981,51.63899670000001,52.41947889999983,1,1,0.7648224999998092,None,52.41967260000001,52.43522919999987,52.63530519999995,52.618787299999894,51.63899670000001,,,,,,,,,,,,,,,,,,,885,23,M,R,2026-02-25_11h28.05.512,VisualSearch_2526_3,,2025.2.4,2026-02-25 11h28.05.709199 +0100,
vertical.xlsx,The target is tilted.,135,2,2,0,1,0,0,0,0,0,0,0,0,0,0,0,0,0,1,135,space,6.412052799999856,None,1,1,0.5000312000001941,None,,,,0,0,0,1,0,2,2,3,,,,,52.63530519999995,,,,,,,,,,,,,,,,,,,,,52.619485599999734,52.63530519999995,53.118616700000075,53.12341259999994,53.13820110000006,53.652244399999745,1,1,0.5000312000001941,None,53.65243839999994,53.66758299999992,53.868125299999974,53.85153420000006,53.13820110000006,,,,,,,,,,,,,,,,,,,885,23,M,R,2026-02-25_11h28.05.512,VisualSearch_2526_3,,2025.2.4,2026-02-25 11h28.05.709199 +0100,
vertical.xlsx,The target is tilted.,135,3,3,0,1,1,1,1,1,1,1,1,0,0,0,0,0,7,8,135,space,6.412052799999856,None,1,1,0.8103747999998632,None,,,,0,0,0,1,0,3,3,1,,,,,53.868125299999974,,,,,,,,,,,,,,,,,,,,,53.8522097,53.868125299999974,54.35134909999988,54.355520499999784,54.37029519999987,55.184696299999814,1,1,0.8103747999998632,None,55.18488269999989,55.200200700000096,55.40065860000004,55.38451880000002,54.37029519999987,,,,,,,,,,,,,,,,,,,885,23,M,R,2026-02-25_11h28.05.512,VisualSearch_2526_3,,2025.2.4,2026-02-25 11h28.05.709199 +0100,
vertical.xlsx,The target is tilted.,135,4,4,0,0,1,1,1,1,1,1,1,0,0,0,0,1,7,8,135,space,6.412052799999856,None,0,1,2.0738446999998814,None,,,,0,0,0,1,0,4,4,5,,,,,55.40065860000004,,,,,,,,,,,,,,,,,,,,,55.38521609999998,55.40065860000004,55.88430470000003,55.88907999999992,55.90434000000005,57.983690099999876,0,1,2.0738446999998814,None,57.9838651,57.99895289999995,58.19933089999995,58.18331779999971,55.90434000000005,,,,,,,,,,,,,,,,,,,885,23,M,R,2026-02-25_11h28.05.512,VisualSearch_2526_3,,2025.2.4,2026-02-25 11h28.05.709199 +0100,
vertical.xlsx,The target is tilted.,135,5,5,0,0,0,0,0,0,0,0,0,0,0,0,0,1,1,1,135,space,6.412052799999856,None,0,1,0.6732624999999643,None,,,,0,0,0,1,0,5,5,7,,,,,58.19933089999995,,,,,,,,,,,,,,,,,,,,,58.18399099999988,58.19933089999995,58.683036899999934,58.68778519999978,58.703960499999994,59.383144999999786,0,1,0.6732624999999643,None,59.38333469999998,59.39811740000005,59.59844840000005,59.58261719999973,58.703960499999994,,,,,,,,,,,,,,,,,,,885,23,M,R,2026-02-25_11h28.05.512,VisualSearch_2526_3,,2025.2.4,2026-02-25 11h28.05.709199 +0100,
vertical.xlsx,The target is tilted.,135,6,6,0,0,1,1,1,1,1,1,1,1,1,1,1,1,11,12,135,space,6.412052799999856,None,0,1,1.9036824999998316,None,,,,0,0,0,1,0,6,6,4,,,,,59.59844840000005,,,,,,,,,,,,,,,,,,,,,59.583310099999835,59.59844840000005,60.08223939999971,60.08697869999969,60.1018839999997,62.01502879999998,0,1,1.9036824999998316,None,62.0152178999997,62.03039239999998,62.230933399999685,62.214772399999674,60.1018839999997,,,,,,,,,,,,,,,,,,,885,23,M,R,2026-02-25_11h28.05.512,VisualSearch_2526_3,,2025.2.4,2026-02-25 11h28.05.709199 +0100,
vertical.xlsx,The target is tilted.,135,7,7,0,0,1,1,1,0,0,0,0,0,0,0,0,1,3,4,135,space,6.412052799999856,None,0,1,0.8371157000001404,None,,,,0,0,0,1,0,7,7,6,,,,,62.230933399999685,,,,,,,,,,,,,,,,,,,,,62.21551079999972,62.230933399999685,62.71466259999988,62.71940700000005,62.73497529999986,63.5808791999998,0,1,0.8371157000001404,None,63.58103260000007,63.59637399999974,63.79666559999987,63.780623000000105,62.73497529999986,,,,,,,,,,,,,,,,,,,885,23,M,R,2026-02-25_11h28.05.512,VisualSearch_2526_3,,2025.2.4,2026-02-25 11h28.05.709199 +0100,
vertical.xlsx,The target is tilted.,135,0,0,0,1,0,0,0,0,0,0,0,0,0,0,0,0,0,1,135,space,6.412052799999856,None,1,1,0.6644827000000078,None,space,2.366977399999996,None,0,0,0,1,,,,,0,0,0,3,66.20323479999979,,,,,,,,,,,,,,,,,,,,,66.19983479999973,66.20323479999979,66.69544459999997,66.70014219999985,66.71650249999993,67.39555380000002,,,,,67.39574679999987,67.4112897,67.61177879999968,67.59554419999995,,63.787678499999856,63.79666559999987,63.79666559999987,66.17937209999991,space,2.366977399999996,None,1,1,0.6644827000000078,None,,,,,,,,885,23,M,R,2026-02-25_11h28.05.512,VisualSearch_2526_3,,2025.2.4,2026-02-25 11h28.05.709199 +0100,
vertical.xlsx,The target is tilted.,135,1,1,0,1,1,1,1,0,0,0,0,0,0,0,0,0,3,4,135,space,6.412052799999856,None,1,1,0.5800908000001073,None,space,2.366977399999996,None,0,0,0,1,,,,,0,1,1,2,67.61177879999968,,,,,,,,,,,,,,,,,,,,,67.59632379999994,67.61177879999968,68.0955257999999,68.10023469999987,68.11531119999972,68.71107359999996,,,,,68.71118219999971,68.72776239999985,,68.91147929999988,68.11531119999972,,,,,,,,1,1,0.5800908000001073,None,,,,,,,,885,23,M,R,2026-02-25_11h28.05.512,VisualSearch_2526_3,,2025.2.4,2026-02-25 11h28.05.709199 +0100,
vertical.xlsx,The target is tilted.,135,2,2,0,0,1,1,1,1,1,1,1,0,0,0,0,1,7,8,135,space,6.412052799999856,None,0,1,2.0061440999998013,None,space,2.366977399999996,None,0,0,0,1,,,,,0,2,2,5,68.92792329999975,,,,,,,,,,,,,,,,,,,,,68.91229299999986,68.92792329999975,69.41140659999974,69.41622980000011,69.43164239999987,71.44381569999996,,,,,71.44402089999994,71.45942349999996,71.65976509999973,71.64380200000005,69.43164239999987,,,,,,,,0,1,2.0061440999998013,None,,,,,,,,885,23,M,R,2026-02-25_11h28.05.512,VisualSearch_2526_3,,2025.2.4,2026-02-25 11h28.05.709199 +0100,
vertical.xlsx,The target is tilted.,135,3,3,0,1,1,1,1,1,1,1,1,0,0,0,0,0,7,8,135,space,6.412052799999856,None,0,0,1.352299099999982,None,space,2.366977399999996,None,0,0,0,1,,,,,0,3,3,1,71.65976509999973,,,,,,,,,,,,,,,,,,,,,71.64472070000011,71.65976509999973,72.14367110000012,72.14860849999968,72.16360299999997,73.52640889999975,,,,,73.52655019999975,73.5419179999999,73.74217039999985,73.72590300000002,72.16360299999997,,,,,,,,0,0,1.352299099999982,None,,,,,,,,885,23,M,R,2026-02-25_11h28.05.512,VisualSearch_2526_3,,2025.2.4,2026-02-25 11h28.05.709199 +0100,
vertical.xlsx,The target is tilted.,135,4,4,0,0,0,0,0,0,0,0,0,0,0,0,0,1,1,1,135,space,6.412052799999856,None,0,1,0.6831161999998585,None,space,2.366977399999996,None,0,0,0,1,,,,,0,4,4,7,73.74217039999985,,,,,,,,,,,,,,,,,,,,,73.72663229999989,73.74217039999985,74.22606739999992,74.2307866000001,74.24579429999994,74.94181879999996,,,,,74.94195799999989,74.95792399999982,75.15827760000002,75.1422822999998,74.24579429999994,,,,,,,,0,1,0.6831161999998585,None,,,,,,,,885,23,M,R,2026-02-25_11h28.05.512,VisualSearch_2526_3,,2025.2.4,2026-02-25 11h28.05.709199 +0100,
vertical.xlsx,The target is tilted.,135,5,5,0,0,1,1,1,1,1,1,1,1,1,1,1,1,11,12,135,space,6.412052799999856,None,0,1,2.9824553000003107,None,space,2.366977399999996,None,0,0,0,1,,,,,0,5,5,4,75.15827760000002,,,,,,,,,,,,,,,,,,,,,75.14310879999994,75.15827760000002,75.6419735999998,75.64673749999974,75.662691,78.65710829999989,,,,,78.65732290000005,78.67285889999994,78.87328660000003,78.85686399999986,75.662691,,,,,,,,0,1,2.9824553000003107,None,,,,,,,,885,23,M,R,2026-02-25_11h28.05.512,VisualSearch_2526_3,,2025.2.4,2026-02-25 11h28.05.709199 +0100,
vertical.xlsx,The target is tilted.,135,6,6,0,1,1,1,1,1,1,1,1,1,1,1,1,0,11,12,135,space,6.412052799999856,None,1,1,0.8838614999999663,None,space,2.366977399999996,None,0,0,0,1,,,,,0,6,6,0,78.87328660000003,,,,,,,,,,,,,,,,,,,,,78.85761939999975,78.87328660000003,79.35701560000007,79.3623935999999,79.37883310000007,80.27356499999996,,,,,80.27374539999983,80.28876300000002,80.48912359999986,80.47311420000005,79.37883310000007,,,,,,,,1,1,0.8838614999999663,None,,,,,,,,885,23,M,R,2026-02-25_11h28.05.512,VisualSearch_2526_3,,2025.2.4,2026-02-25 11h28.05.709199 +0100,
vertical.xlsx,The target is tilted.,135,7,7,0,0,1,1,1,0,0,0,0,0,0,0,0,1,3,4,135,space,6.412052799999856,None,0,1,0.8985712000003332,None,space,2.366977399999996,None,0,0,0,1,,,,,0,7,7,6,80.48912359999986,,,,,,,,,,,,,,,,,,,,,80.47388289999981,80.48912359999986,80.97282059999998,80.97755219999999,80.99230660000012,81.90561769999977,,,,,81.90581119999979,81.92138350000005,82.12158819999968,82.10588430000007,80.99230660000012,,,,,,,,0,1,0.8985712000003332,None,,,,,,,,885,23,M,R,2026-02-25_11h28.05.512,VisualSearch_2526_3,,2025.2.4,2026-02-25 11h28.05.709199 +0100,
vertical.xlsx,The target is tilted.,135,8,0,1,0,1,1,1,0,0,0,0,0,0,0,0,1,3,4,135,space,6.412052799999856,None,0,1,0.9707133000001704,None,space,2.366977399999996,None,0,0,0,1,,,,,1,0,8,6,82.12158819999968,,,,,,,,,,,,,,,,,,,,,82.10663309999973,82.12158819999968,82.60552869999992,82.61021249999976,82.62500469999986,83.6049066999999,,,,,83.60500189999993,83.62033380000003,83.82104979999986,83.8044973000001,82.62500469999986,,,,,,,,0,1,0.9707133000001704,None,,,,,,,,885,23,M,R,2026-02-25_11h28.05.512,VisualSearch_2526_3,,2025.2.4,2026-02-25 11h28.05.709199 +0100,
vertical.xlsx,The target is tilted.,135,9,1,1,0,1,1,1,1,1,1,1,0,0,0,0,1,7,8,135,space,6.412052799999856,None,0,1,1.158140000000003,None,space,2.366977399999996,None,0,0,0,1,,,,,1,1,9,5,83.82104979999986,,,,,,,,,,,,,,,,,,,,,83.80527279999978,83.82104979999986,84.30434519999972,84.30649790000007,84.32030069999973,85.48810219999996,,,,,85.48830199999975,85.50304349999988,85.70330889999968,85.68683060000012,84.32030069999973,,,,,,,,0,1,1.158140000000003,None,,,,,,,,885,23,M,R,2026-02-25_11h28.05.512,VisualSearch_2526_3,,2025.2.4,2026-02-25 11h28.05.709199 +0100,
vertical.xlsx,The target is tilted.,135,10,2,1,1,1,1,1,1,1,1,1,0,0,0,0,0,7,8,135,space,6.412052799999856,None,1,1,1.8044302000002972,None,space,2.366977399999996,None,0,0,0,1,,,,,1,2,10,1,85.70330889999968,,,,,,,,,,,,,,,,,,,,,85.68763869999975,85.70330889999968,86.18683490000012,86.19155379999984,86.20640879999974,88.01917490000005,,,,,88.01929500000006,88.03523479999967,88.23578889999999,88.21941759999982,86.20640879999974,,,,,,,,1,1,1.8044302000002972,None,,,,,,,,885,23,M,R,2026-02-25_11h28.05.512,VisualSearch_2526_3,,2025.2.4,2026-02-25 11h28.05.709199 +0100,
vertical.xlsx,The target is tilted.,135,11,3,1,1,0,0,0,0,0,0,0,0,0,0,0,0,0,1,135,space,6.412052799999856,None,1,1,0.6646992999999384,None,space,2.366977399999996,None,0,0,0,1,,,,,1,3,11,3,88.23578889999999,,,,,,,,,,,,,,,,,,,,,88.22018639999987,88.23578889999999,88.71940169999971,88.72406219999993,88.73982339999975,89.41860169999973,,,,,89.41874099999995,89.43459219999977,89.63465589999987,89.61853440000004,88.73982339999975,,,,,,,,1,1,0.6646992999999384,None,,,,,,,,885,23,M,R,2026-02-25_11h28.05.512,VisualSearch_2526_3,,2025.2.4,2026-02-25 11h28.05.709199 +0100,
vertical.xlsx,The target is tilted.,135,12,4,1,0,0,0,0,0,0,0,0,0,0,0,0,1,1,1,135,space,6.412052799999856,None,0,1,0.669915000000401,None,space,2.366977399999996,None,0,0,0,1,,,,,1,4,12,7,89.63465589999987,,,,,,,,,,,,,,,,,,,,,89.61926439999979,89.63465589999987,90.11867859999984,90.12343899999996,90.13888739999993,90.81903569999986,,,,,90.8192353999998,90.83401229999981,91.03419769999982,91.01830859999973,90.13888739999993,,,,,,,,0,1,0.669915000000401,None,,,,,,,,885,23,M,R,2026-02-25_11h28.05.512,VisualSearch_2526_3,,2025.2.4,2026-02-25 11h28.05.709199 +0100,
vertical.xlsx,The target is tilted.,135,13,5,1,1,1,1,1,1,1,1,1,1,1,1,1,0,11,12,135,space,6.412052799999856,None,1,1,1.3631854000000203,None,space,2.366977399999996,None,0,0,0,1,,,,,1,5,13,0,91.03419769999982,,,,,,,,,,,,,,,,,,,,,91.01904419999983,91.03419769999982,91.51807689999987,91.52290319999975,91.53785319999997,92.91727469999978,,,,,92.91749570000002,92.9330574999999,93.13350069999979,93.11736259999998,91.53785319999997,,,,,,,,1,1,1.3631854000000203,None,,,,,,,,885,23,M,R,2026-02-25_11h28.05.512,VisualSearch_2526_3,,2025.2.4,2026-02-25 11h28.05.709199 +0100,
vertical.xlsx,The target is tilted.,135,14,6,1,1,1,1,1,0,0,0,0,0,0,0,0,0,3,4,135,space,6.412052799999856,None,1,1,0.7425410999999258,None,space,2.366977399999996,None,0,0,0,1,,,,,1,6,14,2,93.13350069999979,,,,,,,,,,,,,,,,,,,,,93.11809379999977,93.13350069999979,93.61723679999977,93.62195650000012,93.63768429999982,94.38361540000005,,,,,94.38381660000005,94.39919669999972,94.59906640000008,94.58341719999999,93.63768429999982,,,,,,,,1,1,0.7425410999999258,None,,,,,,,,885,23,M,R,2026-02-25_11h28.05.512,VisualSearch_2526_3,,2025.2.4,2026-02-25 11h28.05.709199 +0100,
vertical.xlsx,The target is tilted.,135,15,7,1,0,1,1,1,1,1,1,1,1,1,1,1,1,11,12,135,space,6.412052799999856,None,0,1,2.8066298999997343,None,space,2.366977399999996,None,0,0,0,1,,,,,1,7,15,4,94.59906640000008,,,,,,,,,,,,,,,,,,,,,94.58414760000005,94.59906640000008,95.08311800000001,95.08775539999988,95.10294699999986,97.91525129999991,,,,,97.91539039999998,97.93069269999978,98.13124729999981,98.11472890000005,95.10294699999986,,,,,,,,0,1,2.8066298999997343,None,,,,,,,,885,23,M,R,2026-02-25_11h28.05.512,VisualSearch_2526_3,,2025.2.4,2026-02-25 11h28.05.709199 +0100,
vertical.xlsx,The target is tilted.,135,16,0,2,1,1,1,1,0,0,0,0,0,0,0,0,0,3,4,135,space,6.412052799999856,None,1,1,0.7514160999999149,None,space,2.366977399999996,None,0,0,0,1,,,,,2,0,16,2,98.13124729999981,,,,,,,,,,,,,,,,,,,,,98.1154805000001,98.13124729999981,98.6149332,98.61966159999974,98.6343469999997,99.39823769999975,,,,,99.3984301999999,99.41339990000006,99.61380770000005,99.59750450000001,98.6343469999997,,,,,,,,1,1,0.7514160999999149,None,,,,,,,,885,23,M,R,2026-02-25_11h28.05.512,VisualSearch_2526_3,,2025.2.4,2026-02-25 11h28.05.709199 +0100,
vertical.xlsx,The target is tilted.,135,17,1,2,0,1,1,1,1,1,1,1,1,1,1,1,1,11,12,135,space,6.412052799999856,None,0,1,2.2960001999999804,None,space,2.366977399999996,None,0,0,0,1,,,,,2,1,17,4,99.61380770000005,,,,,,,,,,,,,,,,,,,,,99.59826759999987,99.61380770000005,100.09760430000006,100.10267699999986,100.11789819999967,102.42951790000006,,,,,102.4296645999998,102.44522789999974,102.6458560000001,102.62959369999999,100.11789819999967,,,,,,,,0,1,2.2960001999999804,None,,,,,,,,885,23,M,R,2026-02-25_11h28.05.512,VisualSearch_2526_3,,2025.2.4,2026-02-25 11h28.05.709199 +0100,
vertical.xlsx,The target is tilted.,135,18,2,2,0,1,1,1,1,1,1,1,0,0,0,0,1,7,8,135,space,6.412052799999856,None,0,1,1.5662776999997732,None,space,2.366977399999996,None,0,0,0,1,,,,,2,2,18,5,102.6458560000001,,,,,,,,,,,,,,,,,,,,,102.63034130000005,102.6458560000001,103.12935339999967,103.13414239999975,103.14777670000012,104.72827060000009,,,,,104.72841199999993,104.7443029000001,104.94465679999985,104.92870510000012,103.14777670000012,,,,,,,,0,1,1.5662776999997732,None,,,,,,,,885,23,M,R,2026-02-25_11h28.05.512,VisualSearch_2526_3,,2025.2.4,2026-02-25 11h28.05.709199 +0100,
vertical.xlsx,The target is tilted.,135,19,3,2,1,1,1,1,1,1,1,1,0,0,0,0,0,7,8,135,space,6.412052799999856,None,1,1,1.2319923999998537,None,space,2.366977399999996,None,0,0,0,1,,,,,2,3,19,1,104.94465679999985,,,,,,,,,,,,,,,,,,,,,104.92943500000001,104.94465679999985,105.4285688,105.43338790000007,105.4486638999997,106.6941853999997,,,,,106.69432989999996,106.71002610000005,106.91058810000004,106.89428679999992,105.4486638999997,,,,,,,,1,1,1.2319923999998537,None,,,,,,,,885,23,M,R,2026-02-25_11h28.05.512,VisualSearch_2526_3,,2025.2.4,2026-02-25 11h28.05.709199 +0100,
vertical.xlsx,The target is tilted.,135,20,4,2,1,0,0,0,0,0,0,0,0,0,0,0,0,0,1,135,space,6.412052799999856,None,1,1,0.5121235999999953,None,space,2.366977399999996,None,0,0,0,1,,,,,2,4,20,3,106.91058810000004,,,,,,,,,,,,,,,,,,,,,106.89502219999986,106.91058810000004,107.39426379999986,107.39899609999975,107.41572180000003,107.9437598999998,,,,,107.94396449999977,107.95948150000004,108.15989149999996,108.14378429999988,107.41572180000003,,,,,,,,1,1,0.5121235999999953,None,,,,,,,,885,23,M,R,2026-02-25_11h28.05.512,VisualSearch_2526_3,,2025.2.4,2026-02-25 11h28.05.709199 +0100,
vertical.xlsx,The target is tilted.,135,21,5,2,0,0,0,0,0,0,0,0,0,0,0,0,1,1,1,135,space,6.412052799999856,None,0,1,0.7871061999999256,None,space,2.366977399999996,None,0,0,0,1,,,,,2,5,21,7,108.15989149999996,,,,,,,,,,,,,,,,,,,,,108.14461709999978,108.15989149999996,108.64368909999985,108.64839059999986,108.66359949999969,109.46025129999998,,,,,109.46045229999982,109.47552379999979,109.67602669999997,109.65952199999992,108.66359949999969,,,,,,,,0,1,0.7871061999999256,None,,,,,,,,885,23,M,R,2026-02-25_11h28.05.512,VisualSearch_2526_3,,2025.2.4,2026-02-25 11h28.05.709199 +0100,
vertical.xlsx,The target is tilted.,135,22,6,2,0,1,1,1,0,0,0,0,0,0,0,0,1,3,4,135,space,6.412052799999856,None,0,1,0.9302198999998836,None,space,2.366977399999996,None,0,0,0,1,,,,,2,6,22,6,109.67602669999997,,,,,,,,,,,,,,,,,,,,,109.66025469999977,109.67602669999997,110.1594943,110.16398429999981,110.17558019999979,111.10998010000003,,,,,111.1102034999999,111.12486959999978,111.32527019999998,111.30871639999987,110.17558019999979,,,,,,,,0,1,0.9302198999998836,None,,,,,,,,885,23,M,R,2026-02-25_11h28.05.512,VisualSearch_2526_3,,2025.2.4,2026-02-25 11h28.05.709199 +0100,
vertical.xlsx,The target is tilted.,135,23,7,2,1,1,1,1,1,1,1,1,1,1,1,1,0,11,12,135,space,6.412052799999856,None,1,1,0.9260314000002836,None,space,2.366977399999996,None,0,0,0,1,,,,,2,7,23,0,111.32527019999998,,,,,,,,,,,,,,,,,,,,,111.30949299999975,111.32527019999998,111.80866849999984,111.81332440000006,111.82783109999991,112.7582453,,,,,112.75838619999968,112.77372620000006,112.97447430000011,112.95839479999995,111.82783109999991,,,,,,,,1,1,0.9260314000002836,None,,,,,,,,885,23,M,R,2026-02-25_11h28.05.512,VisualSearch_2526_3,,2025.2.4,2026-02-25 11h28.05.709199 +0100,
vertical.xlsx,The target is tilted.,135,24,0,3,0,1,1,1,1,1,1,1,0,0,0,0,1,7,8,135,space,6.412052799999856,None,0,1,1.5769098999999187,None,space,2.366977399999996,None,0,0,0,1,,,,,3,0,24,5,112.97447430000011,,,,,,,,,,,,,,,,,,,,,112.95910210000011,112.97447430000011,113.45809250000002,113.46279999999979,113.47878880000007,115.05783629999996,,,,,115.05804820000003,115.07297849999986,115.27290109999967,115.25715199999968,113.47878880000007,,,,,,,,0,1,1.5769098999999187,None,,,,,,,,885,23,M,R,2026-02-25_11h28.05.512,VisualSearch_2526_3,,2025.2.4,2026-02-25 11h28.05.709199 +0100,
vertical.xlsx,The target is tilted.,135,25,1,3,0,1,1,1,1,1,1,1,1,1,1,1,1,11,12,135,space,6.412052799999856,None,0,1,2.703684399999929,None,space,2.366977399999996,None,0,0,0,1,,,,,3,1,25,4,115.27290109999967,,,,,,,,,,,,,,,,,,,,,115.25817310000002,115.27290109999967,115.75710499999968,115.7619179999997,115.77739339999971,118.48941800000011,,,,,118.48962089999986,118.50477479999972,118.70526990000008,118.68893040000012,115.77739339999971,,,,,,,,0,1,2.703684399999929,None,,,,,,,,885,23,M,R,2026-02-25_11h28.05.512,VisualSearch_2526_3,,2025.2.4,2026-02-25 11h28.05.709199 +0100,
vertical.xlsx,The target is tilted.,135,26,2,3,1,0,0,0,0,0,0,0,0,0,0,0,0,0,1,135,space,6.412052799999856,None,1,1,0.5957019000002219,None,space,2.366977399999996,None,0,0,0,1,,,,,3,2,26,3,118.70526990000008,,,,,,,,,,,,,,,,,,,,,118.68981559999975,118.70526990000008,119.18872009999995,119.19344249999995,119.20824159999984,119.8051688999999,,,,,119.80528819999972,119.82076599999982,120.02096389999997,120.00467849999995,119.20824159999984,,,,,,,,1,1,0.5957019000002219,None,,,,,,,,885,23,M,R,2026-02-25_11h28.05.512,VisualSearch_2526_3,,2025.2.4,2026-02-25 11h28.05.709199 +0100,
vertical.xlsx,The target is tilted.,135,27,3,3,0,1,1,1,0,0,0,0,0,0,0,0,1,3,4,135,space,6.412052799999856,None,0,1,0.7758561000000554,None,space,2.366977399999996,None,0,0,0,1,,,,,3,3,27,6,120.02096389999997,,,,,,,,,,,,,,,,,,,,,120.0054170999997,120.02096389999997,120.50489119999975,120.5097252999999,120.52484550000008,121.30399230000012,,,,,121.30409099999997,121.3199553999998,,121.50420669999994,120.52484550000008,,,,,,,,0,1,0.7758561000000554,None,,,,,,,,885,23,M,R,2026-02-25_11h28.05.512,VisualSearch_2526_3,,2025.2.4,2026-02-25 11h28.05.709199 +0100,
vertical.xlsx,The target is tilted.,135,28,4,3,1,1,1,1,1,1,1,1,0,0,0,0,0,7,8,135,space,6.412052799999856,None,1,1,1.2801398999999947,None,space,2.366977399999996,None,0,0,0,1,,,,,3,4,28,1,121.52052279999998,,,,,,,,,,,,,,,,,,,,,121.50501369999984,121.52052279999998,122.00380099999984,122.00850059999993,122.02375979999988,123.32005799999979,,,,,123.32033180000008,123.33584930000006,123.53634729999976,123.52006789999996,122.02375979999988,,,,,,,,1,1,1.2801398999999947,None,,,,,,,,885,23,M,R,2026-02-25_11h28.05.512,VisualSearch_2526_3,,2025.2.4,2026-02-25 11h28.05.709199 +0100,
vertical.xlsx,The target is tilted.,135,29,5,3,1,1,1,1,0,0,0,0,0,0,0,0,0,3,4,135,space,6.412052799999856,None,1,1,1.434841199999937,None,space,2.366977399999996,None,0,0,0,1,,,,,3,5,29,2,123.53634729999976,,,,,,,,,,,,,,,,,,,,,123.52080049999995,123.53634729999976,124.01987069999996,124.02458949999982,124.03921279999986,125.48611249999976,,,,,125.48629200000005,125.50154329999987,125.70201529999986,125.6861371,124.03921279999986,,,,,,,,1,1,1.434841199999937,None,,,,,,,,885,23,M,R,2026-02-25_11h28.05.512,VisualSearch_2526_3,,2025.2.4,2026-02-25 11h28.05.709199 +0100,
vertical.xlsx,The target is tilted.,135,30,6,3,1,1,1,1,1,1,1,1,1,1,1,1,0,11,12,135,space,6.412052799999856,None,0,0,2.7956803000001855,None,space,2.366977399999996,None,0,0,0,1,,,,,3,6,30,0,125.70201529999986,,,,,,,,,,,,,,,,,,,,,125.68695690000004,125.70201529999986,126.18560309999975,126.19035989999975,126.20538089999991,129.01693739999973,,,,,129.0170395,129.03365469999972,,129.21723410000004,126.20538089999991,,,,,,,,0,0,2.7956803000001855,None,,,,,,,,885,23,M,R,2026-02-25_11h28.05.512,VisualSearch_2526_3,,2025.2.4,2026-02-25 11h28.05.709199 +0100,
vertical.xlsx,The target is tilted.,135,31,7,3,0,0,0,0,0,0,0,0,0,0,0,0,1,1,1,135,space,6.412052799999856,None,0,1,0.720882999999958,None,space,2.366977399999996,None,0,0,0,1,,,,,3,7,31,7,129.23367989999997,,,,,,,,,,,,,,,,,,,,,129.2180202999998,129.23367989999997,129.7171398999999,129.72194940000009,129.73741199999995,130.4675444999998,,,,,130.46776959999988,130.4826350999997,130.68264240000008,130.66684290000012,,,,,,,,,0,1,0.720882999999958,None,,,,,,,,885,23,M,R,2026-02-25_11h28.05.512,VisualSearch_2526_3,,2025.2.4,2026-02-25 11h28.05.709199 +0100,
vertical.xlsx,The target is tilted.,135,32,0,4,1,0,0,0,0,0,0,0,0,0,0,0,0,0,1,135,space,6.412052799999856,None,1,1,0.5949875000001157,None,space,2.366977399999996,None,0,0,0,1,,,,,4,0,32,3,130.68264240000008,,,,,,,,,,,,,,,,,,,,,130.6676152,130.68264240000008,131.16668419999996,131.17140719999998,131.1870813999999,131.7834767999998,,,,,131.78365339999982,131.7986609999998,131.9990042999998,131.98305949999985,131.1870813999999,,,,,,,,1,1,0.5949875000001157,None,,,,,,,,885,23,M,R,2026-02-25_11h28.05.512,VisualSearch_2526_3,,2025.2.4,2026-02-25 11h28.05.709199 +0100,
vertical.xlsx,The target is tilted.,135,33,1,4,0,1,1,1,0,0,0,0,0,0,0,0,1,3,4,135,space,6.412052799999856,None,0,1,0.8613590999998451,None,space,2.366977399999996,None,0,0,0,1,,,,,4,1,33,6,131.9990042999998,,,,,,,,,,,,,,,,,,,,,131.98378869999988,131.9990042999998,132.48278889999983,132.48748380000006,132.4995911000001,133.36543789999996,,,,,133.3655786999998,133.38130359999968,133.5813192999999,133.56572219999998,132.4995911000001,,,,,,,,0,1,0.8613590999998451,None,,,,,,,,885,23,M,R,2026-02-25_11h28.05.512,VisualSearch_2526_3,,2025.2.4,2026-02-25 11h28.05.709199 +0100,
vertical.xlsx,The target is tilted.,135,34,2,4,0,1,1,1,1,1,1,1,1,1,1,1,1,11,12,135,space,6.412052799999856,None,0,1,2.694505399999798,None,space,2.366977399999996,None,0,0,0,1,,,,,4,2,34,4,133.5813192999999,,,,,,,,,,,,,,,,,,,,,133.5664314999999,133.5813192999999,134.06523019999986,134.06991459999972,134.0835801999997,136.78113889999986,,,,,136.78133979999984,136.79641919999995,136.99685060000002,136.9806306999999,134.0835801999997,,,,,,,,0,1,2.694505399999798,None,,,,,,,,885,23,M,R,2026-02-25_11h28.05.512,VisualSearch_2526_3,,2025.2.4,2026-02-25 11h28.05.709199 +0100,
vertical.xlsx,The target is tilted.,135,35,3,4,1,1,1,1,1,1,1,1,0,0,0,0,0,7,8,135,space,6.412052799999856,None,1,1,0.6661879999996927,None,space,2.366977399999996,None,0,0,0,1,,,,,4,3,35,1,136.99685060000002,,,,,,,,,,,,,,,,,,,,,136.98142199999984,136.99685060000002,137.48044589999972,137.4852332999999,137.49949819999983,138.18008269999973,,,,,138.18028719999984,138.19578589999992,138.39595729999974,138.3798824999999,137.49949819999983,,,,,,,,1,1,0.6661879999996927,None,,,,,,,,885,23,M,R,2026-02-25_11h28.05.512,VisualSearch_2526_3,,2025.2.4,2026-02-25 11h28.05.709199 +0100,
vertical.xlsx,The target is tilted.,135,36,4,4,1,1,1,1,0,0,0,0,0,0,0,0,0,3,4,135,space,6.412052799999856,None,1,1,0.9486136999998962,None,space,2.366977399999996,None,0,0,0,1,,,,,4,4,36,2,138.39595729999974,,,,,,,,,,,,,,,,,,,,,138.38069199999973,138.39595729999974,138.8798182999999,138.88447629999973,138.89899100000002,139.86259119999977,,,,,139.86273789999996,139.87828609999997,140.0784475999999,140.06272179999996,138.89899100000002,,,,,,,,1,1,0.9486136999998962,None,,,,,,,,885,23,M,R,2026-02-25_11h28.05.512,VisualSearch_2526_3,,2025.2.4,2026-02-25 11h28.05.709199 +0100,
vertical.xlsx,The target is tilted.,135,37,5,4,1,1,1,1,1,1,1,1,1,1,1,1,0,11,12,135,space,6.412052799999856,None,0,0,1.5567235000003166,None,space,2.366977399999996,None,0,0,0,1,,,,,4,5,37,0,140.0784475999999,,,,,,,,,,,,,,,,,,,,,140.06353839999974,140.0784475999999,140.56199500000002,140.56669569999985,140.5825792999999,142.1456003999997,,,,,142.14580129999968,142.16062569999985,142.36101579999968,142.3448659999999,140.5825792999999,,,,,,,,0,0,1.5567235000003166,None,,,,,,,,885,23,M,R,2026-02-25_11h28.05.512,VisualSearch_2526_3,,2025.2.4,2026-02-25 11h28.05.709199 +0100,
vertical.xlsx,The target is tilted.,135,38,6,4,0,0,0,0,0,0,0,0,0,0,0,0,1,1,1,135,space,6.412052799999856,None,0,1,0.7663049000002502,None,space,2.366977399999996,None,0,0,0,1,,,,,4,6,38,7,142.36101579999968,,,,,,,,,,,,,,,,,,,,,142.3456888999999,142.36101579999968,142.8443511999999,142.8489000999998,142.86571689999982,143.6443879999997,,,,,143.6445177999999,143.65989229999968,143.86001020000003,143.84413730000006,142.86571689999982,,,,,,,,0,1,0.7663049000002502,None,,,,,,,,885,23,M,R,2026-02-25_11h28.05.512,VisualSearch_2526_3,,2025.2.4,2026-02-25 11h28.05.709199 +0100,
vertical.xlsx,The target is tilted.,135,39,7,4,0,1,1,1,1,1,1,1,0,0,0,0,1,7,8,135,space,6.412052799999856,None,0,1,3.118778100000327,None,space,2.366977399999996,None,0,0,0,1,,,,,4,7,39,5,143.86001020000003,,,,,,,,,,,,,,,,,,,,,143.84489209999992,143.86001020000003,144.34410499999967,144.3487766999997,144.36387579999973,147.49270979999983,,,,,147.4928577999999,147.5080936999998,147.7082634999997,147.69237339999972,144.36387579999973,,,,,,,,0,1,3.118778100000327,None,,,,,,,,885,23,M,R,2026-02-25_11h28.05.512,VisualSearch_2526_3,,2025.2.4,2026-02-25 11h28.05.709199 +0100,
vertical.xlsx,The target is tilted.,135,40,0,5,0,1,1,1,1,1,1,1,1,1,1,1,1,11,12,135,space,6.412052799999856,None,0,1,2.368710099999589,None,space,2.366977399999996,None,0,0,0,1,,,,,5,0,40,4,147.7082634999997,,,,,,,,,,,,,,,,,,,,,147.6931337000001,147.7082634999997,148.19225989999995,148.1970738,148.21263240000007,150.59183699999994,,,,,150.5920745999997,150.60679859999982,150.80695509999987,150.79086860000007,148.21263240000007,,,,,,,,0,1,2.368710099999589,None,,,,,,,,885,23,M,R,2026-02-25_11h28.05.512,VisualSearch_2526_3,,2025.2.4,2026-02-25 11h28.05.709199 +0100,
vertical.xlsx,The target is tilted.,135,41,1,5,0,1,1,1,1,1,1,1,0,0,0,0,1,7,8,135,space,6.412052799999856,None,0,1,2.426510700000108,None,space,2.366977399999996,None,0,0,0,1,,,,,5,1,41,5,150.80695509999987,,,,,,,,,,,,,,,,,,,,,150.79160719999982,150.80695509999987,151.2908822999998,151.29567459999998,151.3069502999997,153.7403205999999,,,,,153.74052260000008,153.75523789999988,153.95562999999993,153.93956919999982,151.3069502999997,,,,,,,,0,1,2.426510700000108,None,,,,,,,,885,23,M,R,2026-02-25_11h28.05.512,VisualSearch_2526_3,,2025.2.4,2026-02-25 11h28.05.709199 +0100,
vertical.xlsx,The target is tilted.,135,42,2,5,1,1,1,1,1,1,1,1,1,1,1,1,0,11,12,135,space,6.412052799999856,None,1,1,1.7370370999997249,None,space,2.366977399999996,None,0,0,0,1,,,,,5,2,42,0,153.95562999999993,,,,,,,,,,,,,,,,,,,,,153.9403367,153.95562999999993,154.43914399999994,154.44395399999985,154.45549389999996,156.2056459999999,,,,,156.20584550000012,156.22088540000004,156.42133909999984,156.4050784000001,154.45549389999996,,,,,,,,1,1,1.7370370999997249,None,,,,,,,,885,23,M,R,2026-02-25_11h28.05.512,VisualSearch_2526_3,,2025.2.4,2026-02-25 11h28.05.709199 +0100,
vertical.xlsx,The target is tilted.,135,43,3,5,0,1,1,1,0,0,0,0,0,0,0,0,1,3,4,135,space,6.412052799999856,None,0,1,0.9986829999998008,None,space,2.366977399999996,None,0,0,0,1,,,,,5,3,43,6,156.42133909999984,,,,,,,,,,,,,,,,,,,,,156.40585169999986,156.42133909999984,156.90439449999985,156.90872889999991,156.9238961000001,157.93773409999994,,,,,157.9378839000001,157.95343550000007,158.15399249999973,158.1378095,156.9238961000001,,,,,,,,0,1,0.9986829999998008,None,,,,,,,,885,23,M,R,2026-02-25_11h28.05.512,VisualSearch_2526_3,,2025.2.4,2026-02-25 11h28.05.709199 +0100,
vertical.xlsx,The target is tilted.,135,44,4,5,1,1,1,1,1,1,1,1,0,0,0,0,0,7,8,135,space,6.412052799999856,None,1,1,1.4603290000000015,None,space,2.366977399999996,None,0,0,0,1,,,,,5,4,44,1,158.15399249999973,,,,,,,,,,,,,,,,,,,,,158.1385663000001,158.15399249999973,158.63760879999973,158.64229709999972,158.6576726999997,160.1207285999999,,,,,160.12094419999994,160.1354464000001,160.33617830000003,160.32002250000005,158.6576726999997,,,,,,,,1,1,1.4603290000000015,None,,,,,,,,885,23,M,R,2026-02-25_11h28.05.512,VisualSearch_2526_3,,2025.2.4,2026-02-25 11h28.05.709199 +0100,
vertical.xlsx,The target is tilted.,135,45,5,5,1,1,1,1,0,0,0,0,0,0,0,0,0,3,4,135,space,6.412052799999856,None,1,1,0.6340230999999221,None,space,2.366977399999996,None,0,0,0,1,,,,,5,5,45,2,160.33617830000003,,,,,,,,,,,,,,,,,,,,,160.32079380000005,160.33617830000003,160.81971369999974,160.8243948999998,160.8359115999997,161.4857864999999,,,,,161.4859246000001,161.5017687999998,161.70184759999984,161.68609319999996,160.8359115999997,,,,,,,,1,1,0.6340230999999221,None,,,,,,,,885,23,M,R,2026-02-25_11h28.05.512,VisualSearch_2526_3,,2025.2.4,2026-02-25 11h28.05.709199 +0100,
vertical.xlsx,The target is tilted.,135,46,6,5,1,0,0,0,0,0,0,0,0,0,0,0,0,0,1,135,space,6.412052799999856,None,1,1,0.5028683999998975,None,space,2.366977399999996,None,0,0,0,1,,,,,5,6,46,3,161.70184759999984,,,,,,,,,,,,,,,,,,,,,161.6868470999998,161.70184759999984,162.18591629999992,162.19057659999999,162.2041696000001,162.7190157,,,,,162.71918000000005,162.7345379999997,162.93496529999993,162.9185097999998,162.2041696000001,,,,,,,,1,1,0.5028683999998975,None,,,,,,,,885,23,M,R,2026-02-25_11h28.05.512,VisualSearch_2526_3,,2025.2.4,2026-02-25 11h28.05.709199 +0100,
vertical.xlsx,The target is tilted.,135,47,7,5,0,0,0,0,0,0,0,0,0,0,0,0,1,1,1,135,space,6.412052799999856,None,0,1,0.6371744999996736,None,space,2.366977399999996,None,0,0,0,1,,,,,5,7,47,7,162.93496529999993,,,,,,,,,,,,,,,,,,,,,162.9192398,162.93496529999993,163.4188366999997,163.42354589999968,163.43857639999987,164.08487209999976,,,,,164.08496319999995,164.10048559999996,164.3007902999998,164.28500779999968,163.43857639999987,,,,,,,,0,1,0.6371744999996736,None,,,,,,,,885,23,M,R,2026-02-25_11h28.05.512,VisualSearch_2526_3,,2025.2.4,2026-02-25 11h28.05.709199 +0100,
vertical.xlsx,The target is tilted.,135,48,0,6,1,1,1,1,0,0,0,0,0,0,0,0,0,3,4,135,space,6.412052799999856,None,1,1,0.4905519999997523,None,space,2.366977399999996,None,0,0,0,1,,,,,6,0,48,2,164.3007902999998,,,,,,,,,,,,,,,,,,,,,164.28575349999983,164.3007902999998,164.78472890000012,164.7893822000001,164.8041647,165.30085989999998,,,,,165.3010073999999,165.31671479999977,165.517249,165.50107279999975,164.8041647,,,,,,,,1,1,0.4905519999997523,None,,,,,,,,885,23,M,R,2026-02-25_11h28.05.512,VisualSearch_2526_3,,2025.2.4,2026-02-25 11h28.05.709199 +0100,
vertical.xlsx,The target is tilted.,135,49,1,6,0,1,1,1,1,1,1,1,1,1,1,1,1,11,12,135,space,6.412052799999856,None,0,1,2.084867000000031,None,space,2.366977399999996,None,0,0,0,1,,,,,6,1,49,4,165.517249,,,,,,,,,,,,,,,,,,,,,165.50184249999984,165.517249,166.00078540000004,166.00547959999994,166.02040339999985,168.11663469999985,,,,,168.11683379999977,168.1322170999997,168.3325937999998,168.31639349999978,166.02040339999985,,,,,,,,0,1,2.084867000000031,None,,,,,,,,885,23,M,R,2026-02-25_11h28.05.512,VisualSearch_2526_3,,2025.2.4,2026-02-25 11h28.05.709199 +0100,
vertical.xlsx,The target is tilted.,135,50,2,6,0,1,1,1,0,0,0,0,0,0,0,0,1,3,4,135,space,6.412052799999856,None,0,1,0.7110193999997136,None,space,2.366977399999996,None,0,0,0,1,,,,,6,2,50,6,168.3325937999998,,,,,,,,,,,,,,,,,,,,,168.3171744000001,168.3325937999998,168.81614170000012,168.82082279999986,168.8362459,169.54945249999992,,,,,169.5496720000001,169.56481859999985,169.76487039999984,169.74903649999987,168.8362459,,,,,,,,0,1,0.7110193999997136,None,,,,,,,,885,23,M,R,2026-02-25_11h28.05.512,VisualSearch_2526_3,,2025.2.4,2026-02-25 11h28.05.709199 +0100,
vertical.xlsx,The target is tilted.,135,51,3,6,1,1,1,1,1,1,1,1,1,1,1,1,0,11,12,135,space,6.412052799999856,None,1,1,1.904089600000134,None,space,2.366977399999996,None,0,0,0,1,,,,,6,3,51,0,169.76487039999984,,,,,,,,,,,,,,,,,,,,,169.74979759999997,169.76487039999984,170.2484543999999,170.25312750000012,170.26793300000008,172.18192360000012,,,,,172.1821243999998,172.1969227999998,172.3971174999997,172.3808584999997,170.26793300000008,,,,,,,,1,1,1.904089600000134,None,,,,,,,,885,23,M,R,2026-02-25_11h28.05.512,VisualSearch_2526_3,,2025.2.4,2026-02-25 11h28.05.709199 +0100,
vertical.xlsx,The target is tilted.,135,52,4,6,0,1,1,1,1,1,1,1,0,0,0,0,1,7,8,135,space,6.412052799999856,None,1,0,1.2827762000001712,None,space,2.366977399999996,None,0,0,0,1,,,,,6,4,52,5,172.3971174999997,,,,,,,,,,,,,,,,,,,,,172.38160769999968,172.3971174999997,172.88101740000002,172.8857822,172.90210389999993,174.19721479999998,,,,,174.19734569999991,174.2127003999999,174.41328440000007,174.39713459999984,172.90210389999993,,,,,,,,1,0,1.2827762000001712,None,,,,,,,,885,23,M,R,2026-02-25_11h28.05.512,VisualSearch_2526_3,,2025.2.4,2026-02-25 11h28.05.709199 +0100,
vertical.xlsx,The target is tilted.,135,53,5,6,0,0,0,0,0,0,0,0,0,0,0,0,1,1,1,135,space,6.412052799999856,None,0,1,0.536655299999893,None,space,2.366977399999996,None,0,0,0,1,,,,,6,5,53,7,174.41328440000007,,,,,,,,,,,,,,,,,,,,,174.39789359999986,174.41328440000007,174.89667559999998,174.9013955999999,174.9164249999999,175.46385899999996,,,,,175.4640900999998,175.47875410000006,175.67917679999982,175.66309909999973,174.9164249999999,,,,,,,,0,1,0.536655299999893,None,,,,,,,,885,23,M,R,2026-02-25_11h28.05.512,VisualSearch_2526_3,,2025.2.4,2026-02-25 11h28.05.709199 +0100,
vertical.xlsx,The target is tilted.,135,54,6,6,1,1,1,1,1,1,1,1,0,0,0,0,0,7,8,135,space,6.412052799999856,None,1,1,0.9300329000002421,None,space,2.366977399999996,None,0,0,0,1,,,,,6,6,54,1,175.67917679999982,,,,,,,,,,,,,,,,,,,,,175.66386569999986,175.67917679999982,176.16290170000002,176.16753049999988,176.18279589999975,177.12859219999973,,,,,177.12872879999986,177.14463699999988,177.34519109999974,177.32869200000005,176.18279589999975,,,,,,,,1,1,0.9300329000002421,None,,,,,,,,885,23,M,R,2026-02-25_11h28.05.512,VisualSearch_2526_3,,2025.2.4,2026-02-25 11h28.05.709199 +0100,
vertical.xlsx,The target is tilted.,135,55,7,6,1,0,0,0,0,0,0,0,0,0,0,0,0,0,1,135,space,6.412052799999856,None,1,1,0.5704915000001165,None,space,2.366977399999996,None,0,0,0,1,,,,,6,7,55,3,177.34519109999974,,,,,,,,,,,,,,,,,,,,,177.32943139999998,177.34519109999974,177.82865829999992,177.83344679999982,177.84760849999975,178.42872279999983,,,,,178.42893419999973,178.4441265999999,178.6445576000001,178.62856899999997,177.84760849999975,,,,,,,,1,1,0.5704915000001165,None,,,,,,,,885,23,M,R,2026-02-25_11h28.05.512,VisualSearch_2526_3,,2025.2.4,2026-02-25 11h28.05.709199 +0100,
vertical.xlsx,The target is tilted.,135,56,0,7,0,1,1,1,1,1,1,1,0,0,0,0,1,7,8,135,space,6.412052799999856,None,0,1,1.8757073000001583,None,space,2.366977399999996,None,0,0,0,1,,,,,7,0,56,5,178.6445576000001,,,,,,,,,,,,,,,,,,,,,178.62933049999992,178.6445576000001,179.1283209999997,179.13301409999985,179.14867129999993,181.02762069999972,,,,,181.02781619999996,181.04297069999984,181.2433446,181.22691869999971,179.14867129999993,,,,,,,,0,1,1.8757073000001583,None,,,,,,,,885,23,M,R,2026-02-25_11h28.05.512,VisualSearch_2526_3,,2025.2.4,2026-02-25 11h28.05.709199 +0100,
vertical.xlsx,The target is tilted.,135,57,1,7,1,1,1,1,0,0,0,0,0,0,0,0,0,3,4,135,space,6.412052799999856,None,1,1,0.526553199999853,None,space,2.366977399999996,None,0,0,0,1,,,,,7,1,57,2,181.2433446,,,,,,,,,,,,,,,,,,,,,181.22766219999994,181.2433446,181.7270370000001,181.73177099999975,181.74752820000003,182.27736419999974,,,,,182.2775643,182.29238829999986,182.4927577999997,182.47660469999983,181.74752820000003,,,,,,,,1,1,0.526553199999853,None,,,,,,,,885,23,M,R,2026-02-25_11h28.05.512,VisualSearch_2526_3,,2025.2.4,2026-02-25 11h28.05.709199 +0100,
vertical.xlsx,The target is tilted.,135,58,2,7,1,0,0,0,0,0,0,0,0,0,0,0,0,0,1,135,space,6.412052799999856,None,1,1,0.4625053999998272,None,space,2.366977399999996,None,0,0,0,1,,,,,7,2,58,3,182.4927577999997,,,,,,,,,,,,,,,,,,,,,182.47739869999987,182.4927577999997,182.97608809999974,182.98081079999974,182.9943642999997,183.45992509999996,,,,,183.46010509999996,183.4751428999998,183.67559279999978,183.65915459999997,182.9943642999997,,,,,,,,1,1,0.4625053999998272,None,,,,,,,,885,23,M,R,2026-02-25_11h28.05.512,VisualSearch_2526_3,,2025.2.4,2026-02-25 11h28.05.709199 +0100,
vertical.xlsx,The target is tilted.,135,59,3,7,0,1,1,1,1,1,1,1,1,1,1,1,1,11,12,135,space,6.412052799999856,None,0,1,2.805569699999978,None,space,2.366977399999996,None,0,0,0,1,,,,,7,3,59,4,183.67559279999978,,,,,,,,,,,,,,,,,,,,,183.6598887,183.67559279999978,184.15879719999975,184.16350609999972,184.1791457999998,186.99067939999986,,,,,186.99077110000007,187.0067199,,187.19094649999988,184.1791457999998,,,,,,,,0,1,2.805569699999978,None,,,,,,,,885,23,M,R,2026-02-25_11h28.05.512,VisualSearch_2526_3,,2025.2.4,2026-02-25 11h28.05.709199 +0100,
vertical.xlsx,The target is tilted.,135,60,4,7,1,1,1,1,1,1,1,1,1,1,1,1,0,11,12,135,space,6.412052799999856,None,1,1,1.4799414000003708,None,space,2.366977399999996,None,0,0,0,1,,,,,7,4,60,0,187.20745850000003,,,,,,,,,,,,,,,,,,,,,187.19176849999985,187.20745850000003,187.69096899999977,187.6956037,187.7105689,189.20636299999978,,,,,189.20648889999984,189.2225386,,189.40661899999986,187.7105689,,,,,,,,1,1,1.4799414000003708,None,,,,,,,,885,23,M,R,2026-02-25_11h28.05.512,VisualSearch_2526_3,,2025.2.4,2026-02-25 11h28.05.709199 +0100,
vertical.xlsx,The target is tilted.,135,61,5,7,0,0,0,0,0,0,0,0,0,0,0,0,1,1,1,135,space,6.412052799999856,None,0,1,0.6957499999998618,None,space,2.366977399999996,None,0,0,0,1,,,,,7,5,61,7,189.42299000000003,,,,,,,,,,,,,,,,,,,,,189.40738629999987,189.42299000000003,189.90658299999996,189.91126099999974,189.92696879999994,190.63979849999987,,,,,190.63997569999992,190.6552131999997,190.85574420000012,190.83938519999992,189.92696879999994,,,,,,,,0,1,0.6957499999998618,None,,,,,,,,885,23,M,R,2026-02-25_11h28.05.512,VisualSearch_2526_3,,2025.2.4,2026-02-25 11h28.05.709199 +0100,
vertical.xlsx,The target is tilted.,135,62,6,7,1,1,1,1,1,1,1,1,0,0,0,0,0,7,8,135,space,6.412052799999856,None,0,0,1.8274077000000943,None,space,2.366977399999996,None,0,0,0,1,,,,,7,6,62,1,190.85574420000012,,,,,,,,,,,,,,,,,,,,,190.8401503,190.85574420000012,191.3386743000001,191.34159379999983,191.35506029999988,193.18866329999992,,,,,193.1888758,193.20409930000005,193.40461879999975,193.38853859999972,191.35506029999988,,,,,,,,0,0,1.8274077000000943,None,,,,,,,,885,23,M,R,2026-02-25_11h28.05.512,VisualSearch_2526_3,,2025.2.4,2026-02-25 11h28.05.709199 +0100,
vertical.xlsx,The target is tilted.,135,63,7,7,0,1,1,1,0,0,0,0,0,0,0,0,1,3,4,135,space,6.412052799999856,None,0,1,0.8447197000000415,None,space,2.366977399999996,None,0,0,0,1,,,,,7,7,63,6,193.40461879999975,,,,,,,,,,,,,,,,,,,,,193.38929299999972,193.40461879999975,193.88811619999979,193.89277139999967,193.9073112000001,194.75458170000002,,,,,194.7547743,194.77006269999993,194.97043299999996,194.9541820999998,193.9073112000001,,,,,,,,0,1,0.8447197000000415,None,,,,,,,,885,23,M,R,2026-02-25_11h28.05.512,VisualSearch_2526_3,,2025.2.4,2026-02-25 11h28.05.709199 +0100,
vertical.xlsx,The target is tilted.,135,64,0,8,1,0,0,0,0,0,0,0,0,0,0,0,0,0,1,135,space,6.412052799999856,None,1,1,0.612447400000292,None,space,2.366977399999996,None,0,0,0,1,,,,,8,0,64,3,194.97043299999996,,,,,,,,,,,,,,,,,,,,,194.95495889999984,194.97043299999996,195.4541693000001,195.4588033,195.47388120000005,196.08716219999997,,,,,196.0873075999998,196.10256029999982,196.30320009999969,196.2871138999999,195.47388120000005,,,,,,,,1,1,0.612447400000292,None,,,,,,,,885,23,M,R,2026-02-25_11h28.05.512,VisualSearch_2526_3,,2025.2.4,2026-02-25 11h28.05.709199 +0100,
vertical.xlsx,The target is tilted.,135,65,1,8,1,1,1,1,1,1,1,1,0,0,0,0,0,7,8,135,space,6.412052799999856,None,1,1,2.3988690000001043,None,space,2.366977399999996,None,0,0,0,1,,,,,8,1,65,1,196.30320009999969,,,,,,,,,,,,,,,,,,,,,196.2878439000001,196.30320009999969,196.7864870999997,196.7912306999997,196.80733699999973,199.21903969999994,,,,,199.2192173999997,199.2346508999999,199.435109,199.4186265999997,196.80733699999973,,,,,,,,1,1,2.3988690000001043,None,,,,,,,,885,23,M,R,2026-02-25_11h28.05.512,VisualSearch_2526_3,,2025.2.4,2026-02-25 11h28.05.709199 +0100,
vertical.xlsx,The target is tilted.,135,66,2,8,1,1,1,1,0,0,0,0,0,0,0,0,0,3,4,135,space,6.412052799999856,None,1,1,0.5970562999996218,None,space,2.366977399999996,None,0,0,0,1,,,,,8,2,66,2,199.435109,,,,,,,,,,,,,,,,,,,,,199.41937069999994,199.435109,199.91852119999976,199.9232474999999,199.9388058999998,200.55164280000008,,,,,200.55183850000003,200.56727580000006,200.76791270000012,200.75136909999992,199.9388058999998,,,,,,,,1,1,0.5970562999996218,None,,,,,,,,885,23,M,R,2026-02-25_11h28.05.512,VisualSearch_2526_3,,2025.2.4,2026-02-25 11h28.05.709199 +0100,
vertical.xlsx,The target is tilted.,135,67,3,8,0,1,1,1,0,0,0,0,0,0,0,0,1,3,4,135,space,6.412052799999856,None,0,1,0.7784013999998933,None,space,2.366977399999996,None,0,0,0,1,,,,,8,3,67,6,200.76791270000012,,,,,,,,,,,,,,,,,,,,,200.75214099999994,200.76791270000012,201.25109410000005,201.2537926,201.26742130000002,202.05160149999983,,,,,202.05179529999987,202.06660199999988,202.2667449999999,202.25107690000004,201.26742130000002,,,,,,,,0,1,0.7784013999998933,None,,,,,,,,885,23,M,R,2026-02-25_11h28.05.512,VisualSearch_2526_3,,2025.2.4,2026-02-25 11h28.05.709199 +0100,
vertical.xlsx,The target is tilted.,135,68,4,8,0,1,1,1,1,1,1,1,1,1,1,1,1,11,12,135,space,6.412052799999856,None,0,1,2.7658283999999185,None,space,2.366977399999996,None,0,0,0,1,,,,,8,4,68,4,202.2667449999999,,,,,,,,,,,,,,,,,,,,,202.25185729999976,202.2667449999999,202.75036550000004,202.7550014999997,202.76869469999974,205.54915819999997,,,,,205.54929519999996,205.56510230000004,205.76557839999987,205.74922340000012,202.76869469999974,,,,,,,,0,1,2.7658283999999185,None,,,,,,,,885,23,M,R,2026-02-25_11h28.05.512,VisualSearch_2526_3,,2025.2.4,2026-02-25 11h28.05.709199 +0100,
vertical.xlsx,The target is tilted.,135,69,5,8,0,0,0,0,0,0,0,0,0,0,0,0,1,1,1,135,space,6.412052799999856,None,0,1,0.7742361999999048,None,space,2.366977399999996,None,0,0,0,1,,,,,8,5,69,7,205.76557839999987,,,,,,,,,,,,,,,,,,,,,205.74997189999976,205.76557839999987,206.24886019999985,206.2535696,206.26902990000008,207.0486218000001,,,,,207.0487551000001,207.06454809999968,207.26467950000006,207.24870909999981,206.26902990000008,,,,,,,,0,1,0.7742361999999048,None,,,,,,,,885,23,M,R,2026-02-25_11h28.05.512,VisualSearch_2526_3,,2025.2.4,2026-02-25 11h28.05.709199 +0100,
vertical.xlsx,The target is tilted.,135,70,6,8,1,1,1,1,1,1,1,1,1,1,1,1,0,11,12,135,space,6.412052799999856,None,1,1,1.235772900000029,None,space,2.366977399999996,None,0,0,0,1,,,,,8,6,70,0,207.26467950000006,,,,,,,,,,,,,,,,,,,,,207.24945750000006,207.26467950000006,207.74814969999989,207.75280359999988,207.76771980000012,209.01519319999989,,,,,209.01538410000012,209.0301457999999,209.23064440000007,209.21390799999972,207.76771980000012,,,,,,,,1,1,1.235772900000029,None,,,,,,,,885,23,M,R,2026-02-25_11h28.05.512,VisualSearch_2526_3,,2025.2.4,2026-02-25 11h28.05.709199 +0100,
vertical.xlsx,The target is tilted.,135,71,7,8,0,1,1,1,1,1,1,1,0,0,0,0,1,7,8,135,space,6.412052799999856,None,0,1,1.4793786999998702,None,space,2.366977399999996,None,0,0,0,1,,,,,8,7,71,5,209.23064440000007,,,,,,,,,,,,,,,,,,,,,209.2145827999998,209.23064440000007,209.7139788999998,209.71861940000008,209.7335152999999,211.2146485999997,,,,,211.2147841000001,211.22917879999977,211.42958539999972,211.4134395000001,209.7335152999999,,,,,,,,0,1,1.4793786999998702,None,,,,,,,,885,23,M,R,2026-02-25_11h28.05.512,VisualSearch_2526_3,,2025.2.4,2026-02-25 11h28.05.709199 +0100,
vertical.xlsx,The target is tilted.,135,72,0,9,1,1,1,1,1,1,1,1,1,1,1,1,0,11,12,135,space,6.412052799999856,None,1,1,1.1196160999998028,None,space,2.366977399999996,None,0,0,0,1,,,,,9,0,72,0,211.42958539999972,,,,,,,,,,,,,,,,,,,,,211.41423570000006,211.42958539999972,211.91302959999985,211.91733589999967,211.92891629999986,213.06259679999994,,,,,213.06279919999997,213.07829319999973,213.27848790000007,213.2625355,211.92891629999986,,,,,,,,1,1,1.1196160999998028,None,,,,,,,,885,23,M,R,2026-02-25_11h28.05.512,VisualSearch_2526_3,,2025.2.4,2026-02-25 11h28.05.709199 +0100,
vertical.xlsx,The target is tilted.,135,73,1,9,0,0,0,0,0,0,0,0,0,0,0,0,1,1,1,135,space,6.412052799999856,None,0,1,0.7476704000000609,None,space,2.366977399999996,None,0,0,0,1,,,,,9,1,73,7,213.27848790000007,,,,,,,,,,,,,,,,,,,,,213.2633338999999,213.27848790000007,213.76246589999982,213.7670817999997,213.78026659999978,214.5287029000001,,,,,214.52881769999976,214.54428000000007,214.74454659999992,214.72835529999975,213.78026659999978,,,,,,,,0,1,0.7476704000000609,None,,,,,,,,885,23,M,R,2026-02-25_11h28.05.512,VisualSearch_2526_3,,2025.2.4,2026-02-25 11h28.05.709199 +0100,
vertical.xlsx,The target is tilted.,135,74,2,9,0,1,1,1,1,1,1,1,0,0,0,0,1,7,8,135,space,6.412052799999856,None,0,1,1.827064899999641,None,space,2.366977399999996,None,0,0,0,1,,,,,9,2,74,5,214.74454659999992,,,,,,,,,,,,,,,,,,,,,214.72907869999972,214.74454659999992,215.2285692999999,215.23320449999983,215.2482170999997,217.0781807999997,,,,,217.07835369999975,217.09311919999982,217.29364869999972,217.2776144999998,215.2482170999997,,,,,,,,0,1,1.827064899999641,None,,,,,,,,885,23,M,R,2026-02-25_11h28.05.512,VisualSearch_2526_3,,2025.2.4,2026-02-25 11h28.05.709199 +0100,
vertical.xlsx,The target is tilted.,135,75,3,9,1,1,1,1,0,0,0,0,0,0,0,0,0,3,4,135,space,6.412052799999856,None,1,1,0.7646896000001107,None,space,2.366977399999996,None,0,0,0,1,,,,,9,3,75,2,217.29364869999972,,,,,,,,,,,,,,,,,,,,,217.2783411999999,217.29364869999972,217.77728320000006,217.78183940000008,217.79639369999995,218.57634569999982,,,,,218.57646459999978,218.59283189999996,218.7929681999999,218.77662819999978,217.79639369999995,,,,,,,,1,1,0.7646896000001107,None,,,,,,,,885,23,M,R,2026-02-25_11h28.05.512,VisualSearch_2526_3,,2025.2.4,2026-02-25 11h28.05.709199 +0100,
vertical.xlsx,The target is tilted.,135,76,4,9,0,1,1,1,0,0,0,0,0,0,0,0,1,3,4,135,space,6.412052799999856,None,0,1,0.9432019999999284,None,space,2.366977399999996,None,0,0,0,1,,,,,9,4,76,6,218.7929681999999,,,,,,,,,,,,,,,,,,,,,218.77737709999974,218.7929681999999,219.27657799999997,219.28113989999974,219.29709409999987,220.2435013999998,,,,,220.24377389999972,220.25840040000003,220.4585763,220.44269940000004,219.29709409999987,,,,,,,,0,1,0.9432019999999284,None,,,,,,,,885,23,M,R,2026-02-25_11h28.05.512,VisualSearch_2526_3,,2025.2.4,2026-02-25 11h28.05.709199 +0100,
vertical.xlsx,The target is tilted.,135,77,5,9,1,1,1,1,1,1,1,1,0,0,0,0,0,7,8,135,space,6.412052799999856,None,1,1,2.5216129999998884,None,space,2.366977399999996,None,0,0,0,1,,,,,9,5,77,1,220.4585763,,,,,,,,,,,,,,,,,,,,,220.4434437,220.4585763,220.94214299999976,220.94672390000005,220.9600658999998,223.49146990000008,,,,,223.49166079999986,223.50694329999988,223.70739649999996,223.6908613999999,220.9600658999998,,,,,,,,1,1,2.5216129999998884,None,,,,,,,,885,23,M,R,2026-02-25_11h28.05.512,VisualSearch_2526_3,,2025.2.4,2026-02-25 11h28.05.709199 +0100,
vertical.xlsx,The target is tilted.,135,78,6,9,0,1,1,1,1,1,1,1,1,1,1,1,1,11,12,135,space,6.412052799999856,None,0,1,2.424477499999739,None,space,2.366977399999996,None,0,0,0,1,,,,,9,6,78,4,223.70739649999996,,,,,,,,,,,,,,,,,,,,,223.69157529999984,223.70739649999996,224.1904853000001,224.1945829000001,224.20878059999995,226.6397877999998,,,,,226.6399481999997,226.65541219999977,226.8557412,226.83935500000007,224.20878059999995,,,,,,,,0,1,2.424477499999739,None,,,,,,,,885,23,M,R,2026-02-25_11h28.05.512,VisualSearch_2526_3,,2025.2.4,2026-02-25 11h28.05.709199 +0100,
vertical.xlsx,The target is tilted.,135,79,7,9,1,0,0,0,0,0,0,0,0,0,0,0,0,0,1,135,space,6.412052799999856,None,1,1,0.8039022999996632,None,space,2.366977399999996,None,0,0,0,1,,,,,9,7,79,3,226.8557412,,,,,,,,,,,,,,,,,,,,,226.84010390000003,226.8557412,227.33943180000006,227.3440571000001,227.3592718,228.1726152000001,,,,,228.1727496999997,228.18814780000002,228.3881682000001,228.37241050000011,227.3592718,,,,,,,,1,1,0.8039022999996632,None,,,,,,,,885,23,M,R,2026-02-25_11h28.05.512,VisualSearch_2526_3,,2025.2.4,2026-02-25 11h28.05.709199 +0100,
vertical.xlsx,The target is tilted.,135,80,0,10,1,1,1,1,1,1,1,1,0,0,0,0,0,7,8,135,space,6.412052799999856,None,1,1,2.716342899999745,None,space,2.366977399999996,None,0,0,0,1,,,,,10,0,80,1,228.3881682000001,,,,,,,,,,,,,,,,,,,,,228.37313089999998,228.3881682000001,228.87221769999996,228.87683479999987,228.8924920999998,231.62063880000005,,,,,231.6207741999997,231.6366167000001,231.8371001999999,231.82087709999996,228.8924920999998,,,,,,,,1,1,2.716342899999745,None,,,,,,,,885,23,M,R,2026-02-25_11h28.05.512,VisualSearch_2526_3,,2025.2.4,2026-02-25 11h28.05.709199 +0100,
vertical.xlsx,The target is tilted.,135,81,1,10,1,1,1,1,1,1,1,1,1,1,1,1,0,11,12,135,space,6.412052799999856,None,1,1,1.2697379000001092,None,space,2.366977399999996,None,0,0,0,1,,,,,10,1,81,0,231.8371001999999,,,,,,,,,,,,,,,,,,,,,231.82162909999988,231.8371001999999,232.32055020000007,232.32512859999997,232.34166049999976,233.6202914999999,,,,,233.6204484,233.6356579999997,233.8358264999997,233.8196743999997,232.34166049999976,,,,,,,,1,1,1.2697379000001092,None,,,,,,,,885,23,M,R,2026-02-25_11h28.05.512,VisualSearch_2526_3,,2025.2.4,2026-02-25 11h28.05.709199 +0100,
vertical.xlsx,The target is tilted.,135,82,2,10,0,1,1,1,1,1,1,1,1,1,1,1,1,11,12,135,space,6.412052799999856,None,0,1,2.929562199999964,None,space,2.366977399999996,None,0,0,0,1,,,,,10,2,82,4,233.8358264999997,,,,,,,,,,,,,,,,,,,,,233.82039919999988,233.8358264999997,234.3196482999997,234.32229370000005,234.33565599999974,237.26848040000004,,,,,237.26865499999985,237.28400039999997,237.4845065999998,237.46813819999988,234.33565599999974,,,,,,,,0,1,2.929562199999964,None,,,,,,,,885,23,M,R,2026-02-25_11h28.05.512,VisualSearch_2526_3,,2025.2.4,2026-02-25 11h28.05.709199 +0100,
vertical.xlsx,The target is tilted.,135,83,3,10,1,0,0,0,0,0,0,0,0,0,0,0,0,0,1,135,space,6.412052799999856,None,1,1,0.578692399999909,None,space,2.366977399999996,None,0,0,0,1,,,,,10,3,83,3,237.4845065999998,,,,,,,,,,,,,,,,,,,,,237.4688812999998,237.4845065999998,237.96810099999993,237.9727625999999,237.98834739999984,238.58451949999971,,,,,238.58464909999975,238.60021749999987,238.80051349999985,238.78452759999982,237.98834739999984,,,,,,,,1,1,0.578692399999909,None,,,,,,,,885,23,M,R,2026-02-25_11h28.05.512,VisualSearch_2526_3,,2025.2.4,2026-02-25 11h28.05.709199 +0100,
vertical.xlsx,The target is tilted.,135,84,4,10,1,1,1,1,0,0,0,0,0,0,0,0,0,3,4,135,space,6.412052799999856,None,1,1,0.8662955999998303,None,space,2.366977399999996,None,0,0,0,1,,,,,10,4,84,2,238.80051349999985,,,,,,,,,,,,,,,,,,,,,238.78538209999988,238.80051349999985,239.28399609999997,239.28863509999974,239.30371049999985,240.18342889999985,,,,,240.1835646999998,240.19971940000005,240.39973229999987,240.38376130000006,239.30371049999985,,,,,,,,1,1,0.8662955999998303,None,,,,,,,,885,23,M,R,2026-02-25_11h28.05.512,VisualSearch_2526_3,,2025.2.4,2026-02-25 11h28.05.709199 +0100,
vertical.xlsx,The target is tilted.,135,85,5,10,0,1,1,1,0,0,0,0,0,0,0,0,1,3,4,135,space,6.412052799999856,None,0,1,0.7039820999998483,None,space,2.366977399999996,None,0,0,0,1,,,,,10,5,85,6,240.39973229999987,,,,,,,,,,,,,,,,,,,,,240.3845508999998,240.39973229999987,240.8834471,240.8879978,240.90522169999986,241.6162102999997,,,,,241.61629300000004,241.63220469999987,241.83244719999993,241.8163873999997,240.90522169999986,,,,,,,,0,1,0.7039820999998483,None,,,,,,,,885,23,M,R,2026-02-25_11h28.05.512,VisualSearch_2526_3,,2025.2.4,2026-02-25 11h28.05.709199 +0100,
vertical.xlsx,The target is tilted.,135,86,6,10,0,0,0,0,0,0,0,0,0,0,0,0,1,1,1,135,space,6.412052799999856,None,0,1,0.8466032999999697,None,space,2.366977399999996,None,0,0,0,1,,,,,10,6,86,7,241.83244719999993,,,,,,,,,,,,,,,,,,,,,241.81713119999995,241.83244719999993,242.3159228999998,242.32048179999992,242.3357662999997,243.1993351000001,,,,,243.19951140000012,243.2150898,243.41507349999983,243.39848940000002,242.3357662999997,,,,,,,,0,1,0.8466032999999697,None,,,,,,,,885,23,M,R,2026-02-25_11h28.05.512,VisualSearch_2526_3,,2025.2.4,2026-02-25 11h28.05.709199 +0100,
vertical.xlsx,The target is tilted.,135,87,7,10,0,1,1,1,1,1,1,1,0,0,0,0,1,7,8,135,space,6.412052799999856,None,0,1,2.281311899999764,None,space,2.366977399999996,None,0,0,0,1,,,,,10,7,87,5,243.41507349999983,,,,,,,,,,,,,,,,,,,,,243.3992519999997,243.41507349999983,243.89858240000012,243.9031841000001,243.91797889999998,246.21437399999968,,,,,246.2145105999998,246.23026879999998,246.43023279999989,246.41398019999997,243.91797889999998,,,,,,,,0,1,2.281311899999764,None,,,,,,,,885,23,M,R,2026-02-25_11h28.05.512,VisualSearch_2526_3,,2025.2.4,2026-02-25 11h28.05.709199 +0100,
vertical.xlsx,The target is tilted.,135,88,0,11,0,1,1,1,0,0,0,0,0,0,0,0,1,3,4,135,space,6.412052799999856,None,0,1,1.07788440000013,None,space,2.366977399999996,None,0,0,0,1,,,,,11,0,88,6,246.43023279999989,,,,,,,,,,,,,,,,,,,,,246.41472109999995,246.43023279999989,246.91423769999983,246.9195397999997,246.9342127,248.0140478999997,,,,,248.01424999999972,248.02955209999982,248.22938900000008,248.21344649999992,246.9342127,,,,,,,,0,1,1.07788440000013,None,,,,,,,,885,23,M,R,2026-02-25_11h28.05.512,VisualSearch_2526_3,,2025.2.4,2026-02-25 11h28.05.709199 +0100,
vertical.xlsx,The target is tilted.,135,89,1,11,1,1,1,1,1,1,1,1,1,1,1,1,0,11,12,135,space,6.412052799999856,None,1,1,2.4158536999998432,None,space,2.366977399999996,None,0,0,0,1,,,,,11,1,89,0,248.22938900000008,,,,,,,,,,,,,,,,,,,,,248.21421060000011,248.22938900000008,248.71275119999973,248.71732269999984,248.73108779999984,251.16263919999983,,,,,251.16283590000012,251.17813720000004,251.37811639999973,251.36160849999987,248.73108779999984,,,,,,,,1,1,2.4158536999998432,None,,,,,,,,885,23,M,R,2026-02-25_11h28.05.512,VisualSearch_2526_3,,2025.2.4,2026-02-25 11h28.05.709199 +0100,
vertical.xlsx,The target is tilted.,135,90,2,11,0,0,0,0,0,0,0,0,0,0,0,0,1,1,1,135,space,6.412052799999856,None,0,1,0.7129101000000446,None,space,2.366977399999996,None,0,0,0,1,,,,,11,2,90,7,251.37811639999973,,,,,,,,,,,,,,,,,,,,,251.36236550000012,251.37811639999973,251.86177670000006,251.8664104999998,251.88032609999982,252.59518309999976,,,,,252.59535589999996,252.61083250000001,252.81073969999989,252.79467859999977,251.88032609999982,,,,,,,,0,1,0.7129101000000446,None,,,,,,,,885,23,M,R,2026-02-25_11h28.05.512,VisualSearch_2526_3,,2025.2.4,2026-02-25 11h28.05.709199 +0100,
vertical.xlsx,The target is tilted.,135,91,3,11,1,1,1,1,0,0,0,0,0,0,0,0,0,3,4,135,space,6.412052799999856,None,1,1,1.0195740999997724,None,space,2.366977399999996,None,0,0,0,1,,,,,11,3,91,2,252.81073969999989,,,,,,,,,,,,,,,,,,,,,252.79546119999986,252.81073969999989,253.2943353999999,253.29906359999995,253.3137898,254.34416969999984,,,,,254.34430169999996,254.35995779999985,254.55994259999989,254.54384029999983,253.3137898,,,,,,,,1,1,1.0195740999997724,None,,,,,,,,885,23,M,R,2026-02-25_11h28.05.512,VisualSearch_2526_3,,2025.2.4,2026-02-25 11h28.05.709199 +0100,
vertical.xlsx,The target is tilted.,135,92,4,11,0,1,1,1,1,1,1,1,0,0,0,0,1,7,8,135,space,6.412052799999856,None,0,1,1.9037090000001626,None,space,2.366977399999996,None,0,0,0,1,,,,,11,4,92,5,254.55994259999989,,,,,,,,,,,,,,,,,,,,,254.544629,254.55994259999989,255.04372039999998,255.04832289999968,255.06329909999977,256.97676599999977,,,,,256.9769957999997,256.9922511999998,257.19216860000006,257.1760626,255.06329909999977,,,,,,,,0,1,1.9037090000001626,None,,,,,,,,885,23,M,R,2026-02-25_11h28.05.512,VisualSearch_2526_3,,2025.2.4,2026-02-25 11h28.05.709199 +0100,
vertical.xlsx,The target is tilted.,135,93,5,11,1,1,1,1,1,1,1,1,0,0,0,0,0,7,8,135,space,6.412052799999856,None,0,0,1.5480477999999493,None,space,2.366977399999996,None,0,0,0,1,,,,,11,5,93,1,257.19216860000006,,,,,,,,,,,,,,,,,,,,,257.17679999999973,257.19216860000006,257.6757394000001,257.6802646000001,257.6978140000001,259.2588665999997,,,,,259.25903930000004,259.2743717999997,259.47423879999997,259.4585452000001,257.6978140000001,,,,,,,,0,0,1.5480477999999493,None,,,,,,,,885,23,M,R,2026-02-25_11h28.05.512,VisualSearch_2526_3,,2025.2.4,2026-02-25 11h28.05.709199 +0100,
vertical.xlsx,The target is tilted.,135,94,6,11,0,1,1,1,1,1,1,1,1,1,1,1,1,11,12,135,space,6.412052799999856,None,0,1,2.486942100000306,None,space,2.366977399999996,None,0,0,0,1,,,,,11,6,94,4,259.47423879999997,,,,,,,,,,,,,,,,,,,,,259.4592711,259.47423879999997,259.9576582999998,259.9622122999999,259.9773925999998,262.4737731,,,,,262.47391930000003,262.4896171999999,262.6893732999997,262.6732463999997,259.9773925999998,,,,,,,,0,1,2.486942100000306,None,,,,,,,,885,23,M,R,2026-02-25_11h28.05.512,VisualSearch_2526_3,,2025.2.4,2026-02-25 11h28.05.709199 +0100,
vertical.xlsx,The target is tilted.,135,95,7,11,1,0,0,0,0,0,0,0,0,0,0,0,0,0,1,135,space,6.412052799999856,None,1,1,0.5870642999998381,None,space,2.366977399999996,None,0,0,0,1,,,,,11,7,95,3,262.6893732999997,,,,,,,,,,,,,,,,,,,,,262.6740698999997,262.6893732999997,263.1728463999998,263.1774209,263.19198419999975,263.7898562999999,,,,,263.79002809999974,263.80569130000003,264.0054243999998,263.98913059999995,263.19198419999975,,,,,,,,1,1,0.5870642999998381,None,,,,,,,,885,23,M,R,2026-02-25_11h28.05.512,VisualSearch_2526_3,,2025.2.4,2026-02-25 11h28.05.709199 +0100,
vertical.xlsx,The target is tilted.,135,96,0,12,0,1,1,1,0,0,0,0,0,0,0,0,1,3,4,135,space,6.412052799999856,None,0,1,1.750680900000134,None,space,2.366977399999996,None,0,0,0,1,,,,,12,0,96,6,264.0054243999998,,,,,,,,,,,,,,,,,,,,,263.9899786000001,264.0054243999998,264.4890814999999,264.4935752000001,264.5053601999998,266.2722579000001,,,,,266.2725320999998,266.28794389999985,266.4880046999997,266.47175419999985,264.5053601999998,,,,,,,,0,1,1.750680900000134,None,,,,,,,,885,23,M,R,2026-02-25_11h28.05.512,VisualSearch_2526_3,,2025.2.4,2026-02-25 11h28.05.709199 +0100,
vertical.xlsx,The target is tilted.,135,97,1,12,0,1,1,1,1,1,1,1,0,0,0,0,1,7,8,135,space,6.412052799999856,None,0,1,1.9786784000002626,None,space,2.366977399999996,None,0,0,0,1,,,,,12,1,97,5,266.4880046999997,,,,,,,,,,,,,,,,,,,,,266.47249599999986,266.4880046999997,266.9715655,266.9761322999998,266.9895673000001,268.9713299,,,,,268.97154139999975,268.98666109999976,269.1866706999999,269.1702338,266.9895673000001,,,,,,,,0,1,1.9786784000002626,None,,,,,,,,885,23,M,R,2026-02-25_11h28.05.512,VisualSearch_2526_3,,2025.2.4,2026-02-25 11h28.05.709199 +0100,
vertical.xlsx,The target is tilted.,135,98,2,12,1,1,1,1,0,0,0,0,0,0,0,0,0,3,4,135,space,6.412052799999856,None,1,1,1.0235161000000517,None,space,2.366977399999996,None,0,0,0,1,,,,,12,2,98,2,269.1866706999999,,,,,,,,,,,,,,,,,,,,,269.17095979999976,269.1866706999999,269.6703296999999,269.67473599999994,269.6931433999998,270.7197527999997,,,,,270.71994099999984,270.73597010000003,270.93558699999994,270.9193928999998,269.6931433999998,,,,,,,,1,1,1.0235161000000517,None,,,,,,,,885,23,M,R,2026-02-25_11h28.05.512,VisualSearch_2526_3,,2025.2.4,2026-02-25 11h28.05.709199 +0100,
vertical.xlsx,The target is tilted.,135,99,3,12,1,1,1,1,1,1,1,1,1,1,1,1,0,11,12,135,space,6.412052799999856,None,1,1,2.316842500000348,None,space,2.366977399999996,None,0,0,0,1,,,,,12,3,99,0,270.93558699999994,,,,,,,,,,,,,,,,,,,,,270.9201602999997,270.93558699999994,271.41949609999983,271.42430699999977,271.43893819999994,273.7686266999999,,,,,273.76877220000006,273.7845804999997,273.98450460000004,273.96832059999997,271.43893819999994,,,,,,,,1,1,2.316842500000348,None,,,,,,,,885,23,M,R,2026-02-25_11h28.05.512,VisualSearch_2526_3,,2025.2.4,2026-02-25 11h28.05.709199 +0100,
vertical.xlsx,The target is tilted.,135,100,4,12,1,1,1,1,1,1,1,1,0,0,0,0,0,7,8,135,space,6.412052799999856,None,1,1,1.2019930000001295,None,space,2.366977399999996,None,0,0,0,1,,,,,12,4,100,1,273.98450460000004,,,,,,,,,,,,,,,,,,,,,273.9691155999999,273.98450460000004,274.4682127000001,274.4728815999997,274.4853125999998,275.7010105999998,,,,,275.7011497999997,275.7168988999997,275.9168552000001,275.9007567999997,274.4853125999998,,,,,,,,1,1,1.2019930000001295,None,,,,,,,,885,23,M,R,2026-02-25_11h28.05.512,VisualSearch_2526_3,,2025.2.4,2026-02-25 11h28.05.709199 +0100,
vertical.xlsx,The target is tilted.,135,101,5,12,0,1,1,1,1,1,1,1,1,1,1,1,1,11,12,135,space,6.412052799999856,None,0,1,2.9058838000000833,None,space,2.366977399999996,None,0,0,0,1,,,,,12,5,101,4,275.9168552000001,,,,,,,,,,,,,,,,,,,,,275.90158139999994,275.9168552000001,276.40036999999984,276.4053894999997,276.4195243999998,279.33296659999996,,,,,279.3331567,279.3488152,279.5486321999997,279.53254590000006,276.4195243999998,,,,,,,,0,1,2.9058838000000833,None,,,,,,,,885,23,M,R,2026-02-25_11h28.05.512,VisualSearch_2526_3,,2025.2.4,2026-02-25 11h28.05.709199 +0100,
vertical.xlsx,The target is tilted.,135,102,6,12,0,0,0,0,0,0,0,0,0,0,0,0,1,1,1,135,space,6.412052799999856,None,0,1,0.5811098999997739,None,space,2.366977399999996,None,0,0,0,1,,,,,12,6,102,7,279.5486321999997,,,,,,,,,,,,,,,,,,,,,279.5333194,279.5486321999997,280.03191190000007,280.03648810000004,280.0480395999998,280.6324623999999,,,,,280.6325979999997,280.6478883,280.8479631,280.8317084999999,280.0480395999998,,,,,,,,0,1,0.5811098999997739,None,,,,,,,,885,23,M,R,2026-02-25_11h28.05.512,VisualSearch_2526_3,,2025.2.4,2026-02-25 11h28.05.709199 +0100,
vertical.xlsx,The target is tilted.,135,103,7,12,1,0,0,0,0,0,0,0,0,0,0,0,0,0,1,135,space,6.412052799999856,None,1,1,0.6724236999998539,None,space,2.366977399999996,None,0,0,0,1,,,,,12,7,103,3,280.8479631,,,,,,,,,,,,,,,,,,,,,280.8324537999997,280.8479631,281.33173579999993,281.3363927999999,281.3497170999999,282.03128590000006,,,,,282.0314510999997,282.04744789999995,282.2474769999999,282.23133259999986,281.3497170999999,,,,,,,,1,1,0.6724236999998539,None,,,,,,,,885,23,M,R,2026-02-25_11h28.05.512,VisualSearch_2526_3,,2025.2.4,2026-02-25 11h28.05.709199 +0100,
vertical.xlsx,The target is tilted.,135,104,0,13,0,1,1,1,1,1,1,1,1,1,1,1,1,11,12,135,space,6.412052799999856,None,0,1,2.220753000000059,None,space,2.366977399999996,None,0,0,0,1,,,,,13,0,104,4,282.2474769999999,,,,,,,,,,,,,,,,,,,,,282.2320388999997,282.2474769999999,282.73099969999976,282.73570440000003,282.74971289999985,284.98059049999983,,,,,284.9807845,284.9961859,285.19596980000006,285.17978300000004,282.74971289999985,,,,,,,,0,1,2.220753000000059,None,,,,,,,,885,23,M,R,2026-02-25_11h28.05.512,VisualSearch_2526_3,,2025.2.4,2026-02-25 11h28.05.709199 +0100,
vertical.xlsx,The target is tilted.,135,105,1,13,1,1,1,1,1,1,1,1,1,1,1,1,0,11,12,135,space,6.412052799999856,None,1,1,0.8883922999998504,None,space,2.366977399999996,None,0,0,0,1,,,,,13,1,105,0,285.19596980000006,,,,,,,,,,,,,,,,,,,,,285.1805393999998,285.19596980000006,285.6795148000001,285.68430149999995,285.698883,286.5965175000001,,,,,286.59672009999986,286.61205329999984,286.8116107999999,286.7958494999998,285.698883,,,,,,,,1,1,0.8883922999998504,None,,,,,,,,885,23,M,R,2026-02-25_11h28.05.512,VisualSearch_2526_3,,2025.2.4,2026-02-25 11h28.05.709199 +0100,
vertical.xlsx,The target is tilted.,135,106,2,13,1,1,1,1,1,1,1,1,0,0,0,0,0,7,8,135,space,6.412052799999856,None,1,1,1.7239521000001332,None,space,2.366977399999996,None,0,0,0,1,,,,,13,2,106,1,286.8116107999999,,,,,,,,,,,,,,,,,,,,,286.7965833999997,286.8116107999999,287.29562510000005,287.2983021,287.31128880000006,289.04504289999977,,,,,289.0451889000001,289.0608526000001,289.2608041999997,289.24446899999975,287.31128880000006,,,,,,,,1,1,1.7239521000001332,None,,,,,,,,885,23,M,R,2026-02-25_11h28.05.512,VisualSearch_2526_3,,2025.2.4,2026-02-25 11h28.05.709199 +0100,
vertical.xlsx,The target is tilted.,135,107,3,13,0,0,0,0,0,0,0,0,0,0,0,0,1,1,1,135,space,6.412052799999856,None,0,1,0.6213422999999239,None,space,2.366977399999996,None,0,0,0,1,,,,,13,3,107,7,289.2608041999997,,,,,,,,,,,,,,,,,,,,,289.24521319999985,289.2608041999997,289.7445318,289.74911329999986,289.76391680000006,290.3938312999999,,,,,290.3939614000001,290.4102135999997,290.6102059,290.5941294999998,289.76391680000006,,,,,,,,0,1,0.6213422999999239,None,,,,,,,,885,23,M,R,2026-02-25_11h28.05.512,VisualSearch_2526_3,,2025.2.4,2026-02-25 11h28.05.709199 +0100,
vertical.xlsx,The target is tilted.,135,108,4,13,0,1,1,1,1,1,1,1,0,0,0,0,1,7,8,135,space,6.412052799999856,None,0,1,2.40737050000007,None,space,2.366977399999996,None,0,0,0,1,,,,,13,4,108,5,290.6102059,,,,,,,,,,,,,,,,,,,,,290.5948559999997,290.6102059,291.0938495999999,291.0984552,291.11334239999996,293.5266676000001,,,,,293.52685969999993,293.54184929999974,293.74219730000004,293.7260849999998,291.11334239999996,,,,,,,,0,1,2.40737050000007,None,,,,,,,,885,23,M,R,2026-02-25_11h28.05.512,VisualSearch_2526_3,,2025.2.4,2026-02-25 11h28.05.709199 +0100,
vertical.xlsx,The target is tilted.,135,109,5,13,1,0,0,0,0,0,0,0,0,0,0,0,0,0,1,135,space,6.412052799999856,None,1,1,0.6072970999998688,None,space,2.366977399999996,None,0,0,0,1,,,,,13,5,109,3,293.74219730000004,,,,,,,,,,,,,,,,,,,,,293.7268446999997,293.74219730000004,294.22550939999974,294.2300657999999,294.2461298999997,294.8593396000001,,,,,294.85953089999975,294.87499499999967,295.07489799999985,295.05872169999975,294.2461298999997,,,,,,,,1,1,0.6072970999998688,None,,,,,,,,885,23,M,R,2026-02-25_11h28.05.512,VisualSearch_2526_3,,2025.2.4,2026-02-25 11h28.05.709199 +0100,
vertical.xlsx,The target is tilted.,135,110,6,13,0,1,1,1,0,0,0,0,0,0,0,0,1,3,4,135,space,6.412052799999856,None,0,1,0.7288373000001229,None,space,2.366977399999996,None,0,0,0,1,,,,,13,6,110,6,295.07489799999985,,,,,,,,,,,,,,,,,,,,,295.0594879,295.07489799999985,295.5586638,295.5631674000001,295.5792213,296.32469029999993,,,,,296.3248381999997,296.3408022999997,296.5408996000001,296.5244259000001,295.5792213,,,,,,,,0,1,0.7288373000001229,None,,,,,,,,885,23,M,R,2026-02-25_11h28.05.512,VisualSearch_2526_3,,2025.2.4,2026-02-25 11h28.05.709199 +0100,
vertical.xlsx,The target is tilted.,135,111,7,13,1,1,1,1,0,0,0,0,0,0,0,0,0,3,4,135,space,6.412052799999856,None,1,1,0.9500322999997479,None,space,2.366977399999996,None,0,0,0,1,,,,,13,7,111,2,296.5408996000001,,,,,,,,,,,,,,,,,,,,,296.5251819,296.5408996000001,297.0245388999997,297.02927580000005,297.0438716999997,298.0077059,,,,,298.0079012000001,298.0233840000001,298.2234685999997,298.2073370999997,297.0438716999997,,,,,,,,1,1,0.9500322999997479,None,,,,,,,,885,23,M,R,2026-02-25_11h28.05.512,VisualSearch_2526_3,,2025.2.4,2026-02-25 11h28.05.709199 +0100,
vertical.xlsx,The target is tilted.,135,112,0,14,1,0,0,0,0,0,0,0,0,0,0,0,0,0,1,135,space,6.412052799999856,None,1,1,0.5359751999999389,None,space,2.366977399999996,None,0,0,0,1,,,,,14,0,112,3,298.2234685999997,,,,,,,,,,,,,,,,,,,,,298.20806219999986,298.2234685999997,298.70708319999994,298.7116514999998,298.72718110000005,299.2735914,,,,,299.2737437999999,299.28953490000004,299.48916869999994,299.47356609999997,298.72718110000005,,,,,,,,1,1,0.5359751999999389,None,,,,,,,,885,23,M,R,2026-02-25_11h28.05.512,VisualSearch_2526_3,,2025.2.4,2026-02-25 11h28.05.709199 +0100,
vertical.xlsx,The target is tilted.,135,113,1,14,0,1,1,1,0,0,0,0,0,0,0,0,1,3,4,135,space,6.412052799999856,None,0,1,0.7781687000001511,None,space,2.366977399999996,None,0,0,0,1,,,,,14,1,113,6,299.48916869999994,,,,,,,,,,,,,,,,,,,,,299.47430510000004,299.48916869999994,299.9731601999997,299.9778054999997,299.9922772,300.7735214999998,,,,,300.7737314000001,300.78864239999984,300.9885082999999,300.97275820000004,299.9922772,,,,,,,,0,1,0.7781687000001511,None,,,,,,,,885,23,M,R,2026-02-25_11h28.05.512,VisualSearch_2526_3,,2025.2.4,2026-02-25 11h28.05.709199 +0100,
vertical.xlsx,The target is tilted.,135,114,2,14,0,1,1,1,1,1,1,1,1,1,1,1,1,11,12,135,space,6.412052799999856,None,1,0,2.275435500000185,None,space,2.366977399999996,None,0,0,0,1,,,,,14,2,114,4,300.9885082999999,,,,,,,,,,,,,,,,,,,,,300.97348039999997,300.9885082999999,301.4725733,301.4772134,301.4927568999997,303.7716000999999,,,,,303.7717874,303.78748559999985,303.98760379999976,303.97133029999986,301.4927568999997,,,,,,,,1,0,2.275435500000185,None,,,,,,,,885,23,M,R,2026-02-25_11h28.05.512,VisualSearch_2526_3,,2025.2.4,2026-02-25 11h28.05.709199 +0100,
vertical.xlsx,The target is tilted.,135,115,3,14,1,1,1,1,0,0,0,0,0,0,0,0,0,3,4,135,space,6.412052799999856,None,1,1,0.6772699000002831,None,space,2.366977399999996,None,0,0,0,1,,,,,14,3,115,2,303.98760379999976,,,,,,,,,,,,,,,,,,,,,303.9721056999997,303.98760379999976,304.4711620999997,304.4757525,304.4904910999999,305.1710158000001,,,,,305.17122500000005,305.18679040000006,305.3869457999999,305.37027209999997,304.4904910999999,,,,,,,,1,1,0.6772699000002831,None,,,,,,,,885,23,M,R,2026-02-25_11h28.05.512,VisualSearch_2526_3,,2025.2.4,2026-02-25 11h28.05.709199 +0100,
vertical.xlsx,The target is tilted.,135,116,4,14,1,1,1,1,1,1,1,1,0,0,0,0,0,7,8,135,space,6.412052799999856,None,1,1,1.8595775999997386,None,space,2.366977399999996,None,0,0,0,1,,,,,14,4,116,1,305.3869457999999,,,,,,,,,,,,,,,,,,,,,305.37100139999984,305.3869457999999,305.8704383999998,305.8751038999999,305.8906925000001,307.75315379999984,,,,,307.7532873,307.76894649999986,307.9688037000001,307.9526252999999,305.8906925000001,,,,,,,,1,1,1.8595775999997386,None,,,,,,,,885,23,M,R,2026-02-25_11h28.05.512,VisualSearch_2526_3,,2025.2.4,2026-02-25 11h28.05.709199 +0100,
vertical.xlsx,The target is tilted.,135,117,5,14,0,1,1,1,1,1,1,1,0,0,0,0,1,7,8,135,space,6.412052799999856,None,0,1,3.079021399999874,None,space,2.366977399999996,None,0,0,0,1,,,,,14,5,117,5,307.9688037000001,,,,,,,,,,,,,,,,,,,,,307.9534447000001,307.9688037000001,308.45267269999977,308.45732150000003,308.47273700000005,311.5677403999998,,,,,311.56784149999976,311.5838451999998,311.7834508000001,311.76787019999983,308.47273700000005,,,,,,,,0,1,3.079021399999874,None,,,,,,,,885,23,M,R,2026-02-25_11h28.05.512,VisualSearch_2526_3,,2025.2.4,2026-02-25 11h28.05.709199 +0100,
vertical.xlsx,The target is tilted.,135,118,6,14,0,0,0,0,0,0,0,0,0,0,0,0,1,1,1,135,space,6.412052799999856,None,0,1,0.7628030999999282,None,space,2.366977399999996,None,0,0,0,1,,,,,14,6,118,7,311.7834508000001,,,,,,,,,,,,,,,,,,,,,311.7685550000001,311.7834508000001,312.2678412,312.2723928999999,312.2830616000001,313.0509539999998,,,,,313.0511249000001,313.0665595999999,313.26651119999997,313.2503849999998,312.2830616000001,,,,,,,,0,1,0.7628030999999282,None,,,,,,,,885,23,M,R,2026-02-25_11h28.05.512,VisualSearch_2526_3,,2025.2.4,2026-02-25 11h28.05.709199 +0100,
vertical.xlsx,The target is tilted.,135,119,7,14,1,1,1,1,1,1,1,1,1,1,1,1,0,11,12,135,space,6.412052799999856,None,1,1,1.4022319000000607,None,space,2.366977399999996,None,0,0,0,1,,,,,14,7,119,0,313.26651119999997,,,,,,,,,,,,,,,,,,,,,313.25119240000004,313.26651119999997,313.7502488,313.7550468999998,313.7693423999999,315.18346969999993,,,,,315.1836635999998,315.1988812999998,315.4115345,315.3829031999999,313.7693423999999,,,,,,,,1,1,1.4022319000000607,None,,,,,,,,885,23,M,R,2026-02-25_11h28.05.512,VisualSearch_2526_3,,2025.2.4,2026-02-25 11h28.05.709199 +0100,
vertical.xlsx,The target is tilted.,135,0,0,0,,,,,,,,,,,,,,,,,space,6.412052799999856,None,,,,,space,2.366977399999996,None,0,0,0,1,,,,,,,,,,,,,,,,,,,,,,,,,,,,,,,,,,,,,,,,,,,,,,,,,,,,,,,,,,,,,,,885,23,M,R,2026-02-25_11h28.05.512,VisualSearch_2526_3,,2025.2.4,2026-02-25 11h28.05.709199 +0100,
tilted.xlsx,The target is tilted.,117,0,0,0,1,1,1,1,1,1,1,1,1,1,1,1,0,11,12,117,space,6.184211100000084,None,1,1,1.5339475000000675,None,,,,0,1,1,0,0,0,0,0,,,,,321.6160415999998,,,,,,,,,,,,,,,315.4115345,315.4115345,315.4115345,space,6.184211100000084,None,321.6121198000001,321.6160415999998,322.1127465999998,322.1174215000001,322.1320333999997,323.6788806999998,1,1,1.5339475000000675,None,323.6790235999997,323.69506649999994,323.89516909999975,323.87874280000005,,,,,,,,,,,,,,,,,,,,885,23,M,R,2026-02-25_11h28.05.512,VisualSearch_2526_3,,2025.2.4,2026-02-25 11h28.05.709199 +0100,
tilted.xlsx,The target is tilted.,117,1,1,0,0,1,1,1,0,0,0,0,0,0,0,0,1,3,4,117,space,6.184211100000084,None,0,1,1.0755718000000343,None,,,,0,1,1,0,0,1,1,6,,,,,323.89516909999975,,,,,,,,,,,,,,,,,,,,,323.8794133000001,323.89516909999975,324.3786462999997,324.383335,324.3964612,325.4779346,0,1,1.0755718000000343,None,325.47805489999973,325.493923,325.6942899999999,325.6782853999998,324.3964612,,,,,,,,,,,,,,,,,,,885,23,M,R,2026-02-25_11h28.05.512,VisualSearch_2526_3,,2025.2.4,2026-02-25 11h28.05.709199 +0100,
tilted.xlsx,The target is tilted.,117,2,2,0,1,1,1,1,1,1,1,1,0,0,0,0,0,7,8,117,space,6.184211100000084,None,1,1,2.1552657000002,None,,,,0,1,1,0,0,2,2,1,,,,,325.6942899999999,,,,,,,,,,,,,,,,,,,,,325.67896199999996,325.6942899999999,326.17763560000003,326.1820531999997,326.1939918999997,328.3604070000001,1,1,2.1552657000002,None,328.36054479999984,328.3763064,328.5763026999998,328.5601222999999,326.1939918999997,,,,,,,,,,,,,,,,,,,885,23,M,R,2026-02-25_11h28.05.512,VisualSearch_2526_3,,2025.2.4,2026-02-25 11h28.05.709199 +0100,
tilted.xlsx,The target is tilted.,117,3,3,0,0,1,1,1,1,1,1,1,1,1,1,1,1,11,12,117,space,6.184211100000084,None,0,1,3.3360076999997545,None,,,,0,1,1,0,0,3,3,4,,,,,328.5763026999998,,,,,,,,,,,,,,,,,,,,,328.56083480000007,328.5763026999998,329.05990569999994,329.0645248999999,329.0775682999997,332.4252975999998,0,1,3.3360076999997545,None,332.4254854999999,332.44112959999984,332.6411267999997,332.62498879999976,329.0775682999997,,,,,,,,,,,,,,,,,,,885,23,M,R,2026-02-25_11h28.05.512,VisualSearch_2526_3,,2025.2.4,2026-02-25 11h28.05.709199 +0100,
tilted.xlsx,The target is tilted.,117,4,4,0,1,0,0,0,0,0,0,0,0,0,0,0,0,0,1,117,space,6.184211100000084,None,1,1,0.8279020000004493,None,,,,0,1,1,0,0,4,4,3,,,,,332.6411267999997,,,,,,,,,,,,,,,,,,,,,332.62564859999975,332.6411267999997,333.12472690000004,333.12931720000006,333.14381049999974,333.97498319999977,1,1,0.8279020000004493,None,333.97516929999983,333.9903313,334.19045959999994,334.17388519999986,333.14381049999974,,,,,,,,,,,,,,,,,,,885,23,M,R,2026-02-25_11h28.05.512,VisualSearch_2526_3,,2025.2.4,2026-02-25 11h28.05.709199 +0100,
tilted.xlsx,The target is tilted.,117,5,5,0,1,1,1,1,0,0,0,0,0,0,0,0,0,3,4,117,space,6.184211100000084,None,1,1,1.03452789999983,None,,,,0,1,1,0,0,5,5,2,,,,,334.19045959999994,,,,,,,,,,,,,,,,,,,,,334.1745987999998,334.19045959999994,334.67413110000007,334.67880909999985,334.6934008999997,335.74078099999997,1,1,1.03452789999983,None,335.74096740000005,335.75602389999995,335.95623769999975,335.9400026999997,334.6934008999997,,,,,,,,,,,,,,,,,,,885,23,M,R,2026-02-25_11h28.05.512,VisualSearch_2526_3,,2025.2.4,2026-02-25 11h28.05.709199 +0100,
tilted.xlsx,The target is tilted.,117,6,6,0,0,0,0,0,0,0,0,0,0,0,0,0,1,1,1,117,space,6.184211100000084,None,0,1,0.7470112000000881,None,,,,0,1,1,0,0,6,6,7,,,,,335.95623769999975,,,,,,,,,,,,,,,,,,,,,335.9407299999998,335.95623769999975,336.4399288999998,336.4446757999999,336.4595125999999,337.2234561,0,1,0.7470112000000881,None,337.2236435,337.23880789999976,337.4388138999998,337.4227381999999,336.4595125999999,,,,,,,,,,,,,,,,,,,885,23,M,R,2026-02-25_11h28.05.512,VisualSearch_2526_3,,2025.2.4,2026-02-25 11h28.05.709199 +0100,
tilted.xlsx,The target is tilted.,117,7,7,0,0,1,1,1,1,1,1,1,0,0,0,0,1,7,8,117,space,6.184211100000084,None,0,1,2.9211230000000796,None,,,,0,1,1,0,0,7,7,5,,,,,337.4388138999998,,,,,,,,,,,,,,,,,,,,,337.4234510000001,337.4388138999998,337.9222147999999,337.9266038999999,337.9410737999997,340.8712851999999,0,1,2.9211230000000796,None,340.8714255,340.8874016,341.0869084000001,341.07115569999996,337.9410737999997,,,,,,,,,,,,,,,,,,,885,23,M,R,2026-02-25_11h28.05.512,VisualSearch_2526_3,,2025.2.4,2026-02-25 11h28.05.709199 +0100,
tilted.xlsx,The target is tilted.,117,0,0,0,0,1,1,1,1,1,1,1,1,1,1,1,1,11,12,117,space,6.184211100000084,None,0,1,4.294463000000178,None,space,2.409396100000322,None,0,1,1,0,,,,,0,0,0,4,343.5320622999998,,,,,,,,,,,,,,,,,,,,,343.5281310999999,343.5320622999998,344.01955259999977,344.0241959,344.0389084999997,348.33490140000004,,,,,348.3350792000001,348.3504717999999,348.5501687000001,348.5340385999998,,341.07799909999994,341.0869084000001,341.0869084000001,343.5031988999999,space,2.409396100000322,None,0,1,4.294463000000178,None,,,,,,,,885,23,M,R,2026-02-25_11h28.05.512,VisualSearch_2526_3,,2025.2.4,2026-02-25 11h28.05.709199 +0100,
tilted.xlsx,The target is tilted.,117,1,1,0,0,1,1,1,0,0,0,0,0,0,0,0,1,3,4,117,space,6.184211100000084,None,0,1,1.1399114999999256,None,space,2.409396100000322,None,0,1,1,0,,,,,0,1,1,6,348.5501687000001,,,,,,,,,,,,,,,,,,,,,348.53477859999975,348.5501687000001,349.03432299999986,349.03894279999986,349.0538770999997,350.20021099999985,,,,,350.2003716999998,350.21626849999984,350.4164184000001,350.40016419999984,349.0538770999997,,,,,,,,0,1,1.1399114999999256,None,,,,,,,,885,23,M,R,2026-02-25_11h28.05.512,VisualSearch_2526_3,,2025.2.4,2026-02-25 11h28.05.709199 +0100,
tilted.xlsx,The target is tilted.,117,2,2,0,1,0,0,0,0,0,0,0,0,0,0,0,0,0,1,117,space,6.184211100000084,None,1,1,0.6699964999997974,None,space,2.409396100000322,None,0,1,1,0,,,,,0,2,2,3,350.4164184000001,,,,,,,,,,,,,,,,,,,,,350.40093209999986,350.4164184000001,350.9000444999997,350.9045602000001,350.9159735999997,351.5996196000001,,,,,351.5998046999998,351.6156455999999,351.8157283999999,351.7993727999997,350.9159735999997,,,,,,,,1,1,0.6699964999997974,None,,,,,,,,885,23,M,R,2026-02-25_11h28.05.512,VisualSearch_2526_3,,2025.2.4,2026-02-25 11h28.05.709199 +0100,
tilted.xlsx,The target is tilted.,117,3,3,0,0,1,1,1,1,1,1,1,0,0,0,0,1,7,8,117,space,6.184211100000084,None,0,1,4.323428499999864,None,space,2.409396100000322,None,0,1,1,0,,,,,0,3,3,5,351.8157283999999,,,,,,,,,,,,,,,,,,,,,351.8001486999997,351.8157283999999,352.29891610000004,352.3034785,352.3174850999999,356.6477694,,,,,356.6479436999998,356.66354079999974,356.86345919999985,356.8473203999997,352.3174850999999,,,,,,,,0,1,4.323428499999864,None,,,,,,,,885,23,M,R,2026-02-25_11h28.05.512,VisualSearch_2526_3,,2025.2.4,2026-02-25 11h28.05.709199 +0100,
tilted.xlsx,The target is tilted.,117,4,4,0,1,1,1,1,0,0,0,0,0,0,0,0,0,3,4,117,space,6.184211100000084,None,1,1,1.194704499999716,None,space,2.409396100000322,None,0,1,1,0,,,,,0,4,4,2,356.86345919999985,,,,,,,,,,,,,,,,,,,,,356.8480460999999,356.86345919999985,357.3468608999997,357.3515140999998,357.36646729999984,358.5636856000001,,,,,358.5638753999997,358.5792277999999,358.7789692000001,358.76295679999976,357.36646729999984,,,,,,,,1,1,1.194704499999716,None,,,,,,,,885,23,M,R,2026-02-25_11h28.05.512,VisualSearch_2526_3,,2025.2.4,2026-02-25 11h28.05.709199 +0100,
tilted.xlsx,The target is tilted.,117,5,5,0,1,1,1,1,1,1,1,1,1,1,1,1,0,11,12,117,space,6.184211100000084,None,1,1,1.1229518999998618,None,space,2.409396100000322,None,0,1,1,0,,,,,0,5,5,0,358.7789692000001,,,,,,,,,,,,,,,,,,,,,358.7637602,358.7789692000001,359.2628801000001,359.2675635999999,359.28321099999994,360.41290709999976,,,,,360.4130981999997,360.4280786999998,360.62812269999995,360.6123253999999,359.28321099999994,,,,,,,,1,1,1.1229518999998618,None,,,,,,,,885,23,M,R,2026-02-25_11h28.05.512,VisualSearch_2526_3,,2025.2.4,2026-02-25 11h28.05.709199 +0100,
tilted.xlsx,The target is tilted.,117,6,6,0,1,1,1,1,1,1,1,1,0,0,0,0,0,7,8,117,space,6.184211100000084,None,1,1,1.9923869999997805,None,space,2.409396100000322,None,0,1,1,0,,,,,0,6,6,1,360.62812269999995,,,,,,,,,,,,,,,,,,,,,360.61305649999986,360.62812269999995,361.1119635,361.1166954999999,361.13121939999974,363.12793650000003,,,,,363.1281291999999,363.1438038000001,363.34385999999995,363.3276937999999,361.13121939999974,,,,,,,,1,1,1.9923869999997805,None,,,,,,,,885,23,M,R,2026-02-25_11h28.05.512,VisualSearch_2526_3,,2025.2.4,2026-02-25 11h28.05.709199 +0100,
tilted.xlsx,The target is tilted.,117,7,7,0,0,0,0,0,0,0,0,0,0,0,0,0,1,1,1,117,space,6.184211100000084,None,0,1,0.7910047000000304,None,space,2.409396100000322,None,0,1,1,0,,,,,0,7,7,7,363.34385999999995,,,,,,,,,,,,,,,,,,,,,363.3284249999997,363.34385999999995,363.8270815000001,363.83171779999975,363.8471010999997,364.6439188999998,,,,,364.6441015999999,364.65970879999986,364.85977379999986,364.84375120000004,363.8471010999997,,,,,,,,0,1,0.7910047000000304,None,,,,,,,,885,23,M,R,2026-02-25_11h28.05.512,VisualSearch_2526_3,,2025.2.4,2026-02-25 11h28.05.709199 +0100,
tilted.xlsx,The target is tilted.,117,8,0,1,1,1,1,1,1,1,1,1,1,1,1,1,0,11,12,117,space,6.184211100000084,None,1,1,3.763184999999794,None,space,2.409396100000322,None,0,1,1,0,,,,,1,0,8,0,364.85977379999986,,,,,,,,,,,,,,,,,,,,,364.8445016999999,364.85977379999986,365.3430008,365.3454019999999,365.3593221000001,369.1257406999998,,,,,369.1259488999999,369.1410542999997,369.3410316999998,369.3248945999999,365.3593221000001,,,,,,,,1,1,3.763184999999794,None,,,,,,,,885,23,M,R,2026-02-25_11h28.05.512,VisualSearch_2526_3,,2025.2.4,2026-02-25 11h28.05.709199 +0100,
tilted.xlsx,The target is tilted.,117,9,1,1,1,1,1,1,1,1,1,1,0,0,0,0,0,7,8,117,space,6.184211100000084,None,1,1,1.5507610999998178,None,space,2.409396100000322,None,0,1,1,0,,,,,1,1,9,1,369.3410316999998,,,,,,,,,,,,,,,,,,,,,369.32571929999995,369.3410316999998,369.82465569999977,369.82949400000007,369.8444735999997,371.4079678999997,,,,,371.4081607999997,371.4235120999997,371.62297450000005,371.60731699999997,369.8444735999997,,,,,,,,1,1,1.5507610999998178,None,,,,,,,,885,23,M,R,2026-02-25_11h28.05.512,VisualSearch_2526_3,,2025.2.4,2026-02-25 11h28.05.709199 +0100,
tilted.xlsx,The target is tilted.,117,10,2,1,0,1,1,1,0,0,0,0,0,0,0,0,1,3,4,117,space,6.184211100000084,None,0,1,1.4712832999998682,None,space,2.409396100000322,None,0,1,1,0,,,,,1,2,10,6,371.62297450000005,,,,,,,,,,,,,,,,,,,,,371.6080486000001,371.62297450000005,372.10700929999985,372.1117574,372.1247481999999,373.60650399999986,,,,,373.6066384999999,373.6223479999999,373.82235279999986,373.80631289999974,372.1247481999999,,,,,,,,0,1,1.4712832999998682,None,,,,,,,,885,23,M,R,2026-02-25_11h28.05.512,VisualSearch_2526_3,,2025.2.4,2026-02-25 11h28.05.709199 +0100,
tilted.xlsx,The target is tilted.,117,11,3,1,0,1,1,1,1,1,1,1,1,1,1,1,1,11,12,117,space,6.184211100000084,None,0,1,3.027410900000177,None,space,2.409396100000322,None,0,1,1,0,,,,,1,3,11,4,373.82235279999986,,,,,,,,,,,,,,,,,,,,,373.8070174999998,373.82235279999986,374.3054219999999,374.30743269999994,374.32176649999974,377.35478680000006,,,,,377.354914,377.3704763999999,377.5706442999999,377.55466339999975,374.32176649999974,,,,,,,,0,1,3.027410900000177,None,,,,,,,,885,23,M,R,2026-02-25_11h28.05.512,VisualSearch_2526_3,,2025.2.4,2026-02-25 11h28.05.709199 +0100,
tilted.xlsx,The target is tilted.,117,12,4,1,0,1,1,1,1,1,1,1,0,0,0,0,1,7,8,117,space,6.184211100000084,None,0,1,2.943668699999762,None,space,2.409396100000322,None,0,1,1,0,,,,,1,4,12,5,377.5706442999999,,,,,,,,,,,,,,,,,,,,,377.55543709999984,377.5706442999999,378.0543054999998,378.05904710000004,378.0756400999999,381.0360182999998,,,,,381.0361233999997,381.0520696999997,381.2523693999997,381.2362715999998,378.0756400999999,,,,,,,,0,1,2.943668699999762,None,,,,,,,,885,23,M,R,2026-02-25_11h28.05.512,VisualSearch_2526_3,,2025.2.4,2026-02-25 11h28.05.709199 +0100,
tilted.xlsx,The target is tilted.,117,13,5,1,1,0,0,0,0,0,0,0,0,0,0,0,0,0,1,117,space,6.184211100000084,None,0,0,1.1740157999997791,None,space,2.409396100000322,None,0,1,1,0,,,,,1,5,13,3,381.2523693999997,,,,,,,,,,,,,,,,,,,,,381.23702000000003,381.2523693999997,381.7359892999998,381.740499,381.7521941,382.9359899000001,,,,,382.93618190000007,382.95150650000005,383.15061179999975,383.1340803999997,381.7521941,,,,,,,,0,0,1.1740157999997791,None,,,,,,,,885,23,M,R,2026-02-25_11h28.05.512,VisualSearch_2526_3,,2025.2.4,2026-02-25 11h28.05.709199 +0100,
tilted.xlsx,The target is tilted.,117,14,6,1,0,0,0,0,0,0,0,0,0,0,0,0,1,1,1,117,space,6.184211100000084,None,0,1,0.9678445999998075,None,space,2.409396100000322,None,0,1,1,0,,,,,1,6,14,7,383.15061179999975,,,,,,,,,,,,,,,,,,,,,383.1343367999998,383.15061179999975,383.63399260000006,383.63579519999985,383.6504756999998,384.63519589999987,,,,,384.6354048999997,384.6506629999999,384.85060209999983,384.8345323999997,383.6504756999998,,,,,,,,0,1,0.9678445999998075,None,,,,,,,,885,23,M,R,2026-02-25_11h28.05.512,VisualSearch_2526_3,,2025.2.4,2026-02-25 11h28.05.709199 +0100,
tilted.xlsx,The target is tilted.,117,15,7,1,1,1,1,1,0,0,0,0,0,0,0,0,0,3,4,117,space,6.184211100000084,None,1,1,1.158556200000021,None,space,2.409396100000322,None,0,1,1,0,,,,,1,7,15,2,384.85060209999983,,,,,,,,,,,,,,,,,,,,,384.83536349999986,384.85060209999983,385.3339656999997,385.33649220000007,385.3502908999999,386.5177018999998,,,,,386.51789259999987,386.5332862,386.73310979999997,386.71685720000005,385.3502908999999,,,,,,,,1,1,1.158556200000021,None,,,,,,,,885,23,M,R,2026-02-25_11h28.05.512,VisualSearch_2526_3,,2025.2.4,2026-02-25 11h28.05.709199 +0100,
tilted.xlsx,The target is tilted.,117,16,0,2,0,1,1,1,0,0,0,0,0,0,0,0,1,3,4,117,space,6.184211100000084,None,0,1,1.0317313000000468,None,space,2.409396100000322,None,0,1,1,0,,,,,2,0,16,6,386.73310979999997,,,,,,,,,,,,,,,,,,,,,386.7175873000001,386.73310979999997,387.21678399999973,387.22131409999974,387.23458159999973,388.2828048000001,,,,,388.2828961,388.2984827999999,388.4988510999997,388.4828953000001,387.23458159999973,,,,,,,,0,1,1.0317313000000468,None,,,,,,,,885,23,M,R,2026-02-25_11h28.05.512,VisualSearch_2526_3,,2025.2.4,2026-02-25 11h28.05.709199 +0100,
tilted.xlsx,The target is tilted.,117,17,1,2,1,1,1,1,1,1,1,1,0,0,0,0,0,7,8,117,space,6.184211100000084,None,1,1,2.2608202999999776,None,space,2.409396100000322,None,0,1,1,0,,,,,2,1,17,1,388.4988510999997,,,,,,,,,,,,,,,,,,,,,388.48362559999987,388.4988510999997,388.9820709999999,388.9866324999998,389.00238089999993,391.26496469999984,,,,,391.2651009000001,391.2809371999997,391.4806205,391.46493250000003,389.00238089999993,,,,,,,,1,1,2.2608202999999776,None,,,,,,,,885,23,M,R,2026-02-25_11h28.05.512,VisualSearch_2526_3,,2025.2.4,2026-02-25 11h28.05.709199 +0100,
tilted.xlsx,The target is tilted.,117,18,2,2,1,1,1,1,1,1,1,1,1,1,1,1,0,11,12,117,space,6.184211100000084,None,1,1,2.4560120999999526,None,space,2.409396100000322,None,0,1,1,0,,,,,2,2,18,0,391.4806205,,,,,,,,,,,,,,,,,,,,,391.46567019999975,391.4806205,391.9642988999999,391.9689168,391.9835379000001,394.44764099999975,,,,,394.4479025999999,394.46237999999994,394.66242109999985,394.6472238000001,391.9835379000001,,,,,,,,1,1,2.4560120999999526,None,,,,,,,,885,23,M,R,2026-02-25_11h28.05.512,VisualSearch_2526_3,,2025.2.4,2026-02-25 11h28.05.709199 +0100,
tilted.xlsx,The target is tilted.,117,19,3,2,1,1,1,1,0,0,0,0,0,0,0,0,0,3,4,117,space,6.184211100000084,None,1,1,0.8609100999997281,None,space,2.409396100000322,None,0,1,1,0,,,,,2,3,19,2,394.66242109999985,,,,,,,,,,,,,,,,,,,,,394.6480137999997,394.66242109999985,395.14665579999973,395.15135869999995,395.16618089999974,396.0299345999997,,,,,396.0301091000001,396.04522659999975,396.2454969999999,396.2293746999999,395.16618089999974,,,,,,,,1,1,0.8609100999997281,None,,,,,,,,885,23,M,R,2026-02-25_11h28.05.512,VisualSearch_2526_3,,2025.2.4,2026-02-25 11h28.05.709199 +0100,
tilted.xlsx,The target is tilted.,117,20,4,2,1,0,0,0,0,0,0,0,0,0,0,0,0,0,1,117,space,6.184211100000084,None,1,1,0.6311350000000857,None,space,2.409396100000322,None,0,1,1,0,,,,,2,4,20,3,396.2454969999999,,,,,,,,,,,,,,,,,,,,,396.2301256999999,396.2454969999999,396.7287723999998,396.73334410000007,396.74827529999993,397.3956387999997,,,,,397.39583289999973,397.41154989999995,397.61158509999996,397.59550009999975,396.74827529999993,,,,,,,,1,1,0.6311350000000857,None,,,,,,,,885,23,M,R,2026-02-25_11h28.05.512,VisualSearch_2526_3,,2025.2.4,2026-02-25 11h28.05.709199 +0100,
tilted.xlsx,The target is tilted.,117,21,5,2,0,1,1,1,1,1,1,1,0,0,0,0,1,7,8,117,space,6.184211100000084,None,0,1,2.1293789999999717,None,space,2.409396100000322,None,0,1,1,0,,,,,2,5,21,5,397.61158509999996,,,,,,,,,,,,,,,,,,,,,397.59624239999994,397.61158509999996,398.0951887000001,398.09975799999984,398.11468319999994,400.2608701999998,,,,,400.2610480999997,400.2764391999999,400.47612309999977,400.4596032999998,398.11468319999994,,,,,,,,0,1,2.1293789999999717,None,,,,,,,,885,23,M,R,2026-02-25_11h28.05.512,VisualSearch_2526_3,,2025.2.4,2026-02-25 11h28.05.709199 +0100,
tilted.xlsx,The target is tilted.,117,22,6,2,0,1,1,1,1,1,1,1,1,1,1,1,1,11,12,117,space,6.184211100000084,None,0,1,4.199968000000354,None,space,2.409396100000322,None,0,1,1,0,,,,,2,6,22,4,400.47612309999977,,,,,,,,,,,,,,,,,,,,,400.45988910000005,400.47612309999977,400.9598154,400.9613810999999,400.9762575,405.19206170000007,,,,,405.19223740000007,405.2081042,405.4081253999998,405.3915833000001,400.9762575,,,,,,,,0,1,4.199968000000354,None,,,,,,,,885,23,M,R,2026-02-25_11h28.05.512,VisualSearch_2526_3,,2025.2.4,2026-02-25 11h28.05.709199 +0100,
tilted.xlsx,The target is tilted.,117,23,7,2,0,0,0,0,0,0,0,0,0,0,0,0,1,1,1,117,space,6.184211100000084,None,0,1,0.9088329000001067,None,space,2.409396100000322,None,0,1,1,0,,,,,2,7,23,7,405.4081253999998,,,,,,,,,,,,,,,,,,,,,405.39233539999987,405.4081253999998,405.8916618999997,405.8964523999998,405.9113542,406.82440199999974,,,,,406.8245287,406.84054079999987,407.04035840000006,407.0237677,405.9113542,,,,,,,,0,1,0.9088329000001067,None,,,,,,,,885,23,M,R,2026-02-25_11h28.05.512,VisualSearch_2526_3,,2025.2.4,2026-02-25 11h28.05.709199 +0100,
tilted.xlsx,The target is tilted.,117,24,0,3,0,0,0,0,0,0,0,0,0,0,0,0,1,1,1,117,space,6.184211100000084,None,0,1,1.1240109000000302,None,space,2.409396100000322,None,0,1,1,0,,,,,3,0,24,7,407.04035840000006,,,,,,,,,,,,,,,,,,,,,407.0240561999999,407.04035840000006,407.5244181999997,407.52948349999997,407.54668889999994,408.67339649999985,,,,,408.6734811000001,408.6893148999998,408.8897066999998,408.8736816999999,407.54668889999994,,,,,,,,0,1,1.1240109000000302,None,,,,,,,,885,23,M,R,2026-02-25_11h28.05.512,VisualSearch_2526_3,,2025.2.4,2026-02-25 11h28.05.709199 +0100,
tilted.xlsx,The target is tilted.,117,25,1,3,1,0,0,0,0,0,0,0,0,0,0,0,0,0,1,117,space,6.184211100000084,None,1,1,0.545180000000073,None,space,2.409396100000322,None,0,1,1,0,,,,,3,1,25,3,408.8897066999998,,,,,,,,,,,,,,,,,,,,,408.87442629999987,408.8897066999998,409.37346780000007,409.37813069999993,409.39268300000003,409.940161,,,,,409.94033379999973,409.95597799999996,410.15578830000004,410.13940550000007,409.39268300000003,,,,,,,,1,1,0.545180000000073,None,,,,,,,,885,23,M,R,2026-02-25_11h28.05.512,VisualSearch_2526_3,,2025.2.4,2026-02-25 11h28.05.709199 +0100,
tilted.xlsx,The target is tilted.,117,26,2,3,0,1,1,1,0,0,0,0,0,0,0,0,1,3,4,117,space,6.184211100000084,None,0,1,0.9343564000000697,None,space,2.409396100000322,None,0,1,1,0,,,,,3,2,26,6,410.15578830000004,,,,,,,,,,,,,,,,,,,,,410.14013109999996,410.15578830000004,410.63937099999976,410.6440041000001,410.6591711000001,411.6066111,,,,,411.6067982999998,411.62178399999993,411.82173269999976,411.8056357999999,410.6591711000001,,,,,,,,0,1,0.9343564000000697,None,,,,,,,,885,23,M,R,2026-02-25_11h28.05.512,VisualSearch_2526_3,,2025.2.4,2026-02-25 11h28.05.709199 +0100,
tilted.xlsx,The target is tilted.,117,27,3,3,0,1,1,1,1,1,1,1,1,1,1,1,1,11,12,117,space,6.184211100000084,None,0,1,3.5946641000000454,None,space,2.409396100000322,None,0,1,1,0,,,,,3,3,27,4,411.82173269999976,,,,,,,,,,,,,,,,,,,,,411.8064145999997,411.82173269999976,412.30541360000007,412.3099855999999,412.32630849999987,415.9377276,,,,,415.93795550000004,415.9531764999997,416.1526954000001,416.13702319999993,412.32630849999987,,,,,,,,0,1,3.5946641000000454,None,,,,,,,,885,23,M,R,2026-02-25_11h28.05.512,VisualSearch_2526_3,,2025.2.4,2026-02-25 11h28.05.709199 +0100,
tilted.xlsx,The target is tilted.,117,28,4,3,1,1,1,1,1,1,1,1,0,0,0,0,0,7,8,117,space,6.184211100000084,None,1,1,1.3798581999999442,None,space,2.409396100000322,None,0,1,1,0,,,,,3,4,28,1,416.1526954000001,,,,,,,,,,,,,,,,,,,,,416.13775069999974,416.1526954000001,416.6369728999998,416.641666,416.65233709999984,418.0363282999997,,,,,418.0365330999998,418.0522692999998,418.25218129999985,418.2359870999999,416.65233709999984,,,,,,,,1,1,1.3798581999999442,None,,,,,,,,885,23,M,R,2026-02-25_11h28.05.512,VisualSearch_2526_3,,2025.2.4,2026-02-25 11h28.05.709199 +0100,
tilted.xlsx,The target is tilted.,117,29,5,3,1,1,1,1,0,0,0,0,0,0,0,0,0,3,4,117,space,6.184211100000084,None,0,0,1.0511672000002363,None,space,2.409396100000322,None,0,1,1,0,,,,,3,5,29,2,418.25218129999985,,,,,,,,,,,,,,,,,,,,,418.2367451,418.25218129999985,418.7358827999997,418.74043170000004,418.7565712999999,419.81790569999976,,,,,419.8179851,419.8339553999999,420.0339375999997,420.01753469999994,418.7565712999999,,,,,,,,0,0,1.0511672000002363,None,,,,,,,,885,23,M,R,2026-02-25_11h28.05.512,VisualSearch_2526_3,,2025.2.4,2026-02-25 11h28.05.709199 +0100,
tilted.xlsx,The target is tilted.,117,30,6,3,1,1,1,1,1,1,1,1,1,1,1,1,0,11,12,117,space,6.184211100000084,None,1,1,3.7326435999998466,None,space,2.409396100000322,None,0,1,1,0,,,,,3,6,30,0,420.0339375999997,,,,,,,,,,,,,,,,,,,,,420.0178837999997,420.0339375999997,420.51814319999994,420.52314799999976,420.5388816999998,424.2835891999998,,,,,424.2837464999998,424.2990417000001,424.4992582,424.48319089999995,,,,,,,,,1,1,3.7326435999998466,None,,,,,,,,885,23,M,R,2026-02-25_11h28.05.512,VisualSearch_2526_3,,2025.2.4,2026-02-25 11h28.05.709199 +0100,
tilted.xlsx,The target is tilted.,117,31,7,3,0,1,1,1,1,1,1,1,0,0,0,0,1,7,8,117,space,6.184211100000084,None,0,1,2.5042766999999913,None,space,2.409396100000322,None,0,1,1,0,,,,,3,7,31,5,424.4992582,,,,,,,,,,,,,,,,,,,,,424.4839554,424.4992582,424.98290259999976,424.9875652999999,425.0031107,427.5152591000001,,,,,427.51539589999993,427.53088149999985,427.73115629999984,427.71511250000003,425.0031107,,,,,,,,0,1,2.5042766999999913,None,,,,,,,,885,23,M,R,2026-02-25_11h28.05.512,VisualSearch_2526_3,,2025.2.4,2026-02-25 11h28.05.709199 +0100,
tilted.xlsx,The target is tilted.,117,32,0,4,1,1,1,1,0,0,0,0,0,0,0,0,0,3,4,117,space,6.184211100000084,None,1,1,0.7748175000001538,None,space,2.409396100000322,None,0,1,1,0,,,,,4,0,32,2,427.73115629999984,,,,,,,,,,,,,,,,,,,,,427.7158218999998,427.73115629999984,428.2149288999999,428.2195526999999,428.23444089999975,429.0150795999998,,,,,429.01527639999995,429.0301795999999,429.23052340000004,429.2143839999999,428.23444089999975,,,,,,,,1,1,0.7748175000001538,None,,,,,,,,885,23,M,R,2026-02-25_11h28.05.512,VisualSearch_2526_3,,2025.2.4,2026-02-25 11h28.05.709199 +0100,
tilted.xlsx,The target is tilted.,117,33,1,4,0,1,1,1,1,1,1,1,0,0,0,0,1,7,8,117,space,6.184211100000084,None,0,1,3.0700292000001355,None,space,2.409396100000322,None,0,1,1,0,,,,,4,1,33,5,429.23052340000004,,,,,,,,,,,,,,,,,,,,,429.21512589999975,429.23052340000004,429.71406939999997,429.7187535999997,429.7337735000001,432.81327599999986,,,,,432.813482,432.8284899,433.0283752999999,433.012647,429.7337735000001,,,,,,,,0,1,3.0700292000001355,None,,,,,,,,885,23,M,R,2026-02-25_11h28.05.512,VisualSearch_2526_3,,2025.2.4,2026-02-25 11h28.05.709199 +0100,
tilted.xlsx,The target is tilted.,117,34,2,4,1,1,1,1,1,1,1,1,0,0,0,0,0,7,8,117,space,6.184211100000084,None,1,1,2.3544646000000284,None,space,2.409396100000322,None,0,1,1,0,,,,,4,2,34,1,433.0283752999999,,,,,,,,,,,,,,,,,,,,,433.0134296000001,433.0283752999999,433.5124661,433.51693019999993,433.52775169999995,435.8949276999997,,,,,435.8950940999998,435.91072510000004,436.11071159999983,436.09459519999973,433.52775169999995,,,,,,,,1,1,2.3544646000000284,None,,,,,,,,885,23,M,R,2026-02-25_11h28.05.512,VisualSearch_2526_3,,2025.2.4,2026-02-25 11h28.05.709199 +0100,
