file_name,block_instructions,target_example,thisN,thisTrialN,thisRepN,target_presence,opacity_1,opacity_2,opacity_3,opacity_4,opacity_5,opacity_6,opacity_7,opacity_8,opacity_9,opacity_10,opacity_11,opacity_12,n_distract,n_items,target_ori,key_resp_4.keys,key_resp_4.rt,key_resp_4.duration,key_resp.keys,key_resp.corr,key_resp.rt,key_resp.duration,key_resp_5.keys,key_resp_5.rt,key_resp_5.duration,blocks.thisRepN,blocks.thisTrialN,blocks.thisN,blocks.thisIndex,practice_trials.thisRepN,practice_trials.thisTrialN,practice_trials.thisN,practice_trials.thisIndex,trials.thisRepN,trials.thisTrialN,trials.thisN,trials.thisIndex,thisRow.t,notes,Welcome.started,WelcomeText.started,key_resp_2.started,Welcome.stopped,key_resp_2.keys,key_resp_2.rt,key_resp_2.duration,InformedConsent.started,text_4.started,InformedConsent.stopped,key_resp_6.keys,key_resp_6.rt,key_resp_6.duration,key_resp_4.started,example_target.started,text_3.started,blocks.key_resp_4.keys,blocks.key_resp_4.rt,blocks.key_resp_4.duration,FixCross.started,fixCross.started,FixCross.stopped,Stimulus.started,key_resp.started,Stimulus.stopped,practice_trials.key_resp.keys,practice_trials.key_resp.corr,practice_trials.key_resp.rt,practice_trials.key_resp.duration,BlankScreen.started,text.started,text.stopped,BlankScreen.stopped,fixCross.stopped,ExperimentStart.started,text_2.started,key_resp_5.started,ExperimentStart.stopped,blocks.key_resp_5.keys,blocks.key_resp_5.rt,blocks.key_resp_5.duration,trials.key_resp.keys,trials.key_resp.corr,trials.key_resp.rt,trials.key_resp.duration,Thanks.started,ThankYou.started,key_resp_3.started,Thanks.stopped,key_resp_3.keys,key_resp_3.rt,key_resp_3.duration,participant,leeftijd,gender,links/rechtshandig,date,expName,expVersion,psychopyVersion,expStart,
,,,,,,,,,,,,,,,,,,,,,,,,,,,,,,,,,,,,,,,,,,,,,,0.01568169999973179,0.025997199999437726,0.025997199999437726,43.16105679999964,space,43.11134420000053,None,,,,,,,,,,,,,,,,,,,,,,,,,,,,,,,,,,,,,,,,,,,,,,885,21,M,R,2026-02-18_12h12.51.811,VisualSearch_2526_3,,2025.2.4,2026-02-18 12h12.52.009513 +0100,
,,,,,,,,,,,,,,,,,,,,,,,,,,,,,,,,,,,,,,,,,,,,,,,,,,,,,43.16119619999972,43.16905929999939,77.06389779999972,y,33.897903200000655,None,,,,,,,,,,,,,,,,,,,,,,,,,,,,,,,,,,,,,,,,885,21,M,R,2026-02-18_12h12.51.811,VisualSearch_2526_3,,2025.2.4,2026-02-18 12h12.52.009513 +0100,
vertical.xlsx,The target is tilted.,135,0,0,0,1,1,1,1,0,0,0,0,0,0,0,0,0,3,4,135,space,14.877360200000112,None,1,1,1.6397048999997423,None,,,,0,0,0,1,0,0,0,2,,,,,92.01643409999997,,,,,,,,,,,,,,,77.10004070000014,77.10004070000014,77.10004070000014,space,14.877360200000112,None,92.0113526999994,92.01643409999997,92.50626449999982,92.51141199999984,92.52671699999973,94.17259599999943,1,1,1.6397048999997423,None,94.17278989999977,94.18825819999984,94.38844019999942,94.37235989999954,,,,,,,,,,,,,,,,,,,,885,21,M,R,2026-02-18_12h12.51.811,VisualSearch_2526_3,,2025.2.4,2026-02-18 12h12.52.009513 +0100,
vertical.xlsx,The target is tilted.,135,1,1,0,1,1,1,1,1,1,1,1,1,1,1,1,0,11,12,135,space,14.877360200000112,None,1,1,1.4245264999999563,None,,,,0,0,0,1,0,1,1,0,,,,,94.38844019999942,,,,,,,,,,,,,,,,,,,,,94.37303659999998,94.38844019999942,94.87214080000012,94.87687779999942,94.88761739999973,96.32183149999946,1,1,1.4245264999999563,None,96.32200579999972,96.33743819999927,96.53719639999963,96.52144799999951,94.88761739999973,,,,,,,,,,,,,,,,,,,885,21,M,R,2026-02-18_12h12.51.811,VisualSearch_2526_3,,2025.2.4,2026-02-18 12h12.52.009513 +0100,
vertical.xlsx,The target is tilted.,135,2,2,0,1,1,1,1,1,1,1,1,0,0,0,0,0,7,8,135,space,14.877360200000112,None,1,1,1.9687352999999348,None,,,,0,0,0,1,0,2,2,1,,,,,96.53719639999963,,,,,,,,,,,,,,,,,,,,,96.52217509999991,96.53719639999963,97.02063599999929,97.02273299999979,97.0367513000001,99.01993330000005,1,1,1.9687352999999348,None,99.02010259999952,99.03572619999977,99.23617359999935,99.22008449999976,97.0367513000001,,,,,,,,,,,,,,,,,,,885,21,M,R,2026-02-18_12h12.51.811,VisualSearch_2526_3,,2025.2.4,2026-02-18 12h12.52.009513 +0100,
vertical.xlsx,The target is tilted.,135,3,3,0,0,0,0,0,0,0,0,0,0,0,0,0,1,1,1,135,space,14.877360200000112,None,0,1,1.015602100000251,None,,,,0,0,0,1,0,3,3,7,,,,,99.23617359999935,,,,,,,,,,,,,,,,,,,,,99.22076169999946,99.23617359999935,99.71974879999925,99.72469079999973,99.7404034000001,100.76937319999979,0,1,1.015602100000251,None,100.76958339999965,100.78495469999962,100.98507849999987,100.9693871999998,99.7404034000001,,,,,,,,,,,,,,,,,,,885,21,M,R,2026-02-18_12h12.51.811,VisualSearch_2526_3,,2025.2.4,2026-02-18 12h12.52.009513 +0100,
vertical.xlsx,The target is tilted.,135,4,4,0,0,1,1,1,1,1,1,1,0,0,0,0,1,7,8,135,space,14.877360200000112,None,0,1,2.7452345000001515,None,,,,0,0,0,1,0,4,4,5,,,,,100.98507849999987,,,,,,,,,,,,,,,,,,,,,100.9701427,100.98507849999987,101.46905459999925,101.47384859999966,101.49329669999952,104.25120199999947,0,1,2.7452345000001515,None,104.2513958999998,104.26667199999974,104.46692519999942,104.45103859999926,101.49329669999952,,,,,,,,,,,,,,,,,,,885,21,M,R,2026-02-18_12h12.51.811,VisualSearch_2526_3,,2025.2.4,2026-02-18 12h12.52.009513 +0100,
vertical.xlsx,The target is tilted.,135,5,5,0,1,0,0,0,0,0,0,0,0,0,0,0,0,0,1,135,space,14.877360200000112,None,1,1,0.6660578000000896,None,,,,0,0,0,1,0,5,5,3,,,,,104.46692519999942,,,,,,,,,,,,,,,,,,,,,104.45176809999975,104.46692519999942,104.95099260000006,104.95657349999965,104.97217309999996,105.65061639999931,1,1,0.6660578000000896,None,105.65079139999943,105.66606339999998,105.8666733,105.8504454999993,104.97217309999996,,,,,,,,,,,,,,,,,,,885,21,M,R,2026-02-18_12h12.51.811,VisualSearch_2526_3,,2025.2.4,2026-02-18 12h12.52.009513 +0100,
vertical.xlsx,The target is tilted.,135,6,6,0,0,1,1,1,0,0,0,0,0,0,0,0,1,3,4,135,space,14.877360200000112,None,0,1,1.196160499999678,None,,,,0,0,0,1,0,6,6,6,,,,,105.8666733,,,,,,,,,,,,,,,,,,,,,105.8511396999993,105.8666733,106.3502853,106.35594709999987,106.3716131000001,107.5826932,0,1,1.196160499999678,None,107.5828518999997,107.59883809999974,107.79905429999963,107.78291720000016,106.3716131000001,,,,,,,,,,,,,,,,,,,885,21,M,R,2026-02-18_12h12.51.811,VisualSearch_2526_3,,2025.2.4,2026-02-18 12h12.52.009513 +0100,
vertical.xlsx,The target is tilted.,135,7,7,0,0,1,1,1,1,1,1,1,1,1,1,1,1,11,12,135,space,14.877360200000112,None,0,1,3.2651575999998386,None,,,,0,0,0,1,0,7,7,4,,,,,107.79905429999963,,,,,,,,,,,,,,,,,,,,,107.78373659999943,107.79905429999963,108.28286859999935,108.28816740000002,108.30295249999926,111.58112900000015,0,1,3.2651575999998386,None,111.5813492999996,111.59666489999927,111.79694109999946,111.78101199999946,108.30295249999926,,,,,,,,,,,,,,,,,,,885,21,M,R,2026-02-18_12h12.51.811,VisualSearch_2526_3,,2025.2.4,2026-02-18 12h12.52.009513 +0100,
vertical.xlsx,The target is tilted.,135,0,0,0,1,1,1,1,0,0,0,0,0,0,0,0,0,3,4,135,space,14.877360200000112,None,1,1,1.5077212000005602,None,space,6.237265200000365,None,0,0,0,1,,,,,0,0,0,2,118.07559009999932,,,,,,,,,,,,,,,,,,,,,118.07165139999961,118.07559009999932,118.56114759999946,118.5660283999996,118.57708229999935,120.0937774999993,,,,,120.09387509999942,120.1093934999999,120.30996219999997,120.29362289999972,,111.78802429999996,111.79694109999946,111.79694109999946,118.04507749999993,space,6.237265200000365,None,1,1,1.5077212000005602,None,,,,,,,,885,21,M,R,2026-02-18_12h12.51.811,VisualSearch_2526_3,,2025.2.4,2026-02-18 12h12.52.009513 +0100,
vertical.xlsx,The target is tilted.,135,1,1,0,0,1,1,1,1,1,1,1,0,0,0,0,1,7,8,135,space,14.877360200000112,None,0,1,1.6909517000003689,None,space,6.237265200000365,None,0,0,0,1,,,,,0,1,1,5,120.30996219999997,,,,,,,,,,,,,,,,,,,,,120.2944864000001,120.30996219999997,120.7938635999999,120.79922259999967,120.81263499999932,122.51018719999956,,,,,122.51040079999984,122.52508809999927,122.72560559999965,122.70936519999941,120.81263499999932,,,,,,,,0,1,1.6909517000003689,None,,,,,,,,885,21,M,R,2026-02-18_12h12.51.811,VisualSearch_2526_3,,2025.2.4,2026-02-18 12h12.52.009513 +0100,
vertical.xlsx,The target is tilted.,135,2,2,0,0,1,1,1,1,1,1,1,1,1,1,1,1,11,12,135,space,14.877360200000112,None,0,1,2.1586968999999954,None,space,6.237265200000365,None,0,0,0,1,,,,,0,2,2,4,122.72560559999965,,,,,,,,,,,,,,,,,,,,,122.71014860000014,122.72560559999965,123.20934690000013,123.2139019999995,123.22513859999981,125.3919619999997,,,,,125.39212749999933,125.40716339999926,125.60758259999966,125.59143889999996,123.22513859999981,,,,,,,,0,1,2.1586968999999954,None,,,,,,,,885,21,M,R,2026-02-18_12h12.51.811,VisualSearch_2526_3,,2025.2.4,2026-02-18 12h12.52.009513 +0100,
vertical.xlsx,The target is tilted.,135,3,3,0,1,0,0,0,0,0,0,0,0,0,0,0,0,0,1,135,space,14.877360200000112,None,1,1,0.7799503999995068,None,space,6.237265200000365,None,0,0,0,1,,,,,0,3,3,3,125.60758259999966,,,,,,,,,,,,,,,,,,,,,125.5921918999993,125.60758259999966,126.09121049999976,126.09609809999984,126.11143459999948,126.90779669999938,,,,,126.90807239999958,126.92315469999994,127.12363120000009,127.10752419999972,126.11143459999948,,,,,,,,1,1,0.7799503999995068,None,,,,,,,,885,21,M,R,2026-02-18_12h12.51.811,VisualSearch_2526_3,,2025.2.4,2026-02-18 12h12.52.009513 +0100,
vertical.xlsx,The target is tilted.,135,4,4,0,0,0,0,0,0,0,0,0,0,0,0,0,1,1,1,135,space,14.877360200000112,None,0,1,0.958605599999828,None,space,6.237265200000365,None,0,0,0,1,,,,,0,4,4,7,127.12363120000009,,,,,,,,,,,,,,,,,,,,,127.10823359999995,127.12363120000009,127.60761809999985,127.6130819,127.62832290000006,128.59026059999997,,,,,128.5904442000001,128.60566010000002,128.80616099999952,128.79003209999973,127.62832290000006,,,,,,,,0,1,0.958605599999828,None,,,,,,,,885,21,M,R,2026-02-18_12h12.51.811,VisualSearch_2526_3,,2025.2.4,2026-02-18 12h12.52.009513 +0100,
vertical.xlsx,The target is tilted.,135,5,5,0,1,1,1,1,1,1,1,1,1,1,1,1,0,11,12,135,space,14.877360200000112,None,1,1,2.2620929999993677,None,space,6.237265200000365,None,0,0,0,1,,,,,0,5,5,0,128.80616099999952,,,,,,,,,,,,,,,,,,,,,128.79076209999948,128.80616099999952,129.28977349999968,129.2947223000001,129.30866669999978,131.57214359999944,,,,,131.57230660000005,131.5876559999997,131.7879340999998,131.77183669999977,129.30866669999978,,,,,,,,1,1,2.2620929999993677,None,,,,,,,,885,21,M,R,2026-02-18_12h12.51.811,VisualSearch_2526_3,,2025.2.4,2026-02-18 12h12.52.009513 +0100,
vertical.xlsx,The target is tilted.,135,6,6,0,1,1,1,1,1,1,1,1,0,0,0,0,0,7,8,135,space,14.877360200000112,None,1,1,1.3315143999998327,None,space,6.237265200000365,None,0,0,0,1,,,,,0,6,6,1,131.7879340999998,,,,,,,,,,,,,,,,,,,,,131.77258709999933,131.7879340999998,132.2717690999998,132.27669329999935,132.29243450000013,133.6373926999995,,,,,133.63754179999978,133.65340059999926,133.8539370999997,133.8376632999998,132.29243450000013,,,,,,,,1,1,1.3315143999998327,None,,,,,,,,885,21,M,R,2026-02-18_12h12.51.811,VisualSearch_2526_3,,2025.2.4,2026-02-18 12h12.52.009513 +0100,
vertical.xlsx,The target is tilted.,135,7,7,0,0,1,1,1,0,0,0,0,0,0,0,0,1,3,4,135,space,14.877360200000112,None,0,1,1.8806216000002678,None,space,6.237265200000365,None,0,0,0,1,,,,,0,7,7,6,133.8539370999997,,,,,,,,,,,,,,,,,,,,,133.83851929999946,133.8539370999997,134.3377120999994,134.34308729999975,134.35875510000005,136.2529040999998,,,,,136.25302219999958,136.2687974999999,136.4694131999995,136.45338029999948,134.35875510000005,,,,,,,,0,1,1.8806216000002678,None,,,,,,,,885,21,M,R,2026-02-18_12h12.51.811,VisualSearch_2526_3,,2025.2.4,2026-02-18 12h12.52.009513 +0100,
vertical.xlsx,The target is tilted.,135,8,0,1,0,1,1,1,0,0,0,0,0,0,0,0,1,3,4,135,space,14.877360200000112,None,0,1,1.9129687000004196,None,space,6.237265200000365,None,0,0,0,1,,,,,1,0,8,6,136.4694131999995,,,,,,,,,,,,,,,,,,,,,136.45424689999982,136.4694131999995,136.95313499999975,136.95849409999937,136.97304689999964,138.90192979999938,,,,,138.9020684999996,138.91756709999936,139.11777379999967,139.1017069999998,136.97304689999964,,,,,,,,0,1,1.9129687000004196,None,,,,,,,,885,21,M,R,2026-02-18_12h12.51.811,VisualSearch_2526_3,,2025.2.4,2026-02-18 12h12.52.009513 +0100,
vertical.xlsx,The target is tilted.,135,9,1,1,0,1,1,1,1,1,1,1,1,1,1,1,1,11,12,135,space,14.877360200000112,None,0,1,2.7877164000001358,None,space,6.237265200000365,None,0,0,0,1,,,,,1,1,9,4,139.11777379999967,,,,,,,,,,,,,,,,,,,,,139.1024368999997,139.11777379999967,139.60195010000007,139.60776889999943,139.6226762999995,142.41763449999962,,,,,142.41781749999973,142.43268119999993,142.6332414999997,142.6172321999993,139.6226762999995,,,,,,,,0,1,2.7877164000001358,None,,,,,,,,885,21,M,R,2026-02-18_12h12.51.811,VisualSearch_2526_3,,2025.2.4,2026-02-18 12h12.52.009513 +0100,
vertical.xlsx,The target is tilted.,135,10,2,1,1,1,1,1,1,1,1,1,0,0,0,0,0,7,8,135,space,14.877360200000112,None,1,1,0.758594500000072,None,space,6.237265200000365,None,0,0,0,1,,,,,1,2,10,1,142.6332414999997,,,,,,,,,,,,,,,,,,,,,142.61801209999976,142.6332414999997,143.11663299999964,143.1215943999996,143.13812599999983,143.90004020000015,,,,,143.90024549999998,143.91545229999974,144.11569639999925,144.09992409999995,143.13812599999983,,,,,,,,1,1,0.758594500000072,None,,,,,,,,885,21,M,R,2026-02-18_12h12.51.811,VisualSearch_2526_3,,2025.2.4,2026-02-18 12h12.52.009513 +0100,
vertical.xlsx,The target is tilted.,135,11,3,1,0,0,0,0,0,0,0,0,0,0,0,0,1,1,1,135,space,14.877360200000112,None,0,1,0.6732113999996727,None,space,6.237265200000365,None,0,0,0,1,,,,,1,3,11,7,144.11569639999925,,,,,,,,,,,,,,,,,,,,,144.1007429000001,144.11569639999925,144.59947849999935,144.60449909999988,144.6198476999998,145.2996205999998,,,,,145.29983549999997,145.31477989999985,145.51525419999962,145.49905299999955,144.6198476999998,,,,,,,,0,1,0.6732113999996727,None,,,,,,,,885,21,M,R,2026-02-18_12h12.51.811,VisualSearch_2526_3,,2025.2.4,2026-02-18 12h12.52.009513 +0100,
vertical.xlsx,The target is tilted.,135,12,4,1,0,1,1,1,1,1,1,1,0,0,0,0,1,7,8,135,space,14.877360200000112,None,0,1,2.3698994999995193,None,space,6.237265200000365,None,0,0,0,1,,,,,1,4,12,5,145.51525419999962,,,,,,,,,,,,,,,,,,,,,145.49980099999993,145.51525419999962,145.9989646999993,146.00406799999928,146.0148610999995,148.39797069999986,,,,,148.39815159999944,148.41337739999926,148.61378249999962,148.59743519999938,146.0148610999995,,,,,,,,0,1,2.3698994999995193,None,,,,,,,,885,21,M,R,2026-02-18_12h12.51.811,VisualSearch_2526_3,,2025.2.4,2026-02-18 12h12.52.009513 +0100,
vertical.xlsx,The target is tilted.,135,13,5,1,1,0,0,0,0,0,0,0,0,0,0,0,0,0,1,135,space,14.877360200000112,None,1,1,0.6056195999999545,None,space,6.237265200000365,None,0,0,0,1,,,,,1,5,13,3,148.61378249999962,,,,,,,,,,,,,,,,,,,,,148.59816219999993,148.61378249999962,149.09764489999998,149.10263979999945,149.11767340000006,149.7310453,,,,,149.7312435999993,149.74592649999977,149.94672399999945,149.93040479999945,149.11767340000006,,,,,,,,1,1,0.6056195999999545,None,,,,,,,,885,21,M,R,2026-02-18_12h12.51.811,VisualSearch_2526_3,,2025.2.4,2026-02-18 12h12.52.009513 +0100,
vertical.xlsx,The target is tilted.,135,14,6,1,1,1,1,1,0,0,0,0,0,0,0,0,0,3,4,135,space,14.877360200000112,None,1,1,0.6791526000006343,None,space,6.237265200000365,None,0,0,0,1,,,,,1,6,14,2,149.94672399999945,,,,,,,,,,,,,,,,,,,,,149.93119939999997,149.94672399999945,150.4302205999993,150.4351117999995,150.44917089999944,151.13043130000005,,,,,151.13064529999974,151.14548209999975,151.34553419999975,151.32974000000013,150.44917089999944,,,,,,,,1,1,0.6791526000006343,None,,,,,,,,885,21,M,R,2026-02-18_12h12.51.811,VisualSearch_2526_3,,2025.2.4,2026-02-18 12h12.52.009513 +0100,
vertical.xlsx,The target is tilted.,135,15,7,1,1,1,1,1,1,1,1,1,1,1,1,1,0,11,12,135,space,14.877360200000112,None,1,1,1.1791719000002558,None,space,6.237265200000365,None,0,0,0,1,,,,,1,7,15,0,151.34553419999975,,,,,,,,,,,,,,,,,,,,,151.33050699999967,151.34553419999975,151.8294489,151.83436009999969,151.85140619999947,153.04569009999977,,,,,153.0458896,153.06119989999934,153.2616838999993,153.24557060000006,151.85140619999947,,,,,,,,1,1,1.1791719000002558,None,,,,,,,,885,21,M,R,2026-02-18_12h12.51.811,VisualSearch_2526_3,,2025.2.4,2026-02-18 12h12.52.009513 +0100,
vertical.xlsx,The target is tilted.,135,16,0,2,0,1,1,1,0,0,0,0,0,0,0,0,1,3,4,135,space,14.877360200000112,None,0,1,0.9767764999996871,None,space,6.237265200000365,None,0,0,0,1,,,,,2,0,16,6,153.2616838999993,,,,,,,,,,,,,,,,,,,,,153.2463170000001,153.2616838999993,153.74542569999994,153.75027210000007,153.7658862999997,154.74563859999944,,,,,154.74585130000014,154.76051430000007,154.96100249999927,154.94487260000005,153.7658862999997,,,,,,,,0,1,0.9767764999996871,None,,,,,,,,885,21,M,R,2026-02-18_12h12.51.811,VisualSearch_2526_3,,2025.2.4,2026-02-18 12h12.52.009513 +0100,
vertical.xlsx,The target is tilted.,135,17,1,2,0,0,0,0,0,0,0,0,0,0,0,0,1,1,1,135,space,14.877360200000112,None,0,1,0.6439071999993757,None,space,6.237265200000365,None,0,0,0,1,,,,,2,1,17,7,154.96100249999927,,,,,,,,,,,,,,,,,,,,,154.94562580000002,154.96100249999927,155.4445655999998,155.4495710000001,155.46539810000013,156.1114865999998,,,,,156.1116849,156.12657559999934,156.3269567999996,156.31076659999962,155.46539810000013,,,,,,,,0,1,0.6439071999993757,None,,,,,,,,885,21,M,R,2026-02-18_12h12.51.811,VisualSearch_2526_3,,2025.2.4,2026-02-18 12h12.52.009513 +0100,
vertical.xlsx,The target is tilted.,135,18,2,2,1,0,0,0,0,0,0,0,0,0,0,0,0,0,1,135,space,14.877360200000112,None,1,1,0.5169860999994853,None,space,6.237265200000365,None,0,0,0,1,,,,,2,2,18,3,156.3269567999996,,,,,,,,,,,,,,,,,,,,,156.31149619999997,156.3269567999996,156.81066199999987,156.8155595999997,156.83096469999964,157.3604022999998,,,,,157.36062700000002,157.37597920000007,157.57637819999945,157.56036249999943,156.83096469999964,,,,,,,,1,1,0.5169860999994853,None,,,,,,,,885,21,M,R,2026-02-18_12h12.51.811,VisualSearch_2526_3,,2025.2.4,2026-02-18 12h12.52.009513 +0100,
vertical.xlsx,The target is tilted.,135,19,3,2,1,1,1,1,1,1,1,1,0,0,0,0,0,7,8,135,space,14.877360200000112,None,1,1,0.833523399999649,None,space,6.237265200000365,None,0,0,0,1,,,,,2,3,19,1,157.57637819999945,,,,,,,,,,,,,,,,,,,,,157.56106329999966,157.57637819999945,158.06009379999978,158.0650984999993,158.08047139999962,158.92581960000007,,,,,158.9259575999995,158.94186079999963,,159.12616470000012,158.08047139999962,,,,,,,,1,1,0.833523399999649,None,,,,,,,,885,21,M,R,2026-02-18_12h12.51.811,VisualSearch_2526_3,,2025.2.4,2026-02-18 12h12.52.009513 +0100,
vertical.xlsx,The target is tilted.,135,20,4,2,0,1,1,1,1,1,1,1,0,0,0,0,1,7,8,135,space,14.877360200000112,None,0,1,2.2440445000002,None,space,6.237265200000365,None,0,0,0,1,,,,,2,4,20,5,159.14242169999943,,,,,,,,,,,,,,,,,,,,,159.12704589999976,159.14242169999943,159.62552669999968,159.63036829999965,159.6448679999994,161.89209179999943,,,,,161.89227449999998,161.90733639999962,162.10751849999997,162.09161479999966,159.6448679999994,,,,,,,,0,1,2.2440445000002,None,,,,,,,,885,21,M,R,2026-02-18_12h12.51.811,VisualSearch_2526_3,,2025.2.4,2026-02-18 12h12.52.009513 +0100,
vertical.xlsx,The target is tilted.,135,21,5,2,1,1,1,1,1,1,1,1,1,1,1,1,0,11,12,135,space,14.877360200000112,None,1,1,2.321663400000034,None,space,6.237265200000365,None,0,0,0,1,,,,,2,5,21,0,162.10751849999997,,,,,,,,,,,,,,,,,,,,,162.09234299999935,162.10751849999997,162.59137490000012,162.59629239999958,162.61200449999978,164.94038180000007,,,,,164.9405213,164.9558694999996,165.1559870000001,165.14011019999998,162.61200449999978,,,,,,,,1,1,2.321663400000034,None,,,,,,,,885,21,M,R,2026-02-18_12h12.51.811,VisualSearch_2526_3,,2025.2.4,2026-02-18 12h12.52.009513 +0100,
vertical.xlsx,The target is tilted.,135,22,6,2,1,1,1,1,0,0,0,0,0,0,0,0,0,3,4,135,space,14.877360200000112,None,1,1,0.9161751999999979,None,space,6.237265200000365,None,0,0,0,1,,,,,2,6,22,2,165.1559870000001,,,,,,,,,,,,,,,,,,,,,165.14087219999965,165.1559870000001,165.64001049999933,165.6448989999999,165.65961979999975,166.58957969999938,,,,,166.58977950000008,166.60505769999963,166.8055390999998,166.78925530000015,165.65961979999975,,,,,,,,1,1,0.9161751999999979,None,,,,,,,,885,21,M,R,2026-02-18_12h12.51.811,VisualSearch_2526_3,,2025.2.4,2026-02-18 12h12.52.009513 +0100,
vertical.xlsx,The target is tilted.,135,23,7,2,0,1,1,1,1,1,1,1,1,1,1,1,1,11,12,135,space,14.877360200000112,None,0,1,2.877724100000705,None,space,6.237265200000365,None,0,0,0,1,,,,,2,7,23,4,166.8055390999998,,,,,,,,,,,,,,,,,,,,,166.79010029999972,166.8055390999998,167.28919919999953,167.29431049999948,167.30744649999997,170.18831989999944,,,,,170.18852470000002,170.20349729999998,170.40398929999992,170.38752699999986,167.30744649999997,,,,,,,,0,1,2.877724100000705,None,,,,,,,,885,21,M,R,2026-02-18_12h12.51.811,VisualSearch_2526_3,,2025.2.4,2026-02-18 12h12.52.009513 +0100,
vertical.xlsx,The target is tilted.,135,24,0,3,0,1,1,1,0,0,0,0,0,0,0,0,1,3,4,135,space,14.877360200000112,None,0,1,1.0036215000000084,None,space,6.237265200000365,None,0,0,0,1,,,,,3,0,24,6,170.40398929999992,,,,,,,,,,,,,,,,,,,,,170.38830609999968,170.40398929999992,170.8874519000001,170.89277989999937,170.90812019999976,171.9203112999994,,,,,171.92041829999926,171.93583899999976,172.1365255999999,172.12034559999938,170.90812019999976,,,,,,,,0,1,1.0036215000000084,None,,,,,,,,885,21,M,R,2026-02-18_12h12.51.811,VisualSearch_2526_3,,2025.2.4,2026-02-18 12h12.52.009513 +0100,
vertical.xlsx,The target is tilted.,135,25,1,3,0,0,0,0,0,0,0,0,0,0,0,0,1,1,1,135,space,14.877360200000112,None,0,1,0.5194990999998481,None,space,6.237265200000365,None,0,0,0,1,,,,,3,1,25,7,172.1365255999999,,,,,,,,,,,,,,,,,,,,,172.12109819999932,172.1365255999999,172.62009969999963,172.62508079999952,172.63862729999983,173.1694241999994,,,,,173.16956149999987,173.1854856,173.38591279999946,173.36978180000006,172.63862729999983,,,,,,,,0,1,0.5194990999998481,None,,,,,,,,885,21,M,R,2026-02-18_12h12.51.811,VisualSearch_2526_3,,2025.2.4,2026-02-18 12h12.52.009513 +0100,
vertical.xlsx,The target is tilted.,135,26,2,3,1,1,1,1,1,1,1,1,1,1,1,1,0,11,12,135,space,14.877360200000112,None,1,1,1.80362630000036,None,space,6.237265200000365,None,0,0,0,1,,,,,3,2,26,0,173.38591279999946,,,,,,,,,,,,,,,,,,,,,173.37055449999934,173.38591279999946,173.8693392999994,173.87423080000008,173.88834150000002,175.70164999999997,,,,,175.70175109999946,175.71737669999948,175.91814129999966,175.9021401,173.88834150000002,,,,,,,,1,1,1.80362630000036,None,,,,,,,,885,21,M,R,2026-02-18_12h12.51.811,VisualSearch_2526_3,,2025.2.4,2026-02-18 12h12.52.009513 +0100,
vertical.xlsx,The target is tilted.,135,27,3,3,1,1,1,1,1,1,1,1,0,0,0,0,0,7,8,135,space,14.877360200000112,None,1,1,0.8557603999997809,None,space,6.237265200000365,None,0,0,0,1,,,,,3,3,27,1,175.91814129999966,,,,,,,,,,,,,,,,,,,,,175.90296209999997,175.91814129999966,176.40171869999995,176.40659890000006,176.42060869999932,177.28497100000004,,,,,177.28516949999994,177.30026109999926,177.50071219999973,177.48454820000006,176.42060869999932,,,,,,,,1,1,0.8557603999997809,None,,,,,,,,885,21,M,R,2026-02-18_12h12.51.811,VisualSearch_2526_3,,2025.2.4,2026-02-18 12h12.52.009513 +0100,
vertical.xlsx,The target is tilted.,135,28,4,3,1,0,0,0,0,0,0,0,0,0,0,0,0,0,1,135,space,14.877360200000112,None,1,1,0.8593043999999281,None,space,6.237265200000365,None,0,0,0,1,,,,,3,4,28,3,177.50071219999973,,,,,,,,,,,,,,,,,,,,,177.48529009999947,177.50071219999973,177.98437549999926,177.98932449999938,178.0051113999998,178.86762959999942,,,,,178.86784199999965,178.88287619999937,179.08337099999972,179.0671414999997,178.0051113999998,,,,,,,,1,1,0.8593043999999281,None,,,,,,,,885,21,M,R,2026-02-18_12h12.51.811,VisualSearch_2526_3,,2025.2.4,2026-02-18 12h12.52.009513 +0100,
vertical.xlsx,The target is tilted.,135,29,5,3,0,1,1,1,1,1,1,1,0,0,0,0,1,7,8,135,space,14.877360200000112,None,0,1,2.4173688999999285,None,space,6.237265200000365,None,0,0,0,1,,,,,3,5,29,5,179.08337099999972,,,,,,,,,,,,,,,,,,,,,179.06789889999982,179.08337099999972,179.56693389999964,179.5715554999997,179.58294569999998,182.0158247999998,,,,,182.01605370000016,182.03143240000009,182.23194239999975,182.21572239999932,179.58294569999998,,,,,,,,0,1,2.4173688999999285,None,,,,,,,,885,21,M,R,2026-02-18_12h12.51.811,VisualSearch_2526_3,,2025.2.4,2026-02-18 12h12.52.009513 +0100,
vertical.xlsx,The target is tilted.,135,30,6,3,0,1,1,1,1,1,1,1,1,1,1,1,1,11,12,135,space,14.877360200000112,None,0,1,1.9345814999996946,None,space,6.237265200000365,None,0,0,0,1,,,,,3,6,30,4,182.23194239999975,,,,,,,,,,,,,,,,,,,,,182.21648969999933,182.23194239999975,182.71546089999993,182.7203215999998,182.73151979999966,184.68127300000015,,,,,184.6815063999993,184.69691629999943,184.89708489999975,184.88123619999988,182.73151979999966,,,,,,,,0,1,1.9345814999996946,None,,,,,,,,885,21,M,R,2026-02-18_12h12.51.811,VisualSearch_2526_3,,2025.2.4,2026-02-18 12h12.52.009513 +0100,
vertical.xlsx,The target is tilted.,135,31,7,3,1,1,1,1,0,0,0,0,0,0,0,0,0,3,4,135,space,14.877360200000112,None,1,1,0.7763857999998436,None,space,6.237265200000365,None,0,0,0,1,,,,,3,7,31,2,184.89708489999975,,,,,,,,,,,,,,,,,,,,,184.8820821999998,184.89708489999975,185.38022739999997,185.38303039999937,185.39681909999945,186.18126080000002,,,,,186.18145670000013,186.1962671000001,186.39670249999926,186.38016459999926,185.39681909999945,,,,,,,,1,1,0.7763857999998436,None,,,,,,,,885,21,M,R,2026-02-18_12h12.51.811,VisualSearch_2526_3,,2025.2.4,2026-02-18 12h12.52.009513 +0100,
vertical.xlsx,The target is tilted.,135,32,0,4,1,1,1,1,1,1,1,1,1,1,1,1,0,11,12,135,space,14.877360200000112,None,1,1,0.8780559999995603,None,space,6.237265200000365,None,0,0,0,1,,,,,4,0,32,0,186.39670249999926,,,,,,,,,,,,,,,,,,,,,186.38089219999983,186.39670249999926,186.88040360000014,186.88518419999946,186.89640899999995,187.78037809999933,,,,,187.78059669999948,187.7954912999994,187.99610109999958,187.9799095999997,186.89640899999995,,,,,,,,1,1,0.8780559999995603,None,,,,,,,,885,21,M,R,2026-02-18_12h12.51.811,VisualSearch_2526_3,,2025.2.4,2026-02-18 12h12.52.009513 +0100,
vertical.xlsx,The target is tilted.,135,33,1,4,0,1,1,1,1,1,1,1,0,0,0,0,1,7,8,135,space,14.877360200000112,None,0,1,1.3166979999996329,None,space,6.237265200000365,None,0,0,0,1,,,,,4,1,33,5,187.99610109999958,,,,,,,,,,,,,,,,,,,,,187.98063869999987,187.99610109999958,188.47950140000012,188.48446999999942,188.49967469999956,189.82891930000005,,,,,189.82913049999934,189.84454469999946,190.0449912999993,190.02888749999966,188.49967469999956,,,,,,,,0,1,1.3166979999996329,None,,,,,,,,885,21,M,R,2026-02-18_12h12.51.811,VisualSearch_2526_3,,2025.2.4,2026-02-18 12h12.52.009513 +0100,
vertical.xlsx,The target is tilted.,135,34,2,4,1,1,1,1,1,1,1,1,0,0,0,0,0,7,8,135,space,14.877360200000112,None,1,1,1.5096856999998636,None,space,6.237265200000365,None,0,0,0,1,,,,,4,2,34,1,190.0449912999993,,,,,,,,,,,,,,,,,,,,,190.02964339999926,190.0449912999993,190.52861399999983,190.53336630000013,190.54476049999994,192.06162119999954,,,,,192.06225629999972,192.0768995999997,192.27697259999968,192.2612012999998,190.54476049999994,,,,,,,,1,1,1.5096856999998636,None,,,,,,,,885,21,M,R,2026-02-18_12h12.51.811,VisualSearch_2526_3,,2025.2.4,2026-02-18 12h12.52.009513 +0100,
vertical.xlsx,The target is tilted.,135,35,3,4,0,1,1,1,0,0,0,0,0,0,0,0,1,3,4,135,space,14.877360200000112,None,0,1,0.6602852000005441,None,space,6.237265200000365,None,0,0,0,1,,,,,4,3,35,6,192.27697259999968,,,,,,,,,,,,,,,,,,,,,192.26202379999995,192.27697259999968,192.76074530000005,192.7656210999994,192.77874239999983,193.44427319999977,,,,,193.44443729999966,193.45953550000013,193.66001139999935,193.64400429999932,192.77874239999983,,,,,,,,0,1,0.6602852000005441,None,,,,,,,,885,21,M,R,2026-02-18_12h12.51.811,VisualSearch_2526_3,,2025.2.4,2026-02-18 12h12.52.009513 +0100,
vertical.xlsx,The target is tilted.,135,36,4,4,0,1,1,1,1,1,1,1,1,1,1,1,1,11,12,135,space,14.877360200000112,None,0,1,2.5974443000004612,None,space,6.237265200000365,None,0,0,0,1,,,,,4,4,36,4,193.66001139999935,,,,,,,,,,,,,,,,,,,,,193.64472589999968,193.66001139999935,194.14354279999952,194.1485245999993,194.16360170000007,196.77535399999942,,,,,196.77549499999986,196.79180180000003,196.99191819999942,196.97573959999954,194.16360170000007,,,,,,,,0,1,2.5974443000004612,None,,,,,,,,885,21,M,R,2026-02-18_12h12.51.811,VisualSearch_2526_3,,2025.2.4,2026-02-18 12h12.52.009513 +0100,
vertical.xlsx,The target is tilted.,135,37,5,4,1,0,0,0,0,0,0,0,0,0,0,0,0,0,1,135,space,14.877360200000112,None,1,1,0.4492356999999174,None,space,6.237265200000365,None,0,0,0,1,,,,,4,5,37,3,196.99191819999942,,,,,,,,,,,,,,,,,,,,,196.97649459999957,196.99191819999942,197.47550469999987,197.48047270000006,197.49419510000007,197.95884389999992,,,,,197.95904539999992,197.9741484999995,198.17477259999941,198.15856989999975,197.49419510000007,,,,,,,,1,1,0.4492356999999174,None,,,,,,,,885,21,M,R,2026-02-18_12h12.51.811,VisualSearch_2526_3,,2025.2.4,2026-02-18 12h12.52.009513 +0100,
vertical.xlsx,The target is tilted.,135,38,6,4,1,1,1,1,0,0,0,0,0,0,0,0,0,3,4,135,space,14.877360200000112,None,1,1,0.7391686000000846,None,space,6.237265200000365,None,0,0,0,1,,,,,4,6,38,2,198.17477259999941,,,,,,,,,,,,,,,,,,,,,198.15936879999936,198.17477259999941,198.6581471999998,198.6630338999994,198.67687999999998,199.4252018999996,,,,,199.4254035999993,199.44019639999988,199.64067559999967,199.62461540000004,198.67687999999998,,,,,,,,1,1,0.7391686000000846,None,,,,,,,,885,21,M,R,2026-02-18_12h12.51.811,VisualSearch_2526_3,,2025.2.4,2026-02-18 12h12.52.009513 +0100,
vertical.xlsx,The target is tilted.,135,39,7,4,0,0,0,0,0,0,0,0,0,0,0,0,1,1,1,135,space,14.877360200000112,None,0,1,0.4778667000000496,None,space,6.237265200000365,None,0,0,0,1,,,,,4,7,39,7,199.64067559999967,,,,,,,,,,,,,,,,,,,,,199.62544589999925,199.64067559999967,200.1242911999998,200.12914739999997,200.14542600000004,200.62450949999948,,,,,200.62472849999995,200.63954999999987,200.84018849999939,200.8238956999994,200.14542600000004,,,,,,,,0,1,0.4778667000000496,None,,,,,,,,885,21,M,R,2026-02-18_12h12.51.811,VisualSearch_2526_3,,2025.2.4,2026-02-18 12h12.52.009513 +0100,
vertical.xlsx,The target is tilted.,135,40,0,5,1,0,0,0,0,0,0,0,0,0,0,0,0,0,1,135,space,14.877360200000112,None,1,1,0.6519555999993827,None,space,6.237265200000365,None,0,0,0,1,,,,,5,0,40,3,200.84018849999939,,,,,,,,,,,,,,,,,,,,,200.82468419999987,200.84018849999939,201.32376149999982,201.32859139999982,201.34326099999998,202.00626680000005,,,,,202.0063798000001,202.02262249999967,202.22276299999976,202.20666689999962,201.34326099999998,,,,,,,,1,1,0.6519555999993827,None,,,,,,,,885,21,M,R,2026-02-18_12h12.51.811,VisualSearch_2526_3,,2025.2.4,2026-02-18 12h12.52.009513 +0100,
vertical.xlsx,The target is tilted.,135,41,1,5,0,1,1,1,1,1,1,1,0,0,0,0,1,7,8,135,space,14.877360200000112,None,0,1,2.01758400000017,None,space,6.237265200000365,None,0,0,0,1,,,,,5,1,41,5,202.22276299999976,,,,,,,,,,,,,,,,,,,,,202.20740959999966,202.22276299999976,202.70614879999994,202.7109305999993,202.7266509000001,204.75617340000008,,,,,204.7563726999997,204.7711491,204.9713617999996,204.95549419999952,202.7266509000001,,,,,,,,0,1,2.01758400000017,None,,,,,,,,885,21,M,R,2026-02-18_12h12.51.811,VisualSearch_2526_3,,2025.2.4,2026-02-18 12h12.52.009513 +0100,
vertical.xlsx,The target is tilted.,135,42,2,5,1,1,1,1,1,1,1,1,1,1,1,1,0,11,12,135,space,14.877360200000112,None,1,1,0.8399648000004163,None,space,6.237265200000365,None,0,0,0,1,,,,,5,2,42,0,204.9713617999996,,,,,,,,,,,,,,,,,,,,,204.9562277999994,204.9713617999996,205.4554881999993,205.4604273999994,205.47565309999936,206.32212230000005,,,,,206.32231919999958,206.33711929999936,206.53727219999928,206.5214489,205.47565309999936,,,,,,,,1,1,0.8399648000004163,None,,,,,,,,885,21,M,R,2026-02-18_12h12.51.811,VisualSearch_2526_3,,2025.2.4,2026-02-18 12h12.52.009513 +0100,
vertical.xlsx,The target is tilted.,135,43,3,5,0,1,1,1,1,1,1,1,1,1,1,1,1,11,12,135,space,14.877360200000112,None,0,1,2.895576699999765,None,space,6.237265200000365,None,0,0,0,1,,,,,5,3,43,4,206.53727219999928,,,,,,,,,,,,,,,,,,,,,206.5221864999994,206.53727219999928,207.02120509999986,207.02610499999992,207.0419564999993,209.95263889999933,,,,,209.95277009999973,209.9691613999994,,210.1529015999995,207.0419564999993,,,,,,,,0,1,2.895576699999765,None,,,,,,,,885,21,M,R,2026-02-18_12h12.51.811,VisualSearch_2526_3,,2025.2.4,2026-02-18 12h12.52.009513 +0100,
vertical.xlsx,The target is tilted.,135,44,4,5,1,1,1,1,1,1,1,1,0,0,0,0,0,7,8,135,space,14.877360200000112,None,1,1,1.40577950000079,None,space,6.237265200000365,None,0,0,0,1,,,,,5,4,44,1,210.16923049999968,,,,,,,,,,,,,,,,,,,,,210.1537430999997,210.16923049999968,210.65289789999952,210.65778950000004,210.67372439999963,212.0861404999996,,,,,212.0863419999996,212.10104739999952,212.3012579999995,212.28546740000002,210.67372439999963,,,,,,,,1,1,1.40577950000079,None,,,,,,,,885,21,M,R,2026-02-18_12h12.51.811,VisualSearch_2526_3,,2025.2.4,2026-02-18 12h12.52.009513 +0100,
vertical.xlsx,The target is tilted.,135,45,5,5,1,1,1,1,0,0,0,0,0,0,0,0,0,3,4,135,space,14.877360200000112,None,0,0,0.9737224000000424,None,space,6.237265200000365,None,0,0,0,1,,,,,5,5,45,2,212.3012579999995,,,,,,,,,,,,,,,,,,,,,212.2862212,212.3012579999995,212.7852796999996,212.79027919999953,212.80602109999927,213.7853752000001,,,,,213.78557779999937,213.8003861999996,214.00046930000008,213.9846766999999,212.80602109999927,,,,,,,,0,0,0.9737224000000424,None,,,,,,,,885,21,M,R,2026-02-18_12h12.51.811,VisualSearch_2526_3,,2025.2.4,2026-02-18 12h12.52.009513 +0100,
vertical.xlsx,The target is tilted.,135,46,6,5,0,1,1,1,0,0,0,0,0,0,0,0,1,3,4,135,space,14.877360200000112,None,0,1,0.6260222000000795,None,space,6.237265200000365,None,0,0,0,1,,,,,5,6,46,6,214.00046930000008,,,,,,,,,,,,,,,,,,,,,213.9854274999998,214.00046930000008,214.48448849999932,214.48954109999977,214.5036769999997,215.13463150000007,,,,,215.1348395999994,215.1497921,215.35003439999946,215.3338447999995,214.5036769999997,,,,,,,,0,1,0.6260222000000795,None,,,,,,,,885,21,M,R,2026-02-18_12h12.51.811,VisualSearch_2526_3,,2025.2.4,2026-02-18 12h12.52.009513 +0100,
vertical.xlsx,The target is tilted.,135,47,7,5,0,0,0,0,0,0,0,0,0,0,0,0,1,1,1,135,space,14.877360200000112,None,0,1,0.5520273000001907,None,space,6.237265200000365,None,0,0,0,1,,,,,5,7,47,7,215.35003439999946,,,,,,,,,,,,,,,,,,,,,215.33457459999954,215.35003439999946,215.83389420000003,215.83885049999935,215.8533886999994,216.41647000000012,,,,,216.41660839999986,216.4325091999999,216.6329724999996,216.61695220000001,215.8533886999994,,,,,,,,0,1,0.5520273000001907,None,,,,,,,,885,21,M,R,2026-02-18_12h12.51.811,VisualSearch_2526_3,,2025.2.4,2026-02-18 12h12.52.009513 +0100,
vertical.xlsx,The target is tilted.,135,48,0,6,0,1,1,1,1,1,1,1,0,0,0,0,1,7,8,135,space,14.877360200000112,None,0,1,1.7189579999994749,None,space,6.237265200000365,None,0,0,0,1,,,,,6,0,48,5,216.6329724999996,,,,,,,,,,,,,,,,,,,,,216.61775679999937,216.6329724999996,217.1166508999995,217.12145119999968,217.13680990000012,218.8659878999997,,,,,218.86612650000006,218.881351,219.08190549999927,219.06588980000015,217.13680990000012,,,,,,,,0,1,1.7189579999994749,None,,,,,,,,885,21,M,R,2026-02-18_12h12.51.811,VisualSearch_2526_3,,2025.2.4,2026-02-18 12h12.52.009513 +0100,
vertical.xlsx,The target is tilted.,135,49,1,6,0,1,1,1,1,1,1,1,1,1,1,1,1,11,12,135,space,14.877360200000112,None,0,1,1.8917590999999447,None,space,6.237265200000365,None,0,0,0,1,,,,,6,1,49,4,219.08190549999927,,,,,,,,,,,,,,,,,,,,,219.06664850000016,219.08190549999927,219.5654568,219.5700694999996,219.58148660000006,221.48189479999928,,,,,221.4820940999998,221.49677470000006,221.6969810999999,221.68110379999962,219.58148660000006,,,,,,,,0,1,1.8917590999999447,None,,,,,,,,885,21,M,R,2026-02-18_12h12.51.811,VisualSearch_2526_3,,2025.2.4,2026-02-18 12h12.52.009513 +0100,
vertical.xlsx,The target is tilted.,135,50,2,6,1,1,1,1,0,0,0,0,0,0,0,0,0,3,4,135,space,14.877360200000112,None,0,0,1.306402899999739,None,space,6.237265200000365,None,0,0,0,1,,,,,6,2,50,2,221.6969810999999,,,,,,,,,,,,,,,,,,,,,221.68185730000005,221.6969810999999,222.18086849999963,222.18573000000015,222.20163539999976,223.5134419999995,,,,,223.51353179999933,223.52907549999964,223.7293768999998,223.71326039999985,222.20163539999976,,,,,,,,0,0,1.306402899999739,None,,,,,,,,885,21,M,R,2026-02-18_12h12.51.811,VisualSearch_2526_3,,2025.2.4,2026-02-18 12h12.52.009513 +0100,
vertical.xlsx,The target is tilted.,135,51,3,6,0,1,1,1,0,0,0,0,0,0,0,0,1,3,4,135,space,14.877360200000112,None,0,1,1.097045600000456,None,space,6.237265200000365,None,0,0,0,1,,,,,6,3,51,6,223.7293768999998,,,,,,,,,,,,,,,,,,,,,223.7139714999994,223.7293768999998,224.21304839999993,224.21795589999965,224.23499319999974,225.34604359999958,,,,,225.34622390000004,225.36182860000008,225.56220029999986,225.54587759999959,224.23499319999974,,,,,,,,0,1,1.097045600000456,None,,,,,,,,885,21,M,R,2026-02-18_12h12.51.811,VisualSearch_2526_3,,2025.2.4,2026-02-18 12h12.52.009513 +0100,
vertical.xlsx,The target is tilted.,135,52,4,6,1,0,0,0,0,0,0,0,0,0,0,0,0,0,1,135,space,14.877360200000112,None,1,1,0.627658700000211,None,space,6.237265200000365,None,0,0,0,1,,,,,6,4,52,3,225.56220029999986,,,,,,,,,,,,,,,,,,,,,225.54660449999938,225.56220029999986,226.04588859999967,226.05076259999987,226.06542939999963,226.69633470000008,,,,,226.69656979999945,226.7112505999994,226.91170590000002,226.8954890999994,226.06542939999963,,,,,,,,1,1,0.627658700000211,None,,,,,,,,885,21,M,R,2026-02-18_12h12.51.811,VisualSearch_2526_3,,2025.2.4,2026-02-18 12h12.52.009513 +0100,
vertical.xlsx,The target is tilted.,135,53,5,6,1,1,1,1,1,1,1,1,0,0,0,0,0,7,8,135,space,14.877360200000112,None,1,1,0.7912255999999616,None,space,6.237265200000365,None,0,0,0,1,,,,,6,5,53,1,226.91170590000002,,,,,,,,,,,,,,,,,,,,,226.89624619999995,226.91170590000002,227.39532770000005,227.40020969999932,227.41592949999995,228.21183649999966,,,,,228.21201429999928,228.22722239999985,228.42759409999962,228.41150209999978,227.41592949999995,,,,,,,,1,1,0.7912255999999616,None,,,,,,,,885,21,M,R,2026-02-18_12h12.51.811,VisualSearch_2526_3,,2025.2.4,2026-02-18 12h12.52.009513 +0100,
vertical.xlsx,The target is tilted.,135,54,6,6,1,1,1,1,1,1,1,1,1,1,1,1,0,11,12,135,space,14.877360200000112,None,1,1,0.9048315000000002,None,space,6.237265200000365,None,0,0,0,1,,,,,6,6,54,0,228.42759409999962,,,,,,,,,,,,,,,,,,,,,228.4123136999997,228.42759409999962,228.9112602999994,228.9159528,228.9267837999996,229.84369049999987,,,,,229.8438499999993,229.85973749999994,230.06017399999928,230.04386449999947,228.9267837999996,,,,,,,,1,1,0.9048315000000002,None,,,,,,,,885,21,M,R,2026-02-18_12h12.51.811,VisualSearch_2526_3,,2025.2.4,2026-02-18 12h12.52.009513 +0100,
vertical.xlsx,The target is tilted.,135,55,7,6,0,0,0,0,0,0,0,0,0,0,0,0,1,1,1,135,space,14.877360200000112,None,0,1,0.6160345999996935,None,space,6.237265200000365,None,0,0,0,1,,,,,6,7,55,7,230.06017399999928,,,,,,,,,,,,,,,,,,,,,230.04439049999928,230.06017399999928,230.54395509999995,230.54886269999952,230.56510040000012,231.19306929999948,,,,,231.1932057999993,231.20910719999938,231.4095768999996,231.39349979999952,230.56510040000012,,,,,,,,0,1,0.6160345999996935,None,,,,,,,,885,21,M,R,2026-02-18_12h12.51.811,VisualSearch_2526_3,,2025.2.4,2026-02-18 12h12.52.009513 +0100,
vertical.xlsx,The target is tilted.,135,56,0,7,0,1,1,1,1,1,1,1,1,1,1,1,1,11,12,135,space,14.877360200000112,None,0,1,2.321720699999787,None,space,6.237265200000365,None,0,0,0,1,,,,,7,0,56,4,231.4095768999996,,,,,,,,,,,,,,,,,,,,,231.39423869999973,231.4095768999996,231.89336240000011,231.89839279999978,231.9130666000001,234.24277809999967,,,,,234.24297619999925,234.25778509999964,234.45818580000014,234.4421738000001,231.9130666000001,,,,,,,,0,1,2.321720699999787,None,,,,,,,,885,21,M,R,2026-02-18_12h12.51.811,VisualSearch_2526_3,,2025.2.4,2026-02-18 12h12.52.009513 +0100,
vertical.xlsx,The target is tilted.,135,57,1,7,0,1,1,1,1,1,1,1,0,0,0,0,1,7,8,135,space,14.877360200000112,None,0,1,1.6453195000003689,None,space,6.237265200000365,None,0,0,0,1,,,,,7,1,57,5,234.45818580000014,,,,,,,,,,,,,,,,,,,,,234.44300219999968,234.45818580000014,234.94124089999968,234.94347639999978,234.9577601000001,236.6083079,,,,,236.60852439999962,236.6233929,236.8238639000001,236.80745839999963,234.9577601000001,,,,,,,,0,1,1.6453195000003689,None,,,,,,,,885,21,M,R,2026-02-18_12h12.51.811,VisualSearch_2526_3,,2025.2.4,2026-02-18 12h12.52.009513 +0100,
vertical.xlsx,The target is tilted.,135,58,2,7,1,1,1,1,1,1,1,1,1,1,1,1,0,11,12,135,space,14.877360200000112,None,1,1,2.286516300000585,None,space,6.237265200000365,None,0,0,0,1,,,,,7,2,58,0,236.8238639000001,,,,,,,,,,,,,,,,,,,,,236.80825399999958,236.8238639000001,237.30735069999992,237.3121688000001,237.32726360000015,239.62301339999976,,,,,239.62315559999934,239.63858149999942,239.83911629999966,239.82307339999988,237.32726360000015,,,,,,,,1,1,2.286516300000585,None,,,,,,,,885,21,M,R,2026-02-18_12h12.51.811,VisualSearch_2526_3,,2025.2.4,2026-02-18 12h12.52.009513 +0100,
vertical.xlsx,The target is tilted.,135,59,3,7,1,1,1,1,1,1,1,1,0,0,0,0,0,7,8,135,space,14.877360200000112,None,1,1,1.0729111000000557,None,space,6.237265200000365,None,0,0,0,1,,,,,7,3,59,1,239.83911629999966,,,,,,,,,,,,,,,,,,,,,239.8238156999996,239.83911629999966,240.3227797999998,240.32771779999985,240.34173009999995,241.42291399999976,,,,,241.4231136999997,241.43788529999983,241.6382549,241.62200870000015,240.34173009999995,,,,,,,,1,1,1.0729111000000557,None,,,,,,,,885,21,M,R,2026-02-18_12h12.51.811,VisualSearch_2526_3,,2025.2.4,2026-02-18 12h12.52.009513 +0100,
vertical.xlsx,The target is tilted.,135,60,4,7,1,1,1,1,0,0,0,0,0,0,0,0,0,3,4,135,space,14.877360200000112,None,1,1,0.6417350000001534,None,space,6.237265200000365,None,0,0,0,1,,,,,7,4,60,2,241.6382549,,,,,,,,,,,,,,,,,,,,,241.62275649999992,241.6382549,242.12192119999963,242.1267954999994,242.1419339999993,242.7886426999994,,,,,242.78878759999952,242.80393529999947,243.00399329999982,242.9878576000001,242.1419339999993,,,,,,,,1,1,0.6417350000001534,None,,,,,,,,885,21,M,R,2026-02-18_12h12.51.811,VisualSearch_2526_3,,2025.2.4,2026-02-18 12h12.52.009513 +0100,
vertical.xlsx,The target is tilted.,135,61,5,7,0,0,0,0,0,0,0,0,0,0,0,0,1,1,1,135,space,14.877360200000112,None,0,1,0.558484999999564,None,space,6.237265200000365,None,0,0,0,1,,,,,7,5,61,7,243.00399329999982,,,,,,,,,,,,,,,,,,,,,242.9886431999994,243.00399329999982,243.48764609999944,243.49276969999937,243.50781339999958,244.0722956999998,,,,,244.0724884000001,244.0866920999997,244.2867540999996,244.27095049999934,243.50781339999958,,,,,,,,0,1,0.558484999999564,None,,,,,,,,885,21,M,R,2026-02-18_12h12.51.811,VisualSearch_2526_3,,2025.2.4,2026-02-18 12h12.52.009513 +0100,
vertical.xlsx,The target is tilted.,135,62,6,7,0,1,1,1,0,0,0,0,0,0,0,0,1,3,4,135,space,14.877360200000112,None,0,1,1.212632499999927,None,space,6.237265200000365,None,0,0,0,1,,,,,7,6,62,6,244.2867540999996,,,,,,,,,,,,,,,,,,,,,244.2717058999997,244.2867540999996,244.77103499999976,244.77572899999996,244.7867867999994,246.00410829999964,,,,,246.00437859999965,246.01926259999982,246.21952039999996,246.20350529999996,244.7867867999994,,,,,,,,0,1,1.212632499999927,None,,,,,,,,885,21,M,R,2026-02-18_12h12.51.811,VisualSearch_2526_3,,2025.2.4,2026-02-18 12h12.52.009513 +0100,
vertical.xlsx,The target is tilted.,135,63,7,7,1,0,0,0,0,0,0,0,0,0,0,0,0,0,1,135,space,14.877360200000112,None,1,1,0.6556758000006084,None,space,6.237265200000365,None,0,0,0,1,,,,,7,7,63,3,246.21952039999996,,,,,,,,,,,,,,,,,,,,,246.2043438999999,246.21952039999996,246.7032180999995,246.7081752999993,246.72169399999984,247.38681739999993,,,,,247.38701369999944,247.4018204999993,247.60212449999926,247.58616769999935,246.72169399999984,,,,,,,,1,1,0.6556758000006084,None,,,,,,,,885,21,M,R,2026-02-18_12h12.51.811,VisualSearch_2526_3,,2025.2.4,2026-02-18 12h12.52.009513 +0100,
vertical.xlsx,The target is tilted.,135,64,0,8,1,0,0,0,0,0,0,0,0,0,0,0,0,0,1,135,space,14.877360200000112,None,1,1,0.786975099999836,None,space,6.237265200000365,None,0,0,0,1,,,,,8,0,64,3,247.60212449999926,,,,,,,,,,,,,,,,,,,,,247.5868885,247.60212449999926,248.08595869999954,248.0909633000001,248.10712869999952,248.9026834999995,,,,,248.90286229999947,248.9177925999993,249.11821340000006,249.10205589999987,248.10712869999952,,,,,,,,1,1,0.786975099999836,None,,,,,,,,885,21,M,R,2026-02-18_12h12.51.811,VisualSearch_2526_3,,2025.2.4,2026-02-18 12h12.52.009513 +0100,
vertical.xlsx,The target is tilted.,135,65,1,8,0,1,1,1,1,1,1,1,0,0,0,0,1,7,8,135,space,14.877360200000112,None,0,1,1.8525095000004512,None,space,6.237265200000365,None,0,0,0,1,,,,,8,1,65,5,249.11821340000006,,,,,,,,,,,,,,,,,,,,,249.1028212000001,249.11821340000006,249.60195620000013,249.60682329999963,249.62240529999963,251.4849623,,,,,251.4851635999994,251.49999369999932,251.70037419999971,251.68426659999932,249.62240529999963,,,,,,,,0,1,1.8525095000004512,None,,,,,,,,885,21,M,R,2026-02-18_12h12.51.811,VisualSearch_2526_3,,2025.2.4,2026-02-18 12h12.52.009513 +0100,
vertical.xlsx,The target is tilted.,135,66,2,8,0,0,0,0,0,0,0,0,0,0,0,0,1,1,1,135,space,14.877360200000112,None,0,1,0.5079352000002473,None,space,6.237265200000365,None,0,0,0,1,,,,,8,2,66,7,251.70037419999971,,,,,,,,,,,,,,,,,,,,,251.68502420000004,251.70037419999971,252.18414649999977,252.18924949999928,252.20004009999957,252.71728799999983,,,,,252.71742499999982,252.7327005999996,252.93324570000004,252.91712219999954,252.20004009999957,,,,,,,,0,1,0.5079352000002473,None,,,,,,,,885,21,M,R,2026-02-18_12h12.51.811,VisualSearch_2526_3,,2025.2.4,2026-02-18 12h12.52.009513 +0100,
vertical.xlsx,The target is tilted.,135,67,3,8,1,1,1,1,1,1,1,1,0,0,0,0,0,7,8,135,space,14.877360200000112,None,1,1,1.1894411000002947,None,space,6.237265200000365,None,0,0,0,1,,,,,8,3,67,1,252.93324570000004,,,,,,,,,,,,,,,,,,,,,252.91789759999938,252.93324570000004,253.4168538999993,253.42166949999955,253.43690309999965,254.6330656,,,,,254.63320380000005,254.6484279999995,254.84878329999992,254.83279549999952,253.43690309999965,,,,,,,,1,1,1.1894411000002947,None,,,,,,,,885,21,M,R,2026-02-18_12h12.51.811,VisualSearch_2526_3,,2025.2.4,2026-02-18 12h12.52.009513 +0100,
vertical.xlsx,The target is tilted.,135,68,4,8,0,1,1,1,0,0,0,0,0,0,0,0,1,3,4,135,space,14.877360200000112,None,0,1,0.66466919999948,None,space,6.237265200000365,None,0,0,0,1,,,,,8,4,68,6,254.84878329999992,,,,,,,,,,,,,,,,,,,,,254.83358709999993,254.84878329999992,255.3326532000001,255.33755659999952,255.35274279999976,256.03178669999943,,,,,256.0318661000001,256.0476437999996,256.2483075,256.2318910999993,255.35274279999976,,,,,,,,0,1,0.66466919999948,None,,,,,,,,885,21,M,R,2026-02-18_12h12.51.811,VisualSearch_2526_3,,2025.2.4,2026-02-18 12h12.52.009513 +0100,
vertical.xlsx,The target is tilted.,135,69,5,8,1,1,1,1,0,0,0,0,0,0,0,0,0,3,4,135,space,14.877360200000112,None,1,1,0.9583353999996689,None,space,6.237265200000365,None,0,0,0,1,,,,,8,5,69,2,256.2483075,,,,,,,,,,,,,,,,,,,,,256.23263869999937,256.2483075,256.7319689999995,256.73691340000005,256.75136159999965,257.71487949999937,,,,,257.7150249999995,257.73025289999987,257.9310134999996,257.9147714999999,256.75136159999965,,,,,,,,1,1,0.9583353999996689,None,,,,,,,,885,21,M,R,2026-02-18_12h12.51.811,VisualSearch_2526_3,,2025.2.4,2026-02-18 12h12.52.009513 +0100,
vertical.xlsx,The target is tilted.,135,70,6,8,1,1,1,1,1,1,1,1,1,1,1,1,0,11,12,135,space,14.877360200000112,None,1,1,1.1793136999995113,None,space,6.237265200000365,None,0,0,0,1,,,,,8,6,70,0,257.9310134999996,,,,,,,,,,,,,,,,,,,,,257.9155327999997,257.9310134999996,258.4146538999994,258.41955569999936,258.4357055999999,259.6301875999998,,,,,259.63032139999996,259.6462342999994,259.84666089999973,259.8305722999994,258.4357055999999,,,,,,,,1,1,1.1793136999995113,None,,,,,,,,885,21,M,R,2026-02-18_12h12.51.811,VisualSearch_2526_3,,2025.2.4,2026-02-18 12h12.52.009513 +0100,
vertical.xlsx,The target is tilted.,135,71,7,8,0,1,1,1,1,1,1,1,1,1,1,1,1,11,12,135,space,14.877360200000112,None,0,1,2.085766899999726,None,space,6.237265200000365,None,0,0,0,1,,,,,8,7,71,4,259.84666089999973,,,,,,,,,,,,,,,,,,,,,259.8313109999999,259.84666089999973,260.3305408999995,260.33528599999954,260.35363359999974,262.44634979999955,,,,,262.44654159999936,262.4616956,262.66223029999946,262.6461706,260.35363359999974,,,,,,,,0,1,2.085766899999726,None,,,,,,,,885,21,M,R,2026-02-18_12h12.51.811,VisualSearch_2526_3,,2025.2.4,2026-02-18 12h12.52.009513 +0100,
vertical.xlsx,The target is tilted.,135,72,0,9,0,1,1,1,0,0,0,0,0,0,0,0,1,3,4,135,space,14.877360200000112,None,0,1,0.7168146000003617,None,space,6.237265200000365,None,0,0,0,1,,,,,9,0,72,6,262.66223029999946,,,,,,,,,,,,,,,,,,,,,262.64699669999936,262.66223029999946,263.14581999999973,263.15067199999976,263.1662962999999,263.89496079999935,,,,,263.89509439999983,263.91092949999984,264.1114521999998,264.0949922,263.1662962999999,,,,,,,,0,1,0.7168146000003617,None,,,,,,,,885,21,M,R,2026-02-18_12h12.51.811,VisualSearch_2526_3,,2025.2.4,2026-02-18 12h12.52.009513 +0100,
vertical.xlsx,The target is tilted.,135,73,1,9,1,1,1,1,1,1,1,1,0,0,0,0,0,7,8,135,space,14.877360200000112,None,1,1,1.3455477000006795,None,space,6.237265200000365,None,0,0,0,1,,,,,9,1,73,1,264.1114521999998,,,,,,,,,,,,,,,,,,,,,264.0957450999995,264.1114521999998,264.5951441999996,264.59997639999983,264.6156860000001,265.9777282999994,,,,,265.9779497999998,265.9933903000001,266.19387499999993,266.1775619,264.6156860000001,,,,,,,,1,1,1.3455477000006795,None,,,,,,,,885,21,M,R,2026-02-18_12h12.51.811,VisualSearch_2526_3,,2025.2.4,2026-02-18 12h12.52.009513 +0100,
vertical.xlsx,The target is tilted.,135,74,2,9,1,1,1,1,0,0,0,0,0,0,0,0,0,3,4,135,space,14.877360200000112,None,1,1,0.6272398999999496,None,space,6.237265200000365,None,0,0,0,1,,,,,9,2,74,2,266.19387499999993,,,,,,,,,,,,,,,,,,,,,266.1783446999998,266.19387499999993,266.6774319999995,266.6822508999994,266.6972804999996,267.32775349999974,,,,,267.32793539999966,267.34282299999995,267.5432314999998,267.52708559999974,266.6972804999996,,,,,,,,1,1,0.6272398999999496,None,,,,,,,,885,21,M,R,2026-02-18_12h12.51.811,VisualSearch_2526_3,,2025.2.4,2026-02-18 12h12.52.009513 +0100,
vertical.xlsx,The target is tilted.,135,75,3,9,1,0,0,0,0,0,0,0,0,0,0,0,0,0,1,135,space,14.877360200000112,None,1,1,0.700864399999773,None,space,6.237265200000365,None,0,0,0,1,,,,,9,3,75,3,267.5432314999998,,,,,,,,,,,,,,,,,,,,,267.5278733999994,267.5432314999998,268.02681239999947,268.0315995000001,268.04522459999953,268.76018250000016,,,,,268.7603528999998,268.77536939999936,268.97551399999975,268.95999849999953,268.04522459999953,,,,,,,,1,1,0.700864399999773,None,,,,,,,,885,21,M,R,2026-02-18_12h12.51.811,VisualSearch_2526_3,,2025.2.4,2026-02-18 12h12.52.009513 +0100,
vertical.xlsx,The target is tilted.,135,76,4,9,0,1,1,1,1,1,1,1,1,1,1,1,1,11,12,135,space,14.877360200000112,None,0,1,3.100350300000173,None,space,6.237265200000365,None,0,0,0,1,,,,,9,4,76,4,268.97551399999975,,,,,,,,,,,,,,,,,,,,,268.9607081999993,268.97551399999975,269.4592453999994,269.4640512999995,269.48146219999944,272.5907016000001,,,,,272.5907822999998,272.6068175999999,272.8067424000001,272.79027059999953,269.48146219999944,,,,,,,,0,1,3.100350300000173,None,,,,,,,,885,21,M,R,2026-02-18_12h12.51.811,VisualSearch_2526_3,,2025.2.4,2026-02-18 12h12.52.009513 +0100,
vertical.xlsx,The target is tilted.,135,77,5,9,0,1,1,1,1,1,1,1,0,0,0,0,1,7,8,135,space,14.877360200000112,None,0,1,1.5363643000000593,None,space,6.237265200000365,None,0,0,0,1,,,,,9,5,77,5,272.8067424000001,,,,,,,,,,,,,,,,,,,,,272.79050629999983,272.8067424000001,273.29007229999934,273.2918676999998,273.3065968000001,274.8566363,,,,,274.85676759999933,274.8726821,,275.05696629999966,273.3065968000001,,,,,,,,0,1,1.5363643000000593,None,,,,,,,,885,21,M,R,2026-02-18_12h12.51.811,VisualSearch_2526_3,,2025.2.4,2026-02-18 12h12.52.009513 +0100,
vertical.xlsx,The target is tilted.,135,78,6,9,0,0,0,0,0,0,0,0,0,0,0,0,1,1,1,135,space,14.877360200000112,None,0,1,0.7584329999999682,None,space,6.237265200000365,None,0,0,0,1,,,,,9,6,78,7,275.0732668999999,,,,,,,,,,,,,,,,,,,,,275.0579097,275.0732668999999,275.5570584999996,275.56256140000005,275.57829559999936,276.33999459999995,,,,,276.3401862999999,276.3554058999998,276.5559585000001,276.53984820000005,275.57829559999936,,,,,,,,0,1,0.7584329999999682,None,,,,,,,,885,21,M,R,2026-02-18_12h12.51.811,VisualSearch_2526_3,,2025.2.4,2026-02-18 12h12.52.009513 +0100,
vertical.xlsx,The target is tilted.,135,79,7,9,1,1,1,1,1,1,1,1,1,1,1,1,0,11,12,135,space,14.877360200000112,None,1,1,1.7658520999993925,None,space,6.237265200000365,None,0,0,0,1,,,,,9,7,79,0,276.5559585000001,,,,,,,,,,,,,,,,,,,,,276.5406598999998,276.5559585000001,277.03958929999953,277.0450596999999,277.06237299999975,278.8386934,,,,,278.83882619999986,278.85423939999964,279.05453899999975,279.03769809999994,277.06237299999975,,,,,,,,1,1,1.7658520999993925,None,,,,,,,,885,21,M,R,2026-02-18_12h12.51.811,VisualSearch_2526_3,,2025.2.4,2026-02-18 12h12.52.009513 +0100,
vertical.xlsx,The target is tilted.,135,80,0,10,1,1,1,1,0,0,0,0,0,0,0,0,0,3,4,135,space,14.877360200000112,None,1,1,0.7501600000005055,None,space,6.237265200000365,None,0,0,0,1,,,,,10,0,80,2,279.05453899999975,,,,,,,,,,,,,,,,,,,,,279.0380876999998,279.05453899999975,279.53824559999975,279.54313289999936,279.55846029999975,280.3212036999994,,,,,280.3214395999994,280.3368461,280.5370748999994,280.5211111999997,279.55846029999975,,,,,,,,1,1,0.7501600000005055,None,,,,,,,,885,21,M,R,2026-02-18_12h12.51.811,VisualSearch_2526_3,,2025.2.4,2026-02-18 12h12.52.009513 +0100,
vertical.xlsx,The target is tilted.,135,81,1,10,0,1,1,1,0,0,0,0,0,0,0,0,1,3,4,135,space,14.877360200000112,None,0,1,1.1558008000001792,None,space,6.237265200000365,None,0,0,0,1,,,,,10,1,81,6,280.5370748999994,,,,,,,,,,,,,,,,,,,,,280.5219307999996,280.5370748999994,281.0208600999995,281.0256995,281.0391144999994,282.20441440000013,,,,,282.2046037,282.21935510000003,282.4197667999997,282.4036397,281.0391144999994,,,,,,,,0,1,1.1558008000001792,None,,,,,,,,885,21,M,R,2026-02-18_12h12.51.811,VisualSearch_2526_3,,2025.2.4,2026-02-18 12h12.52.009513 +0100,
vertical.xlsx,The target is tilted.,135,82,2,10,0,1,1,1,1,1,1,1,1,1,1,1,1,11,12,135,space,14.877360200000112,None,0,1,1.959844200000589,None,space,6.237265200000365,None,0,0,0,1,,,,,10,2,82,4,282.4197667999997,,,,,,,,,,,,,,,,,,,,,282.4044355999995,282.4197667999997,282.9033697999994,282.90827139999965,282.9239254999993,284.88601629999994,,,,,284.88614830000006,284.90143219999936,285.10155869999926,285.08589440000014,282.9239254999993,,,,,,,,0,1,1.959844200000589,None,,,,,,,,885,21,M,R,2026-02-18_12h12.51.811,VisualSearch_2526_3,,2025.2.4,2026-02-18 12h12.52.009513 +0100,
vertical.xlsx,The target is tilted.,135,83,3,10,0,1,1,1,1,1,1,1,0,0,0,0,1,7,8,135,space,14.877360200000112,None,0,1,1.3819142000002103,None,space,6.237265200000365,None,0,0,0,1,,,,,10,3,83,5,285.10155869999926,,,,,,,,,,,,,,,,,,,,,285.0866157999999,285.10155869999926,285.5856082999999,285.59040579999964,285.60313099999985,287.00115469999946,,,,,287.00128929999937,287.0171629999995,287.2175935999994,287.2015963999993,285.60313099999985,,,,,,,,0,1,1.3819142000002103,None,,,,,,,,885,21,M,R,2026-02-18_12h12.51.811,VisualSearch_2526_3,,2025.2.4,2026-02-18 12h12.52.009513 +0100,
vertical.xlsx,The target is tilted.,135,84,4,10,1,1,1,1,1,1,1,1,1,1,1,1,0,11,12,135,space,14.877360200000112,None,1,1,1.0114074000002802,None,space,6.237265200000365,None,0,0,0,1,,,,,10,4,84,0,287.2175935999994,,,,,,,,,,,,,,,,,,,,,287.20243010000013,287.2175935999994,287.70134869999947,287.7061042999994,287.7199424999999,288.73422690000007,,,,,288.73435040000004,288.75013919999947,288.9499793999994,288.9342324999998,287.7199424999999,,,,,,,,1,1,1.0114074000002802,None,,,,,,,,885,21,M,R,2026-02-18_12h12.51.811,VisualSearch_2526_3,,2025.2.4,2026-02-18 12h12.52.009513 +0100,
vertical.xlsx,The target is tilted.,135,85,5,10,1,0,0,0,0,0,0,0,0,0,0,0,0,0,1,135,space,14.877360200000112,None,1,1,0.6152555999997276,None,space,6.237265200000365,None,0,0,0,1,,,,,10,5,85,3,288.9499793999994,,,,,,,,,,,,,,,,,,,,,288.9350647000001,288.9499793999994,289.4340333,289.43896399999994,289.4539543000001,290.0837413999998,,,,,290.08387700000003,290.09952599999997,290.2987588999995,290.2823224999993,289.4539543000001,,,,,,,,1,1,0.6152555999997276,None,,,,,,,,885,21,M,R,2026-02-18_12h12.51.811,VisualSearch_2526_3,,2025.2.4,2026-02-18 12h12.52.009513 +0100,
vertical.xlsx,The target is tilted.,135,86,6,10,1,1,1,1,1,1,1,1,0,0,0,0,0,7,8,135,space,14.877360200000112,None,1,1,1.4533684999996694,None,space,6.237265200000365,None,0,0,0,1,,,,,10,6,86,1,290.2987588999995,,,,,,,,,,,,,,,,,,,,,290.28265099999953,290.2987588999995,290.7834122999993,290.7880795000001,290.79916649999996,292.2656533999998,,,,,292.2657558000001,292.2817248000001,292.4820065999993,292.4660027,290.79916649999996,,,,,,,,1,1,1.4533684999996694,None,,,,,,,,885,21,M,R,2026-02-18_12h12.51.811,VisualSearch_2526_3,,2025.2.4,2026-02-18 12h12.52.009513 +0100,
vertical.xlsx,The target is tilted.,135,87,7,10,0,0,0,0,0,0,0,0,0,0,0,0,1,1,1,135,space,14.877360200000112,None,0,1,0.5572001999998974,None,space,6.237265200000365,None,0,0,0,1,,,,,10,7,87,7,292.4820065999993,,,,,,,,,,,,,,,,,,,,,292.46679849999964,292.4820065999993,292.9657038999994,292.97122899999977,292.9869232000001,293.5496097999994,,,,,293.54982369999925,293.56472459999986,293.76411389999976,293.74867339999946,292.9869232000001,,,,,,,,0,1,0.5572001999998974,None,,,,,,,,885,21,M,R,2026-02-18_12h12.51.811,VisualSearch_2526_3,,2025.2.4,2026-02-18 12h12.52.009513 +0100,
vertical.xlsx,The target is tilted.,135,88,0,11,1,1,1,1,1,1,1,1,0,0,0,0,0,7,8,135,space,14.877360200000112,None,1,1,1.5634634999996706,None,space,6.237265200000365,None,0,0,0,1,,,,,11,0,88,1,293.76411389999976,,,,,,,,,,,,,,,,,,,,,293.7494794999993,293.76411389999976,294.24829059999956,294.25380700000005,294.26931109999987,295.8480896000001,,,,,295.84830729999976,295.8637246999997,296.06372029999966,296.0476314999996,294.26931109999987,,,,,,,,1,1,1.5634634999996706,None,,,,,,,,885,21,M,R,2026-02-18_12h12.51.811,VisualSearch_2526_3,,2025.2.4,2026-02-18 12h12.52.009513 +0100,
vertical.xlsx,The target is tilted.,135,89,1,11,0,0,0,0,0,0,0,0,0,0,0,0,1,1,1,135,space,14.877360200000112,None,0,1,1.177375199999915,None,space,6.237265200000365,None,0,0,0,1,,,,,11,1,89,7,296.06372029999966,,,,,,,,,,,,,,,,,,,,,296.0484465999998,296.06372029999966,296.5475183999997,296.55301359999976,296.5676687999994,297.74687559999984,,,,,297.7470118000001,297.7625019999996,297.9627738999998,297.9467644999995,296.5676687999994,,,,,,,,0,1,1.177375199999915,None,,,,,,,,885,21,M,R,2026-02-18_12h12.51.811,VisualSearch_2526_3,,2025.2.4,2026-02-18 12h12.52.009513 +0100,
vertical.xlsx,The target is tilted.,135,90,2,11,0,1,1,1,0,0,0,0,0,0,0,0,1,3,4,135,space,14.877360200000112,None,0,1,1.3154682999993383,None,space,6.237265200000365,None,0,0,0,1,,,,,11,2,90,6,297.9627738999998,,,,,,,,,,,,,,,,,,,,,297.94748900000013,297.9627738999998,298.4463655999998,298.4511671,298.4661185999994,299.7962276999997,,,,,299.79642590000003,299.81185339999956,300.0116412999996,299.99571299999934,298.4661185999994,,,,,,,,0,1,1.3154682999993383,None,,,,,,,,885,21,M,R,2026-02-18_12h12.51.811,VisualSearch_2526_3,,2025.2.4,2026-02-18 12h12.52.009513 +0100,
vertical.xlsx,The target is tilted.,135,91,3,11,1,1,1,1,1,1,1,1,1,1,1,1,0,11,12,135,space,14.877360200000112,None,1,1,1.3074254000002838,None,space,6.237265200000365,None,0,0,0,1,,,,,11,3,91,0,300.0116412999996,,,,,,,,,,,,,,,,,,,,,299.9965033999997,300.0116412999996,300.495621,300.5012216999994,300.5144309999996,301.8286909999997,,,,,301.82888529999946,301.84431009999935,302.04409249999935,302.02764899999966,300.5144309999996,,,,,,,,1,1,1.3074254000002838,None,,,,,,,,885,21,M,R,2026-02-18_12h12.51.811,VisualSearch_2526_3,,2025.2.4,2026-02-18 12h12.52.009513 +0100,
vertical.xlsx,The target is tilted.,135,92,4,11,0,1,1,1,1,1,1,1,0,0,0,0,1,7,8,135,space,14.877360200000112,None,0,1,1.6966451999996934,None,space,6.237265200000365,None,0,0,0,1,,,,,11,4,92,5,302.04409249999935,,,,,,,,,,,,,,,,,,,,,302.0280407,302.04409249999935,302.5277161999993,302.53282260000015,302.5481155999996,304.2610380999995,,,,,304.2612306000001,304.2765967999994,304.4764043999994,304.4603124999994,302.5481155999996,,,,,,,,0,1,1.6966451999996934,None,,,,,,,,885,21,M,R,2026-02-18_12h12.51.811,VisualSearch_2526_3,,2025.2.4,2026-02-18 12h12.52.009513 +0100,
vertical.xlsx,The target is tilted.,135,93,5,11,0,1,1,1,1,1,1,1,1,1,1,1,1,11,12,135,space,14.877360200000112,None,0,1,2.262985700000172,None,space,6.237265200000365,None,0,0,0,1,,,,,11,5,93,4,304.4764043999994,,,,,,,,,,,,,,,,,,,,,304.4610754999994,304.4764043999994,304.9600838999995,304.9648735999999,304.9795718999994,307.25891989999946,,,,,307.25900769999953,307.27497589999984,307.4746347999999,307.4586257000001,304.9795718999994,,,,,,,,0,1,2.262985700000172,None,,,,,,,,885,21,M,R,2026-02-18_12h12.51.811,VisualSearch_2526_3,,2025.2.4,2026-02-18 12h12.52.009513 +0100,
vertical.xlsx,The target is tilted.,135,94,6,11,1,1,1,1,0,0,0,0,0,0,0,0,0,3,4,135,space,14.877360200000112,None,1,1,0.703852900000129,None,space,6.237265200000365,None,0,0,0,1,,,,,11,6,94,2,307.4746347999999,,,,,,,,,,,,,,,,,,,,,307.4593611999999,307.4746347999999,307.9576215999996,307.9592856999998,307.97417099999984,308.6920186999996,,,,,308.6921941999999,308.7076182999999,308.90713849999975,308.8909008999999,307.97417099999984,,,,,,,,1,1,0.703852900000129,None,,,,,,,,885,21,M,R,2026-02-18_12h12.51.811,VisualSearch_2526_3,,2025.2.4,2026-02-18 12h12.52.009513 +0100,
vertical.xlsx,The target is tilted.,135,95,7,11,1,0,0,0,0,0,0,0,0,0,0,0,0,0,1,135,space,14.877360200000112,None,0,0,0.5839098999995258,None,space,6.237265200000365,None,0,0,0,1,,,,,11,7,95,3,308.90713849999975,,,,,,,,,,,,,,,,,,,,,308.8911644,308.90713849999975,309.39103109999996,309.3964307999995,309.41141770000013,310.0079350999995,,,,,310.0080715999993,310.0238443999997,310.2240185999999,310.20762549999927,309.41141770000013,,,,,,,,0,0,0.5839098999995258,None,,,,,,,,885,21,M,R,2026-02-18_12h12.51.811,VisualSearch_2526_3,,2025.2.4,2026-02-18 12h12.52.009513 +0100,
vertical.xlsx,The target is tilted.,135,96,0,12,1,0,0,0,0,0,0,0,0,0,0,0,0,0,1,135,space,14.877360200000112,None,1,1,0.647729100000106,None,space,6.237265200000365,None,0,0,0,1,,,,,12,0,96,3,310.2240185999999,,,,,,,,,,,,,,,,,,,,,310.2084970999995,310.2240185999999,310.70762829999967,310.71258039999975,310.7235267999995,311.37455169999976,,,,,311.3747932999995,311.3899375000001,311.589978,311.5737234999997,310.7235267999995,,,,,,,,1,1,0.647729100000106,None,,,,,,,,885,21,M,R,2026-02-18_12h12.51.811,VisualSearch_2526_3,,2025.2.4,2026-02-18 12h12.52.009513 +0100,
vertical.xlsx,The target is tilted.,135,97,1,12,0,1,1,1,1,1,1,1,0,0,0,0,1,7,8,135,space,14.877360200000112,None,0,1,1.6853090999993583,None,space,6.237265200000365,None,0,0,0,1,,,,,12,1,97,5,311.589978,,,,,,,,,,,,,,,,,,,,,311.5745809,311.589978,312.07344920000014,312.0786785,312.08959929999946,313.7900962999993,,,,,313.79029029999947,313.80521339999996,314.00535200000013,313.9892467999998,312.08959929999946,,,,,,,,0,1,1.6853090999993583,None,,,,,,,,885,21,M,R,2026-02-18_12h12.51.811,VisualSearch_2526_3,,2025.2.4,2026-02-18 12h12.52.009513 +0100,
vertical.xlsx,The target is tilted.,135,98,2,12,0,1,1,1,0,0,0,0,0,0,0,0,1,3,4,135,space,14.877360200000112,None,0,1,0.8079408000003241,None,space,6.237265200000365,None,0,0,0,1,,,,,12,2,98,6,314.00535200000013,,,,,,,,,,,,,,,,,,,,,313.9899988999996,314.00535200000013,314.48920389999967,314.49388499999986,314.5051875999998,315.32230999999956,,,,,315.3225042999993,315.33780509999997,315.5381007999995,315.5221924999996,314.5051875999998,,,,,,,,0,1,0.8079408000003241,None,,,,,,,,885,21,M,R,2026-02-18_12h12.51.811,VisualSearch_2526_3,,2025.2.4,2026-02-18 12h12.52.009513 +0100,
vertical.xlsx,The target is tilted.,135,99,3,12,1,1,1,1,1,1,1,1,0,0,0,0,0,7,8,135,space,14.877360200000112,None,1,1,0.9123359000004712,None,space,6.237265200000365,None,0,0,0,1,,,,,12,3,99,1,315.5381007999995,,,,,,,,,,,,,,,,,,,,,315.5229916999997,315.5381007999995,316.02135910000015,316.0241628999993,316.0376962999999,316.9551204999998,,,,,316.95532749999984,316.9707392999999,317.17065039999943,317.1544023999995,316.0376962999999,,,,,,,,1,1,0.9123359000004712,None,,,,,,,,885,21,M,R,2026-02-18_12h12.51.811,VisualSearch_2526_3,,2025.2.4,2026-02-18 12h12.52.009513 +0100,
vertical.xlsx,The target is tilted.,135,100,4,12,1,1,1,1,1,1,1,1,1,1,1,1,0,11,12,135,space,14.877360200000112,None,1,1,1.4342733000003136,None,space,6.237265200000365,None,0,0,0,1,,,,,12,4,100,0,317.17065039999943,,,,,,,,,,,,,,,,,,,,,317.15515069999947,317.17065039999943,317.6545265999994,317.6601366999994,317.6742414,319.12096239999937,,,,,319.12115659999927,319.1363999999994,319.33642059999966,319.3199526999997,317.6742414,,,,,,,,1,1,1.4342733000003136,None,,,,,,,,885,21,M,R,2026-02-18_12h12.51.811,VisualSearch_2526_3,,2025.2.4,2026-02-18 12h12.52.009513 +0100,
vertical.xlsx,The target is tilted.,135,101,5,12,0,1,1,1,1,1,1,1,1,1,1,1,1,11,12,135,space,14.877360200000112,None,0,1,2.911417700000129,None,space,6.237265200000365,None,0,0,0,1,,,,,12,5,101,4,319.33642059999966,,,,,,,,,,,,,,,,,,,,,319.3206946999999,319.33642059999966,319.8202496999993,319.8252358999998,319.83604749999995,322.7525244999997,,,,,322.7527322999995,322.7681070999997,322.9681045999996,322.95215459999963,319.83604749999995,,,,,,,,0,1,2.911417700000129,None,,,,,,,,885,21,M,R,2026-02-18_12h12.51.811,VisualSearch_2526_3,,2025.2.4,2026-02-18 12h12.52.009513 +0100,
vertical.xlsx,The target is tilted.,135,102,6,12,0,0,0,0,0,0,0,0,0,0,0,0,1,1,1,135,space,14.877360200000112,None,0,1,0.7356697000004715,None,space,6.237265200000365,None,0,0,0,1,,,,,12,6,102,7,322.9681045999996,,,,,,,,,,,,,,,,,,,,,322.9530036999995,322.9681045999996,323.4514073,323.45612549999987,323.4675234999995,324.21781219999957,,,,,324.2179649999998,324.23405920000005,324.43412179999996,324.41763939999964,323.4675234999995,,,,,,,,0,1,0.7356697000004715,None,,,,,,,,885,21,M,R,2026-02-18_12h12.51.811,VisualSearch_2526_3,,2025.2.4,2026-02-18 12h12.52.009513 +0100,
vertical.xlsx,The target is tilted.,135,103,7,12,1,1,1,1,0,0,0,0,0,0,0,0,0,3,4,135,space,14.877360200000112,None,1,1,0.9508853000006638,None,space,6.237265200000365,None,0,0,0,1,,,,,12,7,103,2,324.43412179999996,,,,,,,,,,,,,,,,,,,,,324.4183766999995,324.43412179999996,324.91763959999935,324.9234990999994,324.9380702999997,325.9007901999994,,,,,325.9009219999998,325.9163676999997,326.1167138999999,326.10056110000005,324.9380702999997,,,,,,,,1,1,0.9508853000006638,None,,,,,,,,885,21,M,R,2026-02-18_12h12.51.811,VisualSearch_2526_3,,2025.2.4,2026-02-18 12h12.52.009513 +0100,
vertical.xlsx,The target is tilted.,135,104,0,13,0,0,0,0,0,0,0,0,0,0,0,0,1,1,1,135,space,14.877360200000112,None,0,1,0.8733809999994264,None,space,6.237265200000365,None,0,0,0,1,,,,,13,0,104,7,326.1167138999999,,,,,,,,,,,,,,,,,,,,,326.1012781999998,326.1167138999999,326.6002905999994,326.6051441999998,326.61786699999993,327.50045559999944,,,,,327.5006478999994,327.5159109999995,327.7158435000001,327.69996509999964,326.61786699999993,,,,,,,,0,1,0.8733809999994264,None,,,,,,,,885,21,M,R,2026-02-18_12h12.51.811,VisualSearch_2526_3,,2025.2.4,2026-02-18 12h12.52.009513 +0100,
vertical.xlsx,The target is tilted.,135,105,1,13,0,1,1,1,1,1,1,1,1,1,1,1,1,11,12,135,space,14.877360200000112,None,0,1,3.0212754999993194,None,space,6.237265200000365,None,0,0,0,1,,,,,13,1,105,4,327.7158435000001,,,,,,,,,,,,,,,,,,,,,327.7007587999997,327.7158435000001,328.1995449999995,328.2044251999996,328.21892260000004,331.24864530000013,,,,,331.2488528999993,331.26422550000007,331.46428229999947,331.4479634999998,328.21892260000004,,,,,,,,0,1,3.0212754999993194,None,,,,,,,,885,21,M,R,2026-02-18_12h12.51.811,VisualSearch_2526_3,,2025.2.4,2026-02-18 12h12.52.009513 +0100,
vertical.xlsx,The target is tilted.,135,106,2,13,1,1,1,1,1,1,1,1,0,0,0,0,0,7,8,135,space,14.877360200000112,None,1,1,0.8694929000002958,None,space,6.237265200000365,None,0,0,0,1,,,,,13,2,106,1,331.46428229999947,,,,,,,,,,,,,,,,,,,,,331.4488019999999,331.46428229999947,331.9475532999995,331.9523442999998,331.9674933999995,332.84755640000003,,,,,332.8476906999995,332.86303789999965,333.0635803999994,333.04755079999995,331.9674933999995,,,,,,,,1,1,0.8694929000002958,None,,,,,,,,885,21,M,R,2026-02-18_12h12.51.811,VisualSearch_2526_3,,2025.2.4,2026-02-18 12h12.52.009513 +0100,
vertical.xlsx,The target is tilted.,135,107,3,13,1,1,1,1,1,1,1,1,1,1,1,1,0,11,12,135,space,14.877360200000112,None,1,1,0.9551128000002791,None,space,6.237265200000365,None,0,0,0,1,,,,,13,3,107,0,333.0635803999994,,,,,,,,,,,,,,,,,,,,,333.04832239999996,333.0635803999994,333.54734409999946,333.55242180000005,333.56738640000003,334.5301194999993,,,,,334.5302799000001,334.5459700000001,334.74611490000007,334.72954260000006,333.56738640000003,,,,,,,,1,1,0.9551128000002791,None,,,,,,,,885,21,M,R,2026-02-18_12h12.51.811,VisualSearch_2526_3,,2025.2.4,2026-02-18 12h12.52.009513 +0100,
vertical.xlsx,The target is tilted.,135,108,4,13,0,1,1,1,0,0,0,0,0,0,0,0,1,3,4,135,space,14.877360200000112,None,0,1,0.8453374999999141,None,space,6.237265200000365,None,0,0,0,1,,,,,13,4,108,6,334.74611490000007,,,,,,,,,,,,,,,,,,,,,334.73027249999996,334.74611490000007,335.2296355999997,335.23443849999967,335.2506693999994,336.1132176000001,,,,,336.11341469999934,336.12872199999947,336.3286756999996,336.3124846999999,335.2506693999994,,,,,,,,0,1,0.8453374999999141,None,,,,,,,,885,21,M,R,2026-02-18_12h12.51.811,VisualSearch_2526_3,,2025.2.4,2026-02-18 12h12.52.009513 +0100,
vertical.xlsx,The target is tilted.,135,109,5,13,1,0,0,0,0,0,0,0,0,0,0,0,0,0,1,135,space,14.877360200000112,None,1,1,0.7055407000007108,None,space,6.237265200000365,None,0,0,0,1,,,,,13,5,109,3,336.3286756999996,,,,,,,,,,,,,,,,,,,,,336.31328869999925,336.3286756999996,336.8123323,336.8171191000001,336.82959329999994,337.54558029999953,,,,,337.5457271999994,337.56159359999947,337.76144679999925,337.74542219999967,336.82959329999994,,,,,,,,1,1,0.7055407000007108,None,,,,,,,,885,21,M,R,2026-02-18_12h12.51.811,VisualSearch_2526_3,,2025.2.4,2026-02-18 12h12.52.009513 +0100,
vertical.xlsx,The target is tilted.,135,110,6,13,0,1,1,1,1,1,1,1,0,0,0,0,1,7,8,135,space,14.877360200000112,None,0,1,2.145408700000189,None,space,6.237265200000365,None,0,0,0,1,,,,,13,6,110,5,337.76144679999925,,,,,,,,,,,,,,,,,,,,,337.74623689999953,337.76144679999925,338.2449360999999,338.24971240000013,338.2638182999999,340.41092949999984,,,,,340.41112449999946,340.42678160000014,340.6268317999993,340.6105514000001,338.2638182999999,,,,,,,,0,1,2.145408700000189,None,,,,,,,,885,21,M,R,2026-02-18_12h12.51.811,VisualSearch_2526_3,,2025.2.4,2026-02-18 12h12.52.009513 +0100,
vertical.xlsx,The target is tilted.,135,111,7,13,1,1,1,1,0,0,0,0,0,0,0,0,0,3,4,135,space,14.877360200000112,None,1,1,1.0256543000004967,None,space,6.237265200000365,None,0,0,0,1,,,,,13,7,111,2,340.6268317999993,,,,,,,,,,,,,,,,,,,,,340.61134820000007,340.6268317999993,341.1103132999997,341.1157138999997,341.12906609999936,342.1599706999996,,,,,342.1601233000001,342.1758812999997,342.3759136999997,342.35966239999925,341.12906609999936,,,,,,,,1,1,1.0256543000004967,None,,,,,,,,885,21,M,R,2026-02-18_12h12.51.811,VisualSearch_2526_3,,2025.2.4,2026-02-18 12h12.52.009513 +0100,
vertical.xlsx,The target is tilted.,135,112,0,14,1,1,1,1,0,0,0,0,0,0,0,0,0,3,4,135,space,14.877360200000112,None,1,1,0.8241314999995666,None,space,6.237265200000365,None,0,0,0,1,,,,,14,0,112,2,342.3759136999997,,,,,,,,,,,,,,,,,,,,,342.3603925999996,342.3759136999997,342.8592899999994,342.8640587,342.87856179999926,343.7092226999994,,,,,343.7093728,343.7250712999994,343.9252927999996,343.90909740000006,342.87856179999926,,,,,,,,1,1,0.8241314999995666,None,,,,,,,,885,21,M,R,2026-02-18_12h12.51.811,VisualSearch_2526_3,,2025.2.4,2026-02-18 12h12.52.009513 +0100,
vertical.xlsx,The target is tilted.,135,113,1,14,1,1,1,1,1,1,1,1,1,1,1,1,0,11,12,135,space,14.877360200000112,None,1,1,1.8414882999995825,None,space,6.237265200000365,None,0,0,0,1,,,,,14,1,113,0,343.9252927999996,,,,,,,,,,,,,,,,,,,,,343.90987080000014,343.9252927999996,344.40903609999987,344.41380409999965,344.4283117999994,346.27545980000014,,,,,346.27567369999997,346.2904596999997,346.49080009999943,346.47478019999926,344.4283117999994,,,,,,,,1,1,1.8414882999995825,None,,,,,,,,885,21,M,R,2026-02-18_12h12.51.811,VisualSearch_2526_3,,2025.2.4,2026-02-18 12h12.52.009513 +0100,
vertical.xlsx,The target is tilted.,135,114,2,14,1,1,1,1,1,1,1,1,0,0,0,0,0,7,8,135,space,14.877360200000112,None,1,1,0.9423795000002428,None,space,6.237265200000365,None,0,0,0,1,,,,,14,2,114,1,346.49080009999943,,,,,,,,,,,,,,,,,,,,,346.4755400999993,346.49080009999943,346.97456389999934,346.9797893999994,346.99545339999986,347.9407842999999,,,,,347.94092889999956,347.9565384999996,348.1566825,348.14047609999943,346.99545339999986,,,,,,,,1,1,0.9423795000002428,None,,,,,,,,885,21,M,R,2026-02-18_12h12.51.811,VisualSearch_2526_3,,2025.2.4,2026-02-18 12h12.52.009513 +0100,
vertical.xlsx,The target is tilted.,135,115,3,14,0,1,1,1,1,1,1,1,0,0,0,0,1,7,8,135,space,14.877360200000112,None,0,1,1.8469627000004039,None,space,6.237265200000365,None,0,0,0,1,,,,,14,3,115,5,348.1566825,,,,,,,,,,,,,,,,,,,,,348.1412350999999,348.1566825,348.64031929999965,348.6451922999995,348.6613260999993,350.52337439999974,,,,,350.5235673999996,350.53855269999985,350.73884409999937,350.72289099999944,348.6613260999993,,,,,,,,0,1,1.8469627000004039,None,,,,,,,,885,21,M,R,2026-02-18_12h12.51.811,VisualSearch_2526_3,,2025.2.4,2026-02-18 12h12.52.009513 +0100,
vertical.xlsx,The target is tilted.,135,116,4,14,1,0,0,0,0,0,0,0,0,0,0,0,0,0,1,135,space,14.877360200000112,None,1,1,0.6011390999992727,None,space,6.237265200000365,None,0,0,0,1,,,,,14,4,116,3,350.73884409999937,,,,,,,,,,,,,,,,,,,,,350.72365249999984,350.73884409999937,351.2225953999996,351.22737849999976,351.23839789999965,351.85576089999995,,,,,351.8559144999999,351.8716463999999,352.0715477999993,352.0553374000001,351.23839789999965,,,,,,,,1,1,0.6011390999992727,None,,,,,,,,885,21,M,R,2026-02-18_12h12.51.811,VisualSearch_2526_3,,2025.2.4,2026-02-18 12h12.52.009513 +0100,
vertical.xlsx,The target is tilted.,135,117,5,14,0,1,1,1,1,1,1,1,1,1,1,1,1,11,12,135,space,14.877360200000112,None,0,1,3.0878417000003537,None,space,6.237265200000365,None,0,0,0,1,,,,,14,5,117,4,352.0715477999993,,,,,,,,,,,,,,,,,,,,,352.05609899999945,352.0715477999993,352.55541170000015,352.5605646999993,352.5755169999993,355.6709590999999,,,,,355.6711357999993,355.68659579999985,355.88657609999973,355.8701922,352.5755169999993,,,,,,,,0,1,3.0878417000003537,None,,,,,,,,885,21,M,R,2026-02-18_12h12.51.811,VisualSearch_2526_3,,2025.2.4,2026-02-18 12h12.52.009513 +0100,
vertical.xlsx,The target is tilted.,135,118,6,14,0,1,1,1,0,0,0,0,0,0,0,0,1,3,4,135,space,14.877360200000112,None,0,1,0.9693998999991891,None,space,6.237265200000365,None,0,0,0,1,,,,,14,6,118,6,355.88657609999973,,,,,,,,,,,,,,,,,,,,,355.8710467000001,355.88657609999973,356.3698631999996,356.3741610999996,356.3891960000001,357.3696678999995,,,,,357.3698282999994,357.3857720999995,357.5854854999998,357.56971129999965,356.3891960000001,,,,,,,,0,1,0.9693998999991891,None,,,,,,,,885,21,M,R,2026-02-18_12h12.51.811,VisualSearch_2526_3,,2025.2.4,2026-02-18 12h12.52.009513 +0100,
vertical.xlsx,The target is tilted.,135,119,7,14,0,0,0,0,0,0,0,0,0,0,0,0,1,1,1,135,space,14.877360200000112,None,0,1,0.5588725999996313,None,space,6.237265200000365,None,0,0,0,1,,,,,14,7,119,7,357.5854854999998,,,,,,,,,,,,,,,,,,,,,357.5705460999998,357.5854854999998,358.0694657999993,358.0749686999998,358.0902483,358.6524365999994,,,,,358.6526217999999,358.6683901999995,358.88002400000005,358.8524274000001,358.0902483,,,,,,,,0,1,0.5588725999996313,None,,,,,,,,885,21,M,R,2026-02-18_12h12.51.811,VisualSearch_2526_3,,2025.2.4,2026-02-18 12h12.52.009513 +0100,
vertical.xlsx,The target is tilted.,135,0,0,0,,,,,,,,,,,,,,,,,space,14.877360200000112,None,,,,,space,6.237265200000365,None,0,0,0,1,,,,,,,,,,,,,,,,,,,,,,,,,,,,,,,,,,,,,,,,,,,,,,,,,,,,,,,,,,,,,,,885,21,M,R,2026-02-18_12h12.51.811,VisualSearch_2526_3,,2025.2.4,2026-02-18 12h12.52.009513 +0100,
tilted.xlsx,The target is tilted.,117,0,0,0,1,1,1,1,0,0,0,0,0,0,0,0,0,3,4,117,space,15.064091299999745,None,1,1,0.8448138000003382,None,,,,0,1,1,0,0,0,0,2,,,,,373.9704183999993,,,,,,,,,,,,,,,358.88002400000005,358.88002400000005,358.88002400000005,space,15.064091299999745,None,373.9664739,373.9704183999993,374.4617411999998,374.4666565999996,374.48202669999955,375.32848339999964,1,1,0.8448138000003382,None,375.32868189999954,375.3439991999994,375.544355,375.52781119999963,,,,,,,,,,,,,,,,,,,,885,21,M,R,2026-02-18_12h12.51.811,VisualSearch_2526_3,,2025.2.4,2026-02-18 12h12.52.009513 +0100,
tilted.xlsx,The target is tilted.,117,1,1,0,0,1,1,1,1,1,1,1,0,0,0,0,1,7,8,117,space,15.064091299999745,None,0,1,2.5421365999991394,None,,,,0,1,1,0,0,1,1,5,,,,,375.544355,,,,,,,,,,,,,,,,,,,,,375.52852469999925,375.544355,376.02732409999953,376.02968469999996,376.0438790999997,378.59325029999945,0,1,2.5421365999991394,None,378.5933295999994,378.6093665999997,378.80938759999935,378.79333009999937,376.0438790999997,,,,,,,,,,,,,,,,,,,885,21,M,R,2026-02-18_12h12.51.811,VisualSearch_2526_3,,2025.2.4,2026-02-18 12h12.52.009513 +0100,
tilted.xlsx,The target is tilted.,117,2,2,0,1,1,1,1,1,1,1,1,1,1,1,1,0,11,12,117,space,15.064091299999745,None,1,1,2.9782741999997597,None,,,,0,1,1,0,0,2,2,0,,,,,378.80938759999935,,,,,,,,,,,,,,,,,,,,,378.79403,378.80938759999935,379.2930613999997,379.29785939999965,379.3125350999999,382.29233529999965,1,1,2.9782741999997597,None,382.2925308999993,382.30774609999935,382.5077492999999,382.49186869999994,379.3125350999999,,,,,,,,,,,,,,,,,,,885,21,M,R,2026-02-18_12h12.51.811,VisualSearch_2526_3,,2025.2.4,2026-02-18 12h12.52.009513 +0100,
tilted.xlsx,The target is tilted.,117,3,3,0,0,1,1,1,1,1,1,1,1,1,1,1,1,11,12,117,space,15.064091299999745,None,0,1,3.320178599999963,None,,,,0,1,1,0,0,3,3,4,,,,,382.5077492999999,,,,,,,,,,,,,,,,,,,,,382.4926102999998,382.5077492999999,382.99160459999985,382.9964278999996,383.0115275999997,386.3398563999999,0,1,3.320178599999963,None,386.34001050000006,386.3559226999996,386.5559386999994,386.5397192999999,383.0115275999997,,,,,,,,,,,,,,,,,,,885,21,M,R,2026-02-18_12h12.51.811,VisualSearch_2526_3,,2025.2.4,2026-02-18 12h12.52.009513 +0100,
tilted.xlsx,The target is tilted.,117,4,4,0,1,0,0,0,0,0,0,0,0,0,0,0,0,0,1,117,space,15.064091299999745,None,1,1,0.8268504000006942,None,,,,0,1,1,0,0,4,4,3,,,,,386.5559386999994,,,,,,,,,,,,,,,,,,,,,386.5404588000001,386.5559386999994,387.0389846999997,387.04197419999946,387.05507469999975,387.8891157999997,1,1,0.8268504000006942,None,387.88929949999965,387.9049374999995,388.10522429999946,388.0890234999997,387.05507469999975,,,,,,,,,,,,,,,,,,,885,21,M,R,2026-02-18_12h12.51.811,VisualSearch_2526_3,,2025.2.4,2026-02-18 12h12.52.009513 +0100,
tilted.xlsx,The target is tilted.,117,5,5,0,1,1,1,1,1,1,1,1,0,0,0,0,0,7,8,117,space,15.064091299999745,None,0,0,4.311669200000324,None,,,,0,1,1,0,0,5,5,1,,,,,388.10522429999946,,,,,,,,,,,,,,,,,,,,,388.08977719999984,388.10522429999946,388.5887828999994,388.59354389999953,388.6090257999995,392.93753729999935,0,0,4.311669200000324,None,392.9377227999994,392.9529206999996,393.15299049999976,393.1368281999994,388.6090257999995,,,,,,,,,,,,,,,,,,,885,21,M,R,2026-02-18_12h12.51.811,VisualSearch_2526_3,,2025.2.4,2026-02-18 12h12.52.009513 +0100,
tilted.xlsx,The target is tilted.,117,6,6,0,0,0,0,0,0,0,0,0,0,0,0,0,1,1,1,117,space,15.064091299999745,None,0,1,0.717466200000672,None,,,,0,1,1,0,0,6,6,7,,,,,393.15299049999976,,,,,,,,,,,,,,,,,,,,,393.1375051999994,393.15299049999976,393.6365612999998,393.64134250000006,393.65612689999944,394.3869988999995,0,1,0.717466200000672,None,394.3871752999994,394.40185139999994,394.60223979999955,394.58614599999964,393.65612689999944,,,,,,,,,,,,,,,,,,,885,21,M,R,2026-02-18_12h12.51.811,VisualSearch_2526_3,,2025.2.4,2026-02-18 12h12.52.009513 +0100,
tilted.xlsx,The target is tilted.,117,7,7,0,0,1,1,1,0,0,0,0,0,0,0,0,1,3,4,117,space,15.064091299999745,None,0,1,1.0951446999997643,None,,,,0,1,1,0,0,7,7,6,,,,,394.60223979999955,,,,,,,,,,,,,,,,,,,,,394.5868252,394.60223979999955,395.0855124999998,395.09039179999945,395.10549600000013,396.2024160000001,0,1,1.0951446999997643,None,396.2025834999995,396.2177038,396.4179322,396.4021770999998,395.10549600000013,,,,,,,,,,,,,,,,,,,885,21,M,R,2026-02-18_12h12.51.811,VisualSearch_2526_3,,2025.2.4,2026-02-18 12h12.52.009513 +0100,
tilted.xlsx,The target is tilted.,117,0,0,0,0,1,1,1,1,1,1,1,0,0,0,0,1,7,8,117,space,15.064091299999745,None,0,1,3.680678700000499,None,space,2.363652400000319,None,0,1,1,0,,,,,0,0,0,5,398.8131506,,,,,,,,,,,,,,,,,,,,,398.8092878999996,398.8131506,399.3004661999994,399.3054558999993,399.3215346999996,403.01589650000005,,,,,403.01605070000005,403.03166989999954,403.2316710999994,403.21560079999927,,396.4098516999993,396.4179322,396.4179322,398.7846260999995,space,2.363652400000319,None,0,1,3.680678700000499,None,,,,,,,,885,21,M,R,2026-02-18_12h12.51.811,VisualSearch_2526_3,,2025.2.4,2026-02-18 12h12.52.009513 +0100,
tilted.xlsx,The target is tilted.,117,1,1,0,0,0,0,0,0,0,0,0,0,0,0,0,1,1,1,117,space,15.064091299999745,None,0,1,0.8408126000003904,None,space,2.363652400000319,None,0,1,1,0,,,,,0,1,1,7,403.2316710999994,,,,,,,,,,,,,,,,,,,,,403.2163381999999,403.2316710999994,403.7158823,403.72063159999925,403.73675379999986,404.5817889,,,,,404.5819924999996,404.5975792999998,404.7973699999993,404.78155659999993,403.73675379999986,,,,,,,,0,1,0.8408126000003904,None,,,,,,,,885,21,M,R,2026-02-18_12h12.51.811,VisualSearch_2526_3,,2025.2.4,2026-02-18 12h12.52.009513 +0100,
tilted.xlsx,The target is tilted.,117,2,2,0,1,0,0,0,0,0,0,0,0,0,0,0,0,0,1,117,space,15.064091299999745,None,1,1,0.7340997000001153,None,space,2.363652400000319,None,0,1,1,0,,,,,0,2,2,3,404.7973699999993,,,,,,,,,,,,,,,,,,,,,404.78234749999956,404.7973699999993,405.2813307999995,405.2862679,405.3025020999994,406.0480616999994,,,,,406.04826929999945,406.0635911999998,406.2636901999995,406.24747109999953,405.3025020999994,,,,,,,,1,1,0.7340997000001153,None,,,,,,,,885,21,M,R,2026-02-18_12h12.51.811,VisualSearch_2526_3,,2025.2.4,2026-02-18 12h12.52.009513 +0100,
tilted.xlsx,The target is tilted.,117,3,3,0,1,1,1,1,1,1,1,1,0,0,0,0,0,7,8,117,space,15.064091299999745,None,1,1,1.623001099999783,None,space,2.363652400000319,None,0,1,1,0,,,,,0,3,3,1,406.2636901999995,,,,,,,,,,,,,,,,,,,,,406.24829489999956,406.2636901999995,406.74697190000006,406.75170549999984,406.7668487000001,408.3963168999999,,,,,408.39641069999925,408.4123351999997,408.6125555999997,408.59647889999997,406.7668487000001,,,,,,,,1,1,1.623001099999783,None,,,,,,,,885,21,M,R,2026-02-18_12h12.51.811,VisualSearch_2526_3,,2025.2.4,2026-02-18 12h12.52.009513 +0100,
tilted.xlsx,The target is tilted.,117,4,4,0,0,1,1,1,0,0,0,0,0,0,0,0,1,3,4,117,space,15.064091299999745,None,0,1,1.2773920999998154,None,space,2.363652400000319,None,0,1,1,0,,,,,0,4,4,6,408.6125555999997,,,,,,,,,,,,,,,,,,,,,408.59722950000014,408.6125555999997,409.09593940000013,409.10093529999995,409.1158928999994,410.3961018,,,,,410.39627930000006,410.4116058999998,410.6116914999993,410.59555610000007,409.1158928999994,,,,,,,,0,1,1.2773920999998154,None,,,,,,,,885,21,M,R,2026-02-18_12h12.51.811,VisualSearch_2526_3,,2025.2.4,2026-02-18 12h12.52.009513 +0100,
tilted.xlsx,The target is tilted.,117,5,5,0,0,1,1,1,1,1,1,1,1,1,1,1,1,11,12,117,space,15.064091299999745,None,0,1,3.3169096000001446,None,space,2.363652400000319,None,0,1,1,0,,,,,0,5,5,4,410.6116914999993,,,,,,,,,,,,,,,,,,,,,410.5962936999995,410.6116914999993,411.09560899999997,411.1003499999997,411.1158214999996,414.4443089999995,,,,,414.44448289999946,414.4598619999997,414.65977759999987,414.64335389999997,411.1158214999996,,,,,,,,0,1,3.3169096000001446,None,,,,,,,,885,21,M,R,2026-02-18_12h12.51.811,VisualSearch_2526_3,,2025.2.4,2026-02-18 12h12.52.009513 +0100,
tilted.xlsx,The target is tilted.,117,6,6,0,1,1,1,1,0,0,0,0,0,0,0,0,0,3,4,117,space,15.064091299999745,None,0,0,1.0377518000004784,None,space,2.363652400000319,None,0,1,1,0,,,,,0,6,6,2,414.65977759999987,,,,,,,,,,,,,,,,,,,,,414.6441369999993,414.65977759999987,415.1429610999994,415.14500379999936,415.1593646000001,416.2102476,,,,,416.2104383999995,416.2255336999997,416.4254504999999,416.4098252999993,415.1593646000001,,,,,,,,0,0,1.0377518000004784,None,,,,,,,,885,21,M,R,2026-02-18_12h12.51.811,VisualSearch_2526_3,,2025.2.4,2026-02-18 12h12.52.009513 +0100,
tilted.xlsx,The target is tilted.,117,7,7,0,1,1,1,1,1,1,1,1,1,1,1,1,0,11,12,117,space,15.064091299999745,None,1,1,2.598823700000139,None,space,2.363652400000319,None,0,1,1,0,,,,,0,7,7,0,416.4254504999999,,,,,,,,,,,,,,,,,,,,,416.4106584000001,416.4254504999999,416.90930409999964,416.91417060000003,416.92957469999965,419.5417557999999,,,,,419.5419360999995,419.55746949999957,419.7573832999997,419.74132589999954,416.92957469999965,,,,,,,,1,1,2.598823700000139,None,,,,,,,,885,21,M,R,2026-02-18_12h12.51.811,VisualSearch_2526_3,,2025.2.4,2026-02-18 12h12.52.009513 +0100,
tilted.xlsx,The target is tilted.,117,8,0,1,1,1,1,1,0,0,0,0,0,0,0,0,0,3,4,117,space,15.064091299999745,None,1,1,1.3140895999995337,None,space,2.363652400000319,None,0,1,1,0,,,,,1,0,8,2,419.7573832999997,,,,,,,,,,,,,,,,,,,,,419.7420683,419.7573832999997,420.2411046999996,420.2459082999994,420.2618980999996,421.59069399999953,,,,,421.59085179999965,421.6066643999993,421.8066627999997,421.7904260999994,420.2618980999996,,,,,,,,1,1,1.3140895999995337,None,,,,,,,,885,21,M,R,2026-02-18_12h12.51.811,VisualSearch_2526_3,,2025.2.4,2026-02-18 12h12.52.009513 +0100,
tilted.xlsx,The target is tilted.,117,9,1,1,1,1,1,1,1,1,1,1,1,1,1,1,0,11,12,117,space,15.064091299999745,None,1,1,2.405087099999946,None,space,2.363652400000319,None,0,1,1,0,,,,,1,1,9,0,421.8066627999997,,,,,,,,,,,,,,,,,,,,,421.79123569999956,421.8066627999997,422.2900280999993,422.2954896000001,422.30916979999984,424.72276189999957,,,,,424.7229207999999,424.7385285999999,424.9385578000001,424.92256129999987,422.30916979999984,,,,,,,,1,1,2.405087099999946,None,,,,,,,,885,21,M,R,2026-02-18_12h12.51.811,VisualSearch_2526_3,,2025.2.4,2026-02-18 12h12.52.009513 +0100,
tilted.xlsx,The target is tilted.,117,10,2,1,0,0,0,0,0,0,0,0,0,0,0,0,1,1,1,117,space,15.064091299999745,None,0,1,0.6082175000001371,None,space,2.363652400000319,None,0,1,1,0,,,,,1,2,10,7,424.9385578000001,,,,,,,,,,,,,,,,,,,,,424.92334779999965,424.9385578000001,425.4222691999994,425.4271289999997,425.44257859999925,426.0552613,,,,,426.05541559999983,426.07124849999946,426.2710780999996,426.25514209999983,425.44257859999925,,,,,,,,0,1,0.6082175000001371,None,,,,,,,,885,21,M,R,2026-02-18_12h12.51.811,VisualSearch_2526_3,,2025.2.4,2026-02-18 12h12.52.009513 +0100,
tilted.xlsx,The target is tilted.,117,11,3,1,0,1,1,1,0,0,0,0,0,0,0,0,1,3,4,117,space,15.064091299999745,None,0,1,1.1691154999998616,None,space,2.363652400000319,None,0,1,1,0,,,,,1,3,11,6,426.2710780999996,,,,,,,,,,,,,,,,,,,,,426.25589109999964,426.2710780999996,426.7551691999997,426.76027559999966,426.77558390000013,427.95493739999984,,,,,427.9551328999996,427.9704947,428.1703773999998,428.15450559999954,426.77558390000013,,,,,,,,0,1,1.1691154999998616,None,,,,,,,,885,21,M,R,2026-02-18_12h12.51.811,VisualSearch_2526_3,,2025.2.4,2026-02-18 12h12.52.009513 +0100,
tilted.xlsx,The target is tilted.,117,12,4,1,1,1,1,1,1,1,1,1,0,0,0,0,0,7,8,117,space,15.064091299999745,None,1,1,2.344199000000117,None,space,2.363652400000319,None,0,1,1,0,,,,,1,4,12,1,428.1703773999998,,,,,,,,,,,,,,,,,,,,,428.15523029999986,428.1703773999998,428.6536311,428.6585273999999,428.67314720000013,431.0197516999997,,,,,431.01988269999947,431.0354908999998,431.2357005999993,431.2194645999998,428.67314720000013,,,,,,,,1,1,2.344199000000117,None,,,,,,,,885,21,M,R,2026-02-18_12h12.51.811,VisualSearch_2526_3,,2025.2.4,2026-02-18 12h12.52.009513 +0100,
tilted.xlsx,The target is tilted.,117,13,5,1,0,1,1,1,1,1,1,1,1,1,1,1,1,11,12,117,space,15.064091299999745,None,0,1,3.62221849999969,None,space,2.363652400000319,None,0,1,1,0,,,,,1,5,13,4,431.2357005999993,,,,,,,,,,,,,,,,,,,,,431.22022990000005,431.2357005999993,431.71922689999974,431.7244065999994,431.7385506999999,435.3679873000001,,,,,435.3681775999994,435.3837499000001,435.5833573,435.5671543999997,431.7385506999999,,,,,,,,0,1,3.62221849999969,None,,,,,,,,885,21,M,R,2026-02-18_12h12.51.811,VisualSearch_2526_3,,2025.2.4,2026-02-18 12h12.52.009513 +0100,
tilted.xlsx,The target is tilted.,117,14,6,1,1,0,0,0,0,0,0,0,0,0,0,0,0,0,1,117,space,15.064091299999745,None,1,1,0.6989558999994188,None,space,2.363652400000319,None,0,1,1,0,,,,,1,6,14,3,435.5833573,,,,,,,,,,,,,,,,,,,,,435.5678971999996,435.5833573,436.0674808999993,436.0725730999993,436.0877236999995,436.80060219999996,,,,,436.80081019999943,436.8163451999999,437.0164529999993,437.0002238999996,436.0877236999995,,,,,,,,1,1,0.6989558999994188,None,,,,,,,,885,21,M,R,2026-02-18_12h12.51.811,VisualSearch_2526_3,,2025.2.4,2026-02-18 12h12.52.009513 +0100,
tilted.xlsx,The target is tilted.,117,15,7,1,0,1,1,1,1,1,1,1,0,0,0,0,1,7,8,117,space,15.064091299999745,None,0,1,2.6416365999994014,None,space,2.363652400000319,None,0,1,1,0,,,,,1,7,15,5,437.0164529999993,,,,,,,,,,,,,,,,,,,,,437.0010622,437.0164529999993,437.49972399999933,437.50455539999984,437.51954489999935,440.1654417999998,,,,,440.1655992999995,440.18149110000013,440.38152739999987,440.3655159,437.51954489999935,,,,,,,,0,1,2.6416365999994014,None,,,,,,,,885,21,M,R,2026-02-18_12h12.51.811,VisualSearch_2526_3,,2025.2.4,2026-02-18 12h12.52.009513 +0100,
tilted.xlsx,The target is tilted.,117,16,0,2,1,1,1,1,0,0,0,0,0,0,0,0,0,3,4,117,space,15.064091299999745,None,1,1,0.9529803999994328,None,space,2.363652400000319,None,0,1,1,0,,,,,2,0,16,2,440.38152739999987,,,,,,,,,,,,,,,,,,,,,440.3663332999995,440.38152739999987,440.86525600000004,440.8701371999996,440.8861938,441.84806539999954,,,,,441.8482028999997,441.8639792999993,442.0640905999999,442.0476758999994,440.8861938,,,,,,,,1,1,0.9529803999994328,None,,,,,,,,885,21,M,R,2026-02-18_12h12.51.811,VisualSearch_2526_3,,2025.2.4,2026-02-18 12h12.52.009513 +0100,
tilted.xlsx,The target is tilted.,117,17,1,2,1,1,1,1,1,1,1,1,0,0,0,0,0,7,8,117,space,15.064091299999745,None,1,1,2.1934140000003026,None,space,2.363652400000319,None,0,1,1,0,,,,,2,1,17,1,442.0640905999999,,,,,,,,,,,,,,,,,,,,,442.0484790999999,442.0640905999999,442.54753319999963,442.55238759999975,442.5676384999997,444.7640658999999,,,,,444.7643072999999,444.7794389999999,444.9793936999995,444.9633187999998,442.5676384999997,,,,,,,,1,1,2.1934140000003026,None,,,,,,,,885,21,M,R,2026-02-18_12h12.51.811,VisualSearch_2526_3,,2025.2.4,2026-02-18 12h12.52.009513 +0100,
tilted.xlsx,The target is tilted.,117,18,2,2,0,1,1,1,1,1,1,1,1,1,1,1,1,11,12,117,space,15.064091299999745,None,0,1,3.229440699999941,None,space,2.363652400000319,None,0,1,1,0,,,,,2,2,18,4,444.9793936999995,,,,,,,,,,,,,,,,,,,,,444.9640869999994,444.9793936999995,445.46293389999937,445.4675970999997,445.4790379999995,448.7117954999994,,,,,448.7119898000001,448.72725509999964,448.9276147999999,448.9114409999993,445.4790379999995,,,,,,,,0,1,3.229440699999941,None,,,,,,,,885,21,M,R,2026-02-18_12h12.51.811,VisualSearch_2526_3,,2025.2.4,2026-02-18 12h12.52.009513 +0100,
tilted.xlsx,The target is tilted.,117,19,3,2,0,1,1,1,0,0,0,0,0,0,0,0,1,3,4,117,space,15.064091299999745,None,0,1,1.1856216999995013,None,space,2.363652400000319,None,0,1,1,0,,,,,2,3,19,6,448.9276147999999,,,,,,,,,,,,,,,,,,,,,448.9122422999999,448.9276147999999,449.41132039999957,449.4161162999999,449.4293216999995,450.6274651999993,,,,,450.6276006999997,450.64341669999976,450.8432501999996,450.8275128999994,449.4293216999995,,,,,,,,0,1,1.1856216999995013,None,,,,,,,,885,21,M,R,2026-02-18_12h12.51.811,VisualSearch_2526_3,,2025.2.4,2026-02-18 12h12.52.009513 +0100,
tilted.xlsx,The target is tilted.,117,20,4,2,1,1,1,1,1,1,1,1,1,1,1,1,0,11,12,117,space,15.064091299999745,None,0,0,3.097945299999992,None,space,2.363652400000319,None,0,1,1,0,,,,,2,4,20,0,450.8432501999996,,,,,,,,,,,,,,,,,,,,,450.82841869999993,450.8432501999996,451.3271531999999,451.33187929999985,451.3480056999997,454.45942659999946,,,,,454.4596015999996,454.47504070000014,454.67520069999955,454.6590978999993,451.3480056999997,,,,,,,,0,0,3.097945299999992,None,,,,,,,,885,21,M,R,2026-02-18_12h12.51.811,VisualSearch_2526_3,,2025.2.4,2026-02-18 12h12.52.009513 +0100,
tilted.xlsx,The target is tilted.,117,21,5,2,1,0,0,0,0,0,0,0,0,0,0,0,0,0,1,117,space,15.064091299999745,None,1,1,0.8209477999998853,None,space,2.363652400000319,None,0,1,1,0,,,,,2,5,21,3,454.67520069999955,,,,,,,,,,,,,,,,,,,,,454.6598957999995,454.67520069999955,455.1585955999999,455.1633621000001,455.1781259999998,456.00870380000015,,,,,456.00889709999956,456.0243172999999,456.2243171,456.20813009999983,455.1781259999998,,,,,,,,1,1,0.8209477999998853,None,,,,,,,,885,21,M,R,2026-02-18_12h12.51.811,VisualSearch_2526_3,,2025.2.4,2026-02-18 12h12.52.009513 +0100,
tilted.xlsx,The target is tilted.,117,22,6,2,0,0,0,0,0,0,0,0,0,0,0,0,1,1,1,117,space,15.064091299999745,None,0,1,0.8346541000000798,None,space,2.363652400000319,None,0,1,1,0,,,,,2,6,22,7,456.2243171,,,,,,,,,,,,,,,,,,,,,456.2089417999996,456.2243171,456.7076311999999,456.7124291,456.7275990999997,457.5746865000001,,,,,457.5748567999999,457.59031400000003,457.7902617999998,457.7741471999998,456.7275990999997,,,,,,,,0,1,0.8346541000000798,None,,,,,,,,885,21,M,R,2026-02-18_12h12.51.811,VisualSearch_2526_3,,2025.2.4,2026-02-18 12h12.52.009513 +0100,
tilted.xlsx,The target is tilted.,117,23,7,2,0,1,1,1,1,1,1,1,0,0,0,0,1,7,8,117,space,15.064091299999745,None,0,1,3.6418516000003365,None,space,2.363652400000319,None,0,1,1,0,,,,,2,7,23,5,457.7902617999998,,,,,,,,,,,,,,,,,,,,,457.7749266999999,457.7902617999998,458.27394809999987,458.27881929999967,458.2949082999994,461.9395522999994,,,,,461.9397408999994,461.9546270999999,462.1549783999999,462.13881200000014,458.2949082999994,,,,,,,,0,1,3.6418516000003365,None,,,,,,,,885,21,M,R,2026-02-18_12h12.51.811,VisualSearch_2526_3,,2025.2.4,2026-02-18 12h12.52.009513 +0100,
tilted.xlsx,The target is tilted.,117,24,0,3,1,1,1,1,1,1,1,1,0,0,0,0,0,7,8,117,space,15.064091299999745,None,0,0,2.090531899999405,None,space,2.363652400000319,None,0,1,1,0,,,,,3,0,24,1,462.1549783999999,,,,,,,,,,,,,,,,,,,,,462.1396396,462.1549783999999,462.6383292999999,462.6431388000001,462.65585419999934,464.7553543999993,,,,,464.7555481999998,464.7703412999999,464.9703897999998,464.95425410000007,462.65585419999934,,,,,,,,0,0,2.090531899999405,None,,,,,,,,885,21,M,R,2026-02-18_12h12.51.811,VisualSearch_2526_3,,2025.2.4,2026-02-18 12h12.52.009513 +0100,
tilted.xlsx,The target is tilted.,117,25,1,3,1,1,1,1,0,0,0,0,0,0,0,0,0,3,4,117,space,15.064091299999745,None,1,1,0.9635946999997032,None,space,2.363652400000319,None,0,1,1,0,,,,,3,1,25,2,464.9703897999998,,,,,,,,,,,,,,,,,,,,,464.9550015999994,464.9703897999998,465.4539648,465.45875009999963,465.47396189999927,466.4537591999997,,,,,466.45389259999956,466.46964149999985,466.66956819999996,466.6536060999997,465.47396189999927,,,,,,,,1,1,0.9635946999997032,None,,,,,,,,885,21,M,R,2026-02-18_12h12.51.811,VisualSearch_2526_3,,2025.2.4,2026-02-18 12h12.52.009513 +0100,
tilted.xlsx,The target is tilted.,117,26,2,3,1,0,0,0,0,0,0,0,0,0,0,0,0,0,1,117,space,15.064091299999745,None,1,1,0.571012399999745,None,space,2.363652400000319,None,0,1,1,0,,,,,3,2,26,3,466.66956819999996,,,,,,,,,,,,,,,,,,,,,466.65442619999976,466.66956819999996,467.1534211999997,467.1582914999999,467.1736284999997,467.75351669999964,,,,,467.7537397999995,467.7687145,467.9690598999996,467.9530758000001,467.1736284999997,,,,,,,,1,1,0.571012399999745,None,,,,,,,,885,21,M,R,2026-02-18_12h12.51.811,VisualSearch_2526_3,,2025.2.4,2026-02-18 12h12.52.009513 +0100,
tilted.xlsx,The target is tilted.,117,27,3,3,0,1,1,1,0,0,0,0,0,0,0,0,1,3,4,117,space,15.064091299999745,None,0,1,1.1080830999999307,None,space,2.363652400000319,None,0,1,1,0,,,,,3,3,27,6,467.9690598999996,,,,,,,,,,,,,,,,,,,,,467.95387479999954,467.9690598999996,468.45261669999945,468.45751999999993,468.4723049999993,469.5854296999996,,,,,469.5856006999993,469.6014949999999,469.80101659999946,469.7857641999999,468.4723049999993,,,,,,,,0,1,1.1080830999999307,None,,,,,,,,885,21,M,R,2026-02-18_12h12.51.811,VisualSearch_2526_3,,2025.2.4,2026-02-18 12h12.52.009513 +0100,
tilted.xlsx,The target is tilted.,117,28,4,3,0,0,0,0,0,0,0,0,0,0,0,0,1,1,1,117,space,15.064091299999745,None,0,1,0.6521769999999378,None,space,2.363652400000319,None,0,1,1,0,,,,,3,4,28,7,469.80101659999946,,,,,,,,,,,,,,,,,,,,,469.78657289999956,469.80101659999946,470.2850953999996,470.2898976999995,470.3040968999994,470.9687174999999,,,,,470.9689109000001,470.98426199999994,471.1842760999998,471.1679430999993,470.3040968999994,,,,,,,,0,1,0.6521769999999378,None,,,,,,,,885,21,M,R,2026-02-18_12h12.51.811,VisualSearch_2526_3,,2025.2.4,2026-02-18 12h12.52.009513 +0100,
tilted.xlsx,The target is tilted.,117,29,5,3,0,1,1,1,1,1,1,1,0,0,0,0,1,7,8,117,space,15.064091299999745,None,0,1,3.3373037999999724,None,space,2.363652400000319,None,0,1,1,0,,,,,3,5,29,5,471.1842760999998,,,,,,,,,,,,,,,,,,,,,471.1687820999996,471.1842760999998,471.6675783999999,471.6723708999998,471.6873965999994,475.0335200999998,,,,,475.0337136999997,475.0490874999996,475.24879319999945,475.2327568999999,471.6873965999994,,,,,,,,0,1,3.3373037999999724,None,,,,,,,,885,21,M,R,2026-02-18_12h12.51.811,VisualSearch_2526_3,,2025.2.4,2026-02-18 12h12.52.009513 +0100,
tilted.xlsx,The target is tilted.,117,30,6,3,0,1,1,1,1,1,1,1,1,1,1,1,1,11,12,117,space,15.064091299999745,None,0,1,3.312133999999787,None,space,2.363652400000319,None,0,1,1,0,,,,,3,6,30,4,475.24879319999945,,,,,,,,,,,,,,,,,,,,,475.2334694000001,475.24879319999945,475.73195189999933,475.7347377999995,475.74840069999937,479.0647719999997,,,,,479.06496479999987,479.08062619999964,479.2801568999994,479.2643810999998,475.74840069999937,,,,,,,,0,1,3.312133999999787,None,,,,,,,,885,21,M,R,2026-02-18_12h12.51.811,VisualSearch_2526_3,,2025.2.4,2026-02-18 12h12.52.009513 +0100,
tilted.xlsx,The target is tilted.,117,31,7,3,1,1,1,1,1,1,1,1,1,1,1,1,0,11,12,117,space,15.064091299999745,None,0,0,2.546797500000139,None,space,2.363652400000319,None,0,1,1,0,,,,,3,7,31,0,479.2801568999994,,,,,,,,,,,,,,,,,,,,,479.26515870000003,479.2801568999994,479.7642933999996,479.7691135999994,479.7854123999996,482.3469116999995,,,,,482.3471265999997,482.36243769999965,482.56231279999975,482.5461691999999,479.7854123999996,,,,,,,,0,0,2.546797500000139,None,,,,,,,,885,21,M,R,2026-02-18_12h12.51.811,VisualSearch_2526_3,,2025.2.4,2026-02-18 12h12.52.009513 +0100,
tilted.xlsx,The target is tilted.,117,32,0,4,0,1,1,1,0,0,0,0,0,0,0,0,1,3,4,117,space,15.064091299999745,None,0,1,0.8467092999999295,None,space,2.363652400000319,None,0,1,1,0,,,,,4,0,32,6,482.56231279999975,,,,,,,,,,,,,,,,,,,,,482.54702329999964,482.56231279999975,483.04605699999956,483.0509317999995,483.0665868999995,483.9293510999996,,,,,483.92952519999926,483.94502439999997,484.1450322999999,484.1288012999994,483.0665868999995,,,,,,,,0,1,0.8467092999999295,None,,,,,,,,885,21,M,R,2026-02-18_12h12.51.811,VisualSearch_2526_3,,2025.2.4,2026-02-18 12h12.52.009513 +0100,
tilted.xlsx,The target is tilted.,117,33,1,4,1,1,1,1,1,1,1,1,0,0,0,0,0,7,8,117,space,15.064091299999745,None,1,1,4.408363300000019,None,space,2.363652400000319,None,0,1,1,0,,,,,4,1,33,1,484.1450322999999,,,,,,,,,,,,,,,,,,,,,484.1296033999997,484.1450322999999,484.6286049,484.6334299,484.64832959999967,489.0602980999993,,,,,489.0604938999995,489.07603299999937,489.2760081999995,489.2597640999993,484.64832959999967,,,,,,,,1,1,4.408363300000019,None,,,,,,,,885,21,M,R,2026-02-18_12h12.51.811,VisualSearch_2526_3,,2025.2.4,2026-02-18 12h12.52.009513 +0100,
