file_name,block_instructions,target_example,thisN,thisTrialN,thisRepN,target_presence,opacity_1,opacity_2,opacity_3,opacity_4,opacity_5,opacity_6,opacity_7,opacity_8,opacity_9,opacity_10,opacity_11,opacity_12,n_distract,n_items,target_ori,key_resp_4.keys,key_resp_4.rt,key_resp_4.duration,key_resp.keys,key_resp.corr,key_resp.rt,key_resp.duration,key_resp_5.keys,key_resp_5.rt,key_resp_5.duration,blocks.thisRepN,blocks.thisTrialN,blocks.thisN,blocks.thisIndex,practice_trials.thisRepN,practice_trials.thisTrialN,practice_trials.thisN,practice_trials.thisIndex,trials.thisRepN,trials.thisTrialN,trials.thisN,trials.thisIndex,thisRow.t,notes,Welcome.started,WelcomeText.started,key_resp_2.started,Welcome.stopped,key_resp_2.keys,key_resp_2.rt,key_resp_2.duration,InformedConsent.started,text_4.started,InformedConsent.stopped,key_resp_6.keys,key_resp_6.rt,key_resp_6.duration,key_resp_4.started,example_target.started,text_3.started,blocks.key_resp_4.keys,blocks.key_resp_4.rt,blocks.key_resp_4.duration,FixCross.started,fixCross.started,FixCross.stopped,Stimulus.started,key_resp.started,Stimulus.stopped,practice_trials.key_resp.keys,practice_trials.key_resp.corr,practice_trials.key_resp.rt,practice_trials.key_resp.duration,BlankScreen.started,text.started,text.stopped,BlankScreen.stopped,fixCross.stopped,ExperimentStart.started,text_2.started,key_resp_5.started,ExperimentStart.stopped,blocks.key_resp_5.keys,blocks.key_resp_5.rt,blocks.key_resp_5.duration,trials.key_resp.keys,trials.key_resp.corr,trials.key_resp.rt,trials.key_resp.duration,Thanks.started,ThankYou.started,key_resp_3.started,Thanks.stopped,key_resp_3.keys,key_resp_3.rt,key_resp_3.duration,participant,leeftijd,gender,links/rechtshandig,date,expName,expVersion,psychopyVersion,expStart,
,,,,,,,,,,,,,,,,,,,,,,,,,,,,,,,,,,,,,,,,,,,,,,0.01981530000011844,0.031095400000594964,0.031095400000594964,29.75440880000042,space,29.69855550000011,None,,,,,,,,,,,,,,,,,,,,,,,,,,,,,,,,,,,,,,,,,,,,,,886,22,M,R,2026-02-18_12h28.03.907,VisualSearch_2526_3,,2025.2.4,2026-02-18 12h28.04.112917 +0100,
,,,,,,,,,,,,,,,,,,,,,,,,,,,,,,,,,,,,,,,,,,,,,,,,,,,,,29.754541600000266,29.76164719999997,37.16919010000038,y,7.412761099999443,None,,,,,,,,,,,,,,,,,,,,,,,,,,,,,,,,,,,,,,,,886,22,M,R,2026-02-18_12h28.03.907,VisualSearch_2526_3,,2025.2.4,2026-02-18 12h28.04.112917 +0100,
vertical.xlsx,The target is tilted.,135,0,0,0,0,1,1,1,1,1,1,1,1,1,1,1,1,11,12,135,space,4.890940899999805,None,0,1,1.2468561000005138,None,,,,0,0,0,1,0,0,0,4,,,,,42.12559560000045,,,,,,,,,,,,,,,37.20632130000013,37.20632130000013,37.20632130000013,space,4.890940899999805,None,42.12055210000017,42.12559560000045,42.616182700000536,42.62162530000023,42.63656970000011,43.89885570000024,0,1,1.2468561000005138,None,43.89896039999985,43.91508700000031,44.11523880000004,44.09886470000038,,,,,,,,,,,,,,,,,,,,886,22,M,R,2026-02-18_12h28.03.907,VisualSearch_2526_3,,2025.2.4,2026-02-18 12h28.04.112917 +0100,
vertical.xlsx,The target is tilted.,135,1,1,0,1,0,0,0,0,0,0,0,0,0,0,0,0,0,1,135,space,4.890940899999805,None,1,1,0.5627168000000893,None,,,,0,0,0,1,0,1,1,3,,,,,44.11523880000004,,,,,,,,,,,,,,,,,,,,,44.09966439999971,44.11523880000004,44.59855620000053,44.60402630000044,44.61916209999981,45.1982023999999,1,1,0.5627168000000893,None,45.19832529999985,45.21445110000059,45.41444599999977,45.39815960000033,44.61916209999981,,,,,,,,,,,,,,,,,,,886,22,M,R,2026-02-18_12h28.03.907,VisualSearch_2526_3,,2025.2.4,2026-02-18 12h28.04.112917 +0100,
vertical.xlsx,The target is tilted.,135,2,2,0,1,1,1,1,0,0,0,0,0,0,0,0,0,3,4,135,space,4.890940899999805,None,1,1,0.7473509999999806,None,,,,0,0,0,1,0,2,2,2,,,,,45.41444599999977,,,,,,,,,,,,,,,,,,,,,45.398883699999715,45.41444599999977,45.898377900000014,45.90259470000001,45.91413360000024,46.664433900000404,1,1,0.7473509999999806,None,46.66461320000053,46.68006419999983,46.88053930000024,46.864255100000264,45.91413360000024,,,,,,,,,,,,,,,,,,,886,22,M,R,2026-02-18_12h28.03.907,VisualSearch_2526_3,,2025.2.4,2026-02-18 12h28.04.112917 +0100,
vertical.xlsx,The target is tilted.,135,3,3,0,1,1,1,1,1,1,1,1,1,1,1,1,0,11,12,135,space,4.890940899999805,None,0,0,1.0314602000007653,None,,,,0,0,0,1,0,3,3,0,,,,,46.88053930000024,,,,,,,,,,,,,,,,,,,,,46.86494820000007,46.88053930000024,47.36433459999989,47.369513100000404,47.383884599999874,48.42969170000015,0,0,1.0314602000007653,None,48.429820199999995,48.445865000000595,,48.629947399999764,47.383884599999874,,,,,,,,,,,,,,,,,,,886,22,M,R,2026-02-18_12h28.03.907,VisualSearch_2526_3,,2025.2.4,2026-02-18 12h28.04.112917 +0100,
vertical.xlsx,The target is tilted.,135,4,4,0,1,1,1,1,1,1,1,1,0,0,0,0,0,7,8,135,space,4.890940899999805,None,1,1,0.9444791999994777,None,,,,0,0,0,1,0,4,4,1,,,,,48.64632150000034,,,,,,,,,,,,,,,,,,,,,48.63066650000019,48.64632150000034,49.130162200000086,49.13564690000021,49.149907500000154,50.09665589999986,1,1,0.9444791999994777,None,50.0968612000006,50.11176109999997,50.31229030000031,50.296089600000414,49.149907500000154,,,,,,,,,,,,,,,,,,,886,22,M,R,2026-02-18_12h28.03.907,VisualSearch_2526_3,,2025.2.4,2026-02-18 12h28.04.112917 +0100,
vertical.xlsx,The target is tilted.,135,5,5,0,0,0,0,0,0,0,0,0,0,0,0,0,1,1,1,135,space,4.890940899999805,None,0,1,0.48383540000031644,None,,,,0,0,0,1,0,5,5,7,,,,,50.31229030000031,,,,,,,,,,,,,,,,,,,,,50.296757199999774,50.31229030000031,50.795934800000396,50.80081700000028,50.816001199999846,51.31152089999978,0,1,0.48383540000031644,None,51.31161510000038,51.32807169999978,51.528273300000365,51.511835899999824,50.816001199999846,,,,,,,,,,,,,,,,,,,886,22,M,R,2026-02-18_12h28.03.907,VisualSearch_2526_3,,2025.2.4,2026-02-18 12h28.04.112917 +0100,
vertical.xlsx,The target is tilted.,135,6,6,0,0,1,1,1,1,1,1,1,0,0,0,0,1,7,8,135,space,4.890940899999805,None,0,1,0.990029599999616,None,,,,0,0,0,1,0,6,6,5,,,,,51.528273300000365,,,,,,,,,,,,,,,,,,,,,51.51254460000018,51.528273300000365,52.01182560000052,52.01680269999997,52.03275039999971,53.028536599999825,0,1,0.990029599999616,None,53.028727300000355,53.043639299999995,53.244274399999995,53.22826420000001,,,,,,,,,,,,,,,,,,,,886,22,M,R,2026-02-18_12h28.03.907,VisualSearch_2526_3,,2025.2.4,2026-02-18 12h28.04.112917 +0100,
vertical.xlsx,The target is tilted.,135,7,7,0,0,1,1,1,0,0,0,0,0,0,0,0,1,3,4,135,space,4.890940899999805,None,0,1,0.6594265999992786,None,,,,0,0,0,1,0,7,7,6,,,,,53.244274399999995,,,,,,,,,,,,,,,,,,,,,53.22896570000012,53.244274399999995,53.72785980000026,53.73264850000032,53.74862730000041,54.41129170000022,0,1,0.6594265999992786,None,54.41154069999993,54.426523400000406,54.62678930000038,54.61071919999995,53.74862730000041,,,,,,,,,,,,,,,,,,,886,22,M,R,2026-02-18_12h28.03.907,VisualSearch_2526_3,,2025.2.4,2026-02-18 12h28.04.112917 +0100,
vertical.xlsx,The target is tilted.,135,0,0,0,1,1,1,1,1,1,1,1,0,0,0,0,0,7,8,135,space,4.890940899999805,None,1,1,1.0877909000000727,None,space,2.2901874999997744,None,0,0,0,1,,,,,0,0,0,1,56.94435880000037,,,,,,,,,,,,,,,,,,,,,56.94088319999992,56.94435880000037,57.44264850000036,57.4476494999999,57.46375460000036,58.55945609999981,,,,,58.55965800000013,58.57460880000053,58.77480410000044,58.75860079999984,,54.61774299999979,54.62678930000038,54.62678930000038,56.92628049999985,space,2.2901874999997744,None,1,1,1.0877909000000727,None,,,,,,,,886,22,M,R,2026-02-18_12h28.03.907,VisualSearch_2526_3,,2025.2.4,2026-02-18 12h28.04.112917 +0100,
vertical.xlsx,The target is tilted.,135,1,1,0,1,0,0,0,0,0,0,0,0,0,0,0,0,0,1,135,space,4.890940899999805,None,1,1,0.4106832999996186,None,space,2.2901874999997744,None,0,0,0,1,,,,,0,1,1,3,58.77480410000044,,,,,,,,,,,,,,,,,,,,,58.75938580000002,58.77480410000044,59.25827070000014,59.26299089999975,59.280175099999724,59.6921683999999,,,,,59.692341699999815,59.707459799999924,59.90776840000035,59.89171009999973,59.280175099999724,,,,,,,,1,1,0.4106832999996186,None,,,,,,,,886,22,M,R,2026-02-18_12h28.03.907,VisualSearch_2526_3,,2025.2.4,2026-02-18 12h28.04.112917 +0100,
vertical.xlsx,The target is tilted.,135,2,2,0,0,0,0,0,0,0,0,0,0,0,0,0,1,1,1,135,space,4.890940899999805,None,0,1,0.48706659999970725,None,space,2.2901874999997744,None,0,0,0,1,,,,,0,2,2,7,59.90776840000035,,,,,,,,,,,,,,,,,,,,,59.89252589999978,59.90776840000035,60.39153559999977,60.396468599999935,60.4111155999999,60.9086169000002,,,,,60.90882060000058,60.92354880000039,61.124062400000184,61.10749300000043,60.4111155999999,,,,,,,,0,1,0.48706659999970725,None,,,,,,,,886,22,M,R,2026-02-18_12h28.03.907,VisualSearch_2526_3,,2025.2.4,2026-02-18 12h28.04.112917 +0100,
vertical.xlsx,The target is tilted.,135,3,3,0,0,1,1,1,1,1,1,1,0,0,0,0,1,7,8,135,space,4.890940899999805,None,0,1,0.6016822999999931,None,space,2.2901874999997744,None,0,0,0,1,,,,,0,3,3,5,61.124062400000184,,,,,,,,,,,,,,,,,,,,,61.1082336999998,61.124062400000184,61.60735620000014,61.6122105000004,61.62753969999994,62.24076740000055,,,,,62.24092610000025,62.25630749999982,62.45672139999988,62.440532800000256,61.62753969999994,,,,,,,,0,1,0.6016822999999931,None,,,,,,,,886,22,M,R,2026-02-18_12h28.03.907,VisualSearch_2526_3,,2025.2.4,2026-02-18 12h28.04.112917 +0100,
vertical.xlsx,The target is tilted.,135,4,4,0,0,1,1,1,0,0,0,0,0,0,0,0,1,3,4,135,space,4.890940899999805,None,0,1,0.5128991000001406,None,space,2.2901874999997744,None,0,0,0,1,,,,,0,4,4,6,62.45672139999988,,,,,,,,,,,,,,,,,,,,,62.4413411000005,62.45672139999988,62.94003059999977,62.94300120000025,62.95594080000046,63.47393319999992,,,,,63.47413030000007,63.48905470000045,63.689422899999954,63.673346200000196,62.95594080000046,,,,,,,,0,1,0.5128991000001406,None,,,,,,,,886,22,M,R,2026-02-18_12h28.03.907,VisualSearch_2526_3,,2025.2.4,2026-02-18 12h28.04.112917 +0100,
vertical.xlsx,The target is tilted.,135,5,5,0,1,1,1,1,1,1,1,1,1,1,1,1,0,11,12,135,space,4.890940899999805,None,1,1,0.8998906000006173,None,space,2.2901874999997744,None,0,0,0,1,,,,,0,5,5,0,63.689422899999954,,,,,,,,,,,,,,,,,,,,,63.67421040000045,63.689422899999954,64.17279390000022,64.17721630000051,64.18878159999986,65.10573850000037,,,,,65.10588569999982,65.12164810000013,65.32209640000019,65.30599340000026,64.18878159999986,,,,,,,,1,1,0.8998906000006173,None,,,,,,,,886,22,M,R,2026-02-18_12h28.03.907,VisualSearch_2526_3,,2025.2.4,2026-02-18 12h28.04.112917 +0100,
vertical.xlsx,The target is tilted.,135,6,6,0,0,1,1,1,1,1,1,1,1,1,1,1,1,11,12,135,space,4.890940899999805,None,0,1,0.793054800000391,None,space,2.2901874999997744,None,0,0,0,1,,,,,0,6,6,4,65.32209640000019,,,,,,,,,,,,,,,,,,,,,65.30673490000027,65.32209640000019,65.80574200000046,65.81055329999981,65.8256621999999,66.62152070000047,,,,,66.6216159000005,66.63748829999986,,66.82176479999998,65.8256621999999,,,,,,,,0,1,0.793054800000391,None,,,,,,,,886,22,M,R,2026-02-18_12h28.03.907,VisualSearch_2526_3,,2025.2.4,2026-02-18 12h28.04.112917 +0100,
vertical.xlsx,The target is tilted.,135,7,7,0,1,1,1,1,0,0,0,0,0,0,0,0,0,3,4,135,space,4.890940899999805,None,1,1,0.7827604000003703,None,space,2.2901874999997744,None,0,0,0,1,,,,,0,7,7,2,66.83773590000055,,,,,,,,,,,,,,,,,,,,,66.82258749999983,66.83773590000055,67.32178079999994,67.32665470000029,67.34224730000005,68.13798829999996,,,,,68.13821879999978,68.15358470000047,68.35409230000005,68.33802480000031,67.34224730000005,,,,,,,,1,1,0.7827604000003703,None,,,,,,,,886,22,M,R,2026-02-18_12h28.03.907,VisualSearch_2526_3,,2025.2.4,2026-02-18 12h28.04.112917 +0100,
vertical.xlsx,The target is tilted.,135,8,0,1,0,0,0,0,0,0,0,0,0,0,0,0,1,1,1,135,space,4.890940899999805,None,0,1,0.45742470000004687,None,space,2.2901874999997744,None,0,0,0,1,,,,,1,0,8,7,68.35409230000005,,,,,,,,,,,,,,,,,,,,,68.33875030000036,68.35409230000005,68.83768320000036,68.84249950000049,68.85778980000032,69.3210466999999,,,,,69.32125569999971,69.33640579999974,69.53690090000055,69.52068580000014,68.85778980000032,,,,,,,,0,1,0.45742470000004687,None,,,,,,,,886,22,M,R,2026-02-18_12h28.03.907,VisualSearch_2526_3,,2025.2.4,2026-02-18 12h28.04.112917 +0100,
vertical.xlsx,The target is tilted.,135,9,1,1,1,1,1,1,1,1,1,1,0,0,0,0,0,7,8,135,space,4.890940899999805,None,1,1,0.5924997000001895,None,space,2.2901874999997744,None,0,0,0,1,,,,,1,1,9,1,69.53690090000055,,,,,,,,,,,,,,,,,,,,,69.52178150000054,69.53690090000055,70.02015740000024,70.0250103999997,70.03965890000018,70.63720990000002,,,,,70.63740450000023,70.65250519999972,70.8529854999997,70.83680220000042,70.03965890000018,,,,,,,,1,1,0.5924997000001895,None,,,,,,,,886,22,M,R,2026-02-18_12h28.03.907,VisualSearch_2526_3,,2025.2.4,2026-02-18 12h28.04.112917 +0100,
vertical.xlsx,The target is tilted.,135,10,2,1,0,1,1,1,1,1,1,1,1,1,1,1,1,11,12,135,space,4.890940899999805,None,0,1,0.7805247999995117,None,space,2.2901874999997744,None,0,0,0,1,,,,,1,2,10,4,70.8529854999997,,,,,,,,,,,,,,,,,,,,,70.83753710000019,70.8529854999997,71.33621920000041,71.34066669999993,71.35261439999977,72.13641449999977,,,,,72.13661279999997,72.15189569999984,72.35225600000012,72.33631969999988,71.35261439999977,,,,,,,,0,1,0.7805247999995117,None,,,,,,,,886,22,M,R,2026-02-18_12h28.03.907,VisualSearch_2526_3,,2025.2.4,2026-02-18 12h28.04.112917 +0100,
vertical.xlsx,The target is tilted.,135,11,3,1,1,1,1,1,0,0,0,0,0,0,0,0,0,3,4,135,space,4.890940899999805,None,1,1,0.577283399999942,None,space,2.2901874999997744,None,0,0,0,1,,,,,1,3,11,2,72.35225600000012,,,,,,,,,,,,,,,,,,,,,72.33712850000029,72.35225600000012,72.83617520000007,72.84147099999973,72.85712899999999,73.43626680000034,,,,,73.4364642999999,73.45129600000018,73.65166990000034,73.63553409999986,72.85712899999999,,,,,,,,1,1,0.577283399999942,None,,,,,,,,886,22,M,R,2026-02-18_12h28.03.907,VisualSearch_2526_3,,2025.2.4,2026-02-18 12h28.04.112917 +0100,
vertical.xlsx,The target is tilted.,135,12,4,1,1,1,1,1,1,1,1,1,1,1,1,1,0,11,12,135,space,4.890940899999805,None,1,1,0.7411301000001913,None,space,2.2901874999997744,None,0,0,0,1,,,,,1,4,12,0,73.65166990000034,,,,,,,,,,,,,,,,,,,,,73.63628150000022,73.65166990000034,74.1351736000006,74.14013590000013,74.15748359999998,74.90186170000015,,,,,74.90203949999977,74.91725169999972,75.11782080000012,75.1015752000003,74.15748359999998,,,,,,,,1,1,0.7411301000001913,None,,,,,,,,886,22,M,R,2026-02-18_12h28.03.907,VisualSearch_2526_3,,2025.2.4,2026-02-18 12h28.04.112917 +0100,
vertical.xlsx,The target is tilted.,135,13,5,1,0,1,1,1,1,1,1,1,0,0,0,0,1,7,8,135,space,4.890940899999805,None,0,1,0.8936407000001054,None,space,2.2901874999997744,None,0,0,0,1,,,,,1,5,13,5,75.11782080000012,,,,,,,,,,,,,,,,,,,,,75.10239600000023,75.11782080000012,75.60128189999978,75.60598879999998,75.61734909999996,76.51764300000013,,,,,76.5177904000002,76.53298730000006,76.73359320000054,76.71735669999998,75.61734909999996,,,,,,,,0,1,0.8936407000001054,None,,,,,,,,886,22,M,R,2026-02-18_12h28.03.907,VisualSearch_2526_3,,2025.2.4,2026-02-18 12h28.04.112917 +0100,
vertical.xlsx,The target is tilted.,135,14,6,1,0,1,1,1,0,0,0,0,0,0,0,0,1,3,4,135,space,4.890940899999805,None,0,1,0.5707340999997541,None,space,2.2901874999997744,None,0,0,0,1,,,,,1,6,14,6,76.73359320000054,,,,,,,,,,,,,,,,,,,,,76.71811820000039,76.73359320000054,77.21695660000023,77.22179760000017,77.30658399999993,77.88408660000005,,,,,77.88428930000009,77.8992003000003,78.09959640000034,78.08314229999996,77.30658399999993,,,,,,,,0,1,0.5707340999997541,None,,,,,,,,886,22,M,R,2026-02-18_12h28.03.907,VisualSearch_2526_3,,2025.2.4,2026-02-18 12h28.04.112917 +0100,
vertical.xlsx,The target is tilted.,135,15,7,1,1,0,0,0,0,0,0,0,0,0,0,0,0,0,1,135,space,4.890940899999805,None,1,1,0.4265263999996023,None,space,2.2901874999997744,None,0,0,0,1,,,,,1,7,15,3,78.09959640000034,,,,,,,,,,,,,,,,,,,,,78.0838803000006,78.09959640000034,78.58317290000014,78.58814770000026,78.60321889999977,79.03308319999996,,,,,79.03328990000045,79.04867120000017,79.24903670000003,79.23290850000012,78.60321889999977,,,,,,,,1,1,0.4265263999996023,None,,,,,,,,886,22,M,R,2026-02-18_12h28.03.907,VisualSearch_2526_3,,2025.2.4,2026-02-18 12h28.04.112917 +0100,
vertical.xlsx,The target is tilted.,135,16,0,2,1,1,1,1,1,1,1,1,0,0,0,0,0,7,8,135,space,4.890940899999805,None,1,1,0.8092045000003054,None,space,2.2901874999997744,None,0,0,0,1,,,,,2,0,16,1,79.24903670000003,,,,,,,,,,,,,,,,,,,,,79.23365269999977,79.24903670000003,79.73271639999984,79.7375721999997,79.75383620000048,80.56607559999975,,,,,80.56624449999981,80.58132339999975,80.78176710000025,80.76525540000057,79.75383620000048,,,,,,,,1,1,0.8092045000003054,None,,,,,,,,886,22,M,R,2026-02-18_12h28.03.907,VisualSearch_2526_3,,2025.2.4,2026-02-18 12h28.04.112917 +0100,
vertical.xlsx,The target is tilted.,135,17,1,2,1,1,1,1,1,1,1,1,1,1,1,1,0,11,12,135,space,4.890940899999805,None,0,0,1.1161249000006137,None,space,2.2901874999997744,None,0,0,0,1,,,,,2,1,17,0,80.78176710000025,,,,,,,,,,,,,,,,,,,,,80.76598120000017,80.78176710000025,81.26532730000054,81.27023869999994,81.28665160000037,82.4147751999999,,,,,82.4149081000005,82.4304288000003,82.63085690000025,82.61442850000003,81.28665160000037,,,,,,,,0,0,1.1161249000006137,None,,,,,,,,886,22,M,R,2026-02-18_12h28.03.907,VisualSearch_2526_3,,2025.2.4,2026-02-18 12h28.04.112917 +0100,
vertical.xlsx,The target is tilted.,135,18,2,2,1,1,1,1,0,0,0,0,0,0,0,0,0,3,4,135,space,4.890940899999805,None,1,1,0.5270085000001927,None,space,2.2901874999997744,None,0,0,0,1,,,,,2,2,18,2,82.63085690000025,,,,,,,,,,,,,,,,,,,,,82.61522659999991,82.63085690000025,83.11455389999992,83.12004419999994,83.1348208999998,83.66502730000047,,,,,83.66524970000046,83.6796905000001,83.88032160000057,83.86413989999983,83.1348208999998,,,,,,,,1,1,0.5270085000001927,None,,,,,,,,886,22,M,R,2026-02-18_12h28.03.907,VisualSearch_2526_3,,2025.2.4,2026-02-18 12h28.04.112917 +0100,
vertical.xlsx,The target is tilted.,135,19,3,2,0,1,1,1,1,1,1,1,0,0,0,0,1,7,8,135,space,4.890940899999805,None,0,1,0.9505704000002879,None,space,2.2901874999997744,None,0,0,0,1,,,,,2,3,19,5,83.88032160000057,,,,,,,,,,,,,,,,,,,,,83.86486909999985,83.88032160000057,84.36394670000027,84.36868789999971,84.3871651999998,85.34703619999982,,,,,85.34717590000037,85.36234419999982,85.56303170000047,85.54683100000057,84.3871651999998,,,,,,,,0,1,0.9505704000002879,None,,,,,,,,886,22,M,R,2026-02-18_12h28.03.907,VisualSearch_2526_3,,2025.2.4,2026-02-18 12h28.04.112917 +0100,
vertical.xlsx,The target is tilted.,135,20,4,2,0,1,1,1,1,1,1,1,1,1,1,1,1,11,12,135,space,4.890940899999805,None,0,1,1.2158508000002257,None,space,2.2901874999997744,None,0,0,0,1,,,,,2,4,20,4,85.56303170000047,,,,,,,,,,,,,,,,,,,,,85.54755680000017,85.56303170000047,86.04630009999983,86.05115449999994,86.06588960000045,87.29555919999984,,,,,87.29569890000039,87.31161049999992,87.51205829999981,87.49581240000043,86.06588960000045,,,,,,,,0,1,1.2158508000002257,None,,,,,,,,886,22,M,R,2026-02-18_12h28.03.907,VisualSearch_2526_3,,2025.2.4,2026-02-18 12h28.04.112917 +0100,
vertical.xlsx,The target is tilted.,135,21,5,2,0,1,1,1,0,0,0,0,0,0,0,0,1,3,4,135,space,4.890940899999805,None,0,1,0.6763450999997076,None,space,2.2901874999997744,None,0,0,0,1,,,,,2,5,21,6,87.51205829999981,,,,,,,,,,,,,,,,,,,,,87.49707820000003,87.51205829999981,87.9958271000005,88.00076830000035,88.01598759999979,88.6952110000002,,,,,88.69534910000039,88.71100930000011,88.91142320000017,88.89532750000035,88.01598759999979,,,,,,,,0,1,0.6763450999997076,None,,,,,,,,886,22,M,R,2026-02-18_12h28.03.907,VisualSearch_2526_3,,2025.2.4,2026-02-18 12h28.04.112917 +0100,
vertical.xlsx,The target is tilted.,135,22,6,2,1,0,0,0,0,0,0,0,0,0,0,0,0,0,1,135,space,4.890940899999805,None,1,1,0.45830370000021503,None,space,2.2901874999997744,None,0,0,0,1,,,,,2,6,22,3,88.91142320000017,,,,,,,,,,,,,,,,,,,,,88.8960461000006,88.91142320000017,89.39514060000056,89.39982450000025,89.41107480000028,89.87802569999985,,,,,89.87812529999974,89.89352580000013,90.09424820000004,90.07811200000015,89.41107480000028,,,,,,,,1,1,0.45830370000021503,None,,,,,,,,886,22,M,R,2026-02-18_12h28.03.907,VisualSearch_2526_3,,2025.2.4,2026-02-18 12h28.04.112917 +0100,
vertical.xlsx,The target is tilted.,135,23,7,2,0,0,0,0,0,0,0,0,0,0,0,0,1,1,1,135,space,4.890940899999805,None,0,1,0.4990404000000126,None,space,2.2901874999997744,None,0,0,0,1,,,,,2,7,23,7,90.09424820000004,,,,,,,,,,,,,,,,,,,,,90.07883690000017,90.09424820000004,90.57800140000018,90.58290390000002,90.59856200000013,91.11090990000048,,,,,91.11114379999981,91.12653810000029,91.32698950000031,91.31083529999978,90.59856200000013,,,,,,,,0,1,0.4990404000000126,None,,,,,,,,886,22,M,R,2026-02-18_12h28.03.907,VisualSearch_2526_3,,2025.2.4,2026-02-18 12h28.04.112917 +0100,
vertical.xlsx,The target is tilted.,135,24,0,3,1,0,0,0,0,0,0,0,0,0,0,0,0,0,1,135,space,4.890940899999805,None,1,1,0.5005633999999191,None,space,2.2901874999997744,None,0,0,0,1,,,,,3,0,24,3,91.32698950000031,,,,,,,,,,,,,,,,,,,,,91.31159500000012,91.32698950000031,91.81056179999996,91.81535929999973,91.82960879999973,92.34348169999976,,,,,92.34365590000016,92.35931239999991,92.55976060000012,92.54369120000047,91.82960879999973,,,,,,,,1,1,0.5005633999999191,None,,,,,,,,886,22,M,R,2026-02-18_12h28.03.907,VisualSearch_2526_3,,2025.2.4,2026-02-18 12h28.04.112917 +0100,
vertical.xlsx,The target is tilted.,135,25,1,3,0,1,1,1,1,1,1,1,0,0,0,0,1,7,8,135,space,4.890940899999805,None,0,1,0.9476512999999613,None,space,2.2901874999997744,None,0,0,0,1,,,,,3,1,25,5,92.55976060000012,,,,,,,,,,,,,,,,,,,,,92.54443360000005,92.55976060000012,93.04312800000025,93.04798350000056,93.0633214999998,94.02573050000046,,,,,94.02588519999972,94.04189850000057,94.24214240000038,94.22583450000002,93.0633214999998,,,,,,,,0,1,0.9476512999999613,None,,,,,,,,886,22,M,R,2026-02-18_12h28.03.907,VisualSearch_2526_3,,2025.2.4,2026-02-18 12h28.04.112917 +0100,
vertical.xlsx,The target is tilted.,135,26,2,3,0,0,0,0,0,0,0,0,0,0,0,0,1,1,1,135,space,4.890940899999805,None,0,1,0.3736919000002672,None,space,2.2901874999997744,None,0,0,0,1,,,,,3,2,26,7,94.24214240000038,,,,,,,,,,,,,,,,,,,,,94.22658370000045,94.24214240000038,94.72600760000023,94.73083850000057,94.74602789999972,95.12634539999999,,,,,95.12654360000033,95.14139479999994,95.34196460000021,95.32580229999985,94.74602789999972,,,,,,,,0,1,0.3736919000002672,None,,,,,,,,886,22,M,R,2026-02-18_12h28.03.907,VisualSearch_2526_3,,2025.2.4,2026-02-18 12h28.04.112917 +0100,
vertical.xlsx,The target is tilted.,135,27,3,3,0,1,1,1,1,1,1,1,1,1,1,1,1,11,12,135,space,4.890940899999805,None,0,1,0.8191220999997313,None,space,2.2901874999997744,None,0,0,0,1,,,,,3,3,27,4,95.34196460000021,,,,,,,,,,,,,,,,,,,,,95.32650710000053,95.34196460000021,95.82556139999997,95.83045240000047,95.84600390000014,96.67569189999995,,,,,96.67588960000012,96.69071170000007,96.89109689999987,96.87461950000034,95.84600390000014,,,,,,,,0,1,0.8191220999997313,None,,,,,,,,886,22,M,R,2026-02-18_12h28.03.907,VisualSearch_2526_3,,2025.2.4,2026-02-18 12h28.04.112917 +0100,
vertical.xlsx,The target is tilted.,135,28,4,3,1,1,1,1,1,1,1,1,1,1,1,1,0,11,12,135,space,4.890940899999805,None,1,1,0.7774294999999256,None,space,2.2901874999997744,None,0,0,0,1,,,,,3,4,28,0,96.89109689999987,,,,,,,,,,,,,,,,,,,,,96.87534789999972,96.89109689999987,97.3747942,97.3796409000006,97.39439310000034,98.17506550000053,,,,,98.1752634000004,98.19007070000043,98.39030670000011,98.37408640000012,97.39439310000034,,,,,,,,1,1,0.7774294999999256,None,,,,,,,,886,22,M,R,2026-02-18_12h28.03.907,VisualSearch_2526_3,,2025.2.4,2026-02-18 12h28.04.112917 +0100,
vertical.xlsx,The target is tilted.,135,29,5,3,1,1,1,1,0,0,0,0,0,0,0,0,0,3,4,135,space,4.890940899999805,None,1,1,0.6259994000001825,None,space,2.2901874999997744,None,0,0,0,1,,,,,3,5,29,2,98.39030670000011,,,,,,,,,,,,,,,,,,,,,98.37482780000028,98.39030670000011,98.87415510000028,98.87901539999984,98.8938218000003,99.52411240000038,,,,,99.52431030000025,99.53934219999974,99.73983690000023,99.72370109999974,98.8938218000003,,,,,,,,1,1,0.6259994000001825,None,,,,,,,,886,22,M,R,2026-02-18_12h28.03.907,VisualSearch_2526_3,,2025.2.4,2026-02-18 12h28.04.112917 +0100,
vertical.xlsx,The target is tilted.,135,30,6,3,0,1,1,1,0,0,0,0,0,0,0,0,1,3,4,135,space,4.890940899999805,None,0,1,0.767712500000016,None,space,2.2901874999997744,None,0,0,0,1,,,,,3,6,30,6,99.73983690000023,,,,,,,,,,,,,,,,,,,,,99.72448429999986,99.73983690000023,100.22343199999978,100.22827320000033,100.24354630000016,101.0235618000006,,,,,101.02374120000059,101.03871780000009,101.23900909999975,101.22294060000058,100.24354630000016,,,,,,,,0,1,0.767712500000016,None,,,,,,,,886,22,M,R,2026-02-18_12h28.03.907,VisualSearch_2526_3,,2025.2.4,2026-02-18 12h28.04.112917 +0100,
vertical.xlsx,The target is tilted.,135,31,7,3,1,1,1,1,1,1,1,1,0,0,0,0,0,7,8,135,space,4.890940899999805,None,1,1,0.5603320999998687,None,space,2.2901874999997744,None,0,0,0,1,,,,,3,7,31,1,101.23900909999975,,,,,,,,,,,,,,,,,,,,,101.22367010000016,101.23900909999975,101.72295070000018,101.72843920000014,101.74321039999995,102.30654800000048,,,,,102.30678260000059,102.32150330000059,102.52196790000016,102.5057467000006,101.74321039999995,,,,,,,,1,1,0.5603320999998687,None,,,,,,,,886,22,M,R,2026-02-18_12h28.03.907,VisualSearch_2526_3,,2025.2.4,2026-02-18 12h28.04.112917 +0100,
vertical.xlsx,The target is tilted.,135,32,0,4,1,1,1,1,0,0,0,0,0,0,0,0,0,3,4,135,space,4.890940899999805,None,1,1,0.5234791000002588,None,space,2.2901874999997744,None,0,0,0,1,,,,,4,0,32,2,102.52196790000016,,,,,,,,,,,,,,,,,,,,,102.50650899999982,102.52196790000016,103.0051252000003,103.00964230000045,103.02163199999995,103.55563230000007,,,,,103.55582270000014,103.57096170000023,103.77136070000051,103.7552439000001,103.02163199999995,,,,,,,,1,1,0.5234791000002588,None,,,,,,,,886,22,M,R,2026-02-18_12h28.03.907,VisualSearch_2526_3,,2025.2.4,2026-02-18 12h28.04.112917 +0100,
vertical.xlsx,The target is tilted.,135,33,1,4,0,1,1,1,1,1,1,1,1,1,1,1,1,11,12,135,space,4.890940899999805,None,0,1,1.3693016000006537,None,space,2.2901874999997744,None,0,0,0,1,,,,,4,1,33,4,103.77136070000051,,,,,,,,,,,,,,,,,,,,,103.75596910000058,103.77136070000051,104.25496350000049,104.26012460000038,104.27457120000054,105.65501659999973,,,,,105.65521940000053,105.66988730000048,105.87033250000059,105.85421719999977,104.27457120000054,,,,,,,,0,1,1.3693016000006537,None,,,,,,,,886,22,M,R,2026-02-18_12h28.03.907,VisualSearch_2526_3,,2025.2.4,2026-02-18 12h28.04.112917 +0100,
vertical.xlsx,The target is tilted.,135,34,2,4,0,1,1,1,1,1,1,1,0,0,0,0,1,7,8,135,space,4.890940899999805,None,0,1,0.9934134999994058,None,space,2.2901874999997744,None,0,0,0,1,,,,,4,2,34,5,105.87033250000059,,,,,,,,,,,,,,,,,,,,,105.85504910000054,105.87033250000059,106.35399280000001,106.35890910000035,106.37458250000054,107.37081000000035,,,,,107.3710216999998,107.38586290000057,107.58632260000013,107.5700668999998,106.37458250000054,,,,,,,,0,1,0.9934134999994058,None,,,,,,,,886,22,M,R,2026-02-18_12h28.03.907,VisualSearch_2526_3,,2025.2.4,2026-02-18 12h28.04.112917 +0100,
vertical.xlsx,The target is tilted.,135,35,3,4,0,0,0,0,0,0,0,0,0,0,0,0,1,1,1,135,space,4.890940899999805,None,0,1,0.36571139999978186,None,space,2.2901874999997744,None,0,0,0,1,,,,,4,3,35,7,107.58632260000013,,,,,,,,,,,,,,,,,,,,,107.57085389999975,107.58632260000013,108.0698680000005,108.07461270000022,108.08598570000049,108.45365600000059,,,,,108.45386740000049,108.46867490000022,108.66905469999983,108.65297699999974,108.08598570000049,,,,,,,,0,1,0.36571139999978186,None,,,,,,,,886,22,M,R,2026-02-18_12h28.03.907,VisualSearch_2526_3,,2025.2.4,2026-02-18 12h28.04.112917 +0100,
vertical.xlsx,The target is tilted.,135,36,4,4,1,1,1,1,1,1,1,1,0,0,0,0,0,7,8,135,space,4.890940899999805,None,1,1,0.7605776999998852,None,space,2.2901874999997744,None,0,0,0,1,,,,,4,4,36,1,108.66905469999983,,,,,,,,,,,,,,,,,,,,,108.65375719999975,108.66905469999983,109.15230150000025,109.15704319999986,109.16834519999975,109.93630490000032,,,,,109.93653450000056,109.95120640000005,110.15187930000047,110.13583910000034,109.16834519999975,,,,,,,,1,1,0.7605776999998852,None,,,,,,,,886,22,M,R,2026-02-18_12h28.03.907,VisualSearch_2526_3,,2025.2.4,2026-02-18 12h28.04.112917 +0100,
vertical.xlsx,The target is tilted.,135,37,5,4,1,0,0,0,0,0,0,0,0,0,0,0,0,0,1,135,space,4.890940899999805,None,0,0,0.379512500000601,None,space,2.2901874999997744,None,0,0,0,1,,,,,4,5,37,3,110.15187930000047,,,,,,,,,,,,,,,,,,,,,110.13666050000029,110.15187930000047,110.63541309999982,110.6390935999998,110.65147179999985,111.03526109999984,,,,,111.0354481000004,111.05082719999973,111.2510100999998,111.23498440000003,110.65147179999985,,,,,,,,0,0,0.379512500000601,None,,,,,,,,886,22,M,R,2026-02-18_12h28.03.907,VisualSearch_2526_3,,2025.2.4,2026-02-18 12h28.04.112917 +0100,
vertical.xlsx,The target is tilted.,135,38,6,4,1,1,1,1,1,1,1,1,1,1,1,1,0,11,12,135,space,4.890940899999805,None,0,0,1.4679417000006652,None,space,2.2901874999997744,None,0,0,0,1,,,,,4,6,38,0,111.2510100999998,,,,,,,,,,,,,,,,,,,,,111.23572010000044,111.2510100999998,111.73492230000011,111.73978150000039,111.7549325,113.23413440000058,,,,,113.23434890000044,113.24985430000015,113.45034730000043,113.4341145999997,111.7549325,,,,,,,,0,0,1.4679417000006652,None,,,,,,,,886,22,M,R,2026-02-18_12h28.03.907,VisualSearch_2526_3,,2025.2.4,2026-02-18 12h28.04.112917 +0100,
vertical.xlsx,The target is tilted.,135,39,7,4,0,1,1,1,0,0,0,0,0,0,0,0,1,3,4,135,space,4.890940899999805,None,0,1,0.8041281000005256,None,space,2.2901874999997744,None,0,0,0,1,,,,,4,7,39,6,113.45034730000043,,,,,,,,,,,,,,,,,,,,,113.4348987000003,113.45034730000043,113.93396529999973,113.93895010000051,113.95453550000002,114.76744580000013,,,,,114.76764270000058,114.78251580000051,114.98284539999986,114.96649660000003,113.95453550000002,,,,,,,,0,1,0.8041281000005256,None,,,,,,,,886,22,M,R,2026-02-18_12h28.03.907,VisualSearch_2526_3,,2025.2.4,2026-02-18 12h28.04.112917 +0100,
vertical.xlsx,The target is tilted.,135,40,0,5,0,1,1,1,1,1,1,1,1,1,1,1,1,11,12,135,space,4.890940899999805,None,0,1,1.354702599999655,None,space,2.2901874999997744,None,0,0,0,1,,,,,5,0,40,4,114.98284539999986,,,,,,,,,,,,,,,,,,,,,114.9671927999998,114.98284539999986,115.46661409999979,115.47140899999977,115.48645029999989,116.84909059999973,,,,,116.84918819999984,116.86476500000026,117.06518700000015,117.04887260000032,115.48645029999989,,,,,,,,0,1,1.354702599999655,None,,,,,,,,886,22,M,R,2026-02-18_12h28.03.907,VisualSearch_2526_3,,2025.2.4,2026-02-18 12h28.04.112917 +0100,
vertical.xlsx,The target is tilted.,135,41,1,5,0,1,1,1,0,0,0,0,0,0,0,0,1,3,4,135,space,4.890940899999805,None,0,1,0.5041614000001573,None,space,2.2901874999997744,None,0,0,0,1,,,,,5,1,41,6,117.06518700000015,,,,,,,,,,,,,,,,,,,,,117.04960449999999,117.06518700000015,117.5490004000003,117.55382240000017,117.5688369999998,118.08185440000034,,,,,118.08201180000015,118.09736020000037,118.29782070000056,118.28189689999999,117.5688369999998,,,,,,,,0,1,0.5041614000001573,None,,,,,,,,886,22,M,R,2026-02-18_12h28.03.907,VisualSearch_2526_3,,2025.2.4,2026-02-18 12h28.04.112917 +0100,
vertical.xlsx,The target is tilted.,135,42,2,5,1,1,1,1,0,0,0,0,0,0,0,0,0,3,4,135,space,4.890940899999805,None,1,1,0.6442604000003485,None,space,2.2901874999997744,None,0,0,0,1,,,,,5,2,42,2,118.29782070000056,,,,,,,,,,,,,,,,,,,,,118.28265920000013,118.29782070000056,118.78201489999992,118.78696510000009,118.80274680000002,119.44848700000057,,,,,119.44867770000019,119.4637902000004,119.66417960000035,119.6481260999999,118.80274680000002,,,,,,,,1,1,0.6442604000003485,None,,,,,,,,886,22,M,R,2026-02-18_12h28.03.907,VisualSearch_2526_3,,2025.2.4,2026-02-18 12h28.04.112917 +0100,
vertical.xlsx,The target is tilted.,135,43,3,5,0,0,0,0,0,0,0,0,0,0,0,0,1,1,1,135,space,4.890940899999805,None,0,1,0.5066882000000987,None,space,2.2901874999997744,None,0,0,0,1,,,,,5,3,43,7,119.66417960000035,,,,,,,,,,,,,,,,,,,,,119.64892849999978,119.66417960000035,120.14776400000028,120.15255460000026,120.16772349999974,120.68140779999976,,,,,120.68160400000033,120.69647110000005,120.89683680000053,120.88049289999981,120.16772349999974,,,,,,,,0,1,0.5066882000000987,None,,,,,,,,886,22,M,R,2026-02-18_12h28.03.907,VisualSearch_2526_3,,2025.2.4,2026-02-18 12h28.04.112917 +0100,
vertical.xlsx,The target is tilted.,135,44,4,5,1,1,1,1,1,1,1,1,1,1,1,1,0,11,12,135,space,4.890940899999805,None,0,0,1.3243523999999525,None,space,2.2901874999997744,None,0,0,0,1,,,,,5,4,44,0,120.89683680000053,,,,,,,,,,,,,,,,,,,,,120.8812213000001,120.89683680000053,121.38076799999999,121.38545309999972,121.39658620000046,122.73047659999975,,,,,122.73067549999996,122.74555190000046,122.94579239999985,122.92915110000013,121.39658620000046,,,,,,,,0,0,1.3243523999999525,None,,,,,,,,886,22,M,R,2026-02-18_12h28.03.907,VisualSearch_2526_3,,2025.2.4,2026-02-18 12h28.04.112917 +0100,
vertical.xlsx,The target is tilted.,135,45,5,5,0,1,1,1,1,1,1,1,0,0,0,0,1,7,8,135,space,4.890940899999805,None,1,0,1.0157435000000987,None,space,2.2901874999997744,None,0,0,0,1,,,,,5,5,45,5,122.94579239999985,,,,,,,,,,,,,,,,,,,,,122.92952820000028,122.94579239999985,123.42983790000017,123.43514340000002,123.45024110000031,124.47890160000043,,,,,124.4790109000005,124.49462829999993,124.6952425999998,124.67888390000007,123.45024110000031,,,,,,,,1,0,1.0157435000000987,None,,,,,,,,886,22,M,R,2026-02-18_12h28.03.907,VisualSearch_2526_3,,2025.2.4,2026-02-18 12h28.04.112917 +0100,
vertical.xlsx,The target is tilted.,135,46,6,5,1,0,0,0,0,0,0,0,0,0,0,0,0,0,1,135,space,4.890940899999805,None,1,1,0.526350199999797,None,space,2.2901874999997744,None,0,0,0,1,,,,,5,6,46,3,124.6952425999998,,,,,,,,,,,,,,,,,,,,,124.67962869999974,124.6952425999998,125.17849660000047,125.18328029999975,125.19747389999975,125.72903779999979,,,,,125.7292539,125.74413120000008,125.94462780000049,125.92795720000049,125.19747389999975,,,,,,,,1,1,0.526350199999797,None,,,,,,,,886,22,M,R,2026-02-18_12h28.03.907,VisualSearch_2526_3,,2025.2.4,2026-02-18 12h28.04.112917 +0100,
vertical.xlsx,The target is tilted.,135,47,7,5,1,1,1,1,1,1,1,1,0,0,0,0,0,7,8,135,space,4.890940899999805,None,1,1,0.6337530000000697,None,space,2.2901874999997744,None,0,0,0,1,,,,,5,7,47,1,125.94462780000049,,,,,,,,,,,,,,,,,,,,,125.92833590000009,125.94462780000049,126.4282017000005,126.43303280000055,126.44788010000048,127.09408249999979,,,,,127.09421930000008,127.11024929999985,,127.29434870000023,126.44788010000048,,,,,,,,1,1,0.6337530000000697,None,,,,,,,,886,22,M,R,2026-02-18_12h28.03.907,VisualSearch_2526_3,,2025.2.4,2026-02-18 12h28.04.112917 +0100,
vertical.xlsx,The target is tilted.,135,48,0,6,0,1,1,1,1,1,1,1,1,1,1,1,1,11,12,135,space,4.890940899999805,None,0,1,1.093679599999632,None,space,2.2901874999997744,None,0,0,0,1,,,,,6,0,48,4,127.3106673000002,,,,,,,,,,,,,,,,,,,,,127.2951477000006,127.3106673000002,127.79435379999995,127.79915450000044,127.81543359999978,128.9109957999999,,,,,128.91120880000017,128.92608560000008,129.12642120000055,129.11035979999997,127.81543359999978,,,,,,,,0,1,1.093679599999632,None,,,,,,,,886,22,M,R,2026-02-18_12h28.03.907,VisualSearch_2526_3,,2025.2.4,2026-02-18 12h28.04.112917 +0100,
vertical.xlsx,The target is tilted.,135,49,1,6,1,1,1,1,0,0,0,0,0,0,0,0,0,3,4,135,space,4.890940899999805,None,1,1,0.5187211000002208,None,space,2.2901874999997744,None,0,0,0,1,,,,,6,1,49,2,129.12642120000055,,,,,,,,,,,,,,,,,,,,,129.11111859999983,129.12642120000055,129.61010700000043,129.61496690000058,129.63054470000043,130.15997040000002,,,,,130.16010819999974,130.17547300000024,130.37559650000003,130.3597619000002,129.63054470000043,,,,,,,,1,1,0.5187211000002208,None,,,,,,,,886,22,M,R,2026-02-18_12h28.03.907,VisualSearch_2526_3,,2025.2.4,2026-02-18 12h28.04.112917 +0100,
vertical.xlsx,The target is tilted.,135,50,2,6,1,0,0,0,0,0,0,0,0,0,0,0,0,0,1,135,space,4.890940899999805,None,1,1,0.4292879000004177,None,space,2.2901874999997744,None,0,0,0,1,,,,,6,2,50,3,130.37559650000003,,,,,,,,,,,,,,,,,,,,,130.36049189999994,130.37559650000003,130.85956309999983,130.86437149999983,130.87911929999973,131.30994610000016,,,,,131.31014849999974,131.32498209999994,131.52547550000054,131.50923669999975,130.87911929999973,,,,,,,,1,1,0.4292879000004177,None,,,,,,,,886,22,M,R,2026-02-18_12h28.03.907,VisualSearch_2526_3,,2025.2.4,2026-02-18 12h28.04.112917 +0100,
vertical.xlsx,The target is tilted.,135,51,3,6,0,0,0,0,0,0,0,0,0,0,0,0,1,1,1,135,space,4.890940899999805,None,0,1,0.5269925000002331,None,space,2.2901874999997744,None,0,0,0,1,,,,,6,3,51,7,131.52547550000054,,,,,,,,,,,,,,,,,,,,,131.50999289999982,131.52547550000054,132.00897820000046,132.01390809999975,132.02869220000048,132.55871089999982,,,,,132.55889660000048,132.57434620000004,132.7748502000004,132.75838449999992,132.02869220000048,,,,,,,,0,1,0.5269925000002331,None,,,,,,,,886,22,M,R,2026-02-18_12h28.03.907,VisualSearch_2526_3,,2025.2.4,2026-02-18 12h28.04.112917 +0100,
vertical.xlsx,The target is tilted.,135,52,4,6,1,1,1,1,1,1,1,1,1,1,1,1,0,11,12,135,space,4.890940899999805,None,1,1,1.0312973000000056,None,space,2.2901874999997744,None,0,0,0,1,,,,,6,4,52,0,132.7748502000004,,,,,,,,,,,,,,,,,,,,,132.75916659999984,132.7748502000004,133.25824050000028,133.26326640000025,133.27888820000044,134.32460859999992,,,,,134.32480699999996,134.34020650000002,134.54072369999994,134.52455629999986,133.27888820000044,,,,,,,,1,1,1.0312973000000056,None,,,,,,,,886,22,M,R,2026-02-18_12h28.03.907,VisualSearch_2526_3,,2025.2.4,2026-02-18 12h28.04.112917 +0100,
vertical.xlsx,The target is tilted.,135,53,5,6,0,1,1,1,1,1,1,1,0,0,0,0,1,7,8,135,space,4.890940899999805,None,0,1,0.7413184999995792,None,space,2.2901874999997744,None,0,0,0,1,,,,,6,5,53,5,134.54072369999994,,,,,,,,,,,,,,,,,,,,,134.52533659999972,134.54072369999994,135.02445210000042,135.02910919999977,135.04041589999997,135.79067980000036,,,,,135.79088020000017,135.80624090000038,136.00668760000008,135.99040310000055,135.04041589999997,,,,,,,,0,1,0.7413184999995792,None,,,,,,,,886,22,M,R,2026-02-18_12h28.03.907,VisualSearch_2526_3,,2025.2.4,2026-02-18 12h28.04.112917 +0100,
vertical.xlsx,The target is tilted.,135,54,6,6,1,1,1,1,1,1,1,1,0,0,0,0,0,7,8,135,space,4.890940899999805,None,0,0,0.8229541000000609,None,space,2.2901874999997744,None,0,0,0,1,,,,,6,6,54,1,136.00668760000008,,,,,,,,,,,,,,,,,,,,,135.99112979999973,136.00668760000008,136.49034709999978,136.49517960000048,136.50913469999978,137.34048260000054,,,,,137.3406758000001,137.3556023000001,137.55605879999985,137.5398382000003,136.50913469999978,,,,,,,,0,0,0.8229541000000609,None,,,,,,,,886,22,M,R,2026-02-18_12h28.03.907,VisualSearch_2526_3,,2025.2.4,2026-02-18 12h28.04.112917 +0100,
vertical.xlsx,The target is tilted.,135,55,7,6,0,1,1,1,0,0,0,0,0,0,0,0,1,3,4,135,space,4.890940899999805,None,0,1,0.514978300000621,None,space,2.2901874999997744,None,0,0,0,1,,,,,6,7,55,6,137.55605879999985,,,,,,,,,,,,,,,,,,,,,137.54062990000057,137.55605879999985,138.03963769999973,138.0444097999998,138.05898530000013,138.58895589999975,,,,,138.58910280000055,138.60513160000028,138.80547449999995,138.7892980000006,138.05898530000013,,,,,,,,0,1,0.514978300000621,None,,,,,,,,886,22,M,R,2026-02-18_12h28.03.907,VisualSearch_2526_3,,2025.2.4,2026-02-18 12h28.04.112917 +0100,
vertical.xlsx,The target is tilted.,135,56,0,7,0,1,1,1,0,0,0,0,0,0,0,0,1,3,4,135,space,4.890940899999805,None,0,1,0.5304764000002251,None,space,2.2901874999997744,None,0,0,0,1,,,,,7,0,56,6,138.80547449999995,,,,,,,,,,,,,,,,,,,,,138.79014439999992,138.80547449999995,139.28891759999988,139.29370569999992,139.3089727000006,139.85534300000018,,,,,139.8555221000006,139.87111110000023,140.0715936000006,140.05539950000002,139.3089727000006,,,,,,,,0,1,0.5304764000002251,None,,,,,,,,886,22,M,R,2026-02-18_12h28.03.907,VisualSearch_2526_3,,2025.2.4,2026-02-18 12h28.04.112917 +0100,
vertical.xlsx,The target is tilted.,135,57,1,7,0,0,0,0,0,0,0,0,0,0,0,0,1,1,1,135,space,4.890940899999805,None,0,1,0.38498579999941285,None,space,2.2901874999997744,None,0,0,0,1,,,,,7,1,57,7,140.0715936000006,,,,,,,,,,,,,,,,,,,,,140.05615279999984,140.0715936000006,140.55502810000053,140.55989950000003,140.57433860000037,140.97186320000037,,,,,140.97202130000005,140.9872959000004,141.18733710000015,141.17136050000045,140.57433860000037,,,,,,,,0,1,0.38498579999941285,None,,,,,,,,886,22,M,R,2026-02-18_12h28.03.907,VisualSearch_2526_3,,2025.2.4,2026-02-18 12h28.04.112917 +0100,
vertical.xlsx,The target is tilted.,135,58,2,7,0,1,1,1,1,1,1,1,1,1,1,1,1,11,12,135,space,4.890940899999805,None,0,1,1.3825196999996479,None,space,2.2901874999997744,None,0,0,0,1,,,,,7,2,58,4,141.18733710000015,,,,,,,,,,,,,,,,,,,,,141.1720965000004,141.18733710000015,141.67133840000042,141.6762150000004,141.69263740000042,143.08782090000022,,,,,143.08800119999978,143.10297379999975,143.30339559999993,143.28727290000006,141.69263740000042,,,,,,,,0,1,1.3825196999996479,None,,,,,,,,886,22,M,R,2026-02-18_12h28.03.907,VisualSearch_2526_3,,2025.2.4,2026-02-18 12h28.04.112917 +0100,
vertical.xlsx,The target is tilted.,135,59,3,7,1,1,1,1,1,1,1,1,0,0,0,0,0,7,8,135,space,4.890940899999805,None,0,0,0.8849348999992799,None,space,2.2901874999997744,None,0,0,0,1,,,,,7,3,59,1,143.30339559999993,,,,,,,,,,,,,,,,,,,,,143.2880339000003,143.30339559999993,143.78721380000025,143.7918867999997,143.8031090000004,144.70252210000035,,,,,144.70261800000026,144.7188844000002,,144.9029615999998,143.8031090000004,,,,,,,,0,0,0.8849348999992799,None,,,,,,,,886,22,M,R,2026-02-18_12h28.03.907,VisualSearch_2526_3,,2025.2.4,2026-02-18 12h28.04.112917 +0100,
vertical.xlsx,The target is tilted.,135,60,4,7,0,1,1,1,1,1,1,1,0,0,0,0,1,7,8,135,space,4.890940899999805,None,0,1,1.3914528000004793,None,space,2.2901874999997744,None,0,0,0,1,,,,,7,4,60,5,144.91928319999988,,,,,,,,,,,,,,,,,,,,,144.9037645999997,144.91928319999988,145.40284229999997,145.40822500000013,145.42377020000004,146.81907430000047,,,,,146.81926449999992,146.83461290000014,147.0346580000005,147.0188409000002,,,,,,,,,0,1,1.3914528000004793,None,,,,,,,,886,22,M,R,2026-02-18_12h28.03.907,VisualSearch_2526_3,,2025.2.4,2026-02-18 12h28.04.112917 +0100,
vertical.xlsx,The target is tilted.,135,61,5,7,1,1,1,1,1,1,1,1,1,1,1,1,0,11,12,135,space,4.890940899999805,None,1,1,1.1769051000001127,None,space,2.2901874999997744,None,0,0,0,1,,,,,7,5,61,0,147.0346580000005,,,,,,,,,,,,,,,,,,,,,147.01959420000003,147.0346580000005,147.5185244000004,147.52369379999982,147.53878170000007,148.71874540000044,,,,,148.71893939999973,148.73377900000014,148.93424460000006,148.91805620000014,147.53878170000007,,,,,,,,1,1,1.1769051000001127,None,,,,,,,,886,22,M,R,2026-02-18_12h28.03.907,VisualSearch_2526_3,,2025.2.4,2026-02-18 12h28.04.112917 +0100,
vertical.xlsx,The target is tilted.,135,62,6,7,1,0,0,0,0,0,0,0,0,0,0,0,0,0,1,135,space,4.890940899999805,None,0,0,0.34668319999946107,None,space,2.2901874999997744,None,0,0,0,1,,,,,7,6,62,3,148.93424460000006,,,,,,,,,,,,,,,,,,,,,148.91887250000036,148.93424460000006,149.41799100000026,149.42281730000013,149.4385269000004,149.80084390000047,,,,,149.80101939999986,149.81659730000047,150.0170837000005,150.0008437000006,149.4385269000004,,,,,,,,0,0,0.34668319999946107,None,,,,,,,,886,22,M,R,2026-02-18_12h28.03.907,VisualSearch_2526_3,,2025.2.4,2026-02-18 12h28.04.112917 +0100,
vertical.xlsx,The target is tilted.,135,63,7,7,1,1,1,1,0,0,0,0,0,0,0,0,0,3,4,135,space,4.890940899999805,None,1,1,0.49080720000074507,None,space,2.2901874999997744,None,0,0,0,1,,,,,7,7,63,2,150.0170837000005,,,,,,,,,,,,,,,,,,,,,150.00158050000027,150.0170837000005,150.50035240000034,150.5051155000001,150.5193503999999,151.01717869999993,,,,,151.01732580000044,151.0327240000006,151.2331936999999,151.21712149999985,150.5193503999999,,,,,,,,1,1,0.49080720000074507,None,,,,,,,,886,22,M,R,2026-02-18_12h28.03.907,VisualSearch_2526_3,,2025.2.4,2026-02-18 12h28.04.112917 +0100,
vertical.xlsx,The target is tilted.,135,64,0,8,1,0,0,0,0,0,0,0,0,0,0,0,0,0,1,135,space,4.890940899999805,None,1,1,0.34972490000018297,None,space,2.2901874999997744,None,0,0,0,1,,,,,8,0,64,3,151.2331936999999,,,,,,,,,,,,,,,,,,,,,151.21785850000015,151.2331936999999,151.71689229999993,151.7216911000005,151.73275850000027,152.0838861000002,,,,,152.08409889999984,152.0989055,152.2992634000002,152.28317100000004,151.73275850000027,,,,,,,,1,1,0.34972490000018297,None,,,,,,,,886,22,M,R,2026-02-18_12h28.03.907,VisualSearch_2526_3,,2025.2.4,2026-02-18 12h28.04.112917 +0100,
vertical.xlsx,The target is tilted.,135,65,1,8,1,1,1,1,1,1,1,1,0,0,0,0,0,7,8,135,space,4.890940899999805,None,1,1,0.8624588000002404,None,space,2.2901874999997744,None,0,0,0,1,,,,,8,1,65,1,152.2992634000002,,,,,,,,,,,,,,,,,,,,,152.28393529999994,152.2992634000002,152.7830313000004,152.78793610000048,152.80163869999978,153.6665079000004,,,,,153.66670059999979,153.6815144000002,153.88193030000002,153.86585170000035,152.80163869999978,,,,,,,,1,1,0.8624588000002404,None,,,,,,,,886,22,M,R,2026-02-18_12h28.03.907,VisualSearch_2526_3,,2025.2.4,2026-02-18 12h28.04.112917 +0100,
vertical.xlsx,The target is tilted.,135,66,2,8,1,1,1,1,1,1,1,1,1,1,1,1,0,11,12,135,space,4.890940899999805,None,1,1,0.5891347000006135,None,space,2.2901874999997744,None,0,0,0,1,,,,,8,2,66,0,153.88193030000002,,,,,,,,,,,,,,,,,,,,,153.86657770000056,153.88193030000002,154.36534790000042,154.37030250000043,154.3839023999999,154.98255460000019,,,,,154.98274709999987,154.99759840000024,155.19778000000042,155.1818131,154.3839023999999,,,,,,,,1,1,0.5891347000006135,None,,,,,,,,886,22,M,R,2026-02-18_12h28.03.907,VisualSearch_2526_3,,2025.2.4,2026-02-18 12h28.04.112917 +0100,
vertical.xlsx,The target is tilted.,135,67,3,8,1,1,1,1,0,0,0,0,0,0,0,0,0,3,4,135,space,4.890940899999805,None,1,1,0.5602617000004102,None,space,2.2901874999997744,None,0,0,0,1,,,,,8,3,67,2,155.19778000000042,,,,,,,,,,,,,,,,,,,,,155.18257340000036,155.19778000000042,155.68166509999992,155.68653450000056,155.70156120000047,156.26504230000046,,,,,156.26523929999985,156.28023089999988,156.4807522000001,156.46461369999997,155.70156120000047,,,,,,,,1,1,0.5602617000004102,None,,,,,,,,886,22,M,R,2026-02-18_12h28.03.907,VisualSearch_2526_3,,2025.2.4,2026-02-18 12h28.04.112917 +0100,
vertical.xlsx,The target is tilted.,135,68,4,8,0,1,1,1,1,1,1,1,1,1,1,1,1,11,12,135,space,4.890940899999805,None,0,1,1.93302119999953,None,space,2.2901874999997744,None,0,0,0,1,,,,,8,4,68,4,156.4807522000001,,,,,,,,,,,,,,,,,,,,,156.46535399999993,156.4807522000001,156.96450809999988,156.96940050000012,156.98650290000023,158.93051819999982,,,,,158.93069530000048,158.9458365999999,159.1462104000002,159.1300151000005,156.98650290000023,,,,,,,,0,1,1.93302119999953,None,,,,,,,,886,22,M,R,2026-02-18_12h28.03.907,VisualSearch_2526_3,,2025.2.4,2026-02-18 12h28.04.112917 +0100,
vertical.xlsx,The target is tilted.,135,69,5,8,0,0,0,0,0,0,0,0,0,0,0,0,1,1,1,135,space,4.890940899999805,None,0,1,0.5676942999998573,None,space,2.2901874999997744,None,0,0,0,1,,,,,8,5,69,7,159.1462104000002,,,,,,,,,,,,,,,,,,,,,159.13080249999985,159.1462104000002,159.63009299999976,159.63541690000056,159.6500477999998,160.22937400000046,,,,,160.22955980000006,160.24515080000037,160.4456785000002,160.42942390000007,159.6500477999998,,,,,,,,0,1,0.5676942999998573,None,,,,,,,,886,22,M,R,2026-02-18_12h28.03.907,VisualSearch_2526_3,,2025.2.4,2026-02-18 12h28.04.112917 +0100,
vertical.xlsx,The target is tilted.,135,70,6,8,0,1,1,1,0,0,0,0,0,0,0,0,1,3,4,135,space,4.890940899999805,None,0,1,0.7731665999999677,None,space,2.2901874999997744,None,0,0,0,1,,,,,8,6,70,6,160.4456785000002,,,,,,,,,,,,,,,,,,,,,160.43017969999983,160.4456785000002,160.9291060000005,160.93397689999983,160.94793990000016,161.72911509999994,,,,,161.72927419999996,161.74450950000028,161.94498139999996,161.9284333000005,160.94793990000016,,,,,,,,0,1,0.7731665999999677,None,,,,,,,,886,22,M,R,2026-02-18_12h28.03.907,VisualSearch_2526_3,,2025.2.4,2026-02-18 12h28.04.112917 +0100,
vertical.xlsx,The target is tilted.,135,71,7,8,0,1,1,1,1,1,1,1,0,0,0,0,1,7,8,135,space,4.890940899999805,None,0,1,1.5466612999998688,None,space,2.2901874999997744,None,0,0,0,1,,,,,8,7,71,5,161.94498139999996,,,,,,,,,,,,,,,,,,,,,161.92917970000053,161.94498139999996,162.42821220000042,162.43299660000048,162.44522229999984,163.99514139999974,,,,,163.9953673,164.0100579,164.21048820000033,164.19445710000036,162.44522229999984,,,,,,,,0,1,1.5466612999998688,None,,,,,,,,886,22,M,R,2026-02-18_12h28.03.907,VisualSearch_2526_3,,2025.2.4,2026-02-18 12h28.04.112917 +0100,
vertical.xlsx,The target is tilted.,135,72,0,9,1,1,1,1,0,0,0,0,0,0,0,0,0,3,4,135,space,4.890940899999805,None,1,1,0.5798508999996557,None,space,2.2901874999997744,None,0,0,0,1,,,,,9,0,72,2,164.21048820000033,,,,,,,,,,,,,,,,,,,,,164.1952293000004,164.21048820000033,164.69441280000046,164.69914289999997,164.71543399999973,165.31014190000042,,,,,165.31027300000005,165.32617570000002,165.5265841999999,165.51052249999975,164.71543399999973,,,,,,,,1,1,0.5798508999996557,None,,,,,,,,886,22,M,R,2026-02-18_12h28.03.907,VisualSearch_2526_3,,2025.2.4,2026-02-18 12h28.04.112917 +0100,
vertical.xlsx,The target is tilted.,135,73,1,9,0,1,1,1,0,0,0,0,0,0,0,0,1,3,4,135,space,4.890940899999805,None,0,1,0.4735542999997051,None,space,2.2901874999997744,None,0,0,0,1,,,,,9,1,73,6,165.5265841999999,,,,,,,,,,,,,,,,,,,,,165.51130170000033,165.5265841999999,166.01019580000047,166.01494230000026,166.02909999999974,166.51119389999985,,,,,166.51151240000036,166.5257505999998,166.72617189999983,166.70994599999995,166.02909999999974,,,,,,,,0,1,0.4735542999997051,None,,,,,,,,886,22,M,R,2026-02-18_12h28.03.907,VisualSearch_2526_3,,2025.2.4,2026-02-18 12h28.04.112917 +0100,
vertical.xlsx,The target is tilted.,135,74,2,9,0,1,1,1,1,1,1,1,1,1,1,1,1,11,12,135,space,4.890940899999805,None,1,0,0.8137502999998105,None,space,2.2901874999997744,None,0,0,0,1,,,,,9,2,74,4,166.72617189999983,,,,,,,,,,,,,,,,,,,,,166.7106803000006,166.72617189999983,167.2097278000001,167.21444530000008,167.23015740000028,168.05925630000002,,,,,168.05947410000044,168.0750251999998,168.27548279999974,168.2592276000005,167.23015740000028,,,,,,,,1,0,0.8137502999998105,None,,,,,,,,886,22,M,R,2026-02-18_12h28.03.907,VisualSearch_2526_3,,2025.2.4,2026-02-18 12h28.04.112917 +0100,
vertical.xlsx,The target is tilted.,135,75,3,9,1,0,0,0,0,0,0,0,0,0,0,0,0,0,1,135,space,4.890940899999805,None,0,0,0.43248210000001563,None,space,2.2901874999997744,None,0,0,0,1,,,,,9,3,75,3,168.27548279999974,,,,,,,,,,,,,,,,,,,,,168.2599909999999,168.27548279999974,168.75887220000004,168.7636564000004,168.77736920000007,169.22505749999982,,,,,169.22519040000043,169.24111979999998,169.44157350000023,169.42542839999987,168.77736920000007,,,,,,,,0,0,0.43248210000001563,None,,,,,,,,886,22,M,R,2026-02-18_12h28.03.907,VisualSearch_2526_3,,2025.2.4,2026-02-18 12h28.04.112917 +0100,
vertical.xlsx,The target is tilted.,135,76,4,9,0,1,1,1,1,1,1,1,0,0,0,0,1,7,8,135,space,4.890940899999805,None,0,1,0.9010137999994186,None,space,2.2901874999997744,None,0,0,0,1,,,,,9,4,76,5,169.44157350000023,,,,,,,,,,,,,,,,,,,,,169.42619120000018,169.44157350000023,169.92525380000006,169.9300500999998,169.94627010000022,170.8587477000001,,,,,170.85894180000014,170.87371090000033,171.07418740000048,171.05806519999987,169.94627010000022,,,,,,,,0,1,0.9010137999994186,None,,,,,,,,886,22,M,R,2026-02-18_12h28.03.907,VisualSearch_2526_3,,2025.2.4,2026-02-18 12h28.04.112917 +0100,
vertical.xlsx,The target is tilted.,135,77,5,9,1,1,1,1,1,1,1,1,0,0,0,0,0,7,8,135,space,4.890940899999805,None,1,1,0.7223391000006814,None,space,2.2901874999997744,None,0,0,0,1,,,,,9,5,77,1,171.07418740000048,,,,,,,,,,,,,,,,,,,,,171.05879319999985,171.07418740000048,171.55771340000047,171.56267939999998,171.5776248000002,172.3075071000003,,,,,172.30767819999983,172.3230622000001,172.52356090000012,172.5076570000001,171.5776248000002,,,,,,,,1,1,0.7223391000006814,None,,,,,,,,886,22,M,R,2026-02-18_12h28.03.907,VisualSearch_2526_3,,2025.2.4,2026-02-18 12h28.04.112917 +0100,
vertical.xlsx,The target is tilted.,135,78,6,9,0,0,0,0,0,0,0,0,0,0,0,0,1,1,1,135,space,4.890940899999805,None,0,1,0.4314116000005015,None,space,2.2901874999997744,None,0,0,0,1,,,,,9,6,78,7,172.52356090000012,,,,,,,,,,,,,,,,,,,,,172.508734,172.52356090000012,173.00718770000003,173.0119805000004,173.02735029999985,173.47352580000006,,,,,173.473747,173.48919170000045,173.68958629999997,173.6736636000005,173.02735029999985,,,,,,,,0,1,0.4314116000005015,None,,,,,,,,886,22,M,R,2026-02-18_12h28.03.907,VisualSearch_2526_3,,2025.2.4,2026-02-18 12h28.04.112917 +0100,
vertical.xlsx,The target is tilted.,135,79,7,9,1,1,1,1,1,1,1,1,1,1,1,1,0,11,12,135,space,4.890940899999805,None,1,1,1.0108126999994056,None,space,2.2901874999997744,None,0,0,0,1,,,,,9,7,79,0,173.68958629999997,,,,,,,,,,,,,,,,,,,,,173.67442579999988,173.68958629999997,174.17280579999988,174.17760850000013,174.1915570000001,175.20592899999974,,,,,175.2060732,175.2216167000006,175.4222888000004,175.40598020000016,174.1915570000001,,,,,,,,1,1,1.0108126999994056,None,,,,,,,,886,22,M,R,2026-02-18_12h28.03.907,VisualSearch_2526_3,,2025.2.4,2026-02-18 12h28.04.112917 +0100,
vertical.xlsx,The target is tilted.,135,80,0,10,1,1,1,1,1,1,1,1,1,1,1,1,0,11,12,135,space,4.890940899999805,None,1,1,0.6069847999997364,None,space,2.2901874999997744,None,0,0,0,1,,,,,10,0,80,0,175.4222888000004,,,,,,,,,,,,,,,,,,,,,175.4067240000004,175.4222888000004,175.9060610000006,175.9107313000004,175.9212634000005,176.5386610000005,,,,,176.53879469999993,176.5544789000005,176.75493920000008,176.73841020000054,175.9212634000005,,,,,,,,1,1,0.6069847999997364,None,,,,,,,,886,22,M,R,2026-02-18_12h28.03.907,VisualSearch_2526_3,,2025.2.4,2026-02-18 12h28.04.112917 +0100,
vertical.xlsx,The target is tilted.,135,81,1,10,0,0,0,0,0,0,0,0,0,0,0,0,1,1,1,135,space,4.890940899999805,None,0,1,0.42380099999991216,None,space,2.2901874999997744,None,0,0,0,1,,,,,10,1,81,7,176.75493920000008,,,,,,,,,,,,,,,,,,,,,176.73920660000022,176.75493920000008,177.23852690000058,177.24324810000053,177.2572312000002,177.68880360000003,,,,,177.68899750000037,177.7039292999998,177.9044168999999,177.88820459999988,177.2572312000002,,,,,,,,0,1,0.42380099999991216,None,,,,,,,,886,22,M,R,2026-02-18_12h28.03.907,VisualSearch_2526_3,,2025.2.4,2026-02-18 12h28.04.112917 +0100,
vertical.xlsx,The target is tilted.,135,82,2,10,0,1,1,1,1,1,1,1,0,0,0,0,1,7,8,135,space,4.890940899999805,None,0,1,0.9571912999999768,None,space,2.2901874999997744,None,0,0,0,1,,,,,10,2,82,5,177.9044168999999,,,,,,,,,,,,,,,,,,,,,177.8889847999999,177.9044168999999,178.38799310000013,178.39275689999977,178.4075472000004,179.37091820000023,,,,,179.3710947999998,179.38653369999975,179.58697660000053,179.5707008999998,178.4075472000004,,,,,,,,0,1,0.9571912999999768,None,,,,,,,,886,22,M,R,2026-02-18_12h28.03.907,VisualSearch_2526_3,,2025.2.4,2026-02-18 12h28.04.112917 +0100,
vertical.xlsx,The target is tilted.,135,83,3,10,0,1,1,1,0,0,0,0,0,0,0,0,1,3,4,135,space,4.890940899999805,None,0,1,0.4527600999999777,None,space,2.2901874999997744,None,0,0,0,1,,,,,10,3,83,6,179.58697660000053,,,,,,,,,,,,,,,,,,,,,179.5714465000001,179.58697660000053,180.07055560000026,180.07537289999982,180.09259370000018,180.55428260000008,,,,,180.55457470000056,180.56966590000047,180.76939500000026,180.75349350000033,180.09259370000018,,,,,,,,0,1,0.4527600999999777,None,,,,,,,,886,22,M,R,2026-02-18_12h28.03.907,VisualSearch_2526_3,,2025.2.4,2026-02-18 12h28.04.112917 +0100,
vertical.xlsx,The target is tilted.,135,84,4,10,1,1,1,1,1,1,1,1,0,0,0,0,0,7,8,135,space,4.890940899999805,None,1,1,0.6989229999999225,None,space,2.2901874999997744,None,0,0,0,1,,,,,10,4,84,1,180.76939500000026,,,,,,,,,,,,,,,,,,,,,180.75422789999993,180.76939500000026,181.25337860000036,181.2581639,181.27169130000038,181.98697150000044,,,,,181.9871935000001,182.0024682000003,182.20234320000054,182.1863960999999,181.27169130000038,,,,,,,,1,1,0.6989229999999225,None,,,,,,,,886,22,M,R,2026-02-18_12h28.03.907,VisualSearch_2526_3,,2025.2.4,2026-02-18 12h28.04.112917 +0100,
vertical.xlsx,The target is tilted.,135,85,5,10,1,0,0,0,0,0,0,0,0,0,0,0,0,0,1,135,space,4.890940899999805,None,1,1,0.4186325000000579,None,space,2.2901874999997744,None,0,0,0,1,,,,,10,5,85,3,182.20234320000054,,,,,,,,,,,,,,,,,,,,,182.1870942000005,182.20234320000054,182.68626390000009,182.69127000000026,182.70613130000038,183.13613970000006,,,,,183.13631129999976,183.1519358000005,183.35195829999975,183.33572569999978,182.70613130000038,,,,,,,,1,1,0.4186325000000579,None,,,,,,,,886,22,M,R,2026-02-18_12h28.03.907,VisualSearch_2526_3,,2025.2.4,2026-02-18 12h28.04.112917 +0100,
vertical.xlsx,The target is tilted.,135,86,6,10,1,1,1,1,0,0,0,0,0,0,0,0,0,3,4,135,space,4.890940899999805,None,1,1,0.6477413000002343,None,space,2.2901874999997744,None,0,0,0,1,,,,,10,6,86,2,183.35195829999975,,,,,,,,,,,,,,,,,,,,,183.33650660000058,183.35195829999975,183.83541830000013,183.84020390000023,183.8544122000003,184.51863409999987,,,,,184.51880830000027,184.53461530000004,184.73457010000038,184.71812169999976,183.8544122000003,,,,,,,,1,1,0.6477413000002343,None,,,,,,,,886,22,M,R,2026-02-18_12h28.03.907,VisualSearch_2526_3,,2025.2.4,2026-02-18 12h28.04.112917 +0100,
vertical.xlsx,The target is tilted.,135,87,7,10,0,1,1,1,1,1,1,1,1,1,1,1,1,11,12,135,space,4.890940899999805,None,0,1,1.2993649999998524,None,space,2.2901874999997744,None,0,0,0,1,,,,,10,7,87,4,184.73457010000038,,,,,,,,,,,,,,,,,,,,,184.7189403000002,184.73457010000038,185.21826899999996,185.22300950000044,185.23857279999993,186.55155999999988,,,,,186.55175510000026,186.56714620000002,186.76709589999973,186.7508115999999,185.23857279999993,,,,,,,,0,1,1.2993649999998524,None,,,,,,,,886,22,M,R,2026-02-18_12h28.03.907,VisualSearch_2526_3,,2025.2.4,2026-02-18 12h28.04.112917 +0100,
vertical.xlsx,The target is tilted.,135,88,0,11,0,0,0,0,0,0,0,0,0,0,0,0,1,1,1,135,space,4.890940899999805,None,0,1,0.3500991000000795,None,space,2.2901874999997744,None,0,0,0,1,,,,,11,0,88,7,186.76709589999973,,,,,,,,,,,,,,,,,,,,,186.7515602000003,186.76709589999973,187.2506685999997,187.2554067000001,187.2691663000005,187.63403740000012,,,,,187.63417320000008,187.64985539999998,187.84989289999976,187.8338659000001,187.2691663000005,,,,,,,,0,1,0.3500991000000795,None,,,,,,,,886,22,M,R,2026-02-18_12h28.03.907,VisualSearch_2526_3,,2025.2.4,2026-02-18 12h28.04.112917 +0100,
vertical.xlsx,The target is tilted.,135,89,1,11,0,1,1,1,0,0,0,0,0,0,0,0,1,3,4,135,space,4.890940899999805,None,0,1,0.4668130000000019,None,space,2.2901874999997744,None,0,0,0,1,,,,,11,1,89,6,187.84989289999976,,,,,,,,,,,,,,,,,,,,,187.83469510000032,187.84989289999976,188.3332908000002,188.33796799999982,188.3527264000004,188.83379669999977,,,,,188.83397119999972,188.84939740000027,189.04926530000012,189.03315680000014,188.3527264000004,,,,,,,,0,1,0.4668130000000019,None,,,,,,,,886,22,M,R,2026-02-18_12h28.03.907,VisualSearch_2526_3,,2025.2.4,2026-02-18 12h28.04.112917 +0100,
vertical.xlsx,The target is tilted.,135,90,2,11,1,0,0,0,0,0,0,0,0,0,0,0,0,0,1,135,space,4.890940899999805,None,0,0,0.3334426999999778,None,space,2.2901874999997744,None,0,0,0,1,,,,,11,2,90,3,189.04926530000012,,,,,,,,,,,,,,,,,,,,,189.0339200999997,189.04926530000012,189.53317590000006,189.53830170000037,189.55261280000013,189.89968219999992,,,,,189.89984730000015,189.9155453000003,190.11558380000042,190.0992881000002,189.55261280000013,,,,,,,,0,0,0.3334426999999778,None,,,,,,,,886,22,M,R,2026-02-18_12h28.03.907,VisualSearch_2526_3,,2025.2.4,2026-02-18 12h28.04.112917 +0100,
vertical.xlsx,The target is tilted.,135,91,3,11,0,1,1,1,1,1,1,1,1,1,1,1,1,11,12,135,space,4.890940899999805,None,0,1,1.6014641000001575,None,space,2.2901874999997744,None,0,0,0,1,,,,,11,3,91,4,190.11558380000042,,,,,,,,,,,,,,,,,,,,,190.10003959999995,190.11558380000042,190.5991979999999,190.60419150000052,190.61510120000003,192.23228370000015,,,,,192.23247450000054,192.24761820000003,192.4477168000003,192.43160090000038,190.61510120000003,,,,,,,,0,1,1.6014641000001575,None,,,,,,,,886,22,M,R,2026-02-18_12h28.03.907,VisualSearch_2526_3,,2025.2.4,2026-02-18 12h28.04.112917 +0100,
vertical.xlsx,The target is tilted.,135,92,4,11,1,1,1,1,0,0,0,0,0,0,0,0,0,3,4,135,space,4.890940899999805,None,1,1,0.4585832000002483,None,space,2.2901874999997744,None,0,0,0,1,,,,,11,4,92,2,192.4477168000003,,,,,,,,,,,,,,,,,,,,,192.43242910000026,192.4477168000003,192.9315402000002,192.93610439999975,192.94748530000015,193.41473150000002,,,,,193.41487190000043,193.43065980000029,193.63050040000053,193.61441420000028,192.94748530000015,,,,,,,,1,1,0.4585832000002483,None,,,,,,,,886,22,M,R,2026-02-18_12h28.03.907,VisualSearch_2526_3,,2025.2.4,2026-02-18 12h28.04.112917 +0100,
vertical.xlsx,The target is tilted.,135,93,5,11,1,1,1,1,1,1,1,1,1,1,1,1,0,11,12,135,space,4.890940899999805,None,1,1,1.3242393999998967,None,space,2.2901874999997744,None,0,0,0,1,,,,,11,5,93,0,193.63050040000053,,,,,,,,,,,,,,,,,,,,,193.61519520000002,193.63050040000053,194.11422010000024,194.11893469999995,194.1347493000003,195.46412690000034,,,,,195.4643332000005,195.47970880000048,195.6796204000002,195.66357059999973,194.1347493000003,,,,,,,,1,1,1.3242393999998967,None,,,,,,,,886,22,M,R,2026-02-18_12h28.03.907,VisualSearch_2526_3,,2025.2.4,2026-02-18 12h28.04.112917 +0100,
vertical.xlsx,The target is tilted.,135,94,6,11,0,1,1,1,1,1,1,1,0,0,0,0,1,7,8,135,space,4.890940899999805,None,0,1,0.9757816999999704,None,space,2.2901874999997744,None,0,0,0,1,,,,,11,6,94,5,195.6796204000002,,,,,,,,,,,,,,,,,,,,,195.6642885000001,195.6796204000002,196.16306820000045,196.16808850000052,196.1830770000006,197.1630251000006,,,,,197.16322750000018,197.17886910000016,197.37884810000014,197.3625745999998,196.1830770000006,,,,,,,,0,1,0.9757816999999704,None,,,,,,,,886,22,M,R,2026-02-18_12h28.03.907,VisualSearch_2526_3,,2025.2.4,2026-02-18 12h28.04.112917 +0100,
vertical.xlsx,The target is tilted.,135,95,7,11,1,1,1,1,1,1,1,1,0,0,0,0,0,7,8,135,space,4.890940899999805,None,1,1,0.6411529999995764,None,space,2.2901874999997744,None,0,0,0,1,,,,,11,7,95,1,197.37884810000014,,,,,,,,,,,,,,,,,,,,,197.36333269999977,197.37884810000014,197.86264519999986,197.8677035999999,197.8828536000001,198.5294358000001,,,,,198.52963439999985,198.54463110000052,198.74498670000048,198.72852349999994,197.8828536000001,,,,,,,,1,1,0.6411529999995764,None,,,,,,,,886,22,M,R,2026-02-18_12h28.03.907,VisualSearch_2526_3,,2025.2.4,2026-02-18 12h28.04.112917 +0100,
vertical.xlsx,The target is tilted.,135,96,0,12,1,1,1,1,1,1,1,1,1,1,1,1,0,11,12,135,space,4.890940899999805,None,1,1,0.6645312000000558,None,space,2.2901874999997744,None,0,0,0,1,,,,,12,0,96,0,198.74498670000048,,,,,,,,,,,,,,,,,,,,,198.72931880000033,198.74498670000048,199.22832190000008,199.2335235999999,199.2488297,199.92808810000042,,,,,199.92816519999997,199.9440808999998,200.14429029999974,200.12815990000036,199.2488297,,,,,,,,1,1,0.6645312000000558,None,,,,,,,,886,22,M,R,2026-02-18_12h28.03.907,VisualSearch_2526_3,,2025.2.4,2026-02-18 12h28.04.112917 +0100,
vertical.xlsx,The target is tilted.,135,97,1,12,1,1,1,1,1,1,1,1,0,0,0,0,0,7,8,135,space,4.890940899999805,None,1,1,0.6231582000000344,None,space,2.2901874999997744,None,0,0,0,1,,,,,12,1,97,1,200.14429029999974,,,,,,,,,,,,,,,,,,,,,200.1289195999998,200.14429029999974,200.62789909999992,200.63264479999998,200.6480349000003,201.27771660000053,,,,,201.2778586000004,201.2931195000001,201.49363510000057,201.4775881000005,200.6480349000003,,,,,,,,1,1,0.6231582000000344,None,,,,,,,,886,22,M,R,2026-02-18_12h28.03.907,VisualSearch_2526_3,,2025.2.4,2026-02-18 12h28.04.112917 +0100,
vertical.xlsx,The target is tilted.,135,98,2,12,0,1,1,1,1,1,1,1,1,1,1,1,1,11,12,135,space,4.890940899999805,None,0,1,1.5185198999997738,None,space,2.2901874999997744,None,0,0,0,1,,,,,12,2,98,4,201.49363510000057,,,,,,,,,,,,,,,,,,,,,201.47829720000027,201.49363510000057,201.97733440000047,201.98207379999985,201.99583940000048,203.52654710000024,,,,,203.52671220000047,203.54233699999986,203.74260500000037,203.72659320000002,201.99583940000048,,,,,,,,0,1,1.5185198999997738,None,,,,,,,,886,22,M,R,2026-02-18_12h28.03.907,VisualSearch_2526_3,,2025.2.4,2026-02-18 12h28.04.112917 +0100,
vertical.xlsx,The target is tilted.,135,99,3,12,1,1,1,1,0,0,0,0,0,0,0,0,0,3,4,135,space,4.890940899999805,None,1,1,0.4950754000001325,None,space,2.2901874999997744,None,0,0,0,1,,,,,12,3,99,2,203.74260500000037,,,,,,,,,,,,,,,,,,,,,203.72732240000005,203.74260500000037,204.22653319999972,204.23177880000003,204.2466712000005,204.74310010000045,,,,,204.7433043000001,204.7588136000004,204.95831700000053,204.94209279999995,204.2466712000005,,,,,,,,1,1,0.4950754000001325,None,,,,,,,,886,22,M,R,2026-02-18_12h28.03.907,VisualSearch_2526_3,,2025.2.4,2026-02-18 12h28.04.112917 +0100,
vertical.xlsx,The target is tilted.,135,100,4,12,0,1,1,1,1,1,1,1,0,0,0,0,1,7,8,135,space,4.890940899999805,None,0,1,0.8358877000000575,None,space,2.2901874999997744,None,0,0,0,1,,,,,12,4,100,5,204.95831700000053,,,,,,,,,,,,,,,,,,,,,204.94246930000008,204.95831700000053,205.44238640000003,205.44716849999986,205.46315270000014,206.30895150000015,,,,,206.3091446999997,206.32468880000033,206.5247687000001,206.50831540000036,205.46315270000014,,,,,,,,0,1,0.8358877000000575,None,,,,,,,,886,22,M,R,2026-02-18_12h28.03.907,VisualSearch_2526_3,,2025.2.4,2026-02-18 12h28.04.112917 +0100,
vertical.xlsx,The target is tilted.,135,101,5,12,0,1,1,1,0,0,0,0,0,0,0,0,1,3,4,135,space,4.890940899999805,None,0,1,0.5764681999999084,None,space,2.2901874999997744,None,0,0,0,1,,,,,12,5,101,6,206.5247687000001,,,,,,,,,,,,,,,,,,,,,206.5090809000003,206.5247687000001,207.00826860000052,207.0130423999999,207.0290554000003,207.6087922000006,,,,,207.60903260000032,207.62386370000058,207.8237135999998,207.8071015000005,207.0290554000003,,,,,,,,0,1,0.5764681999999084,None,,,,,,,,886,22,M,R,2026-02-18_12h28.03.907,VisualSearch_2526_3,,2025.2.4,2026-02-18 12h28.04.112917 +0100,
vertical.xlsx,The target is tilted.,135,102,6,12,0,0,0,0,0,0,0,0,0,0,0,0,1,1,1,135,space,4.890940899999805,None,0,1,0.4163816999998744,None,space,2.2901874999997744,None,0,0,0,1,,,,,12,6,102,7,207.8237135999998,,,,,,,,,,,,,,,,,,,,,207.8073814999998,207.8237135999998,208.30812740000056,208.31361650000053,208.3290437000005,208.75738980000006,,,,,208.75753450000047,208.77362360000006,208.97365150000041,208.9575052,208.3290437000005,,,,,,,,0,1,0.4163816999998744,None,,,,,,,,886,22,M,R,2026-02-18_12h28.03.907,VisualSearch_2526_3,,2025.2.4,2026-02-18 12h28.04.112917 +0100,
vertical.xlsx,The target is tilted.,135,103,7,12,1,0,0,0,0,0,0,0,0,0,0,0,0,0,1,135,space,4.890940899999805,None,1,1,0.48288769999999204,None,space,2.2901874999997744,None,0,0,0,1,,,,,12,7,103,3,208.97365150000041,,,,,,,,,,,,,,,,,,,,,208.9582459000003,208.97365150000041,209.45728490000056,209.46270970000023,209.47753740000007,209.97427659999994,,,,,209.97446820000005,209.98947599999974,210.1896923000004,210.17354810000052,209.47753740000007,,,,,,,,1,1,0.48288769999999204,None,,,,,,,,886,22,M,R,2026-02-18_12h28.03.907,VisualSearch_2526_3,,2025.2.4,2026-02-18 12h28.04.112917 +0100,
vertical.xlsx,The target is tilted.,135,104,0,13,1,1,1,1,1,1,1,1,1,1,1,1,0,11,12,135,space,4.890940899999805,None,1,1,0.41902980000031675,None,space,2.2901874999997744,None,0,0,0,1,,,,,13,0,104,0,210.1896923000004,,,,,,,,,,,,,,,,,,,,,210.17430310000054,210.1896923000004,210.67349540000032,210.67819370000052,210.68940800000018,211.12359470000047,,,,,211.1237688000001,211.139271,211.33919640000022,211.32314659999975,210.68940800000018,,,,,,,,1,1,0.41902980000031675,None,,,,,,,,886,22,M,R,2026-02-18_12h28.03.907,VisualSearch_2526_3,,2025.2.4,2026-02-18 12h28.04.112917 +0100,
vertical.xlsx,The target is tilted.,135,105,1,13,0,1,1,1,0,0,0,0,0,0,0,0,1,3,4,135,space,4.890940899999805,None,0,1,0.5957378000002791,None,space,2.2901874999997744,None,0,0,0,1,,,,,13,1,105,6,211.33919640000022,,,,,,,,,,,,,,,,,,,,,211.32386760000009,211.33919640000022,211.8227936000003,211.82754579999983,211.84216780000042,212.4397012999998,,,,,212.43990529999974,212.45525970000017,212.65527370000018,212.6389749,211.84216780000042,,,,,,,,0,1,0.5957378000002791,None,,,,,,,,886,22,M,R,2026-02-18_12h28.03.907,VisualSearch_2526_3,,2025.2.4,2026-02-18 12h28.04.112917 +0100,
vertical.xlsx,The target is tilted.,135,106,2,13,0,1,1,1,1,1,1,1,0,0,0,0,1,7,8,135,space,4.890940899999805,None,0,1,1.1415695000005144,None,space,2.2901874999997744,None,0,0,0,1,,,,,13,2,106,5,212.65527370000018,,,,,,,,,,,,,,,,,,,,,212.63971870000023,212.65527370000018,213.13866400000006,213.14210290000028,213.15454800000043,214.30558160000055,,,,,214.30578830000013,214.32103970000026,214.5210971000006,214.50506399999995,213.15454800000043,,,,,,,,0,1,1.1415695000005144,None,,,,,,,,886,22,M,R,2026-02-18_12h28.03.907,VisualSearch_2526_3,,2025.2.4,2026-02-18 12h28.04.112917 +0100,
vertical.xlsx,The target is tilted.,135,107,3,13,1,1,1,1,1,1,1,1,0,0,0,0,0,7,8,135,space,4.890940899999805,None,1,1,1.2055285999995249,None,space,2.2901874999997744,None,0,0,0,1,,,,,13,3,107,1,214.5210971000006,,,,,,,,,,,,,,,,,,,,,214.50578190000033,214.5210971000006,215.00476549999985,215.00953850000042,215.0241229000003,216.2375935,,,,,216.23771690000012,216.25354740000057,216.45353669999986,216.43747040000017,215.0241229000003,,,,,,,,1,1,1.2055285999995249,None,,,,,,,,886,22,M,R,2026-02-18_12h28.03.907,VisualSearch_2526_3,,2025.2.4,2026-02-18 12h28.04.112917 +0100,
vertical.xlsx,The target is tilted.,135,108,4,13,1,0,0,0,0,0,0,0,0,0,0,0,0,0,1,135,space,4.890940899999805,None,1,1,0.526394600000458,None,space,2.2901874999997744,None,0,0,0,1,,,,,13,4,108,3,216.45353669999986,,,,,,,,,,,,,,,,,,,,,216.43819320000057,216.45353669999986,216.93673860000035,216.93973300000016,216.95325000000048,217.48713640000005,,,,,217.48727080000026,217.5029273,217.7030364000002,217.68648219999977,216.95325000000048,,,,,,,,1,1,0.526394600000458,None,,,,,,,,886,22,M,R,2026-02-18_12h28.03.907,VisualSearch_2526_3,,2025.2.4,2026-02-18 12h28.04.112917 +0100,
vertical.xlsx,The target is tilted.,135,109,5,13,1,1,1,1,0,0,0,0,0,0,0,0,0,3,4,135,space,4.890940899999805,None,1,1,0.5334476999996696,None,space,2.2901874999997744,None,0,0,0,1,,,,,13,5,109,2,217.7030364000002,,,,,,,,,,,,,,,,,,,,,217.68723349999982,217.7030364000002,218.18680550000045,218.1915872999998,218.20666520000032,218.75362910000058,,,,,218.75382420000005,218.76924729999973,218.9691359999997,218.9529693000004,218.20666520000032,,,,,,,,1,1,0.5334476999996696,None,,,,,,,,886,22,M,R,2026-02-18_12h28.03.907,VisualSearch_2526_3,,2025.2.4,2026-02-18 12h28.04.112917 +0100,
vertical.xlsx,The target is tilted.,135,110,6,13,0,0,0,0,0,0,0,0,0,0,0,0,1,1,1,135,space,4.890940899999805,None,0,1,0.4916878000003635,None,space,2.2901874999997744,None,0,0,0,1,,,,,13,6,110,7,218.9691359999997,,,,,,,,,,,,,,,,,,,,,218.95379020000018,218.9691359999997,219.45277979999992,219.45748819999972,219.47270219999973,219.96973290000005,,,,,219.9699410000003,219.98487000000023,220.1852700999998,220.16921980000006,219.47270219999973,,,,,,,,0,1,0.4916878000003635,None,,,,,,,,886,22,M,R,2026-02-18_12h28.03.907,VisualSearch_2526_3,,2025.2.4,2026-02-18 12h28.04.112917 +0100,
vertical.xlsx,The target is tilted.,135,111,7,13,0,1,1,1,1,1,1,1,1,1,1,1,1,11,12,135,space,4.890940899999805,None,0,1,1.8837388000001738,None,space,2.2901874999997744,None,0,0,0,1,,,,,13,7,111,4,220.1852700999998,,,,,,,,,,,,,,,,,,,,,220.1700408000006,220.1852700999998,220.6688191000003,220.67355510000016,220.68726570000035,222.58495889999995,,,,,222.58512960000007,222.60076860000026,222.80021320000014,222.7845140999998,220.68726570000035,,,,,,,,0,1,1.8837388000001738,None,,,,,,,,886,22,M,R,2026-02-18_12h28.03.907,VisualSearch_2526_3,,2025.2.4,2026-02-18 12h28.04.112917 +0100,
vertical.xlsx,The target is tilted.,135,112,0,14,0,1,1,1,1,1,1,1,0,0,0,0,1,7,8,135,space,4.890940899999805,None,0,1,1.2106081000001723,None,space,2.2901874999997744,None,0,0,0,1,,,,,14,0,112,5,222.80021320000014,,,,,,,,,,,,,,,,,,,,,222.78527360000044,222.80021320000014,223.28438370000003,223.28903080000055,223.3041632000004,224.51782689999982,,,,,224.5180446000004,224.53320499999973,224.73320000000058,224.71713340000042,223.3041632000004,,,,,,,,0,1,1.2106081000001723,None,,,,,,,,886,22,M,R,2026-02-18_12h28.03.907,VisualSearch_2526_3,,2025.2.4,2026-02-18 12h28.04.112917 +0100,
vertical.xlsx,The target is tilted.,135,113,1,14,0,1,1,1,0,0,0,0,0,0,0,0,1,3,4,135,space,4.890940899999805,None,0,1,0.9371825999996872,None,space,2.2901874999997744,None,0,0,0,1,,,,,14,1,113,6,224.73320000000058,,,,,,,,,,,,,,,,,,,,,224.71796199999972,224.73320000000058,225.21698430000015,225.22226330000012,225.23763830000007,226.18348830000014,,,,,226.1836776,226.1987949000004,226.3989661000005,226.3829082000002,225.23763830000007,,,,,,,,0,1,0.9371825999996872,None,,,,,,,,886,22,M,R,2026-02-18_12h28.03.907,VisualSearch_2526_3,,2025.2.4,2026-02-18 12h28.04.112917 +0100,
vertical.xlsx,The target is tilted.,135,114,2,14,0,1,1,1,1,1,1,1,1,1,1,1,1,11,12,135,space,4.890940899999805,None,0,1,1.1580417999994097,None,space,2.2901874999997744,None,0,0,0,1,,,,,14,2,114,4,226.3989661000005,,,,,,,,,,,,,,,,,,,,,226.38369430000057,226.3989661000005,226.88273000000027,226.88743479999994,226.90271240000038,228.0656828000001,,,,,228.06584040000052,228.08152940000036,228.28164519999973,228.26535160000003,226.90271240000038,,,,,,,,0,1,1.1580417999994097,None,,,,,,,,886,22,M,R,2026-02-18_12h28.03.907,VisualSearch_2526_3,,2025.2.4,2026-02-18 12h28.04.112917 +0100,
vertical.xlsx,The target is tilted.,135,115,3,14,1,1,1,1,1,1,1,1,1,1,1,1,0,11,12,135,space,4.890940899999805,None,1,1,0.9149429999997665,None,space,2.2901874999997744,None,0,0,0,1,,,,,14,3,115,0,228.28164519999973,,,,,,,,,,,,,,,,,,,,,228.26611980000052,228.28164519999973,228.76527690000057,228.77004469999974,228.7850913000002,229.71451510000043,,,,,229.7146518999998,229.7307920000003,229.93067680000058,229.91431180000018,228.7850913000002,,,,,,,,1,1,0.9149429999997665,None,,,,,,,,886,22,M,R,2026-02-18_12h28.03.907,VisualSearch_2526_3,,2025.2.4,2026-02-18 12h28.04.112917 +0100,
vertical.xlsx,The target is tilted.,135,116,4,14,1,1,1,1,1,1,1,1,0,0,0,0,0,7,8,135,space,4.890940899999805,None,1,1,0.919816599999649,None,space,2.2901874999997744,None,0,0,0,1,,,,,14,4,116,1,229.93067680000058,,,,,,,,,,,,,,,,,,,,,229.91508239999985,229.93067680000058,230.41456540000036,230.4193782000002,230.43413039999996,231.36463259999982,,,,,231.3648247000001,231.38005010000052,231.57992900000045,231.56396229999973,230.43413039999996,,,,,,,,1,1,0.919816599999649,None,,,,,,,,886,22,M,R,2026-02-18_12h28.03.907,VisualSearch_2526_3,,2025.2.4,2026-02-18 12h28.04.112917 +0100,
vertical.xlsx,The target is tilted.,135,117,5,14,0,0,0,0,0,0,0,0,0,0,0,0,1,1,1,135,space,4.890940899999805,None,0,1,0.44242430000031163,None,space,2.2901874999997744,None,0,0,0,1,,,,,14,5,117,7,231.57992900000045,,,,,,,,,,,,,,,,,,,,,231.5647039000005,231.57992900000045,232.06365199999982,232.06899390000035,232.08321179999984,232.53057030000036,,,,,232.5307617999997,232.54593900000054,232.74625220000053,232.7299438,232.08321179999984,,,,,,,,0,1,0.44242430000031163,None,,,,,,,,886,22,M,R,2026-02-18_12h28.03.907,VisualSearch_2526_3,,2025.2.4,2026-02-18 12h28.04.112917 +0100,
vertical.xlsx,The target is tilted.,135,118,6,14,1,1,1,1,0,0,0,0,0,0,0,0,0,3,4,135,space,4.890940899999805,None,1,1,0.5686125000001994,None,space,2.2901874999997744,None,0,0,0,1,,,,,14,6,118,2,232.74625220000053,,,,,,,,,,,,,,,,,,,,,232.7307007999998,232.74625220000053,233.22951860000012,233.2342878999998,233.24852050000027,233.83013089999986,,,,,233.8303291000002,233.84564880000016,234.0456578000003,234.02945509999972,233.24852050000027,,,,,,,,1,1,0.5686125000001994,None,,,,,,,,886,22,M,R,2026-02-18_12h28.03.907,VisualSearch_2526_3,,2025.2.4,2026-02-18 12h28.04.112917 +0100,
vertical.xlsx,The target is tilted.,135,119,7,14,1,0,0,0,0,0,0,0,0,0,0,0,0,0,1,135,space,4.890940899999805,None,1,1,0.49125029999959224,None,space,2.2901874999997744,None,0,0,0,1,,,,,14,7,119,3,234.0456578000003,,,,,,,,,,,,,,,,,,,,,234.03023980000034,234.0456578000003,234.5290689000003,234.5338298000006,234.54852720000054,235.04590650000046,,,,,235.0460960999999,235.06166060000032,235.2747215999998,235.24551770000016,234.54852720000054,,,,,,,,1,1,0.49125029999959224,None,,,,,,,,886,22,M,R,2026-02-18_12h28.03.907,VisualSearch_2526_3,,2025.2.4,2026-02-18 12h28.04.112917 +0100,
vertical.xlsx,The target is tilted.,135,0,0,0,,,,,,,,,,,,,,,,,space,4.890940899999805,None,,,,,space,2.2901874999997744,None,0,0,0,1,,,,,,,,,,,,,,,,,,,,,,,,,,,,,,,,,,,,,,,,,,,,,,,,,,,,,,,,,,,,,,,886,22,M,R,2026-02-18_12h28.03.907,VisualSearch_2526_3,,2025.2.4,2026-02-18 12h28.04.112917 +0100,
tilted.xlsx,The target is tilted.,117,0,0,0,1,1,1,1,1,1,1,1,1,1,1,1,0,11,12,117,space,3.4369001000004573,None,0,0,2.702510999999504,None,,,,0,1,1,0,0,0,0,0,,,,,238.7519640999999,,,,,,,,,,,,,,,235.2747215999998,235.2747215999998,235.2747215999998,space,3.4369001000004573,None,238.74848329999986,238.7519640999999,239.24321070000042,239.24808050000047,239.26090900000054,241.9765064000003,0,0,2.702510999999504,None,241.9767025000001,241.9919774,242.19193489999998,242.1757744000006,,,,,,,,,,,,,,,,,,,,886,22,M,R,2026-02-18_12h28.03.907,VisualSearch_2526_3,,2025.2.4,2026-02-18 12h28.04.112917 +0100,
tilted.xlsx,The target is tilted.,117,1,1,0,1,0,0,0,0,0,0,0,0,0,0,0,0,0,1,117,space,3.4369001000004573,None,1,1,0.49654090000058204,None,,,,0,1,1,0,0,1,1,3,,,,,242.19193489999998,,,,,,,,,,,,,,,,,,,,,242.17649170000004,242.19193489999998,242.67555420000008,242.6804006000002,242.69649089999984,243.2090573000005,1,1,0.49654090000058204,None,243.20924689999993,243.22470729999986,243.42469750000055,243.40821229999983,242.69649089999984,,,,,,,,,,,,,,,,,,,886,22,M,R,2026-02-18_12h28.03.907,VisualSearch_2526_3,,2025.2.4,2026-02-18 12h28.04.112917 +0100,
tilted.xlsx,The target is tilted.,117,2,2,0,0,1,1,1,1,1,1,1,1,1,1,1,1,11,12,117,space,3.4369001000004573,None,1,0,1.9185094000004028,None,,,,0,1,1,0,0,2,2,4,,,,,243.42469750000055,,,,,,,,,,,,,,,,,,,,,243.40889200000038,243.42469750000055,243.9079345,243.91271020000022,243.9261201999998,245.8575722000005,1,0,1.9185094000004028,None,245.8577038000003,245.87346479999997,246.07350899999983,246.0573734999998,243.9261201999998,,,,,,,,,,,,,,,,,,,886,22,M,R,2026-02-18_12h28.03.907,VisualSearch_2526_3,,2025.2.4,2026-02-18 12h28.04.112917 +0100,
tilted.xlsx,The target is tilted.,117,3,3,0,0,1,1,1,1,1,1,1,0,0,0,0,1,7,8,117,space,3.4369001000004573,None,1,0,0.6128769999995711,None,,,,0,1,1,0,0,3,3,5,,,,,246.07350899999983,,,,,,,,,,,,,,,,,,,,,246.05804630000057,246.07350899999983,246.5569303000002,246.5616203999998,246.57744420000017,247.20740100000057,1,0,0.6128769999995711,None,247.20758999999998,247.22258130000046,247.42239299999983,247.40676320000057,246.57744420000017,,,,,,,,,,,,,,,,,,,886,22,M,R,2026-02-18_12h28.03.907,VisualSearch_2526_3,,2025.2.4,2026-02-18 12h28.04.112917 +0100,
tilted.xlsx,The target is tilted.,117,4,4,0,0,0,0,0,0,0,0,0,0,0,0,0,1,1,1,117,space,3.4369001000004573,None,1,0,0.5266758999996455,None,,,,0,1,1,0,0,4,4,7,,,,,247.42239299999983,,,,,,,,,,,,,,,,,,,,,247.4074252999999,247.42239299999983,247.9061010000005,247.90817059999972,247.92256629999974,248.45636120000017,1,0,0.5266758999996455,None,248.45650079999996,248.47226460000002,248.67227360000015,248.65615359999993,247.92256629999974,,,,,,,,,,,,,,,,,,,886,22,M,R,2026-02-18_12h28.03.907,VisualSearch_2526_3,,2025.2.4,2026-02-18 12h28.04.112917 +0100,
tilted.xlsx,The target is tilted.,117,5,5,0,1,1,1,1,1,1,1,1,0,0,0,0,0,7,8,117,space,3.4369001000004573,None,1,1,0.7762884000003396,None,,,,0,1,1,0,0,5,5,1,,,,,248.67227360000015,,,,,,,,,,,,,,,,,,,,,248.65687660000003,248.67227360000015,249.15588600000046,249.1607187999998,249.17584780000016,249.9549734000002,1,1,0.7762884000003396,None,249.95504540000002,249.97129330000007,,250.1551645999998,249.17584780000016,,,,,,,,,,,,,,,,,,,886,22,M,R,2026-02-18_12h28.03.907,VisualSearch_2526_3,,2025.2.4,2026-02-18 12h28.04.112917 +0100,
tilted.xlsx,The target is tilted.,117,6,6,0,0,1,1,1,0,0,0,0,0,0,0,0,1,3,4,117,space,3.4369001000004573,None,0,1,0.7931448999997883,None,,,,0,1,1,0,0,6,6,6,,,,,250.17129449999993,,,,,,,,,,,,,,,,,,,,,250.15587500000038,250.17129449999993,250.65534900000057,250.66029739999976,250.67563340000015,251.47169759999997,0,1,0.7931448999997883,None,251.4718254999998,251.4875836000001,251.68724139999995,251.6712722000002,250.67563340000015,,,,,,,,,,,,,,,,,,,886,22,M,R,2026-02-18_12h28.03.907,VisualSearch_2526_3,,2025.2.4,2026-02-18 12h28.04.112917 +0100,
tilted.xlsx,The target is tilted.,117,7,7,0,1,1,1,1,0,0,0,0,0,0,0,0,0,3,4,117,space,3.4369001000004573,None,1,1,0.5331184999995457,None,,,,0,1,1,0,0,7,7,2,,,,,251.68724139999995,,,,,,,,,,,,,,,,,,,,,251.67195309999988,251.68724139999995,252.17144910000025,252.17653849999988,252.18991040000037,252.7377602000006,1,1,0.5331184999995457,None,252.73789149999993,252.75359970000045,252.9536423999998,252.93722200000047,252.18991040000037,,,,,,,,,,,,,,,,,,,886,22,M,R,2026-02-18_12h28.03.907,VisualSearch_2526_3,,2025.2.4,2026-02-18 12h28.04.112917 +0100,
tilted.xlsx,The target is tilted.,117,0,0,0,0,0,0,0,0,0,0,0,0,0,0,0,1,1,1,117,space,3.4369001000004573,None,0,1,0.6331554999997024,None,space,1.489394899999752,None,0,1,1,0,,,,,0,0,0,7,254.4827581999998,,,,,,,,,,,,,,,,,,,,,254.47890840000036,254.4827581999998,254.96967930000028,254.97434090000024,254.99227119999978,255.63650169999983,,,,,255.63665349999974,255.65201909999996,255.85235600000033,255.83624270000018,,252.94177970000055,252.9536423999998,252.9536423999998,254.4538451999997,space,1.489394899999752,None,0,1,0.6331554999997024,None,,,,,,,,886,22,M,R,2026-02-18_12h28.03.907,VisualSearch_2526_3,,2025.2.4,2026-02-18 12h28.04.112917 +0100,
tilted.xlsx,The target is tilted.,117,1,1,0,1,1,1,1,1,1,1,1,0,0,0,0,0,7,8,117,space,3.4369001000004573,None,1,1,1.8692005999992034,None,space,1.489394899999752,None,0,1,1,0,,,,,0,1,1,1,255.85235600000033,,,,,,,,,,,,,,,,,,,,,255.83698960000038,255.85235600000033,256.3359620000001,256.3407736999998,256.35644520000005,258.2355673000002,,,,,258.23574110000027,258.25123260000055,258.45107370000005,258.4350264000004,256.35644520000005,,,,,,,,1,1,1.8692005999992034,None,,,,,,,,886,22,M,R,2026-02-18_12h28.03.907,VisualSearch_2526_3,,2025.2.4,2026-02-18 12h28.04.112917 +0100,
tilted.xlsx,The target is tilted.,117,2,2,0,0,1,1,1,1,1,1,1,0,0,0,0,1,7,8,117,space,3.4369001000004573,None,1,0,0.9099545999997645,None,space,1.489394899999752,None,0,1,1,0,,,,,0,2,2,5,258.45107370000005,,,,,,,,,,,,,,,,,,,,,258.43580829999974,258.45107370000005,258.9344633999999,258.93701770000007,258.9508799000005,259.86759189999975,,,,,259.86768350000057,259.88355330000013,260.0838111000003,260.0676948999999,258.9508799000005,,,,,,,,1,0,0.9099545999997645,None,,,,,,,,886,22,M,R,2026-02-18_12h28.03.907,VisualSearch_2526_3,,2025.2.4,2026-02-18 12h28.04.112917 +0100,
tilted.xlsx,The target is tilted.,117,3,3,0,1,1,1,1,0,0,0,0,0,0,0,0,0,3,4,117,space,3.4369001000004573,None,1,1,0.8499346999997215,None,space,1.489394899999752,None,0,1,1,0,,,,,0,3,3,2,260.0838111000003,,,,,,,,,,,,,,,,,,,,,260.0684190000002,260.0838111000003,260.5674377000005,260.57214490000024,260.58751140000004,261.4505157000003,,,,,261.45064850000017,261.4661528000006,261.66643660000045,261.65019870000015,260.58751140000004,,,,,,,,1,1,0.8499346999997215,None,,,,,,,,886,22,M,R,2026-02-18_12h28.03.907,VisualSearch_2526_3,,2025.2.4,2026-02-18 12h28.04.112917 +0100,
tilted.xlsx,The target is tilted.,117,4,4,0,1,1,1,1,1,1,1,1,1,1,1,1,0,11,12,117,space,3.4369001000004573,None,1,1,0.9767537999996421,None,space,1.489394899999752,None,0,1,1,0,,,,,0,4,4,0,261.66643660000045,,,,,,,,,,,,,,,,,,,,,261.6509571000006,261.66643660000045,262.14970989999983,262.15435870000056,262.17017920000035,263.1501244000001,,,,,263.1503276000003,263.1656333000001,263.3657804000004,263.34958580000057,262.17017920000035,,,,,,,,1,1,0.9767537999996421,None,,,,,,,,886,22,M,R,2026-02-18_12h28.03.907,VisualSearch_2526_3,,2025.2.4,2026-02-18 12h28.04.112917 +0100,
tilted.xlsx,The target is tilted.,117,5,5,0,1,0,0,0,0,0,0,0,0,0,0,0,0,0,1,117,space,3.4369001000004573,None,1,1,0.46809269999994285,None,space,1.489394899999752,None,0,1,1,0,,,,,0,5,5,3,263.3657804000004,,,,,,,,,,,,,,,,,,,,,263.35046260000036,263.3657804000004,263.8491168999999,263.8538763000006,263.86861430000044,264.3494840000003,,,,,264.34967640000013,264.36502569999993,264.56483730000036,264.5487721999998,263.86861430000044,,,,,,,,1,1,0.46809269999994285,None,,,,,,,,886,22,M,R,2026-02-18_12h28.03.907,VisualSearch_2526_3,,2025.2.4,2026-02-18 12h28.04.112917 +0100,
tilted.xlsx,The target is tilted.,117,6,6,0,0,1,1,1,0,0,0,0,0,0,0,0,1,3,4,117,space,3.4369001000004573,None,0,1,0.9374417999997604,None,space,1.489394899999752,None,0,1,1,0,,,,,0,6,6,6,264.56483730000036,,,,,,,,,,,,,,,,,,,,,264.5494929000006,264.56483730000036,265.04837640000005,265.05315710000013,265.06824959999994,266.01516900000024,,,,,266.0153608999999,266.03096619999997,266.23101450000013,266.2148937000002,265.06824959999994,,,,,,,,0,1,0.9374417999997604,None,,,,,,,,886,22,M,R,2026-02-18_12h28.03.907,VisualSearch_2526_3,,2025.2.4,2026-02-18 12h28.04.112917 +0100,
tilted.xlsx,The target is tilted.,117,7,7,0,0,1,1,1,1,1,1,1,1,1,1,1,1,11,12,117,space,3.4369001000004573,None,1,0,1.7359765999999581,None,space,1.489394899999752,None,0,1,1,0,,,,,0,7,7,4,266.23101450000013,,,,,,,,,,,,,,,,,,,,,266.21560450000015,266.23101450000013,266.71470920000047,266.71944600000006,266.7356719999998,268.48047510000015,,,,,268.4806502000001,268.49644780000017,268.696594,268.68036420000044,266.7356719999998,,,,,,,,1,0,1.7359765999999581,None,,,,,,,,886,22,M,R,2026-02-18_12h28.03.907,VisualSearch_2526_3,,2025.2.4,2026-02-18 12h28.04.112917 +0100,
tilted.xlsx,The target is tilted.,117,8,0,1,0,0,0,0,0,0,0,0,0,0,0,0,1,1,1,117,space,3.4369001000004573,None,0,1,0.4439496999993935,None,space,1.489394899999752,None,0,1,1,0,,,,,1,0,8,7,268.696594,,,,,,,,,,,,,,,,,,,,,268.6811284000005,268.696594,269.1800751999999,269.18477710000025,269.19983130000037,269.64682189999985,,,,,269.64699370000017,269.6627004000002,269.86271560000023,269.8465630999999,269.19983130000037,,,,,,,,0,1,0.4439496999993935,None,,,,,,,,886,22,M,R,2026-02-18_12h28.03.907,VisualSearch_2526_3,,2025.2.4,2026-02-18 12h28.04.112917 +0100,
tilted.xlsx,The target is tilted.,117,9,1,1,1,0,0,0,0,0,0,0,0,0,0,0,0,0,1,117,space,3.4369001000004573,None,1,1,0.5351512000006551,None,space,1.489394899999752,None,0,1,1,0,,,,,1,1,9,3,269.86271560000023,,,,,,,,,,,,,,,,,,,,,269.8473419000002,269.86271560000023,270.3462782000006,270.3510071999999,270.3667651000005,270.91332330000023,,,,,270.91351230000055,270.9288088000003,271.1284228000004,271.11267300000054,270.3667651000005,,,,,,,,1,1,0.5351512000006551,None,,,,,,,,886,22,M,R,2026-02-18_12h28.03.907,VisualSearch_2526_3,,2025.2.4,2026-02-18 12h28.04.112917 +0100,
tilted.xlsx,The target is tilted.,117,10,2,1,0,1,1,1,1,1,1,1,0,0,0,0,1,7,8,117,space,3.4369001000004573,None,1,0,0.9505714999995689,None,space,1.489394899999752,None,0,1,1,0,,,,,1,2,10,5,271.1284228000004,,,,,,,,,,,,,,,,,,,,,271.1134092000002,271.1284228000004,271.6118416999998,271.61572760000035,271.6279715999999,272.59541270000045,,,,,272.59555869999986,272.6113574000001,272.8113321999999,272.7951272999999,271.6279715999999,,,,,,,,1,0,0.9505714999995689,None,,,,,,,,886,22,M,R,2026-02-18_12h28.03.907,VisualSearch_2526_3,,2025.2.4,2026-02-18 12h28.04.112917 +0100,
tilted.xlsx,The target is tilted.,117,11,3,1,0,1,1,1,1,1,1,1,1,1,1,1,1,11,12,117,space,3.4369001000004573,None,1,0,0.7665246000005936,None,space,1.489394899999752,None,0,1,1,0,,,,,1,3,11,4,272.8113321999999,,,,,,,,,,,,,,,,,,,,,272.79584650000015,272.8113321999999,273.2950335000005,273.2997701000004,273.3136953000003,274.0952195,,,,,274.09541640000043,274.1107026999998,274.31059060000007,274.29431079999995,273.3136953000003,,,,,,,,1,0,0.7665246000005936,None,,,,,,,,886,22,M,R,2026-02-18_12h28.03.907,VisualSearch_2526_3,,2025.2.4,2026-02-18 12h28.04.112917 +0100,
tilted.xlsx,The target is tilted.,117,12,4,1,1,1,1,1,0,0,0,0,0,0,0,0,0,3,4,117,space,3.4369001000004573,None,1,1,0.43220409999958065,None,space,1.489394899999752,None,0,1,1,0,,,,,1,4,12,2,274.31059060000007,,,,,,,,,,,,,,,,,,,,,274.2951786000003,274.31059060000007,274.7943981999997,274.7989975999999,274.8102789000004,275.2446181000005,,,,,275.24481079999987,275.2602887000003,275.46007400000053,275.4439628,274.8102789000004,,,,,,,,1,1,0.43220409999958065,None,,,,,,,,886,22,M,R,2026-02-18_12h28.03.907,VisualSearch_2526_3,,2025.2.4,2026-02-18 12h28.04.112917 +0100,
tilted.xlsx,The target is tilted.,117,13,5,1,0,1,1,1,0,0,0,0,0,0,0,0,1,3,4,117,space,3.4369001000004573,None,0,1,1.1924322000004395,None,space,1.489394899999752,None,0,1,1,0,,,,,1,5,13,6,275.46007400000053,,,,,,,,,,,,,,,,,,,,,275.4448104000003,275.46007400000053,275.9437889000001,275.9485887999999,275.96358060000057,277.16006089999973,,,,,277.16025210000043,277.1758663999999,277.3755706000002,277.35886070000015,275.96358060000057,,,,,,,,0,1,1.1924322000004395,None,,,,,,,,886,22,M,R,2026-02-18_12h28.03.907,VisualSearch_2526_3,,2025.2.4,2026-02-18 12h28.04.112917 +0100,
tilted.xlsx,The target is tilted.,117,14,6,1,1,1,1,1,1,1,1,1,1,1,1,1,0,11,12,117,space,3.4369001000004573,None,1,1,0.4787652999993952,None,space,1.489394899999752,None,0,1,1,0,,,,,1,6,14,0,277.3755706000002,,,,,,,,,,,,,,,,,,,,,277.35924739999973,277.3755706000002,277.85951449999993,277.8642774,277.8777392000002,278.3593944000004,,,,,278.35952820000057,278.3752577000005,278.57491410000057,278.55914810000013,277.8777392000002,,,,,,,,1,1,0.4787652999993952,None,,,,,,,,886,22,M,R,2026-02-18_12h28.03.907,VisualSearch_2526_3,,2025.2.4,2026-02-18 12h28.04.112917 +0100,
tilted.xlsx,The target is tilted.,117,15,7,1,1,1,1,1,1,1,1,1,0,0,0,0,0,7,8,117,space,3.4369001000004573,None,1,1,0.8389450000004217,None,space,1.489394899999752,None,0,1,1,0,,,,,1,7,15,1,278.57491410000057,,,,,,,,,,,,,,,,,,,,,278.55999820000034,278.57491410000057,279.0589689999997,279.06376050000017,279.0785112000003,279.92566700000043,,,,,279.92584110000007,279.94135840000035,280.1410106000003,280.1248620000006,279.0785112000003,,,,,,,,1,1,0.8389450000004217,None,,,,,,,,886,22,M,R,2026-02-18_12h28.03.907,VisualSearch_2526_3,,2025.2.4,2026-02-18 12h28.04.112917 +0100,
tilted.xlsx,The target is tilted.,117,16,0,2,1,1,1,1,1,1,1,1,0,0,0,0,0,7,8,117,space,3.4369001000004573,None,1,1,0.4938592999997127,None,space,1.489394899999752,None,0,1,1,0,,,,,2,0,16,1,280.1410106000003,,,,,,,,,,,,,,,,,,,,,280.12558739999986,280.1410106000003,280.62505370000054,280.62985410000056,280.6460920999998,281.14197590000003,,,,,281.1421841000001,281.1573057000005,281.35752260000027,281.3413221999999,280.6460920999998,,,,,,,,1,1,0.4938592999997127,None,,,,,,,,886,22,M,R,2026-02-18_12h28.03.907,VisualSearch_2526_3,,2025.2.4,2026-02-18 12h28.04.112917 +0100,
tilted.xlsx,The target is tilted.,117,17,1,2,0,1,1,1,1,1,1,1,1,1,1,1,1,11,12,117,space,3.4369001000004573,None,1,0,1.5074799000003622,None,space,1.489394899999752,None,0,1,1,0,,,,,2,1,17,4,281.35752260000027,,,,,,,,,,,,,,,,,,,,,281.3420850000002,281.35752260000027,281.84048950000033,281.8430451000004,281.8570601000001,283.3739445000001,,,,,283.37411520000023,283.3896712000005,283.58919440000045,283.5729476000006,281.8570601000001,,,,,,,,1,0,1.5074799000003622,None,,,,,,,,886,22,M,R,2026-02-18_12h28.03.907,VisualSearch_2526_3,,2025.2.4,2026-02-18 12h28.04.112917 +0100,
tilted.xlsx,The target is tilted.,117,18,2,2,0,1,1,1,1,1,1,1,0,0,0,0,1,7,8,117,space,3.4369001000004573,None,1,0,1.2036754999999175,None,space,1.489394899999752,None,0,1,1,0,,,,,2,2,18,5,283.58919440000045,,,,,,,,,,,,,,,,,,,,,283.5731986999999,283.58919440000045,284.07338720000007,284.07812490000015,284.0938541000005,285.30602030000045,,,,,285.30616530000043,285.3222716,285.5222982000005,285.5062334000004,284.0938541000005,,,,,,,,1,0,1.2036754999999175,None,,,,,,,,886,22,M,R,2026-02-18_12h28.03.907,VisualSearch_2526_3,,2025.2.4,2026-02-18 12h28.04.112917 +0100,
tilted.xlsx,The target is tilted.,117,19,3,2,1,0,0,0,0,0,0,0,0,0,0,0,0,0,1,117,space,3.4369001000004573,None,1,1,0.4935126999998829,None,space,1.489394899999752,None,0,1,1,0,,,,,2,3,19,3,285.5222982000005,,,,,,,,,,,,,,,,,,,,,285.50696229999994,285.5222982000005,286.0059403000005,286.0106259000004,286.02622820000033,286.5229438000006,,,,,286.52313680000043,286.53832969999985,286.7379966999997,286.7224044000004,286.02622820000033,,,,,,,,1,1,0.4935126999998829,None,,,,,,,,886,22,M,R,2026-02-18_12h28.03.907,VisualSearch_2526_3,,2025.2.4,2026-02-18 12h28.04.112917 +0100,
tilted.xlsx,The target is tilted.,117,20,4,2,1,1,1,1,0,0,0,0,0,0,0,0,0,3,4,117,space,3.4369001000004573,None,0,0,0.7968019999998432,None,space,1.489394899999752,None,0,1,1,0,,,,,2,4,20,2,286.7379966999997,,,,,,,,,,,,,,,,,,,,,286.72317079999993,286.7379966999997,287.22212670000044,287.22687589999987,287.2425342000006,288.0552158999999,,,,,288.0553528999999,288.07099650000055,288.2709875999999,288.25458700000036,287.2425342000006,,,,,,,,0,0,0.7968019999998432,None,,,,,,,,886,22,M,R,2026-02-18_12h28.03.907,VisualSearch_2526_3,,2025.2.4,2026-02-18 12h28.04.112917 +0100,
tilted.xlsx,The target is tilted.,117,21,5,2,0,1,1,1,0,0,0,0,0,0,0,0,1,3,4,117,space,3.4369001000004573,None,1,0,1.048176400000557,None,space,1.489394899999752,None,0,1,1,0,,,,,2,5,21,6,288.2709875999999,,,,,,,,,,,,,,,,,,,,,288.25535020000007,288.2709875999999,288.7547187,288.75946040000053,288.77550059999976,289.83756129999983,,,,,289.8377105999998,289.85345380000035,290.05366070000036,290.0375128000005,288.77550059999976,,,,,,,,1,0,1.048176400000557,None,,,,,,,,886,22,M,R,2026-02-18_12h28.03.907,VisualSearch_2526_3,,2025.2.4,2026-02-18 12h28.04.112917 +0100,
tilted.xlsx,The target is tilted.,117,22,6,2,0,0,0,0,0,0,0,0,0,0,0,0,1,1,1,117,space,3.4369001000004573,None,0,1,0.5151488999999856,None,space,1.489394899999752,None,0,1,1,0,,,,,2,6,22,7,290.05366070000036,,,,,,,,,,,,,,,,,,,,,290.0382760000002,290.05366070000036,290.5372226999998,290.5419023000004,290.55707429999984,291.08713290000014,,,,,291.08727929999986,291.1029972000006,291.3029510000006,291.2867968999999,290.55707429999984,,,,,,,,0,1,0.5151488999999856,None,,,,,,,,886,22,M,R,2026-02-18_12h28.03.907,VisualSearch_2526_3,,2025.2.4,2026-02-18 12h28.04.112917 +0100,
tilted.xlsx,The target is tilted.,117,23,7,2,1,1,1,1,1,1,1,1,1,1,1,1,0,11,12,117,space,3.4369001000004573,None,1,1,1.1271668999997928,None,space,1.489394899999752,None,0,1,1,0,,,,,2,7,23,0,291.3029510000006,,,,,,,,,,,,,,,,,,,,,291.2876078999998,291.3029510000006,291.78672280000046,291.79183850000027,291.8065774000006,292.93640810000034,,,,,292.9365893000004,292.9522199000003,293.1518590000005,293.1359733999998,291.8065774000006,,,,,,,,1,1,1.1271668999997928,None,,,,,,,,886,22,M,R,2026-02-18_12h28.03.907,VisualSearch_2526_3,,2025.2.4,2026-02-18 12h28.04.112917 +0100,
tilted.xlsx,The target is tilted.,117,24,0,3,1,1,1,1,0,0,0,0,0,0,0,0,0,3,4,117,space,3.4369001000004573,None,1,1,0.7609370000000126,None,space,1.489394899999752,None,0,1,1,0,,,,,3,0,24,2,293.1518590000005,,,,,,,,,,,,,,,,,,,,,293.13675030000013,293.1518590000005,293.63598530000036,293.6407889000002,293.6562838,294.41876109999976,,,,,294.41892160000043,294.43454569999994,294.63481390000015,294.6183658,293.6562838,,,,,,,,1,1,0.7609370000000126,None,,,,,,,,886,22,M,R,2026-02-18_12h28.03.907,VisualSearch_2526_3,,2025.2.4,2026-02-18 12h28.04.112917 +0100,
tilted.xlsx,The target is tilted.,117,25,1,3,0,1,1,1,1,1,1,1,0,0,0,0,1,7,8,117,space,3.4369001000004573,None,1,0,0.5745939999997063,None,space,1.489394899999752,None,0,1,1,0,,,,,3,1,25,5,294.63481390000015,,,,,,,,,,,,,,,,,,,,,294.6191187000004,294.63481390000015,295.1182542000006,295.12303190000057,295.13815410000007,295.71878130000005,,,,,295.7189739000005,295.73393060000035,295.9334542000006,295.9186491999999,295.13815410000007,,,,,,,,1,0,0.5745939999997063,None,,,,,,,,886,22,M,R,2026-02-18_12h28.03.907,VisualSearch_2526_3,,2025.2.4,2026-02-18 12h28.04.112917 +0100,
tilted.xlsx,The target is tilted.,117,26,2,3,1,1,1,1,1,1,1,1,0,0,0,0,0,7,8,117,space,3.4369001000004573,None,1,1,1.1972957999996652,None,space,1.489394899999752,None,0,1,1,0,,,,,3,2,26,1,295.9334542000006,,,,,,,,,,,,,,,,,,,,,295.9199348000002,295.9334542000006,296.4178657000002,296.4226300999999,296.43715340000017,297.65065589999995,,,,,297.6507818,297.6665211999998,297.8666204000001,297.8504761000004,296.43715340000017,,,,,,,,1,1,1.1972957999996652,None,,,,,,,,886,22,M,R,2026-02-18_12h28.03.907,VisualSearch_2526_3,,2025.2.4,2026-02-18 12h28.04.112917 +0100,
tilted.xlsx,The target is tilted.,117,27,3,3,0,1,1,1,1,1,1,1,1,1,1,1,1,11,12,117,space,3.4369001000004573,None,1,0,0.6617605999999796,None,space,1.489394899999752,None,0,1,1,0,,,,,3,3,27,4,297.8666204000001,,,,,,,,,,,,,,,,,,,,,297.8512974000005,297.8666204000001,298.3502344999997,298.35496930000045,298.37109169999985,299.05062009999983,,,,,299.05082180000045,299.0657680000004,299.26606730000003,299.2498581,298.37109169999985,,,,,,,,1,0,0.6617605999999796,None,,,,,,,,886,22,M,R,2026-02-18_12h28.03.907,VisualSearch_2526_3,,2025.2.4,2026-02-18 12h28.04.112917 +0100,
tilted.xlsx,The target is tilted.,117,28,4,3,1,0,0,0,0,0,0,0,0,0,0,0,0,0,1,117,space,3.4369001000004573,None,1,1,0.3784168000001955,None,space,1.489394899999752,None,0,1,1,0,,,,,3,4,28,3,299.26606730000003,,,,,,,,,,,,,,,,,,,,,299.25062830000024,299.26606730000003,299.74962570000025,299.75425390000055,299.76561240000046,300.1500543000002,,,,,300.15025979999973,300.16546800000015,300.3655822999999,300.3494161999997,299.76561240000046,,,,,,,,1,1,0.3784168000001955,None,,,,,,,,886,22,M,R,2026-02-18_12h28.03.907,VisualSearch_2526_3,,2025.2.4,2026-02-18 12h28.04.112917 +0100,
tilted.xlsx,The target is tilted.,117,29,5,3,0,0,0,0,0,0,0,0,0,0,0,0,1,1,1,117,space,3.4369001000004573,None,1,0,0.3728313999999955,None,space,1.489394899999752,None,0,1,1,0,,,,,3,5,29,7,300.3655822999999,,,,,,,,,,,,,,,,,,,,,300.3502668000001,300.3655822999999,300.84879660000024,300.85360200000014,300.86967280000044,301.2489174000002,,,,,301.24907669999993,301.2646727000001,301.46487799999977,301.44859180000003,300.86967280000044,,,,,,,,1,0,0.3728313999999955,None,,,,,,,,886,22,M,R,2026-02-18_12h28.03.907,VisualSearch_2526_3,,2025.2.4,2026-02-18 12h28.04.112917 +0100,
tilted.xlsx,The target is tilted.,117,30,6,3,1,1,1,1,1,1,1,1,1,1,1,1,0,11,12,117,space,3.4369001000004573,None,1,1,0.6029986000003191,None,space,1.489394899999752,None,0,1,1,0,,,,,3,6,30,0,301.46487799999977,,,,,,,,,,,,,,,,,,,,,301.4493553000002,301.46487799999977,301.94802830000026,301.9518214,301.9665547000004,302.58220450000044,,,,,302.5823969000003,302.59783210000023,302.7976942000005,302.7815416000003,301.9665547000004,,,,,,,,1,1,0.6029986000003191,None,,,,,,,,886,22,M,R,2026-02-18_12h28.03.907,VisualSearch_2526_3,,2025.2.4,2026-02-18 12h28.04.112917 +0100,
tilted.xlsx,The target is tilted.,117,31,7,3,0,1,1,1,0,0,0,0,0,0,0,0,1,3,4,117,space,3.4369001000004573,None,0,1,0.9884339000000182,None,space,1.489394899999752,None,0,1,1,0,,,,,3,7,31,6,302.7976942000005,,,,,,,,,,,,,,,,,,,,,302.78229530000044,302.7976942000005,303.2815341000005,303.2867053,303.30005359999996,304.29741379999996,,,,,304.2975392999997,304.3135090000005,304.5136151000006,304.49746180000056,303.30005359999996,,,,,,,,0,1,0.9884339000000182,None,,,,,,,,886,22,M,R,2026-02-18_12h28.03.907,VisualSearch_2526_3,,2025.2.4,2026-02-18 12h28.04.112917 +0100,
tilted.xlsx,The target is tilted.,117,32,0,4,1,1,1,1,1,1,1,1,1,1,1,1,0,11,12,117,space,3.4369001000004573,None,1,1,0.8144430000002103,None,space,1.489394899999752,None,0,1,1,0,,,,,4,0,32,0,304.5136151000006,,,,,,,,,,,,,,,,,,,,,304.4982292000004,304.5136151000006,304.99739339999996,305.00205090000054,305.0132957000005,305.8308882000001,,,,,305.83102229999986,305.8458920000003,306.0461839999998,306.0297707,305.0132957000005,,,,,,,,1,1,0.8144430000002103,None,,,,,,,,886,22,M,R,2026-02-18_12h28.03.907,VisualSearch_2526_3,,2025.2.4,2026-02-18 12h28.04.112917 +0100,
