file_name,block_instructions,target_example,thisN,thisTrialN,thisRepN,target_presence,opacity_1,opacity_2,opacity_3,opacity_4,opacity_5,opacity_6,opacity_7,opacity_8,opacity_9,opacity_10,opacity_11,opacity_12,n_distract,n_items,target_ori,key_resp_4.keys,key_resp_4.rt,key_resp_4.duration,key_resp.keys,key_resp.corr,key_resp.rt,key_resp.duration,key_resp_5.keys,key_resp_5.rt,key_resp_5.duration,blocks.thisRepN,blocks.thisTrialN,blocks.thisN,blocks.thisIndex,practice_trials.thisRepN,practice_trials.thisTrialN,practice_trials.thisN,practice_trials.thisIndex,trials.thisRepN,trials.thisTrialN,trials.thisN,trials.thisIndex,thisRow.t,notes,Welcome.started,WelcomeText.started,key_resp_2.started,Welcome.stopped,key_resp_2.keys,key_resp_2.rt,key_resp_2.duration,InformedConsent.started,text_4.started,InformedConsent.stopped,key_resp_6.keys,key_resp_6.rt,key_resp_6.duration,key_resp_4.started,example_target.started,text_3.started,blocks.key_resp_4.keys,blocks.key_resp_4.rt,blocks.key_resp_4.duration,FixCross.started,fixCross.started,FixCross.stopped,Stimulus.started,key_resp.started,Stimulus.stopped,practice_trials.key_resp.keys,practice_trials.key_resp.corr,practice_trials.key_resp.rt,practice_trials.key_resp.duration,BlankScreen.started,text.started,text.stopped,BlankScreen.stopped,fixCross.stopped,ExperimentStart.started,text_2.started,key_resp_5.started,ExperimentStart.stopped,blocks.key_resp_5.keys,blocks.key_resp_5.rt,blocks.key_resp_5.duration,trials.key_resp.keys,trials.key_resp.corr,trials.key_resp.rt,trials.key_resp.duration,Thanks.started,ThankYou.started,key_resp_3.started,Thanks.stopped,key_resp_3.keys,key_resp_3.rt,key_resp_3.duration,participant,leeftijd,gender,links/rechtshandig,date,expName,expVersion,psychopyVersion,expStart,
,,,,,,,,,,,,,,,,,,,,,,,,,,,,,,,,,,,,,,,,,,,,,,0.02828189999991082,0.039063700000042445,0.039063700000042445,19.186181999999917,space,19.14580109999997,None,,,,,,,,,,,,,,,,,,,,,,,,,,,,,,,,,,,,,,,,,,,,,,886,26,M,R,2026-02-25_11h40.36.919,VisualSearch_2526_3,,2025.2.4,2026-02-25 11h40.37.131585 +0100,
,,,,,,,,,,,,,,,,,,,,,,,,,,,,,,,,,,,,,,,,,,,,,,,,,,,,,19.18636349999997,19.201660700000048,25.01685120000002,y,5.818469199999981,None,,,,,,,,,,,,,,,,,,,,,,,,,,,,,,,,,,,,,,,,886,26,M,R,2026-02-25_11h40.36.919,VisualSearch_2526_3,,2025.2.4,2026-02-25 11h40.37.131585 +0100,
vertical.xlsx,The target is tilted.,135,0,0,0,1,1,1,1,1,1,1,1,1,1,1,1,0,11,12,135,space,4.582063299999845,None,1,1,2.5483046999997896,None,,,,0,0,0,1,0,0,0,0,,,,,29.67202180000004,,,,,,,,,,,,,,,25.05435690000013,25.05435690000013,25.05435690000013,space,4.582063299999845,None,29.667186799999854,29.67202180000004,30.163363300000128,30.168013299999984,30.179552800000238,32.72963830000026,1,1,2.5483046999997896,None,32.729834799999935,32.744696300000214,32.944931200000156,32.928717400000096,,,,,,,,,,,,,,,,,,,,886,26,M,R,2026-02-25_11h40.36.919,VisualSearch_2526_3,,2025.2.4,2026-02-25 11h40.37.131585 +0100,
vertical.xlsx,The target is tilted.,135,1,1,0,1,1,1,1,0,0,0,0,0,0,0,0,0,3,4,135,space,4.582063299999845,None,1,1,0.8603942999998253,None,,,,0,0,0,1,0,1,1,2,,,,,32.944931200000156,,,,,,,,,,,,,,,,,,,,,32.92914490000021,32.944931200000156,33.42881149999994,33.433364699999856,33.4485681000001,34.312036100000114,1,1,0.8603942999998253,None,34.31224490000022,34.32722790000025,34.527766000000156,34.51151230000005,33.4485681000001,,,,,,,,,,,,,,,,,,,886,26,M,R,2026-02-25_11h40.36.919,VisualSearch_2526_3,,2025.2.4,2026-02-25 11h40.37.131585 +0100,
vertical.xlsx,The target is tilted.,135,2,2,0,0,1,1,1,1,1,1,1,0,0,0,0,1,7,8,135,space,4.582063299999845,None,0,1,2.306705100000272,None,,,,0,0,0,1,0,2,2,5,,,,,34.527766000000156,,,,,,,,,,,,,,,,,,,,,34.51221399999986,34.527766000000156,35.01151320000008,35.01606549999997,35.03222189999997,37.343458100000134,0,1,2.306705100000272,None,37.34354089999988,37.359045400000014,37.55971529999988,37.54374779999989,35.03222189999997,,,,,,,,,,,,,,,,,,,886,26,M,R,2026-02-25_11h40.36.919,VisualSearch_2526_3,,2025.2.4,2026-02-25 11h40.37.131585 +0100,
vertical.xlsx,The target is tilted.,135,3,3,0,1,1,1,1,1,1,1,1,0,0,0,0,0,7,8,135,space,4.582063299999845,None,0,0,1.5088211000002048,None,,,,0,0,0,1,0,3,3,1,,,,,37.55971529999988,,,,,,,,,,,,,,,,,,,,,37.54450080000015,37.55971529999988,38.043169099999886,38.047751999999946,38.062255899999855,39.57596590000003,0,0,1.5088211000002048,None,39.57609270000012,39.59146559999999,39.791893900000105,39.77570390000028,38.062255899999855,,,,,,,,,,,,,,,,,,,886,26,M,R,2026-02-25_11h40.36.919,VisualSearch_2526_3,,2025.2.4,2026-02-25 11h40.37.131585 +0100,
vertical.xlsx,The target is tilted.,135,4,4,0,1,0,0,0,0,0,0,0,0,0,0,0,0,0,1,135,space,4.582063299999845,None,1,1,0.5838307999997596,None,,,,0,0,0,1,0,4,4,3,,,,,39.791893900000105,,,,,,,,,,,,,,,,,,,,,39.77640190000011,39.791893900000105,40.275270399999954,40.279886799999986,40.29497489999994,40.8918263999999,1,1,0.5838307999997596,None,40.89195120000022,40.90743599999996,41.10813559999997,41.09153270000024,40.29497489999994,,,,,,,,,,,,,,,,,,,886,26,M,R,2026-02-25_11h40.36.919,VisualSearch_2526_3,,2025.2.4,2026-02-25 11h40.37.131585 +0100,
vertical.xlsx,The target is tilted.,135,5,5,0,0,0,0,0,0,0,0,0,0,0,0,0,1,1,1,135,space,4.582063299999845,None,0,1,1.3404456000002938,None,,,,0,0,0,1,0,5,5,7,,,,,41.10813559999997,,,,,,,,,,,,,,,,,,,,,41.092222499999934,41.10813559999997,41.591736200000014,41.59640760000002,41.61012810000011,42.95787969999992,0,1,1.3404456000002938,None,42.95807150000019,42.973383999999896,43.173716700000114,43.157193200000165,41.61012810000011,,,,,,,,,,,,,,,,,,,886,26,M,R,2026-02-25_11h40.36.919,VisualSearch_2526_3,,2025.2.4,2026-02-25 11h40.37.131585 +0100,
vertical.xlsx,The target is tilted.,135,6,6,0,0,1,1,1,1,1,1,1,1,1,1,1,1,11,12,135,space,4.582063299999845,None,0,1,2.8514304000000266,None,,,,0,0,0,1,0,6,6,4,,,,,43.173716700000114,,,,,,,,,,,,,,,,,,,,,43.157860000000255,43.173716700000114,43.65749880000021,43.6622067000003,43.67731869999989,46.54001150000022,0,1,2.8514304000000266,None,46.54020579999997,46.55504980000023,46.75520420000021,46.738996699999916,43.67731869999989,,,,,,,,,,,,,,,,,,,886,26,M,R,2026-02-25_11h40.36.919,VisualSearch_2526_3,,2025.2.4,2026-02-25 11h40.37.131585 +0100,
vertical.xlsx,The target is tilted.,135,7,7,0,0,1,1,1,0,0,0,0,0,0,0,0,1,3,4,135,space,4.582063299999845,None,0,1,1.6081782999999632,None,,,,0,0,0,1,0,7,7,6,,,,,46.75520420000021,,,,,,,,,,,,,,,,,,,,,46.73947959999987,46.75520420000021,47.23875570000018,47.243462400000226,47.25794410000026,48.87127580000015,0,1,1.6081782999999632,None,48.8713759000002,48.88716599999998,49.087587800000165,49.071324000000004,47.25794410000026,,,,,,,,,,,,,,,,,,,886,26,M,R,2026-02-25_11h40.36.919,VisualSearch_2526_3,,2025.2.4,2026-02-25 11h40.37.131585 +0100,
vertical.xlsx,The target is tilted.,135,0,0,0,0,0,0,0,0,0,0,0,0,0,0,0,1,1,1,135,space,4.582063299999845,None,0,1,1.7481650999998237,None,space,2.0226542000000336,None,0,0,0,1,,,,,0,0,0,7,51.14884860000029,,,,,,,,,,,,,,,,,,,,,51.145125200000166,51.14884860000029,51.63693480000029,51.641600299999936,51.656449800000246,53.419587599999886,,,,,53.41972889999988,53.435158799999954,53.635713399999986,53.61955829999988,,49.07827159999988,49.087587800000165,49.087587800000165,51.12112939999997,space,2.0226542000000336,None,0,1,1.7481650999998237,None,,,,,,,,886,26,M,R,2026-02-25_11h40.36.919,VisualSearch_2526_3,,2025.2.4,2026-02-25 11h40.37.131585 +0100,
vertical.xlsx,The target is tilted.,135,1,1,0,1,0,0,0,0,0,0,0,0,0,0,0,0,0,1,135,space,4.582063299999845,None,1,1,0.8067253999997774,None,space,2.0226542000000336,None,0,0,0,1,,,,,0,1,1,3,53.635713399999986,,,,,,,,,,,,,,,,,,,,,53.620288600000094,53.635713399999986,54.119228999999905,54.124001000000135,54.13845309999988,54.95249039999999,,,,,54.95269570000028,54.96787919999997,55.168387000000166,55.15186560000029,54.13845309999988,,,,,,,,1,1,0.8067253999997774,None,,,,,,,,886,26,M,R,2026-02-25_11h40.36.919,VisualSearch_2526_3,,2025.2.4,2026-02-25 11h40.37.131585 +0100,
vertical.xlsx,The target is tilted.,135,2,2,0,1,1,1,1,0,0,0,0,0,0,0,0,0,3,4,135,space,4.582063299999845,None,1,1,0.7237982999999986,None,space,2.0226542000000336,None,0,0,0,1,,,,,0,2,2,2,55.168387000000166,,,,,,,,,,,,,,,,,,,,,55.152618300000086,55.168387000000166,55.651910099999895,55.656560100000206,55.67066569999997,56.40230250000013,,,,,56.40251080000007,56.41724350000004,56.61770260000003,56.60158290000027,55.67066569999997,,,,,,,,1,1,0.7237982999999986,None,,,,,,,,886,26,M,R,2026-02-25_11h40.36.919,VisualSearch_2526_3,,2025.2.4,2026-02-25 11h40.37.131585 +0100,
vertical.xlsx,The target is tilted.,135,3,3,0,1,1,1,1,1,1,1,1,1,1,1,1,0,11,12,135,space,4.582063299999845,None,1,1,1.4033355000001393,None,space,2.0226542000000336,None,0,0,0,1,,,,,0,3,3,0,56.61770260000003,,,,,,,,,,,,,,,,,,,,,56.60231870000007,56.61770260000003,57.101561500000116,57.10621059999994,57.12197079999987,58.53483129999995,,,,,58.53504720000001,58.54956089999996,58.7500629000001,58.73393410000017,57.12197079999987,,,,,,,,1,1,1.4033355000001393,None,,,,,,,,886,26,M,R,2026-02-25_11h40.36.919,VisualSearch_2526_3,,2025.2.4,2026-02-25 11h40.37.131585 +0100,
vertical.xlsx,The target is tilted.,135,4,4,0,0,1,1,1,1,1,1,1,0,0,0,0,1,7,8,135,space,4.582063299999845,None,0,1,1.2833418000000165,None,space,2.0226542000000336,None,0,0,0,1,,,,,0,4,4,5,58.7500629000001,,,,,,,,,,,,,,,,,,,,,58.73470069999985,58.7500629000001,59.23362410000027,59.2381819000002,59.254814700000225,60.54972140000018,,,,,60.549905899999885,60.56532680000009,60.7657678999999,60.74964520000003,59.254814700000225,,,,,,,,0,1,1.2833418000000165,None,,,,,,,,886,26,M,R,2026-02-25_11h40.36.919,VisualSearch_2526_3,,2025.2.4,2026-02-25 11h40.37.131585 +0100,
vertical.xlsx,The target is tilted.,135,5,5,0,1,1,1,1,1,1,1,1,0,0,0,0,0,7,8,135,space,4.582063299999845,None,1,1,1.4395888000003652,None,space,2.0226542000000336,None,0,0,0,1,,,,,0,5,5,1,60.7657678999999,,,,,,,,,,,,,,,,,,,,,60.7503971000001,60.7657678999999,61.249736400000074,61.25439289999986,61.270420300000296,62.714933199999905,,,,,62.71503530000018,62.73073410000006,62.931235500000184,62.915328300000056,61.270420300000296,,,,,,,,1,1,1.4395888000003652,None,,,,,,,,886,26,M,R,2026-02-25_11h40.36.919,VisualSearch_2526_3,,2025.2.4,2026-02-25 11h40.37.131585 +0100,
vertical.xlsx,The target is tilted.,135,6,6,0,0,1,1,1,0,0,0,0,0,0,0,0,1,3,4,135,space,4.582063299999845,None,0,1,0.7656889999998384,None,space,2.0226542000000336,None,0,0,0,1,,,,,0,6,6,6,62.931235500000184,,,,,,,,,,,,,,,,,,,,,62.91607860000022,62.931235500000184,63.41519939999989,63.41982319999988,63.434882500000185,64.2150617000002,,,,,64.21524750000026,64.23024010000017,64.43088100000023,64.41471480000018,63.434882500000185,,,,,,,,0,1,0.7656889999998384,None,,,,,,,,886,26,M,R,2026-02-25_11h40.36.919,VisualSearch_2526_3,,2025.2.4,2026-02-25 11h40.37.131585 +0100,
vertical.xlsx,The target is tilted.,135,7,7,0,0,1,1,1,1,1,1,1,1,1,1,1,1,11,12,135,space,4.582063299999845,None,0,1,1.9088553000001411,None,space,2.0226542000000336,None,0,0,0,1,,,,,0,7,7,4,64.43088100000023,,,,,,,,,,,,,,,,,,,,,64.41546730000027,64.43088100000023,64.91366270000026,64.91551819999995,64.9299702000003,66.8471211000001,,,,,66.84733660000029,66.86245770000005,67.06280830000014,67.04682720000028,64.9299702000003,,,,,,,,0,1,1.9088553000001411,None,,,,,,,,886,26,M,R,2026-02-25_11h40.36.919,VisualSearch_2526_3,,2025.2.4,2026-02-25 11h40.37.131585 +0100,
vertical.xlsx,The target is tilted.,135,8,0,1,1,0,0,0,0,0,0,0,0,0,0,0,0,0,1,135,space,4.582063299999845,None,1,1,0.5760745999996288,None,space,2.0226542000000336,None,0,0,0,1,,,,,1,0,8,3,67.06280830000014,,,,,,,,,,,,,,,,,,,,,67.04765739999993,67.06280830000014,67.54660719999993,67.55120549999992,67.5644814000002,68.14684510000006,,,,,68.14706190000015,68.16184800000019,68.36224290000018,68.3461298000002,67.5644814000002,,,,,,,,1,1,0.5760745999996288,None,,,,,,,,886,26,M,R,2026-02-25_11h40.36.919,VisualSearch_2526_3,,2025.2.4,2026-02-25 11h40.37.131585 +0100,
vertical.xlsx,The target is tilted.,135,9,1,1,0,1,1,1,1,1,1,1,0,0,0,0,1,7,8,135,space,4.582063299999845,None,1,0,1.7388073000001896,None,space,2.0226542000000336,None,0,0,0,1,,,,,1,1,9,5,68.36224290000018,,,,,,,,,,,,,,,,,,,,,68.3468957,68.36224290000018,68.84599639999988,68.85064790000024,68.86530850000008,70.61240989999988,,,,,70.61261390000027,70.62734150000006,70.82782510000015,70.8117285000003,68.86530850000008,,,,,,,,1,0,1.7388073000001896,None,,,,,,,,886,26,M,R,2026-02-25_11h40.36.919,VisualSearch_2526_3,,2025.2.4,2026-02-25 11h40.37.131585 +0100,
vertical.xlsx,The target is tilted.,135,10,2,1,1,1,1,1,0,0,0,0,0,0,0,0,0,3,4,135,space,4.582063299999845,None,1,1,0.6709090000003926,None,space,2.0226542000000336,None,0,0,0,1,,,,,1,2,10,2,70.82782510000015,,,,,,,,,,,,,,,,,,,,,70.81245669999998,70.82782510000015,71.31155750000016,71.31612559999985,71.33217939999986,72.01192149999997,,,,,72.01217279999992,72.02681600000005,72.2272097,72.21114390000002,71.33217939999986,,,,,,,,1,1,0.6709090000003926,None,,,,,,,,886,26,M,R,2026-02-25_11h40.36.919,VisualSearch_2526_3,,2025.2.4,2026-02-25 11h40.37.131585 +0100,
vertical.xlsx,The target is tilted.,135,11,3,1,0,0,0,0,0,0,0,0,0,0,0,0,1,1,1,135,space,4.582063299999845,None,0,1,1.1749611000000186,None,space,2.0226542000000336,None,0,0,0,1,,,,,1,3,11,7,72.2272097,,,,,,,,,,,,,,,,,,,,,72.21187980000013,72.2272097,72.71099950000007,72.71570380000003,72.73117580000007,73.91010529999994,,,,,73.9101853000002,73.92582690000017,74.12635399999999,74.11025070000005,72.73117580000007,,,,,,,,0,1,1.1749611000000186,None,,,,,,,,886,26,M,R,2026-02-25_11h40.36.919,VisualSearch_2526_3,,2025.2.4,2026-02-25 11h40.37.131585 +0100,
vertical.xlsx,The target is tilted.,135,12,4,1,1,1,1,1,1,1,1,1,1,1,1,1,0,11,12,135,space,4.582063299999845,None,1,1,1.3625600999998824,None,space,2.0226542000000336,None,0,0,0,1,,,,,1,4,12,0,74.12635399999999,,,,,,,,,,,,,,,,,,,,,74.11101480000025,74.12635399999999,74.61004920000005,74.6145934000001,74.63064560000021,76.00866919999999,,,,,76.0087840000001,76.02519630000006,,76.20907299999999,74.63064560000021,,,,,,,,1,1,1.3625600999998824,None,,,,,,,,886,26,M,R,2026-02-25_11h40.36.919,VisualSearch_2526_3,,2025.2.4,2026-02-25 11h40.37.131585 +0100,
vertical.xlsx,The target is tilted.,135,13,5,1,0,1,1,1,1,1,1,1,1,1,1,1,1,11,12,135,space,4.582063299999845,None,0,1,1.2396413000001303,None,space,2.0226542000000336,None,0,0,0,1,,,,,1,5,13,4,76.2254396000003,,,,,,,,,,,,,,,,,,,,,76.20985259999998,76.2254396000003,76.70913329999985,76.7137329000002,76.72822829999996,77.97571449999987,,,,,77.97591620000003,77.99075730000004,78.19074339999997,78.1751091000001,76.72822829999996,,,,,,,,0,1,1.2396413000001303,None,,,,,,,,886,26,M,R,2026-02-25_11h40.36.919,VisualSearch_2526_3,,2025.2.4,2026-02-25 11h40.37.131585 +0100,
vertical.xlsx,The target is tilted.,135,14,6,1,1,1,1,1,1,1,1,1,0,0,0,0,0,7,8,135,space,4.582063299999845,None,0,0,1.546370300000035,None,space,2.0226542000000336,None,0,0,0,1,,,,,1,6,14,1,78.19074339999997,,,,,,,,,,,,,,,,,,,,,78.17582889999994,78.19074339999997,78.67478930000016,78.6794402999999,78.69306989999995,80.24129560000029,,,,,80.24151510000002,80.25632559999985,80.45668699999987,80.44096470000022,78.69306989999995,,,,,,,,0,0,1.546370300000035,None,,,,,,,,886,26,M,R,2026-02-25_11h40.36.919,VisualSearch_2526_3,,2025.2.4,2026-02-25 11h40.37.131585 +0100,
vertical.xlsx,The target is tilted.,135,15,7,1,0,1,1,1,0,0,0,0,0,0,0,0,1,3,4,135,space,4.582063299999845,None,0,1,1.2553327999999055,None,space,2.0226542000000336,None,0,0,0,1,,,,,1,7,15,6,80.45668699999987,,,,,,,,,,,,,,,,,,,,,80.44171869999991,80.45668699999987,80.94050049999987,80.94505650000019,80.95977249999987,82.22280760000012,,,,,82.2229198,82.2386775,82.43921480000017,82.42312690000017,80.95977249999987,,,,,,,,0,1,1.2553327999999055,None,,,,,,,,886,26,M,R,2026-02-25_11h40.36.919,VisualSearch_2526_3,,2025.2.4,2026-02-25 11h40.37.131585 +0100,
vertical.xlsx,The target is tilted.,135,16,0,2,1,1,1,1,1,1,1,1,0,0,0,0,0,7,8,135,space,4.582063299999845,None,1,1,0.8621511999999711,None,space,2.0226542000000336,None,0,0,0,1,,,,,2,0,16,1,82.43921480000017,,,,,,,,,,,,,,,,,,,,,82.42387310000004,82.43921480000017,82.92229420000012,82.92507560000013,82.93878320000022,83.8063674,,,,,83.80658540000013,83.82141709999996,84.0215717000001,84.00537059999988,82.93878320000022,,,,,,,,1,1,0.8621511999999711,None,,,,,,,,886,26,M,R,2026-02-25_11h40.36.919,VisualSearch_2526_3,,2025.2.4,2026-02-25 11h40.37.131585 +0100,
vertical.xlsx,The target is tilted.,135,17,1,2,0,0,0,0,0,0,0,0,0,0,0,0,1,1,1,135,space,4.582063299999845,None,0,1,0.7293195000002015,None,space,2.0226542000000336,None,0,0,0,1,,,,,2,1,17,7,84.0215717000001,,,,,,,,,,,,,,,,,,,,,84.00611789999994,84.0215717000001,84.50555480000003,84.51037260000021,84.52597670000023,85.27110889999994,,,,,85.27121230000012,85.28777799999989,,85.47150250000004,84.52597670000023,,,,,,,,0,1,0.7293195000002015,None,,,,,,,,886,26,M,R,2026-02-25_11h40.36.919,VisualSearch_2526_3,,2025.2.4,2026-02-25 11h40.37.131585 +0100,
vertical.xlsx,The target is tilted.,135,18,2,2,0,1,1,1,0,0,0,0,0,0,0,0,1,3,4,135,space,4.582063299999845,None,0,1,0.9467773999999736,None,space,2.0226542000000336,None,0,0,0,1,,,,,2,2,18,6,85.48796110000012,,,,,,,,,,,,,,,,,,,,,85.4722799000001,85.48796110000012,85.97113040000022,85.97575850000021,85.9915031999999,86.95406439999988,,,,,86.9541892000002,86.9703413000002,87.17005019999988,87.1542386000001,85.9915031999999,,,,,,,,0,1,0.9467773999999736,None,,,,,,,,886,26,M,R,2026-02-25_11h40.36.919,VisualSearch_2526_3,,2025.2.4,2026-02-25 11h40.37.131585 +0100,
vertical.xlsx,The target is tilted.,135,19,3,2,0,1,1,1,1,1,1,1,1,1,1,1,1,11,12,135,space,4.582063299999845,None,0,1,0.8310196000002179,None,space,2.0226542000000336,None,0,0,0,1,,,,,2,3,19,4,87.17005019999988,,,,,,,,,,,,,,,,,,,,,87.1549973000001,87.17005019999988,87.65405540000029,87.65864569999985,87.67272550000007,88.52008060000026,,,,,88.52026030000025,88.53586380000024,88.73612000000003,88.72034900000017,87.67272550000007,,,,,,,,0,1,0.8310196000002179,None,,,,,,,,886,26,M,R,2026-02-25_11h40.36.919,VisualSearch_2526_3,,2025.2.4,2026-02-25 11h40.37.131585 +0100,
vertical.xlsx,The target is tilted.,135,20,4,2,0,1,1,1,1,1,1,1,0,0,0,0,1,7,8,135,space,4.582063299999845,None,0,1,1.2894389999996747,None,space,2.0226542000000336,None,0,0,0,1,,,,,2,4,20,5,88.73612000000003,,,,,,,,,,,,,,,,,,,,,88.7210528999999,88.73612000000003,89.21968250000009,89.22425460000022,89.23935389999997,90.53651050000008,,,,,90.53671250000025,90.55171730000029,90.7518829999999,90.73587120000002,89.23935389999997,,,,,,,,0,1,1.2894389999996747,None,,,,,,,,886,26,M,R,2026-02-25_11h40.36.919,VisualSearch_2526_3,,2025.2.4,2026-02-25 11h40.37.131585 +0100,
vertical.xlsx,The target is tilted.,135,21,5,2,1,1,1,1,0,0,0,0,0,0,0,0,0,3,4,135,space,4.582063299999845,None,1,1,0.9533495000000585,None,space,2.0226542000000336,None,0,0,0,1,,,,,2,5,21,2,90.7518829999999,,,,,,,,,,,,,,,,,,,,,90.73662999999988,90.7518829999999,91.23586460000024,91.24053649999996,91.25618919999988,92.21917489999987,,,,,92.21937950000029,92.23422600000004,92.4346031,92.41856680000001,91.25618919999988,,,,,,,,1,1,0.9533495000000585,None,,,,,,,,886,26,M,R,2026-02-25_11h40.36.919,VisualSearch_2526_3,,2025.2.4,2026-02-25 11h40.37.131585 +0100,
vertical.xlsx,The target is tilted.,135,22,6,2,1,0,0,0,0,0,0,0,0,0,0,0,0,0,1,135,space,4.582063299999845,None,1,1,0.5536023999998179,None,space,2.0226542000000336,None,0,0,0,1,,,,,2,6,22,3,92.4346031,,,,,,,,,,,,,,,,,,,,,92.41927470000019,92.4346031,92.91833369999995,92.92288730000018,92.93700320000016,93.50150380000014,,,,,93.50166810000019,93.51700919999985,93.71740829999999,93.70095900000024,92.93700320000016,,,,,,,,1,1,0.5536023999998179,None,,,,,,,,886,26,M,R,2026-02-25_11h40.36.919,VisualSearch_2526_3,,2025.2.4,2026-02-25 11h40.37.131585 +0100,
vertical.xlsx,The target is tilted.,135,23,7,2,1,1,1,1,1,1,1,1,1,1,1,1,0,11,12,135,space,4.582063299999845,None,1,1,0.6188011999997798,None,space,2.0226542000000336,None,0,0,0,1,,,,,2,7,23,0,93.71740829999999,,,,,,,,,,,,,,,,,,,,,93.70170510000025,93.71740829999999,94.20014979999996,94.20217880000018,94.21709330000022,94.8506354000001,,,,,94.85086910000018,94.8664045999999,95.0663955,95.05068329999995,94.21709330000022,,,,,,,,1,1,0.6188011999997798,None,,,,,,,,886,26,M,R,2026-02-25_11h40.36.919,VisualSearch_2526_3,,2025.2.4,2026-02-25 11h40.37.131585 +0100,
vertical.xlsx,The target is tilted.,135,24,0,3,0,1,1,1,1,1,1,1,0,0,0,0,1,7,8,135,space,4.582063299999845,None,0,1,1.431696799999827,None,space,2.0226542000000336,None,0,0,0,1,,,,,3,0,24,5,95.0663955,,,,,,,,,,,,,,,,,,,,,95.05139379999991,95.0663955,95.55058640000016,95.55523570000014,95.57037209999999,97.01632109999991,,,,,97.01651270000002,97.03201100000024,97.23247760000004,97.21637940000028,95.57037209999999,,,,,,,,0,1,1.431696799999827,None,,,,,,,,886,26,M,R,2026-02-25_11h40.36.919,VisualSearch_2526_3,,2025.2.4,2026-02-25 11h40.37.131585 +0100,
vertical.xlsx,The target is tilted.,135,25,1,3,1,1,1,1,1,1,1,1,1,1,1,1,0,11,12,135,space,4.582063299999845,None,1,1,0.648809099999653,None,space,2.0226542000000336,None,0,0,0,1,,,,,3,1,25,0,97.23247760000004,,,,,,,,,,,,,,,,,,,,,97.21712819999993,97.23247760000004,97.71626779999997,97.72083620000012,97.73643979999997,98.39864769999986,,,,,98.3987774000002,98.41478360000019,,98.59889070000008,97.73643979999997,,,,,,,,1,1,0.648809099999653,None,,,,,,,,886,26,M,R,2026-02-25_11h40.36.919,VisualSearch_2526_3,,2025.2.4,2026-02-25 11h40.37.131585 +0100,
vertical.xlsx,The target is tilted.,135,26,2,3,0,0,0,0,0,0,0,0,0,0,0,0,1,1,1,135,space,4.582063299999845,None,0,1,0.670346100000188,None,space,2.0226542000000336,None,0,0,0,1,,,,,3,2,26,7,98.61519469999985,,,,,,,,,,,,,,,,,,,,,98.59966579999991,98.61519469999985,99.0988325000003,99.10333739999987,99.1195845000002,99.79866300000003,,,,,99.79879380000011,99.81407489999992,100.01448759999994,99.9983213999999,99.1195845000002,,,,,,,,0,1,0.670346100000188,None,,,,,,,,886,26,M,R,2026-02-25_11h40.36.919,VisualSearch_2526_3,,2025.2.4,2026-02-25 11h40.37.131585 +0100,
vertical.xlsx,The target is tilted.,135,27,3,3,1,1,1,1,0,0,0,0,0,0,0,0,0,3,4,135,space,4.582063299999845,None,1,1,0.7602019999999357,None,space,2.0226542000000336,None,0,0,0,1,,,,,3,3,27,2,100.01448759999994,,,,,,,,,,,,,,,,,,,,,99.99907970000004,100.01448759999994,100.49828049999996,100.5027898000003,100.5199590000002,101.28190040000027,,,,,101.2821229000001,101.29680700000017,101.4968002999999,101.48111150000022,100.5199590000002,,,,,,,,1,1,0.7602019999999357,None,,,,,,,,886,26,M,R,2026-02-25_11h40.36.919,VisualSearch_2526_3,,2025.2.4,2026-02-25 11h40.37.131585 +0100,
vertical.xlsx,The target is tilted.,135,28,4,3,1,0,0,0,0,0,0,0,0,0,0,0,0,0,1,135,space,4.582063299999845,None,1,1,0.5585111000000325,None,space,2.0226542000000336,None,0,0,0,1,,,,,3,4,28,3,101.4968002999999,,,,,,,,,,,,,,,,,,,,,101.48183930000005,101.4968002999999,101.98092510000015,101.98534010000003,101.99685099999988,102.5640228000002,,,,,102.56417409999995,102.5795747000002,102.78007269999989,102.7633651000001,101.99685099999988,,,,,,,,1,1,0.5585111000000325,None,,,,,,,,886,26,M,R,2026-02-25_11h40.36.919,VisualSearch_2526_3,,2025.2.4,2026-02-25 11h40.37.131585 +0100,
vertical.xlsx,The target is tilted.,135,29,5,3,0,1,1,1,1,1,1,1,1,1,1,1,1,11,12,135,space,4.582063299999845,None,0,1,2.018257900000208,None,space,2.0226542000000336,None,0,0,0,1,,,,,3,5,29,4,102.78007269999989,,,,,,,,,,,,,,,,,,,,,102.76401209999995,102.78007269999989,103.2633138000001,103.26792090000026,103.28405819999989,105.31292970000004,,,,,105.31309629999987,105.32825400000002,105.52868960000023,105.51257059999989,103.28405819999989,,,,,,,,0,1,2.018257900000208,None,,,,,,,,886,26,M,R,2026-02-25_11h40.36.919,VisualSearch_2526_3,,2025.2.4,2026-02-25 11h40.37.131585 +0100,
vertical.xlsx,The target is tilted.,135,30,6,3,1,1,1,1,1,1,1,1,0,0,0,0,0,7,8,135,space,4.582063299999845,None,1,1,0.6594046999998682,None,space,2.0226542000000336,None,0,0,0,1,,,,,3,6,30,1,105.52868960000023,,,,,,,,,,,,,,,,,,,,,105.51328950000016,105.52868960000023,106.01241660000005,106.01723870000023,106.03197460000001,106.69531219999999,,,,,106.69553870000027,106.71098260000008,106.91114000000016,106.8949378000002,106.03197460000001,,,,,,,,1,1,0.6594046999998682,None,,,,,,,,886,26,M,R,2026-02-25_11h40.36.919,VisualSearch_2526_3,,2025.2.4,2026-02-25 11h40.37.131585 +0100,
vertical.xlsx,The target is tilted.,135,31,7,3,0,1,1,1,0,0,0,0,0,0,0,0,1,3,4,135,space,4.582063299999845,None,0,1,1.2926292000001922,None,space,2.0226542000000336,None,0,0,0,1,,,,,3,7,31,6,106.91114000000016,,,,,,,,,,,,,,,,,,,,,106.89569720000009,106.91114000000016,107.39513130000023,107.39984679999998,107.41567470000018,108.71133390000023,,,,,108.71148649999986,108.72666990000016,108.92708130000028,108.91079799999989,107.41567470000018,,,,,,,,0,1,1.2926292000001922,None,,,,,,,,886,26,M,R,2026-02-25_11h40.36.919,VisualSearch_2526_3,,2025.2.4,2026-02-25 11h40.37.131585 +0100,
vertical.xlsx,The target is tilted.,135,32,0,4,1,1,1,1,0,0,0,0,0,0,0,0,0,3,4,135,space,4.582063299999845,None,1,1,0.512007999999696,None,space,2.0226542000000336,None,0,0,0,1,,,,,4,0,32,2,108.92708130000028,,,,,,,,,,,,,,,,,,,,,108.91129570000021,108.92708130000028,109.41075529999989,109.41537300000027,109.43124990000024,109.96043490000011,,,,,109.96061220000001,109.9760341000001,110.17671530000007,110.16059570000016,109.43124990000024,,,,,,,,1,1,0.512007999999696,None,,,,,,,,886,26,M,R,2026-02-25_11h40.36.919,VisualSearch_2526_3,,2025.2.4,2026-02-25 11h40.37.131585 +0100,
vertical.xlsx,The target is tilted.,135,33,1,4,1,1,1,1,1,1,1,1,1,1,1,1,0,11,12,135,space,4.582063299999845,None,1,1,0.9097856000003048,None,space,2.0226542000000336,None,0,0,0,1,,,,,4,1,33,0,110.17671530000007,,,,,,,,,,,,,,,,,,,,,110.16135910000003,110.17671530000007,110.66039009999986,110.6650396,110.6803003,111.5934843,,,,,111.59368870000026,111.60873900000024,111.80916560000014,111.79300869999997,110.6803003,,,,,,,,1,1,0.9097856000003048,None,,,,,,,,886,26,M,R,2026-02-25_11h40.36.919,VisualSearch_2526_3,,2025.2.4,2026-02-25 11h40.37.131585 +0100,
vertical.xlsx,The target is tilted.,135,34,2,4,0,1,1,1,1,1,1,1,0,0,0,0,1,7,8,135,space,4.582063299999845,None,0,1,1.533966799999689,None,space,2.0226542000000336,None,0,0,0,1,,,,,4,2,34,5,111.80916560000014,,,,,,,,,,,,,,,,,,,,,111.79379340000014,111.80916560000014,112.29279690000021,112.29743830000007,112.3123642999999,113.85853020000013,,,,,113.85867450000023,113.87472759999991,114.07486300000028,114.05836850000014,112.3123642999999,,,,,,,,0,1,1.533966799999689,None,,,,,,,,886,26,M,R,2026-02-25_11h40.36.919,VisualSearch_2526_3,,2025.2.4,2026-02-25 11h40.37.131585 +0100,
vertical.xlsx,The target is tilted.,135,35,3,4,1,1,1,1,1,1,1,1,0,0,0,0,0,7,8,135,space,4.582063299999845,None,1,1,0.5063356000000567,None,space,2.0226542000000336,None,0,0,0,1,,,,,4,3,35,1,114.07486300000028,,,,,,,,,,,,,,,,,,,,,114.05911390000028,114.07486300000028,114.55843570000025,114.56300400000009,114.5788407,115.0914485000003,,,,,115.09161480000012,115.10704729999998,115.30763830000024,115.29154530000005,114.5788407,,,,,,,,1,1,0.5063356000000567,None,,,,,,,,886,26,M,R,2026-02-25_11h40.36.919,VisualSearch_2526_3,,2025.2.4,2026-02-25 11h40.37.131585 +0100,
vertical.xlsx,The target is tilted.,135,36,4,4,0,1,1,1,0,0,0,0,0,0,0,0,1,3,4,135,space,4.582063299999845,None,0,1,0.9011549000001651,None,space,2.0226542000000336,None,0,0,0,1,,,,,4,4,36,6,115.30763830000024,,,,,,,,,,,,,,,,,,,,,115.29227179999998,115.30763830000024,115.79141780000009,115.79604950000021,115.81123049999997,116.72428290000016,,,,,116.72447030000012,116.73975930000006,116.94028879999996,116.92402249999986,115.81123049999997,,,,,,,,0,1,0.9011549000001651,None,,,,,,,,886,26,M,R,2026-02-25_11h40.36.919,VisualSearch_2526_3,,2025.2.4,2026-02-25 11h40.37.131585 +0100,
vertical.xlsx,The target is tilted.,135,37,5,4,0,0,0,0,0,0,0,0,0,0,0,0,1,1,1,135,space,4.582063299999845,None,0,1,0.7445269999998345,None,space,2.0226542000000336,None,0,0,0,1,,,,,4,5,37,7,116.94028879999996,,,,,,,,,,,,,,,,,,,,,116.92478560000018,116.94028879999996,117.42352340000025,117.42807649999986,117.4442898000002,118.19042870000021,,,,,118.19059379999999,118.20575790000021,118.40621670000019,118.39011750000009,117.4442898000002,,,,,,,,0,1,0.7445269999998345,None,,,,,,,,886,26,M,R,2026-02-25_11h40.36.919,VisualSearch_2526_3,,2025.2.4,2026-02-25 11h40.37.131585 +0100,
vertical.xlsx,The target is tilted.,135,38,6,4,1,0,0,0,0,0,0,0,0,0,0,0,0,0,1,135,space,4.582063299999845,None,1,1,0.5472756000003756,None,space,2.0226542000000336,None,0,0,0,1,,,,,4,6,38,3,118.40621670000019,,,,,,,,,,,,,,,,,,,,,118.39084249999996,118.40621670000019,118.88932990000012,118.89341960000002,118.90883080000003,119.47274419999985,,,,,119.47294719999991,119.48844659999986,119.68905540000014,119.67269130000022,118.90883080000003,,,,,,,,1,1,0.5472756000003756,None,,,,,,,,886,26,M,R,2026-02-25_11h40.36.919,VisualSearch_2526_3,,2025.2.4,2026-02-25 11h40.37.131585 +0100,
vertical.xlsx,The target is tilted.,135,39,7,4,0,1,1,1,1,1,1,1,1,1,1,1,1,11,12,135,space,4.582063299999845,None,0,1,1.070116599999892,None,space,2.0226542000000336,None,0,0,0,1,,,,,4,7,39,4,119.68905540000014,,,,,,,,,,,,,,,,,,,,,119.67346739999994,119.68905540000014,120.17245320000029,120.17695279999998,120.19334260000005,121.27227360000006,,,,,121.27247100000022,121.2877054999999,121.48769900000025,121.47165829999994,120.19334260000005,,,,,,,,0,1,1.070116599999892,None,,,,,,,,886,26,M,R,2026-02-25_11h40.36.919,VisualSearch_2526_3,,2025.2.4,2026-02-25 11h40.37.131585 +0100,
vertical.xlsx,The target is tilted.,135,40,0,5,0,1,1,1,0,0,0,0,0,0,0,0,1,3,4,135,space,4.582063299999845,None,0,1,1.3776419999999234,None,space,2.0226542000000336,None,0,0,0,1,,,,,5,0,40,6,121.48769900000025,,,,,,,,,,,,,,,,,,,,,121.47239549999995,121.48769900000025,121.97123370000008,121.97567430000026,121.98794870000029,123.37115900000026,,,,,123.37130290000005,123.38675319999993,123.58720270000003,123.57110770000008,121.98794870000029,,,,,,,,0,1,1.3776419999999234,None,,,,,,,,886,26,M,R,2026-02-25_11h40.36.919,VisualSearch_2526_3,,2025.2.4,2026-02-25 11h40.37.131585 +0100,
vertical.xlsx,The target is tilted.,135,41,1,5,1,1,1,1,1,1,1,1,0,0,0,0,0,7,8,135,space,4.582063299999845,None,1,1,0.6728167000001122,None,space,2.0226542000000336,None,0,0,0,1,,,,,5,1,41,1,123.58720270000003,,,,,,,,,,,,,,,,,,,,,123.57182210000019,123.58720270000003,124.0709208000003,124.07556049999994,124.09146439999995,124.77060280000023,,,,,124.77074519999996,124.78589360000024,124.98642109999992,124.97026249999999,124.09146439999995,,,,,,,,1,1,0.6728167000001122,None,,,,,,,,886,26,M,R,2026-02-25_11h40.36.919,VisualSearch_2526_3,,2025.2.4,2026-02-25 11h40.37.131585 +0100,
vertical.xlsx,The target is tilted.,135,42,2,5,1,1,1,1,1,1,1,1,1,1,1,1,0,11,12,135,space,4.582063299999845,None,1,1,0.464407299999948,None,space,2.0226542000000336,None,0,0,0,1,,,,,5,2,42,0,124.98642109999992,,,,,,,,,,,,,,,,,,,,,124.97100150000006,124.98642109999992,125.47016810000014,125.4747225000001,125.49003010000024,125.96976140000015,,,,,125.96996149999995,125.98540610000009,126.1860257000003,126.16985900000009,125.49003010000024,,,,,,,,1,1,0.464407299999948,None,,,,,,,,886,26,M,R,2026-02-25_11h40.36.919,VisualSearch_2526_3,,2025.2.4,2026-02-25 11h40.37.131585 +0100,
vertical.xlsx,The target is tilted.,135,43,3,5,1,1,1,1,0,0,0,0,0,0,0,0,0,3,4,135,space,4.582063299999845,None,1,1,0.7577121999997871,None,space,2.0226542000000336,None,0,0,0,1,,,,,5,3,43,2,126.1860257000003,,,,,,,,,,,,,,,,,,,,,126.17061439999998,126.1860257000003,126.66968810000026,126.67417209999985,126.68945859999985,127.45316520000006,,,,,127.4533805000001,127.46821230000023,127.66851829999996,127.65250210000022,126.68945859999985,,,,,,,,1,1,0.7577121999997871,None,,,,,,,,886,26,M,R,2026-02-25_11h40.36.919,VisualSearch_2526_3,,2025.2.4,2026-02-25 11h40.37.131585 +0100,
vertical.xlsx,The target is tilted.,135,44,4,5,0,0,0,0,0,0,0,0,0,0,0,0,1,1,1,135,space,4.582063299999845,None,0,1,1.190147799999977,None,space,2.0226542000000336,None,0,0,0,1,,,,,5,4,44,7,127.66851829999996,,,,,,,,,,,,,,,,,,,,,127.6532400000001,127.66851829999996,128.1519728000003,128.15668540000024,128.1692849000001,129.36897,,,,,129.36916939999992,129.38395040000023,129.58447260000003,129.56832029999987,128.1692849000001,,,,,,,,0,1,1.190147799999977,None,,,,,,,,886,26,M,R,2026-02-25_11h40.36.919,VisualSearch_2526_3,,2025.2.4,2026-02-25 11h40.37.131585 +0100,
vertical.xlsx,The target is tilted.,135,45,5,5,0,1,1,1,1,1,1,1,1,1,1,1,1,11,12,135,space,4.582063299999845,None,0,1,1.25262819999989,None,space,2.0226542000000336,None,0,0,0,1,,,,,5,5,45,4,129.58447260000003,,,,,,,,,,,,,,,,,,,,,129.56912150000016,129.58447260000003,130.0681810000001,130.0733507,130.08966310000005,131.35077550000005,,,,,131.35091809999994,131.36627510000017,131.5667265000002,131.55021420000003,130.08966310000005,,,,,,,,0,1,1.25262819999989,None,,,,,,,,886,26,M,R,2026-02-25_11h40.36.919,VisualSearch_2526_3,,2025.2.4,2026-02-25 11h40.37.131585 +0100,
vertical.xlsx,The target is tilted.,135,46,6,5,0,1,1,1,1,1,1,1,0,0,0,0,1,7,8,135,space,4.582063299999845,None,0,1,1.2444793999998183,None,space,2.0226542000000336,None,0,0,0,1,,,,,5,6,46,5,131.5667265000002,,,,,,,,,,,,,,,,,,,,,131.55093979999992,131.5667265000002,132.05034909999995,132.05504580000024,132.0699579000002,133.31731230000014,,,,,133.31754350000028,133.33219950000012,133.53254199999992,133.5162676,132.0699579000002,,,,,,,,0,1,1.2444793999998183,None,,,,,,,,886,26,M,R,2026-02-25_11h40.36.919,VisualSearch_2526_3,,2025.2.4,2026-02-25 11h40.37.131585 +0100,
vertical.xlsx,The target is tilted.,135,47,7,5,1,0,0,0,0,0,0,0,0,0,0,0,0,0,1,135,space,4.582063299999845,None,1,1,0.5011457999999038,None,space,2.0226542000000336,None,0,0,0,1,,,,,5,7,47,3,133.53254199999992,,,,,,,,,,,,,,,,,,,,,133.51701159999993,133.53254199999992,134.01588889999994,134.02043649999996,134.0354898999999,134.54936290000023,,,,,134.5495675000002,134.56491110000024,134.76535820000026,134.74938810000003,134.0354898999999,,,,,,,,1,1,0.5011457999999038,None,,,,,,,,886,26,M,R,2026-02-25_11h40.36.919,VisualSearch_2526_3,,2025.2.4,2026-02-25 11h40.37.131585 +0100,
vertical.xlsx,The target is tilted.,135,48,0,6,1,1,1,1,1,1,1,1,1,1,1,1,0,11,12,135,space,4.582063299999845,None,0,0,0.8894312000002174,None,space,2.0226542000000336,None,0,0,0,1,,,,,6,0,48,0,134.76535820000026,,,,,,,,,,,,,,,,,,,,,134.75012000000015,134.76535820000026,135.2492000000002,135.25371799999994,135.26900269999987,136.16544299999987,,,,,136.16562629999999,136.18090110000003,136.38127250000025,136.36517080000021,135.26900269999987,,,,,,,,0,0,0.8894312000002174,None,,,,,,,,886,26,M,R,2026-02-25_11h40.36.919,VisualSearch_2526_3,,2025.2.4,2026-02-25 11h40.37.131585 +0100,
vertical.xlsx,The target is tilted.,135,49,1,6,0,1,1,1,1,1,1,1,1,1,1,1,1,11,12,135,space,4.582063299999845,None,0,1,1.6344708999999966,None,space,2.0226542000000336,None,0,0,0,1,,,,,6,1,49,4,136.38127250000025,,,,,,,,,,,,,,,,,,,,,136.3659244999999,136.38127250000025,136.8645108999999,136.86649080000007,136.88091140000006,138.53024349999987,,,,,138.53036780000002,138.54651950000016,,138.73068039999998,136.88091140000006,,,,,,,,0,1,1.6344708999999966,None,,,,,,,,886,26,M,R,2026-02-25_11h40.36.919,VisualSearch_2526_3,,2025.2.4,2026-02-25 11h40.37.131585 +0100,
vertical.xlsx,The target is tilted.,135,50,2,6,0,1,1,1,1,1,1,1,0,0,0,0,1,7,8,135,space,4.582063299999845,None,0,1,1.5646176999998715,None,space,2.0226542000000336,None,0,0,0,1,,,,,6,2,50,5,138.7469661,,,,,,,,,,,,,,,,,,,,,138.73147070000005,138.7469661,139.23053630000004,139.23505999999998,139.25108020000016,140.82938520000016,,,,,140.8295253000001,140.8453926000002,141.04592570000023,141.0294103000001,139.25108020000016,,,,,,,,0,1,1.5646176999998715,None,,,,,,,,886,26,M,R,2026-02-25_11h40.36.919,VisualSearch_2526_3,,2025.2.4,2026-02-25 11h40.37.131585 +0100,
vertical.xlsx,The target is tilted.,135,51,3,6,0,1,1,1,0,0,0,0,0,0,0,0,1,3,4,135,space,4.582063299999845,None,0,1,0.6988893000002463,None,space,2.0226542000000336,None,0,0,0,1,,,,,6,3,51,6,141.04592570000023,,,,,,,,,,,,,,,,,,,,,141.03016079999998,141.04592570000023,141.52947339999992,141.53408820000004,141.54982770000015,142.26217640000004,,,,,142.26232019999998,142.27844219999997,142.4785049000002,142.4623019999999,141.54982770000015,,,,,,,,0,1,0.6988893000002463,None,,,,,,,,886,26,M,R,2026-02-25_11h40.36.919,VisualSearch_2526_3,,2025.2.4,2026-02-25 11h40.37.131585 +0100,
vertical.xlsx,The target is tilted.,135,52,4,6,1,1,1,1,0,0,0,0,0,0,0,0,0,3,4,135,space,4.582063299999845,None,1,1,1.914836699999796,None,space,2.0226542000000336,None,0,0,0,1,,,,,6,4,52,2,142.4785049000002,,,,,,,,,,,,,,,,,,,,,142.4630600999999,142.4785049000002,142.96171749999985,142.96620600000006,142.98127470000009,144.91053790000024,,,,,144.9106469000003,144.92678680000017,,145.11106410000002,142.98127470000009,,,,,,,,1,1,1.914836699999796,None,,,,,,,,886,26,M,R,2026-02-25_11h40.36.919,VisualSearch_2526_3,,2025.2.4,2026-02-25 11h40.37.131585 +0100,
vertical.xlsx,The target is tilted.,135,53,5,6,1,0,0,0,0,0,0,0,0,0,0,0,0,0,1,135,space,4.582063299999845,None,1,1,0.4584541999997782,None,space,2.0226542000000336,None,0,0,0,1,,,,,6,5,53,3,145.12743920000003,,,,,,,,,,,,,,,,,,,,,145.11183410000012,145.12743920000003,145.61077890000024,145.61545830000023,145.63060029999997,146.094646,,,,,146.09484410000005,146.10976470000014,146.31017440000005,146.2940377,,,,,,,,,1,1,0.4584541999997782,None,,,,,,,,886,26,M,R,2026-02-25_11h40.36.919,VisualSearch_2526_3,,2025.2.4,2026-02-25 11h40.37.131585 +0100,
vertical.xlsx,The target is tilted.,135,54,6,6,1,1,1,1,1,1,1,1,0,0,0,0,0,7,8,135,space,4.582063299999845,None,1,1,3.15138990000014,None,space,2.0226542000000336,None,0,0,0,1,,,,,6,6,54,1,146.31017440000005,,,,,,,,,,,,,,,,,,,,,146.29476079999995,146.31017440000005,146.7938140000001,146.7983677000002,146.81350629999997,149.9760835000002,,,,,149.97626360000004,149.99128100000007,150.19144050000023,150.17567080000026,146.81350629999997,,,,,,,,1,1,3.15138990000014,None,,,,,,,,886,26,M,R,2026-02-25_11h40.36.919,VisualSearch_2526_3,,2025.2.4,2026-02-25 11h40.37.131585 +0100,
vertical.xlsx,The target is tilted.,135,55,7,6,0,0,0,0,0,0,0,0,0,0,0,0,1,1,1,135,space,4.582063299999845,None,0,1,0.5980444999995598,None,space,2.0226542000000336,None,0,0,0,1,,,,,6,7,55,7,150.19144050000023,,,,,,,,,,,,,,,,,,,,,150.17647720000014,150.19144050000023,150.67530410000018,150.67988620000006,150.6941753000001,151.30792220000012,,,,,151.30808620000016,151.32396890000018,151.5244588999999,151.50833550000016,150.6941753000001,,,,,,,,0,1,0.5980444999995598,None,,,,,,,,886,26,M,R,2026-02-25_11h40.36.919,VisualSearch_2526_3,,2025.2.4,2026-02-25 11h40.37.131585 +0100,
vertical.xlsx,The target is tilted.,135,56,0,7,0,1,1,1,1,1,1,1,0,0,0,0,1,7,8,135,space,4.582063299999845,None,0,1,1.289146399999936,None,space,2.0226542000000336,None,0,0,0,1,,,,,7,0,56,5,151.5244588999999,,,,,,,,,,,,,,,,,,,,,151.50907670000015,151.5244588999999,152.00811199999998,152.01267830000006,152.0296217,153.3243080000002,,,,,153.32445050000024,153.3395617000001,153.54032300000017,153.52358630000026,152.0296217,,,,,,,,0,1,1.289146399999936,None,,,,,,,,886,26,M,R,2026-02-25_11h40.36.919,VisualSearch_2526_3,,2025.2.4,2026-02-25 11h40.37.131585 +0100,
vertical.xlsx,The target is tilted.,135,57,1,7,1,0,0,0,0,0,0,0,0,0,0,0,0,0,1,135,space,4.582063299999845,None,1,1,0.5289118999999118,None,space,2.0226542000000336,None,0,0,0,1,,,,,7,1,57,3,153.54032300000017,,,,,,,,,,,,,,,,,,,,,153.5243378,153.54032300000017,154.0238121000002,154.02840909999986,154.0447597000002,154.59041290000005,,,,,154.59061340000017,154.60583170000018,154.8063543000003,154.79025320000028,154.0447597000002,,,,,,,,1,1,0.5289118999999118,None,,,,,,,,886,26,M,R,2026-02-25_11h40.36.919,VisualSearch_2526_3,,2025.2.4,2026-02-25 11h40.37.131585 +0100,
vertical.xlsx,The target is tilted.,135,58,2,7,1,1,1,1,0,0,0,0,0,0,0,0,0,3,4,135,space,4.582063299999845,None,1,1,0.5471302999999352,None,space,2.0226542000000336,None,0,0,0,1,,,,,7,2,58,2,154.8063543000003,,,,,,,,,,,,,,,,,,,,,154.7909877000002,154.8063543000003,155.28996800000004,155.29455170000028,155.3101727000003,155.8728827,,,,,155.8730743000001,155.8886295000002,156.08900889999995,156.0726748000002,155.3101727000003,,,,,,,,1,1,0.5471302999999352,None,,,,,,,,886,26,M,R,2026-02-25_11h40.36.919,VisualSearch_2526_3,,2025.2.4,2026-02-25 11h40.37.131585 +0100,
vertical.xlsx,The target is tilted.,135,59,3,7,0,1,1,1,1,1,1,1,1,1,1,1,1,11,12,135,space,4.582063299999845,None,0,1,2.4350804999999127,None,space,2.0226542000000336,None,0,0,0,1,,,,,7,3,59,4,156.08900889999995,,,,,,,,,,,,,,,,,,,,,156.07341290000022,156.08900889999995,156.5725510000002,156.57715730000018,156.591457,159.03863520000004,,,,,159.0388157000002,159.05378770000016,159.25426460000017,159.2381236000001,156.591457,,,,,,,,0,1,2.4350804999999127,None,,,,,,,,886,26,M,R,2026-02-25_11h40.36.919,VisualSearch_2526_3,,2025.2.4,2026-02-25 11h40.37.131585 +0100,
vertical.xlsx,The target is tilted.,135,60,4,7,1,1,1,1,1,1,1,1,0,0,0,0,0,7,8,135,space,4.582063299999845,None,1,1,0.9318177000000105,None,space,2.0226542000000336,None,0,0,0,1,,,,,7,4,60,1,159.25426460000017,,,,,,,,,,,,,,,,,,,,,159.2389094,159.25426460000017,159.73791960000017,159.74245500000006,159.75932539999985,160.7040388999999,,,,,160.7042174000003,160.71972510000023,160.9199733999999,160.90377630000012,159.75932539999985,,,,,,,,1,1,0.9318177000000105,None,,,,,,,,886,26,M,R,2026-02-25_11h40.36.919,VisualSearch_2526_3,,2025.2.4,2026-02-25 11h40.37.131585 +0100,
vertical.xlsx,The target is tilted.,135,61,5,7,0,1,1,1,0,0,0,0,0,0,0,0,1,3,4,135,space,4.582063299999845,None,0,1,0.822239499999796,None,space,2.0226542000000336,None,0,0,0,1,,,,,7,5,61,6,160.9199733999999,,,,,,,,,,,,,,,,,,,,,160.90453789999992,160.9199733999999,161.4038627,161.4083971,161.42232079999985,162.2537843,,,,,162.25391130000025,162.26892550000002,162.46947739999996,162.45325980000007,161.42232079999985,,,,,,,,0,1,0.822239499999796,None,,,,,,,,886,26,M,R,2026-02-25_11h40.36.919,VisualSearch_2526_3,,2025.2.4,2026-02-25 11h40.37.131585 +0100,
vertical.xlsx,The target is tilted.,135,62,6,7,1,1,1,1,1,1,1,1,1,1,1,1,0,11,12,135,space,4.582063299999845,None,1,1,0.7371290000000954,None,space,2.0226542000000336,None,0,0,0,1,,,,,7,6,62,0,162.46947739999996,,,,,,,,,,,,,,,,,,,,,162.45404229999986,162.46947739999996,162.95277970000006,162.9568594000002,162.97363480000013,163.71997680000004,,,,,163.7201726000003,163.7349822000001,163.9349854000002,163.9194918000003,162.97363480000013,,,,,,,,1,1,0.7371290000000954,None,,,,,,,,886,26,M,R,2026-02-25_11h40.36.919,VisualSearch_2526_3,,2025.2.4,2026-02-25 11h40.37.131585 +0100,
vertical.xlsx,The target is tilted.,135,63,7,7,0,0,0,0,0,0,0,0,0,0,0,0,1,1,1,135,space,4.582063299999845,None,0,1,1.0604118999999628,None,space,2.0226542000000336,None,0,0,0,1,,,,,7,7,63,7,163.9349854000002,,,,,,,,,,,,,,,,,,,,,163.92025030000013,163.9349854000002,164.4190291,164.42366919999995,164.43872940000028,165.50247590000026,,,,,165.5026716000002,165.5175247000002,165.71802200000002,165.70161420000022,164.43872940000028,,,,,,,,0,1,1.0604118999999628,None,,,,,,,,886,26,M,R,2026-02-25_11h40.36.919,VisualSearch_2526_3,,2025.2.4,2026-02-25 11h40.37.131585 +0100,
vertical.xlsx,The target is tilted.,135,64,0,8,0,1,1,1,1,1,1,1,0,0,0,0,1,7,8,135,space,4.582063299999845,None,0,1,1.0311805000001186,None,space,2.0226542000000336,None,0,0,0,1,,,,,8,0,64,5,165.71802200000002,,,,,,,,,,,,,,,,,,,,,165.70234519999985,165.71802200000002,166.20179910000024,166.20635760000005,166.22209550000025,167.26739480000015,,,,,167.2675337999999,167.28337139999985,167.48383749999994,167.46778660000018,166.22209550000025,,,,,,,,0,1,1.0311805000001186,None,,,,,,,,886,26,M,R,2026-02-25_11h40.36.919,VisualSearch_2526_3,,2025.2.4,2026-02-25 11h40.37.131585 +0100,
vertical.xlsx,The target is tilted.,135,65,1,8,0,1,1,1,0,0,0,0,0,0,0,0,1,3,4,135,space,4.582063299999845,None,0,1,0.6176088999995955,None,space,2.0226542000000336,None,0,0,0,1,,,,,8,1,65,6,167.48383749999994,,,,,,,,,,,,,,,,,,,,,167.4684943000002,167.48383749999994,167.96745520000013,167.9721287000002,167.98713410000028,168.61709370000017,,,,,168.61727670000028,168.63273549999985,168.83313180000005,168.8172386000001,167.98713410000028,,,,,,,,0,1,0.6176088999995955,None,,,,,,,,886,26,M,R,2026-02-25_11h40.36.919,VisualSearch_2526_3,,2025.2.4,2026-02-25 11h40.37.131585 +0100,
vertical.xlsx,The target is tilted.,135,66,2,8,1,0,0,0,0,0,0,0,0,0,0,0,0,0,1,135,space,4.582063299999845,None,1,1,0.5207565000000614,None,space,2.0226542000000336,None,0,0,0,1,,,,,8,2,66,3,168.83313180000005,,,,,,,,,,,,,,,,,,,,,168.8180066,168.83313180000005,169.3169697000003,169.32170080000014,169.3363247000002,169.86715700000013,,,,,169.86736819999987,169.88224590000027,170.08226950000017,170.06617310000001,169.3363247000002,,,,,,,,1,1,0.5207565000000614,None,,,,,,,,886,26,M,R,2026-02-25_11h40.36.919,VisualSearch_2526_3,,2025.2.4,2026-02-25 11h40.37.131585 +0100,
vertical.xlsx,The target is tilted.,135,67,3,8,0,0,0,0,0,0,0,0,0,0,0,0,1,1,1,135,space,4.582063299999845,None,0,1,0.5326798000000963,None,space,2.0226542000000336,None,0,0,0,1,,,,,8,3,67,7,170.08226950000017,,,,,,,,,,,,,,,,,,,,,170.0669201999999,170.08226950000017,170.5663139000003,170.57084399999985,170.5877918000001,171.13231739999992,,,,,171.13243790000024,171.14837230000012,171.34849540000005,171.33250399999997,170.5877918000001,,,,,,,,0,1,0.5326798000000963,None,,,,,,,,886,26,M,R,2026-02-25_11h40.36.919,VisualSearch_2526_3,,2025.2.4,2026-02-25 11h40.37.131585 +0100,
vertical.xlsx,The target is tilted.,135,68,4,8,1,1,1,1,1,1,1,1,1,1,1,1,0,11,12,135,space,4.582063299999845,None,1,1,0.6374078999997437,None,space,2.0226542000000336,None,0,0,0,1,,,,,8,4,68,0,171.34849540000005,,,,,,,,,,,,,,,,,,,,,171.33324930000026,171.34849540000005,171.83245420000003,171.83707649999997,171.85153870000022,172.49922190000007,,,,,172.4994001,172.51424240000006,172.71479970000019,172.69873129999996,171.85153870000022,,,,,,,,1,1,0.6374078999997437,None,,,,,,,,886,26,M,R,2026-02-25_11h40.36.919,VisualSearch_2526_3,,2025.2.4,2026-02-25 11h40.37.131585 +0100,
vertical.xlsx,The target is tilted.,135,69,5,8,1,1,1,1,0,0,0,0,0,0,0,0,0,3,4,135,space,4.582063299999845,None,1,1,0.8390695000002779,None,space,2.0226542000000336,None,0,0,0,1,,,,,8,5,69,2,172.71479970000019,,,,,,,,,,,,,,,,,,,,,172.69945340000004,172.71479970000019,173.19813620000014,173.20266130000027,173.2195941,174.06528690000005,,,,,174.0655038,174.08030080000026,174.28060319999986,174.26417200000014,173.2195941,,,,,,,,1,1,0.8390695000002779,None,,,,,,,,886,26,M,R,2026-02-25_11h40.36.919,VisualSearch_2526_3,,2025.2.4,2026-02-25 11h40.37.131585 +0100,
vertical.xlsx,The target is tilted.,135,70,6,8,0,1,1,1,1,1,1,1,1,1,1,1,1,11,12,135,space,4.582063299999845,None,0,1,1.6944663999997829,None,space,2.0226542000000336,None,0,0,0,1,,,,,8,6,70,4,174.28060319999986,,,,,,,,,,,,,,,,,,,,,174.26489820000006,174.28060319999986,174.76437570000007,174.76900999999998,174.78161899999986,176.48041740000008,,,,,176.48061189999999,176.49596939999992,176.69593620000023,176.6803749999999,174.78161899999986,,,,,,,,0,1,1.6944663999997829,None,,,,,,,,886,26,M,R,2026-02-25_11h40.36.919,VisualSearch_2526_3,,2025.2.4,2026-02-25 11h40.37.131585 +0100,
vertical.xlsx,The target is tilted.,135,71,7,8,1,1,1,1,1,1,1,1,0,0,0,0,0,7,8,135,space,4.582063299999845,None,1,1,0.5387407000002895,None,space,2.0226542000000336,None,0,0,0,1,,,,,8,7,71,1,176.69593620000023,,,,,,,,,,,,,,,,,,,,,176.68112870000004,176.69593620000023,177.1801117,177.1846472000002,177.19959440000002,177.7470186999999,,,,,177.74723360000007,177.76197989999991,177.96239049999986,177.94622179999988,177.19959440000002,,,,,,,,1,1,0.5387407000002895,None,,,,,,,,886,26,M,R,2026-02-25_11h40.36.919,VisualSearch_2526_3,,2025.2.4,2026-02-25 11h40.37.131585 +0100,
vertical.xlsx,The target is tilted.,135,72,0,9,0,0,0,0,0,0,0,0,0,0,0,0,1,1,1,135,space,4.582063299999845,None,0,1,0.6730700000002798,None,space,2.0226542000000336,None,0,0,0,1,,,,,9,0,72,7,177.96239049999986,,,,,,,,,,,,,,,,,,,,,177.94697859999997,177.96239049999986,178.44607580000002,178.45056079999995,178.46566110000003,179.14605949999986,,,,,179.14623789999996,179.1612626000001,179.3619778000002,179.3456481000003,178.46566110000003,,,,,,,,0,1,0.6730700000002798,None,,,,,,,,886,26,M,R,2026-02-25_11h40.36.919,VisualSearch_2526_3,,2025.2.4,2026-02-25 11h40.37.131585 +0100,
vertical.xlsx,The target is tilted.,135,73,1,9,0,1,1,1,1,1,1,1,0,0,0,0,1,7,8,135,space,4.582063299999845,None,0,1,1.3088062000001628,None,space,2.0226542000000336,None,0,0,0,1,,,,,9,1,73,5,179.3619778000002,,,,,,,,,,,,,,,,,,,,,179.34641360000023,179.3619778000002,179.84543600000006,179.84997299999986,179.86546369999996,181.17807100000027,,,,,181.17826890000015,181.19374019999987,181.3941064999999,181.37811599999986,179.86546369999996,,,,,,,,0,1,1.3088062000001628,None,,,,,,,,886,26,M,R,2026-02-25_11h40.36.919,VisualSearch_2526_3,,2025.2.4,2026-02-25 11h40.37.131585 +0100,
vertical.xlsx,The target is tilted.,135,74,2,9,1,0,0,0,0,0,0,0,0,0,0,0,0,0,1,135,space,4.582063299999845,None,1,1,0.5050986999999623,None,space,2.0226542000000336,None,0,0,0,1,,,,,9,2,74,3,181.3941064999999,,,,,,,,,,,,,,,,,,,,,181.37894510000024,181.3941064999999,181.87789479999992,181.88237400000025,181.89780169999995,182.41080710000006,,,,,182.41094699999985,182.42637479999985,182.62704280000025,182.61089020000009,181.89780169999995,,,,,,,,1,1,0.5050986999999623,None,,,,,,,,886,26,M,R,2026-02-25_11h40.36.919,VisualSearch_2526_3,,2025.2.4,2026-02-25 11h40.37.131585 +0100,
vertical.xlsx,The target is tilted.,135,75,3,9,0,1,1,1,0,0,0,0,0,0,0,0,1,3,4,135,space,4.582063299999845,None,0,1,0.801203600000008,None,space,2.0226542000000336,None,0,0,0,1,,,,,9,3,75,6,182.62704280000025,,,,,,,,,,,,,,,,,,,,,182.61160259999997,182.62704280000025,183.1106218,183.1151921999999,183.13018899999997,183.94307560000016,,,,,183.94321100000025,183.9592778000001,184.15960219999988,184.14345779999985,183.13018899999997,,,,,,,,0,1,0.801203600000008,None,,,,,,,,886,26,M,R,2026-02-25_11h40.36.919,VisualSearch_2526_3,,2025.2.4,2026-02-25 11h40.37.131585 +0100,
vertical.xlsx,The target is tilted.,135,76,4,9,0,1,1,1,1,1,1,1,1,1,1,1,1,11,12,135,space,4.582063299999845,None,0,1,1.9915194999998675,None,space,2.0226542000000336,None,0,0,0,1,,,,,9,4,76,4,184.15960219999988,,,,,,,,,,,,,,,,,,,,,184.14418520000027,184.15960219999988,184.6433081,184.64841990000014,184.6623497999999,186.65918659999988,,,,,186.65938400000005,186.67457650000006,186.87488810000013,186.8587832000003,184.6623497999999,,,,,,,,0,1,1.9915194999998675,None,,,,,,,,886,26,M,R,2026-02-25_11h40.36.919,VisualSearch_2526_3,,2025.2.4,2026-02-25 11h40.37.131585 +0100,
vertical.xlsx,The target is tilted.,135,77,5,9,1,1,1,1,1,1,1,1,1,1,1,1,0,11,12,135,space,4.582063299999845,None,1,1,0.765284900000097,None,space,2.0226542000000336,None,0,0,0,1,,,,,9,5,77,0,186.87488810000013,,,,,,,,,,,,,,,,,,,,,186.85955250000006,186.87488810000013,187.35873200000015,187.36324319999994,187.3806494999999,188.1585253000003,,,,,188.15872510000008,188.17392410000002,188.3743199999999,188.35822689999986,187.3806494999999,,,,,,,,1,1,0.765284900000097,None,,,,,,,,886,26,M,R,2026-02-25_11h40.36.919,VisualSearch_2526_3,,2025.2.4,2026-02-25 11h40.37.131585 +0100,
vertical.xlsx,The target is tilted.,135,78,6,9,1,1,1,1,0,0,0,0,0,0,0,0,0,3,4,135,space,4.582063299999845,None,1,1,0.6100411000002168,None,space,2.0226542000000336,None,0,0,0,1,,,,,9,6,78,2,188.3743199999999,,,,,,,,,,,,,,,,,,,,,188.3589678000003,188.3743199999999,188.85805269999992,188.86263069999995,188.87788940000019,189.49129510000012,,,,,189.4914993000002,189.50659040000028,189.70709510000006,189.69100620000017,188.87788940000019,,,,,,,,1,1,0.6100411000002168,None,,,,,,,,886,26,M,R,2026-02-25_11h40.36.919,VisualSearch_2526_3,,2025.2.4,2026-02-25 11h40.37.131585 +0100,
vertical.xlsx,The target is tilted.,135,79,7,9,1,1,1,1,1,1,1,1,0,0,0,0,0,7,8,135,space,4.582063299999845,None,1,1,0.5572680000000219,None,space,2.0226542000000336,None,0,0,0,1,,,,,9,7,79,1,189.70709510000006,,,,,,,,,,,,,,,,,,,,,189.69173020000017,189.70709510000006,190.19082100000014,190.19537880000007,190.21038959999987,190.77353200000016,,,,,190.77360970000018,190.7891539000002,190.98983780000026,190.9736508000001,190.21038959999987,,,,,,,,1,1,0.5572680000000219,None,,,,,,,,886,26,M,R,2026-02-25_11h40.36.919,VisualSearch_2526_3,,2025.2.4,2026-02-25 11h40.37.131585 +0100,
vertical.xlsx,The target is tilted.,135,80,0,10,0,1,1,1,1,1,1,1,0,0,0,0,1,7,8,135,space,4.582063299999845,None,0,1,0.8460181000000375,None,space,2.0226542000000336,None,0,0,0,1,,,,,10,0,80,5,190.98983780000026,,,,,,,,,,,,,,,,,,,,,190.97446230000014,190.98983780000026,191.47316020000017,191.47758599999997,191.49244799999997,192.34077800000023,,,,,192.3409756000001,192.3552606000003,192.55580980000013,192.53940030000012,191.49244799999997,,,,,,,,0,1,0.8460181000000375,None,,,,,,,,886,26,M,R,2026-02-25_11h40.36.919,VisualSearch_2526_3,,2025.2.4,2026-02-25 11h40.37.131585 +0100,
vertical.xlsx,The target is tilted.,135,81,1,10,1,1,1,1,1,1,1,1,0,0,0,0,0,7,8,135,space,4.582063299999845,None,1,1,0.7855672999999115,None,space,2.0226542000000336,None,0,0,0,1,,,,,10,1,81,1,192.55580980000013,,,,,,,,,,,,,,,,,,,,,192.54014970000026,192.55580980000013,193.03946309999992,193.04402260000006,193.0571715000001,193.8558054,,,,,193.8559438000002,193.87112630000001,194.0714495000002,194.0557116,193.0571715000001,,,,,,,,1,1,0.7855672999999115,None,,,,,,,,886,26,M,R,2026-02-25_11h40.36.919,VisualSearch_2526_3,,2025.2.4,2026-02-25 11h40.37.131585 +0100,
vertical.xlsx,The target is tilted.,135,82,2,10,1,1,1,1,1,1,1,1,1,1,1,1,0,11,12,135,space,4.582063299999845,None,1,1,1.119706800000131,None,space,2.0226542000000336,None,0,0,0,1,,,,,10,2,82,0,194.0714495000002,,,,,,,,,,,,,,,,,,,,,194.0564776000001,194.0714495000002,194.55515229999992,194.5598312000002,194.57566540000016,195.70545840000023,,,,,195.7056588999999,195.72064660000024,195.92103399999996,195.90473280000015,194.57566540000016,,,,,,,,1,1,1.119706800000131,None,,,,,,,,886,26,M,R,2026-02-25_11h40.36.919,VisualSearch_2526_3,,2025.2.4,2026-02-25 11h40.37.131585 +0100,
vertical.xlsx,The target is tilted.,135,83,3,10,1,1,1,1,0,0,0,0,0,0,0,0,0,3,4,135,space,4.582063299999845,None,1,1,0.5430592000002434,None,space,2.0226542000000336,None,0,0,0,1,,,,,10,3,83,2,195.92103399999996,,,,,,,,,,,,,,,,,,,,,195.9054914000003,195.92103399999996,196.40454279999994,196.4090354,196.42583090000016,196.97091510000018,,,,,196.9710497000001,196.9868703000002,197.1871627999999,197.17084690000002,196.42583090000016,,,,,,,,1,1,0.5430592000002434,None,,,,,,,,886,26,M,R,2026-02-25_11h40.36.919,VisualSearch_2526_3,,2025.2.4,2026-02-25 11h40.37.131585 +0100,
vertical.xlsx,The target is tilted.,135,84,4,10,0,1,1,1,1,1,1,1,1,1,1,1,1,11,12,135,space,4.582063299999845,None,0,1,1.0359778000001825,None,space,2.0226542000000336,None,0,0,0,1,,,,,10,4,84,4,197.1871627999999,,,,,,,,,,,,,,,,,,,,,197.17158960000006,197.1871627999999,197.67027420000022,197.67475860000013,197.68932910000012,198.73722499999985,,,,,198.73739980000028,198.75288890000002,198.9524733000003,198.93639209999992,197.68932910000012,,,,,,,,0,1,1.0359778000001825,None,,,,,,,,886,26,M,R,2026-02-25_11h40.36.919,VisualSearch_2526_3,,2025.2.4,2026-02-25 11h40.37.131585 +0100,
vertical.xlsx,The target is tilted.,135,85,5,10,0,1,1,1,0,0,0,0,0,0,0,0,1,3,4,135,space,4.582063299999845,None,0,1,0.6000660999998217,None,space,2.0226542000000336,None,0,0,0,1,,,,,10,5,85,6,198.9524733000003,,,,,,,,,,,,,,,,,,,,,198.93712790000018,198.9524733000003,199.4365898000001,199.44137150000006,199.4564562999999,200.06974029999992,,,,,200.0698754,200.0855289000001,200.2857125999999,200.26964660000021,199.4564562999999,,,,,,,,0,1,0.6000660999998217,None,,,,,,,,886,26,M,R,2026-02-25_11h40.36.919,VisualSearch_2526_3,,2025.2.4,2026-02-25 11h40.37.131585 +0100,
vertical.xlsx,The target is tilted.,135,86,6,10,0,0,0,0,0,0,0,0,0,0,0,0,1,1,1,135,space,4.582063299999845,None,0,1,0.49781510000002527,None,space,2.0226542000000336,None,0,0,0,1,,,,,10,6,86,7,200.2857125999999,,,,,,,,,,,,,,,,,,,,,200.27044389999992,200.2857125999999,200.76915940000026,200.77367430000004,200.78903360000004,201.30202680000002,,,,,201.3021435999999,201.31811920000018,201.5184352000001,201.50192770000012,200.78903360000004,,,,,,,,0,1,0.49781510000002527,None,,,,,,,,886,26,M,R,2026-02-25_11h40.36.919,VisualSearch_2526_3,,2025.2.4,2026-02-25 11h40.37.131585 +0100,
vertical.xlsx,The target is tilted.,135,87,7,10,1,0,0,0,0,0,0,0,0,0,0,0,0,0,1,135,space,4.582063299999845,None,1,1,0.4943475000000035,None,space,2.0226542000000336,None,0,0,0,1,,,,,10,7,87,3,201.5184352000001,,,,,,,,,,,,,,,,,,,,,201.50271999999995,201.5184352000001,202.00166160000026,202.00613939999994,202.02078239999992,202.5186392999999,,,,,202.51883320000024,202.53415040000027,202.73448370000006,202.71841050000012,202.02078239999992,,,,,,,,1,1,0.4943475000000035,None,,,,,,,,886,26,M,R,2026-02-25_11h40.36.919,VisualSearch_2526_3,,2025.2.4,2026-02-25 11h40.37.131585 +0100,
vertical.xlsx,The target is tilted.,135,88,0,11,0,1,1,1,0,0,0,0,0,0,0,0,1,3,4,135,space,4.582063299999845,None,0,1,0.9171311999998579,None,space,2.0226542000000336,None,0,0,0,1,,,,,11,0,88,6,202.73448370000006,,,,,,,,,,,,,,,,,,,,,202.71914950000019,202.73448370000006,203.21824500000002,203.2227585999999,203.23821529999987,204.16832909999994,,,,,204.16855780000014,204.18342530000018,204.38374169999997,204.36753670000007,203.23821529999987,,,,,,,,0,1,0.9171311999998579,None,,,,,,,,886,26,M,R,2026-02-25_11h40.36.919,VisualSearch_2526_3,,2025.2.4,2026-02-25 11h40.37.131585 +0100,
vertical.xlsx,The target is tilted.,135,89,1,11,1,1,1,1,1,1,1,1,0,0,0,0,0,7,8,135,space,4.582063299999845,None,1,1,1.1531791000002158,None,space,2.0226542000000336,None,0,0,0,1,,,,,11,1,89,1,204.38374169999997,,,,,,,,,,,,,,,,,,,,,204.36831650000022,204.38374169999997,204.86743160000015,204.87179019999985,204.88337739999997,206.05070860000023,,,,,206.0509019000001,206.06616010000016,206.26620700000012,206.2500097000002,204.88337739999997,,,,,,,,1,1,1.1531791000002158,None,,,,,,,,886,26,M,R,2026-02-25_11h40.36.919,VisualSearch_2526_3,,2025.2.4,2026-02-25 11h40.37.131585 +0100,
vertical.xlsx,The target is tilted.,135,90,2,11,0,1,1,1,1,1,1,1,0,0,0,0,1,7,8,135,space,4.582063299999845,None,0,1,0.9644717999999557,None,space,2.0226542000000336,None,0,0,0,1,,,,,11,2,90,5,206.26620700000012,,,,,,,,,,,,,,,,,,,,,206.2507811999999,206.26620700000012,206.7498599999999,206.75443730000006,206.7699372000002,207.74944760000017,,,,,207.74963669999988,207.7653949999999,207.96529820000023,207.9491112999999,206.7699372000002,,,,,,,,0,1,0.9644717999999557,None,,,,,,,,886,26,M,R,2026-02-25_11h40.36.919,VisualSearch_2526_3,,2025.2.4,2026-02-25 11h40.37.131585 +0100,
vertical.xlsx,The target is tilted.,135,91,3,11,1,0,0,0,0,0,0,0,0,0,0,0,0,0,1,135,space,4.582063299999845,None,1,1,0.6434991000000991,None,space,2.0226542000000336,None,0,0,0,1,,,,,11,3,91,3,207.96529820000023,,,,,,,,,,,,,,,,,,,,,207.94985730000008,207.96529820000023,208.4491263,208.4536465000001,208.46969489999992,209.1160603000003,,,,,209.11626370000022,209.13126390000025,209.3311687999999,209.31535459999986,208.46969489999992,,,,,,,,1,1,0.6434991000000991,None,,,,,,,,886,26,M,R,2026-02-25_11h40.36.919,VisualSearch_2526_3,,2025.2.4,2026-02-25 11h40.37.131585 +0100,
vertical.xlsx,The target is tilted.,135,92,4,11,1,1,1,1,1,1,1,1,1,1,1,1,0,11,12,135,space,4.582063299999845,None,1,1,0.8780901999998605,None,space,2.0226542000000336,None,0,0,0,1,,,,,11,4,92,0,209.3311687999999,,,,,,,,,,,,,,,,,,,,,209.3160788,209.3311687999999,209.81518000000005,209.81964779999998,209.83537220000017,210.71524769999996,,,,,210.7154429000002,210.7307338999999,210.93087560000004,210.9142686,209.83537220000017,,,,,,,,1,1,0.8780901999998605,None,,,,,,,,886,26,M,R,2026-02-25_11h40.36.919,VisualSearch_2526_3,,2025.2.4,2026-02-25 11h40.37.131585 +0100,
vertical.xlsx,The target is tilted.,135,93,5,11,0,1,1,1,1,1,1,1,1,1,1,1,1,11,12,135,space,4.582063299999845,None,0,1,1.3658900999998878,None,space,2.0226542000000336,None,0,0,0,1,,,,,11,5,93,4,210.93087560000004,,,,,,,,,,,,,,,,,,,,,210.9148309000002,210.93087560000004,211.41438849999986,211.4189495999999,211.43522600000006,212.81431380000004,,,,,212.81450780000023,212.82981900000004,213.02965380000023,213.01327149999997,211.43522600000006,,,,,,,,0,1,1.3658900999998878,None,,,,,,,,886,26,M,R,2026-02-25_11h40.36.919,VisualSearch_2526_3,,2025.2.4,2026-02-25 11h40.37.131585 +0100,
vertical.xlsx,The target is tilted.,135,94,6,11,0,0,0,0,0,0,0,0,0,0,0,0,1,1,1,135,space,4.582063299999845,None,1,0,0.4139828999996098,None,space,2.0226542000000336,None,0,0,0,1,,,,,11,6,94,7,213.02965380000023,,,,,,,,,,,,,,,,,,,,,213.01402000000007,213.02965380000023,213.5129194000001,213.51502949999986,213.52948640000022,213.9465381,,,,,213.94671900000003,213.96268520000012,214.16218060000028,214.14611240000022,213.52948640000022,,,,,,,,1,0,0.4139828999996098,None,,,,,,,,886,26,M,R,2026-02-25_11h40.36.919,VisualSearch_2526_3,,2025.2.4,2026-02-25 11h40.37.131585 +0100,
vertical.xlsx,The target is tilted.,135,95,7,11,1,1,1,1,0,0,0,0,0,0,0,0,0,3,4,135,space,4.582063299999845,None,1,1,0.547882600000321,None,space,2.0226542000000336,None,0,0,0,1,,,,,11,7,95,2,214.16218060000028,,,,,,,,,,,,,,,,,,,,,214.14685529999997,214.16218060000028,214.64635580000004,214.65091119999988,214.66438169999992,215.22998170000028,,,,,215.2302069000002,215.24535000000014,215.44502139999986,215.4289493000001,214.66438169999992,,,,,,,,1,1,0.547882600000321,None,,,,,,,,886,26,M,R,2026-02-25_11h40.36.919,VisualSearch_2526_3,,2025.2.4,2026-02-25 11h40.37.131585 +0100,
vertical.xlsx,The target is tilted.,135,96,0,12,0,0,0,0,0,0,0,0,0,0,0,0,1,1,1,135,space,4.582063299999845,None,0,1,0.876774999999725,None,space,2.0226542000000336,None,0,0,0,1,,,,,12,0,96,7,215.44502139999986,,,,,,,,,,,,,,,,,,,,,215.42967020000015,215.44502139999986,215.92903160000014,215.93355259999998,215.95052579999992,216.82830590000003,,,,,216.82844160000013,216.84463920000007,217.0446589000003,217.02865680000014,215.95052579999992,,,,,,,,0,1,0.876774999999725,None,,,,,,,,886,26,M,R,2026-02-25_11h40.36.919,VisualSearch_2526_3,,2025.2.4,2026-02-25 11h40.37.131585 +0100,
vertical.xlsx,The target is tilted.,135,97,1,12,1,1,1,1,0,0,0,0,0,0,0,0,0,3,4,135,space,4.582063299999845,None,1,1,1.0561572999999953,None,space,2.0226542000000336,None,0,0,0,1,,,,,12,1,97,2,217.0446589000003,,,,,,,,,,,,,,,,,,,,,217.02939259999994,217.0446589000003,217.52818819999993,217.5326602,217.5478688000003,218.61108409999997,,,,,218.61123300000008,218.62687779999987,218.82716579999988,218.81115249999993,217.5478688000003,,,,,,,,1,1,1.0561572999999953,None,,,,,,,,886,26,M,R,2026-02-25_11h40.36.919,VisualSearch_2526_3,,2025.2.4,2026-02-25 11h40.37.131585 +0100,
vertical.xlsx,The target is tilted.,135,98,2,12,1,1,1,1,1,1,1,1,1,1,1,1,0,11,12,135,space,4.582063299999845,None,1,1,0.6141947000000982,None,space,2.0226542000000336,None,0,0,0,1,,,,,12,2,98,0,218.82716579999988,,,,,,,,,,,,,,,,,,,,,218.8119084,218.82716579999988,219.31083089999993,219.31526140000005,219.33093529999996,219.96059240000022,,,,,219.96071699999993,219.97658200000023,220.17612820000022,220.16037129999995,219.33093529999996,,,,,,,,1,1,0.6141947000000982,None,,,,,,,,886,26,M,R,2026-02-25_11h40.36.919,VisualSearch_2526_3,,2025.2.4,2026-02-25 11h40.37.131585 +0100,
vertical.xlsx,The target is tilted.,135,99,3,12,1,1,1,1,1,1,1,1,0,0,0,0,0,7,8,135,space,4.582063299999845,None,1,1,0.6904290999996192,None,space,2.0226542000000336,None,0,0,0,1,,,,,12,3,99,1,220.17612820000022,,,,,,,,,,,,,,,,,,,,,220.16111460000002,220.17612820000022,220.66018930000018,220.66477609999993,220.6804806,221.37613280000005,,,,,221.3762225999999,221.3922077000002,221.5924758000001,221.57652229999985,220.6804806,,,,,,,,1,1,0.6904290999996192,None,,,,,,,,886,26,M,R,2026-02-25_11h40.36.919,VisualSearch_2526_3,,2025.2.4,2026-02-25 11h40.37.131585 +0100,
vertical.xlsx,The target is tilted.,135,100,4,12,0,1,1,1,1,1,1,1,0,0,0,0,1,7,8,135,space,4.582063299999845,None,0,1,0.7504331999998612,None,space,2.0226542000000336,None,0,0,0,1,,,,,12,4,100,5,221.5924758000001,,,,,,,,,,,,,,,,,,,,,221.5773339000002,221.5924758000001,222.07587590000003,222.08034510000016,222.0949031,222.85931000000028,,,,,222.85943240000006,222.87520480000012,223.07521970000016,223.05913439999995,222.0949031,,,,,,,,0,1,0.7504331999998612,None,,,,,,,,886,26,M,R,2026-02-25_11h40.36.919,VisualSearch_2526_3,,2025.2.4,2026-02-25 11h40.37.131585 +0100,
vertical.xlsx,The target is tilted.,135,101,5,12,0,1,1,1,0,0,0,0,0,0,0,0,1,3,4,135,space,4.582063299999845,None,1,0,0.5718857000001663,None,space,2.0226542000000336,None,0,0,0,1,,,,,12,5,101,6,223.07521970000016,,,,,,,,,,,,,,,,,,,,,223.0598514000003,223.07521970000016,223.55884090000018,223.5633542999999,223.5768825,224.15867040000012,,,,,224.15880370000013,224.1746895000001,224.3746172000001,224.35850570000002,223.5768825,,,,,,,,1,0,0.5718857000001663,None,,,,,,,,886,26,M,R,2026-02-25_11h40.36.919,VisualSearch_2526_3,,2025.2.4,2026-02-25 11h40.37.131585 +0100,
vertical.xlsx,The target is tilted.,135,102,6,12,1,0,0,0,0,0,0,0,0,0,0,0,0,0,1,135,space,4.582063299999845,None,1,1,0.595216199999868,None,space,2.0226542000000336,None,0,0,0,1,,,,,12,6,102,3,224.3746172000001,,,,,,,,,,,,,,,,,,,,,224.3592090000002,224.3746172000001,224.85823290000008,224.8627577000002,224.87787750000007,225.47522660000004,,,,,225.4754221000003,225.49039360000006,225.6908072000001,225.67452570000023,224.87787750000007,,,,,,,,1,1,0.595216199999868,None,,,,,,,,886,26,M,R,2026-02-25_11h40.36.919,VisualSearch_2526_3,,2025.2.4,2026-02-25 11h40.37.131585 +0100,
vertical.xlsx,The target is tilted.,135,103,7,12,0,1,1,1,1,1,1,1,1,1,1,1,1,11,12,135,space,4.582063299999845,None,0,1,1.638039199999639,None,space,2.0226542000000336,None,0,0,0,1,,,,,12,7,103,4,225.6908072000001,,,,,,,,,,,,,,,,,,,,,225.6752730000003,225.6908072000001,226.1740138,226.17844730000024,226.19190819999994,227.84089630000017,,,,,227.84112080000023,227.85640850000027,228.05632400000013,228.04023499999994,226.19190819999994,,,,,,,,0,1,1.638039199999639,None,,,,,,,,886,26,M,R,2026-02-25_11h40.36.919,VisualSearch_2526_3,,2025.2.4,2026-02-25 11h40.37.131585 +0100,
vertical.xlsx,The target is tilted.,135,104,0,13,0,1,1,1,1,1,1,1,0,0,0,0,1,7,8,135,space,4.582063299999845,None,0,1,1.4710105999997722,None,space,2.0226542000000336,None,0,0,0,1,,,,,13,0,104,5,228.05632400000013,,,,,,,,,,,,,,,,,,,,,228.04093349999994,228.05632400000013,228.53997590000017,228.54430589999993,228.56129480000027,230.03937619999988,,,,,230.0395139000002,230.0551777999999,230.25524450000012,230.2391606000001,228.56129480000027,,,,,,,,0,1,1.4710105999997722,None,,,,,,,,886,26,M,R,2026-02-25_11h40.36.919,VisualSearch_2526_3,,2025.2.4,2026-02-25 11h40.37.131585 +0100,
vertical.xlsx,The target is tilted.,135,105,1,13,0,1,1,1,0,0,0,0,0,0,0,0,1,3,4,135,space,4.582063299999845,None,0,1,0.8548538000000008,None,space,2.0226542000000336,None,0,0,0,1,,,,,13,1,105,6,230.25524450000012,,,,,,,,,,,,,,,,,,,,,230.23989990000018,230.25524450000012,230.73899690000007,230.74348180000015,230.75875059999998,231.62223790000007,,,,,231.62243179999996,231.63792280000007,231.8375817000001,231.82164890000013,230.75875059999998,,,,,,,,0,1,0.8548538000000008,None,,,,,,,,886,26,M,R,2026-02-25_11h40.36.919,VisualSearch_2526_3,,2025.2.4,2026-02-25 11h40.37.131585 +0100,
vertical.xlsx,The target is tilted.,135,106,2,13,1,1,1,1,0,0,0,0,0,0,0,0,0,3,4,135,space,4.582063299999845,None,1,1,0.6924408999998377,None,space,2.0226542000000336,None,0,0,0,1,,,,,13,2,106,2,231.8375817000001,,,,,,,,,,,,,,,,,,,,,231.8224078000003,231.8375817000001,232.32171740000013,232.32621500000005,232.34115380000003,233.03813459999992,,,,,233.03833880000002,233.05386110000018,233.25394570000026,233.23782119999987,232.34115380000003,,,,,,,,1,1,0.6924408999998377,None,,,,,,,,886,26,M,R,2026-02-25_11h40.36.919,VisualSearch_2526_3,,2025.2.4,2026-02-25 11h40.37.131585 +0100,
vertical.xlsx,The target is tilted.,135,107,3,13,0,0,0,0,0,0,0,0,0,0,0,0,1,1,1,135,space,4.582063299999845,None,0,1,0.8342061000003014,None,space,2.0226542000000336,None,0,0,0,1,,,,,13,3,107,7,233.25394570000026,,,,,,,,,,,,,,,,,,,,,233.23856049999995,233.25394570000026,233.73769470000025,233.74216269999988,233.75668900000028,234.60439570000017,,,,,234.60458749999998,234.61989820000008,234.8199585000002,234.80365680000023,233.75668900000028,,,,,,,,0,1,0.8342061000003014,None,,,,,,,,886,26,M,R,2026-02-25_11h40.36.919,VisualSearch_2526_3,,2025.2.4,2026-02-25 11h40.37.131585 +0100,
vertical.xlsx,The target is tilted.,135,108,4,13,1,1,1,1,1,1,1,1,0,0,0,0,0,7,8,135,space,4.582063299999845,None,1,1,0.5734050999999454,None,space,2.0226542000000336,None,0,0,0,1,,,,,13,4,108,1,234.8199585000002,,,,,,,,,,,,,,,,,,,,,234.80448720000004,234.8199585000002,235.30345880000004,235.30791520000002,235.3218350000002,235.9037773,,,,,235.90398129999994,235.91920900000014,236.1192903000001,236.10300000000007,235.3218350000002,,,,,,,,1,1,0.5734050999999454,None,,,,,,,,886,26,M,R,2026-02-25_11h40.36.919,VisualSearch_2526_3,,2025.2.4,2026-02-25 11h40.37.131585 +0100,
vertical.xlsx,The target is tilted.,135,109,5,13,0,1,1,1,1,1,1,1,1,1,1,1,1,11,12,135,space,4.582063299999845,None,0,1,1.4613168999999289,None,space,2.0226542000000336,None,0,0,0,1,,,,,13,5,109,4,236.1192903000001,,,,,,,,,,,,,,,,,,,,,236.10376129999986,236.1192903000001,236.6029665000001,236.60749620000024,236.62173340000027,238.0862970000003,,,,,238.08652299999994,238.10127490000013,238.30125230000021,238.2854471999999,236.62173340000027,,,,,,,,0,1,1.4613168999999289,None,,,,,,,,886,26,M,R,2026-02-25_11h40.36.919,VisualSearch_2526_3,,2025.2.4,2026-02-25 11h40.37.131585 +0100,
vertical.xlsx,The target is tilted.,135,110,6,13,1,0,0,0,0,0,0,0,0,0,0,0,0,0,1,135,space,4.582063299999845,None,1,1,1.2532785999997031,None,space,2.0226542000000336,None,0,0,0,1,,,,,13,6,110,3,238.30125230000021,,,,,,,,,,,,,,,,,,,,,238.28624450000007,238.30125230000021,238.78530360000013,238.78995179999993,238.8056343000003,240.06833240000014,,,,,240.0685266999999,240.0835419,240.28404739999996,240.2679763000001,238.8056343000003,,,,,,,,1,1,1.2532785999997031,None,,,,,,,,886,26,M,R,2026-02-25_11h40.36.919,VisualSearch_2526_3,,2025.2.4,2026-02-25 11h40.37.131585 +0100,
vertical.xlsx,The target is tilted.,135,111,7,13,1,1,1,1,1,1,1,1,1,1,1,1,0,11,12,135,space,4.582063299999845,None,1,1,2.9239722000002075,None,space,2.0226542000000336,None,0,0,0,1,,,,,13,7,111,0,240.28404739999996,,,,,,,,,,,,,,,,,,,,,240.26880789999996,240.28404739999996,240.76756290000003,240.77208659999997,240.78625169999987,243.71593949999988,,,,,243.7160369000003,243.73199620000014,243.9323529000003,243.91630399999985,240.78625169999987,,,,,,,,1,1,2.9239722000002075,None,,,,,,,,886,26,M,R,2026-02-25_11h40.36.919,VisualSearch_2526_3,,2025.2.4,2026-02-25 11h40.37.131585 +0100,
vertical.xlsx,The target is tilted.,135,112,0,14,1,1,1,1,0,0,0,0,0,0,0,0,0,3,4,135,space,4.582063299999845,None,1,1,0.5620807000000241,None,space,2.0226542000000336,None,0,0,0,1,,,,,14,0,112,2,243.9323529000003,,,,,,,,,,,,,,,,,,,,,243.9170349000001,243.9323529000003,244.4160806,244.42056649999995,244.4351101000002,244.9997311000002,,,,,244.99992100000009,245.01492319999988,245.2150486999999,245.1989294,244.4351101000002,,,,,,,,1,1,0.5620807000000241,None,,,,,,,,886,26,M,R,2026-02-25_11h40.36.919,VisualSearch_2526_3,,2025.2.4,2026-02-25 11h40.37.131585 +0100,
vertical.xlsx,The target is tilted.,135,113,1,14,1,1,1,1,1,1,1,1,1,1,1,1,0,11,12,135,space,4.582063299999845,None,0,0,1.4009195000003274,None,space,2.0226542000000336,None,0,0,0,1,,,,,14,1,113,0,245.2150486999999,,,,,,,,,,,,,,,,,,,,,245.19969020000008,245.2150486999999,245.69882280000002,245.70332120000012,245.71889980000014,247.13158150000027,,,,,247.13172699999996,247.14752989999988,247.3474911000003,247.33142279999993,245.71889980000014,,,,,,,,0,0,1.4009195000003274,None,,,,,,,,886,26,M,R,2026-02-25_11h40.36.919,VisualSearch_2526_3,,2025.2.4,2026-02-25 11h40.37.131585 +0100,
vertical.xlsx,The target is tilted.,135,114,2,14,0,0,0,0,0,0,0,0,0,0,0,0,1,1,1,135,space,4.582063299999845,None,0,1,2.440455099999781,None,space,2.0226542000000336,None,0,0,0,1,,,,,14,2,114,7,247.3474911000003,,,,,,,,,,,,,,,,,,,,,247.33214580000003,247.3474911000003,247.83066640000015,247.83515620000026,247.84892309999987,250.29693880000013,,,,,250.2971247999999,250.3127142000003,250.51278120000006,250.4969014000003,247.84892309999987,,,,,,,,0,1,2.440455099999781,None,,,,,,,,886,26,M,R,2026-02-25_11h40.36.919,VisualSearch_2526_3,,2025.2.4,2026-02-25 11h40.37.131585 +0100,
vertical.xlsx,The target is tilted.,135,115,3,14,1,1,1,1,1,1,1,1,0,0,0,0,0,7,8,135,space,4.582063299999845,None,1,1,0.6014715000001161,None,space,2.0226542000000336,None,0,0,0,1,,,,,14,3,115,1,250.51278120000006,,,,,,,,,,,,,,,,,,,,,250.49773480000022,250.51278120000006,250.9964199000001,251.00100950000024,251.01607250000006,251.6300510000001,,,,,251.63024360000009,251.6451732999999,251.84548930000028,251.8292775,251.01607250000006,,,,,,,,1,1,0.6014715000001161,None,,,,,,,,886,26,M,R,2026-02-25_11h40.36.919,VisualSearch_2526_3,,2025.2.4,2026-02-25 11h40.37.131585 +0100,
vertical.xlsx,The target is tilted.,135,116,4,14,0,1,1,1,0,0,0,0,0,0,0,0,1,3,4,135,space,4.582063299999845,None,0,1,0.69703329999993,None,space,2.0226542000000336,None,0,0,0,1,,,,,14,4,116,6,251.84548930000028,,,,,,,,,,,,,,,,,,,,,251.83003009999993,251.84548930000028,252.3286905,252.33309250000002,252.34509849999995,253.04523340000014,,,,,253.04537949999985,253.0611788000001,253.26124320000008,253.24546550000014,252.34509849999995,,,,,,,,0,1,0.69703329999993,None,,,,,,,,886,26,M,R,2026-02-25_11h40.36.919,VisualSearch_2526_3,,2025.2.4,2026-02-25 11h40.37.131585 +0100,
vertical.xlsx,The target is tilted.,135,117,5,14,0,1,1,1,1,1,1,1,1,1,1,1,1,11,12,135,space,4.582063299999845,None,0,1,1.9483425999997053,None,space,2.0226542000000336,None,0,0,0,1,,,,,14,5,117,4,253.26124320000008,,,,,,,,,,,,,,,,,,,,,253.2462375,253.26124320000008,253.7451119000002,253.7495603000002,253.76392889999988,255.7276965000001,,,,,255.72783329999993,255.74353710000014,255.9435994999999,255.927279,253.76392889999988,,,,,,,,0,1,1.9483425999997053,None,,,,,,,,886,26,M,R,2026-02-25_11h40.36.919,VisualSearch_2526_3,,2025.2.4,2026-02-25 11h40.37.131585 +0100,
vertical.xlsx,The target is tilted.,135,118,6,14,1,0,0,0,0,0,0,0,0,0,0,0,0,0,1,135,space,4.582063299999845,None,1,1,0.4743883999999525,None,space,2.0226542000000336,None,0,0,0,1,,,,,14,6,118,3,255.9435994999999,,,,,,,,,,,,,,,,,,,,,255.92799890000015,255.9435994999999,256.42716100000007,256.4316364000001,256.44684830000006,256.92754330000025,,,,,256.9277373,256.94306959999994,257.1426040000001,257.1269553000002,256.44684830000006,,,,,,,,1,1,0.4743883999999525,None,,,,,,,,886,26,M,R,2026-02-25_11h40.36.919,VisualSearch_2526_3,,2025.2.4,2026-02-25 11h40.37.131585 +0100,
vertical.xlsx,The target is tilted.,135,119,7,14,0,1,1,1,1,1,1,1,0,0,0,0,1,7,8,135,space,4.582063299999845,None,0,1,1.713454400000046,None,space,2.0226542000000336,None,0,0,0,1,,,,,14,7,119,5,257.1426040000001,,,,,,,,,,,,,,,,,,,,,257.12780740000017,257.1426040000001,257.62673589999986,257.6312087000001,257.6464185,259.37631820000024,,,,,259.37651000000005,259.3914798999999,259.6049625999999,259.5757549,257.6464185,,,,,,,,0,1,1.713454400000046,None,,,,,,,,886,26,M,R,2026-02-25_11h40.36.919,VisualSearch_2526_3,,2025.2.4,2026-02-25 11h40.37.131585 +0100,
vertical.xlsx,The target is tilted.,135,0,0,0,,,,,,,,,,,,,,,,,space,4.582063299999845,None,,,,,space,2.0226542000000336,None,0,0,0,1,,,,,,,,,,,,,,,,,,,,,,,,,,,,,,,,,,,,,,,,,,,,,,,,,,,,,,,,,,,,,,,886,26,M,R,2026-02-25_11h40.36.919,VisualSearch_2526_3,,2025.2.4,2026-02-25 11h40.37.131585 +0100,
tilted.xlsx,The target is tilted.,117,0,0,0,1,1,1,1,1,1,1,1,1,1,1,1,0,11,12,117,space,4.593943700000182,None,1,1,8.476994000000104,None,,,,0,1,1,0,0,0,0,0,,,,,264.22442880000017,,,,,,,,,,,,,,,259.6049625999999,259.6049625999999,259.6049625999999,space,4.593943700000182,None,264.2208406,264.22442880000017,264.7232472999999,264.72778629999993,264.74324879999995,273.2368547000001,1,1,8.476994000000104,None,273.2370479000001,273.2523140000003,273.45223020000003,273.4360879999999,,,,,,,,,,,,,,,,,,,,886,26,M,R,2026-02-25_11h40.36.919,VisualSearch_2526_3,,2025.2.4,2026-02-25 11h40.37.131585 +0100,
tilted.xlsx,The target is tilted.,117,1,1,0,0,1,1,1,1,1,1,1,1,1,1,1,1,11,12,117,space,4.593943700000182,None,1,0,1.2630457999998725,None,,,,0,1,1,0,0,1,1,4,,,,,273.45223020000003,,,,,,,,,,,,,,,,,,,,,273.43679520000023,273.45223020000003,273.9359437000003,273.940298,273.9554312,275.2358800000002,1,0,1.2630457999998725,None,275.23606610000024,275.25122469999997,275.4509720000001,275.4351697000002,273.9554312,,,,,,,,,,,,,,,,,,,886,26,M,R,2026-02-25_11h40.36.919,VisualSearch_2526_3,,2025.2.4,2026-02-25 11h40.37.131585 +0100,
tilted.xlsx,The target is tilted.,117,2,2,0,1,1,1,1,0,0,0,0,0,0,0,0,0,3,4,117,space,4.593943700000182,None,0,0,3.841443199999958,None,,,,0,1,1,0,0,2,2,2,,,,,275.4509720000001,,,,,,,,,,,,,,,,,,,,,275.4358738000001,275.4509720000001,275.9349121,275.93946510000023,275.9510141999999,279.7997370000003,0,0,3.841443199999958,None,279.7998281,279.8158228000002,280.0159757000001,279.99984459999996,275.9510141999999,,,,,,,,,,,,,,,,,,,886,26,M,R,2026-02-25_11h40.36.919,VisualSearch_2526_3,,2025.2.4,2026-02-25 11h40.37.131585 +0100,
tilted.xlsx,The target is tilted.,117,3,3,0,0,1,1,1,0,0,0,0,0,0,0,0,1,3,4,117,space,4.593943700000182,None,1,0,0.8607547999999952,None,,,,0,1,1,0,0,3,3,6,,,,,280.0159757000001,,,,,,,,,,,,,,,,,,,,,280.00051540000004,280.0159757000001,280.4995242,280.50400850000005,280.5198911000002,281.3829796,1,0,0.8607547999999952,None,281.3831788000002,281.3985391000001,281.5982841,281.5823946999999,280.5198911000002,,,,,,,,,,,,,,,,,,,886,26,M,R,2026-02-25_11h40.36.919,VisualSearch_2526_3,,2025.2.4,2026-02-25 11h40.37.131585 +0100,
tilted.xlsx,The target is tilted.,117,4,4,0,0,1,1,1,1,1,1,1,0,0,0,0,1,7,8,117,space,4.593943700000182,None,1,0,0.6259282000000894,None,,,,0,1,1,0,0,4,4,5,,,,,281.5982841,,,,,,,,,,,,,,,,,,,,,281.5830933000002,281.5982841,282.0819148999999,282.0865738000002,282.1015215000002,282.7322331999999,1,0,0.6259282000000894,None,282.7324585000001,282.7480541,282.94811519999985,282.93199860000004,282.1015215000002,,,,,,,,,,,,,,,,,,,886,26,M,R,2026-02-25_11h40.36.919,VisualSearch_2526_3,,2025.2.4,2026-02-25 11h40.37.131585 +0100,
tilted.xlsx,The target is tilted.,117,5,5,0,1,1,1,1,1,1,1,1,0,0,0,0,0,7,8,117,space,4.593943700000182,None,1,1,2.645701899999949,None,,,,0,1,1,0,0,5,5,1,,,,,282.94811519999985,,,,,,,,,,,,,,,,,,,,,282.9327499000001,282.94811519999985,283.43162489999986,283.4361411,283.4500413999999,286.0975676000003,1,1,2.645701899999949,None,286.0977548999999,286.1128251,286.3123304999999,286.2961193000001,283.4500413999999,,,,,,,,,,,,,,,,,,,886,26,M,R,2026-02-25_11h40.36.919,VisualSearch_2526_3,,2025.2.4,2026-02-25 11h40.37.131585 +0100,
tilted.xlsx,The target is tilted.,117,6,6,0,0,0,0,0,0,0,0,0,0,0,0,0,1,1,1,117,space,4.593943700000182,None,1,0,0.9007743000001938,None,,,,0,1,1,0,0,6,6,7,,,,,286.3123304999999,,,,,,,,,,,,,,,,,,,,,286.2965303000001,286.3123304999999,286.79662180000014,286.8010282,286.81624220000003,287.73018839999986,1,0,0.9007743000001938,None,287.7303723,287.74535400000013,287.94561870000007,287.92920809999987,286.81624220000003,,,,,,,,,,,,,,,,,,,886,26,M,R,2026-02-25_11h40.36.919,VisualSearch_2526_3,,2025.2.4,2026-02-25 11h40.37.131585 +0100,
tilted.xlsx,The target is tilted.,117,7,7,0,1,0,0,0,0,0,0,0,0,0,0,0,0,0,1,117,space,4.593943700000182,None,0,0,2.1247496999999385,None,,,,0,1,1,0,0,7,7,3,,,,,287.94561870000007,,,,,,,,,,,,,,,,,,,,,287.9296414999999,287.94561870000007,288.4296306000001,288.43469970000024,288.4502316000003,290.5786309,0,0,2.1247496999999385,None,290.57881480000015,290.5940835000001,290.7943562999999,290.77834570000005,288.4502316000003,,,,,,,,,,,,,,,,,,,886,26,M,R,2026-02-25_11h40.36.919,VisualSearch_2526_3,,2025.2.4,2026-02-25 11h40.37.131585 +0100,
tilted.xlsx,The target is tilted.,117,0,0,0,1,1,1,1,1,1,1,1,1,1,1,1,0,11,12,117,space,4.593943700000182,None,1,1,2.3290837999998075,None,space,9.17897640000001,None,0,1,1,0,,,,,0,0,0,0,300.01856670000006,,,,,,,,,,,,,,,,,,,,,300.015124,300.01856670000006,300.5069103000001,300.51141830000006,300.5261691999999,302.8561565,,,,,302.85628399999996,302.87182380000013,303.0720302,303.0560412,,290.7853405999999,290.7943562999999,290.7943562999999,299.9907696,space,9.17897640000001,None,1,1,2.3290837999998075,None,,,,,,,,886,26,M,R,2026-02-25_11h40.36.919,VisualSearch_2526_3,,2025.2.4,2026-02-25 11h40.37.131585 +0100,
tilted.xlsx,The target is tilted.,117,1,1,0,0,1,1,1,1,1,1,1,1,1,1,1,1,11,12,117,space,4.593943700000182,None,1,0,2.521448500000133,None,space,9.17897640000001,None,0,1,1,0,,,,,0,1,1,4,303.0720302,,,,,,,,,,,,,,,,,,,,,303.0567605000001,303.0720302,303.5557895000002,303.5603569,303.57604059999994,306.10514820000026,,,,,306.10535040000013,306.1203811999999,306.32019739999987,306.30417020000004,303.57604059999994,,,,,,,,1,0,2.521448500000133,None,,,,,,,,886,26,M,R,2026-02-25_11h40.36.919,VisualSearch_2526_3,,2025.2.4,2026-02-25 11h40.37.131585 +0100,
tilted.xlsx,The target is tilted.,117,2,2,0,1,0,0,0,0,0,0,0,0,0,0,0,0,0,1,117,space,4.593943700000182,None,0,0,0.7089355000002797,None,space,9.17897640000001,None,0,1,1,0,,,,,0,2,2,3,306.32019739999987,,,,,,,,,,,,,,,,,,,,,306.30490839999993,306.32019739999987,306.80439750000005,306.8087335,306.8203257,307.53764439999986,,,,,307.5378805,307.55341499999986,307.7532782000003,307.7371495000002,306.8203257,,,,,,,,0,0,0.7089355000002797,None,,,,,,,,886,26,M,R,2026-02-25_11h40.36.919,VisualSearch_2526_3,,2025.2.4,2026-02-25 11h40.37.131585 +0100,
tilted.xlsx,The target is tilted.,117,3,3,0,1,1,1,1,1,1,1,1,0,0,0,0,0,7,8,117,space,4.593943700000182,None,1,1,1.8541023000002497,None,space,9.17897640000001,None,0,1,1,0,,,,,0,3,3,1,307.7532782000003,,,,,,,,,,,,,,,,,,,,,307.7379890000002,307.7532782000003,308.2371017999999,308.2415673999999,308.2565690000001,310.1200063000001,,,,,310.12020140000004,310.1352775999999,310.3354967,310.31936410000026,308.2565690000001,,,,,,,,1,1,1.8541023000002497,None,,,,,,,,886,26,M,R,2026-02-25_11h40.36.919,VisualSearch_2526_3,,2025.2.4,2026-02-25 11h40.37.131585 +0100,
tilted.xlsx,The target is tilted.,117,4,4,0,0,0,0,0,0,0,0,0,0,0,0,0,1,1,1,117,space,4.593943700000182,None,1,0,0.5658708999999362,None,space,9.17897640000001,None,0,1,1,0,,,,,0,4,4,7,310.3354967,,,,,,,,,,,,,,,,,,,,,310.3201251999999,310.3354967,310.81924370000024,310.8237554000002,310.83944999999994,311.4194444,,,,,311.4196508,311.4349462,311.6348862,311.6183857000001,310.83944999999994,,,,,,,,1,0,0.5658708999999362,None,,,,,,,,886,26,M,R,2026-02-25_11h40.36.919,VisualSearch_2526_3,,2025.2.4,2026-02-25 11h40.37.131585 +0100,
tilted.xlsx,The target is tilted.,117,5,5,0,1,1,1,1,0,0,0,0,0,0,0,0,0,3,4,117,space,4.593943700000182,None,0,0,0.912873700000091,None,space,9.17897640000001,None,0,1,1,0,,,,,0,5,5,2,311.6348862,,,,,,,,,,,,,,,,,,,,,311.61909620000006,311.6348862,312.1181566999999,312.1226056999999,312.13715850000017,313.052099,,,,,313.05233720000024,313.0676005,313.2671671000003,313.2510406000001,312.13715850000017,,,,,,,,0,0,0.912873700000091,None,,,,,,,,886,26,M,R,2026-02-25_11h40.36.919,VisualSearch_2526_3,,2025.2.4,2026-02-25 11h40.37.131585 +0100,
tilted.xlsx,The target is tilted.,117,6,6,0,0,1,1,1,1,1,1,1,0,0,0,0,1,7,8,117,space,4.593943700000182,None,1,0,0.9007692999998653,None,space,9.17897640000001,None,0,1,1,0,,,,,0,6,6,5,313.2671671000003,,,,,,,,,,,,,,,,,,,,,313.25175880000006,313.2671671000003,313.75126750000027,313.75589500000024,313.7713859999999,314.6844922,,,,,314.68466780000017,314.70018389999996,314.9001002,314.8839066999999,313.7713859999999,,,,,,,,1,0,0.9007692999998653,None,,,,,,,,886,26,M,R,2026-02-25_11h40.36.919,VisualSearch_2526_3,,2025.2.4,2026-02-25 11h40.37.131585 +0100,
tilted.xlsx,The target is tilted.,117,7,7,0,0,1,1,1,0,0,0,0,0,0,0,0,1,3,4,117,space,4.593943700000182,None,1,0,0.9086948000003758,None,space,9.17897640000001,None,0,1,1,0,,,,,0,7,7,6,314.9001002,,,,,,,,,,,,,,,,,,,,,314.8846779999999,314.9001002,315.3834246000001,315.38783730000023,315.3995723000003,316.31727060000003,,,,,316.31747859999996,316.33255640000016,316.53264450000006,316.51655549999987,315.3995723000003,,,,,,,,1,0,0.9086948000003758,None,,,,,,,,886,26,M,R,2026-02-25_11h40.36.919,VisualSearch_2526_3,,2025.2.4,2026-02-25 11h40.37.131585 +0100,
tilted.xlsx,The target is tilted.,117,8,0,1,1,1,1,1,1,1,1,1,1,1,1,1,0,11,12,117,space,4.593943700000182,None,1,1,1.0992072999997617,None,space,9.17897640000001,None,0,1,1,0,,,,,1,0,8,0,316.53264450000006,,,,,,,,,,,,,,,,,,,,,316.5172956000001,316.53264450000006,317.01643730000023,317.02092459999994,317.03634710000006,318.14944909999986,,,,,318.14960980000023,318.1650288000001,318.3651697999999,318.34900670000025,317.03634710000006,,,,,,,,1,1,1.0992072999997617,None,,,,,,,,886,26,M,R,2026-02-25_11h40.36.919,VisualSearch_2526_3,,2025.2.4,2026-02-25 11h40.37.131585 +0100,
tilted.xlsx,The target is tilted.,117,9,1,1,1,1,1,1,0,0,0,0,0,0,0,0,0,3,4,117,space,4.593943700000182,None,0,0,3.3169314000001577,None,space,9.17897640000001,None,0,1,1,0,,,,,1,1,9,2,318.3651697999999,,,,,,,,,,,,,,,,,,,,,318.34975510000004,318.3651697999999,318.8484091,318.8520894000003,318.8659428000001,322.1978696000001,,,,,322.1980649000002,322.21309550000024,322.4133824999999,322.3972652000002,318.8659428000001,,,,,,,,0,0,3.3169314000001577,None,,,,,,,,886,26,M,R,2026-02-25_11h40.36.919,VisualSearch_2526_3,,2025.2.4,2026-02-25 11h40.37.131585 +0100,
tilted.xlsx,The target is tilted.,117,10,2,1,0,1,1,1,1,1,1,1,0,0,0,0,1,7,8,117,space,4.593943700000182,None,1,0,3.7461144000003515,None,space,9.17897640000001,None,0,1,1,0,,,,,1,2,10,5,322.4133824999999,,,,,,,,,,,,,,,,,,,,,322.3980213,322.4133824999999,322.8969083000002,322.90184709999994,322.9157567000002,326.6791954,,,,,326.6793883999999,326.69467050000003,326.8942366000001,326.87804400000005,322.9157567000002,,,,,,,,1,0,3.7461144000003515,None,,,,,,,,886,26,M,R,2026-02-25_11h40.36.919,VisualSearch_2526_3,,2025.2.4,2026-02-25 11h40.37.131585 +0100,
tilted.xlsx,The target is tilted.,117,11,3,1,1,1,1,1,1,1,1,1,0,0,0,0,0,7,8,117,space,4.593943700000182,None,1,1,0.8447139000004427,None,space,9.17897640000001,None,0,1,1,0,,,,,1,3,11,1,326.8942366000001,,,,,,,,,,,,,,,,,,,,,326.87879329999987,326.8942366000001,327.37832590000016,327.3828862999999,327.3978910999999,328.24514550000004,,,,,328.24535300000025,328.2604618999999,328.4606171999999,328.44439390000025,327.3978910999999,,,,,,,,1,1,0.8447139000004427,None,,,,,,,,886,26,M,R,2026-02-25_11h40.36.919,VisualSearch_2526_3,,2025.2.4,2026-02-25 11h40.37.131585 +0100,
tilted.xlsx,The target is tilted.,117,12,4,1,0,1,1,1,0,0,0,0,0,0,0,0,1,3,4,117,space,4.593943700000182,None,1,0,0.5240331999998489,None,space,9.17897640000001,None,0,1,1,0,,,,,1,4,12,6,328.4606171999999,,,,,,,,,,,,,,,,,,,,,328.44516939999994,328.4606171999999,328.9440988000001,328.9482008,328.96373630000016,329.4945404,,,,,329.49473339999986,329.50973620000013,329.71010449999994,329.6938356999999,328.96373630000016,,,,,,,,1,0,0.5240331999998489,None,,,,,,,,886,26,M,R,2026-02-25_11h40.36.919,VisualSearch_2526_3,,2025.2.4,2026-02-25 11h40.37.131585 +0100,
tilted.xlsx,The target is tilted.,117,13,5,1,1,0,0,0,0,0,0,0,0,0,0,0,0,0,1,117,space,4.593943700000182,None,0,0,0.7043073999998342,None,space,9.17897640000001,None,0,1,1,0,,,,,1,5,13,3,329.71010449999994,,,,,,,,,,,,,,,,,,,,,329.6946238999999,329.71010449999994,330.19366260000015,330.1981332999999,330.21423700000014,330.9262294,,,,,330.9263113000002,330.9423154000001,331.14266180000004,331.12661149999985,330.21423700000014,,,,,,,,0,0,0.7043073999998342,None,,,,,,,,886,26,M,R,2026-02-25_11h40.36.919,VisualSearch_2526_3,,2025.2.4,2026-02-25 11h40.37.131585 +0100,
tilted.xlsx,The target is tilted.,117,14,6,1,0,0,0,0,0,0,0,0,0,0,0,0,1,1,1,117,space,4.593943700000182,None,1,0,0.6745958000001337,None,space,9.17897640000001,None,0,1,1,0,,,,,1,6,14,7,331.14266180000004,,,,,,,,,,,,,,,,,,,,,331.12733049999997,331.14266180000004,331.62646900000027,331.6309747,331.64660090000007,332.32651750000014,,,,,332.32670989999997,332.34195899999986,332.5418487000002,332.5259251000002,331.64660090000007,,,,,,,,1,0,0.6745958000001337,None,,,,,,,,886,26,M,R,2026-02-25_11h40.36.919,VisualSearch_2526_3,,2025.2.4,2026-02-25 11h40.37.131585 +0100,
tilted.xlsx,The target is tilted.,117,15,7,1,0,1,1,1,1,1,1,1,1,1,1,1,1,11,12,117,space,4.593943700000182,None,1,0,0.9714309000000867,None,space,9.17897640000001,None,0,1,1,0,,,,,1,7,15,4,332.5418487000002,,,,,,,,,,,,,,,,,,,,,332.5266526999999,332.5418487000002,333.02539939999997,333.0299573000002,333.0457513000001,334.02573500000017,,,,,334.0259205000002,334.0411704000003,334.2411179999999,334.22466029999987,333.0457513000001,,,,,,,,1,0,0.9714309000000867,None,,,,,,,,886,26,M,R,2026-02-25_11h40.36.919,VisualSearch_2526_3,,2025.2.4,2026-02-25 11h40.37.131585 +0100,
tilted.xlsx,The target is tilted.,117,16,0,2,0,1,1,1,0,0,0,0,0,0,0,0,1,3,4,117,space,4.593943700000182,None,0,1,0.9902652999999191,None,space,9.17897640000001,None,0,1,1,0,,,,,2,0,16,6,334.2411179999999,,,,,,,,,,,,,,,,,,,,,334.2254360000002,334.2411179999999,334.7247775000001,334.72927789999994,334.7443983000003,335.7416702999999,,,,,335.74186409999993,335.75688489999993,335.95685619999995,335.9404410000002,334.7443983000003,,,,,,,,0,1,0.9902652999999191,None,,,,,,,,886,26,M,R,2026-02-25_11h40.36.919,VisualSearch_2526_3,,2025.2.4,2026-02-25 11h40.37.131585 +0100,
tilted.xlsx,The target is tilted.,117,17,1,2,0,0,0,0,0,0,0,0,0,0,0,0,1,1,1,117,space,4.593943700000182,None,1,0,0.5572017999998025,None,space,9.17897640000001,None,0,1,1,0,,,,,2,1,17,7,335.95685619999995,,,,,,,,,,,,,,,,,,,,,335.94084169999996,335.95685619999995,336.4408791000001,336.44534490000024,336.46039410000003,337.02498130000004,,,,,337.02519040000016,337.0396417000002,337.23995509999986,337.2233389000003,336.46039410000003,,,,,,,,1,0,0.5572017999998025,None,,,,,,,,886,26,M,R,2026-02-25_11h40.36.919,VisualSearch_2526_3,,2025.2.4,2026-02-25 11h40.37.131585 +0100,
tilted.xlsx,The target is tilted.,117,18,2,2,1,1,1,1,1,1,1,1,0,0,0,0,0,7,8,117,space,4.593943700000182,None,1,1,1.6633704000000762,None,space,9.17897640000001,None,0,1,1,0,,,,,2,2,18,1,337.23995509999986,,,,,,,,,,,,,,,,,,,,,337.2241022000003,337.23995509999986,337.7234048,337.72792290000007,337.74147189999985,339.4058236999999,,,,,339.4059582,339.4221416999999,339.6220421000003,339.60599550000006,337.74147189999985,,,,,,,,1,1,1.6633704000000762,None,,,,,,,,886,26,M,R,2026-02-25_11h40.36.919,VisualSearch_2526_3,,2025.2.4,2026-02-25 11h40.37.131585 +0100,
tilted.xlsx,The target is tilted.,117,19,3,2,1,1,1,1,1,1,1,1,1,1,1,1,0,11,12,117,space,4.593943700000182,None,1,1,1.298327199999676,None,space,9.17897640000001,None,0,1,1,0,,,,,2,3,19,0,339.6220421000003,,,,,,,,,,,,,,,,,,,,,339.6068049999999,339.6220421000003,340.1058072000001,340.1103723000001,340.12652290000005,341.4386687000001,,,,,341.43884579999985,341.4543936,341.6545946000001,341.6384992000003,340.12652290000005,,,,,,,,1,1,1.298327199999676,None,,,,,,,,886,26,M,R,2026-02-25_11h40.36.919,VisualSearch_2526_3,,2025.2.4,2026-02-25 11h40.37.131585 +0100,
tilted.xlsx,The target is tilted.,117,20,4,2,0,1,1,1,1,1,1,1,1,1,1,1,1,11,12,117,space,4.593943700000182,None,1,0,0.7180430000003071,None,space,9.17897640000001,None,0,1,1,0,,,,,2,4,20,4,341.6545946000001,,,,,,,,,,,,,,,,,,,,,341.6393287000001,341.6545946000001,342.13831770000024,342.1428393000001,342.1583021000001,342.88858119999986,,,,,342.8887875999999,342.90373260000024,343.1035130999999,343.0874881,342.1583021000001,,,,,,,,1,0,0.7180430000003071,None,,,,,,,,886,26,M,R,2026-02-25_11h40.36.919,VisualSearch_2526_3,,2025.2.4,2026-02-25 11h40.37.131585 +0100,
tilted.xlsx,The target is tilted.,117,21,5,2,1,1,1,1,0,0,0,0,0,0,0,0,0,3,4,117,space,4.593943700000182,None,0,0,1.018797899999754,None,space,9.17897640000001,None,0,1,1,0,,,,,2,5,21,2,343.1035130999999,,,,,,,,,,,,,,,,,,,,,343.08822880000025,343.1035130999999,343.5876502000001,343.5922260000002,343.60676969999986,344.6376500000001,,,,,344.63784350000014,344.6531052,344.8527250000002,344.8369821000001,343.60676969999986,,,,,,,,0,0,1.018797899999754,None,,,,,,,,886,26,M,R,2026-02-25_11h40.36.919,VisualSearch_2526_3,,2025.2.4,2026-02-25 11h40.37.131585 +0100,
tilted.xlsx,The target is tilted.,117,22,6,2,0,1,1,1,1,1,1,1,0,0,0,0,1,7,8,117,space,4.593943700000182,None,1,0,0.5957667000002402,None,space,9.17897640000001,None,0,1,1,0,,,,,2,6,22,5,344.8527250000002,,,,,,,,,,,,,,,,,,,,,344.8377270000001,344.8527250000002,345.3368206,345.34114020000015,345.3575444000003,345.97046339999997,,,,,345.9706925999999,345.9859449999999,346.1858565000002,346.1698607000003,345.3575444000003,,,,,,,,1,0,0.5957667000002402,None,,,,,,,,886,26,M,R,2026-02-25_11h40.36.919,VisualSearch_2526_3,,2025.2.4,2026-02-25 11h40.37.131585 +0100,
tilted.xlsx,The target is tilted.,117,23,7,2,1,0,0,0,0,0,0,0,0,0,0,0,0,0,1,117,space,4.593943700000182,None,0,0,0.6792685999998866,None,space,9.17897640000001,None,0,1,1,0,,,,,2,7,23,3,346.1858565000002,,,,,,,,,,,,,,,,,,,,,346.1706650000001,346.1858565000002,346.6695321000002,346.6741041999999,346.68950799999993,347.3859631,,,,,347.3861204,347.4017616000001,347.6018984000002,347.58572890000005,346.68950799999993,,,,,,,,0,0,0.6792685999998866,None,,,,,,,,886,26,M,R,2026-02-25_11h40.36.919,VisualSearch_2526_3,,2025.2.4,2026-02-25 11h40.37.131585 +0100,
tilted.xlsx,The target is tilted.,117,24,0,3,1,1,1,1,1,1,1,1,0,0,0,0,0,7,8,117,space,4.593943700000182,None,1,1,0.6804104999996525,None,space,9.17897640000001,None,0,1,1,0,,,,,3,0,24,1,347.6018984000002,,,,,,,,,,,,,,,,,,,,,347.58647310000015,347.6018984000002,348.0855547000001,348.0900657000002,348.1060594999999,348.80144370000016,,,,,348.8015716,348.8178714999999,349.01786140000013,349.00159250000024,348.1060594999999,,,,,,,,1,1,0.6804104999996525,None,,,,,,,,886,26,M,R,2026-02-25_11h40.36.919,VisualSearch_2526_3,,2025.2.4,2026-02-25 11h40.37.131585 +0100,
tilted.xlsx,The target is tilted.,117,25,1,3,1,1,1,1,1,1,1,1,1,1,1,1,0,11,12,117,space,4.593943700000182,None,1,1,0.9993641999999454,None,space,9.17897640000001,None,0,1,1,0,,,,,3,1,25,0,349.01786140000013,,,,,,,,,,,,,,,,,,,,,349.00235470000007,349.01786140000013,349.5010927000003,349.5054997000002,349.5194652,350.53465890000007,,,,,350.5348168999999,350.55015490000005,350.7504669,350.7343549000002,349.5194652,,,,,,,,1,1,0.9993641999999454,None,,,,,,,,886,26,M,R,2026-02-25_11h40.36.919,VisualSearch_2526_3,,2025.2.4,2026-02-25 11h40.37.131585 +0100,
tilted.xlsx,The target is tilted.,117,26,2,3,0,1,1,1,1,1,1,1,0,0,0,0,1,7,8,117,space,4.593943700000182,None,1,0,0.6247871999999006,None,space,9.17897640000001,None,0,1,1,0,,,,,3,2,26,5,350.7504669,,,,,,,,,,,,,,,,,,,,,350.7350517,350.7504669,351.23408400000017,351.2386013,351.2510520999999,351.8838058000001,,,,,351.8839594000001,351.89975270000014,352.09984410000015,352.0835446000001,351.2510520999999,,,,,,,,1,0,0.6247871999999006,None,,,,,,,,886,26,M,R,2026-02-25_11h40.36.919,VisualSearch_2526_3,,2025.2.4,2026-02-25 11h40.37.131585 +0100,
tilted.xlsx,The target is tilted.,117,27,3,3,0,1,1,1,1,1,1,1,1,1,1,1,1,11,12,117,space,4.593943700000182,None,1,0,0.7973065000001043,None,space,9.17897640000001,None,0,1,1,0,,,,,3,3,27,4,352.09984410000015,,,,,,,,,,,,,,,,,,,,,352.0842950000001,352.09984410000015,352.5833742,352.5878729000001,352.6021267000001,353.41708070000004,,,,,353.4173025,353.43250720000015,353.6322720000003,353.61618580000004,352.6021267000001,,,,,,,,1,0,0.7973065000001043,None,,,,,,,,886,26,M,R,2026-02-25_11h40.36.919,VisualSearch_2526_3,,2025.2.4,2026-02-25 11h40.37.131585 +0100,
tilted.xlsx,The target is tilted.,117,28,4,3,1,0,0,0,0,0,0,0,0,0,0,0,0,0,1,117,space,4.593943700000182,None,0,0,0.5787697000000662,None,space,9.17897640000001,None,0,1,1,0,,,,,3,4,28,3,353.6322720000003,,,,,,,,,,,,,,,,,,,,,353.61694560000024,353.6322720000003,354.1161390000002,354.1207869,354.13573110000016,354.71639540000024,,,,,354.7165890000001,354.7318091000002,354.93155449999995,354.91544870000007,354.13573110000016,,,,,,,,0,0,0.5787697000000662,None,,,,,,,,886,26,M,R,2026-02-25_11h40.36.919,VisualSearch_2526_3,,2025.2.4,2026-02-25 11h40.37.131585 +0100,
tilted.xlsx,The target is tilted.,117,29,5,3,0,1,1,1,0,0,0,0,0,0,0,0,1,3,4,117,space,4.593943700000182,None,1,0,0.6053562999995847,None,space,9.17897640000001,None,0,1,1,0,,,,,3,5,29,6,354.93155449999995,,,,,,,,,,,,,,,,,,,,,354.9161746,354.93155449999995,355.4155516999999,355.42003980000027,355.4334130000002,356.04886910000005,,,,,356.0490273999999,356.06471020000026,356.26459350000005,356.24838009999985,355.4334130000002,,,,,,,,1,0,0.6053562999995847,None,,,,,,,,886,26,M,R,2026-02-25_11h40.36.919,VisualSearch_2526_3,,2025.2.4,2026-02-25 11h40.37.131585 +0100,
tilted.xlsx,The target is tilted.,117,30,6,3,0,0,0,0,0,0,0,0,0,0,0,0,1,1,1,117,space,4.593943700000182,None,1,0,0.5242553999996744,None,space,9.17897640000001,None,0,1,1,0,,,,,3,6,30,7,356.26459350000005,,,,,,,,,,,,,,,,,,,,,356.24917760000017,356.26459350000005,356.7482865000002,356.75279090000004,356.7672799000002,357.29780830000027,,,,,357.29788959999996,357.31381360000023,357.5136358,357.4976469000003,356.7672799000002,,,,,,,,1,0,0.5242553999996744,None,,,,,,,,886,26,M,R,2026-02-25_11h40.36.919,VisualSearch_2526_3,,2025.2.4,2026-02-25 11h40.37.131585 +0100,
tilted.xlsx,The target is tilted.,117,31,7,3,1,1,1,1,0,0,0,0,0,0,0,0,0,3,4,117,space,4.593943700000182,None,0,0,1.2335861000001387,None,space,9.17897640000001,None,0,1,1,0,,,,,3,7,31,2,357.5136358,,,,,,,,,,,,,,,,,,,,,357.49835710000025,357.5136358,357.99771090000013,358.0022017000001,358.01666350000005,359.2642873,,,,,359.26449379999985,359.2797407000003,359.47989860000007,359.46361560000014,358.01666350000005,,,,,,,,0,0,1.2335861000001387,None,,,,,,,,886,26,M,R,2026-02-25_11h40.36.919,VisualSearch_2526_3,,2025.2.4,2026-02-25 11h40.37.131585 +0100,
tilted.xlsx,The target is tilted.,117,32,0,4,0,1,1,1,0,0,0,0,0,0,0,0,1,3,4,117,space,4.593943700000182,None,1,0,0.5821957999996812,None,space,9.17897640000001,None,0,1,1,0,,,,,4,0,32,6,359.47989860000007,,,,,,,,,,,,,,,,,,,,,359.4643937000001,359.47989860000007,359.96311830000013,359.96759900000006,359.9820064999999,360.5800331999999,,,,,360.5801918000002,360.59587980000015,360.7958871999999,360.7797528000001,359.9820064999999,,,,,,,,1,0,0.5821957999996812,None,,,,,,,,886,26,M,R,2026-02-25_11h40.36.919,VisualSearch_2526_3,,2025.2.4,2026-02-25 11h40.37.131585 +0100,
tilted.xlsx,The target is tilted.,117,33,1,4,0,1,1,1,1,1,1,1,0,0,0,0,1,7,8,117,space,4.593943700000182,None,1,0,0.8672348999998576,None,space,9.17897640000001,None,0,1,1,0,,,,,4,1,33,5,360.7958871999999,,,,,,,,,,,,,,,,,,,,,360.7804721000002,360.7958871999999,361.2791962000001,361.2837337000001,361.2994549,362.17922880000015,,,,,362.1793538000002,362.19511569999986,362.39490290000003,362.3786295,361.2994549,,,,,,,,1,0,0.8672348999998576,None,,,,,,,,886,26,M,R,2026-02-25_11h40.36.919,VisualSearch_2526_3,,2025.2.4,2026-02-25 11h40.37.131585 +0100,
tilted.xlsx,The target is tilted.,117,34,2,4,1,1,1,1,1,1,1,1,1,1,1,1,0,11,12,117,space,4.593943700000182,None,1,1,0.4353403000000071,None,space,9.17897640000001,None,0,1,1,0,,,,,4,2,34,0,362.39490290000003,,,,,,,,,,,,,,,,,,,,,362.3790635999999,362.39490290000003,362.87846519999994,362.8829066000003,362.8963048999999,363.34538329999987,,,,,363.3455543,363.36110080000026,363.56119209999997,363.54449680000016,362.8963048999999,,,,,,,,1,1,0.4353403000000071,None,,,,,,,,886,26,M,R,2026-02-25_11h40.36.919,VisualSearch_2526_3,,2025.2.4,2026-02-25 11h40.37.131585 +0100,
