file_name,block_instructions,target_example,thisN,thisTrialN,thisRepN,target_presence,opacity_1,opacity_2,opacity_3,opacity_4,opacity_5,opacity_6,opacity_7,opacity_8,opacity_9,opacity_10,opacity_11,opacity_12,n_distract,n_items,target_ori,key_resp_4.keys,key_resp_4.rt,key_resp_4.duration,key_resp.keys,key_resp.corr,key_resp.rt,key_resp.duration,key_resp_5.keys,key_resp_5.rt,key_resp_5.duration,blocks.thisRepN,blocks.thisTrialN,blocks.thisN,blocks.thisIndex,practice_trials.thisRepN,practice_trials.thisTrialN,practice_trials.thisN,practice_trials.thisIndex,trials.thisRepN,trials.thisTrialN,trials.thisN,trials.thisIndex,thisRow.t,notes,Welcome.started,WelcomeText.started,key_resp_2.started,Welcome.stopped,key_resp_2.keys,key_resp_2.rt,key_resp_2.duration,InformedConsent.started,text_4.started,InformedConsent.stopped,key_resp_6.keys,key_resp_6.rt,key_resp_6.duration,key_resp_4.started,example_target.started,text_3.started,blocks.key_resp_4.keys,blocks.key_resp_4.rt,blocks.key_resp_4.duration,FixCross.started,fixCross.started,FixCross.stopped,Stimulus.started,key_resp.started,Stimulus.stopped,practice_trials.key_resp.keys,practice_trials.key_resp.corr,practice_trials.key_resp.rt,practice_trials.key_resp.duration,BlankScreen.started,text.started,text.stopped,BlankScreen.stopped,fixCross.stopped,ExperimentStart.started,text_2.started,key_resp_5.started,ExperimentStart.stopped,blocks.key_resp_5.keys,blocks.key_resp_5.rt,blocks.key_resp_5.duration,trials.key_resp.keys,trials.key_resp.corr,trials.key_resp.rt,trials.key_resp.duration,Thanks.started,ThankYou.started,key_resp_3.started,Thanks.stopped,key_resp_3.keys,key_resp_3.rt,key_resp_3.duration,participant,leeftijd,gender,links/rechtshandig,date,expName,expVersion,psychopyVersion,expStart,
,,,,,,,,,,,,,,,,,,,,,,,,,,,,,,,,,,,,,,,,,,,,,,0.023222799999985,0.03367660000003525,0.03367660000003525,21.925344300000233,space,21.866923099999894,None,,,,,,,,,,,,,,,,,,,,,,,,,,,,,,,,,,,,,,,,,,,,,,887,22,V,L,2026-02-25_11h51.39.954,VisualSearch_2526_3,,2025.2.4,2026-02-25 11h51.40.164143 +0100,
,,,,,,,,,,,,,,,,,,,,,,,,,,,,,,,,,,,,,,,,,,,,,,,,,,,,,21.925398700000187,21.930819900000188,26.160751600000367,y,4.231011399999716,None,,,,,,,,,,,,,,,,,,,,,,,,,,,,,,,,,,,,,,,,887,22,V,L,2026-02-25_11h51.39.954,VisualSearch_2526_3,,2025.2.4,2026-02-25 11h51.40.164143 +0100,
tilted.xlsx,The target is tilted.,117,0,0,0,1,1,1,1,1,1,1,1,0,0,0,0,0,7,8,117,space,7.021407599999748,None,1,1,1.9825996999998097,None,,,,0,0,0,0,0,0,0,1,,,,,33.248008100000334,,,,,,,,,,,,,,,26.199002500000006,26.199002500000006,26.199002500000006,space,7.021407599999748,None,33.24323580000009,33.248008100000334,33.73981649999996,33.744754600000306,33.760497900000246,35.756079500000396,1,1,1.9825996999998097,None,35.756258000000344,35.771809900000335,35.97194450000006,35.955908400000226,,,,,,,,,,,,,,,,,,,,887,22,V,L,2026-02-25_11h51.39.954,VisualSearch_2526_3,,2025.2.4,2026-02-25 11h51.40.164143 +0100,
tilted.xlsx,The target is tilted.,117,1,1,0,1,1,1,1,0,0,0,0,0,0,0,0,0,3,4,117,space,7.021407599999748,None,1,1,1.0653747999999723,None,,,,0,0,0,0,0,1,1,2,,,,,35.97194450000006,,,,,,,,,,,,,,,,,,,,,35.95671170000014,35.97194450000006,36.4555333000003,36.46003420000034,36.47153670000034,37.53867730000002,1,1,1.0653747999999723,None,37.53881360000014,37.554307300000346,37.7540597000002,37.738192400000116,36.47153670000034,,,,,,,,,,,,,,,,,,,887,22,V,L,2026-02-25_11h51.39.954,VisualSearch_2526_3,,2025.2.4,2026-02-25 11h51.40.164143 +0100,
tilted.xlsx,The target is tilted.,117,2,2,0,1,0,0,0,0,0,0,0,0,0,0,0,0,0,1,117,space,7.021407599999748,None,1,1,0.7752503000001525,None,,,,0,0,0,0,0,2,2,3,,,,,37.7540597000002,,,,,,,,,,,,,,,,,,,,,37.73886440000024,37.7540597000002,38.23806820000027,38.24334130000034,38.255652400000145,39.03822050000008,1,1,0.7752503000001525,None,39.03841710000006,39.05295920000026,39.253716200000326,39.23754010000039,38.255652400000145,,,,,,,,,,,,,,,,,,,887,22,V,L,2026-02-25_11h51.39.954,VisualSearch_2526_3,,2025.2.4,2026-02-25 11h51.40.164143 +0100,
tilted.xlsx,The target is tilted.,117,3,3,0,0,1,1,1,0,0,0,0,0,0,0,0,1,3,4,117,space,7.021407599999748,None,0,1,1.373892099999921,None,,,,0,0,0,0,0,3,3,6,,,,,39.253716200000326,,,,,,,,,,,,,,,,,,,,,39.238221400000384,39.253716200000326,39.73727080000026,39.74190750000025,39.75563510000029,41.13730100000021,0,1,1.373892099999921,None,41.1374950000004,41.152114600000004,41.35275580000007,41.33624690000033,39.75563510000029,,,,,,,,,,,,,,,,,,,887,22,V,L,2026-02-25_11h51.39.954,VisualSearch_2526_3,,2025.2.4,2026-02-25 11h51.40.164143 +0100,
tilted.xlsx,The target is tilted.,117,4,4,0,0,1,1,1,1,1,1,1,1,1,1,1,1,11,12,117,space,7.021407599999748,None,1,0,2.031941899999765,None,,,,0,0,0,0,0,4,4,4,,,,,41.35275580000007,,,,,,,,,,,,,,,,,,,,,41.33694510000032,41.35275580000007,41.836189900000136,41.84082149999995,41.856429599999956,43.902111100000184,1,0,2.031941899999765,None,43.902318899999955,43.917723600000045,44.11817330000031,44.1016781000003,41.856429599999956,,,,,,,,,,,,,,,,,,,887,22,V,L,2026-02-25_11h51.39.954,VisualSearch_2526_3,,2025.2.4,2026-02-25 11h51.40.164143 +0100,
tilted.xlsx,The target is tilted.,117,5,5,0,0,1,1,1,1,1,1,1,0,0,0,0,1,7,8,117,space,7.021407599999748,None,1,0,0.7014385999996193,None,,,,0,0,0,0,0,5,5,5,,,,,44.11817330000031,,,,,,,,,,,,,,,,,,,,,44.102382600000055,44.11817330000031,44.60190330000023,44.60592710000037,44.61784250000028,45.33431800000017,1,0,0.7014385999996193,None,45.334451900000204,45.35033610000028,45.550917200000185,45.5347912000002,44.61784250000028,,,,,,,,,,,,,,,,,,,887,22,V,L,2026-02-25_11h51.39.954,VisualSearch_2526_3,,2025.2.4,2026-02-25 11h51.40.164143 +0100,
tilted.xlsx,The target is tilted.,117,6,6,0,0,0,0,0,0,0,0,0,0,0,0,0,1,1,1,117,space,7.021407599999748,None,0,1,1.1453510999999708,None,,,,0,0,0,0,0,6,6,7,,,,,45.550917200000185,,,,,,,,,,,,,,,,,,,,,45.53545090000034,45.550917200000185,46.03470480000033,46.03940680000005,46.05039980000038,47.20090660000005,0,1,1.1453510999999708,None,47.201121700000385,47.215989900000295,47.416289900000265,47.40022630000021,46.05039980000038,,,,,,,,,,,,,,,,,,,887,22,V,L,2026-02-25_11h51.39.954,VisualSearch_2526_3,,2025.2.4,2026-02-25 11h51.40.164143 +0100,
tilted.xlsx,The target is tilted.,117,7,7,0,1,1,1,1,1,1,1,1,1,1,1,1,0,11,12,117,space,7.021407599999748,None,1,1,1.845304599999963,None,,,,0,0,0,0,0,7,7,0,,,,,47.416289900000265,,,,,,,,,,,,,,,,,,,,,47.40089880000005,47.416289900000265,47.90037900000016,47.905087900000126,47.91946800000005,49.766626200000246,1,1,1.845304599999963,None,49.766835000000356,49.78154970000014,49.9820850000001,49.96593100000018,47.91946800000005,,,,,,,,,,,,,,,,,,,887,22,V,L,2026-02-25_11h51.39.954,VisualSearch_2526_3,,2025.2.4,2026-02-25 11h51.40.164143 +0100,
tilted.xlsx,The target is tilted.,117,0,0,0,0,0,0,0,0,0,0,0,0,0,0,0,1,1,1,117,space,7.021407599999748,None,0,1,1.645649499999763,None,space,1.6269624999999905,None,0,0,0,0,,,,,0,0,0,7,51.64131810000026,,,,,,,,,,,,,,,,,,,,,51.637636100000236,51.64131810000026,52.131263200000376,52.135967600000185,52.1521458000002,53.81354310000006,,,,,53.81367640000008,53.83021880000024,,54.01395330000014,,49.97297260000005,49.9820850000001,49.9820850000001,51.61530040000025,space,1.6269624999999905,None,0,1,1.645649499999763,None,,,,,,,,887,22,V,L,2026-02-25_11h51.39.954,VisualSearch_2526_3,,2025.2.4,2026-02-25 11h51.40.164143 +0100,
tilted.xlsx,The target is tilted.,117,1,1,0,1,1,1,1,1,1,1,1,0,0,0,0,0,7,8,117,space,7.021407599999748,None,1,1,2.2987686000001304,None,space,1.6269624999999905,None,0,0,0,0,,,,,0,1,1,1,54.03030990000025,,,,,,,,,,,,,,,,,,,,,54.014701100000366,54.03030990000025,54.513738300000114,54.51833290000013,54.533562900000106,56.84562700000015,,,,,56.845779700000094,56.86174320000009,57.06207510000013,57.04604670000026,54.533562900000106,,,,,,,,1,1,2.2987686000001304,None,,,,,,,,887,22,V,L,2026-02-25_11h51.39.954,VisualSearch_2526_3,,2025.2.4,2026-02-25 11h51.40.164143 +0100,
tilted.xlsx,The target is tilted.,117,2,2,0,1,1,1,1,0,0,0,0,0,0,0,0,0,3,4,117,space,7.021407599999748,None,0,0,1.5547733000003063,None,space,1.6269624999999905,None,0,0,0,0,,,,,0,2,2,2,57.06207510000013,,,,,,,,,,,,,,,,,,,,,57.0468563000004,57.06207510000013,57.54553030000034,57.550198300000375,57.56541210000023,59.128180200000315,,,,,59.12832040000012,59.14391210000031,59.34444590000021,59.328483300000244,57.56541210000023,,,,,,,,0,0,1.5547733000003063,None,,,,,,,,887,22,V,L,2026-02-25_11h51.39.954,VisualSearch_2526_3,,2025.2.4,2026-02-25 11h51.40.164143 +0100,
tilted.xlsx,The target is tilted.,117,3,3,0,0,1,1,1,0,0,0,0,0,0,0,0,1,3,4,117,space,7.021407599999748,None,0,1,1.9691616000000067,None,space,1.6269624999999905,None,0,0,0,0,,,,,0,3,3,6,59.34444590000021,,,,,,,,,,,,,,,,,,,,,59.32928730000003,59.34444590000021,59.828188800000135,59.83277390000012,59.84789690000025,61.82735020000018,,,,,61.82749250000006,61.8428014000001,62.043333200000234,62.027217500000006,59.84789690000025,,,,,,,,0,1,1.9691616000000067,None,,,,,,,,887,22,V,L,2026-02-25_11h51.39.954,VisualSearch_2526_3,,2025.2.4,2026-02-25 11h51.40.164143 +0100,
tilted.xlsx,The target is tilted.,117,4,4,0,0,1,1,1,1,1,1,1,1,1,1,1,1,11,12,117,space,7.021407599999748,None,1,0,1.438365900000008,None,space,1.6269624999999905,None,0,0,0,0,,,,,0,4,4,4,62.043333200000234,,,,,,,,,,,,,,,,,,,,,62.0279929000003,62.043333200000234,62.52699040000016,62.53160600000001,62.547588800000085,63.99351909999996,,,,,63.99372310000035,64.00864050000018,64.20909080000001,64.19292889999997,62.547588800000085,,,,,,,,1,0,1.438365900000008,None,,,,,,,,887,22,V,L,2026-02-25_11h51.39.954,VisualSearch_2526_3,,2025.2.4,2026-02-25 11h51.40.164143 +0100,
tilted.xlsx,The target is tilted.,117,5,5,0,1,0,0,0,0,0,0,0,0,0,0,0,0,0,1,117,space,7.021407599999748,None,1,1,0.7218973999997615,None,space,1.6269624999999905,None,0,0,0,0,,,,,0,5,5,3,64.20909080000001,,,,,,,,,,,,,,,,,,,,,64.19367550000015,64.20909080000001,64.69273010000006,64.69737299999997,64.71310660000017,65.44278480000003,,,,,65.44301580000001,65.45790970000007,65.65835330000027,65.6420234000002,64.71310660000017,,,,,,,,1,1,0.7218973999997615,None,,,,,,,,887,22,V,L,2026-02-25_11h51.39.954,VisualSearch_2526_3,,2025.2.4,2026-02-25 11h51.40.164143 +0100,
tilted.xlsx,The target is tilted.,117,6,6,0,1,1,1,1,1,1,1,1,1,1,1,1,0,11,12,117,space,7.021407599999748,None,1,1,3.4448208000003433,None,space,1.6269624999999905,None,0,0,0,0,,,,,0,6,6,0,65.65835330000027,,,,,,,,,,,,,,,,,,,,,65.64281540000002,65.65835330000027,66.14200930000015,66.14670350000006,66.16009080000003,69.6069249000002,,,,,69.6070423000001,69.6225099000003,69.8226522,69.80660450000005,66.16009080000003,,,,,,,,1,1,3.4448208000003433,None,,,,,,,,887,22,V,L,2026-02-25_11h51.39.954,VisualSearch_2526_3,,2025.2.4,2026-02-25 11h51.40.164143 +0100,
tilted.xlsx,The target is tilted.,117,7,7,0,0,1,1,1,1,1,1,1,0,0,0,0,1,7,8,117,space,7.021407599999748,None,1,0,2.0323515000000043,None,space,1.6269624999999905,None,0,0,0,0,,,,,0,7,7,5,69.8226522,,,,,,,,,,,,,,,,,,,,,69.80736270000034,69.8226522,70.30638290000024,70.31109450000031,70.32595460000039,72.37245540000004,,,,,72.37259889999996,72.38801790000025,72.58828760000006,72.57241500000009,70.32595460000039,,,,,,,,1,0,2.0323515000000043,None,,,,,,,,887,22,V,L,2026-02-25_11h51.39.954,VisualSearch_2526_3,,2025.2.4,2026-02-25 11h51.40.164143 +0100,
tilted.xlsx,The target is tilted.,117,8,0,1,1,1,1,1,1,1,1,1,0,0,0,0,0,7,8,117,space,7.021407599999748,None,1,1,2.6496290999998564,None,space,1.6269624999999905,None,0,0,0,0,,,,,1,0,8,1,72.58828760000006,,,,,,,,,,,,,,,,,,,,,72.57318190000024,72.58828760000006,73.07177840000031,73.07647150000003,73.09251330000006,75.75410630000033,,,,,75.7543198000003,75.76986120000038,75.97023960000024,75.95379160000039,73.09251330000006,,,,,,,,1,1,2.6496290999998564,None,,,,,,,,887,22,V,L,2026-02-25_11h51.39.954,VisualSearch_2526_3,,2025.2.4,2026-02-25 11h51.40.164143 +0100,
tilted.xlsx,The target is tilted.,117,9,1,1,0,1,1,1,1,1,1,1,1,1,1,1,1,11,12,117,space,7.021407599999748,None,0,1,4.9175484999996115,None,space,1.6269624999999905,None,0,0,0,0,,,,,1,1,9,4,75.97023960000024,,,,,,,,,,,,,,,,,,,,,75.95456080000031,75.97023960000024,76.45404830000007,76.45913689999998,76.47443969999995,81.40180099999998,,,,,81.40197669999998,81.41723540000021,81.61768720000009,81.60145290000037,76.47443969999995,,,,,,,,0,1,4.9175484999996115,None,,,,,,,,887,22,V,L,2026-02-25_11h51.39.954,VisualSearch_2526_3,,2025.2.4,2026-02-25 11h51.40.164143 +0100,
tilted.xlsx,The target is tilted.,117,10,2,1,1,1,1,1,0,0,0,0,0,0,0,0,0,3,4,117,space,7.021407599999748,None,1,1,1.1136567000003197,None,space,1.6269624999999905,None,0,0,0,0,,,,,1,2,10,2,81.61768720000009,,,,,,,,,,,,,,,,,,,,,81.60220720000007,81.61768720000009,82.10137990000021,82.10607600000003,82.12123510000038,83.2503770000003,,,,,83.2505186000003,83.26638730000013,83.46684520000008,83.45074050000039,82.12123510000038,,,,,,,,1,1,1.1136567000003197,None,,,,,,,,887,22,V,L,2026-02-25_11h51.39.954,VisualSearch_2526_3,,2025.2.4,2026-02-25 11h51.40.164143 +0100,
tilted.xlsx,The target is tilted.,117,11,3,1,1,0,0,0,0,0,0,0,0,0,0,0,0,0,1,117,space,7.021407599999748,None,1,1,0.6904798000000483,None,space,1.6269624999999905,None,0,0,0,0,,,,,1,3,11,3,83.46684520000008,,,,,,,,,,,,,,,,,,,,,83.45148330000029,83.46684520000008,83.95053800000005,83.95522500000015,83.9709028000002,84.66714450000018,,,,,84.6673450000003,84.68249690000039,84.88301249999995,84.86679430000004,83.9709028000002,,,,,,,,1,1,0.6904798000000483,None,,,,,,,,887,22,V,L,2026-02-25_11h51.39.954,VisualSearch_2526_3,,2025.2.4,2026-02-25 11h51.40.164143 +0100,
tilted.xlsx,The target is tilted.,117,12,4,1,1,1,1,1,1,1,1,1,1,1,1,1,0,11,12,117,space,7.021407599999748,None,1,1,1.3057525000003807,None,space,1.6269624999999905,None,0,0,0,0,,,,,1,4,12,0,84.88301249999995,,,,,,,,,,,,,,,,,,,,,84.86753190000036,84.88301249999995,85.36645790000011,85.3711717000001,85.38539190000029,86.69910280000022,,,,,86.69922630000019,86.71479369999997,86.91521950000015,86.89910720000034,85.38539190000029,,,,,,,,1,1,1.3057525000003807,None,,,,,,,,887,22,V,L,2026-02-25_11h51.39.954,VisualSearch_2526_3,,2025.2.4,2026-02-25 11h51.40.164143 +0100,
tilted.xlsx,The target is tilted.,117,13,5,1,0,1,1,1,0,0,0,0,0,0,0,0,1,3,4,117,space,7.021407599999748,None,0,1,0.9794041000000107,None,space,1.6269624999999905,None,0,0,0,0,,,,,1,5,13,6,86.91521950000015,,,,,,,,,,,,,,,,,,,,,86.89989349999996,86.91521950000015,87.39847450000025,87.40306640000017,87.41579330000013,88.39856150000014,,,,,88.3987632000003,88.41405140000006,88.61442990000023,88.59832300000016,87.41579330000013,,,,,,,,0,1,0.9794041000000107,None,,,,,,,,887,22,V,L,2026-02-25_11h51.39.954,VisualSearch_2526_3,,2025.2.4,2026-02-25 11h51.40.164143 +0100,
tilted.xlsx,The target is tilted.,117,14,6,1,0,1,1,1,1,1,1,1,0,0,0,0,1,7,8,117,space,7.021407599999748,None,0,1,2.866908599999988,None,space,1.6269624999999905,None,0,0,0,0,,,,,1,6,14,5,88.61442990000023,,,,,,,,,,,,,,,,,,,,,88.59909300000027,88.61442990000023,89.09793380000019,89.10260060000019,89.1190773000003,91.99697349999997,,,,,91.99711590000015,92.01248590000023,92.21300790000032,92.19671200000039,89.1190773000003,,,,,,,,0,1,2.866908599999988,None,,,,,,,,887,22,V,L,2026-02-25_11h51.39.954,VisualSearch_2526_3,,2025.2.4,2026-02-25 11h51.40.164143 +0100,
tilted.xlsx,The target is tilted.,117,15,7,1,0,0,0,0,0,0,0,0,0,0,0,0,1,1,1,117,space,7.021407599999748,None,0,1,0.8469743999999082,None,space,1.6269624999999905,None,0,0,0,0,,,,,1,7,15,7,92.21300790000032,,,,,,,,,,,,,,,,,,,,,92.1974580000001,92.21300790000032,92.69625010000027,92.70086820000006,92.71722820000014,93.57903380000016,,,,,93.5791707000003,93.59506670000019,93.79541530000006,93.77932480000027,92.71722820000014,,,,,,,,0,1,0.8469743999999082,None,,,,,,,,887,22,V,L,2026-02-25_11h51.39.954,VisualSearch_2526_3,,2025.2.4,2026-02-25 11h51.40.164143 +0100,
tilted.xlsx,The target is tilted.,117,16,0,2,0,1,1,1,1,1,1,1,1,1,1,1,1,11,12,117,space,7.021407599999748,None,1,0,2.269680700000208,None,space,1.6269624999999905,None,0,0,0,0,,,,,2,0,16,4,93.79541530000006,,,,,,,,,,,,,,,,,,,,,93.78009169999996,93.79541530000006,94.27917070000012,94.28385479999997,94.2990976000001,96.57873289999998,,,,,96.57893779999995,96.59377320000021,96.79414020000013,96.77794110000013,94.2990976000001,,,,,,,,1,0,2.269680700000208,None,,,,,,,,887,22,V,L,2026-02-25_11h51.39.954,VisualSearch_2526_3,,2025.2.4,2026-02-25 11h51.40.164143 +0100,
tilted.xlsx,The target is tilted.,117,17,1,2,0,1,1,1,1,1,1,1,0,0,0,0,1,7,8,117,space,7.021407599999748,None,1,0,4.729987400000027,None,space,1.6269624999999905,None,0,0,0,0,,,,,2,1,17,5,96.79414020000013,,,,,,,,,,,,,,,,,,,,,96.77870690000009,96.79414020000013,97.27778560000024,97.2823956000002,97.29843660000006,102.0421252000001,,,,,102.04233290000002,102.0578671000003,102.25825759999998,102.24213090000012,97.29843660000006,,,,,,,,1,0,4.729987400000027,None,,,,,,,,887,22,V,L,2026-02-25_11h51.39.954,VisualSearch_2526_3,,2025.2.4,2026-02-25 11h51.40.164143 +0100,
tilted.xlsx,The target is tilted.,117,18,2,2,1,0,0,0,0,0,0,0,0,0,0,0,0,0,1,117,space,7.021407599999748,None,1,1,0.8809052999999949,None,space,1.6269624999999905,None,0,0,0,0,,,,,2,2,18,3,102.25825759999998,,,,,,,,,,,,,,,,,,,,,102.24289210000006,102.25825759999998,102.74158440000019,102.74362950000022,102.75794740000038,103.64194610000004,,,,,103.64215730000024,103.6571170000002,103.85706909999999,103.84151800000018,102.75794740000038,,,,,,,,1,1,0.8809052999999949,None,,,,,,,,887,22,V,L,2026-02-25_11h51.39.954,VisualSearch_2526_3,,2025.2.4,2026-02-25 11h51.40.164143 +0100,
tilted.xlsx,The target is tilted.,117,19,3,2,1,1,1,1,0,0,0,0,0,0,0,0,0,3,4,117,space,7.021407599999748,None,1,1,1.1651065999999446,None,space,1.6269624999999905,None,0,0,0,0,,,,,2,3,19,2,103.85706909999999,,,,,,,,,,,,,,,,,,,,,103.84224280000035,103.85706909999999,104.34136740000031,104.34604500000023,104.36103700000012,105.54055620000008,,,,,105.54075030000013,105.5563258000002,105.75675650000039,105.74066650000032,104.36103700000012,,,,,,,,1,1,1.1651065999999446,None,,,,,,,,887,22,V,L,2026-02-25_11h51.39.954,VisualSearch_2526_3,,2025.2.4,2026-02-25 11h51.40.164143 +0100,
tilted.xlsx,The target is tilted.,117,20,4,2,1,1,1,1,1,1,1,1,1,1,1,1,0,11,12,117,space,7.021407599999748,None,0,0,3.2657719999997425,None,space,1.6269624999999905,None,0,0,0,0,,,,,2,4,20,0,105.75675650000039,,,,,,,,,,,,,,,,,,,,,105.74150080000027,105.75675650000039,106.24037680000038,106.24503170000025,106.26032350000014,109.53929760000028,,,,,109.53947990000006,109.5544745000002,109.75476570000001,109.73874430000023,106.26032350000014,,,,,,,,0,0,3.2657719999997425,None,,,,,,,,887,22,V,L,2026-02-25_11h51.39.954,VisualSearch_2526_3,,2025.2.4,2026-02-25 11h51.40.164143 +0100,
tilted.xlsx,The target is tilted.,117,21,5,2,0,0,0,0,0,0,0,0,0,0,0,0,1,1,1,117,space,7.021407599999748,None,1,0,2.5192918999996436,None,space,1.6269624999999905,None,0,0,0,0,,,,,2,5,21,7,109.75476570000001,,,,,,,,,,,,,,,,,,,,,109.73949160000029,109.75476570000001,110.23864490000005,110.24331640000037,110.25679880000007,112.78773020000017,,,,,112.78793470000028,112.8030675,113.00353889999997,112.98735310000029,110.25679880000007,,,,,,,,1,0,2.5192918999996436,None,,,,,,,,887,22,V,L,2026-02-25_11h51.39.954,VisualSearch_2526_3,,2025.2.4,2026-02-25 11h51.40.164143 +0100,
tilted.xlsx,The target is tilted.,117,22,6,2,1,1,1,1,1,1,1,1,0,0,0,0,0,7,8,117,space,7.021407599999748,None,1,1,1.8259969000000638,None,space,1.6269624999999905,None,0,0,0,0,,,,,2,6,22,1,113.00353889999997,,,,,,,,,,,,,,,,,,,,,112.98808159999999,113.00353889999997,113.48704100000032,113.4916975000001,113.50527780000039,115.33658120000018,,,,,115.33676420000029,115.35183989999996,115.5519733000001,115.5361511000001,113.50527780000039,,,,,,,,1,1,1.8259969000000638,None,,,,,,,,887,22,V,L,2026-02-25_11h51.39.954,VisualSearch_2526_3,,2025.2.4,2026-02-25 11h51.40.164143 +0100,
tilted.xlsx,The target is tilted.,117,23,7,2,0,1,1,1,0,0,0,0,0,0,0,0,1,3,4,117,space,7.021407599999748,None,0,1,2.7842500000001564,None,space,1.6269624999999905,None,0,0,0,0,,,,,2,7,23,6,115.5519733000001,,,,,,,,,,,,,,,,,,,,,115.53691100000015,115.5519733000001,116.03557420000016,116.04019850000032,116.05205620000015,118.85113450000017,,,,,118.85132620000013,118.86678870000014,119.06721400000015,119.05107590000034,116.05205620000015,,,,,,,,0,1,2.7842500000001564,None,,,,,,,,887,22,V,L,2026-02-25_11h51.39.954,VisualSearch_2526_3,,2025.2.4,2026-02-25 11h51.40.164143 +0100,
tilted.xlsx,The target is tilted.,117,24,0,3,1,0,0,0,0,0,0,0,0,0,0,0,0,0,1,117,space,7.021407599999748,None,1,1,0.7457303000001048,None,space,1.6269624999999905,None,0,0,0,0,,,,,3,0,24,3,119.06721400000015,,,,,,,,,,,,,,,,,,,,,119.0518317000001,119.06721400000015,119.55111239999997,119.55571060000011,119.56927790000009,120.31742410000015,,,,,120.31756140000016,120.33291720000034,120.53284699999995,120.5172821000001,119.56927790000009,,,,,,,,1,1,0.7457303000001048,None,,,,,,,,887,22,V,L,2026-02-25_11h51.39.954,VisualSearch_2526_3,,2025.2.4,2026-02-25 11h51.40.164143 +0100,
tilted.xlsx,The target is tilted.,117,25,1,3,1,1,1,1,1,1,1,1,0,0,0,0,0,7,8,117,space,7.021407599999748,None,1,1,2.4202978000002986,None,space,1.6269624999999905,None,0,0,0,0,,,,,3,1,25,1,120.53284699999995,,,,,,,,,,,,,,,,,,,,,120.51801760000035,120.53284699999995,121.01702360000036,121.02160840000033,121.0361412000002,123.46617800000013,,,,,123.46636000000035,123.48141410000017,123.68195050000031,123.66561700000011,121.0361412000002,,,,,,,,1,1,2.4202978000002986,None,,,,,,,,887,22,V,L,2026-02-25_11h51.39.954,VisualSearch_2526_3,,2025.2.4,2026-02-25 11h51.40.164143 +0100,
tilted.xlsx,The target is tilted.,117,26,2,3,1,1,1,1,0,0,0,0,0,0,0,0,0,3,4,117,space,7.021407599999748,None,1,1,0.9309399999997368,None,space,1.6269624999999905,None,0,0,0,0,,,,,3,2,26,2,123.68195050000031,,,,,,,,,,,,,,,,,,,,,123.66639690000011,123.68195050000031,124.16521560000001,124.16981200000009,124.1846985000002,125.13130180000007,,,,,125.13144000000011,125.14767849999998,125.34733360000018,125.33136000000013,124.1846985000002,,,,,,,,1,1,0.9309399999997368,None,,,,,,,,887,22,V,L,2026-02-25_11h51.39.954,VisualSearch_2526_3,,2025.2.4,2026-02-25 11h51.40.164143 +0100,
tilted.xlsx,The target is tilted.,117,27,3,3,0,1,1,1,0,0,0,0,0,0,0,0,1,3,4,117,space,7.021407599999748,None,0,1,2.4821915000002264,None,space,1.6269624999999905,None,0,0,0,0,,,,,3,3,27,6,125.34733360000018,,,,,,,,,,,,,,,,,,,,,125.33209920000036,125.34733360000018,125.83152010000003,125.83608210000011,125.84983950000014,128.34651759999997,,,,,128.3466496000001,128.3629876,128.56306770000037,128.54694010000003,125.84983950000014,,,,,,,,0,1,2.4821915000002264,None,,,,,,,,887,22,V,L,2026-02-25_11h51.39.954,VisualSearch_2526_3,,2025.2.4,2026-02-25 11h51.40.164143 +0100,
tilted.xlsx,The target is tilted.,117,28,4,3,0,1,1,1,1,1,1,1,0,0,0,0,1,7,8,117,space,7.021407599999748,None,1,0,2.778097799999614,None,space,1.6269624999999905,None,0,0,0,0,,,,,3,4,28,5,128.56306770000037,,,,,,,,,,,,,,,,,,,,,128.54764830000022,128.56306770000037,129.0464591,129.0510233,129.0659112000003,131.84567990000005,,,,,131.8458800000003,131.8607422,132.06145080000033,132.04497470000024,129.0659112000003,,,,,,,,1,0,2.778097799999614,None,,,,,,,,887,22,V,L,2026-02-25_11h51.39.954,VisualSearch_2526_3,,2025.2.4,2026-02-25 11h51.40.164143 +0100,
tilted.xlsx,The target is tilted.,117,29,5,3,0,1,1,1,1,1,1,1,1,1,1,1,1,11,12,117,space,7.021407599999748,None,1,0,2.826552300000003,None,space,1.6269624999999905,None,0,0,0,0,,,,,3,5,29,4,132.06145080000033,,,,,,,,,,,,,,,,,,,,,132.0457136,132.06145080000033,132.5446855,132.5493459000004,132.56397480000032,135.39382160000014,,,,,135.39400590000014,135.40924770000038,135.6098777000002,135.5936872000002,132.56397480000032,,,,,,,,1,0,2.826552300000003,None,,,,,,,,887,22,V,L,2026-02-25_11h51.39.954,VisualSearch_2526_3,,2025.2.4,2026-02-25 11h51.40.164143 +0100,
tilted.xlsx,The target is tilted.,117,30,6,3,1,1,1,1,1,1,1,1,1,1,1,1,0,11,12,117,space,7.021407599999748,None,0,0,4.642973500000153,None,space,1.6269624999999905,None,0,0,0,0,,,,,3,6,30,0,135.6098777000002,,,,,,,,,,,,,,,,,,,,,135.59443920000012,135.6098777000002,136.09340500000008,136.09814060000008,136.11483550000003,140.77445940000007,,,,,140.77465040000016,140.7903508000004,140.99073620000036,140.97452220000014,136.11483550000003,,,,,,,,0,0,4.642973500000153,None,,,,,,,,887,22,V,L,2026-02-25_11h51.39.954,VisualSearch_2526_3,,2025.2.4,2026-02-25 11h51.40.164143 +0100,
tilted.xlsx,The target is tilted.,117,31,7,3,0,0,0,0,0,0,0,0,0,0,0,0,1,1,1,117,space,7.021407599999748,None,1,0,1.1354197000000568,None,space,1.6269624999999905,None,0,0,0,0,,,,,3,7,31,7,140.99073620000036,,,,,,,,,,,,,,,,,,,,,140.97528260000036,140.99073620000036,141.47447480000028,141.47917300000017,141.49425599999995,142.6412166,,,,,142.64145730000018,142.65611880000006,142.8561520000003,142.83998180000026,141.49425599999995,,,,,,,,1,0,1.1354197000000568,None,,,,,,,,887,22,V,L,2026-02-25_11h51.39.954,VisualSearch_2526_3,,2025.2.4,2026-02-25 11h51.40.164143 +0100,
tilted.xlsx,The target is tilted.,117,32,0,4,0,1,1,1,0,0,0,0,0,0,0,0,1,3,4,117,space,7.021407599999748,None,0,1,1.2869848999998794,None,space,1.6269624999999905,None,0,0,0,0,,,,,4,0,32,6,142.8561520000003,,,,,,,,,,,,,,,,,,,,,142.8407317000001,142.8561520000003,143.34020439999995,143.3448881000004,143.35991860000013,144.6564424000003,,,,,144.65666210000018,144.67182960000036,144.8722904000001,144.85584730000028,143.35991860000013,,,,,,,,0,1,1.2869848999998794,None,,,,,,,,887,22,V,L,2026-02-25_11h51.39.954,VisualSearch_2526_3,,2025.2.4,2026-02-25 11h51.40.164143 +0100,
tilted.xlsx,The target is tilted.,117,33,1,4,0,1,1,1,1,1,1,1,0,0,0,0,1,7,8,117,space,7.021407599999748,None,0,1,4.35856399999966,None,space,1.6269624999999905,None,0,0,0,0,,,,,4,1,33,5,144.8722904000001,,,,,,,,,,,,,,,,,,,,,144.8566522000001,144.8722904000001,145.3560093000001,145.36085649999995,145.37559820000024,149.73759410000002,,,,,149.73780160000024,149.7529569000003,149.9533292000001,149.93705630000022,145.37559820000024,,,,,,,,0,1,4.35856399999966,None,,,,,,,,887,22,V,L,2026-02-25_11h51.39.954,VisualSearch_2526_3,,2025.2.4,2026-02-25 11h51.40.164143 +0100,
tilted.xlsx,The target is tilted.,117,34,2,4,1,1,1,1,1,1,1,1,0,0,0,0,0,7,8,117,space,7.021407599999748,None,0,0,2.5116352999998526,None,space,1.6269624999999905,None,0,0,0,0,,,,,4,2,34,1,149.9533292000001,,,,,,,,,,,,,,,,,,,,,149.9378025000001,149.9533292000001,150.43689029999996,150.4415925000003,150.45663590000004,152.9696213000002,,,,,152.96982270000035,152.98470580000003,153.18476200000032,153.16931680000016,150.45663590000004,,,,,,,,0,0,2.5116352999998526,None,,,,,,,,887,22,V,L,2026-02-25_11h51.39.954,VisualSearch_2526_3,,2025.2.4,2026-02-25 11h51.40.164143 +0100,
tilted.xlsx,The target is tilted.,117,35,3,4,0,1,1,1,1,1,1,1,1,1,1,1,1,11,12,117,space,7.021407599999748,None,1,0,2.4950339000001804,None,space,1.6269624999999905,None,0,0,0,0,,,,,4,3,35,4,153.18476200000032,,,,,,,,,,,,,,,,,,,,,153.17007560000002,153.18476200000032,153.6687194000001,153.6733637000002,153.68783510000003,156.18467370000008,,,,,156.1848556,156.19994320000023,156.40018350000037,156.38415550000036,153.68783510000003,,,,,,,,1,0,2.4950339000001804,None,,,,,,,,887,22,V,L,2026-02-25_11h51.39.954,VisualSearch_2526_3,,2025.2.4,2026-02-25 11h51.40.164143 +0100,
tilted.xlsx,The target is tilted.,117,36,4,4,1,1,1,1,0,0,0,0,0,0,0,0,0,3,4,117,space,7.021407599999748,None,0,0,2.3654263000003084,None,space,1.6269624999999905,None,0,0,0,0,,,,,4,4,36,2,156.40018350000037,,,,,,,,,,,,,,,,,,,,,156.38487620000024,156.40018350000037,156.8840381,156.88890990000027,156.9011759,159.28212070000018,,,,,159.2822186000003,159.29895450000004,,159.48260370000025,156.9011759,,,,,,,,0,0,2.3654263000003084,None,,,,,,,,887,22,V,L,2026-02-25_11h51.39.954,VisualSearch_2526_3,,2025.2.4,2026-02-25 11h51.40.164143 +0100,
tilted.xlsx,The target is tilted.,117,37,5,4,0,0,0,0,0,0,0,0,0,0,0,0,1,1,1,117,space,7.021407599999748,None,0,1,0.8571446999999353,None,space,1.6269624999999905,None,0,0,0,0,,,,,4,5,37,7,159.49895060000017,,,,,,,,,,,,,,,,,,,,,159.48337979999997,159.49895060000017,159.98246410000002,159.98698439999998,159.9987543000002,160.86525210000036,,,,,160.8654034000001,160.8811668000003,161.08141120000028,161.0648782000003,159.9987543000002,,,,,,,,0,1,0.8571446999999353,None,,,,,,,,887,22,V,L,2026-02-25_11h51.39.954,VisualSearch_2526_3,,2025.2.4,2026-02-25 11h51.40.164143 +0100,
tilted.xlsx,The target is tilted.,117,38,6,4,1,0,0,0,0,0,0,0,0,0,0,0,0,0,1,117,space,7.021407599999748,None,0,0,0.8263643000000229,None,space,1.6269624999999905,None,0,0,0,0,,,,,4,6,38,3,161.08141120000028,,,,,,,,,,,,,,,,,,,,,161.06554110000025,161.08141120000028,161.5649771000003,161.569747,161.5846435000003,162.41511480000008,,,,,162.41531430000032,162.43031540000038,162.6308729000002,162.61484120000023,161.5846435000003,,,,,,,,0,0,0.8263643000000229,None,,,,,,,,887,22,V,L,2026-02-25_11h51.39.954,VisualSearch_2526_3,,2025.2.4,2026-02-25 11h51.40.164143 +0100,
tilted.xlsx,The target is tilted.,117,39,7,4,1,1,1,1,1,1,1,1,1,1,1,1,0,11,12,117,space,7.021407599999748,None,1,1,2.8815386000001126,None,space,1.6269624999999905,None,0,0,0,0,,,,,4,7,39,0,162.6308729000002,,,,,,,,,,,,,,,,,,,,,162.61560390000022,162.6308729000002,163.11477779999996,163.1193862,163.13424740000028,166.02939220000007,,,,,166.02952780000032,166.04546570000002,166.24581970000008,166.2296835000002,163.13424740000028,,,,,,,,1,1,2.8815386000001126,None,,,,,,,,887,22,V,L,2026-02-25_11h51.39.954,VisualSearch_2526_3,,2025.2.4,2026-02-25 11h51.40.164143 +0100,
tilted.xlsx,The target is tilted.,117,40,0,5,1,0,0,0,0,0,0,0,0,0,0,0,0,0,1,117,space,7.021407599999748,None,1,1,0.5709477000000334,None,space,1.6269624999999905,None,0,0,0,0,,,,,5,0,40,3,166.24581970000008,,,,,,,,,,,,,,,,,,,,,166.23090010000033,166.24581970000008,166.72958050000034,166.73423030000004,166.7513100000001,167.32984260000012,,,,,167.3300473000004,167.3448838000004,167.54523640000025,167.52920220000033,166.7513100000001,,,,,,,,1,1,0.5709477000000334,None,,,,,,,,887,22,V,L,2026-02-25_11h51.39.954,VisualSearch_2526_3,,2025.2.4,2026-02-25 11h51.40.164143 +0100,
tilted.xlsx,The target is tilted.,117,41,1,5,0,1,1,1,1,1,1,1,1,1,1,1,1,11,12,117,space,7.021407599999748,None,1,0,1.1903830000001108,None,space,1.6269624999999905,None,0,0,0,0,,,,,5,1,41,4,167.54523640000025,,,,,,,,,,,,,,,,,,,,,167.52995529999998,167.54523640000025,168.0290173000003,168.0335342000003,168.05200620000005,169.24468690000003,,,,,169.24481110000033,169.26056000000017,169.46114800000032,169.44493869999997,168.05200620000005,,,,,,,,1,0,1.1903830000001108,None,,,,,,,,887,22,V,L,2026-02-25_11h51.39.954,VisualSearch_2526_3,,2025.2.4,2026-02-25 11h51.40.164143 +0100,
tilted.xlsx,The target is tilted.,117,42,2,5,0,1,1,1,1,1,1,1,0,0,0,0,1,7,8,117,space,7.021407599999748,None,1,0,1.8817266999999447,None,space,1.6269624999999905,None,0,0,0,0,,,,,5,2,42,5,169.46114800000032,,,,,,,,,,,,,,,,,,,,,169.4456492000004,169.46114800000032,169.94488470000033,169.94957130000012,169.96505290000005,171.86039270000038,,,,,171.86059460000024,171.8760755000003,172.0763191000001,172.06060320000006,169.96505290000005,,,,,,,,1,0,1.8817266999999447,None,,,,,,,,887,22,V,L,2026-02-25_11h51.39.954,VisualSearch_2526_3,,2025.2.4,2026-02-25 11h51.40.164143 +0100,
tilted.xlsx,The target is tilted.,117,43,3,5,1,1,1,1,0,0,0,0,0,0,0,0,0,3,4,117,space,7.021407599999748,None,1,1,1.164245700000265,None,space,1.6269624999999905,None,0,0,0,0,,,,,5,3,43,2,172.0763191000001,,,,,,,,,,,,,,,,,,,,,172.06140189999996,172.0763191000001,172.56018760000006,172.56465290000006,172.5761580000003,173.74363660000017,,,,,173.7438758000003,173.75860439999997,173.95872110000028,173.94295730000022,172.5761580000003,,,,,,,,1,1,1.164245700000265,None,,,,,,,,887,22,V,L,2026-02-25_11h51.39.954,VisualSearch_2526_3,,2025.2.4,2026-02-25 11h51.40.164143 +0100,
tilted.xlsx,The target is tilted.,117,44,4,5,0,0,0,0,0,0,0,0,0,0,0,0,1,1,1,117,space,7.021407599999748,None,0,1,0.7805587999996533,None,space,1.6269624999999905,None,0,0,0,0,,,,,5,4,44,7,173.95872110000028,,,,,,,,,,,,,,,,,,,,,173.94369350000034,173.95872110000028,174.44272350000028,174.44736190000003,174.46304520000012,175.25876170000038,,,,,175.2588920000003,175.27447640000037,175.47502160000022,175.45848060000026,174.46304520000012,,,,,,,,0,1,0.7805587999996533,None,,,,,,,,887,22,V,L,2026-02-25_11h51.39.954,VisualSearch_2526_3,,2025.2.4,2026-02-25 11h51.40.164143 +0100,
tilted.xlsx,The target is tilted.,117,45,5,5,0,1,1,1,0,0,0,0,0,0,0,0,1,3,4,117,space,7.021407599999748,None,0,1,2.1945983000000524,None,space,1.6269624999999905,None,0,0,0,0,,,,,5,5,45,6,175.47502160000022,,,,,,,,,,,,,,,,,,,,,175.4592434000001,175.47502160000022,175.95866280000018,175.963252,175.9789767000002,178.19039650000013,,,,,178.1905281000004,178.2065451000003,,178.3906503000003,175.9789767000002,,,,,,,,0,1,2.1945983000000524,None,,,,,,,,887,22,V,L,2026-02-25_11h51.39.954,VisualSearch_2526_3,,2025.2.4,2026-02-25 11h51.40.164143 +0100,
tilted.xlsx,The target is tilted.,117,46,6,5,1,1,1,1,1,1,1,1,0,0,0,0,0,7,8,117,space,7.021407599999748,None,1,1,0.9410953999999947,None,space,1.6269624999999905,None,0,0,0,0,,,,,5,6,46,1,178.4065773000002,,,,,,,,,,,,,,,,,,,,,178.39155819999996,178.4065773000002,178.89053920000015,178.89525100000037,178.91107790000024,179.85663790000035,,,,,179.85679440000013,179.87249790000033,180.0729563,180.05673250000018,178.91107790000024,,,,,,,,1,1,0.9410953999999947,None,,,,,,,,887,22,V,L,2026-02-25_11h51.39.954,VisualSearch_2526_3,,2025.2.4,2026-02-25 11h51.40.164143 +0100,
tilted.xlsx,The target is tilted.,117,47,7,5,1,1,1,1,1,1,1,1,1,1,1,1,0,11,12,117,space,7.021407599999748,None,1,1,4.6976698000003125,None,space,1.6269624999999905,None,0,0,0,0,,,,,5,7,47,0,180.0729563,,,,,,,,,,,,,,,,,,,,,180.05748940000012,180.0729563,180.5565147000002,180.5611925000003,180.57734860000028,185.28792980000026,,,,,185.28813440000022,185.3033193000001,185.50341500000013,185.4879579000003,180.57734860000028,,,,,,,,1,1,4.6976698000003125,None,,,,,,,,887,22,V,L,2026-02-25_11h51.39.954,VisualSearch_2526_3,,2025.2.4,2026-02-25 11h51.40.164143 +0100,
tilted.xlsx,The target is tilted.,117,48,0,6,1,1,1,1,0,0,0,0,0,0,0,0,0,3,4,117,space,7.021407599999748,None,1,1,1.091886699999577,None,space,1.6269624999999905,None,0,0,0,0,,,,,6,0,48,2,185.50341500000013,,,,,,,,,,,,,,,,,,,,,185.4886448000002,185.50341500000013,185.9862905,185.98782900000015,186.00283780000018,187.10350130000006,,,,,187.10360880000007,187.11901669999997,187.3195214000002,187.30385060000026,186.00283780000018,,,,,,,,1,1,1.091886699999577,None,,,,,,,,887,22,V,L,2026-02-25_11h51.39.954,VisualSearch_2526_3,,2025.2.4,2026-02-25 11h51.40.164143 +0100,
tilted.xlsx,The target is tilted.,117,49,1,6,1,0,0,0,0,0,0,0,0,0,0,0,0,0,1,117,space,7.021407599999748,None,1,1,0.5966164999999819,None,space,1.6269624999999905,None,0,0,0,0,,,,,6,1,49,3,187.3195214000002,,,,,,,,,,,,,,,,,,,,,187.3046416000002,187.3195214000002,187.80324180000025,187.80782080000017,187.8228777000004,188.43540500000017,,,,,188.43554240000003,188.45218509999995,,188.63570400000026,187.8228777000004,,,,,,,,1,1,0.5966164999999819,None,,,,,,,,887,22,V,L,2026-02-25_11h51.39.954,VisualSearch_2526_3,,2025.2.4,2026-02-25 11h51.40.164143 +0100,
tilted.xlsx,The target is tilted.,117,50,2,6,0,1,1,1,1,1,1,1,1,1,1,1,1,11,12,117,space,7.021407599999748,None,0,1,6.493695900000148,None,space,1.6269624999999905,None,0,0,0,0,,,,,6,2,50,4,188.6521229,,,,,,,,,,,,,,,,,,,,,188.6363749000002,188.6521229,189.13579730000038,189.1412220000002,189.15642530000014,195.66635050000014,,,,,195.66655570000012,195.68193970000038,195.88217480000003,195.86585630000036,,,,,,,,,0,1,6.493695900000148,None,,,,,,,,887,22,V,L,2026-02-25_11h51.39.954,VisualSearch_2526_3,,2025.2.4,2026-02-25 11h51.40.164143 +0100,
tilted.xlsx,The target is tilted.,117,51,3,6,0,1,1,1,0,0,0,0,0,0,0,0,1,3,4,117,space,7.021407599999748,None,0,1,1.2935826000002635,None,space,1.6269624999999905,None,0,0,0,0,,,,,6,3,51,6,195.88217480000003,,,,,,,,,,,,,,,,,,,,,195.8661745000004,195.88217480000003,196.3660221,196.37063090000038,196.38662440000007,197.68248300000005,,,,,197.6826828000003,197.69767950000005,197.89766910000026,197.8816052000002,196.38662440000007,,,,,,,,0,1,1.2935826000002635,None,,,,,,,,887,22,V,L,2026-02-25_11h51.39.954,VisualSearch_2526_3,,2025.2.4,2026-02-25 11h51.40.164143 +0100,
tilted.xlsx,The target is tilted.,117,52,4,6,0,0,0,0,0,0,0,0,0,0,0,0,1,1,1,117,space,7.021407599999748,None,0,1,0.655728100000033,None,space,1.6269624999999905,None,0,0,0,0,,,,,6,4,52,7,197.89766910000026,,,,,,,,,,,,,,,,,,,,,197.88237180000033,197.89766910000026,198.38182910000023,198.38642610000034,198.40240940000012,199.06529709999995,,,,,199.0654983000004,199.0804263,199.28086140000005,199.26478810000026,198.40240940000012,,,,,,,,0,1,0.655728100000033,None,,,,,,,,887,22,V,L,2026-02-25_11h51.39.954,VisualSearch_2526_3,,2025.2.4,2026-02-25 11h51.40.164143 +0100,
tilted.xlsx,The target is tilted.,117,53,5,6,0,1,1,1,1,1,1,1,0,0,0,0,1,7,8,117,space,7.021407599999748,None,1,0,1.9902643000000353,None,space,1.6269624999999905,None,0,0,0,0,,,,,6,5,53,5,199.28086140000005,,,,,,,,,,,,,,,,,,,,,199.26552230000016,199.28086140000005,199.76472560000002,199.76935660000026,199.78488570000036,201.78024210000012,,,,,201.78037500000028,201.79581499999995,201.99595680000039,201.98029459999998,199.78488570000036,,,,,,,,1,0,1.9902643000000353,None,,,,,,,,887,22,V,L,2026-02-25_11h51.39.954,VisualSearch_2526_3,,2025.2.4,2026-02-25 11h51.40.164143 +0100,
tilted.xlsx,The target is tilted.,117,54,6,6,1,1,1,1,1,1,1,1,1,1,1,1,0,11,12,117,space,7.021407599999748,None,1,1,2.467615399999886,None,space,1.6269624999999905,None,0,0,0,0,,,,,6,6,54,0,201.99595680000039,,,,,,,,,,,,,,,,,,,,,201.98106970000026,201.99595680000039,202.4801854000002,202.48524320000024,202.49978439999995,204.97938939999995,,,,,204.97959040000023,204.9944458,205.19482990000006,205.17867969999998,202.49978439999995,,,,,,,,1,1,2.467615399999886,None,,,,,,,,887,22,V,L,2026-02-25_11h51.39.954,VisualSearch_2526_3,,2025.2.4,2026-02-25 11h51.40.164143 +0100,
tilted.xlsx,The target is tilted.,117,55,7,6,1,1,1,1,1,1,1,1,0,0,0,0,0,7,8,117,space,7.021407599999748,None,1,1,3.1393903000002865,None,space,1.6269624999999905,None,0,0,0,0,,,,,6,7,55,1,205.19482990000006,,,,,,,,,,,,,,,,,,,,,205.17941530000007,205.19482990000006,205.67840969999997,205.68298189999996,205.6983938000003,208.84419060000027,,,,,208.84442340000032,208.85936690000017,209.05926980000004,209.04329970000026,205.6983938000003,,,,,,,,1,1,3.1393903000002865,None,,,,,,,,887,22,V,L,2026-02-25_11h51.39.954,VisualSearch_2526_3,,2025.2.4,2026-02-25 11h51.40.164143 +0100,
tilted.xlsx,The target is tilted.,117,56,0,7,1,1,1,1,1,1,1,1,0,0,0,0,0,7,8,117,space,7.021407599999748,None,1,1,1.5147861000000375,None,space,1.6269624999999905,None,0,0,0,0,,,,,7,0,56,1,209.05926980000004,,,,,,,,,,,,,,,,,,,,,209.04403960000036,209.05926980000004,209.54349750000029,209.54884790000006,209.56182760000002,211.09220780000032,,,,,211.09234790000028,211.10827550000022,211.30872309999995,211.29229269999996,209.56182760000002,,,,,,,,1,1,1.5147861000000375,None,,,,,,,,887,22,V,L,2026-02-25_11h51.39.954,VisualSearch_2526_3,,2025.2.4,2026-02-25 11h51.40.164143 +0100,
tilted.xlsx,The target is tilted.,117,57,1,7,0,1,1,1,0,0,0,0,0,0,0,0,1,3,4,117,space,7.021407599999748,None,0,1,1.511296499999844,None,space,1.6269624999999905,None,0,0,0,0,,,,,7,1,57,6,211.30872309999995,,,,,,,,,,,,,,,,,,,,,211.29303200000004,211.30872309999995,211.79245730000002,211.79710270000032,211.81271070000003,213.3250277000002,,,,,213.32516440000018,213.34053470000026,213.5411094000001,213.52486210000006,211.81271070000003,,,,,,,,0,1,1.511296499999844,None,,,,,,,,887,22,V,L,2026-02-25_11h51.39.954,VisualSearch_2526_3,,2025.2.4,2026-02-25 11h51.40.164143 +0100,
tilted.xlsx,The target is tilted.,117,58,2,7,1,1,1,1,0,0,0,0,0,0,0,0,0,3,4,117,space,7.021407599999748,None,1,1,1.1870805000003202,None,space,1.6269624999999905,None,0,0,0,0,,,,,7,2,58,2,213.5411094000001,,,,,,,,,,,,,,,,,,,,,213.52560370000037,213.5411094000001,214.0246373,214.02920080000013,214.04430930000035,215.24081030000025,,,,,215.24104690000013,215.25635210000019,215.45640140000023,215.4409308000004,214.04430930000035,,,,,,,,1,1,1.1870805000003202,None,,,,,,,,887,22,V,L,2026-02-25_11h51.39.954,VisualSearch_2526_3,,2025.2.4,2026-02-25 11h51.40.164143 +0100,
tilted.xlsx,The target is tilted.,117,59,3,7,1,0,0,0,0,0,0,0,0,0,0,0,0,0,1,117,space,7.021407599999748,None,1,1,0.664827200000218,None,space,1.6269624999999905,None,0,0,0,0,,,,,7,3,59,3,215.45640140000023,,,,,,,,,,,,,,,,,,,,,215.44167360000029,215.45640140000023,215.94049670000004,215.94530090000035,215.96030310000015,216.63979510000036,,,,,216.63993370000026,216.65560480000022,216.8558710000002,216.83995660000028,215.96030310000015,,,,,,,,1,1,0.664827200000218,None,,,,,,,,887,22,V,L,2026-02-25_11h51.39.954,VisualSearch_2526_3,,2025.2.4,2026-02-25 11h51.40.164143 +0100,
tilted.xlsx,The target is tilted.,117,60,4,7,0,1,1,1,1,1,1,1,1,1,1,1,1,11,12,117,space,7.021407599999748,None,1,0,1.858868899999834,None,space,1.6269624999999905,None,0,0,0,0,,,,,7,4,60,4,216.8558710000002,,,,,,,,,,,,,,,,,,,,,216.8407226000004,216.8558710000002,217.33992390000003,217.34453299999996,217.35688500000015,219.2223382000002,,,,,219.2225139000002,219.23792300000014,219.43832440000006,219.42231710000033,217.35688500000015,,,,,,,,1,0,1.858868899999834,None,,,,,,,,887,22,V,L,2026-02-25_11h51.39.954,VisualSearch_2526_3,,2025.2.4,2026-02-25 11h51.40.164143 +0100,
tilted.xlsx,The target is tilted.,117,61,5,7,1,1,1,1,1,1,1,1,1,1,1,1,0,11,12,117,space,7.021407599999748,None,1,1,1.1318277000000307,None,space,1.6269624999999905,None,0,0,0,0,,,,,7,5,61,0,219.43832440000006,,,,,,,,,,,,,,,,,,,,,219.42306450000024,219.43832440000006,219.9219667000002,219.9266375000002,219.94248990000006,221.08811070000002,,,,,221.08830250000028,221.1036481000001,221.30422260000023,221.28776140000036,219.94248990000006,,,,,,,,1,1,1.1318277000000307,None,,,,,,,,887,22,V,L,2026-02-25_11h51.39.954,VisualSearch_2526_3,,2025.2.4,2026-02-25 11h51.40.164143 +0100,
tilted.xlsx,The target is tilted.,117,62,6,7,0,1,1,1,1,1,1,1,0,0,0,0,1,7,8,117,space,7.021407599999748,None,1,0,2.3678186000001915,None,space,1.6269624999999905,None,0,0,0,0,,,,,7,6,62,5,221.30422260000023,,,,,,,,,,,,,,,,,,,,,221.28850009999996,221.30422260000023,221.78777440000022,221.7924369000002,221.80612070000006,224.18630740000026,,,,,224.18644210000002,224.20211940000036,224.4027686000004,224.3866097,221.80612070000006,,,,,,,,1,0,2.3678186000001915,None,,,,,,,,887,22,V,L,2026-02-25_11h51.39.954,VisualSearch_2526_3,,2025.2.4,2026-02-25 11h51.40.164143 +0100,
tilted.xlsx,The target is tilted.,117,63,7,7,0,0,0,0,0,0,0,0,0,0,0,0,1,1,1,117,space,7.021407599999748,None,0,1,1.0165326999999706,None,space,1.6269624999999905,None,0,0,0,0,,,,,7,7,63,7,224.4027686000004,,,,,,,,,,,,,,,,,,,,,224.3873781000002,224.4027686000004,224.88584579999997,224.88873090000016,224.90236520000008,225.93516339999996,,,,,225.93525420000014,225.9518624000002,226.1514946000002,226.13550910000004,224.90236520000008,,,,,,,,0,1,1.0165326999999706,None,,,,,,,,887,22,V,L,2026-02-25_11h51.39.954,VisualSearch_2526_3,,2025.2.4,2026-02-25 11h51.40.164143 +0100,
tilted.xlsx,The target is tilted.,117,64,0,8,0,1,1,1,0,0,0,0,0,0,0,0,1,3,4,117,space,7.021407599999748,None,0,1,2.2619338999998035,None,space,1.6269624999999905,None,0,0,0,0,,,,,8,0,64,6,226.1514946000002,,,,,,,,,,,,,,,,,,,,,226.1362350000004,226.1514946000002,226.63525230000005,226.6399008000003,226.65462190000017,228.91859700000032,,,,,228.91882250000026,228.9333491000002,229.13401410000006,229.11769490000006,226.65462190000017,,,,,,,,0,1,2.2619338999998035,None,,,,,,,,887,22,V,L,2026-02-25_11h51.39.954,VisualSearch_2526_3,,2025.2.4,2026-02-25 11h51.40.164143 +0100,
tilted.xlsx,The target is tilted.,117,65,1,8,1,1,1,1,1,1,1,1,1,1,1,1,0,11,12,117,space,7.021407599999748,None,1,1,2.24370190000036,None,space,1.6269624999999905,None,0,0,0,0,,,,,8,1,65,0,229.13401410000006,,,,,,,,,,,,,,,,,,,,,229.11846240000023,229.13401410000006,229.61740940000027,229.62182759999996,229.6335124000002,231.88278630000013,,,,,231.88286749999997,231.8985716000002,232.09923200000003,232.08309980000013,229.6335124000002,,,,,,,,1,1,2.24370190000036,None,,,,,,,,887,22,V,L,2026-02-25_11h51.39.954,VisualSearch_2526_3,,2025.2.4,2026-02-25 11h51.40.164143 +0100,
tilted.xlsx,The target is tilted.,117,66,2,8,0,0,0,0,0,0,0,0,0,0,0,0,1,1,1,117,space,7.021407599999748,None,0,1,1.3911400000001777,None,space,1.6269624999999905,None,0,0,0,0,,,,,8,2,66,7,232.09923200000003,,,,,,,,,,,,,,,,,,,,,232.0838272000001,232.09923200000003,232.58297420000008,232.58749590000025,232.60249380000005,233.99919490000002,,,,,233.99939440000026,234.0144792000001,234.2145419000003,234.1987965000003,232.60249380000005,,,,,,,,0,1,1.3911400000001777,None,,,,,,,,887,22,V,L,2026-02-25_11h51.39.954,VisualSearch_2526_3,,2025.2.4,2026-02-25 11h51.40.164143 +0100,
tilted.xlsx,The target is tilted.,117,67,3,8,1,1,1,1,0,0,0,0,0,0,0,0,0,3,4,117,space,7.021407599999748,None,1,1,1.0855129999999917,None,space,1.6269624999999905,None,0,0,0,0,,,,,8,3,67,2,234.2145419000003,,,,,,,,,,,,,,,,,,,,,234.19953320000013,234.2145419000003,234.69828800000005,234.7028849000003,234.71631210000032,235.81456620000017,,,,,235.81477059999997,235.83028230000036,236.03079530000014,236.01460840000027,234.71631210000032,,,,,,,,1,1,1.0855129999999917,None,,,,,,,,887,22,V,L,2026-02-25_11h51.39.954,VisualSearch_2526_3,,2025.2.4,2026-02-25 11h51.40.164143 +0100,
tilted.xlsx,The target is tilted.,117,68,4,8,1,0,0,0,0,0,0,0,0,0,0,0,0,0,1,117,space,7.021407599999748,None,1,1,0.7588759999998729,None,space,1.6269624999999905,None,0,0,0,0,,,,,8,4,68,3,236.03079530000014,,,,,,,,,,,,,,,,,,,,,236.015351,236.03079530000014,236.51395160000038,236.51802429999998,236.5332996000002,237.29753830000027,,,,,237.29770129999997,237.31306140000015,237.51305690000027,237.49700180000036,236.5332996000002,,,,,,,,1,1,0.7588759999998729,None,,,,,,,,887,22,V,L,2026-02-25_11h51.39.954,VisualSearch_2526_3,,2025.2.4,2026-02-25 11h51.40.164143 +0100,
tilted.xlsx,The target is tilted.,117,69,5,8,1,1,1,1,1,1,1,1,0,0,0,0,0,7,8,117,space,7.021407599999748,None,1,1,3.2031449999999495,None,space,1.6269624999999905,None,0,0,0,0,,,,,8,5,69,1,237.51305690000027,,,,,,,,,,,,,,,,,,,,,237.4977511000002,237.51305690000027,237.99708240000018,238.00163940000039,238.01556250000021,241.22905790000004,,,,,241.22921900000028,241.24431640000012,241.4446643000001,241.42888680000033,238.01556250000021,,,,,,,,1,1,3.2031449999999495,None,,,,,,,,887,22,V,L,2026-02-25_11h51.39.954,VisualSearch_2526_3,,2025.2.4,2026-02-25 11h51.40.164143 +0100,
tilted.xlsx,The target is tilted.,117,70,6,8,0,1,1,1,1,1,1,1,1,1,1,1,1,11,12,117,space,7.021407599999748,None,1,0,2.312289399999827,None,space,1.6269624999999905,None,0,0,0,0,,,,,8,6,70,4,241.4446643000001,,,,,,,,,,,,,,,,,,,,,241.42965380000032,241.4446643000001,241.9285804000001,241.93320240000003,241.9507268000002,244.27743740000005,,,,,244.27762090000033,244.29313990000037,244.49368870000035,244.47736630000009,241.9507268000002,,,,,,,,1,0,2.312289399999827,None,,,,,,,,887,22,V,L,2026-02-25_11h51.39.954,VisualSearch_2526_3,,2025.2.4,2026-02-25 11h51.40.164143 +0100,
tilted.xlsx,The target is tilted.,117,71,7,8,0,1,1,1,1,1,1,1,0,0,0,0,1,7,8,117,space,7.021407599999748,None,0,1,2.217933499999617,None,space,1.6269624999999905,None,0,0,0,0,,,,,8,7,71,5,244.49368870000035,,,,,,,,,,,,,,,,,,,,,244.47813450000012,244.49368870000035,244.97730200000024,244.98187129999997,244.99813919999997,247.22613660000025,,,,,247.22631160000037,247.24175349999996,247.441953,247.42608440000004,244.99813919999997,,,,,,,,0,1,2.217933499999617,None,,,,,,,,887,22,V,L,2026-02-25_11h51.39.954,VisualSearch_2526_3,,2025.2.4,2026-02-25 11h51.40.164143 +0100,
tilted.xlsx,The target is tilted.,117,72,0,9,1,1,1,1,0,0,0,0,0,0,0,0,0,3,4,117,space,7.021407599999748,None,1,1,1.5424787000001743,None,space,1.6269624999999905,None,0,0,0,0,,,,,9,0,72,2,247.441953,,,,,,,,,,,,,,,,,,,,,247.42686360000016,247.441953,247.92584710000028,247.93037670000012,247.94740060000004,249.4923659000001,,,,,249.49257550000038,249.50744950000035,249.70793920000006,249.6916785000003,247.94740060000004,,,,,,,,1,1,1.5424787000001743,None,,,,,,,,887,22,V,L,2026-02-25_11h51.39.954,VisualSearch_2526_3,,2025.2.4,2026-02-25 11h51.40.164143 +0100,
tilted.xlsx,The target is tilted.,117,73,1,9,0,1,1,1,1,1,1,1,1,1,1,1,1,11,12,117,space,7.021407599999748,None,0,1,2.4823765999999523,None,space,1.6269624999999905,None,0,0,0,0,,,,,9,1,73,4,249.70793920000006,,,,,,,,,,,,,,,,,,,,,249.69242680000025,249.70793920000006,250.19115890000012,250.19578170000023,250.20847500000036,252.70638810000037,,,,,252.70649300000014,252.7231128000003,252.92319730000008,252.90679610000007,250.20847500000036,,,,,,,,0,1,2.4823765999999523,None,,,,,,,,887,22,V,L,2026-02-25_11h51.39.954,VisualSearch_2526_3,,2025.2.4,2026-02-25 11h51.40.164143 +0100,
tilted.xlsx,The target is tilted.,117,74,2,9,1,1,1,1,1,1,1,1,1,1,1,1,0,11,12,117,space,7.021407599999748,None,1,1,1.5230594000004203,None,space,1.6269624999999905,None,0,0,0,0,,,,,9,2,74,0,252.92319730000008,,,,,,,,,,,,,,,,,,,,,252.90761490000023,252.92319730000008,253.40668159999996,253.4112686000003,253.4255102000002,254.95608310000034,,,,,254.95621840000013,254.97159490000013,255.17179290000013,255.15621750000037,253.4255102000002,,,,,,,,1,1,1.5230594000004203,None,,,,,,,,887,22,V,L,2026-02-25_11h51.39.954,VisualSearch_2526_3,,2025.2.4,2026-02-25 11h51.40.164143 +0100,
tilted.xlsx,The target is tilted.,117,75,3,9,0,1,1,1,1,1,1,1,0,0,0,0,1,7,8,117,space,7.021407599999748,None,0,1,2.247349999999642,None,space,1.6269624999999905,None,0,0,0,0,,,,,9,3,75,5,255.17179290000013,,,,,,,,,,,,,,,,,,,,,255.1569010000003,255.17179290000013,255.6552601000003,255.6597339,255.67178590000003,257.9216097000003,,,,,257.9218371000002,257.93695460000026,258.13693230000035,258.12068820000013,255.67178590000003,,,,,,,,0,1,2.247349999999642,None,,,,,,,,887,22,V,L,2026-02-25_11h51.39.954,VisualSearch_2526_3,,2025.2.4,2026-02-25 11h51.40.164143 +0100,
tilted.xlsx,The target is tilted.,117,76,4,9,1,1,1,1,1,1,1,1,0,0,0,0,0,7,8,117,space,7.021407599999748,None,1,1,1.4397335000003295,None,space,1.6269624999999905,None,0,0,0,0,,,,,9,4,76,1,258.13693230000035,,,,,,,,,,,,,,,,,,,,,258.1214210000003,258.13693230000035,258.62111830000003,258.62567800000033,258.6391324000001,260.08779470000036,,,,,260.08803060000037,260.10264570000027,260.3027632000003,260.28687979999995,258.6391324000001,,,,,,,,1,1,1.4397335000003295,None,,,,,,,,887,22,V,L,2026-02-25_11h51.39.954,VisualSearch_2526_3,,2025.2.4,2026-02-25 11h51.40.164143 +0100,
tilted.xlsx,The target is tilted.,117,77,5,9,1,0,0,0,0,0,0,0,0,0,0,0,0,0,1,117,space,7.021407599999748,None,1,1,0.6280111999999463,None,space,1.6269624999999905,None,0,0,0,0,,,,,9,5,77,3,260.3027632000003,,,,,,,,,,,,,,,,,,,,,260.28766620000033,260.3027632000003,260.7866237000003,260.7912491000002,260.8051464,261.43621759999996,,,,,261.43635300000005,261.4519375,261.6520819000002,261.6362256000002,260.8051464,,,,,,,,1,1,0.6280111999999463,None,,,,,,,,887,22,V,L,2026-02-25_11h51.39.954,VisualSearch_2526_3,,2025.2.4,2026-02-25 11h51.40.164143 +0100,
tilted.xlsx,The target is tilted.,117,78,6,9,0,0,0,0,0,0,0,0,0,0,0,0,1,1,1,117,space,7.021407599999748,None,1,0,0.48115310000002864,None,space,1.6269624999999905,None,0,0,0,0,,,,,9,6,78,7,261.6520819000002,,,,,,,,,,,,,,,,,,,,,261.63701549999996,261.6520819000002,262.13592480000034,262.1406892,262.1551711000002,262.6520835000001,,,,,262.65221840000004,262.6680606,262.8681382,262.8521688000001,262.1551711000002,,,,,,,,1,0,0.48115310000002864,None,,,,,,,,887,22,V,L,2026-02-25_11h51.39.954,VisualSearch_2526_3,,2025.2.4,2026-02-25 11h51.40.164143 +0100,
tilted.xlsx,The target is tilted.,117,79,7,9,0,1,1,1,0,0,0,0,0,0,0,0,1,3,4,117,space,7.021407599999748,None,0,1,1.5897436000000198,None,space,1.6269624999999905,None,0,0,0,0,,,,,9,7,79,6,262.8681382,,,,,,,,,,,,,,,,,,,,,262.8529764,262.8681382,263.3521697000001,263.35678989999997,263.37024610000026,264.9686759000001,,,,,264.96886650000033,264.9837754,265.1839,265.1682874000003,263.37024610000026,,,,,,,,0,1,1.5897436000000198,None,,,,,,,,887,22,V,L,2026-02-25_11h51.39.954,VisualSearch_2526_3,,2025.2.4,2026-02-25 11h51.40.164143 +0100,
tilted.xlsx,The target is tilted.,117,80,0,10,0,1,1,1,1,1,1,1,1,1,1,1,1,11,12,117,space,7.021407599999748,None,1,0,2.757020300000022,None,space,1.6269624999999905,None,0,0,0,0,,,,,10,0,80,4,265.1839,,,,,,,,,,,,,,,,,,,,,265.16897080000035,265.1839,265.6679107,265.67248629999995,265.6874455000002,268.4502969,,,,,268.4504745000004,268.4654121000003,268.6657945000002,268.6497938000002,265.6874455000002,,,,,,,,1,0,2.757020300000022,None,,,,,,,,887,22,V,L,2026-02-25_11h51.39.954,VisualSearch_2526_3,,2025.2.4,2026-02-25 11h51.40.164143 +0100,
tilted.xlsx,The target is tilted.,117,81,1,10,0,1,1,1,0,0,0,0,0,0,0,0,1,3,4,117,space,7.021407599999748,None,0,1,1.3226793999997426,None,space,1.6269624999999905,None,0,0,0,0,,,,,10,1,81,6,268.6657945000002,,,,,,,,,,,,,,,,,,,,,268.6505181000002,268.6657945000002,269.14961889999995,269.15415900000016,269.16916560000027,270.49955160000036,,,,,270.4997493000001,270.5143713000002,270.71498930000007,270.69882800000005,269.16916560000027,,,,,,,,0,1,1.3226793999997426,None,,,,,,,,887,22,V,L,2026-02-25_11h51.39.954,VisualSearch_2526_3,,2025.2.4,2026-02-25 11h51.40.164143 +0100,
tilted.xlsx,The target is tilted.,117,82,2,10,1,1,1,1,0,0,0,0,0,0,0,0,0,3,4,117,space,7.021407599999748,None,0,0,0.8616394000000582,None,space,1.6269624999999905,None,0,0,0,0,,,,,10,2,82,2,270.71498930000007,,,,,,,,,,,,,,,,,,,,,270.69957030000023,270.71498930000007,271.1982958000003,271.20281330000034,271.21889150000015,272.08190820000027,,,,,272.0820831000001,272.0970910000001,272.29739210000025,272.2815840000003,271.21889150000015,,,,,,,,0,0,0.8616394000000582,None,,,,,,,,887,22,V,L,2026-02-25_11h51.39.954,VisualSearch_2526_3,,2025.2.4,2026-02-25 11h51.40.164143 +0100,
tilted.xlsx,The target is tilted.,117,83,3,10,0,1,1,1,1,1,1,1,0,0,0,0,1,7,8,117,space,7.021407599999748,None,0,1,2.586334900000111,None,space,1.6269624999999905,None,0,0,0,0,,,,,10,3,83,5,272.29739210000025,,,,,,,,,,,,,,,,,,,,,272.28240540000024,272.29739210000025,272.7812318000001,272.7858446,272.79914640000015,275.39616520000027,,,,,275.39627280000013,275.41226910000023,,275.59637900000007,272.79914640000015,,,,,,,,0,1,2.586334900000111,None,,,,,,,,887,22,V,L,2026-02-25_11h51.39.954,VisualSearch_2526_3,,2025.2.4,2026-02-25 11h51.40.164143 +0100,
tilted.xlsx,The target is tilted.,117,84,4,10,0,0,0,0,0,0,0,0,0,0,0,0,1,1,1,117,space,7.021407599999748,None,0,1,0.5996884000001046,None,space,1.6269624999999905,None,0,0,0,0,,,,,10,4,84,7,275.61264359999996,,,,,,,,,,,,,,,,,,,,,275.5972249000001,275.61264359999996,276.09632710000005,276.10081000000037,276.1152466000003,276.7296315000003,,,,,276.7297950000002,276.74549700000034,276.94537230000014,276.92927370000007,276.1152466000003,,,,,,,,0,1,0.5996884000001046,None,,,,,,,,887,22,V,L,2026-02-25_11h51.39.954,VisualSearch_2526_3,,2025.2.4,2026-02-25 11h51.40.164143 +0100,
tilted.xlsx,The target is tilted.,117,85,5,10,1,1,1,1,1,1,1,1,0,0,0,0,0,7,8,117,space,7.021407599999748,None,1,1,0.9968166000003293,None,space,1.6269624999999905,None,0,0,0,0,,,,,10,5,85,1,276.94537230000014,,,,,,,,,,,,,,,,,,,,,276.93003190000036,276.94537230000014,277.4291410000001,277.4337458,277.4491673000002,278.4622806000002,,,,,278.46247919999996,278.4780472000002,278.67807370000037,278.66201070000034,277.4491673000002,,,,,,,,1,1,0.9968166000003293,None,,,,,,,,887,22,V,L,2026-02-25_11h51.39.954,VisualSearch_2526_3,,2025.2.4,2026-02-25 11h51.40.164143 +0100,
tilted.xlsx,The target is tilted.,117,86,6,10,1,1,1,1,1,1,1,1,1,1,1,1,0,11,12,117,space,7.021407599999748,None,1,1,0.7376114000003327,None,space,1.6269624999999905,None,0,0,0,0,,,,,10,6,86,0,278.67807370000037,,,,,,,,,,,,,,,,,,,,,278.66280670000015,278.67807370000037,279.1617142,279.16699770000014,279.18012130000034,279.92792290000034,,,,,279.92803900000035,279.94374990000006,280.1441245000001,280.12798310000016,279.18012130000034,,,,,,,,1,1,0.7376114000003327,None,,,,,,,,887,22,V,L,2026-02-25_11h51.39.954,VisualSearch_2526_3,,2025.2.4,2026-02-25 11h51.40.164143 +0100,
tilted.xlsx,The target is tilted.,117,87,7,10,1,0,0,0,0,0,0,0,0,0,0,0,0,0,1,117,space,7.021407599999748,None,1,1,0.5643684000001485,None,space,1.6269624999999905,None,0,0,0,0,,,,,10,7,87,3,280.1441245000001,,,,,,,,,,,,,,,,,,,,,280.1287821000001,280.1441245000001,280.62755000000016,280.6321433000003,280.64816470000005,281.22767139999996,,,,,281.22779579999997,281.24315909999996,281.4434421000001,281.4274071,280.64816470000005,,,,,,,,1,1,0.5643684000001485,None,,,,,,,,887,22,V,L,2026-02-25_11h51.39.954,VisualSearch_2526_3,,2025.2.4,2026-02-25 11h51.40.164143 +0100,
tilted.xlsx,The target is tilted.,117,88,0,11,0,1,1,1,1,1,1,1,1,1,1,1,1,11,12,117,space,7.021407599999748,None,1,0,0.743931099999827,None,space,1.6269624999999905,None,0,0,0,0,,,,,11,0,88,4,281.4434421000001,,,,,,,,,,,,,,,,,,,,,281.4281853000002,281.4434421000001,281.9270037000001,281.9315510000001,281.9466593000002,282.69387840000036,,,,,282.69406960000015,282.70912850000013,282.90943930000003,282.8932799000004,281.9466593000002,,,,,,,,1,0,0.743931099999827,None,,,,,,,,887,22,V,L,2026-02-25_11h51.39.954,VisualSearch_2526_3,,2025.2.4,2026-02-25 11h51.40.164143 +0100,
tilted.xlsx,The target is tilted.,117,89,1,11,1,0,0,0,0,0,0,0,0,0,0,0,0,0,1,117,space,7.021407599999748,None,1,1,0.6724219000002449,None,space,1.6269624999999905,None,0,0,0,0,,,,,11,1,89,3,282.90943930000003,,,,,,,,,,,,,,,,,,,,,282.89401160000034,282.90943930000003,283.39299900000015,283.3975935000003,283.4125911000001,284.0927772,,,,,284.0929046000001,284.10874730000023,284.3088237000002,284.29266610000013,283.4125911000001,,,,,,,,1,1,0.6724219000002449,None,,,,,,,,887,22,V,L,2026-02-25_11h51.39.954,VisualSearch_2526_3,,2025.2.4,2026-02-25 11h51.40.164143 +0100,
tilted.xlsx,The target is tilted.,117,90,2,11,0,1,1,1,0,0,0,0,0,0,0,0,1,3,4,117,space,7.021407599999748,None,0,1,0.9664784000001418,None,space,1.6269624999999905,None,0,0,0,0,,,,,11,2,90,6,284.3088237000002,,,,,,,,,,,,,,,,,,,,,284.29339990000017,284.3088237000002,284.79195270000037,284.79653050000024,284.81220650000023,285.79186849999996,,,,,285.79200119999996,285.8078311000004,286.0080775000001,285.9919626000001,284.81220650000023,,,,,,,,0,1,0.9664784000001418,None,,,,,,,,887,22,V,L,2026-02-25_11h51.39.954,VisualSearch_2526_3,,2025.2.4,2026-02-25 11h51.40.164143 +0100,
tilted.xlsx,The target is tilted.,117,91,3,11,0,1,1,1,1,1,1,1,0,0,0,0,1,7,8,117,space,7.021407599999748,None,0,1,2.671026299999994,None,space,1.6269624999999905,None,0,0,0,0,,,,,11,3,91,5,286.0080775000001,,,,,,,,,,,,,,,,,,,,,285.99268759999995,286.0080775000001,286.49176910000006,286.4963782,286.5110773000001,289.1910963,,,,,289.1913504000004,289.2061955000004,289.4064949000003,289.39039690000027,286.5110773000001,,,,,,,,0,1,2.671026299999994,None,,,,,,,,887,22,V,L,2026-02-25_11h51.39.954,VisualSearch_2526_3,,2025.2.4,2026-02-25 11h51.40.164143 +0100,
tilted.xlsx,The target is tilted.,117,92,4,11,0,0,0,0,0,0,0,0,0,0,0,0,1,1,1,117,space,7.021407599999748,None,0,1,0.6979810000002544,None,space,1.6269624999999905,None,0,0,0,0,,,,,11,4,92,7,289.4064949000003,,,,,,,,,,,,,,,,,,,,,289.39114240000026,289.4064949000003,289.8901020000003,289.8946328000002,289.9090685000001,290.6238109000001,,,,,290.62402440000005,290.63920810000036,290.83875400000034,290.8231387000001,289.9090685000001,,,,,,,,0,1,0.6979810000002544,None,,,,,,,,887,22,V,L,2026-02-25_11h51.39.954,VisualSearch_2526_3,,2025.2.4,2026-02-25 11h51.40.164143 +0100,
tilted.xlsx,The target is tilted.,117,93,5,11,1,1,1,1,1,1,1,1,1,1,1,1,0,11,12,117,space,7.021407599999748,None,1,1,2.926125899999988,None,space,1.6269624999999905,None,0,0,0,0,,,,,11,5,93,0,290.83875400000034,,,,,,,,,,,,,,,,,,,,,290.82393390000016,290.83875400000034,291.3225650000004,291.32702500000005,291.3411636000001,294.2714883000003,,,,,294.2716682,294.2876059,294.48749940000016,294.47128900000007,291.3411636000001,,,,,,,,1,1,2.926125899999988,None,,,,,,,,887,22,V,L,2026-02-25_11h51.39.954,VisualSearch_2526_3,,2025.2.4,2026-02-25 11h51.40.164143 +0100,
tilted.xlsx,The target is tilted.,117,94,6,11,1,1,1,1,0,0,0,0,0,0,0,0,0,3,4,117,space,7.021407599999748,None,1,1,1.0943724000003385,None,space,1.6269624999999905,None,0,0,0,0,,,,,11,6,94,2,294.48749940000016,,,,,,,,,,,,,,,,,,,,,294.47203230000014,294.48749940000016,294.97120600000017,294.97571930000004,294.99008520000007,296.0876096000002,,,,,296.0877719,296.10343600000033,296.30343949999997,296.2875436000004,294.99008520000007,,,,,,,,1,1,1.0943724000003385,None,,,,,,,,887,22,V,L,2026-02-25_11h51.39.954,VisualSearch_2526_3,,2025.2.4,2026-02-25 11h51.40.164143 +0100,
tilted.xlsx,The target is tilted.,117,95,7,11,1,1,1,1,1,1,1,1,0,0,0,0,0,7,8,117,space,7.021407599999748,None,1,1,1.0100800000000163,None,space,1.6269624999999905,None,0,0,0,0,,,,,11,7,95,1,296.30343949999997,,,,,,,,,,,,,,,,,,,,,296.2882264,296.30343949999997,296.7867873,296.7913469,296.80668170000035,297.82009800000014,,,,,297.82029520000015,297.8358383,298.03558920000023,298.020004,296.80668170000035,,,,,,,,1,1,1.0100800000000163,None,,,,,,,,887,22,V,L,2026-02-25_11h51.39.954,VisualSearch_2526_3,,2025.2.4,2026-02-25 11h51.40.164143 +0100,
tilted.xlsx,The target is tilted.,117,96,0,12,0,1,1,1,0,0,0,0,0,0,0,0,1,3,4,117,space,7.021407599999748,None,0,1,1.230788500000017,None,space,1.6269624999999905,None,0,0,0,0,,,,,12,0,96,6,298.03558920000023,,,,,,,,,,,,,,,,,,,,,298.02068780000036,298.03558920000023,298.5195557000002,298.52411410000013,298.5389779000002,299.7859077000003,,,,,299.7861031000002,299.80156080000006,300.0015297,299.9852181000001,298.5389779000002,,,,,,,,0,1,1.230788500000017,None,,,,,,,,887,22,V,L,2026-02-25_11h51.39.954,VisualSearch_2526_3,,2025.2.4,2026-02-25 11h51.40.164143 +0100,
tilted.xlsx,The target is tilted.,117,97,1,12,1,0,0,0,0,0,0,0,0,0,0,0,0,0,1,117,space,7.021407599999748,None,1,1,0.6196390000000065,None,space,1.6269624999999905,None,0,0,0,0,,,,,12,1,97,3,300.0015297,,,,,,,,,,,,,,,,,,,,,299.9859639000001,300.0015297,300.4848466000003,300.48931790000006,300.50393570000006,301.13538370000015,,,,,301.1355689000002,301.1511351000004,301.35080070000004,301.3347163000003,300.50393570000006,,,,,,,,1,1,0.6196390000000065,None,,,,,,,,887,22,V,L,2026-02-25_11h51.39.954,VisualSearch_2526_3,,2025.2.4,2026-02-25 11h51.40.164143 +0100,
tilted.xlsx,The target is tilted.,117,98,2,12,0,0,0,0,0,0,0,0,0,0,0,0,1,1,1,117,space,7.021407599999748,None,0,1,0.8015497999999752,None,space,1.6269624999999905,None,0,0,0,0,,,,,12,2,98,7,301.35080070000004,,,,,,,,,,,,,,,,,,,,,301.3354559000004,301.35080070000004,301.8347401000001,301.83922310000025,301.8536059000003,302.66799100000026,,,,,302.6681268000002,302.6837236000001,302.88327230000004,302.8674239000002,301.8536059000003,,,,,,,,0,1,0.8015497999999752,None,,,,,,,,887,22,V,L,2026-02-25_11h51.39.954,VisualSearch_2526_3,,2025.2.4,2026-02-25 11h51.40.164143 +0100,
tilted.xlsx,The target is tilted.,117,99,3,12,0,1,1,1,1,1,1,1,0,0,0,0,1,7,8,117,space,7.021407599999748,None,1,0,2.3804858999997123,None,space,1.6269624999999905,None,0,0,0,0,,,,,12,3,99,5,302.88327230000004,,,,,,,,,,,,,,,,,,,,,302.86815400000023,302.88327230000004,303.36737280000034,303.3718041000002,303.3894809000003,305.78352250000034,,,,,305.78374520000034,305.7989917,305.99892750000026,305.98231080000005,303.3894809000003,,,,,,,,1,0,2.3804858999997123,None,,,,,,,,887,22,V,L,2026-02-25_11h51.39.954,VisualSearch_2526_3,,2025.2.4,2026-02-25 11h51.40.164143 +0100,
tilted.xlsx,The target is tilted.,117,100,4,12,0,1,1,1,1,1,1,1,1,1,1,1,1,11,12,117,space,7.021407599999748,None,1,0,3.5779380999997557,None,space,1.6269624999999905,None,0,0,0,0,,,,,12,4,100,4,305.99892750000026,,,,,,,,,,,,,,,,,,,,,305.9830495000001,305.99892750000026,306.48266620000004,306.4871734000003,306.50268430000006,310.0981296,,,,,310.09834720000026,310.1137206000003,310.3136751000002,310.2974491,306.50268430000006,,,,,,,,1,0,3.5779380999997557,None,,,,,,,,887,22,V,L,2026-02-25_11h51.39.954,VisualSearch_2526_3,,2025.2.4,2026-02-25 11h51.40.164143 +0100,
tilted.xlsx,The target is tilted.,117,101,5,12,1,1,1,1,1,1,1,1,0,0,0,0,0,7,8,117,space,7.021407599999748,None,1,1,1.857568899999933,None,space,1.6269624999999905,None,0,0,0,0,,,,,12,5,101,1,310.3136751000002,,,,,,,,,,,,,,,,,,,,,310.2982027000003,310.3136751000002,310.7972544000004,310.80177679999997,310.8174246000003,312.6803777,,,,,312.68057220000037,312.6958074000004,312.89575790000026,312.8796798000003,310.8174246000003,,,,,,,,1,1,1.857568899999933,None,,,,,,,,887,22,V,L,2026-02-25_11h51.39.954,VisualSearch_2526_3,,2025.2.4,2026-02-25 11h51.40.164143 +0100,
tilted.xlsx,The target is tilted.,117,102,6,12,1,1,1,1,0,0,0,0,0,0,0,0,0,3,4,117,space,7.021407599999748,None,1,1,2.4790588000000753,None,space,1.6269624999999905,None,0,0,0,0,,,,,12,6,102,2,312.89575790000026,,,,,,,,,,,,,,,,,,,,,312.8804084000003,312.89575790000026,313.3794720000001,313.38403160000007,313.3988098,315.8945383,,,,,315.8946512000002,315.91047530000014,316.1107681000003,316.09503010000026,313.3988098,,,,,,,,1,1,2.4790588000000753,None,,,,,,,,887,22,V,L,2026-02-25_11h51.39.954,VisualSearch_2526_3,,2025.2.4,2026-02-25 11h51.40.164143 +0100,
tilted.xlsx,The target is tilted.,117,103,7,12,1,1,1,1,1,1,1,1,1,1,1,1,0,11,12,117,space,7.021407599999748,None,1,1,2.4920498000001317,None,space,1.6269624999999905,None,0,0,0,0,,,,,12,7,103,0,316.1107681000003,,,,,,,,,,,,,,,,,,,,,316.0958283,316.1107681000003,316.59476240000004,316.59926220000034,316.6166110000004,319.11016210000025,,,,,319.11031120000007,319.1260787000001,319.32612450000033,319.3101120000001,316.6166110000004,,,,,,,,1,1,2.4920498000001317,None,,,,,,,,887,22,V,L,2026-02-25_11h51.39.954,VisualSearch_2526_3,,2025.2.4,2026-02-25 11h51.40.164143 +0100,
tilted.xlsx,The target is tilted.,117,104,0,13,1,1,1,1,0,0,0,0,0,0,0,0,0,3,4,117,space,7.021407599999748,None,1,1,1.0754647000003388,None,space,1.6269624999999905,None,0,0,0,0,,,,,13,0,104,2,319.32612450000033,,,,,,,,,,,,,,,,,,,,,319.3111328,319.32612450000033,319.8097555000004,319.8142724000004,319.8287169,320.9093775000001,,,,,320.90955699999995,320.92512620000025,321.1253370000004,321.10892190000004,319.8287169,,,,,,,,1,1,1.0754647000003388,None,,,,,,,,887,22,V,L,2026-02-25_11h51.39.954,VisualSearch_2526_3,,2025.2.4,2026-02-25 11h51.40.164143 +0100,
tilted.xlsx,The target is tilted.,117,105,1,13,1,0,0,0,0,0,0,0,0,0,0,0,0,0,1,117,space,7.021407599999748,None,1,1,0.5969246000004205,None,space,1.6269624999999905,None,0,0,0,0,,,,,13,1,105,3,321.1253370000004,,,,,,,,,,,,,,,,,,,,,321.10969300000033,321.1253370000004,321.6090798,321.61362290000034,321.6290234000003,322.24236740000015,,,,,322.2425035000001,322.25804300000027,322.45816950000017,322.4419546000004,321.6290234000003,,,,,,,,1,1,0.5969246000004205,None,,,,,,,,887,22,V,L,2026-02-25_11h51.39.954,VisualSearch_2526_3,,2025.2.4,2026-02-25 11h51.40.164143 +0100,
tilted.xlsx,The target is tilted.,117,106,2,13,0,0,0,0,0,0,0,0,0,0,0,0,1,1,1,117,space,7.021407599999748,None,0,1,0.6902626999999484,None,space,1.6269624999999905,None,0,0,0,0,,,,,13,2,106,7,322.45816950000017,,,,,,,,,,,,,,,,,,,,,322.4426999000002,322.45816950000017,322.9417018000004,322.94621559999996,322.9628687000004,323.65831849999995,,,,,323.65853319999997,323.6737747000002,323.8739805,323.85725440000033,322.9628687000004,,,,,,,,0,1,0.6902626999999484,None,,,,,,,,887,22,V,L,2026-02-25_11h51.39.954,VisualSearch_2526_3,,2025.2.4,2026-02-25 11h51.40.164143 +0100,
tilted.xlsx,The target is tilted.,117,107,3,13,1,1,1,1,1,1,1,1,0,0,0,0,0,7,8,117,space,7.021407599999748,None,1,1,2.8650101000002905,None,space,1.6269624999999905,None,0,0,0,0,,,,,13,3,107,1,323.8739805,,,,,,,,,,,,,,,,,,,,,323.8575479000001,323.8739805,324.35774119999996,324.3621296000001,324.3737194,327.24032639999996,,,,,327.24052010000014,327.2557289000001,327.4558186000004,327.4393431000003,324.3737194,,,,,,,,1,1,2.8650101000002905,None,,,,,,,,887,22,V,L,2026-02-25_11h51.39.954,VisualSearch_2526_3,,2025.2.4,2026-02-25 11h51.40.164143 +0100,
tilted.xlsx,The target is tilted.,117,108,4,13,0,1,1,1,1,1,1,1,1,1,1,1,1,11,12,117,space,7.021407599999748,None,1,0,3.845349599999736,None,space,1.6269624999999905,None,0,0,0,0,,,,,13,4,108,4,327.4558186000004,,,,,,,,,,,,,,,,,,,,,327.44046990000015,327.4558186000004,327.93973170000027,327.94476269999996,327.9604042000001,331.82089510000014,,,,,331.820972,331.83695000000034,332.0370022000002,332.0209334000001,327.9604042000001,,,,,,,,1,0,3.845349599999736,None,,,,,,,,887,22,V,L,2026-02-25_11h51.39.954,VisualSearch_2526_3,,2025.2.4,2026-02-25 11h51.40.164143 +0100,
tilted.xlsx,The target is tilted.,117,109,5,13,0,1,1,1,1,1,1,1,0,0,0,0,1,7,8,117,space,7.021407599999748,None,1,0,2.889834499999779,None,space,1.6269624999999905,None,0,0,0,0,,,,,13,5,109,5,332.0370022000002,,,,,,,,,,,,,,,,,,,,,332.0216859000002,332.0370022000002,332.5207666000001,332.5251185000002,332.5417701000001,335.43583860000035,,,,,335.43598480000037,335.4520907000001,335.6521879000002,335.6358177000002,332.5417701000001,,,,,,,,1,0,2.889834499999779,None,,,,,,,,887,22,V,L,2026-02-25_11h51.39.954,VisualSearch_2526_3,,2025.2.4,2026-02-25 11h51.40.164143 +0100,
tilted.xlsx,The target is tilted.,117,110,6,13,1,1,1,1,1,1,1,1,1,1,1,1,0,11,12,117,space,7.021407599999748,None,1,1,3.796165199999905,None,space,1.6269624999999905,None,0,0,0,0,,,,,13,6,110,0,335.6521879000002,,,,,,,,,,,,,,,,,,,,,335.63657379999995,335.6521879000002,336.1357178000003,336.1401707,336.15185820000033,339.95140100000026,,,,,339.95164120000027,339.966488,340.1666332,340.15066260000003,336.15185820000033,,,,,,,,1,1,3.796165199999905,None,,,,,,,,887,22,V,L,2026-02-25_11h51.39.954,VisualSearch_2526_3,,2025.2.4,2026-02-25 11h51.40.164143 +0100,
tilted.xlsx,The target is tilted.,117,111,7,13,0,1,1,1,0,0,0,0,0,0,0,0,1,3,4,117,space,7.021407599999748,None,0,1,2.782846200000222,None,space,1.6269624999999905,None,0,0,0,0,,,,,13,7,111,6,340.1666332,,,,,,,,,,,,,,,,,,,,,340.1513858000003,340.1666332,340.6504688,340.65501470000027,340.66965740000023,343.46589630000017,,,,,343.4660740000004,343.4818858000003,343.68135230000007,343.66564470000003,340.66965740000023,,,,,,,,0,1,2.782846200000222,None,,,,,,,,887,22,V,L,2026-02-25_11h51.39.954,VisualSearch_2526_3,,2025.2.4,2026-02-25 11h51.40.164143 +0100,
tilted.xlsx,The target is tilted.,117,112,0,14,1,0,0,0,0,0,0,0,0,0,0,0,0,0,1,117,space,7.021407599999748,None,1,1,0.6172967000002245,None,space,1.6269624999999905,None,0,0,0,0,,,,,14,0,112,3,343.68135230000007,,,,,,,,,,,,,,,,,,,,,343.6664211000002,343.68135230000007,344.1652959000003,344.16989820000026,344.18488320000006,344.8146934000001,,,,,344.81479290000016,344.83100890000014,345.03114110000024,345.01491890000034,344.18488320000006,,,,,,,,1,1,0.6172967000002245,None,,,,,,,,887,22,V,L,2026-02-25_11h51.39.954,VisualSearch_2526_3,,2025.2.4,2026-02-25 11h51.40.164143 +0100,
tilted.xlsx,The target is tilted.,117,113,1,14,0,1,1,1,1,1,1,1,0,0,0,0,1,7,8,117,space,7.021407599999748,None,1,0,1.9323685999997906,None,space,1.6269624999999905,None,0,0,0,0,,,,,14,1,113,5,345.03114110000024,,,,,,,,,,,,,,,,,,,,,345.0156656000004,345.03114110000024,345.51483750000034,345.5193354000003,345.53439560000015,347.4811549000001,,,,,347.48135530000036,347.4965080000002,347.6962553000003,347.6804668,345.53439560000015,,,,,,,,1,0,1.9323685999997906,None,,,,,,,,887,22,V,L,2026-02-25_11h51.39.954,VisualSearch_2526_3,,2025.2.4,2026-02-25 11h51.40.164143 +0100,
tilted.xlsx,The target is tilted.,117,114,2,14,0,1,1,1,0,0,0,0,0,0,0,0,1,3,4,117,space,7.021407599999748,None,0,1,1.7410665000002155,None,space,1.6269624999999905,None,0,0,0,0,,,,,14,2,114,6,347.6962553000003,,,,,,,,,,,,,,,,,,,,,347.68119690000003,347.6962553000003,348.18032470000026,348.18490280000015,348.19949610000003,349.9463791000003,,,,,349.9465731,349.9621112,350.16175790000034,350.1459954000002,348.19949610000003,,,,,,,,0,1,1.7410665000002155,None,,,,,,,,887,22,V,L,2026-02-25_11h51.39.954,VisualSearch_2526_3,,2025.2.4,2026-02-25 11h51.40.164143 +0100,
tilted.xlsx,The target is tilted.,117,115,3,14,1,1,1,1,1,1,1,1,0,0,0,0,0,7,8,117,space,7.021407599999748,None,1,1,2.585112299999764,None,space,1.6269624999999905,None,0,0,0,0,,,,,14,3,115,1,350.16175790000034,,,,,,,,,,,,,,,,,,,,,350.1468539000002,350.16175790000034,350.6456051,350.6501327000001,350.6655361000003,353.2613120000001,,,,,353.26143790000015,353.2771038000001,353.47728050000023,353.4612287,350.6655361000003,,,,,,,,1,1,2.585112299999764,None,,,,,,,,887,22,V,L,2026-02-25_11h51.39.954,VisualSearch_2526_3,,2025.2.4,2026-02-25 11h51.40.164143 +0100,
tilted.xlsx,The target is tilted.,117,116,4,14,0,0,0,0,0,0,0,0,0,0,0,0,1,1,1,117,space,7.021407599999748,None,0,1,0.6703643000000739,None,space,1.6269624999999905,None,0,0,0,0,,,,,14,4,116,7,353.47728050000023,,,,,,,,,,,,,,,,,,,,,353.4619724000004,353.47728050000023,353.96099930000037,353.9655643000001,353.98119510000015,354.6612022000004,,,,,354.6614010000003,354.67662310000014,354.87642870000036,354.85996539999996,353.98119510000015,,,,,,,,0,1,0.6703643000000739,None,,,,,,,,887,22,V,L,2026-02-25_11h51.39.954,VisualSearch_2526_3,,2025.2.4,2026-02-25 11h51.40.164143 +0100,
tilted.xlsx,The target is tilted.,117,117,5,14,0,1,1,1,1,1,1,1,1,1,1,1,1,11,12,117,space,7.021407599999748,None,1,0,1.177793599999859,None,space,1.6269624999999905,None,0,0,0,0,,,,,14,5,117,4,354.87642870000036,,,,,,,,,,,,,,,,,,,,,354.86033160000034,354.87642870000036,355.3600104000002,355.36455890000025,355.37910950000014,356.55979320000006,,,,,356.5599513000002,356.5758745000003,356.7754087000003,356.7600752000003,355.37910950000014,,,,,,,,1,0,1.177793599999859,None,,,,,,,,887,22,V,L,2026-02-25_11h51.39.954,VisualSearch_2526_3,,2025.2.4,2026-02-25 11h51.40.164143 +0100,
tilted.xlsx,The target is tilted.,117,118,6,14,1,1,1,1,0,0,0,0,0,0,0,0,0,3,4,117,space,7.021407599999748,None,1,1,1.362548400000378,None,space,1.6269624999999905,None,0,0,0,0,,,,,14,6,118,2,356.7754087000003,,,,,,,,,,,,,,,,,,,,,356.76082220000035,356.7754087000003,357.2595097000003,357.26405390000036,357.27976450000006,358.6593192,,,,,358.65952110000035,358.67445080000016,358.87455590000036,358.8584254000002,357.27976450000006,,,,,,,,1,1,1.362548400000378,None,,,,,,,,887,22,V,L,2026-02-25_11h51.39.954,VisualSearch_2526_3,,2025.2.4,2026-02-25 11h51.40.164143 +0100,
tilted.xlsx,The target is tilted.,117,119,7,14,1,1,1,1,1,1,1,1,1,1,1,1,0,11,12,117,space,7.021407599999748,None,1,1,1.2290664000001925,None,space,1.6269624999999905,None,0,0,0,0,,,,,14,7,119,0,358.87455590000036,,,,,,,,,,,,,,,,,,,,,358.8591617000002,358.87455590000036,359.35798120000027,359.3625509000003,359.37864400000035,360.62435970000024,,,,,360.62449760000027,360.6406178000002,360.8528088000003,360.8244079000001,359.37864400000035,,,,,,,,1,1,1.2290664000001925,None,,,,,,,,887,22,V,L,2026-02-25_11h51.39.954,VisualSearch_2526_3,,2025.2.4,2026-02-25 11h51.40.164143 +0100,
tilted.xlsx,The target is tilted.,117,0,0,0,,,,,,,,,,,,,,,,,space,7.021407599999748,None,,,,,space,1.6269624999999905,None,0,0,0,0,,,,,,,,,,,,,,,,,,,,,,,,,,,,,,,,,,,,,,,,,,,,,,,,,,,,,,,,,,,,,,,887,22,V,L,2026-02-25_11h51.39.954,VisualSearch_2526_3,,2025.2.4,2026-02-25 11h51.40.164143 +0100,
vertical.xlsx,The target is tilted.,135,0,0,0,1,1,1,1,0,0,0,0,0,0,0,0,0,3,4,135,space,5.756753799999842,None,1,1,0.5796539999996639,None,,,,0,1,1,1,0,0,0,2,,,,,366.64585239999997,,,,,,,,,,,,,,,360.8528088000003,360.8528088000003,360.8528088000003,space,5.756753799999842,None,366.6420413000001,366.64585239999997,367.1380755,367.1426631000004,367.1585977,367.7551344000003,1,1,0.5796539999996639,None,367.7553296000001,367.77081240000007,367.9706828000003,367.9543031000003,,,,,,,,,,,,,,,,,,,,887,22,V,L,2026-02-25_11h51.39.954,VisualSearch_2526_3,,2025.2.4,2026-02-25 11h51.40.164143 +0100,
vertical.xlsx,The target is tilted.,135,1,1,0,0,1,1,1,0,0,0,0,0,0,0,0,1,3,4,135,space,5.756753799999842,None,0,1,0.8797362000000248,None,,,,0,1,1,1,0,1,1,6,,,,,367.9706828000003,,,,,,,,,,,,,,,,,,,,,367.95487249999996,367.9706828000003,368.4544185,368.4589513000001,368.47396290000006,369.37122320000026,0,1,0.8797362000000248,None,369.37141070000007,369.38653950000025,369.58633469999995,369.57019530000025,368.47396290000006,,,,,,,,,,,,,,,,,,,887,22,V,L,2026-02-25_11h51.39.954,VisualSearch_2526_3,,2025.2.4,2026-02-25 11h51.40.164143 +0100,
vertical.xlsx,The target is tilted.,135,2,2,0,1,0,0,0,0,0,0,0,0,0,0,0,0,0,1,135,space,5.756753799999842,None,1,1,0.7592564999999922,None,,,,0,1,1,1,0,2,2,3,,,,,369.58633469999995,,,,,,,,,,,,,,,,,,,,,369.57088420000036,369.58633469999995,370.070377,370.07495900000004,370.0901723000002,370.85266660000025,1,1,0.7592564999999922,None,370.8527374,370.8689578000003,371.0691904,371.05284329999995,370.0901723000002,,,,,,,,,,,,,,,,,,,887,22,V,L,2026-02-25_11h51.39.954,VisualSearch_2526_3,,2025.2.4,2026-02-25 11h51.40.164143 +0100,
vertical.xlsx,The target is tilted.,135,3,3,0,0,0,0,0,0,0,0,0,0,0,0,0,1,1,1,135,space,5.756753799999842,None,0,1,0.9375519999998687,None,,,,0,1,1,1,0,3,3,7,,,,,371.0691904,,,,,,,,,,,,,,,,,,,,,371.0535495000004,371.0691904,371.55298470000025,371.5574953,371.5724865000002,372.5195788000001,0,1,0.9375519999998687,None,372.5197542000001,372.53493500000013,372.7351152000001,372.7190681000002,371.5724865000002,,,,,,,,,,,,,,,,,,,887,22,V,L,2026-02-25_11h51.39.954,VisualSearch_2526_3,,2025.2.4,2026-02-25 11h51.40.164143 +0100,
vertical.xlsx,The target is tilted.,135,4,4,0,0,1,1,1,1,1,1,1,1,1,1,1,1,11,12,135,space,5.756753799999842,None,0,1,1.9763804999997774,None,,,,0,1,1,1,0,4,4,4,,,,,372.7351152000001,,,,,,,,,,,,,,,,,,,,,372.71974880000016,372.7351152000001,373.21892800000023,373.2236309,373.2391120000002,375.21798560000025,0,1,1.9763804999997774,None,375.2181283,375.2338713000004,375.4335251000002,375.41748370000005,373.2391120000002,,,,,,,,,,,,,,,,,,,887,22,V,L,2026-02-25_11h51.39.954,VisualSearch_2526_3,,2025.2.4,2026-02-25 11h51.40.164143 +0100,
vertical.xlsx,The target is tilted.,135,5,5,0,1,1,1,1,1,1,1,1,1,1,1,1,0,11,12,135,space,5.756753799999842,None,0,0,1.6768285999996806,None,,,,0,1,1,1,0,5,5,0,,,,,375.4335251000002,,,,,,,,,,,,,,,,,,,,,375.41816740000013,375.4335251000002,375.91750990000037,375.9215905000001,375.93762560000005,377.6175181000003,0,0,1.6768285999996806,None,377.6177382000001,377.6325879000001,377.8329842000003,377.81638310000017,375.93762560000005,,,,,,,,,,,,,,,,,,,887,22,V,L,2026-02-25_11h51.39.954,VisualSearch_2526_3,,2025.2.4,2026-02-25 11h51.40.164143 +0100,
vertical.xlsx,The target is tilted.,135,6,6,0,0,1,1,1,1,1,1,1,0,0,0,0,1,7,8,135,space,5.756753799999842,None,0,1,1.3972547999997005,None,,,,0,1,1,1,0,6,6,5,,,,,377.8329842000003,,,,,,,,,,,,,,,,,,,,,377.81706250000025,377.8329842000003,378.3165024,378.3209747000001,378.33252930000026,379.73302490000015,0,1,1.3972547999997005,None,379.73320809999996,379.74839610000026,379.9486801000003,379.9323080000004,378.33252930000026,,,,,,,,,,,,,,,,,,,887,22,V,L,2026-02-25_11h51.39.954,VisualSearch_2526_3,,2025.2.4,2026-02-25 11h51.40.164143 +0100,
vertical.xlsx,The target is tilted.,135,7,7,0,1,1,1,1,1,1,1,1,0,0,0,0,0,7,8,135,space,5.756753799999842,None,0,0,1.184679899999992,None,,,,0,1,1,1,0,7,7,1,,,,,379.9486801000003,,,,,,,,,,,,,,,,,,,,,379.932992,379.9486801000003,380.43196020000005,380.43641240000034,380.4520215000002,381.64969640000027,0,0,1.184679899999992,None,381.6498862000003,381.6643908000001,381.8642708000002,381.8481856000003,380.4520215000002,,,,,,,,,,,,,,,,,,,887,22,V,L,2026-02-25_11h51.39.954,VisualSearch_2526_3,,2025.2.4,2026-02-25 11h51.40.164143 +0100,
vertical.xlsx,The target is tilted.,135,0,0,0,0,1,1,1,1,1,1,1,1,1,1,1,1,11,12,135,space,5.756753799999842,None,0,1,14.230696199999784,None,space,8.035795599999801,None,0,1,1,1,,,,,0,0,0,4,389.9396991000003,,,,,,,,,,,,,,,,,,,,,389.9357540000001,389.9396991000003,390.4274182000004,390.4320143,390.4481388000004,404.68810250000024,,,,,404.68831660000023,404.7038600000001,404.9040795000001,404.88768690000006,,381.85336780000034,381.8642708000002,381.8642708000002,389.91113680000035,space,8.035795599999801,None,0,1,14.230696199999784,None,,,,,,,,887,22,V,L,2026-02-25_11h51.39.954,VisualSearch_2526_3,,2025.2.4,2026-02-25 11h51.40.164143 +0100,
vertical.xlsx,The target is tilted.,135,1,1,0,1,1,1,1,1,1,1,1,0,0,0,0,0,7,8,135,space,5.756753799999842,None,0,0,1.8664776999999049,None,space,8.035795599999801,None,0,1,1,1,,,,,0,1,1,1,404.9040795000001,,,,,,,,,,,,,,,,,,,,,404.8884463000004,404.9040795000001,405.38745740000013,405.3919618,405.4070319000002,407.28661660000034,,,,,407.28679120000015,407.30274099999997,407.5025205000002,407.4862019000002,405.4070319000002,,,,,,,,0,0,1.8664776999999049,None,,,,,,,,887,22,V,L,2026-02-25_11h51.39.954,VisualSearch_2526_3,,2025.2.4,2026-02-25 11h51.40.164143 +0100,
vertical.xlsx,The target is tilted.,135,2,2,0,1,1,1,1,0,0,0,0,0,0,0,0,0,3,4,135,space,5.756753799999842,None,1,1,1.066343599999982,None,space,8.035795599999801,None,0,1,1,1,,,,,0,2,2,2,407.5025205000002,,,,,,,,,,,,,,,,,,,,,407.4867562000004,407.5025205000002,407.98628740000004,407.9908223000002,408.0060408000004,409.0864045000003,,,,,409.08659830000033,409.1019808000001,409.30197640000006,409.2856476000002,408.0060408000004,,,,,,,,1,1,1.066343599999982,None,,,,,,,,887,22,V,L,2026-02-25_11h51.39.954,VisualSearch_2526_3,,2025.2.4,2026-02-25 11h51.40.164143 +0100,
vertical.xlsx,The target is tilted.,135,3,3,0,1,1,1,1,1,1,1,1,1,1,1,1,0,11,12,135,space,5.756753799999842,None,1,1,2.7241108000002896,None,space,8.035795599999801,None,0,1,1,1,,,,,0,3,3,0,409.30197640000006,,,,,,,,,,,,,,,,,,,,,409.28638980000005,409.30197640000006,409.7852135000003,409.7901205000003,409.8048751000001,412.5346357000003,,,,,412.5348103000001,412.5502268,412.7502330000002,412.7338598000001,409.8048751000001,,,,,,,,1,1,2.7241108000002896,None,,,,,,,,887,22,V,L,2026-02-25_11h51.39.954,VisualSearch_2526_3,,2025.2.4,2026-02-25 11h51.40.164143 +0100,
vertical.xlsx,The target is tilted.,135,4,4,0,0,0,0,0,0,0,0,0,0,0,0,0,1,1,1,135,space,5.756753799999842,None,0,1,0.6709765000000516,None,space,8.035795599999801,None,0,1,1,1,,,,,0,4,4,7,412.7502330000002,,,,,,,,,,,,,,,,,,,,,412.7345914000002,412.7502330000002,413.2340827000003,413.2386219,413.2536008000002,413.9334189000001,,,,,413.93352730000015,413.9496773000001,414.1493141000001,414.133562,413.2536008000002,,,,,,,,0,1,0.6709765000000516,None,,,,,,,,887,22,V,L,2026-02-25_11h51.39.954,VisualSearch_2526_3,,2025.2.4,2026-02-25 11h51.40.164143 +0100,
vertical.xlsx,The target is tilted.,135,5,5,0,1,0,0,0,0,0,0,0,0,0,0,0,0,0,1,135,space,5.756753799999842,None,1,1,0.6747752999999648,None,space,8.035795599999801,None,0,1,1,1,,,,,0,5,5,3,414.1493141000001,,,,,,,,,,,,,,,,,,,,,414.1342870000003,414.1493141000001,414.63317830000005,414.63769390000016,414.6528426,415.3335125000003,,,,,415.3337041,415.3491530000001,415.54904810000016,415.53292310000006,414.6528426,,,,,,,,1,1,0.6747752999999648,None,,,,,,,,887,22,V,L,2026-02-25_11h51.39.954,VisualSearch_2526_3,,2025.2.4,2026-02-25 11h51.40.164143 +0100,
vertical.xlsx,The target is tilted.,135,6,6,0,0,1,1,1,1,1,1,1,0,0,0,0,1,7,8,135,space,5.756753799999842,None,0,1,1.4643392000002677,None,space,8.035795599999801,None,0,1,1,1,,,,,0,6,6,5,415.54904810000016,,,,,,,,,,,,,,,,,,,,,415.5336718000003,415.54904810000016,416.0326455000004,416.03711550000025,416.0521560000002,417.5319449000003,,,,,417.53214190000017,417.5480173000001,417.7480163,417.7314282000002,416.0521560000002,,,,,,,,0,1,1.4643392000002677,None,,,,,,,,887,22,V,L,2026-02-25_11h51.39.954,VisualSearch_2526_3,,2025.2.4,2026-02-25 11h51.40.164143 +0100,
vertical.xlsx,The target is tilted.,135,7,7,0,0,1,1,1,0,0,0,0,0,0,0,0,1,3,4,135,space,5.756753799999842,None,0,1,0.6425170000002254,None,space,8.035795599999801,None,0,1,1,1,,,,,0,7,7,6,417.7480163,,,,,,,,,,,,,,,,,,,,,417.7321726,417.7480163,418.2317591000001,418.2363038000003,418.25133010000036,418.89830930000016,,,,,418.8985183,418.91410380000025,419.11413070000026,419.0979053000001,418.25133010000036,,,,,,,,0,1,0.6425170000002254,None,,,,,,,,887,22,V,L,2026-02-25_11h51.39.954,VisualSearch_2526_3,,2025.2.4,2026-02-25 11h51.40.164143 +0100,
vertical.xlsx,The target is tilted.,135,8,0,1,0,0,0,0,0,0,0,0,0,0,0,0,1,1,1,135,space,5.756753799999842,None,0,1,0.46638460000031046,None,space,8.035795599999801,None,0,1,1,1,,,,,1,0,8,7,419.11413070000026,,,,,,,,,,,,,,,,,,,,,419.0986630000002,419.11413070000026,419.59740920000013,419.60199850000026,419.6170459,420.09764780000023,,,,,420.0978223000002,420.11353959999997,420.3135553000002,420.29698129999997,419.6170459,,,,,,,,0,1,0.46638460000031046,None,,,,,,,,887,22,V,L,2026-02-25_11h51.39.954,VisualSearch_2526_3,,2025.2.4,2026-02-25 11h51.40.164143 +0100,
vertical.xlsx,The target is tilted.,135,9,1,1,1,1,1,1,0,0,0,0,0,0,0,0,0,3,4,135,space,5.756753799999842,None,1,1,0.6691800000003241,None,space,8.035795599999801,None,0,1,1,1,,,,,1,1,9,2,420.3135553000002,,,,,,,,,,,,,,,,,,,,,420.2974884,420.3135553000002,420.7970226000002,420.80120560000023,420.8131820000003,421.49649450000015,,,,,421.49660170000016,421.5125776,421.7129325000001,421.6968450000004,420.8131820000003,,,,,,,,1,1,0.6691800000003241,None,,,,,,,,887,22,V,L,2026-02-25_11h51.39.954,VisualSearch_2526_3,,2025.2.4,2026-02-25 11h51.40.164143 +0100,
vertical.xlsx,The target is tilted.,135,10,2,1,1,0,0,0,0,0,0,0,0,0,0,0,0,0,1,135,space,5.756753799999842,None,1,1,0.6092505000001438,None,space,8.035795599999801,None,0,1,1,1,,,,,1,2,10,3,421.7129325000001,,,,,,,,,,,,,,,,,,,,,421.6976400000003,421.7129325000001,422.1964893000004,422.2010464,422.2158105000003,422.8292233000002,,,,,422.82930860000033,422.8452325000003,423.04558450000013,423.0294869000004,422.2158105000003,,,,,,,,1,1,0.6092505000001438,None,,,,,,,,887,22,V,L,2026-02-25_11h51.39.954,VisualSearch_2526_3,,2025.2.4,2026-02-25 11h51.40.164143 +0100,
vertical.xlsx,The target is tilted.,135,11,3,1,0,1,1,1,0,0,0,0,0,0,0,0,1,3,4,135,space,5.756753799999842,None,0,1,0.7023613999999725,None,space,8.035795599999801,None,0,1,1,1,,,,,1,3,11,6,423.04558450000013,,,,,,,,,,,,,,,,,,,,,423.03023110000004,423.04558450000013,423.52938250000034,423.5339547000003,423.5485732000002,424.2629121,,,,,424.263105,424.2781793000004,424.4783348000001,424.4621866000002,423.5485732000002,,,,,,,,0,1,0.7023613999999725,None,,,,,,,,887,22,V,L,2026-02-25_11h51.39.954,VisualSearch_2526_3,,2025.2.4,2026-02-25 11h51.40.164143 +0100,
vertical.xlsx,The target is tilted.,135,12,4,1,0,1,1,1,1,1,1,1,0,0,0,0,1,7,8,135,space,5.756753799999842,None,0,1,0.867214100000183,None,space,8.035795599999801,None,0,1,1,1,,,,,1,4,12,5,424.4783348000001,,,,,,,,,,,,,,,,,,,,,424.46290720000025,424.4783348000001,424.96199509999997,424.96648730000015,424.98202820000006,425.86160400000017,,,,,425.86177780000025,425.87738790000003,426.07762530000036,426.06145960000003,424.98202820000006,,,,,,,,0,1,0.867214100000183,None,,,,,,,,887,22,V,L,2026-02-25_11h51.39.954,VisualSearch_2526_3,,2025.2.4,2026-02-25 11h51.40.164143 +0100,
vertical.xlsx,The target is tilted.,135,13,5,1,1,1,1,1,1,1,1,1,0,0,0,0,0,7,8,135,space,5.756753799999842,None,1,1,0.8802370000003066,None,space,8.035795599999801,None,0,1,1,1,,,,,1,5,13,1,426.07762530000036,,,,,,,,,,,,,,,,,,,,,426.0622295000003,426.07762530000036,426.5612804000002,426.56577860000016,426.57916730000034,427.46084910000036,,,,,427.4609816000002,427.4766187,427.6765580000001,427.66057820000015,426.57916730000034,,,,,,,,1,1,0.8802370000003066,None,,,,,,,,887,22,V,L,2026-02-25_11h51.39.954,VisualSearch_2526_3,,2025.2.4,2026-02-25 11h51.40.164143 +0100,
vertical.xlsx,The target is tilted.,135,14,6,1,0,1,1,1,1,1,1,1,1,1,1,1,1,11,12,135,space,5.756753799999842,None,0,1,1.3970777999998063,None,space,8.035795599999801,None,0,1,1,1,,,,,1,6,14,4,427.6765580000001,,,,,,,,,,,,,,,,,,,,,427.66136110000025,427.6765580000001,428.1605617,428.16533210000034,428.18017640000016,429.5933997000002,,,,,429.5935464000004,429.6093066000003,429.8092464000001,429.7931547000003,428.18017640000016,,,,,,,,0,1,1.3970777999998063,None,,,,,,,,887,22,V,L,2026-02-25_11h51.39.954,VisualSearch_2526_3,,2025.2.4,2026-02-25 11h51.40.164143 +0100,
vertical.xlsx,The target is tilted.,135,15,7,1,1,1,1,1,1,1,1,1,1,1,1,1,0,11,12,135,space,5.756753799999842,None,1,1,2.211053699999866,None,space,8.035795599999801,None,0,1,1,1,,,,,1,7,15,0,429.8092464000001,,,,,,,,,,,,,,,,,,,,,429.79385850000017,429.8092464000001,430.29301380000015,430.29750620000004,430.3129350000004,432.5255080000002,,,,,432.5257026000004,432.5409479,432.74096099999997,432.7249856000003,430.3129350000004,,,,,,,,1,1,2.211053699999866,None,,,,,,,,887,22,V,L,2026-02-25_11h51.39.954,VisualSearch_2526_3,,2025.2.4,2026-02-25 11h51.40.164143 +0100,
vertical.xlsx,The target is tilted.,135,16,0,2,0,0,0,0,0,0,0,0,0,0,0,0,1,1,1,135,space,5.756753799999842,None,0,1,0.7470361000000594,None,space,8.035795599999801,None,0,1,1,1,,,,,2,0,16,7,432.74096099999997,,,,,,,,,,,,,,,,,,,,,432.72573869999997,432.74096099999997,433.22487290000026,433.2294160000001,433.24512030000005,434.00813910000034,,,,,434.0083002000001,434.02372190000006,434.2239906,434.20776490000026,433.24512030000005,,,,,,,,0,1,0.7470361000000594,None,,,,,,,,887,22,V,L,2026-02-25_11h51.39.954,VisualSearch_2526_3,,2025.2.4,2026-02-25 11h51.40.164143 +0100,
vertical.xlsx,The target is tilted.,135,17,1,2,1,1,1,1,1,1,1,1,0,0,0,0,0,7,8,135,space,5.756753799999842,None,1,1,0.8837389999998777,None,space,8.035795599999801,None,0,1,1,1,,,,,2,1,17,1,434.2239906,,,,,,,,,,,,,,,,,,,,,434.2085287,434.2239906,434.7074768000002,434.71204490000036,434.7280455,435.62406610000016,,,,,435.62420280000015,435.63984819999996,435.83987879999995,435.82380660000035,434.7280455,,,,,,,,1,1,0.8837389999998777,None,,,,,,,,887,22,V,L,2026-02-25_11h51.39.954,VisualSearch_2526_3,,2025.2.4,2026-02-25 11h51.40.164143 +0100,
vertical.xlsx,The target is tilted.,135,18,2,2,0,1,1,1,1,1,1,1,1,1,1,1,1,11,12,135,space,5.756753799999842,None,0,1,1.8647656999996798,None,space,8.035795599999801,None,0,1,1,1,,,,,2,2,18,4,435.83987879999995,,,,,,,,,,,,,,,,,,,,,435.82456560000037,435.83987879999995,436.32343420000007,436.3278932000003,436.3428630000003,438.22304680000025,,,,,438.2232237000003,438.2386540000002,438.4386574,438.4224600000002,436.3428630000003,,,,,,,,0,1,1.8647656999996798,None,,,,,,,,887,22,V,L,2026-02-25_11h51.39.954,VisualSearch_2526_3,,2025.2.4,2026-02-25 11h51.40.164143 +0100,
vertical.xlsx,The target is tilted.,135,19,3,2,1,1,1,1,0,0,0,0,0,0,0,0,0,3,4,135,space,5.756753799999842,None,1,1,0.8303090999997949,None,space,8.035795599999801,None,0,1,1,1,,,,,2,3,19,2,438.4386574,,,,,,,,,,,,,,,,,,,,,438.4232320000001,438.4386574,438.9222814,438.9267649000003,438.94255250000015,439.78911430000016,,,,,439.7893094000001,439.8044850000001,440.0042476000003,439.988511,438.94255250000015,,,,,,,,1,1,0.8303090999997949,None,,,,,,,,887,22,V,L,2026-02-25_11h51.39.954,VisualSearch_2526_3,,2025.2.4,2026-02-25 11h51.40.164143 +0100,
vertical.xlsx,The target is tilted.,135,20,4,2,1,1,1,1,1,1,1,1,1,1,1,1,0,11,12,135,space,5.756753799999842,None,1,1,1.9506673999999293,None,space,8.035795599999801,None,0,1,1,1,,,,,2,4,20,0,440.0042476000003,,,,,,,,,,,,,,,,,,,,,439.98926710000023,440.0042476000003,440.48808180000015,440.49260140000024,440.5059818,442.47111280000036,,,,,442.4712909,442.48677990000033,442.68662940000013,442.6701148000002,440.5059818,,,,,,,,1,1,1.9506673999999293,None,,,,,,,,887,22,V,L,2026-02-25_11h51.39.954,VisualSearch_2526_3,,2025.2.4,2026-02-25 11h51.40.164143 +0100,
vertical.xlsx,The target is tilted.,135,21,5,2,1,0,0,0,0,0,0,0,0,0,0,0,0,0,1,135,space,5.756753799999842,None,1,1,0.6979154999999082,None,space,8.035795599999801,None,0,1,1,1,,,,,2,5,21,3,442.68662940000013,,,,,,,,,,,,,,,,,,,,,442.6708775000002,442.68662940000013,443.1706177000001,443.1757670000002,443.19084040000007,443.90359000000035,,,,,443.90372750000006,443.9193586000001,444.11937000000034,444.1033070000003,443.19084040000007,,,,,,,,1,1,0.6979154999999082,None,,,,,,,,887,22,V,L,2026-02-25_11h51.39.954,VisualSearch_2526_3,,2025.2.4,2026-02-25 11h51.40.164143 +0100,
vertical.xlsx,The target is tilted.,135,22,6,2,0,1,1,1,1,1,1,1,0,0,0,0,1,7,8,135,space,5.756753799999842,None,0,1,1.5596953999997822,None,space,8.035795599999801,None,0,1,1,1,,,,,2,6,22,5,444.11937000000034,,,,,,,,,,,,,,,,,,,,,444.10415580000017,444.11937000000034,444.60296050000034,444.6074676000003,444.6216695000003,446.1856555000004,,,,,446.1858311000001,446.2016983000003,446.4012987000001,446.3851174000001,444.6216695000003,,,,,,,,0,1,1.5596953999997822,None,,,,,,,,887,22,V,L,2026-02-25_11h51.39.954,VisualSearch_2526_3,,2025.2.4,2026-02-25 11h51.40.164143 +0100,
vertical.xlsx,The target is tilted.,135,23,7,2,0,1,1,1,0,0,0,0,0,0,0,0,1,3,4,135,space,5.756753799999842,None,0,1,0.7869023999996898,None,space,8.035795599999801,None,0,1,1,1,,,,,2,7,23,6,446.4012987000001,,,,,,,,,,,,,,,,,,,,,446.3858819000002,446.4012987000001,446.8848376000001,446.8893389,446.9048954,447.7022697000002,,,,,447.70249980000017,447.7173721000004,447.91774920000034,447.90172770000027,446.9048954,,,,,,,,0,1,0.7869023999996898,None,,,,,,,,887,22,V,L,2026-02-25_11h51.39.954,VisualSearch_2526_3,,2025.2.4,2026-02-25 11h51.40.164143 +0100,
vertical.xlsx,The target is tilted.,135,24,0,3,1,1,1,1,1,1,1,1,0,0,0,0,0,7,8,135,space,5.756753799999842,None,0,0,1.8303826999999728,None,space,8.035795599999801,None,0,1,1,1,,,,,3,0,24,1,447.91774920000034,,,,,,,,,,,,,,,,,,,,,447.90244970000003,447.91774920000034,448.4010089000003,448.40558610000016,448.4201592000004,450.2676123000001,,,,,450.26780880000024,450.2829469000003,450.48325250000016,450.46699990000025,448.4201592000004,,,,,,,,0,0,1.8303826999999728,None,,,,,,,,887,22,V,L,2026-02-25_11h51.39.954,VisualSearch_2526_3,,2025.2.4,2026-02-25 11h51.40.164143 +0100,
vertical.xlsx,The target is tilted.,135,25,1,3,0,1,1,1,1,1,1,1,0,0,0,0,1,7,8,135,space,5.756753799999842,None,0,1,1.701101799999833,None,space,8.035795599999801,None,0,1,1,1,,,,,3,1,25,5,450.48325250000016,,,,,,,,,,,,,,,,,,,,,450.4677759000001,450.48325250000016,450.9668002000003,450.97127160000036,450.9874755000001,452.69996790000005,,,,,452.7001626000001,452.71536830000014,452.91508250000015,452.898874,450.9874755000001,,,,,,,,0,1,1.701101799999833,None,,,,,,,,887,22,V,L,2026-02-25_11h51.39.954,VisualSearch_2526_3,,2025.2.4,2026-02-25 11h51.40.164143 +0100,
vertical.xlsx,The target is tilted.,135,26,2,3,0,1,1,1,1,1,1,1,1,1,1,1,1,11,12,135,space,5.756753799999842,None,0,1,1.6701289000002362,None,space,8.035795599999801,None,0,1,1,1,,,,,3,2,26,4,452.91508250000015,,,,,,,,,,,,,,,,,,,,,452.89962830000013,452.91508250000015,453.3990133000002,453.40356390000034,453.41847670000016,455.0981763,,,,,455.09831380000014,455.1140575000004,455.3140110000004,455.29779670000016,453.41847670000016,,,,,,,,0,1,1.6701289000002362,None,,,,,,,,887,22,V,L,2026-02-25_11h51.39.954,VisualSearch_2526_3,,2025.2.4,2026-02-25 11h51.40.164143 +0100,
vertical.xlsx,The target is tilted.,135,27,3,3,0,1,1,1,0,0,0,0,0,0,0,0,1,3,4,135,space,5.756753799999842,None,0,1,1.0559168999998292,None,space,8.035795599999801,None,0,1,1,1,,,,,3,3,27,6,455.3140110000004,,,,,,,,,,,,,,,,,,,,,455.29856310000014,455.3140110000004,455.7980314000001,455.8027239000003,455.8171579,456.8806314000003,,,,,456.88074010000037,456.89669840000033,457.09684300000026,457.08074639999995,455.8171579,,,,,,,,0,1,1.0559168999998292,None,,,,,,,,887,22,V,L,2026-02-25_11h51.39.954,VisualSearch_2526_3,,2025.2.4,2026-02-25 11h51.40.164143 +0100,
vertical.xlsx,The target is tilted.,135,28,4,3,1,0,0,0,0,0,0,0,0,0,0,0,0,0,1,135,space,5.756753799999842,None,1,1,0.6746726999999737,None,space,8.035795599999801,None,0,1,1,1,,,,,3,4,28,3,457.09684300000026,,,,,,,,,,,,,,,,,,,,,457.08148500000016,457.09684300000026,457.5800127000002,457.58452290000014,457.60164280000026,458.28049770000007,,,,,458.2806934,458.29586670000026,458.4960748000003,458.4796817000001,457.60164280000026,,,,,,,,1,1,0.6746726999999737,None,,,,,,,,887,22,V,L,2026-02-25_11h51.39.954,VisualSearch_2526_3,,2025.2.4,2026-02-25 11h51.40.164143 +0100,
vertical.xlsx,The target is tilted.,135,29,5,3,1,1,1,1,1,1,1,1,1,1,1,1,0,11,12,135,space,5.756753799999842,None,1,1,1.4303307000000132,None,space,8.035795599999801,None,0,1,1,1,,,,,3,5,29,0,458.4960748000003,,,,,,,,,,,,,,,,,,,,,458.4804459000002,458.4960748000003,458.97951260000036,458.9840734000004,458.99862950000033,460.44522350000034,,,,,460.4453010000002,460.4617194000002,,460.6455271,458.99862950000033,,,,,,,,1,1,1.4303307000000132,None,,,,,,,,887,22,V,L,2026-02-25_11h51.39.954,VisualSearch_2526_3,,2025.2.4,2026-02-25 11h51.40.164143 +0100,
vertical.xlsx,The target is tilted.,135,30,6,3,1,1,1,1,0,0,0,0,0,0,0,0,0,3,4,135,space,5.756753799999842,None,1,1,0.8739832999999635,None,space,8.035795599999801,None,0,1,1,1,,,,,3,6,30,2,460.6619429000002,,,,,,,,,,,,,,,,,,,,,460.6463272000001,460.6619429000002,461.1451675000003,461.1498051000003,461.1640827000001,462.04486480000014,,,,,462.0450022,462.06123720000005,462.2610909,462.2448032000002,461.1640827000001,,,,,,,,1,1,0.8739832999999635,None,,,,,,,,887,22,V,L,2026-02-25_11h51.39.954,VisualSearch_2526_3,,2025.2.4,2026-02-25 11h51.40.164143 +0100,
vertical.xlsx,The target is tilted.,135,31,7,3,0,0,0,0,0,0,0,0,0,0,0,0,1,1,1,135,space,5.756753799999842,None,0,1,0.7089081999997688,None,space,8.035795599999801,None,0,1,1,1,,,,,3,7,31,7,462.2610909,,,,,,,,,,,,,,,,,,,,,462.24553749999995,462.2610909,462.7444357000004,462.74892230000023,462.7633958000001,463.47797830000036,,,,,463.4781131,463.4937970000001,463.6938494000001,463.6776625000002,462.7633958000001,,,,,,,,0,1,0.7089081999997688,None,,,,,,,,887,22,V,L,2026-02-25_11h51.39.954,VisualSearch_2526_3,,2025.2.4,2026-02-25 11h51.40.164143 +0100,
vertical.xlsx,The target is tilted.,135,32,0,4,0,0,0,0,0,0,0,0,0,0,0,0,1,1,1,135,space,5.756753799999842,None,0,1,0.6436818000001949,None,space,8.035795599999801,None,0,1,1,1,,,,,4,0,32,7,463.6938494000001,,,,,,,,,,,,,,,,,,,,,463.6783604000002,463.6938494000001,464.1774540000001,464.1820666000003,464.19694340000024,464.8438096,,,,,464.8439857000003,464.8594382000001,465.0594725000001,465.04372710000007,464.19694340000024,,,,,,,,0,1,0.6436818000001949,None,,,,,,,,887,22,V,L,2026-02-25_11h51.39.954,VisualSearch_2526_3,,2025.2.4,2026-02-25 11h51.40.164143 +0100,
vertical.xlsx,The target is tilted.,135,33,1,4,0,1,1,1,0,0,0,0,0,0,0,0,1,3,4,135,space,5.756753799999842,None,0,1,0.7802831999997579,None,space,8.035795599999801,None,0,1,1,1,,,,,4,1,33,6,465.0594725000001,,,,,,,,,,,,,,,,,,,,,465.04445160000023,465.0594725000001,465.54375240000036,465.54820770000015,465.5632863000001,466.36011940000026,,,,,466.3602791000003,466.3759177000002,466.5757913000002,466.5597356000003,465.5632863000001,,,,,,,,0,1,0.7802831999997579,None,,,,,,,,887,22,V,L,2026-02-25_11h51.39.954,VisualSearch_2526_3,,2025.2.4,2026-02-25 11h51.40.164143 +0100,
vertical.xlsx,The target is tilted.,135,34,2,4,1,0,0,0,0,0,0,0,0,0,0,0,0,0,1,135,space,5.756753799999842,None,1,1,0.41650399999980436,None,space,8.035795599999801,None,0,1,1,1,,,,,4,2,34,3,466.5757913000002,,,,,,,,,,,,,,,,,,,,,466.5604669000004,466.5757913000002,467.0595290000001,467.0640635,467.0789477000003,467.5096245,,,,,467.50976089999995,467.5252354000004,467.7248614,467.70881350000036,467.0789477000003,,,,,,,,1,1,0.41650399999980436,None,,,,,,,,887,22,V,L,2026-02-25_11h51.39.954,VisualSearch_2526_3,,2025.2.4,2026-02-25 11h51.40.164143 +0100,
