file_name,block_instructions,target_example,thisN,thisTrialN,thisRepN,target_presence,opacity_1,opacity_2,opacity_3,opacity_4,opacity_5,opacity_6,opacity_7,opacity_8,opacity_9,opacity_10,opacity_11,opacity_12,n_distract,n_items,target_ori,key_resp_4.keys,key_resp_4.rt,key_resp_4.duration,key_resp.keys,key_resp.corr,key_resp.rt,key_resp.duration,key_resp_5.keys,key_resp_5.rt,key_resp_5.duration,blocks.thisRepN,blocks.thisTrialN,blocks.thisN,blocks.thisIndex,practice_trials.thisRepN,practice_trials.thisTrialN,practice_trials.thisN,practice_trials.thisIndex,trials.thisRepN,trials.thisTrialN,trials.thisN,trials.thisIndex,thisRow.t,notes,Welcome.started,WelcomeText.started,key_resp_2.started,Welcome.stopped,key_resp_2.keys,key_resp_2.rt,key_resp_2.duration,InformedConsent.started,text_4.started,InformedConsent.stopped,key_resp_6.keys,key_resp_6.rt,key_resp_6.duration,key_resp_4.started,example_target.started,text_3.started,blocks.key_resp_4.keys,blocks.key_resp_4.rt,blocks.key_resp_4.duration,FixCross.started,fixCross.started,FixCross.stopped,Stimulus.started,key_resp.started,Stimulus.stopped,practice_trials.key_resp.keys,practice_trials.key_resp.corr,practice_trials.key_resp.rt,practice_trials.key_resp.duration,BlankScreen.started,text.started,text.stopped,BlankScreen.stopped,fixCross.stopped,ExperimentStart.started,text_2.started,key_resp_5.started,ExperimentStart.stopped,blocks.key_resp_5.keys,blocks.key_resp_5.rt,blocks.key_resp_5.duration,trials.key_resp.keys,trials.key_resp.corr,trials.key_resp.rt,trials.key_resp.duration,Thanks.started,ThankYou.started,key_resp_3.started,Thanks.stopped,key_resp_3.keys,key_resp_3.rt,key_resp_3.duration,participant,leeftijd,gender,links/rechtshandig,date,expName,expVersion,psychopyVersion,expStart,
,,,,,,,,,,,,,,,,,,,,,,,,,,,,,,,,,,,,,,,,,,,,,,0.015317299999878742,0.026169900000240887,0.026169900000240887,21.234759799999665,space,21.185129999999845,None,,,,,,,,,,,,,,,,,,,,,,,,,,,,,,,,,,,,,,,,,,,,,,887,21,M,R,2026-02-18_12h38.42.947,VisualSearch_2526_3,,2025.2.4,2026-02-18 12h38.43.140249 +0100,
,,,,,,,,,,,,,,,,,,,,,,,,,,,,,,,,,,,,,,,,,,,,,,,,,,,,,21.234835600000224,21.240416900000127,26.33594119999998,y,5.0866989999994985,None,,,,,,,,,,,,,,,,,,,,,,,,,,,,,,,,,,,,,,,,887,21,M,R,2026-02-18_12h38.42.947,VisualSearch_2526_3,,2025.2.4,2026-02-18 12h38.43.140249 +0100,
vertical.xlsx,The target is tilted.,135,0,0,0,0,1,1,1,0,0,0,0,0,0,0,0,1,3,4,135,space,5.083703199999945,None,0,1,0.8449338000000353,None,,,,0,0,0,1,0,0,0,6,,,,,31.490920899999765,,,,,,,,,,,,,,,26.373438599999645,26.373438599999645,26.373438599999645,space,5.083703199999945,None,31.486079100000097,31.490920899999765,31.982760900000358,31.9881648999999,31.998971600000004,32.84972319999997,0,1,0.8449338000000353,None,32.84991230000014,32.86538780000046,33.065301999999974,33.04907949999961,,,,,,,,,,,,,,,,,,,,887,21,M,R,2026-02-18_12h38.42.947,VisualSearch_2526_3,,2025.2.4,2026-02-18 12h38.43.140249 +0100,
vertical.xlsx,The target is tilted.,135,1,1,0,0,1,1,1,1,1,1,1,0,0,0,0,1,7,8,135,space,5.083703199999945,None,0,1,0.7288450000005469,None,,,,0,0,0,1,0,1,1,5,,,,,33.065301999999974,,,,,,,,,,,,,,,,,,,,,33.04978480000045,33.065301999999974,33.54875960000027,33.55363380000017,33.567122200000085,34.2991849,0,1,0.7288450000005469,None,34.29937249999966,34.31479690000015,34.51461569999992,34.498277300000154,33.567122200000085,,,,,,,,,,,,,,,,,,,887,21,M,R,2026-02-18_12h38.42.947,VisualSearch_2526_3,,2025.2.4,2026-02-18 12h38.43.140249 +0100,
vertical.xlsx,The target is tilted.,135,2,2,0,1,1,1,1,0,0,0,0,0,0,0,0,0,3,4,135,space,5.083703199999945,None,1,1,0.7526417999997648,None,,,,0,0,0,1,0,2,2,2,,,,,34.51461569999992,,,,,,,,,,,,,,,,,,,,,34.49897839999994,34.51461569999992,34.99808570000005,35.00293940000029,35.016987099999824,35.78031050000027,1,1,0.7526417999997648,None,35.78040990000045,35.79645309999978,35.99637540000003,35.97990149999987,35.016987099999824,,,,,,,,,,,,,,,,,,,887,21,M,R,2026-02-18_12h38.42.947,VisualSearch_2526_3,,2025.2.4,2026-02-18 12h38.43.140249 +0100,
vertical.xlsx,The target is tilted.,135,3,3,0,0,0,0,0,0,0,0,0,0,0,0,0,1,1,1,135,space,5.083703199999945,None,0,1,0.5399487999993653,None,,,,0,0,0,1,0,3,3,7,,,,,35.99637540000003,,,,,,,,,,,,,,,,,,,,,35.98017989999971,35.99637540000003,36.47987869999997,36.482194700000036,36.496345000000474,37.04714539999986,0,1,0.5399487999993653,None,37.047267199999624,37.062900799999625,37.26352450000013,37.24700320000011,36.496345000000474,,,,,,,,,,,,,,,,,,,887,21,M,R,2026-02-18_12h38.42.947,VisualSearch_2526_3,,2025.2.4,2026-02-18 12h38.43.140249 +0100,
vertical.xlsx,The target is tilted.,135,4,4,0,1,0,0,0,0,0,0,0,0,0,0,0,0,0,1,135,space,5.083703199999945,None,1,1,0.5819400999998834,None,,,,0,0,0,1,0,4,4,3,,,,,37.26352450000013,,,,,,,,,,,,,,,,,,,,,37.247773199999756,37.26352450000013,37.747157900000275,37.7526740000003,37.7671534000001,38.362824300000284,1,1,0.5819400999998834,None,38.36294689999977,38.379007399999864,,38.563151299999845,37.7671534000001,,,,,,,,,,,,,,,,,,,887,21,M,R,2026-02-18_12h38.42.947,VisualSearch_2526_3,,2025.2.4,2026-02-18 12h38.43.140249 +0100,
vertical.xlsx,The target is tilted.,135,5,5,0,1,1,1,1,1,1,1,1,1,1,1,1,0,11,12,135,space,5.083703199999945,None,1,1,0.7074491000003036,None,,,,0,0,0,1,0,5,5,0,,,,,38.579463099999884,,,,,,,,,,,,,,,,,,,,,38.56403450000016,38.579463099999884,39.06307310000011,39.067976199999976,39.08419250000043,39.7960879000002,1,1,0.7074491000003036,None,39.79620890000024,39.811608900000465,40.012053399999786,39.995870300000206,39.08419250000043,,,,,,,,,,,,,,,,,,,887,21,M,R,2026-02-18_12h38.42.947,VisualSearch_2526_3,,2025.2.4,2026-02-18 12h38.43.140249 +0100,
vertical.xlsx,The target is tilted.,135,6,6,0,0,1,1,1,1,1,1,1,1,1,1,1,1,11,12,135,space,5.083703199999945,None,0,1,0.8485888000004707,None,,,,0,0,0,1,0,6,6,4,,,,,40.012053399999786,,,,,,,,,,,,,,,,,,,,,39.99657130000014,40.012053399999786,40.495796000000155,40.50066760000027,40.51663189999999,41.37777970000025,0,1,0.8485888000004707,None,41.37788790000013,41.39462900000035,,41.57825109999976,40.51663189999999,,,,,,,,,,,,,,,,,,,887,21,M,R,2026-02-18_12h38.42.947,VisualSearch_2526_3,,2025.2.4,2026-02-18 12h38.43.140249 +0100,
vertical.xlsx,The target is tilted.,135,7,7,0,1,1,1,1,1,1,1,1,0,0,0,0,0,7,8,135,space,5.083703199999945,None,0,0,1.0031662999999753,None,,,,0,0,0,1,0,7,7,1,,,,,41.594767200000206,,,,,,,,,,,,,,,,,,,,,41.579036400000405,41.594767200000206,42.07804329999999,42.08286140000018,42.09433389999958,43.11126440000044,0,0,1.0031662999999753,None,43.11145380000016,43.126806000000215,43.326993100000436,43.311125500000344,,,,,,,,,,,,,,,,,,,,887,21,M,R,2026-02-18_12h38.42.947,VisualSearch_2526_3,,2025.2.4,2026-02-18 12h38.43.140249 +0100,
vertical.xlsx,The target is tilted.,135,0,0,0,0,1,1,1,1,1,1,1,0,0,0,0,1,7,8,135,space,5.083703199999945,None,0,1,0.8068930999997974,None,space,1.9508240000004662,None,0,0,0,1,,,,,0,0,0,5,45.321747900000446,,,,,,,,,,,,,,,,,,,,,45.318162599999596,45.321747900000446,45.80972060000022,45.81464159999996,45.828281799999786,46.64353510000001,,,,,46.64373460000024,46.65850560000035,46.858954500000436,46.84253799999988,,43.31810719999976,43.326993100000436,43.326993100000436,45.29329570000027,space,1.9508240000004662,None,0,1,0.8068930999997974,None,,,,,,,,887,21,M,R,2026-02-18_12h38.42.947,VisualSearch_2526_3,,2025.2.4,2026-02-18 12h38.43.140249 +0100,
vertical.xlsx,The target is tilted.,135,1,1,0,0,1,1,1,0,0,0,0,0,0,0,0,1,3,4,135,space,5.083703199999945,None,0,1,0.5978132999998707,None,space,1.9508240000004662,None,0,0,0,1,,,,,0,1,1,6,46.858954500000436,,,,,,,,,,,,,,,,,,,,,46.84328639999967,46.858954500000436,47.34263689999989,47.34755909999967,47.36282250000022,47.9754911,,,,,47.975669299999936,47.99124959999972,48.19174639999983,48.175624999999854,47.36282250000022,,,,,,,,0,1,0.5978132999998707,None,,,,,,,,887,21,M,R,2026-02-18_12h38.42.947,VisualSearch_2526_3,,2025.2.4,2026-02-18 12h38.43.140249 +0100,
vertical.xlsx,The target is tilted.,135,2,2,0,1,1,1,1,0,0,0,0,0,0,0,0,0,3,4,135,space,5.083703199999945,None,1,1,0.4679342999997971,None,space,1.9508240000004662,None,0,0,0,1,,,,,0,2,2,2,48.19174639999983,,,,,,,,,,,,,,,,,,,,,48.17641290000029,48.19174639999983,48.67527750000045,48.680162100000416,48.69424009999966,49.17467360000046,,,,,49.174815299999864,49.19069049999962,49.3912320999998,49.37504900000022,48.69424009999966,,,,,,,,1,1,0.4679342999997971,None,,,,,,,,887,21,M,R,2026-02-18_12h38.42.947,VisualSearch_2526_3,,2025.2.4,2026-02-18 12h38.43.140249 +0100,
vertical.xlsx,The target is tilted.,135,3,3,0,0,1,1,1,1,1,1,1,1,1,1,1,1,11,12,135,space,5.083703199999945,None,0,1,0.8837536999999429,None,space,1.9508240000004662,None,0,0,0,1,,,,,0,3,3,4,49.3912320999998,,,,,,,,,,,,,,,,,,,,,49.37581010000031,49.3912320999998,49.874435699999594,49.87928160000047,49.893775800000185,50.79082449999987,,,,,50.790961400000015,50.80650109999988,51.00704070000029,50.99093410000023,49.893775800000185,,,,,,,,0,1,0.8837536999999429,None,,,,,,,,887,21,M,R,2026-02-18_12h38.42.947,VisualSearch_2526_3,,2025.2.4,2026-02-18 12h38.43.140249 +0100,
vertical.xlsx,The target is tilted.,135,4,4,0,1,1,1,1,1,1,1,1,0,0,0,0,0,7,8,135,space,5.083703199999945,None,1,1,0.9061102000005121,None,space,1.9508240000004662,None,0,0,0,1,,,,,0,4,4,1,51.00704070000029,,,,,,,,,,,,,,,,,,,,,50.991729999999734,51.00704070000029,51.490781499999684,51.49572509999962,51.511409300000196,52.42415020000044,,,,,52.42434870000034,52.4392484,52.63972420000027,52.62359480000032,51.511409300000196,,,,,,,,1,1,0.9061102000005121,None,,,,,,,,887,21,M,R,2026-02-18_12h38.42.947,VisualSearch_2526_3,,2025.2.4,2026-02-18 12h38.43.140249 +0100,
vertical.xlsx,The target is tilted.,135,5,5,0,1,0,0,0,0,0,0,0,0,0,0,0,0,0,1,135,space,5.083703199999945,None,1,1,0.4742930000002161,None,space,1.9508240000004662,None,0,0,0,1,,,,,0,5,5,3,52.63972420000027,,,,,,,,,,,,,,,,,,,,,52.624346599999626,52.63972420000027,53.123259699999835,53.12817079999968,53.14266450000014,53.62364239999988,,,,,53.623842400000285,53.638626799999656,53.83908489999976,53.823066500000095,53.14266450000014,,,,,,,,1,1,0.4742930000002161,None,,,,,,,,887,21,M,R,2026-02-18_12h38.42.947,VisualSearch_2526_3,,2025.2.4,2026-02-18 12h38.43.140249 +0100,
vertical.xlsx,The target is tilted.,135,6,6,0,1,1,1,1,1,1,1,1,1,1,1,1,0,11,12,135,space,5.083703199999945,None,1,1,0.9380684999996447,None,space,1.9508240000004662,None,0,0,0,1,,,,,0,6,6,0,53.83908489999976,,,,,,,,,,,,,,,,,,,,,53.823781600000075,53.83908489999976,54.32287220000035,54.32810859999972,54.344190300000264,55.28958020000027,,,,,55.289780600000086,55.30450999999994,55.50480630000038,55.48887569999988,54.344190300000264,,,,,,,,1,1,0.9380684999996447,None,,,,,,,,887,21,M,R,2026-02-18_12h38.42.947,VisualSearch_2526_3,,2025.2.4,2026-02-18 12h38.43.140249 +0100,
vertical.xlsx,The target is tilted.,135,7,7,0,0,0,0,0,0,0,0,0,0,0,0,0,1,1,1,135,space,5.083703199999945,None,0,1,0.48846340000000055,None,space,1.9508240000004662,None,0,0,0,1,,,,,0,7,7,7,55.50480630000038,,,,,,,,,,,,,,,,,,,,,55.489616800000476,55.50480630000038,55.98865469999964,55.99363259999973,56.007659500000045,56.50569489999998,,,,,56.50589149999996,56.52067420000003,56.721025499999996,56.704659199999696,56.007659500000045,,,,,,,,0,1,0.48846340000000055,None,,,,,,,,887,21,M,R,2026-02-18_12h38.42.947,VisualSearch_2526_3,,2025.2.4,2026-02-18 12h38.43.140249 +0100,
vertical.xlsx,The target is tilted.,135,8,0,1,1,1,1,1,0,0,0,0,0,0,0,0,0,3,4,135,space,5.083703199999945,None,1,1,0.6815168000002814,None,space,1.9508240000004662,None,0,0,0,1,,,,,1,0,8,2,56.721025499999996,,,,,,,,,,,,,,,,,,,,,56.70539579999968,56.721025499999996,57.204897300000084,57.20972619999975,57.225162900000214,57.92107060000035,,,,,57.92127640000035,57.93672969999989,58.13723610000034,58.121282500000234,57.225162900000214,,,,,,,,1,1,0.6815168000002814,None,,,,,,,,887,21,M,R,2026-02-18_12h38.42.947,VisualSearch_2526_3,,2025.2.4,2026-02-18 12h38.43.140249 +0100,
vertical.xlsx,The target is tilted.,135,9,1,1,0,1,1,1,1,1,1,1,1,1,1,1,1,11,12,135,space,5.083703199999945,None,0,1,1.0827705000001515,None,space,1.9508240000004662,None,0,0,0,1,,,,,1,1,9,4,58.13723610000034,,,,,,,,,,,,,,,,,,,,,58.12209030000031,58.13723610000034,58.62045670000043,58.62512030000016,58.63680380000005,59.72083860000021,,,,,59.72104810000019,59.73580010000023,59.93592290000015,59.9202621000004,58.63680380000005,,,,,,,,0,1,1.0827705000001515,None,,,,,,,,887,21,M,R,2026-02-18_12h38.42.947,VisualSearch_2526_3,,2025.2.4,2026-02-18 12h38.43.140249 +0100,
vertical.xlsx,The target is tilted.,135,10,2,1,1,1,1,1,1,1,1,1,0,0,0,0,0,7,8,135,space,5.083703199999945,None,1,1,0.9890623999999661,None,space,1.9508240000004662,None,0,0,0,1,,,,,1,2,10,1,59.93592290000015,,,,,,,,,,,,,,,,,,,,,59.920988699999725,59.93592290000015,60.42001919999984,60.42493540000032,60.44060580000041,61.436332199999924,,,,,61.43647150000015,61.451730200000384,61.652221199999985,61.636142800000016,60.44060580000041,,,,,,,,1,1,0.9890623999999661,None,,,,,,,,887,21,M,R,2026-02-18_12h38.42.947,VisualSearch_2526_3,,2025.2.4,2026-02-18 12h38.43.140249 +0100,
vertical.xlsx,The target is tilted.,135,11,3,1,0,1,1,1,0,0,0,0,0,0,0,0,1,3,4,135,space,5.083703199999945,None,0,1,0.7469718000002104,None,space,1.9508240000004662,None,0,0,0,1,,,,,1,3,11,6,61.652221199999985,,,,,,,,,,,,,,,,,,,,,61.63688910000019,61.652221199999985,62.13562189999993,62.1405977000004,62.15576979999969,62.91885259999981,,,,,62.91908799999965,62.93449830000009,63.1349895000003,63.1187544000004,62.15576979999969,,,,,,,,0,1,0.7469718000002104,None,,,,,,,,887,21,M,R,2026-02-18_12h38.42.947,VisualSearch_2526_3,,2025.2.4,2026-02-18 12h38.43.140249 +0100,
vertical.xlsx,The target is tilted.,135,12,4,1,0,1,1,1,1,1,1,1,0,0,0,0,1,7,8,135,space,5.083703199999945,None,0,1,0.8084584999996878,None,space,1.9508240000004662,None,0,0,0,1,,,,,1,4,12,5,63.1349895000003,,,,,,,,,,,,,,,,,,,,,63.119518000000426,63.1349895000003,63.618522499999926,63.62335919999987,63.63764770000034,64.45064989999992,,,,,64.45073899999988,64.46676099999968,,64.65121369999997,63.63764770000034,,,,,,,,0,1,0.8084584999996878,None,,,,,,,,887,21,M,R,2026-02-18_12h38.42.947,VisualSearch_2526_3,,2025.2.4,2026-02-18 12h38.43.140249 +0100,
vertical.xlsx,The target is tilted.,135,13,5,1,1,1,1,1,1,1,1,1,1,1,1,1,0,11,12,135,space,5.083703199999945,None,1,1,1.2917778999999427,None,space,1.9508240000004662,None,0,0,0,1,,,,,1,5,13,0,64.66757820000021,,,,,,,,,,,,,,,,,,,,,64.6519728000003,64.66757820000021,65.15101119999963,65.15602829999989,65.17241230000036,66.46727610000016,,,,,66.46748279999974,66.48284119999971,66.68333780000012,66.66718980000041,,,,,,,,,1,1,1.2917778999999427,None,,,,,,,,887,21,M,R,2026-02-18_12h38.42.947,VisualSearch_2526_3,,2025.2.4,2026-02-18 12h38.43.140249 +0100,
vertical.xlsx,The target is tilted.,135,14,6,1,1,0,0,0,0,0,0,0,0,0,0,0,0,0,1,135,space,5.083703199999945,None,1,1,0.5954155999997965,None,space,1.9508240000004662,None,0,0,0,1,,,,,1,6,14,3,66.68333780000012,,,,,,,,,,,,,,,,,,,,,66.66797990000032,66.68333780000012,67.16662300000007,67.17149010000048,67.18666800000028,67.78344399999969,,,,,67.7835825000002,67.7989263999998,67.99925129999974,67.9832336999998,67.18666800000028,,,,,,,,1,1,0.5954155999997965,None,,,,,,,,887,21,M,R,2026-02-18_12h38.42.947,VisualSearch_2526_3,,2025.2.4,2026-02-18 12h38.43.140249 +0100,
vertical.xlsx,The target is tilted.,135,15,7,1,0,0,0,0,0,0,0,0,0,0,0,0,1,1,1,135,space,5.083703199999945,None,0,1,0.5509194000005664,None,space,1.9508240000004662,None,0,0,0,1,,,,,1,7,15,7,67.99925129999974,,,,,,,,,,,,,,,,,,,,,67.9840064,67.99925129999974,68.48303990000022,68.48790759999974,68.50433239999984,69.06663010000011,,,,,69.0668114,69.08171289999973,69.28212660000008,69.2660464999999,68.50433239999984,,,,,,,,0,1,0.5509194000005664,None,,,,,,,,887,21,M,R,2026-02-18_12h38.42.947,VisualSearch_2526_3,,2025.2.4,2026-02-18 12h38.43.140249 +0100,
vertical.xlsx,The target is tilted.,135,16,0,2,0,1,1,1,1,1,1,1,0,0,0,0,1,7,8,135,space,5.083703199999945,None,0,1,1.4093536999998832,None,space,1.9508240000004662,None,0,0,0,1,,,,,2,0,16,5,69.28212660000008,,,,,,,,,,,,,,,,,,,,,69.26677219999965,69.28212660000008,69.76579320000019,69.7706664999996,69.78592589999971,71.19789200000014,,,,,71.1979723000004,71.21387440000035,,71.3980945000003,69.78592589999971,,,,,,,,0,1,1.4093536999998832,None,,,,,,,,887,21,M,R,2026-02-18_12h38.42.947,VisualSearch_2526_3,,2025.2.4,2026-02-18 12h38.43.140249 +0100,
vertical.xlsx,The target is tilted.,135,17,1,2,1,1,1,1,0,0,0,0,0,0,0,0,0,3,4,135,space,5.083703199999945,None,1,1,0.5730604000000312,None,space,1.9508240000004662,None,0,0,0,1,,,,,2,1,17,2,71.41453660000025,,,,,,,,,,,,,,,,,,,,,71.39886070000011,71.41453660000025,71.89799630000016,71.90279900000041,71.92051179999999,72.49839710000015,,,,,72.49859579999975,72.5134509999998,72.71368749999965,72.69782209999994,71.92051179999999,,,,,,,,1,1,0.5730604000000312,None,,,,,,,,887,21,M,R,2026-02-18_12h38.42.947,VisualSearch_2526_3,,2025.2.4,2026-02-18 12h38.43.140249 +0100,
vertical.xlsx,The target is tilted.,135,18,2,2,0,1,1,1,0,0,0,0,0,0,0,0,1,3,4,135,space,5.083703199999945,None,0,1,0.6641099999997095,None,space,1.9508240000004662,None,0,0,0,1,,,,,2,2,18,6,72.71368749999965,,,,,,,,,,,,,,,,,,,,,72.69869540000036,72.71368749999965,73.1974879999998,73.20229029999973,73.21609499999977,73.8970706,,,,,73.89720839999973,73.91283130000011,74.11332430000039,74.09682020000037,73.21609499999977,,,,,,,,0,1,0.6641099999997095,None,,,,,,,,887,21,M,R,2026-02-18_12h38.42.947,VisualSearch_2526_3,,2025.2.4,2026-02-18 12h38.43.140249 +0100,
vertical.xlsx,The target is tilted.,135,19,3,2,1,0,0,0,0,0,0,0,0,0,0,0,0,0,1,135,space,5.083703199999945,None,1,1,0.6182375999997021,None,space,1.9508240000004662,None,0,0,0,1,,,,,2,3,19,3,74.11332430000039,,,,,,,,,,,,,,,,,,,,,74.09758140000031,74.11332430000039,74.59655769999972,74.60141579999981,74.61632829999962,75.24661470000046,,,,,75.24685080000017,75.26219479999963,75.46250830000008,75.44635949999974,74.61632829999962,,,,,,,,1,1,0.6182375999997021,None,,,,,,,,887,21,M,R,2026-02-18_12h38.42.947,VisualSearch_2526_3,,2025.2.4,2026-02-18 12h38.43.140249 +0100,
vertical.xlsx,The target is tilted.,135,20,4,2,1,1,1,1,1,1,1,1,1,1,1,1,0,11,12,135,space,5.083703199999945,None,1,1,0.51514700000007,None,space,1.9508240000004662,None,0,0,0,1,,,,,2,4,20,0,75.46250830000008,,,,,,,,,,,,,,,,,,,,,75.44711639999969,75.46250830000008,75.94542679999995,75.9472595999996,75.96199419999994,76.4799251000004,,,,,76.48013470000024,76.49496970000018,76.6954181000001,76.67902760000015,75.96199419999994,,,,,,,,1,1,0.51514700000007,None,,,,,,,,887,21,M,R,2026-02-18_12h38.42.947,VisualSearch_2526_3,,2025.2.4,2026-02-18 12h38.43.140249 +0100,
vertical.xlsx,The target is tilted.,135,21,5,2,0,0,0,0,0,0,0,0,0,0,0,0,1,1,1,135,space,5.083703199999945,None,0,1,0.6699256000001697,None,space,1.9508240000004662,None,0,0,0,1,,,,,2,5,21,7,76.6954181000001,,,,,,,,,,,,,,,,,,,,,76.67981280000004,76.6954181000001,77.17908309999984,77.18432519999988,77.19805759999963,77.87896759999967,,,,,77.87914569999975,77.89432029999989,78.09486399999969,78.07830740000009,77.19805759999963,,,,,,,,0,1,0.6699256000001697,None,,,,,,,,887,21,M,R,2026-02-18_12h38.42.947,VisualSearch_2526_3,,2025.2.4,2026-02-18 12h38.43.140249 +0100,
vertical.xlsx,The target is tilted.,135,22,6,2,0,1,1,1,1,1,1,1,1,1,1,1,1,11,12,135,space,5.083703199999945,None,0,1,1.0983636000000843,None,space,1.9508240000004662,None,0,0,0,1,,,,,2,6,22,4,78.09486399999969,,,,,,,,,,,,,,,,,,,,,78.07904299999973,78.09486399999969,78.57863569999972,78.58369310000035,78.59450470000047,79.69505949999984,,,,,79.6952381000001,79.71019080000042,79.91072460000032,79.89456679999967,78.59450470000047,,,,,,,,0,1,1.0983636000000843,None,,,,,,,,887,21,M,R,2026-02-18_12h38.42.947,VisualSearch_2526_3,,2025.2.4,2026-02-18 12h38.43.140249 +0100,
vertical.xlsx,The target is tilted.,135,23,7,2,1,1,1,1,1,1,1,1,0,0,0,0,0,7,8,135,space,5.083703199999945,None,1,1,0.9982503000001088,None,space,1.9508240000004662,None,0,0,0,1,,,,,2,7,23,1,79.91072460000032,,,,,,,,,,,,,,,,,,,,,79.89529330000005,79.91072460000032,80.3943261000004,80.39916840000024,80.41288910000003,81.42745399999967,,,,,81.42765510000027,81.44266400000015,81.64318840000033,81.6266999999998,80.41288910000003,,,,,,,,1,1,0.9982503000001088,None,,,,,,,,887,21,M,R,2026-02-18_12h38.42.947,VisualSearch_2526_3,,2025.2.4,2026-02-18 12h38.43.140249 +0100,
vertical.xlsx,The target is tilted.,135,24,0,3,1,0,0,0,0,0,0,0,0,0,0,0,0,0,1,135,space,5.083703199999945,None,1,1,0.7933096999995541,None,space,1.9508240000004662,None,0,0,0,1,,,,,3,0,24,3,81.64318840000033,,,,,,,,,,,,,,,,,,,,,81.62744790000033,81.64318840000033,82.12668180000037,82.13201149999986,82.14717699999983,82.94328070000029,,,,,82.94341910000003,82.9587247999998,83.15911930000038,83.14301200000045,82.14717699999983,,,,,,,,1,1,0.7933096999995541,None,,,,,,,,887,21,M,R,2026-02-18_12h38.42.947,VisualSearch_2526_3,,2025.2.4,2026-02-18 12h38.43.140249 +0100,
vertical.xlsx,The target is tilted.,135,25,1,3,1,1,1,1,1,1,1,1,0,0,0,0,0,7,8,135,space,5.083703199999945,None,1,1,0.8956763000005594,None,space,1.9508240000004662,None,0,0,0,1,,,,,3,1,25,1,83.15911930000038,,,,,,,,,,,,,,,,,,,,,83.14381450000019,83.15911930000038,83.64280270000017,83.64769520000027,83.66225589999976,84.55878550000034,,,,,84.5588759000002,84.57448769999974,84.7751287000001,84.75890280000021,83.66225589999976,,,,,,,,1,1,0.8956763000005594,None,,,,,,,,887,21,M,R,2026-02-18_12h38.42.947,VisualSearch_2526_3,,2025.2.4,2026-02-18 12h38.43.140249 +0100,
vertical.xlsx,The target is tilted.,135,26,2,3,0,0,0,0,0,0,0,0,0,0,0,0,1,1,1,135,space,5.083703199999945,None,0,1,0.6634698999996544,None,space,1.9508240000004662,None,0,0,0,1,,,,,3,2,26,7,84.7751287000001,,,,,,,,,,,,,,,,,,,,,84.75969700000041,84.7751287000001,85.25818230000004,85.26299089999975,85.27932529999998,85.95888680000007,,,,,85.95908729999974,85.97402299999976,86.17445260000022,86.15830689999984,85.27932529999998,,,,,,,,0,1,0.6634698999996544,None,,,,,,,,887,21,M,R,2026-02-18_12h38.42.947,VisualSearch_2526_3,,2025.2.4,2026-02-18 12h38.43.140249 +0100,
vertical.xlsx,The target is tilted.,135,27,3,3,0,1,1,1,1,1,1,1,0,0,0,0,1,7,8,135,space,5.083703199999945,None,0,1,1.4520091000003958,None,space,1.9508240000004662,None,0,0,0,1,,,,,3,3,27,5,86.17445260000022,,,,,,,,,,,,,,,,,,,,,86.15908010000021,86.17445260000022,86.65806080000038,86.66277770000033,86.67414000000008,88.1413134000004,,,,,88.14152860000013,88.15644450000036,88.3566450999997,88.34054219999962,86.67414000000008,,,,,,,,0,1,1.4520091000003958,None,,,,,,,,887,21,M,R,2026-02-18_12h38.42.947,VisualSearch_2526_3,,2025.2.4,2026-02-18 12h38.43.140249 +0100,
vertical.xlsx,The target is tilted.,135,28,4,3,0,1,1,1,1,1,1,1,1,1,1,1,1,11,12,135,space,5.083703199999945,None,0,1,1.4101596000000427,None,space,1.9508240000004662,None,0,0,0,1,,,,,3,4,28,4,88.3566450999997,,,,,,,,,,,,,,,,,,,,,88.34128239999973,88.3566450999997,88.84043610000026,88.84546370000044,88.86110970000027,90.27376430000004,,,,,90.27396250000038,90.28875570000037,90.48916999999983,90.47299149999981,88.86110970000027,,,,,,,,0,1,1.4101596000000427,None,,,,,,,,887,21,M,R,2026-02-18_12h38.42.947,VisualSearch_2526_3,,2025.2.4,2026-02-18 12h38.43.140249 +0100,
vertical.xlsx,The target is tilted.,135,29,5,3,1,1,1,1,0,0,0,0,0,0,0,0,0,3,4,135,space,5.083703199999945,None,1,1,0.5273557999998957,None,space,1.9508240000004662,None,0,0,0,1,,,,,3,5,29,2,90.48916999999983,,,,,,,,,,,,,,,,,,,,,90.4737697999999,90.48916999999983,90.97290309999971,90.97781250000025,90.99478030000046,91.5387770999996,,,,,91.53890760000013,91.5548332999997,91.75502250000045,91.73906210000041,90.99478030000046,,,,,,,,1,1,0.5273557999998957,None,,,,,,,,887,21,M,R,2026-02-18_12h38.42.947,VisualSearch_2526_3,,2025.2.4,2026-02-18 12h38.43.140249 +0100,
vertical.xlsx,The target is tilted.,135,30,6,3,1,1,1,1,1,1,1,1,1,1,1,1,0,11,12,135,space,5.083703199999945,None,1,1,0.8770881999998892,None,space,1.9508240000004662,None,0,0,0,1,,,,,3,6,30,0,91.75502250000045,,,,,,,,,,,,,,,,,,,,,91.73985350000021,91.75502250000045,92.23895739999989,92.2439187,92.25755409999965,93.1387322999999,,,,,93.13894960000016,93.15414260000034,93.3546266000003,93.33837789999961,92.25755409999965,,,,,,,,1,1,0.8770881999998892,None,,,,,,,,887,21,M,R,2026-02-18_12h38.42.947,VisualSearch_2526_3,,2025.2.4,2026-02-18 12h38.43.140249 +0100,
vertical.xlsx,The target is tilted.,135,31,7,3,0,1,1,1,0,0,0,0,0,0,0,0,1,3,4,135,space,5.083703199999945,None,0,1,0.5924334999999701,None,space,1.9508240000004662,None,0,0,0,1,,,,,3,7,31,6,93.3546266000003,,,,,,,,,,,,,,,,,,,,,93.33919429999969,93.3546266000003,93.83830659999967,93.8428100000001,93.85429190000013,94.4545134,,,,,94.45469570000023,94.47020340000017,94.67065569999977,94.65454419999969,93.85429190000013,,,,,,,,0,1,0.5924334999999701,None,,,,,,,,887,21,M,R,2026-02-18_12h38.42.947,VisualSearch_2526_3,,2025.2.4,2026-02-18 12h38.43.140249 +0100,
vertical.xlsx,The target is tilted.,135,32,0,4,1,1,1,1,1,1,1,1,0,0,0,0,0,7,8,135,space,5.083703199999945,None,1,1,1.1588753999994879,None,space,1.9508240000004662,None,0,0,0,1,,,,,4,0,32,1,94.67065569999977,,,,,,,,,,,,,,,,,,,,,94.6555000999997,94.67065569999977,95.1543085000003,95.1591441999999,95.17378139999983,96.33672529999967,,,,,96.33683259999998,96.35253720000037,96.55308070000046,96.53677630000038,95.17378139999983,,,,,,,,1,1,1.1588753999994879,None,,,,,,,,887,21,M,R,2026-02-18_12h38.42.947,VisualSearch_2526_3,,2025.2.4,2026-02-18 12h38.43.140249 +0100,
vertical.xlsx,The target is tilted.,135,33,1,4,1,1,1,1,0,0,0,0,0,0,0,0,0,3,4,135,space,5.083703199999945,None,1,1,0.671547200000532,None,space,1.9508240000004662,None,0,0,0,1,,,,,4,1,33,2,96.55308070000046,,,,,,,,,,,,,,,,,,,,,96.53752850000001,96.55308070000046,97.0365754000004,97.04148460000033,97.05722960000003,97.73664680000002,,,,,97.7368434,97.7520156999999,97.95249630000035,97.93643450000036,97.05722960000003,,,,,,,,1,1,0.671547200000532,None,,,,,,,,887,21,M,R,2026-02-18_12h38.42.947,VisualSearch_2526_3,,2025.2.4,2026-02-18 12h38.43.140249 +0100,
vertical.xlsx,The target is tilted.,135,34,2,4,0,1,1,1,1,1,1,1,1,1,1,1,1,11,12,135,space,5.083703199999945,None,0,1,1.529652599999281,None,space,1.9508240000004662,None,0,0,0,1,,,,,4,2,34,4,97.95249630000035,,,,,,,,,,,,,,,,,,,,,97.93717769999967,97.95249630000035,98.43621979999989,98.44110280000041,98.45678839999982,100.00155650000033,,,,,100.0016969999997,100.01802880000014,100.21813759999986,100.20200670000031,98.45678839999982,,,,,,,,0,1,1.529652599999281,None,,,,,,,,887,21,M,R,2026-02-18_12h38.42.947,VisualSearch_2526_3,,2025.2.4,2026-02-18 12h38.43.140249 +0100,
vertical.xlsx,The target is tilted.,135,35,3,4,0,1,1,1,0,0,0,0,0,0,0,0,1,3,4,135,space,5.083703199999945,None,0,1,0.6860155000003942,None,space,1.9508240000004662,None,0,0,0,1,,,,,4,3,35,6,100.21813759999986,,,,,,,,,,,,,,,,,,,,,100.2027694999997,100.21813759999986,100.70184049999989,100.70667440000034,100.72046870000031,101.4177735000003,,,,,101.41788040000029,101.43361249999998,101.63362909999978,101.61790070000006,100.72046870000031,,,,,,,,0,1,0.6860155000003942,None,,,,,,,,887,21,M,R,2026-02-18_12h38.42.947,VisualSearch_2526_3,,2025.2.4,2026-02-18 12h38.43.140249 +0100,
vertical.xlsx,The target is tilted.,135,36,4,4,1,1,1,1,1,1,1,1,1,1,1,1,0,11,12,135,space,5.083703199999945,None,1,1,0.5303516999993008,None,space,1.9508240000004662,None,0,0,0,1,,,,,4,4,36,0,101.63362909999978,,,,,,,,,,,,,,,,,,,,,101.61870269999963,101.63362909999978,102.11741230000007,102.12224479999986,102.1375564,102.6840529000001,,,,,102.68425339999976,102.69979369999965,102.90005490000021,102.88426410000011,102.1375564,,,,,,,,1,1,0.5303516999993008,None,,,,,,,,887,21,M,R,2026-02-18_12h38.42.947,VisualSearch_2526_3,,2025.2.4,2026-02-18 12h38.43.140249 +0100,
vertical.xlsx,The target is tilted.,135,37,5,4,1,0,0,0,0,0,0,0,0,0,0,0,0,0,1,135,space,5.083703199999945,None,1,1,0.63681330000054,None,space,1.9508240000004662,None,0,0,0,1,,,,,4,5,37,3,102.90005490000021,,,,,,,,,,,,,,,,,,,,,102.88502330000028,102.90005490000021,103.3839197999996,103.38888399999996,103.40351929999997,104.05079690000002,,,,,104.05099410000003,104.06581929999993,104.26604390000011,104.25011300000006,103.40351929999997,,,,,,,,1,1,0.63681330000054,None,,,,,,,,887,21,M,R,2026-02-18_12h38.42.947,VisualSearch_2526_3,,2025.2.4,2026-02-18 12h38.43.140249 +0100,
vertical.xlsx,The target is tilted.,135,38,6,4,0,1,1,1,1,1,1,1,0,0,0,0,1,7,8,135,space,5.083703199999945,None,0,1,0.7837594000002355,None,space,1.9508240000004662,None,0,0,0,1,,,,,4,6,38,5,104.26604390000011,,,,,,,,,,,,,,,,,,,,,104.25088190000042,104.26604390000011,104.74981060000027,104.75469570000041,104.76871000000028,105.56624009999996,,,,,105.56638860000021,105.58175810000012,105.78204060000007,105.76629049999974,104.76871000000028,,,,,,,,0,1,0.7837594000002355,None,,,,,,,,887,21,M,R,2026-02-18_12h38.42.947,VisualSearch_2526_3,,2025.2.4,2026-02-18 12h38.43.140249 +0100,
vertical.xlsx,The target is tilted.,135,39,7,4,0,0,0,0,0,0,0,0,0,0,0,0,1,1,1,135,space,5.083703199999945,None,0,1,0.5671621000001323,None,space,1.9508240000004662,None,0,0,0,1,,,,,4,7,39,7,105.78204060000007,,,,,,,,,,,,,,,,,,,,,105.76706360000026,105.78204060000007,106.26592640000035,106.27083940000011,106.28553230000034,106.86516169999959,,,,,106.86529840000003,106.8812012999997,107.08169579999958,107.06549689999974,106.28553230000034,,,,,,,,0,1,0.5671621000001323,None,,,,,,,,887,21,M,R,2026-02-18_12h38.42.947,VisualSearch_2526_3,,2025.2.4,2026-02-18 12h38.43.140249 +0100,
vertical.xlsx,The target is tilted.,135,40,0,5,0,0,0,0,0,0,0,0,0,0,0,0,1,1,1,135,space,5.083703199999945,None,0,1,0.43566139999984443,None,space,1.9508240000004662,None,0,0,0,1,,,,,5,0,40,7,107.08169579999958,,,,,,,,,,,,,,,,,,,,,107.06625720000011,107.08169579999958,107.56528369999978,107.57017110000015,107.58589959999972,108.03167300000041,,,,,108.03176319999966,108.04714249999961,108.24771460000011,108.23154239999985,107.58589959999972,,,,,,,,0,1,0.43566139999984443,None,,,,,,,,887,21,M,R,2026-02-18_12h38.42.947,VisualSearch_2526_3,,2025.2.4,2026-02-18 12h38.43.140249 +0100,
vertical.xlsx,The target is tilted.,135,41,1,5,0,1,1,1,0,0,0,0,0,0,0,0,1,3,4,135,space,5.083703199999945,None,0,1,0.6545397999998386,None,space,1.9508240000004662,None,0,0,0,1,,,,,5,1,41,6,108.24771460000011,,,,,,,,,,,,,,,,,,,,,108.23230429999967,108.24771460000011,108.7314223000003,108.73636569999962,108.75192070000048,109.41461299999992,,,,,109.41478900000038,109.42990680000003,109.63054610000017,109.61455949999981,108.75192070000048,,,,,,,,0,1,0.6545397999998386,None,,,,,,,,887,21,M,R,2026-02-18_12h38.42.947,VisualSearch_2526_3,,2025.2.4,2026-02-18 12h38.43.140249 +0100,
vertical.xlsx,The target is tilted.,135,42,2,5,0,1,1,1,1,1,1,1,1,1,1,1,1,11,12,135,space,5.083703199999945,None,0,1,0.9046106000005238,None,space,1.9508240000004662,None,0,0,0,1,,,,,5,2,42,4,109.63054610000017,,,,,,,,,,,,,,,,,,,,,109.61539379999977,109.63054610000017,110.11404070000026,110.11899549999998,110.13491340000019,111.04730199999995,,,,,111.04749700000048,111.06269940000038,111.2632107999998,111.24660789999962,110.13491340000019,,,,,,,,0,1,0.9046106000005238,None,,,,,,,,887,21,M,R,2026-02-18_12h38.42.947,VisualSearch_2526_3,,2025.2.4,2026-02-18 12h38.43.140249 +0100,
vertical.xlsx,The target is tilted.,135,43,3,5,0,1,1,1,1,1,1,1,0,0,0,0,1,7,8,135,space,5.083703199999945,None,0,1,0.7730593999995108,None,space,1.9508240000004662,None,0,0,0,1,,,,,5,3,43,5,111.2632107999998,,,,,,,,,,,,,,,,,,,,,111.24741619999986,111.2632107999998,111.74672029999965,111.75201329999982,111.76764220000041,112.54656960000011,,,,,112.54676420000033,112.56202570000005,112.76238730000023,112.74618269999974,111.76764220000041,,,,,,,,0,1,0.7730593999995108,None,,,,,,,,887,21,M,R,2026-02-18_12h38.42.947,VisualSearch_2526_3,,2025.2.4,2026-02-18 12h38.43.140249 +0100,
vertical.xlsx,The target is tilted.,135,44,4,5,1,0,0,0,0,0,0,0,0,0,0,0,0,0,1,135,space,5.083703199999945,None,1,1,0.4618129000000408,None,space,1.9508240000004662,None,0,0,0,1,,,,,5,4,44,3,112.76238730000023,,,,,,,,,,,,,,,,,,,,,112.74698629999966,112.76238730000023,113.24585819999993,113.25068869999996,113.26654159999998,113.72963439999967,,,,,113.72982760000014,113.74478340000041,113.94526320000023,113.92905100000007,113.26654159999998,,,,,,,,1,1,0.4618129000000408,None,,,,,,,,887,21,M,R,2026-02-18_12h38.42.947,VisualSearch_2526_3,,2025.2.4,2026-02-18 12h38.43.140249 +0100,
vertical.xlsx,The target is tilted.,135,45,5,5,1,1,1,1,0,0,0,0,0,0,0,0,0,3,4,135,space,5.083703199999945,None,1,1,0.4007458999994924,None,space,1.9508240000004662,None,0,0,0,1,,,,,5,5,45,2,113.94526320000023,,,,,,,,,,,,,,,,,,,,,113.92981210000016,113.94526320000023,114.42881940000007,114.43378140000004,114.44933140000012,114.86197640000046,,,,,114.86216280000008,114.87762800000019,115.07804370000031,115.06203060000007,114.44933140000012,,,,,,,,1,1,0.4007458999994924,None,,,,,,,,887,21,M,R,2026-02-18_12h38.42.947,VisualSearch_2526_3,,2025.2.4,2026-02-18 12h38.43.140249 +0100,
vertical.xlsx,The target is tilted.,135,46,6,5,1,1,1,1,1,1,1,1,1,1,1,1,0,11,12,135,space,5.083703199999945,None,1,1,0.48687100000006467,None,space,1.9508240000004662,None,0,0,0,1,,,,,5,6,46,0,115.07804370000031,,,,,,,,,,,,,,,,,,,,,115.06284109999979,115.07804370000031,115.56164739999986,115.56648190000033,115.58159780000005,116.0787492999998,,,,,116.07894730000044,116.09368629999972,116.29379140000037,116.27797220000048,115.58159780000005,,,,,,,,1,1,0.48687100000006467,None,,,,,,,,887,21,M,R,2026-02-18_12h38.42.947,VisualSearch_2526_3,,2025.2.4,2026-02-18 12h38.43.140249 +0100,
vertical.xlsx,The target is tilted.,135,47,7,5,1,1,1,1,1,1,1,1,0,0,0,0,0,7,8,135,space,5.083703199999945,None,1,1,0.7176084000002447,None,space,1.9508240000004662,None,0,0,0,1,,,,,5,7,47,1,116.29379140000037,,,,,,,,,,,,,,,,,,,,,116.27870989999974,116.29379140000037,116.7779502000003,116.78255290000016,116.79386390000036,117.52750470000046,,,,,117.5277014000003,117.54300390000026,117.74304289999964,117.72717649999959,116.79386390000036,,,,,,,,1,1,0.7176084000002447,None,,,,,,,,887,21,M,R,2026-02-18_12h38.42.947,VisualSearch_2526_3,,2025.2.4,2026-02-18 12h38.43.140249 +0100,
vertical.xlsx,The target is tilted.,135,48,0,6,1,1,1,1,1,1,1,1,1,1,1,1,0,11,12,135,space,5.083703199999945,None,1,1,0.9450762999995277,None,space,1.9508240000004662,None,0,0,0,1,,,,,6,0,48,0,117.74304289999964,,,,,,,,,,,,,,,,,,,,,117.72796939999989,117.74304289999964,118.22684579999986,118.23200209999959,118.24751410000044,119.19395230000009,,,,,119.19414870000037,119.20892939999976,119.40938970000025,119.39336819999971,118.24751410000044,,,,,,,,1,1,0.9450762999995277,None,,,,,,,,887,21,M,R,2026-02-18_12h38.42.947,VisualSearch_2526_3,,2025.2.4,2026-02-18 12h38.43.140249 +0100,
vertical.xlsx,The target is tilted.,135,49,1,6,1,1,1,1,1,1,1,1,0,0,0,0,0,7,8,135,space,5.083703199999945,None,1,1,0.535032400000091,None,space,1.9508240000004662,None,0,0,0,1,,,,,6,1,49,1,119.40938970000025,,,,,,,,,,,,,,,,,,,,,119.39408110000022,119.40938970000025,119.89258040000004,119.89467460000014,119.9090014000003,120.45881680000002,,,,,120.45892499999991,120.47540639999988,,120.65919250000024,119.9090014000003,,,,,,,,1,1,0.535032400000091,None,,,,,,,,887,21,M,R,2026-02-18_12h38.42.947,VisualSearch_2526_3,,2025.2.4,2026-02-18 12h38.43.140249 +0100,
vertical.xlsx,The target is tilted.,135,50,2,6,1,1,1,1,0,0,0,0,0,0,0,0,0,3,4,135,space,5.083703199999945,None,1,1,0.48934940000071947,None,space,1.9508240000004662,None,0,0,0,1,,,,,6,2,50,2,120.6756062000004,,,,,,,,,,,,,,,,,,,,,120.6599569,120.6756062000004,121.15882260000035,121.16365049999968,121.17720420000023,121.67540869999993,,,,,121.67549849999978,121.6909427999999,121.89165669999966,121.87559940000028,121.17720420000023,,,,,,,,1,1,0.48934940000071947,None,,,,,,,,887,21,M,R,2026-02-18_12h38.42.947,VisualSearch_2526_3,,2025.2.4,2026-02-18 12h38.43.140249 +0100,
vertical.xlsx,The target is tilted.,135,51,3,6,0,1,1,1,1,1,1,1,0,0,0,0,1,7,8,135,space,5.083703199999945,None,0,1,0.7855083000004015,None,space,1.9508240000004662,None,0,0,0,1,,,,,6,3,51,5,121.89165669999966,,,,,,,,,,,,,,,,,,,,,121.87630220000028,121.89165669999966,122.37547059999997,122.38085140000021,122.39564559999963,123.19181240000034,,,,,123.19196370000009,123.20717109999987,123.40745630000038,123.39141110000037,122.39564559999963,,,,,,,,0,1,0.7855083000004015,None,,,,,,,,887,21,M,R,2026-02-18_12h38.42.947,VisualSearch_2526_3,,2025.2.4,2026-02-18 12h38.43.140249 +0100,
vertical.xlsx,The target is tilted.,135,52,4,6,0,1,1,1,1,1,1,1,1,1,1,1,1,11,12,135,space,5.083703199999945,None,0,1,1.2817461000004187,None,space,1.9508240000004662,None,0,0,0,1,,,,,6,4,52,4,123.40745630000038,,,,,,,,,,,,,,,,,,,,,123.39219370000046,123.40745630000038,123.89123879999988,123.89631149999968,123.90893010000036,125.20711329999995,,,,,125.20729089999986,125.22284279999985,125.42302860000018,125.40686060000007,123.90893010000036,,,,,,,,0,1,1.2817461000004187,None,,,,,,,,887,21,M,R,2026-02-18_12h38.42.947,VisualSearch_2526_3,,2025.2.4,2026-02-18 12h38.43.140249 +0100,
vertical.xlsx,The target is tilted.,135,53,5,6,0,1,1,1,0,0,0,0,0,0,0,0,1,3,4,135,space,5.083703199999945,None,0,1,0.6064763999993374,None,space,1.9508240000004662,None,0,0,0,1,,,,,6,5,53,6,125.42302860000018,,,,,,,,,,,,,,,,,,,,,125.40768680000019,125.42302860000018,125.90609789999962,125.90879159999986,125.92291920000025,126.54062720000002,,,,,126.54082199999993,126.55555960000038,126.75598939999963,126.73992300000009,125.92291920000025,,,,,,,,0,1,0.6064763999993374,None,,,,,,,,887,21,M,R,2026-02-18_12h38.42.947,VisualSearch_2526_3,,2025.2.4,2026-02-18 12h38.43.140249 +0100,
vertical.xlsx,The target is tilted.,135,54,6,6,1,0,0,0,0,0,0,0,0,0,0,0,0,0,1,135,space,5.083703199999945,None,1,1,0.496476100000109,None,space,1.9508240000004662,None,0,0,0,1,,,,,6,6,54,3,126.75598939999963,,,,,,,,,,,,,,,,,,,,,126.74068790000001,126.75598939999963,127.23968429999968,127.2432689999996,127.25569129999985,127.75594249999995,,,,,127.75608960000045,127.77177149999989,127.97224019999976,127.95609990000048,127.25569129999985,,,,,,,,1,1,0.496476100000109,None,,,,,,,,887,21,M,R,2026-02-18_12h38.42.947,VisualSearch_2526_3,,2025.2.4,2026-02-18 12h38.43.140249 +0100,
vertical.xlsx,The target is tilted.,135,55,7,6,0,0,0,0,0,0,0,0,0,0,0,0,1,1,1,135,space,5.083703199999945,None,0,1,0.46617629999946075,None,space,1.9508240000004662,None,0,0,0,1,,,,,6,7,55,7,127.97224019999976,,,,,,,,,,,,,,,,,,,,,127.95687650000036,127.97224019999976,128.4557963999996,128.46062319999965,128.47601750000013,128.9547524999998,,,,,128.95487630000025,128.97155480000038,,129.15526690000024,128.47601750000013,,,,,,,,0,1,0.46617629999946075,None,,,,,,,,887,21,M,R,2026-02-18_12h38.42.947,VisualSearch_2526_3,,2025.2.4,2026-02-18 12h38.43.140249 +0100,
vertical.xlsx,The target is tilted.,135,56,0,7,0,1,1,1,1,1,1,1,1,1,1,1,1,11,12,135,space,5.083703199999945,None,0,1,1.2025920000005499,None,space,1.9508240000004662,None,0,0,0,1,,,,,7,0,56,4,129.1716746000002,,,,,,,,,,,,,,,,,,,,,129.1560158000002,129.1716746000002,129.65500929999962,129.65976430000046,129.67505210000036,130.8885806999997,,,,,130.88877729999967,130.90353179999966,131.10375099999965,131.08806220000042,129.67505210000036,,,,,,,,0,1,1.2025920000005499,None,,,,,,,,887,21,M,R,2026-02-18_12h38.42.947,VisualSearch_2526_3,,2025.2.4,2026-02-18 12h38.43.140249 +0100,
vertical.xlsx,The target is tilted.,135,57,1,7,1,0,0,0,0,0,0,0,0,0,0,0,0,0,1,135,space,5.083703199999945,None,1,1,0.3986166000004232,None,space,1.9508240000004662,None,0,0,0,1,,,,,7,1,57,3,131.10375099999965,,,,,,,,,,,,,,,,,,,,,131.08876489999966,131.10375099999965,131.58770449999975,131.59245069999997,131.60997140000018,132.02077410000038,,,,,132.02097380000032,132.03643749999992,132.23687189999964,132.2207540999998,131.60997140000018,,,,,,,,1,1,0.3986166000004232,None,,,,,,,,887,21,M,R,2026-02-18_12h38.42.947,VisualSearch_2526_3,,2025.2.4,2026-02-18 12h38.43.140249 +0100,
vertical.xlsx,The target is tilted.,135,58,2,7,1,1,1,1,0,0,0,0,0,0,0,0,0,3,4,135,space,5.083703199999945,None,1,1,0.5863369000007879,None,space,1.9508240000004662,None,0,0,0,1,,,,,7,2,58,2,132.23687189999964,,,,,,,,,,,,,,,,,,,,,132.22151610000037,132.23687189999964,132.72066379999978,132.72534389999964,132.73651189999964,133.33692859999974,,,,,133.33715930000017,133.35254189999978,133.55305520000002,133.53655570000046,132.73651189999964,,,,,,,,1,1,0.5863369000007879,None,,,,,,,,887,21,M,R,2026-02-18_12h38.42.947,VisualSearch_2526_3,,2025.2.4,2026-02-18 12h38.43.140249 +0100,
vertical.xlsx,The target is tilted.,135,59,3,7,1,1,1,1,1,1,1,1,0,0,0,0,0,7,8,135,space,5.083703199999945,None,1,1,0.6263603999996121,None,space,1.9508240000004662,None,0,0,0,1,,,,,7,3,59,1,133.55305520000002,,,,,,,,,,,,,,,,,,,,,133.53732330000003,133.55305520000002,134.03652890000012,134.04133879999972,134.05710679999993,134.68655490000037,,,,,134.68673180000042,134.7018951,134.90221159999965,134.8858498999998,134.05710679999993,,,,,,,,1,1,0.6263603999996121,None,,,,,,,,887,21,M,R,2026-02-18_12h38.42.947,VisualSearch_2526_3,,2025.2.4,2026-02-18 12h38.43.140249 +0100,
vertical.xlsx,The target is tilted.,135,60,4,7,0,0,0,0,0,0,0,0,0,0,0,0,1,1,1,135,space,5.083703199999945,None,0,1,0.44454099999984464,None,space,1.9508240000004662,None,0,0,0,1,,,,,7,4,60,7,134.90221159999965,,,,,,,,,,,,,,,,,,,,,134.88618080000015,134.90221159999965,135.3860590000004,135.39082190000045,135.40705650000018,135.8525479,,,,,135.8526855,135.86809979999998,136.06846510000014,136.05201510000006,135.40705650000018,,,,,,,,0,1,0.44454099999984464,None,,,,,,,,887,21,M,R,2026-02-18_12h38.42.947,VisualSearch_2526_3,,2025.2.4,2026-02-18 12h38.43.140249 +0100,
vertical.xlsx,The target is tilted.,135,61,5,7,0,1,1,1,0,0,0,0,0,0,0,0,1,3,4,135,space,5.083703199999945,None,0,1,0.5494972999995298,None,space,1.9508240000004662,None,0,0,0,1,,,,,7,5,61,6,136.06846510000014,,,,,,,,,,,,,,,,,,,,,136.05276239999966,136.06846510000014,136.55226200000016,136.5569204000003,136.56811759999982,137.11904529999993,,,,,137.11924960000033,137.13401470000008,137.33464970000023,137.31845179999982,136.56811759999982,,,,,,,,0,1,0.5494972999995298,None,,,,,,,,887,21,M,R,2026-02-18_12h38.42.947,VisualSearch_2526_3,,2025.2.4,2026-02-18 12h38.43.140249 +0100,
vertical.xlsx,The target is tilted.,135,62,6,7,1,1,1,1,1,1,1,1,1,1,1,1,0,11,12,135,space,5.083703199999945,None,1,1,0.7124684000000343,None,space,1.9508240000004662,None,0,0,0,1,,,,,7,6,62,0,137.33464970000023,,,,,,,,,,,,,,,,,,,,,137.31927520000045,137.33464970000023,137.81817479999972,137.82398530000046,137.83998299999985,138.56768160000047,,,,,138.56785500000024,138.58345680000002,138.78383339999982,138.7675452000003,137.83998299999985,,,,,,,,1,1,0.7124684000000343,None,,,,,,,,887,21,M,R,2026-02-18_12h38.42.947,VisualSearch_2526_3,,2025.2.4,2026-02-18 12h38.43.140249 +0100,
vertical.xlsx,The target is tilted.,135,63,7,7,0,1,1,1,1,1,1,1,0,0,0,0,1,7,8,135,space,5.083703199999945,None,0,1,0.966201700000056,None,space,1.9508240000004662,None,0,0,0,1,,,,,7,7,63,5,138.78383339999982,,,,,,,,,,,,,,,,,,,,,138.76826720000008,138.78383339999982,139.26790100000017,139.27269220000017,139.28339640000013,140.2515924999998,,,,,140.25178510000023,140.26611890000004,140.46638540000004,140.45004160000008,139.28339640000013,,,,,,,,0,1,0.966201700000056,None,,,,,,,,887,21,M,R,2026-02-18_12h38.42.947,VisualSearch_2526_3,,2025.2.4,2026-02-18 12h38.43.140249 +0100,
vertical.xlsx,The target is tilted.,135,64,0,8,0,1,1,1,0,0,0,0,0,0,0,0,1,3,4,135,space,5.083703199999945,None,0,1,0.639089199999944,None,space,1.9508240000004662,None,0,0,0,1,,,,,8,0,64,6,140.46638540000004,,,,,,,,,,,,,,,,,,,,,140.45076140000037,140.46638540000004,140.95026359999974,140.95507569999972,140.97087829999964,141.6171236,,,,,141.61731820000023,141.63208399999985,141.83265690000007,141.81639410000025,140.97087829999964,,,,,,,,0,1,0.639089199999944,None,,,,,,,,887,21,M,R,2026-02-18_12h38.42.947,VisualSearch_2526_3,,2025.2.4,2026-02-18 12h38.43.140249 +0100,
vertical.xlsx,The target is tilted.,135,65,1,8,1,0,0,0,0,0,0,0,0,0,0,0,0,0,1,135,space,5.083703199999945,None,1,1,0.49307800000042334,None,space,1.9508240000004662,None,0,0,0,1,,,,,8,1,65,3,141.83265690000007,,,,,,,,,,,,,,,,,,,,,141.81719969999995,141.83265690000007,142.31620070000008,142.3210409000003,142.33501539999997,142.8330678000002,,,,,142.83329130000038,142.84827229999973,143.0487094,143.03256090000014,142.33501539999997,,,,,,,,1,1,0.49307800000042334,None,,,,,,,,887,21,M,R,2026-02-18_12h38.42.947,VisualSearch_2526_3,,2025.2.4,2026-02-18 12h38.43.140249 +0100,
vertical.xlsx,The target is tilted.,135,66,2,8,0,0,0,0,0,0,0,0,0,0,0,0,1,1,1,135,space,5.083703199999945,None,0,1,0.4502683999999135,None,space,1.9508240000004662,None,0,0,0,1,,,,,8,2,66,7,143.0487094,,,,,,,,,,,,,,,,,,,,,143.03332229999978,143.0487094,143.53239329999997,143.5373814000004,143.55254160000004,144.01501280000048,,,,,144.0151496999997,144.0310241999996,144.23150720000012,144.21531789999972,143.55254160000004,,,,,,,,0,1,0.4502683999999135,None,,,,,,,,887,21,M,R,2026-02-18_12h38.42.947,VisualSearch_2526_3,,2025.2.4,2026-02-18 12h38.43.140249 +0100,
vertical.xlsx,The target is tilted.,135,67,3,8,0,1,1,1,1,1,1,1,0,0,0,0,1,7,8,135,space,5.083703199999945,None,0,1,0.9814138000001549,None,space,1.9508240000004662,None,0,0,0,1,,,,,8,3,67,5,144.23150720000012,,,,,,,,,,,,,,,,,,,,,144.21610239999973,144.23150720000012,144.71525290000045,144.7200117000002,144.73557970000002,145.73075590000008,,,,,145.73089210000035,145.74695380000048,145.94704160000038,145.93089820000023,144.73557970000002,,,,,,,,0,1,0.9814138000001549,None,,,,,,,,887,21,M,R,2026-02-18_12h38.42.947,VisualSearch_2526_3,,2025.2.4,2026-02-18 12h38.43.140249 +0100,
vertical.xlsx,The target is tilted.,135,68,4,8,0,1,1,1,1,1,1,1,1,1,1,1,1,11,12,135,space,5.083703199999945,None,0,1,1.2722391999996034,None,space,1.9508240000004662,None,0,0,0,1,,,,,8,4,68,4,145.94704160000038,,,,,,,,,,,,,,,,,,,,,145.93165920000047,145.94704160000038,146.4312034000004,146.43653689999974,146.45074889999978,147.73075690000042,,,,,147.73095290000037,147.74596519999977,147.94610009999997,147.9299547999999,146.45074889999978,,,,,,,,0,1,1.2722391999996034,None,,,,,,,,887,21,M,R,2026-02-18_12h38.42.947,VisualSearch_2526_3,,2025.2.4,2026-02-18 12h38.43.140249 +0100,
vertical.xlsx,The target is tilted.,135,69,5,8,1,1,1,1,0,0,0,0,0,0,0,0,0,3,4,135,space,5.083703199999945,None,1,1,0.5124234000004435,None,space,1.9508240000004662,None,0,0,0,1,,,,,8,5,69,2,147.94610009999997,,,,,,,,,,,,,,,,,,,,,147.9306958999996,147.94610009999997,148.42976129999988,148.43457860000035,148.4505251999999,148.97901439999987,,,,,148.97914130000026,148.99576160000015,,149.17951749999975,148.4505251999999,,,,,,,,1,1,0.5124234000004435,None,,,,,,,,887,21,M,R,2026-02-18_12h38.42.947,VisualSearch_2526_3,,2025.2.4,2026-02-18 12h38.43.140249 +0100,
vertical.xlsx,The target is tilted.,135,70,6,8,1,1,1,1,1,1,1,1,0,0,0,0,0,7,8,135,space,5.083703199999945,None,1,1,0.4890274999997928,None,space,1.9508240000004662,None,0,0,0,1,,,,,8,6,70,1,149.19597429999976,,,,,,,,,,,,,,,,,,,,,149.18028440000035,149.19597429999976,149.67932670000027,149.6842458000001,149.69958450000013,150.19582830000036,,,,,150.19593439999971,150.21154639999986,150.41212639999958,150.39593969999987,,,,,,,,,1,1,0.4890274999997928,None,,,,,,,,887,21,M,R,2026-02-18_12h38.42.947,VisualSearch_2526_3,,2025.2.4,2026-02-18 12h38.43.140249 +0100,
vertical.xlsx,The target is tilted.,135,71,7,8,1,1,1,1,1,1,1,1,1,1,1,1,0,11,12,135,space,5.083703199999945,None,1,1,0.5869302000000971,None,space,1.9508240000004662,None,0,0,0,1,,,,,8,7,71,0,150.41212639999958,,,,,,,,,,,,,,,,,,,,,150.3972262999996,150.41212639999958,150.8953123000001,150.89789649999966,150.91169739999987,151.51182169999993,,,,,151.51195670000016,151.52749479999966,151.72771199999988,151.7119628999999,150.91169739999987,,,,,,,,1,1,0.5869302000000971,None,,,,,,,,887,21,M,R,2026-02-18_12h38.42.947,VisualSearch_2526_3,,2025.2.4,2026-02-18 12h38.43.140249 +0100,
vertical.xlsx,The target is tilted.,135,72,0,9,0,1,1,1,0,0,0,0,0,0,0,0,1,3,4,135,space,5.083703199999945,None,0,1,0.5835615999994843,None,space,1.9508240000004662,None,0,0,0,1,,,,,9,0,72,6,151.72771199999988,,,,,,,,,,,,,,,,,,,,,151.71271109999998,151.72771199999988,152.2113829,152.2162261000003,152.23229270000047,152.8284421999997,,,,,152.82863300000008,152.84370959999978,153.04417279999961,153.0279800999997,152.23229270000047,,,,,,,,0,1,0.5835615999994843,None,,,,,,,,887,21,M,R,2026-02-18_12h38.42.947,VisualSearch_2526_3,,2025.2.4,2026-02-18 12h38.43.140249 +0100,
vertical.xlsx,The target is tilted.,135,73,1,9,1,0,0,0,0,0,0,0,0,0,0,0,0,0,1,135,space,5.083703199999945,None,1,1,0.5896729000005507,None,space,1.9508240000004662,None,0,0,0,1,,,,,9,1,73,3,153.04417279999961,,,,,,,,,,,,,,,,,,,,,153.02873809999983,153.04417279999961,153.52775689999999,153.53252040000007,153.54784000000018,154.14429670000027,,,,,154.1444548999998,154.15977209999983,154.36027449999983,154.34419379999963,153.54784000000018,,,,,,,,1,1,0.5896729000005507,None,,,,,,,,887,21,M,R,2026-02-18_12h38.42.947,VisualSearch_2526_3,,2025.2.4,2026-02-18 12h38.43.140249 +0100,
vertical.xlsx,The target is tilted.,135,74,2,9,1,1,1,1,1,1,1,1,1,1,1,1,0,11,12,135,space,5.083703199999945,None,1,1,0.8292230999995809,None,space,1.9508240000004662,None,0,0,0,1,,,,,9,2,74,0,154.36027449999983,,,,,,,,,,,,,,,,,,,,,154.34491499999967,154.36027449999983,154.84387080000033,154.8486382000001,154.86414870000044,155.70975160000035,,,,,155.7098962,155.72570600000017,155.92578520000006,155.90960650000034,154.86414870000044,,,,,,,,1,1,0.8292230999995809,None,,,,,,,,887,21,M,R,2026-02-18_12h38.42.947,VisualSearch_2526_3,,2025.2.4,2026-02-18 12h38.43.140249 +0100,
vertical.xlsx,The target is tilted.,135,75,3,9,0,1,1,1,1,1,1,1,1,1,1,1,1,11,12,135,space,5.083703199999945,None,0,1,1.2573793999999907,None,space,1.9508240000004662,None,0,0,0,1,,,,,9,3,75,4,155.92578520000006,,,,,,,,,,,,,,,,,,,,,155.9100083000003,155.92578520000006,156.4098230999998,156.4147286999996,156.43014500000027,157.69302919999973,,,,,157.6932558999997,157.70816040000045,157.90864429999965,157.89250290000018,156.43014500000027,,,,,,,,0,1,1.2573793999999907,None,,,,,,,,887,21,M,R,2026-02-18_12h38.42.947,VisualSearch_2526_3,,2025.2.4,2026-02-18 12h38.43.140249 +0100,
vertical.xlsx,The target is tilted.,135,76,4,9,1,1,1,1,0,0,0,0,0,0,0,0,0,3,4,135,space,5.083703199999945,None,1,1,0.5133531000001312,None,space,1.9508240000004662,None,0,0,0,1,,,,,9,4,76,2,157.90864429999965,,,,,,,,,,,,,,,,,,,,,157.89344900000015,157.90864429999965,158.39228699999967,158.39717259999998,158.41249630000038,158.94158030000017,,,,,158.94171770000048,158.95754080000006,159.1578940999998,159.14181569999982,158.41249630000038,,,,,,,,1,1,0.5133531000001312,None,,,,,,,,887,21,M,R,2026-02-18_12h38.42.947,VisualSearch_2526_3,,2025.2.4,2026-02-18 12h38.43.140249 +0100,
vertical.xlsx,The target is tilted.,135,77,5,9,0,1,1,1,1,1,1,1,0,0,0,0,1,7,8,135,space,5.083703199999945,None,0,1,1.4309069999999338,None,space,1.9508240000004662,None,0,0,0,1,,,,,9,5,77,5,159.1578940999998,,,,,,,,,,,,,,,,,,,,,159.14257759999964,159.1578940999998,159.6413408999997,159.64631499999996,159.66055330000017,161.10767120000037,,,,,161.10788950000006,161.12327829999958,161.32375709999997,161.30751669999972,159.66055330000017,,,,,,,,0,1,1.4309069999999338,None,,,,,,,,887,21,M,R,2026-02-18_12h38.42.947,VisualSearch_2526_3,,2025.2.4,2026-02-18 12h38.43.140249 +0100,
vertical.xlsx,The target is tilted.,135,78,6,9,1,1,1,1,1,1,1,1,0,0,0,0,0,7,8,135,space,5.083703199999945,None,1,1,0.6405007000003025,None,space,1.9508240000004662,None,0,0,0,1,,,,,9,6,78,1,161.32375709999997,,,,,,,,,,,,,,,,,,,,,161.30825879999975,161.32375709999997,161.80730250000033,161.81208010000046,161.82615090000036,162.47402210000018,,,,,162.47421759999997,162.48921919999975,162.68976360000033,162.67366579999998,161.82615090000036,,,,,,,,1,1,0.6405007000003025,None,,,,,,,,887,21,M,R,2026-02-18_12h38.42.947,VisualSearch_2526_3,,2025.2.4,2026-02-18 12h38.43.140249 +0100,
vertical.xlsx,The target is tilted.,135,79,7,9,0,0,0,0,0,0,0,0,0,0,0,0,1,1,1,135,space,5.083703199999945,None,0,1,0.5542199999999866,None,space,1.9508240000004662,None,0,0,0,1,,,,,9,7,79,7,162.68976360000033,,,,,,,,,,,,,,,,,,,,,162.67441810000037,162.68976360000033,163.17351010000039,163.17833710000014,163.1946656,163.75657210000008,,,,,163.75670850000006,163.77206860000024,163.9724795000002,163.95600339999964,163.1946656,,,,,,,,0,1,0.5542199999999866,None,,,,,,,,887,21,M,R,2026-02-18_12h38.42.947,VisualSearch_2526_3,,2025.2.4,2026-02-18 12h38.43.140249 +0100,
vertical.xlsx,The target is tilted.,135,80,0,10,0,0,0,0,0,0,0,0,0,0,0,0,1,1,1,135,space,5.083703199999945,None,0,1,0.6290754000001471,None,space,1.9508240000004662,None,0,0,0,1,,,,,10,0,80,7,163.9724795000002,,,,,,,,,,,,,,,,,,,,,163.95684960000017,163.9724795000002,164.4562821999998,164.4609529999998,164.47684610000033,165.12177750000046,,,,,165.12186740000016,165.13833880000038,,165.32222759999968,164.47684610000033,,,,,,,,0,1,0.6290754000001471,None,,,,,,,,887,21,M,R,2026-02-18_12h38.42.947,VisualSearch_2526_3,,2025.2.4,2026-02-18 12h38.43.140249 +0100,
vertical.xlsx,The target is tilted.,135,81,1,10,1,1,1,1,1,1,1,1,0,0,0,0,0,7,8,135,space,5.083703199999945,None,1,1,0.7444532999998046,None,space,1.9508240000004662,None,0,0,0,1,,,,,10,1,81,1,165.33849350000037,,,,,,,,,,,,,,,,,,,,,165.32310010000037,165.33849350000037,165.82192490000034,165.8266808999997,165.84233440000025,166.5891260999997,,,,,166.5893477999998,166.6040806000001,166.8045503000003,166.7883482999996,165.84233440000025,,,,,,,,1,1,0.7444532999998046,None,,,,,,,,887,21,M,R,2026-02-18_12h38.42.947,VisualSearch_2526_3,,2025.2.4,2026-02-18 12h38.43.140249 +0100,
vertical.xlsx,The target is tilted.,135,82,2,10,1,1,1,1,0,0,0,0,0,0,0,0,0,3,4,135,space,5.083703199999945,None,1,1,0.764956600000005,None,space,1.9508240000004662,None,0,0,0,1,,,,,10,2,82,2,166.8045503000003,,,,,,,,,,,,,,,,,,,,,166.78910319999977,166.8045503000003,167.28833229999964,167.2930752000002,167.304263,168.0717808999998,,,,,168.07199469999978,168.08682229999977,168.28718149999986,168.2710748999998,167.304263,,,,,,,,1,1,0.764956600000005,None,,,,,,,,887,21,M,R,2026-02-18_12h38.42.947,VisualSearch_2526_3,,2025.2.4,2026-02-18 12h38.43.140249 +0100,
vertical.xlsx,The target is tilted.,135,83,3,10,1,1,1,1,1,1,1,1,1,1,1,1,0,11,12,135,space,5.083703199999945,None,1,1,0.8654799999994793,None,space,1.9508240000004662,None,0,0,0,1,,,,,10,3,83,0,168.28718149999986,,,,,,,,,,,,,,,,,,,,,168.27183679999962,168.28718149999986,168.77096230000006,168.77558800000043,168.78685570000016,169.65432710000005,,,,,169.65451810000013,169.66957160000038,169.86992480000026,169.85370590000002,168.78685570000016,,,,,,,,1,1,0.8654799999994793,None,,,,,,,,887,21,M,R,2026-02-18_12h38.42.947,VisualSearch_2526_3,,2025.2.4,2026-02-18 12h38.43.140249 +0100,
vertical.xlsx,The target is tilted.,135,84,4,10,0,1,1,1,1,1,1,1,1,1,1,1,1,11,12,135,space,5.083703199999945,None,0,1,1.2447849999998652,None,space,1.9508240000004662,None,0,0,0,1,,,,,10,4,84,4,169.86992480000026,,,,,,,,,,,,,,,,,,,,,169.8544638000003,169.86992480000026,170.35349440000027,170.35824000000048,170.37456310000016,171.63611469999978,,,,,171.6361880000004,171.6521974999996,171.85227699999996,171.8362500000003,170.37456310000016,,,,,,,,0,1,1.2447849999998652,None,,,,,,,,887,21,M,R,2026-02-18_12h38.42.947,VisualSearch_2526_3,,2025.2.4,2026-02-18 12h38.43.140249 +0100,
vertical.xlsx,The target is tilted.,135,85,5,10,0,1,1,1,1,1,1,1,0,0,0,0,1,7,8,135,space,5.083703199999945,None,0,1,0.9422497999994448,None,space,1.9508240000004662,None,0,0,0,1,,,,,10,5,85,5,171.85227699999996,,,,,,,,,,,,,,,,,,,,,171.83695119999993,171.85227699999996,172.33593720000044,172.34069379999983,172.35670800000025,173.3018873000001,,,,,173.3020193000002,173.3177724999996,173.51814660000036,173.50210359999983,172.35670800000025,,,,,,,,0,1,0.9422497999994448,None,,,,,,,,887,21,M,R,2026-02-18_12h38.42.947,VisualSearch_2526_3,,2025.2.4,2026-02-18 12h38.43.140249 +0100,
vertical.xlsx,The target is tilted.,135,86,6,10,0,1,1,1,0,0,0,0,0,0,0,0,1,3,4,135,space,5.083703199999945,None,0,1,0.4825326000000132,None,space,1.9508240000004662,None,0,0,0,1,,,,,10,6,86,6,173.51814660000036,,,,,,,,,,,,,,,,,,,,,173.50287180000032,173.51814660000036,174.00192210000023,174.00674770000023,174.0217061000003,174.51857000000018,,,,,174.51873179999984,174.53434060000018,174.73395679999976,174.7180328000004,174.0217061000003,,,,,,,,0,1,0.4825326000000132,None,,,,,,,,887,21,M,R,2026-02-18_12h38.42.947,VisualSearch_2526_3,,2025.2.4,2026-02-18 12h38.43.140249 +0100,
vertical.xlsx,The target is tilted.,135,87,7,10,1,0,0,0,0,0,0,0,0,0,0,0,0,0,1,135,space,5.083703199999945,None,1,1,0.44850080000014714,None,space,1.9508240000004662,None,0,0,0,1,,,,,10,7,87,3,174.73395679999976,,,,,,,,,,,,,,,,,,,,,174.71876129999964,174.73395679999976,175.21791349999967,175.22279040000012,175.23888400000033,175.7010806999997,,,,,175.7012354999997,175.71701070000017,175.9167180000004,175.9008635,175.23888400000033,,,,,,,,1,1,0.44850080000014714,None,,,,,,,,887,21,M,R,2026-02-18_12h38.42.947,VisualSearch_2526_3,,2025.2.4,2026-02-18 12h38.43.140249 +0100,
vertical.xlsx,The target is tilted.,135,88,0,11,0,1,1,1,1,1,1,1,0,0,0,0,1,7,8,135,space,5.083703199999945,None,0,1,0.7519820999996227,None,space,1.9508240000004662,None,0,0,0,1,,,,,11,0,88,5,175.9167180000004,,,,,,,,,,,,,,,,,,,,,175.90158960000008,175.9167180000004,176.4006829,176.40589379999983,176.42122110000037,177.1837443000004,,,,,177.1839104999999,177.1997776999997,177.3994259000001,177.38362940000025,176.42122110000037,,,,,,,,0,1,0.7519820999996227,None,,,,,,,,887,21,M,R,2026-02-18_12h38.42.947,VisualSearch_2526_3,,2025.2.4,2026-02-18 12h38.43.140249 +0100,
vertical.xlsx,The target is tilted.,135,89,1,11,1,1,1,1,1,1,1,1,1,1,1,1,0,11,12,135,space,5.083703199999945,None,1,1,1.4389879000000292,None,space,1.9508240000004662,None,0,0,0,1,,,,,11,1,89,0,177.3994259000001,,,,,,,,,,,,,,,,,,,,,177.3844140000001,177.3994259000001,177.8834625999998,177.88828620000004,177.90425080000023,179.34997920000023,,,,,179.35017380000045,179.36514280000029,179.5654295000004,179.5490276999999,177.90425080000023,,,,,,,,1,1,1.4389879000000292,None,,,,,,,,887,21,M,R,2026-02-18_12h38.42.947,VisualSearch_2526_3,,2025.2.4,2026-02-18 12h38.43.140249 +0100,
vertical.xlsx,The target is tilted.,135,90,2,11,1,1,1,1,1,1,1,1,0,0,0,0,0,7,8,135,space,5.083703199999945,None,1,1,0.7708786000002874,None,space,1.9508240000004662,None,0,0,0,1,,,,,11,2,90,1,179.5654295000004,,,,,,,,,,,,,,,,,,,,,179.54979379999986,179.5654295000004,180.04906540000047,180.0537187,180.06516680000004,180.8493510999997,,,,,180.84954540000035,180.8648487999999,181.06484509999973,181.04864269999962,180.06516680000004,,,,,,,,1,1,0.7708786000002874,None,,,,,,,,887,21,M,R,2026-02-18_12h38.42.947,VisualSearch_2526_3,,2025.2.4,2026-02-18 12h38.43.140249 +0100,
vertical.xlsx,The target is tilted.,135,91,3,11,1,1,1,1,0,0,0,0,0,0,0,0,0,3,4,135,space,5.083703199999945,None,1,1,0.6425207000002047,None,space,1.9508240000004662,None,0,0,0,1,,,,,11,3,91,2,181.06484509999973,,,,,,,,,,,,,,,,,,,,,181.04940280000028,181.06484509999973,181.5482761000003,181.55312549999962,181.56998790000034,182.21487669999988,,,,,182.2150115000004,182.2309041999997,182.43076740000015,182.41479479999998,181.56998790000034,,,,,,,,1,1,0.6425207000002047,None,,,,,,,,887,21,M,R,2026-02-18_12h38.42.947,VisualSearch_2526_3,,2025.2.4,2026-02-18 12h38.43.140249 +0100,
vertical.xlsx,The target is tilted.,135,92,4,11,1,0,0,0,0,0,0,0,0,0,0,0,0,0,1,135,space,5.083703199999945,None,1,1,0.5032011999992392,None,space,1.9508240000004662,None,0,0,0,1,,,,,11,4,92,3,182.43076740000015,,,,,,,,,,,,,,,,,,,,,182.41549149999992,182.43076740000015,182.91456769999968,182.91940429999977,182.93483829999968,183.4473869000003,,,,,183.4474892999997,183.46348469999975,183.66366579999976,183.64736549999998,182.93483829999968,,,,,,,,1,1,0.5032011999992392,None,,,,,,,,887,21,M,R,2026-02-18_12h38.42.947,VisualSearch_2526_3,,2025.2.4,2026-02-18 12h38.43.140249 +0100,
vertical.xlsx,The target is tilted.,135,93,5,11,0,1,1,1,0,0,0,0,0,0,0,0,1,3,4,135,space,5.083703199999945,None,0,1,0.5813077999991947,None,space,1.9508240000004662,None,0,0,0,1,,,,,11,5,93,6,183.66366579999976,,,,,,,,,,,,,,,,,,,,,183.64811389999977,183.66366579999976,184.1472235000001,184.15202979999958,184.16708110000036,184.7640951000003,,,,,184.76428889999988,184.77967590000026,184.97909609999988,184.96323630000006,184.16708110000036,,,,,,,,0,1,0.5813077999991947,None,,,,,,,,887,21,M,R,2026-02-18_12h38.42.947,VisualSearch_2526_3,,2025.2.4,2026-02-18 12h38.43.140249 +0100,
vertical.xlsx,The target is tilted.,135,94,6,11,0,1,1,1,1,1,1,1,1,1,1,1,1,11,12,135,space,5.083703199999945,None,0,1,1.4712716000003638,None,space,1.9508240000004662,None,0,0,0,1,,,,,11,6,94,4,184.97909609999988,,,,,,,,,,,,,,,,,,,,,184.96397140000045,184.97909609999988,185.46331439999994,185.46917229999963,185.4852235999997,186.96325869999964,,,,,186.96345259999998,186.97874560000037,187.17864160000045,187.16257599999972,185.4852235999997,,,,,,,,0,1,1.4712716000003638,None,,,,,,,,887,21,M,R,2026-02-18_12h38.42.947,VisualSearch_2526_3,,2025.2.4,2026-02-18 12h38.43.140249 +0100,
vertical.xlsx,The target is tilted.,135,95,7,11,0,0,0,0,0,0,0,0,0,0,0,0,1,1,1,135,space,5.083703199999945,None,0,1,0.6740196999999171,None,space,1.9508240000004662,None,0,0,0,1,,,,,11,7,95,7,187.17864160000045,,,,,,,,,,,,,,,,,,,,,187.16332190000048,187.17864160000045,187.66235959999995,187.66718330000003,187.68206910000026,188.36196910000035,,,,,188.36218069999995,188.37803950000034,188.578168,188.5620904999996,187.68206910000026,,,,,,,,0,1,0.6740196999999171,None,,,,,,,,887,21,M,R,2026-02-18_12h38.42.947,VisualSearch_2526_3,,2025.2.4,2026-02-18 12h38.43.140249 +0100,
vertical.xlsx,The target is tilted.,135,96,0,12,0,1,1,1,0,0,0,0,0,0,0,0,1,3,4,135,space,5.083703199999945,None,0,1,0.559085399999276,None,space,1.9508240000004662,None,0,0,0,1,,,,,12,0,96,6,188.578168,,,,,,,,,,,,,,,,,,,,,188.56297350000023,188.578168,189.0617972,189.06637330000012,189.07770590000018,189.64528859999973,,,,,189.6454616000001,189.66044750000037,189.86082160000024,189.84460099999978,189.07770590000018,,,,,,,,0,1,0.559085399999276,None,,,,,,,,887,21,M,R,2026-02-18_12h38.42.947,VisualSearch_2526_3,,2025.2.4,2026-02-18 12h38.43.140249 +0100,
vertical.xlsx,The target is tilted.,135,97,1,12,0,0,0,0,0,0,0,0,0,0,0,0,1,1,1,135,space,5.083703199999945,None,0,1,0.4954302000005555,None,space,1.9508240000004662,None,0,0,0,1,,,,,12,1,97,7,189.86082160000024,,,,,,,,,,,,,,,,,,,,,189.8453502000002,189.86082160000024,190.3444016000003,190.34913469999992,190.36595190000025,190.87724590000016,,,,,190.87733730000036,190.89349930000026,191.09359459999996,191.07707449999998,190.36595190000025,,,,,,,,0,1,0.4954302000005555,None,,,,,,,,887,21,M,R,2026-02-18_12h38.42.947,VisualSearch_2526_3,,2025.2.4,2026-02-18 12h38.43.140249 +0100,
vertical.xlsx,The target is tilted.,135,98,2,12,1,1,1,1,0,0,0,0,0,0,0,0,0,3,4,135,space,5.083703199999945,None,1,1,0.49729459999980463,None,space,1.9508240000004662,None,0,0,0,1,,,,,12,2,98,2,191.09359459999996,,,,,,,,,,,,,,,,,,,,,191.07788679999976,191.09359459999996,191.57689860000028,191.58159549999982,191.59677310000006,192.11013249999996,,,,,192.11021119999987,192.12598479999997,192.3260762,192.3101998000002,191.59677310000006,,,,,,,,1,1,0.49729459999980463,None,,,,,,,,887,21,M,R,2026-02-18_12h38.42.947,VisualSearch_2526_3,,2025.2.4,2026-02-18 12h38.43.140249 +0100,
vertical.xlsx,The target is tilted.,135,99,3,12,1,0,0,0,0,0,0,0,0,0,0,0,0,0,1,135,space,5.083703199999945,None,1,1,0.4965323999995235,None,space,1.9508240000004662,None,0,0,0,1,,,,,12,3,99,3,192.3260762,,,,,,,,,,,,,,,,,,,,,192.31100890000016,192.3260762,192.80979200000002,192.81458600000042,192.82823590000044,193.32664440000008,,,,,193.32683890000044,193.34245929999997,193.5425034,193.52640249999968,192.82823590000044,,,,,,,,1,1,0.4965323999995235,None,,,,,,,,887,21,M,R,2026-02-18_12h38.42.947,VisualSearch_2526_3,,2025.2.4,2026-02-18 12h38.43.140249 +0100,
vertical.xlsx,The target is tilted.,135,100,4,12,1,1,1,1,1,1,1,1,0,0,0,0,0,7,8,135,space,5.083703199999945,None,1,1,0.896093700000165,None,space,1.9508240000004662,None,0,0,0,1,,,,,12,4,100,1,193.5425034,,,,,,,,,,,,,,,,,,,,,193.52712539999993,193.5425034,194.02617720000035,194.03088050000042,194.0465052999998,194.95955030000005,,,,,194.95974360000037,194.97518769999988,195.1749804000001,195.15879339999992,194.0465052999998,,,,,,,,1,1,0.896093700000165,None,,,,,,,,887,21,M,R,2026-02-18_12h38.42.947,VisualSearch_2526_3,,2025.2.4,2026-02-18 12h38.43.140249 +0100,
vertical.xlsx,The target is tilted.,135,101,5,12,0,1,1,1,1,1,1,1,0,0,0,0,1,7,8,135,space,5.083703199999945,None,0,1,1.0649442000003546,None,space,1.9508240000004662,None,0,0,0,1,,,,,12,5,101,5,195.1749804000001,,,,,,,,,,,,,,,,,,,,,195.15960369999993,195.1749804000001,195.65849489999982,195.66321630000039,195.67769339999995,196.75798510000004,,,,,196.75813209999978,196.77385370000047,196.9743768999997,196.95825590000004,195.67769339999995,,,,,,,,0,1,1.0649442000003546,None,,,,,,,,887,21,M,R,2026-02-18_12h38.42.947,VisualSearch_2526_3,,2025.2.4,2026-02-18 12h38.43.140249 +0100,
vertical.xlsx,The target is tilted.,135,102,6,12,1,1,1,1,1,1,1,1,1,1,1,1,0,11,12,135,space,5.083703199999945,None,1,1,0.6039374000001771,None,space,1.9508240000004662,None,0,0,0,1,,,,,12,6,102,0,196.9743768999997,,,,,,,,,,,,,,,,,,,,,196.95907400000033,196.9743768999997,197.45780900000045,197.46249979999993,197.4778470000001,198.0914474000001,,,,,198.09163689999968,198.1068935000003,198.3065260000003,198.29053569999996,197.4778470000001,,,,,,,,1,1,0.6039374000001771,None,,,,,,,,887,21,M,R,2026-02-18_12h38.42.947,VisualSearch_2526_3,,2025.2.4,2026-02-18 12h38.43.140249 +0100,
vertical.xlsx,The target is tilted.,135,103,7,12,0,1,1,1,1,1,1,1,1,1,1,1,1,11,12,135,space,5.083703199999945,None,0,1,0.9556569000005766,None,space,1.9508240000004662,None,0,0,0,1,,,,,12,7,103,4,198.3065260000003,,,,,,,,,,,,,,,,,,,,,198.29126650000035,198.3065260000003,198.79051960000015,198.79545190000044,198.8109204000002,199.77411089999987,,,,,199.77430189999995,199.7895937000003,199.98947539999972,199.97319789999983,198.8109204000002,,,,,,,,0,1,0.9556569000005766,None,,,,,,,,887,21,M,R,2026-02-18_12h38.42.947,VisualSearch_2526_3,,2025.2.4,2026-02-18 12h38.43.140249 +0100,
vertical.xlsx,The target is tilted.,135,104,0,13,0,1,1,1,1,1,1,1,0,0,0,0,1,7,8,135,space,5.083703199999945,None,0,1,1.0432220000002417,None,space,1.9508240000004662,None,0,0,0,1,,,,,13,0,104,5,199.98947539999972,,,,,,,,,,,,,,,,,,,,,199.97394090000034,199.98947539999972,200.4732154000003,200.47802890000003,200.4942885999999,201.5399293999999,,,,,201.5401321999998,201.5551333000003,201.75537770000028,201.73922810000022,200.4942885999999,,,,,,,,0,1,1.0432220000002417,None,,,,,,,,887,21,M,R,2026-02-18_12h38.42.947,VisualSearch_2526_3,,2025.2.4,2026-02-18 12h38.43.140249 +0100,
vertical.xlsx,The target is tilted.,135,105,1,13,1,1,1,1,0,0,0,0,0,0,0,0,0,3,4,135,space,5.083703199999945,None,1,1,0.4734459000001152,None,space,1.9508240000004662,None,0,0,0,1,,,,,13,1,105,2,201.75537770000028,,,,,,,,,,,,,,,,,,,,,201.73999879999974,201.75537770000028,202.23910799999976,202.24390219999987,202.2604037000001,202.73931869999979,,,,,202.73952129999998,202.7549865000001,202.9544495,202.93854360000023,202.2604037000001,,,,,,,,1,1,0.4734459000001152,None,,,,,,,,887,21,M,R,2026-02-18_12h38.42.947,VisualSearch_2526_3,,2025.2.4,2026-02-18 12h38.43.140249 +0100,
vertical.xlsx,The target is tilted.,135,106,2,13,1,0,0,0,0,0,0,0,0,0,0,0,0,0,1,135,space,5.083703199999945,None,1,1,0.46793609999986074,None,space,1.9508240000004662,None,0,0,0,1,,,,,13,2,106,3,202.9544495,,,,,,,,,,,,,,,,,,,,,202.93927210000038,202.9544495,203.43852500000048,203.44331779999993,203.45734129999983,203.93833540000014,,,,,203.9384700999999,203.95433779999985,204.1542218000004,204.13780479999969,203.45734129999983,,,,,,,,1,1,0.46793609999986074,None,,,,,,,,887,21,M,R,2026-02-18_12h38.42.947,VisualSearch_2526_3,,2025.2.4,2026-02-18 12h38.43.140249 +0100,
vertical.xlsx,The target is tilted.,135,107,3,13,0,1,1,1,0,0,0,0,0,0,0,0,1,3,4,135,space,5.083703199999945,None,0,1,0.5810558000002857,None,space,1.9508240000004662,None,0,0,0,1,,,,,13,3,107,6,204.1542218000004,,,,,,,,,,,,,,,,,,,,,204.13855349999994,204.1542218000004,204.6378848000004,204.64274079999996,204.65741350000008,205.25467990000016,,,,,205.2548544000001,205.27014859999963,205.4703669999999,205.45425869999963,204.65741350000008,,,,,,,,0,1,0.5810558000002857,None,,,,,,,,887,21,M,R,2026-02-18_12h38.42.947,VisualSearch_2526_3,,2025.2.4,2026-02-18 12h38.43.140249 +0100,
vertical.xlsx,The target is tilted.,135,108,4,13,1,1,1,1,1,1,1,1,0,0,0,0,0,7,8,135,space,5.083703199999945,None,1,1,0.5284833999994589,None,space,1.9508240000004662,None,0,0,0,1,,,,,13,4,108,1,205.4703669999999,,,,,,,,,,,,,,,,,,,,,205.45500210000046,205.4703669999999,205.95395840000037,205.95884620000015,205.9725159999998,206.5042564000005,,,,,206.50444760000028,206.51980280000043,206.7198586000004,206.70362529999966,205.9725159999998,,,,,,,,1,1,0.5284833999994589,None,,,,,,,,887,21,M,R,2026-02-18_12h38.42.947,VisualSearch_2526_3,,2025.2.4,2026-02-18 12h38.43.140249 +0100,
vertical.xlsx,The target is tilted.,135,109,5,13,1,1,1,1,1,1,1,1,1,1,1,1,0,11,12,135,space,5.083703199999945,None,1,1,0.5849165999998149,None,space,1.9508240000004662,None,0,0,0,1,,,,,13,5,109,0,206.7198586000004,,,,,,,,,,,,,,,,,,,,,206.70438079999985,206.7198586000004,207.20338869999978,207.2081562000003,207.22506969999995,207.82046900000023,,,,,207.82067000000006,207.83557509999991,208.03549310000017,208.01946060000046,207.22506969999995,,,,,,,,1,1,0.5849165999998149,None,,,,,,,,887,21,M,R,2026-02-18_12h38.42.947,VisualSearch_2526_3,,2025.2.4,2026-02-18 12h38.43.140249 +0100,
vertical.xlsx,The target is tilted.,135,110,6,13,0,1,1,1,1,1,1,1,1,1,1,1,1,11,12,135,space,5.083703199999945,None,0,1,0.7916765999998461,None,space,1.9508240000004662,None,0,0,0,1,,,,,13,6,110,4,208.03549310000017,,,,,,,,,,,,,,,,,,,,,208.02020270000048,208.03549310000017,208.51946640000006,208.52469099999962,208.53987380000035,209.33586110000033,,,,,209.33600829999978,209.3518984000002,209.55178280000018,209.53536919999988,208.53987380000035,,,,,,,,0,1,0.7916765999998461,None,,,,,,,,887,21,M,R,2026-02-18_12h38.42.947,VisualSearch_2526_3,,2025.2.4,2026-02-18 12h38.43.140249 +0100,
vertical.xlsx,The target is tilted.,135,111,7,13,0,0,0,0,0,0,0,0,0,0,0,0,1,1,1,135,space,5.083703199999945,None,0,1,0.45599460000084946,None,space,1.9508240000004662,None,0,0,0,1,,,,,13,7,111,7,209.55178280000018,,,,,,,,,,,,,,,,,,,,,209.53609320000032,209.55178280000018,210.03568040000027,210.04102320000038,210.0559248999998,210.51916849999998,,,,,210.51936000000023,210.53467890000047,210.73442969999996,210.7184858999999,210.0559248999998,,,,,,,,0,1,0.45599460000084946,None,,,,,,,,887,21,M,R,2026-02-18_12h38.42.947,VisualSearch_2526_3,,2025.2.4,2026-02-18 12h38.43.140249 +0100,
vertical.xlsx,The target is tilted.,135,112,0,14,1,0,0,0,0,0,0,0,0,0,0,0,0,0,1,135,space,5.083703199999945,None,1,1,0.44494029999987106,None,space,1.9508240000004662,None,0,0,0,1,,,,,14,0,112,3,210.73442969999996,,,,,,,,,,,,,,,,,,,,,210.7192484999996,210.73442969999996,211.21820500000013,211.22279780000008,211.2349309000001,211.6851975999998,,,,,211.68539059999966,211.70070790000045,211.90094769999996,211.88470099999995,211.2349309000001,,,,,,,,1,1,0.44494029999987106,None,,,,,,,,887,21,M,R,2026-02-18_12h38.42.947,VisualSearch_2526_3,,2025.2.4,2026-02-18 12h38.43.140249 +0100,
vertical.xlsx,The target is tilted.,135,113,1,14,0,1,1,1,1,1,1,1,0,0,0,0,1,7,8,135,space,5.083703199999945,None,0,1,0.6716392000007545,None,space,1.9508240000004662,None,0,0,0,1,,,,,14,1,113,5,211.90094769999996,,,,,,,,,,,,,,,,,,,,,211.8854811000001,211.90094769999996,212.3841282000003,212.38795279999977,212.3997962000003,213.0836962000003,,,,,213.0838216000002,213.0995552000004,213.29946159999963,213.28302919999987,212.3997962000003,,,,,,,,0,1,0.6716392000007545,None,,,,,,,,887,21,M,R,2026-02-18_12h38.42.947,VisualSearch_2526_3,,2025.2.4,2026-02-18 12h38.43.140249 +0100,
vertical.xlsx,The target is tilted.,135,114,2,14,1,1,1,1,0,0,0,0,0,0,0,0,0,3,4,135,space,5.083703199999945,None,1,1,0.5760620999999446,None,space,1.9508240000004662,None,0,0,0,1,,,,,14,2,114,2,213.29946159999963,,,,,,,,,,,,,,,,,,,,,213.2833469999996,213.29946159999963,213.78277400000024,213.78452370000014,213.7995516000001,214.38418180000008,,,,,214.3843764000003,214.39968260000023,214.59965459999967,214.58354450000024,213.7995516000001,,,,,,,,1,1,0.5760620999999446,None,,,,,,,,887,21,M,R,2026-02-18_12h38.42.947,VisualSearch_2526_3,,2025.2.4,2026-02-18 12h38.43.140249 +0100,
vertical.xlsx,The target is tilted.,135,115,3,14,0,0,0,0,0,0,0,0,0,0,0,0,1,1,1,135,space,5.083703199999945,None,0,1,0.45404750000034255,None,space,1.9508240000004662,None,0,0,0,1,,,,,14,3,115,7,214.59965459999967,,,,,,,,,,,,,,,,,,,,,214.58439389999967,214.59965459999967,215.08359800000017,215.08913399999983,215.1034012,215.56673969999974,,,,,215.56691339999998,215.5824061000003,215.78252789999988,215.76652960000047,215.1034012,,,,,,,,0,1,0.45404750000034255,None,,,,,,,,887,21,M,R,2026-02-18_12h38.42.947,VisualSearch_2526_3,,2025.2.4,2026-02-18 12h38.43.140249 +0100,
vertical.xlsx,The target is tilted.,135,116,4,14,0,1,1,1,0,0,0,0,0,0,0,0,1,3,4,135,space,5.083703199999945,None,0,1,0.5879365000000689,None,space,1.9508240000004662,None,0,0,0,1,,,,,14,4,116,6,215.78252789999988,,,,,,,,,,,,,,,,,,,,,215.7674446000001,215.78252789999988,216.26624989999982,216.27170039999965,216.28751319999992,216.88229239999964,,,,,216.88243109999985,216.8983390000003,217.09855330000028,217.08252230000016,216.28751319999992,,,,,,,,0,1,0.5879365000000689,None,,,,,,,,887,21,M,R,2026-02-18_12h38.42.947,VisualSearch_2526_3,,2025.2.4,2026-02-18 12h38.43.140249 +0100,
vertical.xlsx,The target is tilted.,135,117,5,14,1,1,1,1,1,1,1,1,1,1,1,1,0,11,12,135,space,5.083703199999945,None,1,1,0.579974599999332,None,space,1.9508240000004662,None,0,0,0,1,,,,,14,5,117,0,217.09855330000028,,,,,,,,,,,,,,,,,,,,,217.08335970000007,217.09855330000028,217.58224750000045,217.58743979999963,217.6018981999996,218.19904849999966,,,,,218.19924429999992,218.21454549999999,218.41451899999993,218.39853229999972,217.6018981999996,,,,,,,,1,1,0.579974599999332,None,,,,,,,,887,21,M,R,2026-02-18_12h38.42.947,VisualSearch_2526_3,,2025.2.4,2026-02-18 12h38.43.140249 +0100,
vertical.xlsx,The target is tilted.,135,118,6,14,0,1,1,1,1,1,1,1,1,1,1,1,1,11,12,135,space,5.083703199999945,None,0,1,1.0529043999995338,None,space,1.9508240000004662,None,0,0,0,1,,,,,14,6,118,4,218.41451899999993,,,,,,,,,,,,,,,,,,,,,218.3994806999999,218.41451899999993,218.8977261,218.90068369999972,218.9141055,219.98155899999983,,,,,219.9817568999997,219.99703339999996,220.1970183000003,220.1807170000002,218.9141055,,,,,,,,0,1,1.0529043999995338,None,,,,,,,,887,21,M,R,2026-02-18_12h38.42.947,VisualSearch_2526_3,,2025.2.4,2026-02-18 12h38.43.140249 +0100,
vertical.xlsx,The target is tilted.,135,119,7,14,1,1,1,1,1,1,1,1,0,0,0,0,0,7,8,135,space,5.083703199999945,None,1,1,1.43718970000009,None,space,1.9508240000004662,None,0,0,0,1,,,,,14,7,119,1,220.1970183000003,,,,,,,,,,,,,,,,,,,,,220.18155930000012,220.1970183000003,220.68053979999968,220.68554519999998,220.69938610000008,222.1470336000002,,,,,222.14724769999975,222.16265310000017,222.3753588999998,222.34625239999968,220.69938610000008,,,,,,,,1,1,1.43718970000009,None,,,,,,,,887,21,M,R,2026-02-18_12h38.42.947,VisualSearch_2526_3,,2025.2.4,2026-02-18 12h38.43.140249 +0100,
vertical.xlsx,The target is tilted.,135,0,0,0,,,,,,,,,,,,,,,,,space,5.083703199999945,None,,,,,space,1.9508240000004662,None,0,0,0,1,,,,,,,,,,,,,,,,,,,,,,,,,,,,,,,,,,,,,,,,,,,,,,,,,,,,,,,,,,,,,,,887,21,M,R,2026-02-18_12h38.42.947,VisualSearch_2526_3,,2025.2.4,2026-02-18 12h38.43.140249 +0100,
tilted.xlsx,The target is tilted.,117,0,0,0,0,0,0,0,0,0,0,0,0,0,0,0,1,1,1,117,space,4.342533600000024,None,0,1,0.5871430999995937,None,,,,0,1,1,0,0,0,0,7,,,,,226.75288629999977,,,,,,,,,,,,,,,222.3753588999998,222.3753588999998,222.3753588999998,space,4.342533600000024,None,226.7492103000004,226.75288629999977,227.2441458000003,227.24899149999965,227.2645722999996,227.86101210000015,0,1,0.5871430999995937,None,227.86127130000023,227.87649950000014,228.07671039999968,228.0607203999998,,,,,,,,,,,,,,,,,,,,887,21,M,R,2026-02-18_12h38.42.947,VisualSearch_2526_3,,2025.2.4,2026-02-18 12h38.43.140249 +0100,
tilted.xlsx,The target is tilted.,117,1,1,0,0,1,1,1,1,1,1,1,0,0,0,0,1,7,8,117,space,4.342533600000024,None,1,0,2.309007200000451,None,,,,0,1,1,0,0,1,1,5,,,,,228.07671039999968,,,,,,,,,,,,,,,,,,,,,228.0614069000003,228.07671039999968,228.56008500000007,228.56463989999975,228.5764122999999,230.89327930000036,1,0,2.309007200000451,None,230.8934621999997,230.90873170000032,231.1087395000004,231.09264799999983,228.5764122999999,,,,,,,,,,,,,,,,,,,887,21,M,R,2026-02-18_12h38.42.947,VisualSearch_2526_3,,2025.2.4,2026-02-18 12h38.43.140249 +0100,
tilted.xlsx,The target is tilted.,117,2,2,0,1,0,0,0,0,0,0,0,0,0,0,0,0,0,1,117,space,4.342533600000024,None,1,1,0.5349374000006719,None,,,,0,1,1,0,0,2,2,3,,,,,231.1087395000004,,,,,,,,,,,,,,,,,,,,,231.09333979999974,231.1087395000004,231.59237490000032,231.5971956000003,231.61169249999966,232.15982600000007,1,1,0.5349374000006719,None,232.16000919999988,232.1745774000001,232.3749286000002,232.35894579999967,231.61169249999966,,,,,,,,,,,,,,,,,,,887,21,M,R,2026-02-18_12h38.42.947,VisualSearch_2526_3,,2025.2.4,2026-02-18 12h38.43.140249 +0100,
tilted.xlsx,The target is tilted.,117,3,3,0,1,1,1,1,1,1,1,1,1,1,1,1,0,11,12,117,space,4.342533600000024,None,1,1,2.257499500000449,None,,,,0,1,1,0,0,3,3,0,,,,,232.3749286000002,,,,,,,,,,,,,,,,,,,,,232.3596851000002,232.3749286000002,232.85836610000024,232.8631449000004,232.8779913999997,235.14126839999972,1,1,2.257499500000449,None,235.1414507999998,235.15675939999983,235.3566920000003,235.3406685,232.8779913999997,,,,,,,,,,,,,,,,,,,887,21,M,R,2026-02-18_12h38.42.947,VisualSearch_2526_3,,2025.2.4,2026-02-18 12h38.43.140249 +0100,
tilted.xlsx,The target is tilted.,117,4,4,0,1,1,1,1,1,1,1,1,0,0,0,0,0,7,8,117,space,4.342533600000024,None,1,1,2.2942749999992884,None,,,,0,1,1,0,0,4,4,1,,,,,235.3566920000003,,,,,,,,,,,,,,,,,,,,,235.34137360000022,235.3566920000003,235.84024820000013,235.8449381999999,235.86069430000043,238.15674089999993,1,1,2.2942749999992884,None,238.15693100000044,238.17182010000033,238.3721740000001,238.35578160000023,235.86069430000043,,,,,,,,,,,,,,,,,,,887,21,M,R,2026-02-18_12h38.42.947,VisualSearch_2526_3,,2025.2.4,2026-02-18 12h38.43.140249 +0100,
tilted.xlsx,The target is tilted.,117,5,5,0,1,1,1,1,0,0,0,0,0,0,0,0,0,3,4,117,space,4.342533600000024,None,1,1,0.6961922999998933,None,,,,0,1,1,0,0,5,5,2,,,,,238.3721740000001,,,,,,,,,,,,,,,,,,,,,238.3565625000001,238.3721740000001,238.85577749999993,238.86061700000027,238.8760358999998,239.5891548999998,1,1,0.6961922999998933,None,239.5893248000002,239.6047755999998,239.80445859999963,239.78870840000036,238.8760358999998,,,,,,,,,,,,,,,,,,,887,21,M,R,2026-02-18_12h38.42.947,VisualSearch_2526_3,,2025.2.4,2026-02-18 12h38.43.140249 +0100,
tilted.xlsx,The target is tilted.,117,6,6,0,0,1,1,1,0,0,0,0,0,0,0,0,1,3,4,117,space,4.342533600000024,None,0,1,0.9797408000003998,None,,,,0,1,1,0,0,6,6,6,,,,,239.80445859999963,,,,,,,,,,,,,,,,,,,,,239.78941149999991,239.80445859999963,240.28834900000038,240.29318020000028,240.30728980000004,241.28847289999976,0,1,0.9797408000003998,None,241.28867199999968,241.30400540000028,241.50398380000024,241.48759559999962,240.30728980000004,,,,,,,,,,,,,,,,,,,887,21,M,R,2026-02-18_12h38.42.947,VisualSearch_2526_3,,2025.2.4,2026-02-18 12h38.43.140249 +0100,
tilted.xlsx,The target is tilted.,117,7,7,0,0,1,1,1,1,1,1,1,1,1,1,1,1,11,12,117,space,4.342533600000024,None,1,0,4.859254399999372,None,,,,0,1,1,0,0,7,7,4,,,,,241.50398380000024,,,,,,,,,,,,,,,,,,,,,241.48831810000047,241.50398380000024,241.98762429999988,241.99247970000033,242.00933799999984,246.88604490000034,1,0,4.859254399999372,None,246.88623459999963,246.90159419999964,247.10153360000004,247.08537249999972,242.00933799999984,,,,,,,,,,,,,,,,,,,887,21,M,R,2026-02-18_12h38.42.947,VisualSearch_2526_3,,2025.2.4,2026-02-18 12h38.43.140249 +0100,
tilted.xlsx,The target is tilted.,117,0,0,0,1,1,1,1,1,1,1,1,1,1,1,1,0,11,12,117,space,4.342533600000024,None,1,1,0.5854763999996067,None,space,2.4629758000000948,None,0,1,1,0,,,,,0,0,0,0,249.5952352000004,,,,,,,,,,,,,,,,,,,,,249.59143589999985,249.5952352000004,250.08383070000036,250.0887544999996,250.10149439999986,250.70052060000035,,,,,250.70066550000047,250.7161358000003,250.9161653000001,250.90051740000035,,247.09243510000033,247.10153360000004,247.10153360000004,249.5677999999998,space,2.4629758000000948,None,1,1,0.5854763999996067,None,,,,,,,,887,21,M,R,2026-02-18_12h38.42.947,VisualSearch_2526_3,,2025.2.4,2026-02-18 12h38.43.140249 +0100,
tilted.xlsx,The target is tilted.,117,1,1,0,0,1,1,1,0,0,0,0,0,0,0,0,1,3,4,117,space,4.342533600000024,None,0,1,0.8618502999997872,None,space,2.4629758000000948,None,0,1,1,0,,,,,0,1,1,6,250.9161653000001,,,,,,,,,,,,,,,,,,,,,250.90131689999998,250.9161653000001,251.40022299999964,251.40496640000038,251.42068990000007,252.29989730000034,,,,,252.30009260000043,252.31562050000048,252.5157591999996,252.49948349999977,251.42068990000007,,,,,,,,0,1,0.8618502999997872,None,,,,,,,,887,21,M,R,2026-02-18_12h38.42.947,VisualSearch_2526_3,,2025.2.4,2026-02-18 12h38.43.140249 +0100,
tilted.xlsx,The target is tilted.,117,2,2,0,0,1,1,1,1,1,1,1,1,1,1,1,1,11,12,117,space,4.342533600000024,None,1,0,1.2757824999998775,None,space,2.4629758000000948,None,0,1,1,0,,,,,0,2,2,4,252.5157591999996,,,,,,,,,,,,,,,,,,,,,252.50023750000037,252.5157591999996,252.99932239999998,253.00419409999995,253.01788289999968,254.29908400000022,,,,,254.29925900000035,254.31474530000014,254.5149265,254.4989956999998,253.01788289999968,,,,,,,,1,0,1.2757824999998775,None,,,,,,,,887,21,M,R,2026-02-18_12h38.42.947,VisualSearch_2526_3,,2025.2.4,2026-02-18 12h38.43.140249 +0100,
tilted.xlsx,The target is tilted.,117,3,3,0,0,1,1,1,1,1,1,1,0,0,0,0,1,7,8,117,space,4.342533600000024,None,1,0,1.9957642999997915,None,space,2.4629758000000948,None,0,1,1,0,,,,,0,3,3,5,254.5149265,,,,,,,,,,,,,,,,,,,,,254.49982329999966,254.5149265,254.9984231999997,255.0031108000003,255.0168096999996,257.0147453999998,,,,,257.0149529999999,257.0299907999997,257.22973770000044,257.21358359999977,255.0168096999996,,,,,,,,1,0,1.9957642999997915,None,,,,,,,,887,21,M,R,2026-02-18_12h38.42.947,VisualSearch_2526_3,,2025.2.4,2026-02-18 12h38.43.140249 +0100,
tilted.xlsx,The target is tilted.,117,4,4,0,1,0,0,0,0,0,0,0,0,0,0,0,0,0,1,117,space,4.342533600000024,None,1,1,0.6108926999995674,None,space,2.4629758000000948,None,0,1,1,0,,,,,0,4,4,3,257.22973770000044,,,,,,,,,,,,,,,,,,,,,257.21422989999974,257.22973770000044,257.7129119000001,257.71496000000025,257.72968180000044,258.34713740000007,,,,,258.34729700000025,258.3625479000002,258.56296310000016,258.5466077000001,257.72968180000044,,,,,,,,1,1,0.6108926999995674,None,,,,,,,,887,21,M,R,2026-02-18_12h38.42.947,VisualSearch_2526_3,,2025.2.4,2026-02-18 12h38.43.140249 +0100,
tilted.xlsx,The target is tilted.,117,5,5,0,1,1,1,1,0,0,0,0,0,0,0,0,0,3,4,117,space,4.342533600000024,None,1,1,0.5872384000003876,None,space,2.4629758000000948,None,0,1,1,0,,,,,0,5,5,2,258.56296310000016,,,,,,,,,,,,,,,,,,,,,258.5473926000004,258.56296310000016,259.0464613000004,259.0512246999997,259.06694659999994,259.6636301999997,,,,,259.66382239999984,259.6787685999998,259.87918079999963,259.86280090000037,259.06694659999994,,,,,,,,1,1,0.5872384000003876,None,,,,,,,,887,21,M,R,2026-02-18_12h38.42.947,VisualSearch_2526_3,,2025.2.4,2026-02-18 12h38.43.140249 +0100,
tilted.xlsx,The target is tilted.,117,6,6,0,1,1,1,1,1,1,1,1,0,0,0,0,0,7,8,117,space,4.342533600000024,None,1,1,0.6763548999997511,None,space,2.4629758000000948,None,0,1,1,0,,,,,0,6,6,1,259.87918079999963,,,,,,,,,,,,,,,,,,,,,259.8635285999999,259.87918079999963,260.3626393000004,260.36742500000037,260.3828113999998,261.0625750999998,,,,,261.0628022000001,261.07842020000044,261.2783962000003,261.2622110000002,260.3828113999998,,,,,,,,1,1,0.6763548999997511,None,,,,,,,,887,21,M,R,2026-02-18_12h38.42.947,VisualSearch_2526_3,,2025.2.4,2026-02-18 12h38.43.140249 +0100,
tilted.xlsx,The target is tilted.,117,7,7,0,0,0,0,0,0,0,0,0,0,0,0,0,1,1,1,117,space,4.342533600000024,None,0,1,0.8146261000001687,None,space,2.4629758000000948,None,0,1,1,0,,,,,0,7,7,7,261.2783962000003,,,,,,,,,,,,,,,,,,,,,261.2629882000001,261.2783962000003,261.7618206999996,261.7672266999998,261.78208300000006,262.61180930000046,,,,,262.61197189999984,262.6274075000001,262.82764829999996,262.8115267000003,261.78208300000006,,,,,,,,0,1,0.8146261000001687,None,,,,,,,,887,21,M,R,2026-02-18_12h38.42.947,VisualSearch_2526_3,,2025.2.4,2026-02-18 12h38.43.140249 +0100,
tilted.xlsx,The target is tilted.,117,8,0,1,0,1,1,1,0,0,0,0,0,0,0,0,1,3,4,117,space,4.342533600000024,None,0,1,0.9856317999992825,None,space,2.4629758000000948,None,0,1,1,0,,,,,1,0,8,6,262.82764829999996,,,,,,,,,,,,,,,,,,,,,262.81232230000023,262.82764829999996,263.31136679999963,263.3160872999997,263.3313569000002,264.3278842999998,,,,,264.3280531999999,264.34327550000035,264.54364689999966,264.52706339999986,263.3313569000002,,,,,,,,0,1,0.9856317999992825,None,,,,,,,,887,21,M,R,2026-02-18_12h38.42.947,VisualSearch_2526_3,,2025.2.4,2026-02-18 12h38.43.140249 +0100,
tilted.xlsx,The target is tilted.,117,9,1,1,1,0,0,0,0,0,0,0,0,0,0,0,0,0,1,117,space,4.342533600000024,None,1,1,0.6906158000001597,None,space,2.4629758000000948,None,0,1,1,0,,,,,1,1,9,3,264.54364689999966,,,,,,,,,,,,,,,,,,,,,264.52784880000036,264.54364689999966,265.02700970000024,265.0319956000003,265.0467332999997,265.74412589999974,,,,,265.7443142000002,265.7593522999996,265.95962750000035,265.94348770000033,265.0467332999997,,,,,,,,1,1,0.6906158000001597,None,,,,,,,,887,21,M,R,2026-02-18_12h38.42.947,VisualSearch_2526_3,,2025.2.4,2026-02-18 12h38.43.140249 +0100,
tilted.xlsx,The target is tilted.,117,10,2,1,1,1,1,1,1,1,1,1,0,0,0,0,0,7,8,117,space,4.342533600000024,None,1,1,0.5764915999998266,None,space,2.4629758000000948,None,0,1,1,0,,,,,1,2,10,1,265.95962750000035,,,,,,,,,,,,,,,,,,,,,265.9442503,265.95962750000035,266.44326720000026,266.44799150000017,266.46378989999994,267.0431515,,,,,267.04328350000014,267.05893749999996,267.25902440000027,267.24291559999983,266.46378989999994,,,,,,,,1,1,0.5764915999998266,None,,,,,,,,887,21,M,R,2026-02-18_12h38.42.947,VisualSearch_2526_3,,2025.2.4,2026-02-18 12h38.43.140249 +0100,
tilted.xlsx,The target is tilted.,117,11,3,1,0,1,1,1,1,1,1,1,0,0,0,0,1,7,8,117,space,4.342533600000024,None,0,1,2.6821380999999747,None,space,2.4629758000000948,None,0,1,1,0,,,,,1,3,11,5,267.25902440000027,,,,,,,,,,,,,,,,,,,,,267.2436660000003,267.25902440000027,267.7426674999997,267.7475277000003,267.76267970000026,270.45815049999965,,,,,270.4583223999998,270.4738231000001,270.6741745999998,270.6580329999997,267.76267970000026,,,,,,,,0,1,2.6821380999999747,None,,,,,,,,887,21,M,R,2026-02-18_12h38.42.947,VisualSearch_2526_3,,2025.2.4,2026-02-18 12h38.43.140249 +0100,
tilted.xlsx,The target is tilted.,117,12,4,1,0,0,0,0,0,0,0,0,0,0,0,0,1,1,1,117,space,4.342533600000024,None,0,1,0.6407761000000392,None,space,2.4629758000000948,None,0,1,1,0,,,,,1,4,12,7,270.6741745999998,,,,,,,,,,,,,,,,,,,,,270.65889049999987,270.6741745999998,271.15771419999965,271.16246539999975,271.17750499999966,271.82472039999993,,,,,271.82492120000006,271.84007480000037,272.04022480000003,272.0240369000003,271.17750499999966,,,,,,,,0,1,0.6407761000000392,None,,,,,,,,887,21,M,R,2026-02-18_12h38.42.947,VisualSearch_2526_3,,2025.2.4,2026-02-18 12h38.43.140249 +0100,
tilted.xlsx,The target is tilted.,117,13,5,1,0,1,1,1,1,1,1,1,1,1,1,1,1,11,12,117,space,4.342533600000024,None,0,1,2.437347099999897,None,space,2.4629758000000948,None,0,1,1,0,,,,,1,5,13,4,272.04022480000003,,,,,,,,,,,,,,,,,,,,,272.0248018000002,272.04022480000003,272.52375889999985,272.52857049999966,272.54434820000006,274.98986909999985,,,,,274.9900023,275.00538640000013,275.20538769999985,275.18919579999965,272.54434820000006,,,,,,,,0,1,2.437347099999897,None,,,,,,,,887,21,M,R,2026-02-18_12h38.42.947,VisualSearch_2526_3,,2025.2.4,2026-02-18 12h38.43.140249 +0100,
tilted.xlsx,The target is tilted.,117,14,6,1,1,1,1,1,1,1,1,1,1,1,1,1,0,11,12,117,space,4.342533600000024,None,1,1,1.1394445999994787,None,space,2.4629758000000948,None,0,1,1,0,,,,,1,6,14,0,275.20538769999985,,,,,,,,,,,,,,,,,,,,,275.1899491000004,275.20538769999985,275.6890376000001,275.6937276999997,275.7102162000001,276.85580500000015,,,,,276.85599230000025,276.8713975999999,277.07122140000047,277.05480330000046,275.7102162000001,,,,,,,,1,1,1.1394445999994787,None,,,,,,,,887,21,M,R,2026-02-18_12h38.42.947,VisualSearch_2526_3,,2025.2.4,2026-02-18 12h38.43.140249 +0100,
tilted.xlsx,The target is tilted.,117,15,7,1,1,1,1,1,0,0,0,0,0,0,0,0,0,3,4,117,space,4.342533600000024,None,1,1,0.5632368000005954,None,space,2.4629758000000948,None,0,1,1,0,,,,,1,7,15,2,277.07122140000047,,,,,,,,,,,,,,,,,,,,,277.0553153999999,277.07122140000047,277.5551397999998,277.5602726999996,277.57575780000025,278.1547833000004,,,,,278.1549291000001,278.1702296000003,278.3706466000003,278.3545270000004,277.57575780000025,,,,,,,,1,1,0.5632368000005954,None,,,,,,,,887,21,M,R,2026-02-18_12h38.42.947,VisualSearch_2526_3,,2025.2.4,2026-02-18 12h38.43.140249 +0100,
tilted.xlsx,The target is tilted.,117,16,0,2,1,0,0,0,0,0,0,0,0,0,0,0,0,0,1,117,space,4.342533600000024,None,1,1,0.5859373000002961,None,space,2.4629758000000948,None,0,1,1,0,,,,,2,0,16,3,278.3706466000003,,,,,,,,,,,,,,,,,,,,,278.35528390000036,278.3706466000003,278.8543176000003,278.85913340000025,278.8744164999998,279.4707838000004,,,,,279.4709257000004,279.48661059999995,279.6864720000003,279.6708681,278.8744164999998,,,,,,,,1,1,0.5859373000002961,None,,,,,,,,887,21,M,R,2026-02-18_12h38.42.947,VisualSearch_2526_3,,2025.2.4,2026-02-18 12h38.43.140249 +0100,
tilted.xlsx,The target is tilted.,117,17,1,2,0,1,1,1,1,1,1,1,1,1,1,1,1,11,12,117,space,4.342533600000024,None,1,0,6.535790300000372,None,space,2.4629758000000948,None,0,1,1,0,,,,,2,1,17,4,279.6864720000003,,,,,,,,,,,,,,,,,,,,,279.6716789000002,279.6864720000003,280.1704074999998,280.17514649999976,280.1905995999996,286.73463830000037,,,,,286.73482839999997,286.74983410000004,286.94996939999965,286.9338952999997,280.1905995999996,,,,,,,,1,0,6.535790300000372,None,,,,,,,,887,21,M,R,2026-02-18_12h38.42.947,VisualSearch_2526_3,,2025.2.4,2026-02-18 12h38.43.140249 +0100,
tilted.xlsx,The target is tilted.,117,18,2,2,1,1,1,1,1,1,1,1,0,0,0,0,0,7,8,117,space,4.342533600000024,None,0,0,1.9066831000000093,None,space,2.4629758000000948,None,0,1,1,0,,,,,2,2,18,1,286.94996939999965,,,,,,,,,,,,,,,,,,,,,286.93468759999996,286.94996939999965,287.4338150000003,287.43866400000024,287.45438939999985,289.36646329999985,,,,,289.3666350000003,289.38221499999963,289.5822916999996,289.56631319999997,287.45438939999985,,,,,,,,0,0,1.9066831000000093,None,,,,,,,,887,21,M,R,2026-02-18_12h38.42.947,VisualSearch_2526_3,,2025.2.4,2026-02-18 12h38.43.140249 +0100,
tilted.xlsx,The target is tilted.,117,19,3,2,1,1,1,1,0,0,0,0,0,0,0,0,0,3,4,117,space,4.342533600000024,None,1,1,0.8792097999994439,None,space,2.4629758000000948,None,0,1,1,0,,,,,2,3,19,2,289.5822916999996,,,,,,,,,,,,,,,,,,,,,289.5672066999996,289.5822916999996,290.06585619999987,290.0706022000004,290.0856868999999,290.9820195000002,,,,,290.9821308999999,290.9981791,291.19811649999974,291.18201580000004,290.0856868999999,,,,,,,,1,1,0.8792097999994439,None,,,,,,,,887,21,M,R,2026-02-18_12h38.42.947,VisualSearch_2526_3,,2025.2.4,2026-02-18 12h38.43.140249 +0100,
tilted.xlsx,The target is tilted.,117,20,4,2,0,1,1,1,0,0,0,0,0,0,0,0,1,3,4,117,space,4.342533600000024,None,0,1,0.9662121000001207,None,space,2.4629758000000948,None,0,1,1,0,,,,,2,4,20,6,291.19811649999974,,,,,,,,,,,,,,,,,,,,,291.18281540000044,291.19811649999974,291.6820889999999,291.68758069999967,291.70191309999973,292.68189689999963,,,,,292.68208760000016,292.6974616999996,292.8973807000002,292.88127689999965,291.70191309999973,,,,,,,,0,1,0.9662121000001207,None,,,,,,,,887,21,M,R,2026-02-18_12h38.42.947,VisualSearch_2526_3,,2025.2.4,2026-02-18 12h38.43.140249 +0100,
tilted.xlsx,The target is tilted.,117,21,5,2,1,1,1,1,1,1,1,1,1,1,1,1,0,11,12,117,space,4.342533600000024,None,1,1,2.3292645000001357,None,space,2.4629758000000948,None,0,1,1,0,,,,,2,5,21,0,292.8973807000002,,,,,,,,,,,,,,,,,,,,,292.88203729999987,292.8973807000002,293.3810563999996,293.3859206999996,293.4005256999999,295.7460794999997,,,,,295.7461708000001,295.76259649999974,,295.94629480000003,293.4005256999999,,,,,,,,1,1,2.3292645000001357,None,,,,,,,,887,21,M,R,2026-02-18_12h38.42.947,VisualSearch_2526_3,,2025.2.4,2026-02-18 12h38.43.140249 +0100,
tilted.xlsx,The target is tilted.,117,22,6,2,0,1,1,1,1,1,1,1,0,0,0,0,1,7,8,117,space,4.342533600000024,None,0,1,2.070710300000428,None,space,2.4629758000000948,None,0,1,1,0,,,,,2,6,22,5,295.96271350000006,,,,,,,,,,,,,,,,,,,,,295.9470825999997,295.96271350000006,296.4463095000001,296.4516678,296.46650769999997,298.5456101999998,,,,,298.5457993,298.5613622999999,298.7612978999996,298.74496160000035,,,,,,,,,0,1,2.070710300000428,None,,,,,,,,887,21,M,R,2026-02-18_12h38.42.947,VisualSearch_2526_3,,2025.2.4,2026-02-18 12h38.43.140249 +0100,
tilted.xlsx,The target is tilted.,117,23,7,2,0,0,0,0,0,0,0,0,0,0,0,0,1,1,1,117,space,4.342533600000024,None,0,1,0.8870477999998911,None,space,2.4629758000000948,None,0,1,1,0,,,,,2,7,23,7,298.7612978999996,,,,,,,,,,,,,,,,,,,,,298.74571769999966,298.7612978999996,299.2452137,299.2502205999999,299.2652664999996,300.1619461999999,,,,,300.16214070000024,300.17739020000045,300.3769529000001,300.3609660000002,299.2652664999996,,,,,,,,0,1,0.8870477999998911,None,,,,,,,,887,21,M,R,2026-02-18_12h38.42.947,VisualSearch_2526_3,,2025.2.4,2026-02-18 12h38.43.140249 +0100,
tilted.xlsx,The target is tilted.,117,24,0,3,0,1,1,1,1,1,1,1,1,1,1,1,1,11,12,117,space,4.342533600000024,None,0,1,3.35847879999983,None,space,2.4629758000000948,None,0,1,1,0,,,,,3,0,24,4,300.3769529000001,,,,,,,,,,,,,,,,,,,,,300.3616965000001,300.3769529000001,300.8610636000003,300.86568199999965,300.8769100999998,304.24321640000016,,,,,304.24340180000036,304.2588598000002,304.4588227000004,304.4426721,300.8769100999998,,,,,,,,0,1,3.35847879999983,None,,,,,,,,887,21,M,R,2026-02-18_12h38.42.947,VisualSearch_2526_3,,2025.2.4,2026-02-18 12h38.43.140249 +0100,
tilted.xlsx,The target is tilted.,117,25,1,3,0,1,1,1,1,1,1,1,0,0,0,0,1,7,8,117,space,4.342533600000024,None,0,1,3.3273825000005672,None,space,2.4629758000000948,None,0,1,1,0,,,,,3,1,25,5,304.4588227000004,,,,,,,,,,,,,,,,,,,,,304.4434564000003,304.4588227000004,304.9421060000004,304.9468428,304.96173369999997,308.2911081000002,,,,,308.29127940000035,308.3070209999996,308.5069727,308.49081959999967,304.96173369999997,,,,,,,,0,1,3.3273825000005672,None,,,,,,,,887,21,M,R,2026-02-18_12h38.42.947,VisualSearch_2526_3,,2025.2.4,2026-02-18 12h38.43.140249 +0100,
tilted.xlsx,The target is tilted.,117,26,2,3,1,1,1,1,1,1,1,1,0,0,0,0,0,7,8,117,space,4.342533600000024,None,1,1,2.2223172000003615,None,space,2.4629758000000948,None,0,1,1,0,,,,,3,2,26,1,308.5069727,,,,,,,,,,,,,,,,,,,,,308.4915884000002,308.5069727,308.99053230000027,308.99532309999995,309.01022009999997,311.2396891999997,,,,,311.23982309999974,311.2555504000002,311.45563349999975,311.43912610000007,309.01022009999997,,,,,,,,1,1,2.2223172000003615,None,,,,,,,,887,21,M,R,2026-02-18_12h38.42.947,VisualSearch_2526_3,,2025.2.4,2026-02-18 12h38.43.140249 +0100,
tilted.xlsx,The target is tilted.,117,27,3,3,0,1,1,1,0,0,0,0,0,0,0,0,1,3,4,117,space,4.342533600000024,None,0,1,1.257627599999978,None,space,2.4629758000000948,None,0,1,1,0,,,,,3,3,27,6,311.45563349999975,,,,,,,,,,,,,,,,,,,,,311.4398634999998,311.45563349999975,311.9392810999998,311.94411430000036,311.9579698999996,313.2226158000003,,,,,313.2228388000003,313.23818889999984,313.43804290000026,313.4219527000005,311.9579698999996,,,,,,,,0,1,1.257627599999978,None,,,,,,,,887,21,M,R,2026-02-18_12h38.42.947,VisualSearch_2526_3,,2025.2.4,2026-02-18 12h38.43.140249 +0100,
tilted.xlsx,The target is tilted.,117,28,4,3,1,1,1,1,1,1,1,1,1,1,1,1,0,11,12,117,space,4.342533600000024,None,0,0,3.327624000000469,None,space,2.4629758000000948,None,0,1,1,0,,,,,3,4,28,0,313.43804290000026,,,,,,,,,,,,,,,,,,,,,313.4227742000003,313.43804290000026,313.9217660000004,313.9272874999997,313.94431429999986,317.2865912999996,,,,,317.28672220000044,317.30256139999983,317.50294360000044,317.48651340000015,313.94431429999986,,,,,,,,0,0,3.327624000000469,None,,,,,,,,887,21,M,R,2026-02-18_12h38.42.947,VisualSearch_2526_3,,2025.2.4,2026-02-18 12h38.43.140249 +0100,
tilted.xlsx,The target is tilted.,117,29,5,3,1,1,1,1,0,0,0,0,0,0,0,0,0,3,4,117,space,4.342533600000024,None,0,0,1.4476730999995198,None,space,2.4629758000000948,None,0,1,1,0,,,,,3,5,29,2,317.50294360000044,,,,,,,,,,,,,,,,,,,,,317.48724349999975,317.50294360000044,317.9864510999996,317.99120849999963,318.0077760000004,319.46957850000035,,,,,319.4697016,319.48491730000023,319.6853358999997,319.66903639999964,318.0077760000004,,,,,,,,0,0,1.4476730999995198,None,,,,,,,,887,21,M,R,2026-02-18_12h38.42.947,VisualSearch_2526_3,,2025.2.4,2026-02-18 12h38.43.140249 +0100,
tilted.xlsx,The target is tilted.,117,30,6,3,1,0,0,0,0,0,0,0,0,0,0,0,0,0,1,117,space,4.342533600000024,None,1,1,0.9813813000000664,None,space,2.4629758000000948,None,0,1,1,0,,,,,3,6,30,3,319.6853358999997,,,,,,,,,,,,,,,,,,,,,319.6698051000003,319.6853358999997,320.1689330999998,320.17381660000046,320.19015240000044,321.18575990000045,,,,,321.1859754999996,321.2008429999996,321.4011295999999,321.3851727000001,320.19015240000044,,,,,,,,1,1,0.9813813000000664,None,,,,,,,,887,21,M,R,2026-02-18_12h38.42.947,VisualSearch_2526_3,,2025.2.4,2026-02-18 12h38.43.140249 +0100,
tilted.xlsx,The target is tilted.,117,31,7,3,0,0,0,0,0,0,0,0,0,0,0,0,1,1,1,117,space,4.342533600000024,None,0,1,0.6670465000006516,None,space,2.4629758000000948,None,0,1,1,0,,,,,3,7,31,7,321.4011295999999,,,,,,,,,,,,,,,,,,,,,321.3859872000003,321.4011295999999,321.88437330000033,321.8864311999996,321.90076690000024,322.5846373000004,,,,,322.58477089999997,322.6005003,322.8005208000004,322.78435379999974,321.90076690000024,,,,,,,,0,1,0.6670465000006516,None,,,,,,,,887,21,M,R,2026-02-18_12h38.42.947,VisualSearch_2526_3,,2025.2.4,2026-02-18 12h38.43.140249 +0100,
tilted.xlsx,The target is tilted.,117,32,0,4,0,1,1,1,1,1,1,1,1,1,1,1,1,11,12,117,space,4.342533600000024,None,0,1,4.29088210000009,None,space,2.4629758000000948,None,0,1,1,0,,,,,4,0,32,4,322.8005208000004,,,,,,,,,,,,,,,,,,,,,322.7851128000002,322.8005208000004,323.28418799999963,323.28902279999966,323.3042396000001,327.59907079999994,,,,,327.59927960000005,327.61496369999986,327.8145334999999,327.7990614999999,323.3042396000001,,,,,,,,0,1,4.29088210000009,None,,,,,,,,887,21,M,R,2026-02-18_12h38.42.947,VisualSearch_2526_3,,2025.2.4,2026-02-18 12h38.43.140249 +0100,
tilted.xlsx,The target is tilted.,117,33,1,4,1,0,0,0,0,0,0,0,0,0,0,0,0,0,1,117,space,4.342533600000024,None,1,1,0.6556797000002916,None,space,2.4629758000000948,None,0,1,1,0,,,,,4,1,33,3,327.8145334999999,,,,,,,,,,,,,,,,,,,,,327.79985829999987,327.8145334999999,328.29855080000016,328.3033991000002,328.3198646000001,328.9820797000002,,,,,328.98226950000026,328.9975900999998,329.19761279999966,329.1814850999999,328.3198646000001,,,,,,,,1,1,0.6556797000002916,None,,,,,,,,887,21,M,R,2026-02-18_12h38.42.947,VisualSearch_2526_3,,2025.2.4,2026-02-18 12h38.43.140249 +0100,
