file_name,block_instructions,target_example,thisN,thisTrialN,thisRepN,target_presence,opacity_1,opacity_2,opacity_3,opacity_4,opacity_5,opacity_6,opacity_7,opacity_8,opacity_9,opacity_10,opacity_11,opacity_12,n_distract,n_items,target_ori,key_resp_4.keys,key_resp_4.rt,key_resp_4.duration,key_resp.keys,key_resp.corr,key_resp.rt,key_resp.duration,key_resp_5.keys,key_resp_5.rt,key_resp_5.duration,blocks.thisRepN,blocks.thisTrialN,blocks.thisN,blocks.thisIndex,practice_trials.thisRepN,practice_trials.thisTrialN,practice_trials.thisN,practice_trials.thisIndex,trials.thisRepN,trials.thisTrialN,trials.thisN,trials.thisIndex,thisRow.t,notes,Welcome.started,WelcomeText.started,key_resp_2.started,Welcome.stopped,key_resp_2.keys,key_resp_2.rt,key_resp_2.duration,InformedConsent.started,text_4.started,InformedConsent.stopped,key_resp_6.keys,key_resp_6.rt,key_resp_6.duration,key_resp_4.started,example_target.started,text_3.started,blocks.key_resp_4.keys,blocks.key_resp_4.rt,blocks.key_resp_4.duration,FixCross.started,fixCross.started,FixCross.stopped,Stimulus.started,key_resp.started,Stimulus.stopped,practice_trials.key_resp.keys,practice_trials.key_resp.corr,practice_trials.key_resp.rt,practice_trials.key_resp.duration,BlankScreen.started,text.started,text.stopped,BlankScreen.stopped,fixCross.stopped,ExperimentStart.started,text_2.started,key_resp_5.started,ExperimentStart.stopped,blocks.key_resp_5.keys,blocks.key_resp_5.rt,blocks.key_resp_5.duration,trials.key_resp.keys,trials.key_resp.corr,trials.key_resp.rt,trials.key_resp.duration,Thanks.started,ThankYou.started,key_resp_3.started,Thanks.stopped,key_resp_3.keys,key_resp_3.rt,key_resp_3.duration,participant,leeftijd,gender,links/rechtshandig,date,expName,expVersion,psychopyVersion,expStart,
,,,,,,,,,,,,,,,,,,,,,,,,,,,,,,,,,,,,,,,,,,,,,,0.03440409999984695,0.04509859999961918,0.04509859999961918,34.6821031999998,space,34.60767719999967,None,,,,,,,,,,,,,,,,,,,,,,,,,,,,,,,,,,,,,,,,,,,,,,888,23,M,R,2026-02-25_12h04.22.781,VisualSearch_2526_3,,2025.2.4,2026-02-25 12h04.23.000318 +0100,
,,,,,,,,,,,,,,,,,,,,,,,,,,,,,,,,,,,,,,,,,,,,,,,,,,,,,34.68219680000038,34.68948300000011,46.362147699999696,y,11.667268799999874,None,,,,,,,,,,,,,,,,,,,,,,,,,,,,,,,,,,,,,,,,888,23,M,R,2026-02-25_12h04.22.781,VisualSearch_2526_3,,2025.2.4,2026-02-25 12h04.23.000318 +0100,
tilted.xlsx,The target is tilted.,117,0,0,0,1,1,1,1,0,0,0,0,0,0,0,0,0,3,4,117,space,4.892468299999564,None,1,1,1.132497799999328,None,,,,0,0,0,0,0,0,0,2,,,,,51.3404031,,,,,,,,,,,,,,,46.40634979999959,46.40634979999959,46.40634979999959,space,4.892468299999564,None,51.33493060000001,51.3404031,51.82517569999982,51.829874299999574,51.848984299999756,52.99215230000027,1,1,1.132497799999328,None,52.99234820000038,53.007764099999804,53.2076605000002,53.191460400000324,,,,,,,,,,,,,,,,,,,,888,23,M,R,2026-02-25_12h04.22.781,VisualSearch_2526_3,,2025.2.4,2026-02-25 12h04.23.000318 +0100,
tilted.xlsx,The target is tilted.,117,1,1,0,0,0,0,0,0,0,0,0,0,0,0,0,1,1,1,117,space,4.892468299999564,None,0,1,0.9636261000005106,None,,,,0,0,0,0,0,1,1,7,,,,,53.2076605000002,,,,,,,,,,,,,,,,,,,,,53.19217740000022,53.2076605000002,53.69100830000025,53.69555239999954,53.7133703999998,54.69081610000012,0,1,0.9636261000005106,None,54.69099069999993,54.70682140000008,54.906653000000006,54.89057119999961,53.7133703999998,,,,,,,,,,,,,,,,,,,888,23,M,R,2026-02-25_12h04.22.781,VisualSearch_2526_3,,2025.2.4,2026-02-25 12h04.23.000318 +0100,
tilted.xlsx,The target is tilted.,117,2,2,0,1,1,1,1,1,1,1,1,1,1,1,1,0,11,12,117,space,4.892468299999564,None,1,1,0.8624671000006856,None,,,,0,0,0,0,0,2,2,0,,,,,54.906653000000006,,,,,,,,,,,,,,,,,,,,,54.89122940000016,54.906653000000006,55.39047959999971,55.3950348999997,55.41120030000002,56.289954699999726,1,1,0.8624671000006856,None,56.29013289999966,56.30563509999956,56.50613689999955,56.48984970000038,55.41120030000002,,,,,,,,,,,,,,,,,,,888,23,M,R,2026-02-25_12h04.22.781,VisualSearch_2526_3,,2025.2.4,2026-02-25 12h04.23.000318 +0100,
tilted.xlsx,The target is tilted.,117,3,3,0,1,1,1,1,1,1,1,1,0,0,0,0,0,7,8,117,space,4.892468299999564,None,1,1,0.8639904999999999,None,,,,0,0,0,0,0,3,3,1,,,,,56.50613689999955,,,,,,,,,,,,,,,,,,,,,56.49060060000011,56.50613689999955,56.98969750000015,56.99422649999997,57.01043870000012,57.88913990000037,1,1,0.8639904999999999,None,57.889311500000076,57.904987099999744,58.10543880000023,58.08930020000025,57.01043870000012,,,,,,,,,,,,,,,,,,,888,23,M,R,2026-02-25_12h04.22.781,VisualSearch_2526_3,,2025.2.4,2026-02-25 12h04.23.000318 +0100,
tilted.xlsx,The target is tilted.,117,4,4,0,0,1,1,1,1,1,1,1,1,1,1,1,1,11,12,117,space,4.892468299999564,None,0,1,3.7967257000000245,None,,,,0,0,0,0,0,4,4,4,,,,,58.10543880000023,,,,,,,,,,,,,,,,,,,,,58.08994359999997,58.10543880000023,58.58916450000015,58.59378319999996,58.61056159999953,62.420799100000295,0,1,3.7967257000000245,None,62.42099450000023,62.43626049999966,62.63682179999978,62.62038829999983,58.61056159999953,,,,,,,,,,,,,,,,,,,888,23,M,R,2026-02-25_12h04.22.781,VisualSearch_2526_3,,2025.2.4,2026-02-25 12h04.23.000318 +0100,
tilted.xlsx,The target is tilted.,117,5,5,0,0,1,1,1,1,1,1,1,0,0,0,0,1,7,8,117,space,4.892468299999564,None,1,0,1.7104576000001543,None,,,,0,0,0,0,0,5,5,5,,,,,62.63682179999978,,,,,,,,,,,,,,,,,,,,,62.62104960000033,62.63682179999978,63.12043859999994,63.12570779999987,63.14515810000012,64.86905060000026,1,0,1.7104576000001543,None,64.86911899999996,64.88489870000012,65.0855031000001,65.06886740000027,63.14515810000012,,,,,,,,,,,,,,,,,,,888,23,M,R,2026-02-25_12h04.22.781,VisualSearch_2526_3,,2025.2.4,2026-02-25 12h04.23.000318 +0100,
tilted.xlsx,The target is tilted.,117,6,6,0,0,1,1,1,0,0,0,0,0,0,0,0,1,3,4,117,space,4.892468299999564,None,0,1,1.139715399999659,None,,,,0,0,0,0,0,6,6,6,,,,,65.0855031000001,,,,,,,,,,,,,,,,,,,,,65.06944990000011,65.0855031000001,65.56917760000033,65.57366699999966,65.59016539999993,66.73481999999967,0,1,1.139715399999659,None,66.73491379999996,66.75070340000002,,66.93503839999994,65.59016539999993,,,,,,,,,,,,,,,,,,,888,23,M,R,2026-02-25_12h04.22.781,VisualSearch_2526_3,,2025.2.4,2026-02-25 12h04.23.000318 +0100,
tilted.xlsx,The target is tilted.,117,7,7,0,1,0,0,0,0,0,0,0,0,0,0,0,0,0,1,117,space,4.892468299999564,None,1,1,0.7364072999998825,None,,,,0,0,0,0,0,7,7,3,,,,,66.95093189999989,,,,,,,,,,,,,,,,,,,,,66.9358271000001,66.95093189999989,67.43503710000005,67.4395969999996,67.45589599999948,68.20187249999981,1,1,0.7364072999998825,None,68.20206249999956,68.2169385999996,68.41748300000017,68.4012915000003,67.45589599999948,,,,,,,,,,,,,,,,,,,888,23,M,R,2026-02-25_12h04.22.781,VisualSearch_2526_3,,2025.2.4,2026-02-25 12h04.23.000318 +0100,
tilted.xlsx,The target is tilted.,117,0,0,0,0,1,1,1,1,1,1,1,0,0,0,0,1,7,8,117,space,4.892468299999564,None,1,0,2.407402799999545,None,space,2.9441352999992887,None,0,0,0,0,,,,,0,0,0,5,71.39862840000023,,,,,,,,,,,,,,,,,,,,,71.39419050000015,71.39862840000023,71.88271290000012,71.88741719999962,71.9055828999999,74.31553290000011,,,,,74.3157441000003,74.33082259999992,74.53099480000037,74.51497319999999,,68.40828090000014,68.41748300000017,68.41748300000017,71.3668447,space,2.9441352999992887,None,1,0,2.407402799999545,None,,,,,,,,888,23,M,R,2026-02-25_12h04.22.781,VisualSearch_2526_3,,2025.2.4,2026-02-25 12h04.23.000318 +0100,
tilted.xlsx,The target is tilted.,117,1,1,0,0,1,1,1,1,1,1,1,1,1,1,1,1,11,12,117,space,4.892468299999564,None,1,0,1.5551172000004954,None,space,2.9441352999992887,None,0,0,0,0,,,,,0,1,1,4,74.53099480000037,,,,,,,,,,,,,,,,,,,,,74.51571039999999,74.53099480000037,75.01503369999955,75.0197164000001,75.03444870000021,76.59733729999971,,,,,76.5974484999997,76.61293169999954,76.81356549999964,76.79722299999958,75.03444870000021,,,,,,,,1,0,1.5551172000004954,None,,,,,,,,888,23,M,R,2026-02-25_12h04.22.781,VisualSearch_2526_3,,2025.2.4,2026-02-25 12h04.23.000318 +0100,
tilted.xlsx,The target is tilted.,117,2,2,0,1,1,1,1,0,0,0,0,0,0,0,0,0,3,4,117,space,4.892468299999564,None,1,1,0.8139540000001944,None,space,2.9441352999992887,None,0,0,0,0,,,,,0,2,2,2,76.81356549999964,,,,,,,,,,,,,,,,,,,,,76.7979749999995,76.81356549999964,77.29724429999987,77.3018291999997,77.31878030000007,78.14662630000021,,,,,78.14682879999964,78.16252239999994,78.36292150000008,78.34686450000027,77.31878030000007,,,,,,,,1,1,0.8139540000001944,None,,,,,,,,888,23,M,R,2026-02-25_12h04.22.781,VisualSearch_2526_3,,2025.2.4,2026-02-25 12h04.23.000318 +0100,
tilted.xlsx,The target is tilted.,117,3,3,0,1,1,1,1,1,1,1,1,0,0,0,0,0,7,8,117,space,4.892468299999564,None,1,1,1.2291159000005791,None,space,2.9441352999992887,None,0,0,0,0,,,,,0,3,3,1,78.36292150000008,,,,,,,,,,,,,,,,,,,,,78.3476099999998,78.36292150000008,78.84645170000022,78.85100090000014,78.8673560999996,80.11204220000036,,,,,80.11218370000006,80.12810790000003,80.32820009999978,80.31234039999981,78.8673560999996,,,,,,,,1,1,1.2291159000005791,None,,,,,,,,888,23,M,R,2026-02-25_12h04.22.781,VisualSearch_2526_3,,2025.2.4,2026-02-25 12h04.23.000318 +0100,
tilted.xlsx,The target is tilted.,117,4,4,0,1,0,0,0,0,0,0,0,0,0,0,0,0,0,1,117,space,4.892468299999564,None,1,1,0.5348259000002145,None,space,2.9441352999992887,None,0,0,0,0,,,,,0,4,4,3,80.32820009999978,,,,,,,,,,,,,,,,,,,,,80.3130530999997,80.32820009999978,80.81229759999951,80.81684330000007,80.83261029999994,81.37838159999956,,,,,81.37852449999991,81.39423329999954,81.59384690000024,81.5780378999998,80.83261029999994,,,,,,,,1,1,0.5348259000002145,None,,,,,,,,888,23,M,R,2026-02-25_12h04.22.781,VisualSearch_2526_3,,2025.2.4,2026-02-25 12h04.23.000318 +0100,
tilted.xlsx,The target is tilted.,117,5,5,0,0,1,1,1,0,0,0,0,0,0,0,0,1,3,4,117,space,4.892468299999564,None,0,1,1.364392399999815,None,space,2.9441352999992887,None,0,0,0,0,,,,,0,5,5,6,81.59384690000024,,,,,,,,,,,,,,,,,,,,,81.57874129999982,81.59384690000024,82.07730259999971,82.07886810000036,82.09374279999975,83.46142750000035,,,,,83.46163869999964,83.47676039999988,83.67726979999952,83.66104739999992,82.09374279999975,,,,,,,,0,1,1.364392399999815,None,,,,,,,,888,23,M,R,2026-02-25_12h04.22.781,VisualSearch_2526_3,,2025.2.4,2026-02-25 12h04.23.000318 +0100,
tilted.xlsx,The target is tilted.,117,6,6,0,0,0,0,0,0,0,0,0,0,0,0,0,1,1,1,117,space,4.892468299999564,None,0,1,0.6991907999999967,None,space,2.9441352999992887,None,0,0,0,0,,,,,0,6,6,7,83.67726979999952,,,,,,,,,,,,,,,,,,,,,83.6618711000001,83.67726979999952,84.1608811999995,84.16611560000001,84.18264360000012,84.89395809999951,,,,,84.89412670000002,84.90934019999986,85.10926589999963,85.09343650000028,84.18264360000012,,,,,,,,0,1,0.6991907999999967,None,,,,,,,,888,23,M,R,2026-02-25_12h04.22.781,VisualSearch_2526_3,,2025.2.4,2026-02-25 12h04.23.000318 +0100,
tilted.xlsx,The target is tilted.,117,7,7,0,1,1,1,1,1,1,1,1,1,1,1,1,0,11,12,117,space,4.892468299999564,None,0,0,4.082163099999889,None,space,2.9441352999992887,None,0,0,0,0,,,,,0,7,7,0,85.10926589999963,,,,,,,,,,,,,,,,,,,,,85.09425329999976,85.10926589999963,85.5936300000003,85.59853750000002,85.6146920000001,89.7088348999996,,,,,89.7090717000001,89.72378730000037,89.92424630000005,89.90809910000007,85.6146920000001,,,,,,,,0,0,4.082163099999889,None,,,,,,,,888,23,M,R,2026-02-25_12h04.22.781,VisualSearch_2526_3,,2025.2.4,2026-02-25 12h04.23.000318 +0100,
tilted.xlsx,The target is tilted.,117,8,0,1,0,1,1,1,1,1,1,1,0,0,0,0,1,7,8,117,space,4.892468299999564,None,0,1,3.324544199999764,None,space,2.9441352999992887,None,0,0,0,0,,,,,1,0,8,5,89.92424630000005,,,,,,,,,,,,,,,,,,,,,89.90927180000017,89.92424630000005,90.4075829000003,90.41226279999955,90.4291390999997,93.7570112000003,,,,,93.75723740000012,93.77198539999972,93.97243170000002,93.95632039999964,90.4291390999997,,,,,,,,0,1,3.324544199999764,None,,,,,,,,888,23,M,R,2026-02-25_12h04.22.781,VisualSearch_2526_3,,2025.2.4,2026-02-25 12h04.23.000318 +0100,
tilted.xlsx,The target is tilted.,117,9,1,1,1,1,1,1,1,1,1,1,1,1,1,1,0,11,12,117,space,4.892468299999564,None,1,1,3.1213909000007334,None,space,2.9441352999992887,None,0,0,0,0,,,,,1,1,9,0,93.97243170000002,,,,,,,,,,,,,,,,,,,,,93.95702509999956,93.97243170000002,94.45609100000001,94.46055760000036,94.47695550000026,97.60486599999967,,,,,97.60507150000012,97.62016659999972,97.82067009999992,97.80437540000003,94.47695550000026,,,,,,,,1,1,3.1213909000007334,None,,,,,,,,888,23,M,R,2026-02-25_12h04.22.781,VisualSearch_2526_3,,2025.2.4,2026-02-25 12h04.23.000318 +0100,
tilted.xlsx,The target is tilted.,117,10,2,1,1,1,1,1,1,1,1,1,0,0,0,0,0,7,8,117,space,4.892468299999564,None,1,1,1.799412299999858,None,space,2.9441352999992887,None,0,0,0,0,,,,,1,2,10,1,97.82067009999992,,,,,,,,,,,,,,,,,,,,,97.80511819999992,97.82067009999992,98.30433280000034,98.30883989999984,98.32678860000033,100.1373309999999,,,,,100.13753389999965,100.15238930000032,100.35285469999963,100.33673329999965,98.32678860000033,,,,,,,,1,1,1.799412299999858,None,,,,,,,,888,23,M,R,2026-02-25_12h04.22.781,VisualSearch_2526_3,,2025.2.4,2026-02-25 12h04.23.000318 +0100,
tilted.xlsx,The target is tilted.,117,11,3,1,0,1,1,1,0,0,0,0,0,0,0,0,1,3,4,117,space,4.892468299999564,None,0,1,1.3802745000002687,None,space,2.9441352999992887,None,0,0,0,0,,,,,1,3,11,6,100.35285469999963,,,,,,,,,,,,,,,,,,,,,100.33744380000007,100.35285469999963,100.83653119999963,100.84100330000001,100.85763839999981,102.2522839000003,,,,,102.25242749999961,102.26801609999984,102.4682815999995,102.45251689999986,100.85763839999981,,,,,,,,0,1,1.3802745000002687,None,,,,,,,,888,23,M,R,2026-02-25_12h04.22.781,VisualSearch_2526_3,,2025.2.4,2026-02-25 12h04.23.000318 +0100,
tilted.xlsx,The target is tilted.,117,12,4,1,1,0,0,0,0,0,0,0,0,0,0,0,0,0,1,117,space,4.892468299999564,None,1,1,0.6118274000000383,None,space,2.9441352999992887,None,0,0,0,0,,,,,1,4,12,3,102.4682815999995,,,,,,,,,,,,,,,,,,,,,102.45330290000038,102.4682815999995,102.95220439999957,102.95669220000036,102.9722314999999,103.58493290000024,,,,,103.58501710000019,103.6005312999996,103.80128450000029,103.78517039999952,102.9722314999999,,,,,,,,1,1,0.6118274000000383,None,,,,,,,,888,23,M,R,2026-02-25_12h04.22.781,VisualSearch_2526_3,,2025.2.4,2026-02-25 12h04.23.000318 +0100,
tilted.xlsx,The target is tilted.,117,13,5,1,0,1,1,1,1,1,1,1,1,1,1,1,1,11,12,117,space,4.892468299999564,None,0,1,5.3154248000000734,None,space,2.9441352999992887,None,0,0,0,0,,,,,1,5,13,4,103.80128450000029,,,,,,,,,,,,,,,,,,,,,103.78586809999979,103.80128450000029,104.28458090000004,104.28910339999948,104.30081419999988,109.63188730000002,,,,,109.63198209999973,109.64834830000018,109.84820639999998,109.83227170000009,104.30081419999988,,,,,,,,0,1,5.3154248000000734,None,,,,,,,,888,23,M,R,2026-02-25_12h04.22.781,VisualSearch_2526_3,,2025.2.4,2026-02-25 12h04.23.000318 +0100,
tilted.xlsx,The target is tilted.,117,14,6,1,1,1,1,1,0,0,0,0,0,0,0,0,0,3,4,117,space,4.892468299999564,None,1,1,0.7952690000001894,None,space,2.9441352999992887,None,0,0,0,0,,,,,1,6,14,2,109.84820639999998,,,,,,,,,,,,,,,,,,,,,109.83303689999957,109.84820639999998,110.33216089999951,110.33669110000028,110.35524110000006,111.16500639999958,,,,,111.16524209999989,111.18063830000028,111.3808595999999,111.36505120000038,110.35524110000006,,,,,,,,1,1,0.7952690000001894,None,,,,,,,,888,23,M,R,2026-02-25_12h04.22.781,VisualSearch_2526_3,,2025.2.4,2026-02-25 12h04.23.000318 +0100,
tilted.xlsx,The target is tilted.,117,15,7,1,0,0,0,0,0,0,0,0,0,0,0,0,1,1,1,117,space,4.892468299999564,None,0,1,0.6377881999997044,None,space,2.9441352999992887,None,0,0,0,0,,,,,1,7,15,7,111.3808595999999,,,,,,,,,,,,,,,,,,,,,111.3657876999996,111.3808595999999,111.86484519999976,111.86937000000034,111.88669560000017,112.53136939999968,,,,,112.5315787999998,112.54676730000028,112.74734910000006,112.73089660000005,111.88669560000017,,,,,,,,0,1,0.6377881999997044,None,,,,,,,,888,23,M,R,2026-02-25_12h04.22.781,VisualSearch_2526_3,,2025.2.4,2026-02-25 12h04.23.000318 +0100,
tilted.xlsx,The target is tilted.,117,16,0,2,0,1,1,1,0,0,0,0,0,0,0,0,1,3,4,117,space,4.892468299999564,None,0,1,0.962379200000214,None,space,2.9441352999992887,None,0,0,0,0,,,,,2,0,16,6,112.74734910000006,,,,,,,,,,,,,,,,,,,,,112.73162589999993,112.74734910000006,113.23083039999983,113.23543100000006,113.25354979999975,114.22969999999987,,,,,114.22983159999967,114.24627439999949,114.44611170000007,114.42989349999971,113.25354979999975,,,,,,,,0,1,0.962379200000214,None,,,,,,,,888,23,M,R,2026-02-25_12h04.22.781,VisualSearch_2526_3,,2025.2.4,2026-02-25 12h04.23.000318 +0100,
tilted.xlsx,The target is tilted.,117,17,1,2,1,1,1,1,0,0,0,0,0,0,0,0,0,3,4,117,space,4.892468299999564,None,1,1,0.7932185999998183,None,space,2.9441352999992887,None,0,0,0,0,,,,,2,1,17,2,114.44611170000007,,,,,,,,,,,,,,,,,,,,,114.43066029999954,114.44611170000007,114.92990660000032,114.93458639999972,114.95154050000019,115.74684520000028,,,,,115.74703049999971,115.76197779999984,115.96249239999997,115.94630609999967,114.95154050000019,,,,,,,,1,1,0.7932185999998183,None,,,,,,,,888,23,M,R,2026-02-25_12h04.22.781,VisualSearch_2526_3,,2025.2.4,2026-02-25 12h04.23.000318 +0100,
tilted.xlsx,The target is tilted.,117,18,2,2,1,1,1,1,1,1,1,1,1,1,1,1,0,11,12,117,space,4.892468299999564,None,1,1,1.6194138999999268,None,space,2.9441352999992887,None,0,0,0,0,,,,,2,2,18,0,115.96249239999997,,,,,,,,,,,,,,,,,,,,,115.94703430000027,115.96249239999997,116.44571209999958,116.4502407,116.46687719999954,118.0956699999997,,,,,118.09587199999987,118.11093729999993,118.31106230000023,118.29538810000031,116.46687719999954,,,,,,,,1,1,1.6194138999999268,None,,,,,,,,888,23,M,R,2026-02-25_12h04.22.781,VisualSearch_2526_3,,2025.2.4,2026-02-25 12h04.23.000318 +0100,
tilted.xlsx,The target is tilted.,117,19,3,2,1,1,1,1,1,1,1,1,0,0,0,0,0,7,8,117,space,4.892468299999564,None,1,1,0.8147033999994164,None,space,2.9441352999992887,None,0,0,0,0,,,,,2,3,19,1,118.31106230000023,,,,,,,,,,,,,,,,,,,,,118.29609879999953,118.31106230000023,118.79503569999997,118.79955419999987,118.81422349999957,119.64438450000034,,,,,119.64459669999997,119.6601185999998,119.8605878999997,119.84453159999975,118.81422349999957,,,,,,,,1,1,0.8147033999994164,None,,,,,,,,888,23,M,R,2026-02-25_12h04.22.781,VisualSearch_2526_3,,2025.2.4,2026-02-25 12h04.23.000318 +0100,
tilted.xlsx,The target is tilted.,117,20,4,2,0,1,1,1,1,1,1,1,1,1,1,1,1,11,12,117,space,4.892468299999564,None,0,1,3.973676300000079,None,space,2.9441352999992887,None,0,0,0,0,,,,,2,4,20,4,119.8605878999997,,,,,,,,,,,,,,,,,,,,,119.84523239999999,119.8605878999997,120.34432019999986,120.34882610000022,120.3663660000002,124.34304659999998,,,,,124.34328829999959,124.35808259999976,124.5580487999996,124.54239599999983,120.3663660000002,,,,,,,,0,1,3.973676300000079,None,,,,,,,,888,23,M,R,2026-02-25_12h04.22.781,VisualSearch_2526_3,,2025.2.4,2026-02-25 12h04.23.000318 +0100,
tilted.xlsx,The target is tilted.,117,21,5,2,0,1,1,1,1,1,1,1,0,0,0,0,1,7,8,117,space,4.892468299999564,None,0,1,2.7183266000001822,None,space,2.9441352999992887,None,0,0,0,0,,,,,2,5,21,5,124.5580487999996,,,,,,,,,,,,,,,,,,,,,124.54311030000008,124.5580487999996,125.0422053000002,125.04678179999974,125.06495759999962,127.79101999999966,,,,,127.79122449999977,127.80636380000033,128.00659770000038,127.9908003999999,125.06495759999962,,,,,,,,0,1,2.7183266000001822,None,,,,,,,,888,23,M,R,2026-02-25_12h04.22.781,VisualSearch_2526_3,,2025.2.4,2026-02-25 12h04.23.000318 +0100,
tilted.xlsx,The target is tilted.,117,22,6,2,1,0,0,0,0,0,0,0,0,0,0,0,0,0,1,117,space,4.892468299999564,None,1,1,0.7208889000003182,None,space,2.9441352999992887,None,0,0,0,0,,,,,2,6,22,3,128.00659770000038,,,,,,,,,,,,,,,,,,,,,127.99150540000028,128.00659770000038,128.49072460000025,128.49528399999963,128.5065642999998,129.23992699999962,,,,,129.24010739999994,129.2557022000001,129.45627140000033,129.44005779999952,128.5065642999998,,,,,,,,1,1,0.7208889000003182,None,,,,,,,,888,23,M,R,2026-02-25_12h04.22.781,VisualSearch_2526_3,,2025.2.4,2026-02-25 12h04.23.000318 +0100,
tilted.xlsx,The target is tilted.,117,23,7,2,0,0,0,0,0,0,0,0,0,0,0,0,1,1,1,117,space,4.892468299999564,None,0,1,0.5767616000002818,None,space,2.9441352999992887,None,0,0,0,0,,,,,2,7,23,7,129.45627140000033,,,,,,,,,,,,,,,,,,,,,129.44080610000037,129.45627140000033,129.93945789999998,129.9440427999998,129.95995440000024,130.53997549999985,,,,,130.54019379999954,130.55517189999955,130.7557429999997,130.7392033999995,129.95995440000024,,,,,,,,0,1,0.5767616000002818,None,,,,,,,,888,23,M,R,2026-02-25_12h04.22.781,VisualSearch_2526_3,,2025.2.4,2026-02-25 12h04.23.000318 +0100,
tilted.xlsx,The target is tilted.,117,24,0,3,0,1,1,1,1,1,1,1,1,1,1,1,1,11,12,117,space,4.892468299999564,None,0,1,3.9490034999998898,None,space,2.9441352999992887,None,0,0,0,0,,,,,3,0,24,4,130.7557429999997,,,,,,,,,,,,,,,,,,,,,130.7399064000001,130.7557429999997,131.2389559000003,131.2435464,131.25960940000004,135.22027650000018,,,,,135.22038369999973,135.23628350000035,135.43686869999965,135.4203053000001,131.25960940000004,,,,,,,,0,1,3.9490034999998898,None,,,,,,,,888,23,M,R,2026-02-25_12h04.22.781,VisualSearch_2526_3,,2025.2.4,2026-02-25 12h04.23.000318 +0100,
tilted.xlsx,The target is tilted.,117,25,1,3,1,1,1,1,1,1,1,1,1,1,1,1,0,11,12,117,space,4.892468299999564,None,1,1,1.0646010999998907,None,space,2.9441352999992887,None,0,0,0,0,,,,,3,1,25,0,135.43686869999965,,,,,,,,,,,,,,,,,,,,,135.42109059999984,135.43686869999965,135.92029420000017,135.9247846999997,135.94119649999993,137.01969699999972,,,,,137.01979649999976,137.03546619999997,137.23614710000038,137.2197629000002,135.94119649999993,,,,,,,,1,1,1.0646010999998907,None,,,,,,,,888,23,M,R,2026-02-25_12h04.22.781,VisualSearch_2526_3,,2025.2.4,2026-02-25 12h04.23.000318 +0100,
tilted.xlsx,The target is tilted.,117,26,2,3,0,1,1,1,1,1,1,1,0,0,0,0,1,7,8,117,space,4.892468299999564,None,0,1,2.0034716000000117,None,space,2.9441352999992887,None,0,0,0,0,,,,,3,2,26,5,137.23614710000038,,,,,,,,,,,,,,,,,,,,,137.2206589999996,137.23614710000038,137.71930890000021,137.72384330000023,137.74020349999955,139.75265060000038,,,,,139.7528526999995,139.7676849999998,139.96780119999949,139.95196829999986,137.74020349999955,,,,,,,,0,1,2.0034716000000117,None,,,,,,,,888,23,M,R,2026-02-25_12h04.22.781,VisualSearch_2526_3,,2025.2.4,2026-02-25 12h04.23.000318 +0100,
tilted.xlsx,The target is tilted.,117,27,3,3,1,1,1,1,1,1,1,1,0,0,0,0,0,7,8,117,space,4.892468299999564,None,1,1,0.8428050000002258,None,space,2.9441352999992887,None,0,0,0,0,,,,,3,3,27,1,139.96780119999949,,,,,,,,,,,,,,,,,,,,,139.95274229999995,139.96780119999949,140.4517324999997,140.45616450000034,140.4677657000002,141.3178452000002,,,,,141.31799779999983,141.33351560000028,141.53379190000032,141.51820789999965,140.4677657000002,,,,,,,,1,1,0.8428050000002258,None,,,,,,,,888,23,M,R,2026-02-25_12h04.22.781,VisualSearch_2526_3,,2025.2.4,2026-02-25 12h04.23.000318 +0100,
tilted.xlsx,The target is tilted.,117,28,4,3,0,1,1,1,0,0,0,0,0,0,0,0,1,3,4,117,space,4.892468299999564,None,0,1,1.0489416999998866,None,space,2.9441352999992887,None,0,0,0,0,,,,,3,4,28,6,141.53379190000032,,,,,,,,,,,,,,,,,,,,,141.51892429999953,141.53379190000032,142.01785070000005,142.02249269999993,142.03373379999994,143.08451499999956,,,,,143.08472640000036,143.09952160000012,143.29990019999968,143.28374619999977,142.03373379999994,,,,,,,,0,1,1.0489416999998866,None,,,,,,,,888,23,M,R,2026-02-25_12h04.22.781,VisualSearch_2526_3,,2025.2.4,2026-02-25 12h04.23.000318 +0100,
tilted.xlsx,The target is tilted.,117,29,5,3,1,0,0,0,0,0,0,0,0,0,0,0,0,0,1,117,space,4.892468299999564,None,1,1,0.7120758000000933,None,space,2.9441352999992887,None,0,0,0,0,,,,,3,5,29,3,143.29990019999968,,,,,,,,,,,,,,,,,,,,,143.2845626999997,143.29990019999968,143.7833125999996,143.78784470000028,143.8056706999996,144.5332069999995,,,,,144.53341040000032,144.5488395000002,144.74930229999973,144.73312989999977,143.8056706999996,,,,,,,,1,1,0.7120758000000933,None,,,,,,,,888,23,M,R,2026-02-25_12h04.22.781,VisualSearch_2526_3,,2025.2.4,2026-02-25 12h04.23.000318 +0100,
tilted.xlsx,The target is tilted.,117,30,6,3,1,1,1,1,0,0,0,0,0,0,0,0,0,3,4,117,space,4.892468299999564,None,1,1,0.7264097999996011,None,space,2.9441352999992887,None,0,0,0,0,,,,,3,6,30,2,144.74930229999973,,,,,,,,,,,,,,,,,,,,,144.73383319999994,144.74930229999973,145.23284869999952,145.23734739999963,145.25206849999995,145.98292889999993,,,,,145.98313280000002,145.99822330000006,146.19866720000027,146.1827277000002,145.25206849999995,,,,,,,,1,1,0.7264097999996011,None,,,,,,,,888,23,M,R,2026-02-25_12h04.22.781,VisualSearch_2526_3,,2025.2.4,2026-02-25 12h04.23.000318 +0100,
tilted.xlsx,The target is tilted.,117,31,7,3,0,0,0,0,0,0,0,0,0,0,0,0,1,1,1,117,space,4.892468299999564,None,0,1,0.5547802000000956,None,space,2.9441352999992887,None,0,0,0,0,,,,,3,7,31,7,146.19866720000027,,,,,,,,,,,,,,,,,,,,,146.1835785000003,146.19866720000027,146.6816577999998,146.68614270000035,146.70264870000028,147.26582340000004,,,,,147.26602739999998,147.2809298000002,147.48139730000003,147.4648176999999,146.70264870000028,,,,,,,,0,1,0.5547802000000956,None,,,,,,,,888,23,M,R,2026-02-25_12h04.22.781,VisualSearch_2526_3,,2025.2.4,2026-02-25 12h04.23.000318 +0100,
tilted.xlsx,The target is tilted.,117,32,0,4,0,1,1,1,1,1,1,1,1,1,1,1,1,11,12,117,space,4.892468299999564,None,0,1,2.7739587000005486,None,space,2.9441352999992887,None,0,0,0,0,,,,,4,0,32,4,147.48139730000003,,,,,,,,,,,,,,,,,,,,,147.46556729999975,147.48139730000003,147.96528430000035,147.97073189999992,147.98620279999977,150.76389169999948,,,,,150.7640762000001,150.77940490000037,150.9794509000003,150.96353100000033,147.98620279999977,,,,,,,,0,1,2.7739587000005486,None,,,,,,,,888,23,M,R,2026-02-25_12h04.22.781,VisualSearch_2526_3,,2025.2.4,2026-02-25 12h04.23.000318 +0100,
tilted.xlsx,The target is tilted.,117,33,1,4,1,0,0,0,0,0,0,0,0,0,0,0,0,0,1,117,space,4.892468299999564,None,1,1,0.6516214000002947,None,space,2.9441352999992887,None,0,0,0,0,,,,,4,1,33,3,150.9794509000003,,,,,,,,,,,,,,,,,,,,,150.9643189999997,150.9794509000003,151.46320319999995,151.4677630999995,151.4849495999997,152.1472635,,,,,152.14747910000006,152.1620665999999,152.36252309999963,152.3463885000001,151.4849495999997,,,,,,,,1,1,0.6516214000002947,None,,,,,,,,888,23,M,R,2026-02-25_12h04.22.781,VisualSearch_2526_3,,2025.2.4,2026-02-25 12h04.23.000318 +0100,
tilted.xlsx,The target is tilted.,117,34,2,4,1,1,1,1,1,1,1,1,1,1,1,1,0,11,12,117,space,4.892468299999564,None,1,1,2.2967154000007213,None,space,2.9441352999992887,None,0,0,0,0,,,,,4,2,34,0,152.36252309999963,,,,,,,,,,,,,,,,,,,,,152.34709550000025,152.36252309999963,152.84620610000002,152.85080329999982,152.86219059999985,155.16230480000013,,,,,155.16250930000024,155.17740130000038,155.37789939999948,155.36168889999954,152.86219059999985,,,,,,,,1,1,2.2967154000007213,None,,,,,,,,888,23,M,R,2026-02-25_12h04.22.781,VisualSearch_2526_3,,2025.2.4,2026-02-25 12h04.23.000318 +0100,
tilted.xlsx,The target is tilted.,117,35,3,4,1,1,1,1,1,1,1,1,0,0,0,0,0,7,8,117,space,4.892468299999564,None,1,1,1.5977301000002626,None,space,2.9441352999992887,None,0,0,0,0,,,,,4,3,35,1,155.37789939999948,,,,,,,,,,,,,,,,,,,,,155.36239469999964,155.37789939999948,155.8610933,155.86560240000017,155.88189150000017,157.49326459999975,,,,,157.49336159999984,157.50991239999985,,157.6937343999998,155.88189150000017,,,,,,,,1,1,1.5977301000002626,None,,,,,,,,888,23,M,R,2026-02-25_12h04.22.781,VisualSearch_2526_3,,2025.2.4,2026-02-25 12h04.23.000318 +0100,
tilted.xlsx,The target is tilted.,117,36,4,4,0,1,1,1,0,0,0,0,0,0,0,0,1,3,4,117,space,4.892468299999564,None,0,1,1.235174399999778,None,space,2.9441352999992887,None,0,0,0,0,,,,,4,4,36,6,157.7100191999998,,,,,,,,,,,,,,,,,,,,,157.6945036999996,157.7100191999998,158.19367969999985,158.19829200000004,158.21563009999954,159.4600405000001,,,,,159.46021250000013,159.47542059999978,159.6759377999997,159.6593974999996,158.21563009999954,,,,,,,,0,1,1.235174399999778,None,,,,,,,,888,23,M,R,2026-02-25_12h04.22.781,VisualSearch_2526_3,,2025.2.4,2026-02-25 12h04.23.000318 +0100,
tilted.xlsx,The target is tilted.,117,37,5,4,0,0,0,0,0,0,0,0,0,0,0,0,1,1,1,117,space,4.892468299999564,None,0,1,0.618834699999752,None,space,2.9441352999992887,None,0,0,0,0,,,,,4,5,37,7,159.6759377999997,,,,,,,,,,,,,,,,,,,,,159.66010610000012,159.6759377999997,160.15920149999965,160.1637614000001,160.18022399999973,160.8087813000002,,,,,160.8089119999995,160.82475280000017,161.0251935999995,161.00867190000008,160.18022399999973,,,,,,,,0,1,0.618834699999752,None,,,,,,,,888,23,M,R,2026-02-25_12h04.22.781,VisualSearch_2526_3,,2025.2.4,2026-02-25 12h04.23.000318 +0100,
tilted.xlsx,The target is tilted.,117,38,6,4,1,1,1,1,0,0,0,0,0,0,0,0,0,3,4,117,space,4.892468299999564,None,1,1,1.2406565999999657,None,space,2.9441352999992887,None,0,0,0,0,,,,,4,6,38,2,161.0251935999995,,,,,,,,,,,,,,,,,,,,,161.00939459999972,161.0251935999995,161.50892899999963,161.51344849999987,161.5301002999995,162.77496150000024,,,,,162.77514510000037,162.79050350000034,162.99099620000015,162.97456950000014,161.5301002999995,,,,,,,,1,1,1.2406565999999657,None,,,,,,,,888,23,M,R,2026-02-25_12h04.22.781,VisualSearch_2526_3,,2025.2.4,2026-02-25 12h04.23.000318 +0100,
tilted.xlsx,The target is tilted.,117,39,7,4,0,1,1,1,1,1,1,1,0,0,0,0,1,7,8,117,space,4.892468299999564,None,0,1,3.4116974999997183,None,space,2.9441352999992887,None,0,0,0,0,,,,,4,7,39,5,162.99099620000015,,,,,,,,,,,,,,,,,,,,,162.97529639999993,162.99099620000015,163.47467789999973,163.47915579999972,163.4932687999999,166.90662789999988,,,,,166.90679509999973,166.92197690000012,167.12238160000015,167.1063825000001,163.4932687999999,,,,,,,,0,1,3.4116974999997183,None,,,,,,,,888,23,M,R,2026-02-25_12h04.22.781,VisualSearch_2526_3,,2025.2.4,2026-02-25 12h04.23.000318 +0100,
tilted.xlsx,The target is tilted.,117,40,0,5,0,0,0,0,0,0,0,0,0,0,0,0,1,1,1,117,space,4.892468299999564,None,0,1,0.5490743000000293,None,space,2.9441352999992887,None,0,0,0,0,,,,,5,0,40,7,167.12238160000015,,,,,,,,,,,,,,,,,,,,,167.10718050000014,167.12238160000015,167.60599079999974,167.61049319999984,167.6279886000002,168.18956660000003,,,,,168.18976380000004,168.20464290000018,168.4051813999995,168.3889183000001,167.6279886000002,,,,,,,,0,1,0.5490743000000293,None,,,,,,,,888,23,M,R,2026-02-25_12h04.22.781,VisualSearch_2526_3,,2025.2.4,2026-02-25 12h04.23.000318 +0100,
tilted.xlsx,The target is tilted.,117,41,1,5,1,1,1,1,1,1,1,1,0,0,0,0,0,7,8,117,space,4.892468299999564,None,1,1,1.5145064999996976,None,space,2.9441352999992887,None,0,0,0,0,,,,,5,1,41,1,168.4051813999995,,,,,,,,,,,,,,,,,,,,,168.3896923000002,168.4051813999995,168.8894319000001,168.89396299999953,168.91019200000028,170.43828529999973,,,,,170.43846849999954,170.4537190000001,170.65420059999997,170.63769260000026,168.91019200000028,,,,,,,,1,1,1.5145064999996976,None,,,,,,,,888,23,M,R,2026-02-25_12h04.22.781,VisualSearch_2526_3,,2025.2.4,2026-02-25 12h04.23.000318 +0100,
tilted.xlsx,The target is tilted.,117,42,2,5,1,1,1,1,1,1,1,1,1,1,1,1,0,11,12,117,space,4.892468299999564,None,1,1,2.3271407000002,None,space,2.9441352999992887,None,0,0,0,0,,,,,5,2,42,0,170.65420059999997,,,,,,,,,,,,,,,,,,,,,170.6384109999999,170.65420059999997,171.1377424000002,171.1421967999995,171.159173,173.50321389999954,,,,,173.5034139999998,173.51894699999957,173.7192772999997,173.7033752999996,171.159173,,,,,,,,1,1,2.3271407000002,None,,,,,,,,888,23,M,R,2026-02-25_12h04.22.781,VisualSearch_2526_3,,2025.2.4,2026-02-25 12h04.23.000318 +0100,
tilted.xlsx,The target is tilted.,117,43,3,5,0,1,1,1,1,1,1,1,1,1,1,1,1,11,12,117,space,4.892468299999564,None,0,1,2.8280812000002697,None,space,2.9441352999992887,None,0,0,0,0,,,,,5,3,43,4,173.7192772999997,,,,,,,,,,,,,,,,,,,,,173.70408979999957,173.7192772999997,174.20311800000036,174.20760989999962,174.2221198999996,177.05230589999974,,,,,177.05250909999995,177.0673286000001,177.2678446,177.25172680000014,174.2221198999996,,,,,,,,0,1,2.8280812000002697,None,,,,,,,,888,23,M,R,2026-02-25_12h04.22.781,VisualSearch_2526_3,,2025.2.4,2026-02-25 12h04.23.000318 +0100,
tilted.xlsx,The target is tilted.,117,44,4,5,1,0,0,0,0,0,0,0,0,0,0,0,0,0,1,117,space,4.892468299999564,None,1,1,0.6707064000001992,None,space,2.9441352999992887,None,0,0,0,0,,,,,5,4,44,3,177.2678446,,,,,,,,,,,,,,,,,,,,,177.25244889999976,177.2678446,177.75150800000029,177.75607779999973,177.77168389999952,178.45165689999976,,,,,178.45185709999987,178.4667830999997,178.6672553999997,178.65100299999995,177.77168389999952,,,,,,,,1,1,0.6707064000001992,None,,,,,,,,888,23,M,R,2026-02-25_12h04.22.781,VisualSearch_2526_3,,2025.2.4,2026-02-25 12h04.23.000318 +0100,
tilted.xlsx,The target is tilted.,117,45,5,5,1,1,1,1,0,0,0,0,0,0,0,0,0,3,4,117,space,4.892468299999564,None,1,1,0.8723140000001877,None,space,2.9441352999992887,None,0,0,0,0,,,,,5,5,45,2,178.6672553999997,,,,,,,,,,,,,,,,,,,,,178.6518156000002,178.6672553999997,179.15098020000005,179.15613359999952,179.17339300000003,180.0507158999999,,,,,180.0508989,180.06598339999982,180.26642470000024,180.25027070000033,179.17339300000003,,,,,,,,1,1,0.8723140000001877,None,,,,,,,,888,23,M,R,2026-02-25_12h04.22.781,VisualSearch_2526_3,,2025.2.4,2026-02-25 12h04.23.000318 +0100,
tilted.xlsx,The target is tilted.,117,46,6,5,0,1,1,1,0,0,0,0,0,0,0,0,1,3,4,117,space,4.892468299999564,None,0,1,2.448377800000344,None,space,2.9441352999992887,None,0,0,0,0,,,,,5,6,46,6,180.26642470000024,,,,,,,,,,,,,,,,,,,,,180.25099500000033,180.26642470000024,180.74998719999985,180.75455859999965,180.77107950000027,183.23265410000022,,,,,183.23286439999993,183.2479899,183.44841290000022,183.43225520000033,180.77107950000027,,,,,,,,0,1,2.448377800000344,None,,,,,,,,888,23,M,R,2026-02-25_12h04.22.781,VisualSearch_2526_3,,2025.2.4,2026-02-25 12h04.23.000318 +0100,
tilted.xlsx,The target is tilted.,117,47,7,5,0,1,1,1,1,1,1,1,0,0,0,0,1,7,8,117,space,4.892468299999564,None,0,1,2.635038199999144,None,space,2.9441352999992887,None,0,0,0,0,,,,,5,7,47,5,183.44841290000022,,,,,,,,,,,,,,,,,,,,,183.43295920000037,183.44841290000022,183.93206219999956,183.93658950000008,183.94797779999953,186.5971970999999,,,,,186.59738060000018,186.61297449999984,186.81315540000014,186.7974838,183.94797779999953,,,,,,,,0,1,2.635038199999144,None,,,,,,,,888,23,M,R,2026-02-25_12h04.22.781,VisualSearch_2526_3,,2025.2.4,2026-02-25 12h04.23.000318 +0100,
tilted.xlsx,The target is tilted.,117,48,0,6,1,1,1,1,1,1,1,1,0,0,0,0,0,7,8,117,space,4.892468299999564,None,1,1,0.8784494000001359,None,space,2.9441352999992887,None,0,0,0,0,,,,,6,0,48,1,186.81315540000014,,,,,,,,,,,,,,,,,,,,,186.7982135000002,186.81315540000014,187.29720610000004,187.30170180000005,187.31698570000026,188.19747610000013,,,,,188.19770590000007,188.21232119999968,188.41242479999983,188.3964262999998,187.31698570000026,,,,,,,,1,1,0.8784494000001359,None,,,,,,,,888,23,M,R,2026-02-25_12h04.22.781,VisualSearch_2526_3,,2025.2.4,2026-02-25 12h04.23.000318 +0100,
tilted.xlsx,The target is tilted.,117,49,1,6,0,1,1,1,0,0,0,0,0,0,0,0,1,3,4,117,space,4.892468299999564,None,0,1,1.4693258999996033,None,space,2.9441352999992887,None,0,0,0,0,,,,,6,1,49,6,188.41242479999983,,,,,,,,,,,,,,,,,,,,,188.39714370000002,188.41242479999983,188.8962263000003,188.90131800000017,188.9163708999995,190.3963292999997,,,,,190.3965664999996,190.4112997000002,190.61146159999953,190.59553469999992,188.9163708999995,,,,,,,,0,1,1.4693258999996033,None,,,,,,,,888,23,M,R,2026-02-25_12h04.22.781,VisualSearch_2526_3,,2025.2.4,2026-02-25 12h04.23.000318 +0100,
tilted.xlsx,The target is tilted.,117,50,2,6,0,0,0,0,0,0,0,0,0,0,0,0,1,1,1,117,space,4.892468299999564,None,0,1,0.7239509000000908,None,space,2.9441352999992887,None,0,0,0,0,,,,,6,2,50,7,190.61146159999953,,,,,,,,,,,,,,,,,,,,,190.59634939999978,190.61146159999953,191.0954670000001,191.09996760000013,191.11142860000018,191.84569980000015,,,,,191.84592259999954,191.86059709999972,192.0610528999996,192.04499430000033,191.11142860000018,,,,,,,,0,1,0.7239509000000908,None,,,,,,,,888,23,M,R,2026-02-25_12h04.22.781,VisualSearch_2526_3,,2025.2.4,2026-02-25 12h04.23.000318 +0100,
tilted.xlsx,The target is tilted.,117,51,3,6,1,0,0,0,0,0,0,0,0,0,0,0,0,0,1,117,space,4.892468299999564,None,1,1,0.6501289999996516,None,space,2.9441352999992887,None,0,0,0,0,,,,,6,3,51,3,192.0610528999996,,,,,,,,,,,,,,,,,,,,,192.0457239999996,192.0610528999996,192.5444508999999,192.54894260000037,192.56542809999974,193.22817579999992,,,,,193.2283580000003,193.24335299999984,193.44380069999988,193.42768650000016,192.56542809999974,,,,,,,,1,1,0.6501289999996516,None,,,,,,,,888,23,M,R,2026-02-25_12h04.22.781,VisualSearch_2526_3,,2025.2.4,2026-02-25 12h04.23.000318 +0100,
tilted.xlsx,The target is tilted.,117,52,4,6,0,1,1,1,1,1,1,1,0,0,0,0,1,7,8,117,space,4.892468299999564,None,0,1,2.447685199999796,None,space,2.9441352999992887,None,0,0,0,0,,,,,6,4,52,5,193.44380069999988,,,,,,,,,,,,,,,,,,,,,193.42839470000035,193.44380069999988,193.92707719999999,193.9316321999995,193.94724399999996,196.40948130000015,,,,,196.4096727999995,196.42518599999948,196.62566650000008,196.6091391,193.94724399999996,,,,,,,,0,1,2.447685199999796,None,,,,,,,,888,23,M,R,2026-02-25_12h04.22.781,VisualSearch_2526_3,,2025.2.4,2026-02-25 12h04.23.000318 +0100,
tilted.xlsx,The target is tilted.,117,53,5,6,0,1,1,1,1,1,1,1,1,1,1,1,1,11,12,117,space,4.892468299999564,None,0,1,2.7948496999997587,None,space,2.9441352999992887,None,0,0,0,0,,,,,6,5,53,4,196.62566650000008,,,,,,,,,,,,,,,,,,,,,196.60987719999957,196.62566650000008,197.1092292000003,197.11382140000023,197.12896459999956,199.9252379999998,,,,,199.9254407999997,199.94029450000016,200.14071179999974,200.12456870000005,197.12896459999956,,,,,,,,0,1,2.7948496999997587,None,,,,,,,,888,23,M,R,2026-02-25_12h04.22.781,VisualSearch_2526_3,,2025.2.4,2026-02-25 12h04.23.000318 +0100,
tilted.xlsx,The target is tilted.,117,54,6,6,1,1,1,1,1,1,1,1,1,1,1,1,0,11,12,117,space,4.892468299999564,None,1,1,1.9262895000001663,None,space,2.9441352999992887,None,0,0,0,0,,,,,6,6,54,0,200.14071179999974,,,,,,,,,,,,,,,,,,,,,200.12530160000006,200.14071179999974,200.62441820000004,200.6289697000002,200.6460876000001,202.5741479999997,,,,,202.57436489999964,202.58904660000007,202.78941810000015,202.77344879999964,200.6460876000001,,,,,,,,1,1,1.9262895000001663,None,,,,,,,,888,23,M,R,2026-02-25_12h04.22.781,VisualSearch_2526_3,,2025.2.4,2026-02-25 12h04.23.000318 +0100,
tilted.xlsx,The target is tilted.,117,55,7,6,1,1,1,1,0,0,0,0,0,0,0,0,0,3,4,117,space,4.892468299999564,None,1,1,1.2953542000004745,None,space,2.9441352999992887,None,0,0,0,0,,,,,6,7,55,2,202.78941810000015,,,,,,,,,,,,,,,,,,,,,202.77426019999984,202.78941810000015,203.27323160000014,203.27774169999975,203.29611380000006,204.60618859999977,,,,,204.60639139999967,204.62159109999993,204.82194590000017,204.80588499999976,203.29611380000006,,,,,,,,1,1,1.2953542000004745,None,,,,,,,,888,23,M,R,2026-02-25_12h04.22.781,VisualSearch_2526_3,,2025.2.4,2026-02-25 12h04.23.000318 +0100,
tilted.xlsx,The target is tilted.,117,56,0,7,1,1,1,1,1,1,1,1,1,1,1,1,0,11,12,117,space,4.892468299999564,None,0,0,4.327885700000479,None,space,2.9441352999992887,None,0,0,0,0,,,,,7,0,56,0,204.82194590000017,,,,,,,,,,,,,,,,,,,,,204.80659949999972,204.82194590000017,205.3056647000003,205.31016069999987,205.3270794,209.6700880999997,,,,,209.67028730000038,209.68582669999978,209.88635189999968,209.8700073,205.3270794,,,,,,,,0,0,4.327885700000479,None,,,,,,,,888,23,M,R,2026-02-25_12h04.22.781,VisualSearch_2526_3,,2025.2.4,2026-02-25 12h04.23.000318 +0100,
tilted.xlsx,The target is tilted.,117,57,1,7,0,0,0,0,0,0,0,0,0,0,0,0,1,1,1,117,space,4.892468299999564,None,0,1,0.7234313999997539,None,space,2.9441352999992887,None,0,0,0,0,,,,,7,1,57,7,209.88635189999968,,,,,,,,,,,,,,,,,,,,,209.87074159999975,209.88635189999968,210.36985019999975,210.37446220000038,210.39131540000017,211.1195792999997,,,,,211.11977750000005,211.13524589999997,211.33560109999962,211.3190850000001,210.39131540000017,,,,,,,,0,1,0.7234313999997539,None,,,,,,,,888,23,M,R,2026-02-25_12h04.22.781,VisualSearch_2526_3,,2025.2.4,2026-02-25 12h04.23.000318 +0100,
tilted.xlsx,The target is tilted.,117,58,2,7,1,0,0,0,0,0,0,0,0,0,0,0,0,0,1,117,space,4.892468299999564,None,1,1,0.6579671000008602,None,space,2.9441352999992887,None,0,0,0,0,,,,,7,2,58,3,211.33560109999962,,,,,,,,,,,,,,,,,,,,,211.31979390000015,211.33560109999962,211.81907739999951,211.82302119999986,211.8352705999996,212.50295470000037,,,,,212.50317670000004,212.51791549999962,212.7183712999995,212.7022535999995,211.8352705999996,,,,,,,,1,1,0.6579671000008602,None,,,,,,,,888,23,M,R,2026-02-25_12h04.22.781,VisualSearch_2526_3,,2025.2.4,2026-02-25 12h04.23.000318 +0100,
tilted.xlsx,The target is tilted.,117,59,3,7,1,1,1,1,1,1,1,1,0,0,0,0,0,7,8,117,space,4.892468299999564,None,1,1,1.506843399999525,None,space,2.9441352999992887,None,0,0,0,0,,,,,7,3,59,1,212.7183712999995,,,,,,,,,,,,,,,,,,,,,212.70306700000037,212.7183712999995,213.20197459999963,213.20647120000012,213.21992080000018,214.73521530000016,,,,,214.7354181999999,214.75014959999953,214.95067039999958,214.93461130000014,213.21992080000018,,,,,,,,1,1,1.506843399999525,None,,,,,,,,888,23,M,R,2026-02-25_12h04.22.781,VisualSearch_2526_3,,2025.2.4,2026-02-25 12h04.23.000318 +0100,
tilted.xlsx,The target is tilted.,117,60,4,7,0,1,1,1,1,1,1,1,1,1,1,1,1,11,12,117,space,4.892468299999564,None,0,1,5.050276300000405,None,space,2.9441352999992887,None,0,0,0,0,,,,,7,4,60,4,214.95067039999958,,,,,,,,,,,,,,,,,,,,,214.93539260000034,214.95067039999958,215.4338318,215.43689650000033,215.44995600000038,220.5147949000002,,,,,220.5149494999996,220.53092959999958,220.7313949999998,220.71507759999986,215.44995600000038,,,,,,,,0,1,5.050276300000405,None,,,,,,,,888,23,M,R,2026-02-25_12h04.22.781,VisualSearch_2526_3,,2025.2.4,2026-02-25 12h04.23.000318 +0100,
tilted.xlsx,The target is tilted.,117,61,5,7,0,1,1,1,0,0,0,0,0,0,0,0,1,3,4,117,space,4.892468299999564,None,0,1,1.4456582999991952,None,space,2.9441352999992887,None,0,0,0,0,,,,,7,5,61,6,220.7313949999998,,,,,,,,,,,,,,,,,,,,,220.71587610000006,220.7313949999998,221.21504350000032,221.21958989999985,221.23282949999975,222.68128109999998,,,,,222.68202060000021,222.6966620000003,222.8970344999998,222.88084499999968,221.23282949999975,,,,,,,,0,1,1.4456582999991952,None,,,,,,,,888,23,M,R,2026-02-25_12h04.22.781,VisualSearch_2526_3,,2025.2.4,2026-02-25 12h04.23.000318 +0100,
tilted.xlsx,The target is tilted.,117,62,6,7,1,1,1,1,0,0,0,0,0,0,0,0,0,3,4,117,space,4.892468299999564,None,1,1,1.1255184999999983,None,space,2.9441352999992887,None,0,0,0,0,,,,,7,6,62,2,222.8970344999998,,,,,,,,,,,,,,,,,,,,,222.88158139999996,222.8970344999998,223.38064070000019,223.38524069999949,223.3964157999999,224.53073519999998,,,,,224.530933,224.54577129999961,224.74589809999998,224.7299869999997,223.3964157999999,,,,,,,,1,1,1.1255184999999983,None,,,,,,,,888,23,M,R,2026-02-25_12h04.22.781,VisualSearch_2526_3,,2025.2.4,2026-02-25 12h04.23.000318 +0100,
tilted.xlsx,The target is tilted.,117,63,7,7,0,1,1,1,1,1,1,1,0,0,0,0,1,7,8,117,space,4.892468299999564,None,0,1,5.272576099999242,None,space,2.9441352999992887,None,0,0,0,0,,,,,7,7,63,5,224.74589809999998,,,,,,,,,,,,,,,,,,,,,224.73079659999985,224.74589809999998,225.22990409999966,225.2343433999995,225.25165519999973,230.52754449999975,,,,,230.52772519999962,230.5430647000003,230.7435163,230.72737489999963,225.25165519999973,,,,,,,,0,1,5.272576099999242,None,,,,,,,,888,23,M,R,2026-02-25_12h04.22.781,VisualSearch_2526_3,,2025.2.4,2026-02-25 12h04.23.000318 +0100,
tilted.xlsx,The target is tilted.,117,64,0,8,1,1,1,1,0,0,0,0,0,0,0,0,0,3,4,117,space,4.892468299999564,None,1,1,1.2408150000001115,None,space,2.9441352999992887,None,0,0,0,0,,,,,8,0,64,2,230.7435163,,,,,,,,,,,,,,,,,,,,,230.72807899999952,230.7435163,231.2271995000001,231.23166219999985,231.25055220000013,232.49269040000036,,,,,232.4927832000003,232.50851989999956,232.70896400000038,232.69278639999993,231.25055220000013,,,,,,,,1,1,1.2408150000001115,None,,,,,,,,888,23,M,R,2026-02-25_12h04.22.781,VisualSearch_2526_3,,2025.2.4,2026-02-25 12h04.23.000318 +0100,
tilted.xlsx,The target is tilted.,117,65,1,8,0,1,1,1,1,1,1,1,1,1,1,1,1,11,12,117,space,4.892468299999564,None,0,1,3.3529398999999103,None,space,2.9441352999992887,None,0,0,0,0,,,,,8,1,65,4,232.70896400000038,,,,,,,,,,,,,,,,,,,,,232.69349839999995,232.70896400000038,233.1925610999997,233.1972249999999,233.2098249999999,236.57405850000032,,,,,236.5741452000002,236.59008900000026,,236.77431129999968,233.2098249999999,,,,,,,,0,1,3.3529398999999103,None,,,,,,,,888,23,M,R,2026-02-25_12h04.22.781,VisualSearch_2526_3,,2025.2.4,2026-02-25 12h04.23.000318 +0100,
tilted.xlsx,The target is tilted.,117,66,2,8,1,0,0,0,0,0,0,0,0,0,0,0,0,0,1,117,space,4.892468299999564,None,1,1,0.6960103999999774,None,space,2.9441352999992887,None,0,0,0,0,,,,,8,2,66,3,236.79075039999952,,,,,,,,,,,,,,,,,,,,,236.77505180000026,236.79075039999952,237.2740646000002,237.2785598999999,237.2953404,238.00733450000007,,,,,238.00753369999984,238.0228606999999,238.22305909999977,238.20701999999983,237.2953404,,,,,,,,1,1,0.6960103999999774,None,,,,,,,,888,23,M,R,2026-02-25_12h04.22.781,VisualSearch_2526_3,,2025.2.4,2026-02-25 12h04.23.000318 +0100,
tilted.xlsx,The target is tilted.,117,67,3,8,1,1,1,1,1,1,1,1,0,0,0,0,0,7,8,117,space,4.892468299999564,None,1,1,1.3150589999995645,None,space,2.9441352999992887,None,0,0,0,0,,,,,8,3,67,1,238.22305909999977,,,,,,,,,,,,,,,,,,,,,238.20773350000036,238.22305909999977,238.70731849999993,238.7118789999995,238.72844619999978,240.05621669999982,,,,,240.05639569999948,240.07187590000012,240.27251179999985,240.2559658,238.72844619999978,,,,,,,,1,1,1.3150589999995645,None,,,,,,,,888,23,M,R,2026-02-25_12h04.22.781,VisualSearch_2526_3,,2025.2.4,2026-02-25 12h04.23.000318 +0100,
tilted.xlsx,The target is tilted.,117,68,4,8,1,1,1,1,1,1,1,1,1,1,1,1,0,11,12,117,space,4.892468299999564,None,1,1,2.9703292000003785,None,space,2.9441352999992887,None,0,0,0,0,,,,,8,4,68,0,240.27251179999985,,,,,,,,,,,,,,,,,,,,,240.2567272999995,240.27251179999985,240.7560209000003,240.76044420000017,240.77762489999986,243.75533619999987,,,,,243.75553789999958,243.7703492999999,243.97055379999983,243.95435139999972,240.77762489999986,,,,,,,,1,1,2.9703292000003785,None,,,,,,,,888,23,M,R,2026-02-25_12h04.22.781,VisualSearch_2526_3,,2025.2.4,2026-02-25 12h04.23.000318 +0100,
tilted.xlsx,The target is tilted.,117,69,5,8,0,0,0,0,0,0,0,0,0,0,0,0,1,1,1,117,space,4.892468299999564,None,0,1,0.6597626999991917,None,space,2.9441352999992887,None,0,0,0,0,,,,,8,5,69,7,243.97055379999983,,,,,,,,,,,,,,,,,,,,,243.95509219999985,243.97055379999983,244.45450729999993,244.45900830000028,244.47708729999977,245.15342510000028,,,,,245.1535455000003,245.16996430000017,245.37012810000033,245.35371870000017,244.47708729999977,,,,,,,,0,1,0.6597626999991917,None,,,,,,,,888,23,M,R,2026-02-25_12h04.22.781,VisualSearch_2526_3,,2025.2.4,2026-02-25 12h04.23.000318 +0100,
tilted.xlsx,The target is tilted.,117,70,6,8,0,1,1,1,0,0,0,0,0,0,0,0,1,3,4,117,space,4.892468299999564,None,0,1,1.0196565999995073,None,space,2.9441352999992887,None,0,0,0,0,,,,,8,6,70,6,245.37012810000033,,,,,,,,,,,,,,,,,,,,,245.35441280000032,245.37012810000033,245.8538951999999,245.85847230000036,245.87257119999958,246.90300659999957,,,,,246.9031543000001,246.91881209999974,247.11918270000024,247.10313179999957,245.87257119999958,,,,,,,,0,1,1.0196565999995073,None,,,,,,,,888,23,M,R,2026-02-25_12h04.22.781,VisualSearch_2526_3,,2025.2.4,2026-02-25 12h04.23.000318 +0100,
tilted.xlsx,The target is tilted.,117,71,7,8,0,1,1,1,1,1,1,1,0,0,0,0,1,7,8,117,space,4.892468299999564,None,0,1,2.3261190999992323,None,space,2.9441352999992887,None,0,0,0,0,,,,,8,7,71,5,247.11918270000024,,,,,,,,,,,,,,,,,,,,,247.1038722000003,247.11918270000024,247.60308189999978,247.60752570000022,247.62506959999973,249.95242919999964,,,,,249.95262509999975,249.96757660000003,250.16799189999983,250.15179460000036,247.62506959999973,,,,,,,,0,1,2.3261190999992323,None,,,,,,,,888,23,M,R,2026-02-25_12h04.22.781,VisualSearch_2526_3,,2025.2.4,2026-02-25 12h04.23.000318 +0100,
tilted.xlsx,The target is tilted.,117,72,0,9,0,1,1,1,1,1,1,1,1,1,1,1,1,11,12,117,space,4.892468299999564,None,0,1,3.6597497000002477,None,space,2.9441352999992887,None,0,0,0,0,,,,,9,0,72,4,250.16799189999983,,,,,,,,,,,,,,,,,,,,,250.15250389999983,250.16799189999983,250.6513487000002,250.65661389999968,250.67194670000026,254.33329570000024,,,,,254.3334906,254.34895460000007,254.54928420000033,254.5330799000003,250.67194670000026,,,,,,,,0,1,3.6597497000002477,None,,,,,,,,888,23,M,R,2026-02-25_12h04.22.781,VisualSearch_2526_3,,2025.2.4,2026-02-25 12h04.23.000318 +0100,
tilted.xlsx,The target is tilted.,117,73,1,9,0,1,1,1,1,1,1,1,0,0,0,0,1,7,8,117,space,4.892468299999564,None,0,1,1.8111182000002373,None,space,2.9441352999992887,None,0,0,0,0,,,,,9,1,73,5,254.54928420000033,,,,,,,,,,,,,,,,,,,,,254.53386369999953,254.54928420000033,255.03229339999962,255.03392210000038,255.0484988999997,256.86600329999965,,,,,256.8661965000001,256.88102770000023,257.0815083999996,257.0654138,255.0484988999997,,,,,,,,0,1,1.8111182000002373,None,,,,,,,,888,23,M,R,2026-02-25_12h04.22.781,VisualSearch_2526_3,,2025.2.4,2026-02-25 12h04.23.000318 +0100,
tilted.xlsx,The target is tilted.,117,74,2,9,1,1,1,1,0,0,0,0,0,0,0,0,0,3,4,117,space,4.892468299999564,None,0,0,1.2102171999995335,None,space,2.9441352999992887,None,0,0,0,0,,,,,9,2,74,2,257.0815083999996,,,,,,,,,,,,,,,,,,,,,257.06611859999975,257.0815083999996,257.56489090000014,257.5693160999999,257.58587179999995,258.7985143999995,,,,,258.7987643999995,258.8135615000001,259.01379480000014,258.9979593999997,257.58587179999995,,,,,,,,0,0,1.2102171999995335,None,,,,,,,,888,23,M,R,2026-02-25_12h04.22.781,VisualSearch_2526_3,,2025.2.4,2026-02-25 12h04.23.000318 +0100,
tilted.xlsx,The target is tilted.,117,75,3,9,1,1,1,1,1,1,1,1,0,0,0,0,0,7,8,117,space,4.892468299999564,None,0,0,2.106918599999517,None,space,2.9441352999992887,None,0,0,0,0,,,,,9,3,75,1,259.01379480000014,,,,,,,,,,,,,,,,,,,,,258.99869020000006,259.01379480000014,259.49767619999966,259.50213470000017,259.5184387999998,261.6305099000001,,,,,261.6307096999999,261.6455482000001,261.8460908999996,261.82977819999996,259.5184387999998,,,,,,,,0,0,2.106918599999517,None,,,,,,,,888,23,M,R,2026-02-25_12h04.22.781,VisualSearch_2526_3,,2025.2.4,2026-02-25 12h04.23.000318 +0100,
tilted.xlsx,The target is tilted.,117,76,4,9,0,1,1,1,0,0,0,0,0,0,0,0,1,3,4,117,space,4.892468299999564,None,0,1,1.4011867999997776,None,space,2.9441352999992887,None,0,0,0,0,,,,,9,4,76,6,261.8460908999996,,,,,,,,,,,,,,,,,,,,,261.83049459999984,261.8460908999996,262.3291970999999,262.33368059999975,262.34558769999967,263.7621302999996,,,,,263.7623231999996,263.7778545000001,263.97806949999995,263.9622704000003,262.34558769999967,,,,,,,,0,1,1.4011867999997776,None,,,,,,,,888,23,M,R,2026-02-25_12h04.22.781,VisualSearch_2526_3,,2025.2.4,2026-02-25 12h04.23.000318 +0100,
tilted.xlsx,The target is tilted.,117,77,5,9,0,0,0,0,0,0,0,0,0,0,0,0,1,1,1,117,space,4.892468299999564,None,0,1,0.6283892000001288,None,space,2.9441352999992887,None,0,0,0,0,,,,,9,5,77,7,263.97806949999995,,,,,,,,,,,,,,,,,,,,,263.9629847999995,263.97806949999995,264.46149289999994,264.46553549999953,264.47971039999993,265.11200480000025,,,,,265.1121999999996,265.12728909999987,265.32731409999997,265.3114402000001,264.47971039999993,,,,,,,,0,1,0.6283892000001288,None,,,,,,,,888,23,M,R,2026-02-25_12h04.22.781,VisualSearch_2526_3,,2025.2.4,2026-02-25 12h04.23.000318 +0100,
tilted.xlsx,The target is tilted.,117,78,6,9,1,0,0,0,0,0,0,0,0,0,0,0,0,0,1,117,space,4.892468299999564,None,1,1,0.673088500000631,None,space,2.9441352999992887,None,0,0,0,0,,,,,9,6,78,3,265.32731409999997,,,,,,,,,,,,,,,,,,,,,265.3121834000003,265.32731409999997,265.81140830000004,265.8158320000002,265.8325501999998,266.51134530000036,,,,,266.51154419999966,266.5266279999996,266.72720709999976,266.7108916999996,265.8325501999998,,,,,,,,1,1,0.673088500000631,None,,,,,,,,888,23,M,R,2026-02-25_12h04.22.781,VisualSearch_2526_3,,2025.2.4,2026-02-25 12h04.23.000318 +0100,
tilted.xlsx,The target is tilted.,117,79,7,9,1,1,1,1,1,1,1,1,1,1,1,1,0,11,12,117,space,4.892468299999564,None,1,1,1.2100782999996227,None,space,2.9441352999992887,None,0,0,0,0,,,,,9,7,79,0,266.72720709999976,,,,,,,,,,,,,,,,,,,,,266.7116178999995,266.72720709999976,267.21075569999994,267.2152452,267.23180669999965,268.44410869999956,,,,,268.4443302999998,268.4590595999998,268.6594218,268.64308449999953,267.23180669999965,,,,,,,,1,1,1.2100782999996227,None,,,,,,,,888,23,M,R,2026-02-25_12h04.22.781,VisualSearch_2526_3,,2025.2.4,2026-02-25 12h04.23.000318 +0100,
tilted.xlsx,The target is tilted.,117,80,0,10,0,1,1,1,0,0,0,0,0,0,0,0,1,3,4,117,space,4.892468299999564,None,0,1,1.035823000000164,None,space,2.9441352999992887,None,0,0,0,0,,,,,10,0,80,6,268.6594218,,,,,,,,,,,,,,,,,,,,,268.64379610000015,268.6594218,269.1432705999996,269.1476799000002,269.1658150000003,270.20967850000034,,,,,270.20987890000015,270.22498929999983,270.4254652999998,270.40921720000006,269.1658150000003,,,,,,,,0,1,1.035823000000164,None,,,,,,,,888,23,M,R,2026-02-25_12h04.22.781,VisualSearch_2526_3,,2025.2.4,2026-02-25 12h04.23.000318 +0100,
tilted.xlsx,The target is tilted.,117,81,1,10,0,0,0,0,0,0,0,0,0,0,0,0,1,1,1,117,space,4.892468299999564,None,0,1,0.6260019000001193,None,space,2.9441352999992887,None,0,0,0,0,,,,,10,1,81,7,270.4254652999998,,,,,,,,,,,,,,,,,,,,,270.4099415999999,270.4254652999998,270.90916990000005,270.91368820000025,270.9302168000004,271.5594820999995,,,,,271.5597144000003,271.57439330000034,271.77484110000023,271.75884979999955,270.9302168000004,,,,,,,,0,1,0.6260019000001193,None,,,,,,,,888,23,M,R,2026-02-25_12h04.22.781,VisualSearch_2526_3,,2025.2.4,2026-02-25 12h04.23.000318 +0100,
tilted.xlsx,The target is tilted.,117,82,2,10,1,1,1,1,1,1,1,1,1,1,1,1,0,11,12,117,space,4.892468299999564,None,1,1,1.6253706000006787,None,space,2.9441352999992887,None,0,0,0,0,,,,,10,2,82,0,271.77484110000023,,,,,,,,,,,,,,,,,,,,,271.7595559000001,271.77484110000023,272.2585031999997,272.2629267000002,272.2792800999996,273.90796820000014,,,,,273.90816840000025,273.9232855999999,274.1234386999995,274.10740239999996,272.2792800999996,,,,,,,,1,1,1.6253706000006787,None,,,,,,,,888,23,M,R,2026-02-25_12h04.22.781,VisualSearch_2526_3,,2025.2.4,2026-02-25 12h04.23.000318 +0100,
tilted.xlsx,The target is tilted.,117,83,3,10,1,1,1,1,0,0,0,0,0,0,0,0,0,3,4,117,space,4.892468299999564,None,1,1,0.6568888000001607,None,space,2.9441352999992887,None,0,0,0,0,,,,,10,3,83,2,274.1234386999995,,,,,,,,,,,,,,,,,,,,,274.1081301000004,274.1234386999995,274.6075012000001,274.6119415000003,274.6269612999995,275.2906703999997,,,,,275.2908679000002,275.3059745999999,275.5064239000003,275.4901914000002,274.6269612999995,,,,,,,,1,1,0.6568888000001607,None,,,,,,,,888,23,M,R,2026-02-25_12h04.22.781,VisualSearch_2526_3,,2025.2.4,2026-02-25 12h04.23.000318 +0100,
tilted.xlsx,The target is tilted.,117,84,4,10,1,0,0,0,0,0,0,0,0,0,0,0,0,0,1,117,space,4.892468299999564,None,1,1,0.5763494999991963,None,space,2.9441352999992887,None,0,0,0,0,,,,,10,4,84,3,275.5064239000003,,,,,,,,,,,,,,,,,,,,,275.4910043,275.5064239000003,275.9899163,275.99432290000004,276.01049260000036,276.58988839999984,,,,,276.5900654999996,276.60569789999954,276.80598120000013,276.7893689000002,276.01049260000036,,,,,,,,1,1,0.5763494999991963,None,,,,,,,,888,23,M,R,2026-02-25_12h04.22.781,VisualSearch_2526_3,,2025.2.4,2026-02-25 12h04.23.000318 +0100,
tilted.xlsx,The target is tilted.,117,85,5,10,0,1,1,1,1,1,1,1,1,1,1,1,1,11,12,117,space,4.892468299999564,None,0,1,3.729040499999428,None,space,2.9441352999992887,None,0,0,0,0,,,,,10,5,85,4,276.80598120000013,,,,,,,,,,,,,,,,,,,,,276.7900798999999,276.80598120000013,277.28861340000003,277.29038409999976,277.3054069,281.03751120000015,,,,,281.0376438000003,281.0534474999995,281.2537820999996,281.23754050000025,277.3054069,,,,,,,,0,1,3.729040499999428,None,,,,,,,,888,23,M,R,2026-02-25_12h04.22.781,VisualSearch_2526_3,,2025.2.4,2026-02-25 12h04.23.000318 +0100,
tilted.xlsx,The target is tilted.,117,86,6,10,0,1,1,1,1,1,1,1,0,0,0,0,1,7,8,117,space,4.892468299999564,None,0,1,2.21756060000007,None,space,2.9441352999992887,None,0,0,0,0,,,,,10,6,86,5,281.2537820999996,,,,,,,,,,,,,,,,,,,,,281.23824570000033,281.2537820999996,281.7374963000002,281.7419033999995,281.7582687000004,283.9870857999995,,,,,283.9873031999996,284.0022309999995,284.2025278000001,284.1864118000003,281.7582687000004,,,,,,,,0,1,2.21756060000007,None,,,,,,,,888,23,M,R,2026-02-25_12h04.22.781,VisualSearch_2526_3,,2025.2.4,2026-02-25 12h04.23.000318 +0100,
tilted.xlsx,The target is tilted.,117,87,7,10,1,1,1,1,1,1,1,1,0,0,0,0,0,7,8,117,space,4.892468299999564,None,1,1,1.2402414999996836,None,space,2.9441352999992887,None,0,0,0,0,,,,,10,7,87,1,284.2025278000001,,,,,,,,,,,,,,,,,,,,,284.18712909999977,284.2025278000001,284.6861550000003,284.69058029999997,284.7065235,285.95278750000034,,,,,285.9529843,285.9681052999995,286.16830819999996,286.1521491000003,284.7065235,,,,,,,,1,1,1.2402414999996836,None,,,,,,,,888,23,M,R,2026-02-25_12h04.22.781,VisualSearch_2526_3,,2025.2.4,2026-02-25 12h04.23.000318 +0100,
tilted.xlsx,The target is tilted.,117,88,0,11,0,1,1,1,1,1,1,1,1,1,1,1,1,11,12,117,space,4.892468299999564,None,0,1,3.063529000000017,None,space,2.9441352999992887,None,0,0,0,0,,,,,11,0,88,4,286.16830819999996,,,,,,,,,,,,,,,,,,,,,286.1530061000003,286.16830819999996,286.65193439999985,286.6563798999996,286.6717655000002,289.75101019999966,,,,,289.7512096999999,289.76622750000024,289.9665638999995,289.95031689999996,286.6717655000002,,,,,,,,0,1,3.063529000000017,None,,,,,,,,888,23,M,R,2026-02-25_12h04.22.781,VisualSearch_2526_3,,2025.2.4,2026-02-25 12h04.23.000318 +0100,
tilted.xlsx,The target is tilted.,117,89,1,11,1,1,1,1,1,1,1,1,0,0,0,0,0,7,8,117,space,4.892468299999564,None,1,1,3.226539899999807,None,space,2.9441352999992887,None,0,0,0,0,,,,,11,1,89,1,289.9665638999995,,,,,,,,,,,,,,,,,,,,,289.9511143999998,289.9665638999995,290.4500275999999,290.45450299999993,290.4705831000001,293.6993096999995,,,,,293.6995397999999,293.7145343000002,293.9147628999999,293.8986533999996,290.4705831000001,,,,,,,,1,1,3.226539899999807,None,,,,,,,,888,23,M,R,2026-02-25_12h04.22.781,VisualSearch_2526_3,,2025.2.4,2026-02-25 12h04.23.000318 +0100,
tilted.xlsx,The target is tilted.,117,90,2,11,1,1,1,1,0,0,0,0,0,0,0,0,0,3,4,117,space,4.892468299999564,None,1,1,0.739249799999925,None,space,2.9441352999992887,None,0,0,0,0,,,,,11,2,90,2,293.9147628999999,,,,,,,,,,,,,,,,,,,,,293.89935270000024,293.9147628999999,294.39843089999977,294.4028877999999,294.4196012000002,295.1652297999999,,,,,295.1654294,295.1808288000002,295.3802780999995,295.3646983999997,294.4196012000002,,,,,,,,1,1,0.739249799999925,None,,,,,,,,888,23,M,R,2026-02-25_12h04.22.781,VisualSearch_2526_3,,2025.2.4,2026-02-25 12h04.23.000318 +0100,
tilted.xlsx,The target is tilted.,117,91,3,11,0,0,0,0,0,0,0,0,0,0,0,0,1,1,1,117,space,4.892468299999564,None,0,1,0.5818036000000575,None,space,2.9441352999992887,None,0,0,0,0,,,,,11,3,91,7,295.3802780999995,,,,,,,,,,,,,,,,,,,,,295.3655040000003,295.3802780999995,295.8640894,295.8686650999998,295.8857460999998,296.48126049999973,,,,,296.4814698,296.4969387000001,296.69685949999985,296.6807362999998,295.8857460999998,,,,,,,,0,1,0.5818036000000575,None,,,,,,,,888,23,M,R,2026-02-25_12h04.22.781,VisualSearch_2526_3,,2025.2.4,2026-02-25 12h04.23.000318 +0100,
tilted.xlsx,The target is tilted.,117,92,4,11,0,1,1,1,0,0,0,0,0,0,0,0,1,3,4,117,space,4.892468299999564,None,0,1,1.044586199999685,None,space,2.9441352999992887,None,0,0,0,0,,,,,11,4,92,6,296.69685949999985,,,,,,,,,,,,,,,,,,,,,296.68154549999963,296.69685949999985,297.1802951999998,297.18479730000035,297.2026874000003,298.26331180000034,,,,,298.2634914999999,298.2789759999996,298.4790372999996,298.46282229999997,297.2026874000003,,,,,,,,0,1,1.044586199999685,None,,,,,,,,888,23,M,R,2026-02-25_12h04.22.781,VisualSearch_2526_3,,2025.2.4,2026-02-25 12h04.23.000318 +0100,
tilted.xlsx,The target is tilted.,117,93,5,11,0,1,1,1,1,1,1,1,0,0,0,0,1,7,8,117,space,4.892468299999564,None,0,1,2.702490300000136,None,space,2.9441352999992887,None,0,0,0,0,,,,,11,5,93,5,298.4790372999996,,,,,,,,,,,,,,,,,,,,,298.46350379999967,298.4790372999996,298.9629745000002,298.9673179000001,298.98384460000034,301.69564900000023,,,,,301.69584699999996,301.71115459999965,301.91111660000024,301.89499309999974,298.98384460000034,,,,,,,,0,1,2.702490300000136,None,,,,,,,,888,23,M,R,2026-02-25_12h04.22.781,VisualSearch_2526_3,,2025.2.4,2026-02-25 12h04.23.000318 +0100,
tilted.xlsx,The target is tilted.,117,94,6,11,1,1,1,1,1,1,1,1,1,1,1,1,0,11,12,117,space,4.892468299999564,None,1,1,1.4908260000001974,None,space,2.9441352999992887,None,0,0,0,0,,,,,11,6,94,0,301.91111660000024,,,,,,,,,,,,,,,,,,,,,301.89580339999975,301.91111660000024,302.3947656,302.39913700000034,302.4166382000003,303.9109182000002,,,,,303.9111155999999,303.92636140000013,304.12670720000006,304.1104863999999,302.4166382000003,,,,,,,,1,1,1.4908260000001974,None,,,,,,,,888,23,M,R,2026-02-25_12h04.22.781,VisualSearch_2526_3,,2025.2.4,2026-02-25 12h04.23.000318 +0100,
tilted.xlsx,The target is tilted.,117,95,7,11,1,0,0,0,0,0,0,0,0,0,0,0,0,0,1,117,space,4.892468299999564,None,1,1,0.5035698000001503,None,space,2.9441352999992887,None,0,0,0,0,,,,,11,7,95,3,304.12670720000006,,,,,,,,,,,,,,,,,,,,,304.1112796999996,304.12670720000006,304.6101324000001,304.61454520000007,304.6301797999995,305.14411440000003,,,,,305.14433889999964,305.15955159999976,305.3593589000002,305.3433868000002,304.6301797999995,,,,,,,,1,1,0.5035698000001503,None,,,,,,,,888,23,M,R,2026-02-25_12h04.22.781,VisualSearch_2526_3,,2025.2.4,2026-02-25 12h04.23.000318 +0100,
tilted.xlsx,The target is tilted.,117,96,0,12,0,1,1,1,0,0,0,0,0,0,0,0,1,3,4,117,space,4.892468299999564,None,0,1,1.1009776000000784,None,space,2.9441352999992887,None,0,0,0,0,,,,,12,0,96,6,305.3593589000002,,,,,,,,,,,,,,,,,,,,,305.3441622999999,305.3593589000002,305.84317959999953,305.84753869999986,305.86368800000037,306.97669870000027,,,,,306.9769336999998,306.9917095999999,307.1919680000001,307.1759229999998,305.86368800000037,,,,,,,,0,1,1.1009776000000784,None,,,,,,,,888,23,M,R,2026-02-25_12h04.22.781,VisualSearch_2526_3,,2025.2.4,2026-02-25 12h04.23.000318 +0100,
tilted.xlsx,The target is tilted.,117,97,1,12,1,1,1,1,1,1,1,1,1,1,1,1,0,11,12,117,space,4.892468299999564,None,1,1,0.6912523999999394,None,space,2.9441352999992887,None,0,0,0,0,,,,,12,1,97,0,307.1919680000001,,,,,,,,,,,,,,,,,,,,,307.1767377999995,307.1919680000001,307.6752077000001,307.6796267999998,307.6963145999998,308.39216080000006,,,,,308.3923574999999,308.4080805000003,308.6081353999998,308.59194620000017,307.6963145999998,,,,,,,,1,1,0.6912523999999394,None,,,,,,,,888,23,M,R,2026-02-25_12h04.22.781,VisualSearch_2526_3,,2025.2.4,2026-02-25 12h04.23.000318 +0100,
tilted.xlsx,The target is tilted.,117,98,2,12,0,1,1,1,1,1,1,1,1,1,1,1,1,11,12,117,space,4.892468299999564,None,0,1,3.190929100000176,None,space,2.9441352999992887,None,0,0,0,0,,,,,12,2,98,4,308.6081353999998,,,,,,,,,,,,,,,,,,,,,308.59265179999966,308.6081353999998,309.0913148999998,309.09577360000003,309.1076825,312.3074064000002,,,,,312.30760139999984,312.3229658999999,312.5229511999996,312.5063522999999,309.1076825,,,,,,,,0,1,3.190929100000176,None,,,,,,,,888,23,M,R,2026-02-25_12h04.22.781,VisualSearch_2526_3,,2025.2.4,2026-02-25 12h04.23.000318 +0100,
tilted.xlsx,The target is tilted.,117,99,3,12,0,1,1,1,1,1,1,1,0,0,0,0,1,7,8,117,space,4.892468299999564,None,0,1,2.5096700000003693,None,space,2.9441352999992887,None,0,0,0,0,,,,,12,3,99,5,312.5229511999996,,,,,,,,,,,,,,,,,,,,,312.50707129999955,312.5229511999996,313.0064156999997,313.0108543999995,313.0220822000001,315.53906949999964,,,,,315.5392468,315.5548448999998,315.75479579999956,315.7386084,313.0220822000001,,,,,,,,0,1,2.5096700000003693,None,,,,,,,,888,23,M,R,2026-02-25_12h04.22.781,VisualSearch_2526_3,,2025.2.4,2026-02-25 12h04.23.000318 +0100,
tilted.xlsx,The target is tilted.,117,100,4,12,1,0,0,0,0,0,0,0,0,0,0,0,0,0,1,117,space,4.892468299999564,None,1,1,0.7162234999996144,None,space,2.9441352999992887,None,0,0,0,0,,,,,12,4,100,3,315.75479579999956,,,,,,,,,,,,,,,,,,,,,315.73931149999953,315.75479579999956,316.23802009999963,316.2425138999997,316.2544208999998,316.9717776999996,,,,,316.97195379999994,316.9875393000002,317.1873310000001,317.1711462000003,316.2544208999998,,,,,,,,1,1,0.7162234999996144,None,,,,,,,,888,23,M,R,2026-02-25_12h04.22.781,VisualSearch_2526_3,,2025.2.4,2026-02-25 12h04.23.000318 +0100,
tilted.xlsx,The target is tilted.,117,101,5,12,0,0,0,0,0,0,0,0,0,0,0,0,1,1,1,117,space,4.892468299999564,None,0,1,0.7592500000000655,None,space,2.9441352999992887,None,0,0,0,0,,,,,12,5,101,7,317.1873310000001,,,,,,,,,,,,,,,,,,,,,317.1718705000003,317.1873310000001,317.67069830000037,317.67542739999953,317.68708679999963,318.4547770999998,,,,,318.4549975,318.4701795000001,318.6700955999995,318.653867,317.68708679999963,,,,,,,,0,1,0.7592500000000655,None,,,,,,,,888,23,M,R,2026-02-25_12h04.22.781,VisualSearch_2526_3,,2025.2.4,2026-02-25 12h04.23.000318 +0100,
tilted.xlsx,The target is tilted.,117,102,6,12,1,1,1,1,1,1,1,1,0,0,0,0,0,7,8,117,space,4.892468299999564,None,1,1,0.7469583000001876,None,space,2.9441352999992887,None,0,0,0,0,,,,,12,6,102,1,318.6700955999995,,,,,,,,,,,,,,,,,,,,,318.6545987999998,318.6700955999995,319.15347480000037,319.1578380000001,319.1762312999999,319.93730549999964,,,,,319.93752099999983,319.9528809000003,320.1527709000002,320.13676940000005,319.1762312999999,,,,,,,,1,1,0.7469583000001876,None,,,,,,,,888,23,M,R,2026-02-25_12h04.22.781,VisualSearch_2526_3,,2025.2.4,2026-02-25 12h04.23.000318 +0100,
tilted.xlsx,The target is tilted.,117,103,7,12,1,1,1,1,0,0,0,0,0,0,0,0,0,3,4,117,space,4.892468299999564,None,0,0,1.1586972999994032,None,space,2.9441352999992887,None,0,0,0,0,,,,,12,7,103,2,320.1527709000002,,,,,,,,,,,,,,,,,,,,,320.13750600000003,320.1527709000002,320.63652850000017,320.6410128999996,320.6562329999997,321.8192933999999,,,,,321.8194695000002,321.83531270000003,322.03507460000037,322.01917330000015,320.6562329999997,,,,,,,,0,0,1.1586972999994032,None,,,,,,,,888,23,M,R,2026-02-25_12h04.22.781,VisualSearch_2526_3,,2025.2.4,2026-02-25 12h04.23.000318 +0100,
tilted.xlsx,The target is tilted.,117,104,0,13,0,1,1,1,0,0,0,0,0,0,0,0,1,3,4,117,space,4.892468299999564,None,0,1,0.8859659999998257,None,space,2.9441352999992887,None,0,0,0,0,,,,,13,0,104,6,322.03507460000037,,,,,,,,,,,,,,,,,,,,,322.01988470000015,322.03507460000037,322.51903889999994,322.5240262999996,322.54029919999994,323.43573769999966,,,,,323.4359328999999,323.45088940000005,323.65084769999976,323.6351003,322.54029919999994,,,,,,,,0,1,0.8859659999998257,None,,,,,,,,888,23,M,R,2026-02-25_12h04.22.781,VisualSearch_2526_3,,2025.2.4,2026-02-25 12h04.23.000318 +0100,
tilted.xlsx,The target is tilted.,117,105,1,13,0,1,1,1,1,1,1,1,0,0,0,0,1,7,8,117,space,4.892468299999564,None,0,1,2.4518459999999322,None,space,2.9441352999992887,None,0,0,0,0,,,,,13,1,105,5,323.65084769999976,,,,,,,,,,,,,,,,,,,,,323.6357978999995,323.65084769999976,324.13475930000004,324.13976569999977,324.15573080000013,326.6175972000001,,,,,326.61779790000037,326.6331,326.8331158000001,326.81700530000035,324.15573080000013,,,,,,,,0,1,2.4518459999999322,None,,,,,,,,888,23,M,R,2026-02-25_12h04.22.781,VisualSearch_2526_3,,2025.2.4,2026-02-25 12h04.23.000318 +0100,
tilted.xlsx,The target is tilted.,117,106,2,13,0,0,0,0,0,0,0,0,0,0,0,0,1,1,1,117,space,4.892468299999564,None,0,1,0.6443315000005896,None,space,2.9441352999992887,None,0,0,0,0,,,,,13,2,106,7,326.8331158000001,,,,,,,,,,,,,,,,,,,,,326.8177317999998,326.8331158000001,327.3163509999995,327.32074529999954,327.33649570000034,327.9837650999998,,,,,327.9839814999996,327.99888889999966,328.19884399999955,328.18290119999983,327.33649570000034,,,,,,,,0,1,0.6443315000005896,None,,,,,,,,888,23,M,R,2026-02-25_12h04.22.781,VisualSearch_2526_3,,2025.2.4,2026-02-25 12h04.23.000318 +0100,
tilted.xlsx,The target is tilted.,117,107,3,13,0,1,1,1,1,1,1,1,1,1,1,1,1,11,12,117,space,4.892468299999564,None,0,1,3.8745419999995647,None,space,2.9441352999992887,None,0,0,0,0,,,,,13,3,107,4,328.19884399999955,,,,,,,,,,,,,,,,,,,,,328.1836223,328.19884399999955,328.68277639999997,328.68727690000014,328.7037406999998,332.5816987999997,,,,,332.58193349999965,332.5970864000001,332.7971085999998,332.78051419999974,328.7037406999998,,,,,,,,0,1,3.8745419999995647,None,,,,,,,,888,23,M,R,2026-02-25_12h04.22.781,VisualSearch_2526_3,,2025.2.4,2026-02-25 12h04.23.000318 +0100,
tilted.xlsx,The target is tilted.,117,108,4,13,1,1,1,1,1,1,1,1,1,1,1,1,0,11,12,117,space,4.892468299999564,None,1,1,2.1997307999999975,None,space,2.9441352999992887,None,0,0,0,0,,,,,13,4,108,0,332.7971085999998,,,,,,,,,,,,,,,,,,,,,332.78124750000006,332.7971085999998,333.28035029999955,333.2846843999996,333.29662219999955,335.5131357999999,,,,,335.5133133999998,335.5286913,335.72872129999996,335.7129248000001,333.29662219999955,,,,,,,,1,1,2.1997307999999975,None,,,,,,,,888,23,M,R,2026-02-25_12h04.22.781,VisualSearch_2526_3,,2025.2.4,2026-02-25 12h04.23.000318 +0100,
tilted.xlsx,The target is tilted.,117,109,5,13,1,0,0,0,0,0,0,0,0,0,0,0,0,0,1,117,space,4.892468299999564,None,1,1,0.627295199999935,None,space,2.9441352999992887,None,0,0,0,0,,,,,13,5,109,3,335.72872129999996,,,,,,,,,,,,,,,,,,,,,335.71362969999973,335.72872129999996,336.2125138000001,336.2170200999999,336.23495879999973,336.87903709999955,,,,,336.8792334,336.89483370000016,337.0946447999995,337.0786071000002,336.23495879999973,,,,,,,,1,1,0.627295199999935,None,,,,,,,,888,23,M,R,2026-02-25_12h04.22.781,VisualSearch_2526_3,,2025.2.4,2026-02-25 12h04.23.000318 +0100,
tilted.xlsx,The target is tilted.,117,110,6,13,1,1,1,1,0,0,0,0,0,0,0,0,0,3,4,117,space,4.892468299999564,None,1,1,0.8506770000003598,None,space,2.9441352999992887,None,0,0,0,0,,,,,13,6,110,2,337.0946447999995,,,,,,,,,,,,,,,,,,,,,337.0793735999996,337.0946447999995,337.57883930000025,337.58324619999985,337.5997626999997,338.4622524999995,,,,,338.46248709999963,338.4777131999999,338.6772457999996,338.66122989999985,337.5997626999997,,,,,,,,1,1,0.8506770000003598,None,,,,,,,,888,23,M,R,2026-02-25_12h04.22.781,VisualSearch_2526_3,,2025.2.4,2026-02-25 12h04.23.000318 +0100,
tilted.xlsx,The target is tilted.,117,111,7,13,1,1,1,1,1,1,1,1,0,0,0,0,0,7,8,117,space,4.892468299999564,None,1,1,1.9170581999997012,None,space,2.9441352999992887,None,0,0,0,0,,,,,13,7,111,1,338.6772457999996,,,,,,,,,,,,,,,,,,,,,338.66194319999977,338.6772457999996,339.1611876999996,339.1656852999995,339.1830570000002,341.11082890000034,,,,,341.1110097999999,341.1265838999998,341.3260527000002,341.3101999999999,339.1830570000002,,,,,,,,1,1,1.9170581999997012,None,,,,,,,,888,23,M,R,2026-02-25_12h04.22.781,VisualSearch_2526_3,,2025.2.4,2026-02-25 12h04.23.000318 +0100,
tilted.xlsx,The target is tilted.,117,112,0,14,0,1,1,1,1,1,1,1,0,0,0,0,1,7,8,117,space,4.892468299999564,None,0,1,1.6746143000000302,None,space,2.9441352999992887,None,0,0,0,0,,,,,14,0,112,5,341.3260527000002,,,,,,,,,,,,,,,,,,,,,341.3110365000002,341.3260527000002,341.8100658000003,341.81447019999996,341.83156659999986,343.5095824,,,,,343.5097777000001,343.5252203,343.7254062000002,343.70915460000015,341.83156659999986,,,,,,,,0,1,1.6746143000000302,None,,,,,,,,888,23,M,R,2026-02-25_12h04.22.781,VisualSearch_2526_3,,2025.2.4,2026-02-25 12h04.23.000318 +0100,
tilted.xlsx,The target is tilted.,117,113,1,14,1,1,1,1,1,1,1,1,1,1,1,1,0,11,12,117,space,4.892468299999564,None,0,0,2.8538300999998683,None,space,2.9441352999992887,None,0,0,0,0,,,,,14,1,113,0,343.7254062000002,,,,,,,,,,,,,,,,,,,,,343.70988209999996,343.7254062000002,344.2090935999995,344.21351330000016,344.2293245999999,347.0909187999996,,,,,347.09104109999953,347.1069373,347.3071936999995,347.2908344999996,344.2293245999999,,,,,,,,0,0,2.8538300999998683,None,,,,,,,,888,23,M,R,2026-02-25_12h04.22.781,VisualSearch_2526_3,,2025.2.4,2026-02-25 12h04.23.000318 +0100,
tilted.xlsx,The target is tilted.,117,114,2,14,1,0,0,0,0,0,0,0,0,0,0,0,0,0,1,117,space,4.892468299999564,None,1,1,0.6056268000002092,None,space,2.9441352999992887,None,0,0,0,0,,,,,14,2,114,3,347.3071936999995,,,,,,,,,,,,,,,,,,,,,347.29156839999996,347.3071936999995,347.79036879999967,347.7949359000004,347.8131811000003,348.4243531000002,,,,,348.42455299999983,348.4398103000003,348.63942750000024,348.62369560000025,347.8131811000003,,,,,,,,1,1,0.6056268000002092,None,,,,,,,,888,23,M,R,2026-02-25_12h04.22.781,VisualSearch_2526_3,,2025.2.4,2026-02-25 12h04.23.000318 +0100,
tilted.xlsx,The target is tilted.,117,115,3,14,1,1,1,1,0,0,0,0,0,0,0,0,0,3,4,117,space,4.892468299999564,None,0,0,1.3737105000000156,None,space,2.9441352999992887,None,0,0,0,0,,,,,14,3,115,2,348.63942750000024,,,,,,,,,,,,,,,,,,,,,348.624409,348.63942750000024,349.12350270000024,349.1279009,349.14532450000024,350.5230848000001,,,,,350.5232839999999,350.53863829999955,350.73851769999965,350.7228315000002,349.14532450000024,,,,,,,,0,0,1.3737105000000156,None,,,,,,,,888,23,M,R,2026-02-25_12h04.22.781,VisualSearch_2526_3,,2025.2.4,2026-02-25 12h04.23.000318 +0100,
tilted.xlsx,The target is tilted.,117,116,4,14,0,1,1,1,0,0,0,0,0,0,0,0,1,3,4,117,space,4.892468299999564,None,0,1,1.0043048999996245,None,space,2.9441352999992887,None,0,0,0,0,,,,,14,4,116,6,350.73851769999965,,,,,,,,,,,,,,,,,,,,,350.7236477999995,350.73851769999965,351.22253269999965,351.2269594999998,351.24221709999983,352.25597839999955,,,,,352.2562230000003,352.2714539999997,352.4714101999998,352.4549251999997,351.24221709999983,,,,,,,,0,1,1.0043048999996245,None,,,,,,,,888,23,M,R,2026-02-25_12h04.22.781,VisualSearch_2526_3,,2025.2.4,2026-02-25 12h04.23.000318 +0100,
tilted.xlsx,The target is tilted.,117,117,5,14,0,0,0,0,0,0,0,0,0,0,0,0,1,1,1,117,space,4.892468299999564,None,0,1,0.606548699999621,None,space,2.9441352999992887,None,0,0,0,0,,,,,14,5,117,7,352.4714101999998,,,,,,,,,,,,,,,,,,,,,352.4556348999995,352.4714101999998,352.9551806999998,352.9596161999998,352.97099660000003,353.58874190000006,,,,,353.58895329999996,353.60405790000004,353.8041624999996,353.78807419999976,352.97099660000003,,,,,,,,0,1,0.606548699999621,None,,,,,,,,888,23,M,R,2026-02-25_12h04.22.781,VisualSearch_2526_3,,2025.2.4,2026-02-25 12h04.23.000318 +0100,
tilted.xlsx,The target is tilted.,117,118,6,14,1,1,1,1,1,1,1,1,0,0,0,0,0,7,8,117,space,4.892468299999564,None,1,1,2.7171819999994113,None,space,2.9441352999992887,None,0,0,0,0,,,,,14,6,118,1,353.8041624999996,,,,,,,,,,,,,,,,,,,,,353.78876860000037,353.8041624999996,354.2877063999995,354.2921269999997,354.3085842999999,357.0370707000002,,,,,357.03726670000015,357.05247039999995,357.25215879999996,357.23647619999974,354.3085842999999,,,,,,,,1,1,2.7171819999994113,None,,,,,,,,888,23,M,R,2026-02-25_12h04.22.781,VisualSearch_2526_3,,2025.2.4,2026-02-25 12h04.23.000318 +0100,
tilted.xlsx,The target is tilted.,117,119,7,14,0,1,1,1,1,1,1,1,1,1,1,1,1,11,12,117,space,4.892468299999564,None,0,1,3.7139564999997674,None,space,2.9441352999992887,None,0,0,0,0,,,,,14,7,119,4,357.25215879999996,,,,,,,,,,,,,,,,,,,,,357.23718759999974,357.25215879999996,357.7362247000001,357.7406271,357.75696530000005,361.4845878999995,,,,,361.48476519999986,361.50024250000024,361.7164909000003,361.68418930000007,357.75696530000005,,,,,,,,0,1,3.7139564999997674,None,,,,,,,,888,23,M,R,2026-02-25_12h04.22.781,VisualSearch_2526_3,,2025.2.4,2026-02-25 12h04.23.000318 +0100,
tilted.xlsx,The target is tilted.,117,0,0,0,,,,,,,,,,,,,,,,,space,4.892468299999564,None,,,,,space,2.9441352999992887,None,0,0,0,0,,,,,,,,,,,,,,,,,,,,,,,,,,,,,,,,,,,,,,,,,,,,,,,,,,,,,,,,,,,,,,,888,23,M,R,2026-02-25_12h04.22.781,VisualSearch_2526_3,,2025.2.4,2026-02-25 12h04.23.000318 +0100,
vertical.xlsx,The target is tilted.,135,0,0,0,1,1,1,1,0,0,0,0,0,0,0,0,0,3,4,135,space,32.54878800000006,None,1,1,0.7191406000001734,None,,,,0,1,1,1,0,0,0,2,,,,,394.29903099999956,,,,,,,,,,,,,,,361.7164909000003,361.7164909000003,361.7164909000003,space,32.54878800000006,None,394.2948164999998,394.29903099999956,394.7857726000002,394.7903274999999,394.8016713999996,395.5351915000001,1,1,0.7191406000001734,None,395.5352978000001,395.5512441999999,395.75167710000005,395.73556910000025,,,,,,,,,,,,,,,,,,,,888,23,M,R,2026-02-25_12h04.22.781,VisualSearch_2526_3,,2025.2.4,2026-02-25 12h04.23.000318 +0100,
vertical.xlsx,The target is tilted.,135,1,1,0,1,1,1,1,1,1,1,1,1,1,1,1,0,11,12,135,space,32.54878800000006,None,1,1,0.7216648999992685,None,,,,0,1,1,1,0,1,1,0,,,,,395.75167710000005,,,,,,,,,,,,,,,,,,,,,395.73628689999987,395.75167710000005,396.2354515999996,396.2398291999998,396.25707369999964,396.9854482999999,1,1,0.7216648999992685,None,396.9856374000001,397.0009878999999,397.20106659999965,397.18496959999993,396.25707369999964,,,,,,,,,,,,,,,,,,,888,23,M,R,2026-02-25_12h04.22.781,VisualSearch_2526_3,,2025.2.4,2026-02-25 12h04.23.000318 +0100,
vertical.xlsx,The target is tilted.,135,2,2,0,0,1,1,1,0,0,0,0,0,0,0,0,1,3,4,135,space,32.54878800000006,None,0,1,0.6855053999997835,None,,,,0,1,1,1,0,2,2,6,,,,,397.20106659999965,,,,,,,,,,,,,,,,,,,,,397.18561150000005,397.20106659999965,397.6847576,397.68925860000036,397.70552899999984,398.40162059999966,0,1,0.6855053999997835,None,398.40181010000015,398.4168327999996,398.6171089999998,398.6008985999997,397.70552899999984,,,,,,,,,,,,,,,,,,,888,23,M,R,2026-02-25_12h04.22.781,VisualSearch_2526_3,,2025.2.4,2026-02-25 12h04.23.000318 +0100,
vertical.xlsx,The target is tilted.,135,3,3,0,1,0,0,0,0,0,0,0,0,0,0,0,0,0,1,135,space,32.54878800000006,None,1,1,0.48018950000005134,None,,,,0,1,1,1,0,3,3,3,,,,,398.6171089999998,,,,,,,,,,,,,,,,,,,,,398.6015460999997,398.6171089999998,399.1003665999997,399.10479789999954,399.1173885999997,399.60056069999973,1,1,0.48018950000005134,None,399.6007318000002,399.6161474999999,399.8163896999995,399.80014010000014,399.1173885999997,,,,,,,,,,,,,,,,,,,888,23,M,R,2026-02-25_12h04.22.781,VisualSearch_2526_3,,2025.2.4,2026-02-25 12h04.23.000318 +0100,
vertical.xlsx,The target is tilted.,135,4,4,0,0,1,1,1,1,1,1,1,1,1,1,1,1,11,12,135,space,32.54878800000006,None,0,1,3.0198949000005086,None,,,,0,1,1,1,0,4,4,4,,,,,399.8163896999995,,,,,,,,,,,,,,,,,,,,,399.8007918000003,399.8163896999995,400.2999818999997,400.3044007999997,400.3213023999997,403.3490485000002,0,1,3.0198949000005086,None,403.3492376000004,403.3645955000002,403.5648265,403.5487813,400.3213023999997,,,,,,,,,,,,,,,,,,,888,23,M,R,2026-02-25_12h04.22.781,VisualSearch_2526_3,,2025.2.4,2026-02-25 12h04.23.000318 +0100,
vertical.xlsx,The target is tilted.,135,5,5,0,0,1,1,1,1,1,1,1,0,0,0,0,1,7,8,135,space,32.54878800000006,None,0,1,1.2112404999998034,None,,,,0,1,1,1,0,5,5,5,,,,,403.5648265,,,,,,,,,,,,,,,,,,,,,403.5494318000001,403.5648265,404.04848839999977,404.0529047,404.0682896999997,405.2818668,0,1,1.2112404999998034,None,405.28208410000025,405.29738089999955,405.49683149999964,405.48111439999957,404.0682896999997,,,,,,,,,,,,,,,,,,,888,23,M,R,2026-02-25_12h04.22.781,VisualSearch_2526_3,,2025.2.4,2026-02-25 12h04.23.000318 +0100,
vertical.xlsx,The target is tilted.,135,6,6,0,0,0,0,0,0,0,0,0,0,0,0,0,1,1,1,135,space,32.54878800000006,None,0,1,0.4872027999999773,None,,,,0,1,1,1,0,6,6,7,,,,,405.49683149999964,,,,,,,,,,,,,,,,,,,,,405.48183880000033,405.49683149999964,405.9809409999998,405.98534540000037,405.9993892000002,406.4970867000002,0,1,0.4872027999999773,None,406.49718959999973,406.51281130000007,406.7133998999998,406.6973159999998,405.9993892000002,,,,,,,,,,,,,,,,,,,888,23,M,R,2026-02-25_12h04.22.781,VisualSearch_2526_3,,2025.2.4,2026-02-25 12h04.23.000318 +0100,
vertical.xlsx,The target is tilted.,135,7,7,0,1,1,1,1,1,1,1,1,0,0,0,0,0,7,8,135,space,32.54878800000006,None,1,1,0.7621836999996958,None,,,,0,1,1,1,0,7,7,1,,,,,406.7133998999998,,,,,,,,,,,,,,,,,,,,,406.6979672999996,406.7133998999998,407.19709299999977,407.20146079999995,407.2177882999995,407.9964566999997,1,1,0.7621836999996958,None,407.99654050000026,408.0124582999997,408.2126570999999,408.1964853999998,407.2177882999995,,,,,,,,,,,,,,,,,,,888,23,M,R,2026-02-25_12h04.22.781,VisualSearch_2526_3,,2025.2.4,2026-02-25 12h04.23.000318 +0100,
vertical.xlsx,The target is tilted.,135,0,0,0,1,0,0,0,0,0,0,0,0,0,0,0,0,0,1,135,space,32.54878800000006,None,1,1,0.5717615000003207,None,space,1.5427666999994472,None,0,1,1,1,,,,,0,0,0,3,409.79255079999984,,,,,,,,,,,,,,,,,,,,,409.7883651000002,409.79255079999984,410.27865420000035,410.2832738999996,410.2960051,410.8798778999999,,,,,410.8800758999996,410.89468209999995,411.09475329999987,411.0785457000002,,408.2032392000001,408.2126570999999,408.2126570999999,409.76284229999965,space,1.5427666999994472,None,1,1,0.5717615000003207,None,,,,,,,,888,23,M,R,2026-02-25_12h04.22.781,VisualSearch_2526_3,,2025.2.4,2026-02-25 12h04.23.000318 +0100,
vertical.xlsx,The target is tilted.,135,1,1,0,0,1,1,1,1,1,1,1,1,1,1,1,1,11,12,135,space,32.54878800000006,None,0,1,1.5218631000007008,None,space,1.5427666999994472,None,0,1,1,1,,,,,0,1,1,4,411.09475329999987,,,,,,,,,,,,,,,,,,,,,411.07925259999956,411.09475329999987,411.57833089999986,411.5827841999999,411.59919400000035,413.12820569999985,,,,,413.1284274999998,413.1438032999995,413.34370390000004,413.3275937999997,411.59919400000035,,,,,,,,0,1,1.5218631000007008,None,,,,,,,,888,23,M,R,2026-02-25_12h04.22.781,VisualSearch_2526_3,,2025.2.4,2026-02-25 12h04.23.000318 +0100,
vertical.xlsx,The target is tilted.,135,2,2,0,1,1,1,1,1,1,1,1,0,0,0,0,0,7,8,135,space,32.54878800000006,None,0,0,1.1255757999997513,None,space,1.5427666999994472,None,0,1,1,1,,,,,0,2,2,1,413.34370390000004,,,,,,,,,,,,,,,,,,,,,413.3282933999999,413.34370390000004,413.8274630999995,413.8318995999998,413.8485106999997,414.97721809999985,,,,,414.9773932999997,414.9928096000003,415.19287669999994,415.1767835999999,413.8485106999997,,,,,,,,0,0,1.1255757999997513,None,,,,,,,,888,23,M,R,2026-02-25_12h04.22.781,VisualSearch_2526_3,,2025.2.4,2026-02-25 12h04.23.000318 +0100,
vertical.xlsx,The target is tilted.,135,3,3,0,0,1,1,1,0,0,0,0,0,0,0,0,1,3,4,135,space,32.54878800000006,None,0,1,0.5825437000003149,None,space,1.5427666999994472,None,0,1,1,1,,,,,0,3,3,6,415.19287669999994,,,,,,,,,,,,,,,,,,,,,415.1774856000002,415.19287669999994,415.67618349999975,415.6805677000002,415.6961578999999,416.29341360000035,,,,,416.2936087999997,416.3087128999996,416.50867800000015,416.4932233999998,415.6961578999999,,,,,,,,0,1,0.5825437000003149,None,,,,,,,,888,23,M,R,2026-02-25_12h04.22.781,VisualSearch_2526_3,,2025.2.4,2026-02-25 12h04.23.000318 +0100,
vertical.xlsx,The target is tilted.,135,4,4,0,0,0,0,0,0,0,0,0,0,0,0,0,1,1,1,135,space,32.54878800000006,None,0,1,0.42401880000034,None,space,1.5427666999994472,None,0,1,1,1,,,,,0,4,4,7,416.50867800000015,,,,,,,,,,,,,,,,,,,,,416.4939654,416.50867800000015,416.9925462000001,416.9969375999999,417.01343590000033,417.44256270000005,,,,,417.4427558999996,417.4581000999997,417.65845699999954,417.64224639999975,417.01343590000033,,,,,,,,0,1,0.42401880000034,None,,,,,,,,888,23,M,R,2026-02-25_12h04.22.781,VisualSearch_2526_3,,2025.2.4,2026-02-25 12h04.23.000318 +0100,
vertical.xlsx,The target is tilted.,135,5,5,0,0,1,1,1,1,1,1,1,0,0,0,0,1,7,8,135,space,32.54878800000006,None,0,1,0.9483872999999221,None,space,1.5427666999994472,None,0,1,1,1,,,,,0,5,5,5,417.65845699999954,,,,,,,,,,,,,,,,,,,,,417.64295070000026,417.65845699999954,418.1420748999999,418.1465361999999,418.1646111,419.1255050999998,,,,,419.1257003999999,419.1409195999995,419.34099119999973,419.32490489999964,418.1646111,,,,,,,,0,1,0.9483872999999221,None,,,,,,,,888,23,M,R,2026-02-25_12h04.22.781,VisualSearch_2526_3,,2025.2.4,2026-02-25 12h04.23.000318 +0100,
vertical.xlsx,The target is tilted.,135,6,6,0,1,1,1,1,1,1,1,1,1,1,1,1,0,11,12,135,space,32.54878800000006,None,1,1,1.2525217000002158,None,space,1.5427666999994472,None,0,1,1,1,,,,,0,6,6,0,419.34099119999973,,,,,,,,,,,,,,,,,,,,,419.32560319999993,419.34099119999973,419.8243032999999,419.82882249999966,419.8400337000003,421.10720370000035,,,,,421.1072856999999,421.12322349999977,421.32343070000024,421.30729640000027,419.8400337000003,,,,,,,,1,1,1.2525217000002158,None,,,,,,,,888,23,M,R,2026-02-25_12h04.22.781,VisualSearch_2526_3,,2025.2.4,2026-02-25 12h04.23.000318 +0100,
vertical.xlsx,The target is tilted.,135,7,7,0,1,1,1,1,0,0,0,0,0,0,0,0,0,3,4,135,space,32.54878800000006,None,1,1,0.5420624000007592,None,space,1.5427666999994472,None,0,1,1,1,,,,,0,7,7,2,421.32343070000024,,,,,,,,,,,,,,,,,,,,,421.3080262000003,421.32343070000024,421.8070885999996,421.81150230000003,421.82647309999993,422.3740754999999,,,,,422.37430440000026,422.38953889999993,422.5893132000001,422.5734077999996,421.82647309999993,,,,,,,,1,1,0.5420624000007592,None,,,,,,,,888,23,M,R,2026-02-25_12h04.22.781,VisualSearch_2526_3,,2025.2.4,2026-02-25 12h04.23.000318 +0100,
vertical.xlsx,The target is tilted.,135,8,0,1,0,1,1,1,1,1,1,1,0,0,0,0,1,7,8,135,space,32.54878800000006,None,0,1,1.2904164000001401,None,space,1.5427666999994472,None,0,1,1,1,,,,,1,0,8,5,422.5893132000001,,,,,,,,,,,,,,,,,,,,,422.5741152999999,422.5893132000001,423.07304139999997,423.07743779999964,423.0913907000004,424.3886427999996,,,,,424.3887476,424.4049869999999,,424.5889723,423.0913907000004,,,,,,,,0,1,1.2904164000001401,None,,,,,,,,888,23,M,R,2026-02-25_12h04.22.781,VisualSearch_2526_3,,2025.2.4,2026-02-25 12h04.23.000318 +0100,
vertical.xlsx,The target is tilted.,135,9,1,1,0,0,0,0,0,0,0,0,0,0,0,0,1,1,1,135,space,32.54878800000006,None,1,0,0.45258000000012544,None,space,1.5427666999994472,None,0,1,1,1,,,,,1,1,9,7,424.60536909999973,,,,,,,,,,,,,,,,,,,,,424.58974169999965,424.60536909999973,425.0889639999996,425.0933605,425.1097536999996,425.57256789999974,,,,,425.57276120000006,425.5880884999997,425.7879895999995,425.77158619999955,425.1097536999996,,,,,,,,1,0,0.45258000000012544,None,,,,,,,,888,23,M,R,2026-02-25_12h04.22.781,VisualSearch_2526_3,,2025.2.4,2026-02-25 12h04.23.000318 +0100,
vertical.xlsx,The target is tilted.,135,10,2,1,1,0,0,0,0,0,0,0,0,0,0,0,0,0,1,135,space,32.54878800000006,None,1,1,1.3523173000003226,None,space,1.5427666999994472,None,0,1,1,1,,,,,1,2,10,3,425.7879895999995,,,,,,,,,,,,,,,,,,,,,425.77229220000027,425.7879895999995,426.27148000000034,426.2754963999996,426.29020599999967,427.65500390000034,,,,,427.65523380000013,427.67018800000005,427.8701590999999,427.8543483000003,426.29020599999967,,,,,,,,1,1,1.3523173000003226,None,,,,,,,,888,23,M,R,2026-02-25_12h04.22.781,VisualSearch_2526_3,,2025.2.4,2026-02-25 12h04.23.000318 +0100,
vertical.xlsx,The target is tilted.,135,11,3,1,0,1,1,1,1,1,1,1,1,1,1,1,1,11,12,135,space,32.54878800000006,None,0,1,2.702607199999875,None,space,1.5427666999994472,None,0,1,1,1,,,,,1,3,11,4,427.8701590999999,,,,,,,,,,,,,,,,,,,,,427.8551623000003,427.8701590999999,428.35371140000007,428.3580844999997,428.3700325,431.08603849999963,,,,,431.08625089999987,431.10223919999953,431.3022052999995,431.2861635999998,428.3700325,,,,,,,,0,1,2.702607199999875,None,,,,,,,,888,23,M,R,2026-02-25_12h04.22.781,VisualSearch_2526_3,,2025.2.4,2026-02-25 12h04.23.000318 +0100,
vertical.xlsx,The target is tilted.,135,12,4,1,1,1,1,1,1,1,1,1,0,0,0,0,0,7,8,135,space,32.54878800000006,None,0,0,1.5760199999995166,None,space,1.5427666999994472,None,0,1,1,1,,,,,1,4,12,1,431.3022052999995,,,,,,,,,,,,,,,,,,,,,431.2869012000001,431.3022052999995,431.78598450000027,431.79040950000035,431.8073083999998,433.3853653999995,,,,,433.3855586999998,433.4010642000003,433.6008069999998,433.58498080000027,431.8073083999998,,,,,,,,0,0,1.5760199999995166,None,,,,,,,,888,23,M,R,2026-02-25_12h04.22.781,VisualSearch_2526_3,,2025.2.4,2026-02-25 12h04.23.000318 +0100,
vertical.xlsx,The target is tilted.,135,13,5,1,1,1,1,1,1,1,1,1,1,1,1,1,0,11,12,135,space,32.54878800000006,None,1,1,1.3003003000003446,None,space,1.5427666999994472,None,0,1,1,1,,,,,1,5,13,0,433.6008069999998,,,,,,,,,,,,,,,,,,,,,433.5856782999999,433.6008069999998,434.08483799999976,434.0892206999997,434.1061626999999,435.41818280000007,,,,,435.4183931999996,435.43336309999995,435.63358140000037,435.6176709000001,434.1061626999999,,,,,,,,1,1,1.3003003000003446,None,,,,,,,,888,23,M,R,2026-02-25_12h04.22.781,VisualSearch_2526_3,,2025.2.4,2026-02-25 12h04.23.000318 +0100,
vertical.xlsx,The target is tilted.,135,14,6,1,0,1,1,1,0,0,0,0,0,0,0,0,1,3,4,135,space,32.54878800000006,None,0,1,0.7849255999999514,None,space,1.5427666999994472,None,0,1,1,1,,,,,1,6,14,6,435.63358140000037,,,,,,,,,,,,,,,,,,,,,435.6183885999999,435.63358140000037,436.1172643,436.12166100000013,436.1380780999998,436.9341273,,,,,436.9343468999996,436.9494844999999,437.1494305999995,437.1331889000003,436.1380780999998,,,,,,,,0,1,0.7849255999999514,None,,,,,,,,888,23,M,R,2026-02-25_12h04.22.781,VisualSearch_2526_3,,2025.2.4,2026-02-25 12h04.23.000318 +0100,
vertical.xlsx,The target is tilted.,135,15,7,1,1,1,1,1,0,0,0,0,0,0,0,0,0,3,4,135,space,32.54878800000006,None,1,1,0.514419099999941,None,space,1.5427666999994472,None,0,1,1,1,,,,,1,7,15,2,437.1494305999995,,,,,,,,,,,,,,,,,,,,,437.13397710000027,437.1494305999995,437.6330982999998,437.6375478,437.6530319000003,438.18341299999975,,,,,438.18360500000017,438.19873000000007,438.39873220000027,438.38285480000013,437.6530319000003,,,,,,,,1,1,0.514419099999941,None,,,,,,,,888,23,M,R,2026-02-25_12h04.22.781,VisualSearch_2526_3,,2025.2.4,2026-02-25 12h04.23.000318 +0100,
vertical.xlsx,The target is tilted.,135,16,0,2,0,1,1,1,1,1,1,1,0,0,0,0,1,7,8,135,space,32.54878800000006,None,0,1,1.1803615999997419,None,space,1.5427666999994472,None,0,1,1,1,,,,,2,0,16,5,438.39873220000027,,,,,,,,,,,,,,,,,,,,,438.38358379999954,438.39873220000027,438.8826484000001,438.8870870999999,438.9024741000003,440.09884299999976,,,,,440.0990432999997,440.1148715999998,440.3147831999995,440.2985947999996,438.9024741000003,,,,,,,,0,1,1.1803615999997419,None,,,,,,,,888,23,M,R,2026-02-25_12h04.22.781,VisualSearch_2526_3,,2025.2.4,2026-02-25 12h04.23.000318 +0100,
vertical.xlsx,The target is tilted.,135,17,1,2,1,0,0,0,0,0,0,0,0,0,0,0,0,0,1,135,space,32.54878800000006,None,1,1,0.5027799999998024,None,space,1.5427666999994472,None,0,1,1,1,,,,,2,1,17,3,440.3147831999995,,,,,,,,,,,,,,,,,,,,,440.29932069999995,440.3147831999995,440.7985130999996,440.8029188999999,440.81809559999965,441.3320418000003,,,,,441.3322347000003,441.34771,441.5476313999998,441.5313285000002,440.81809559999965,,,,,,,,1,1,0.5027799999998024,None,,,,,,,,888,23,M,R,2026-02-25_12h04.22.781,VisualSearch_2526_3,,2025.2.4,2026-02-25 12h04.23.000318 +0100,
vertical.xlsx,The target is tilted.,135,18,2,2,1,1,1,1,1,1,1,1,0,0,0,0,0,7,8,135,space,32.54878800000006,None,1,1,0.91315829999985,None,space,1.5427666999994472,None,0,1,1,1,,,,,2,2,18,1,441.5476313999998,,,,,,,,,,,,,,,,,,,,,441.5320730000003,441.5476313999998,442.0309152,442.03534299999956,442.0471526000001,442.9648159999997,,,,,442.9650456999998,442.9800779999996,443.1801373999997,443.1639974999998,442.0471526000001,,,,,,,,1,1,0.91315829999985,None,,,,,,,,888,23,M,R,2026-02-25_12h04.22.781,VisualSearch_2526_3,,2025.2.4,2026-02-25 12h04.23.000318 +0100,
vertical.xlsx,The target is tilted.,135,19,3,2,1,1,1,1,0,0,0,0,0,0,0,0,0,3,4,135,space,32.54878800000006,None,1,1,0.7274661000001288,None,space,1.5427666999994472,None,0,1,1,1,,,,,2,3,19,2,443.1801373999997,,,,,,,,,,,,,,,,,,,,,443.1647213999995,443.1801373999997,443.6635190999996,443.66798000000017,443.6826081999998,444.41349119999995,,,,,444.4136835999998,444.4293811999996,444.6292910000002,444.6133612000003,443.6826081999998,,,,,,,,1,1,0.7274661000001288,None,,,,,,,,888,23,M,R,2026-02-25_12h04.22.781,VisualSearch_2526_3,,2025.2.4,2026-02-25 12h04.23.000318 +0100,
vertical.xlsx,The target is tilted.,135,20,4,2,0,0,0,0,0,0,0,0,0,0,0,0,1,1,1,135,space,32.54878800000006,None,0,1,0.6458308999999645,None,space,1.5427666999994472,None,0,1,1,1,,,,,2,4,20,7,444.6292910000002,,,,,,,,,,,,,,,,,,,,,444.61408630000005,444.6292910000002,445.11313960000007,445.1176015000001,445.13388680000025,445.79596649999985,,,,,445.7961359000001,445.8121924999996,446.01189909999994,445.99595859999954,445.13388680000025,,,,,,,,0,1,0.6458308999999645,None,,,,,,,,888,23,M,R,2026-02-25_12h04.22.781,VisualSearch_2526_3,,2025.2.4,2026-02-25 12h04.23.000318 +0100,
vertical.xlsx,The target is tilted.,135,21,5,2,0,1,1,1,0,0,0,0,0,0,0,0,1,3,4,135,space,32.54878800000006,None,0,1,0.6623948000005839,None,space,1.5427666999994472,None,0,1,1,1,,,,,2,5,21,6,446.01189909999994,,,,,,,,,,,,,,,,,,,,,445.996709,446.01189909999994,446.4953544,446.49984829999994,446.5117776999996,447.1791291999998,,,,,447.1793238999999,447.1948824000001,447.3948830999998,447.3788069000002,446.5117776999996,,,,,,,,0,1,0.6623948000005839,None,,,,,,,,888,23,M,R,2026-02-25_12h04.22.781,VisualSearch_2526_3,,2025.2.4,2026-02-25 12h04.23.000318 +0100,
vertical.xlsx,The target is tilted.,135,22,6,2,1,1,1,1,1,1,1,1,1,1,1,1,0,11,12,135,space,32.54878800000006,None,1,1,1.5862442999996347,None,space,1.5427666999994472,None,0,1,1,1,,,,,2,6,22,0,447.3948830999998,,,,,,,,,,,,,,,,,,,,,447.37957989999995,447.3948830999998,447.87865520000014,447.88304770000013,447.8994174999998,449.4944286,,,,,449.4946345999997,449.51017560000037,449.71013419999963,449.69426289999956,447.8994174999998,,,,,,,,1,1,1.5862442999996347,None,,,,,,,,888,23,M,R,2026-02-25_12h04.22.781,VisualSearch_2526_3,,2025.2.4,2026-02-25 12h04.23.000318 +0100,
vertical.xlsx,The target is tilted.,135,23,7,2,0,1,1,1,1,1,1,1,1,1,1,1,1,11,12,135,space,32.54878800000006,None,0,1,1.3727890999998635,None,space,1.5427666999994472,None,0,1,1,1,,,,,2,7,23,4,449.71013419999963,,,,,,,,,,,,,,,,,,,,,449.69502720000037,449.71013419999963,450.1938909999999,450.1984296999999,450.21552749999955,451.5932565000003,,,,,451.59335629999987,451.6093370999997,451.80938499999957,451.7932686000004,450.21552749999955,,,,,,,,0,1,1.3727890999998635,None,,,,,,,,888,23,M,R,2026-02-25_12h04.22.781,VisualSearch_2526_3,,2025.2.4,2026-02-25 12h04.23.000318 +0100,
vertical.xlsx,The target is tilted.,135,24,0,3,0,1,1,1,1,1,1,1,0,0,0,0,1,7,8,135,space,32.54878800000006,None,0,1,1.4357234999997672,None,space,1.5427666999994472,None,0,1,1,1,,,,,3,0,24,5,451.80938499999957,,,,,,,,,,,,,,,,,,,,,451.79401849999977,451.80938499999957,452.29321869999967,452.2976964999998,452.3090320000001,453.7596238999995,,,,,453.75981479999973,453.77525700000024,453.9747520000001,453.95920790000037,452.3090320000001,,,,,,,,0,1,1.4357234999997672,None,,,,,,,,888,23,M,R,2026-02-25_12h04.22.781,VisualSearch_2526_3,,2025.2.4,2026-02-25 12h04.23.000318 +0100,
vertical.xlsx,The target is tilted.,135,25,1,3,0,0,0,0,0,0,0,0,0,0,0,0,1,1,1,135,space,32.54878800000006,None,0,1,0.46132330000000366,None,space,1.5427666999994472,None,0,1,1,1,,,,,3,1,25,7,453.9747520000001,,,,,,,,,,,,,,,,,,,,,453.9599712999998,453.9747520000001,454.45888809999997,454.4633200999997,454.47985869999957,454.9424031999997,,,,,454.9425978999998,454.9577798999999,455.15800899999977,455.14146770000025,454.47985869999957,,,,,,,,0,1,0.46132330000000366,None,,,,,,,,888,23,M,R,2026-02-25_12h04.22.781,VisualSearch_2526_3,,2025.2.4,2026-02-25 12h04.23.000318 +0100,
vertical.xlsx,The target is tilted.,135,26,2,3,0,1,1,1,1,1,1,1,1,1,1,1,1,11,12,135,space,32.54878800000006,None,0,1,2.5096709999997984,None,space,1.5427666999994472,None,0,1,1,1,,,,,3,2,26,4,455.15800899999977,,,,,,,,,,,,,,,,,,,,,455.14217819999976,455.15800899999977,455.6416750999997,455.64618859999973,455.6613588,458.1742059999997,,,,,458.17438370000036,458.18950659999973,458.3898071000003,458.37377970000034,455.6613588,,,,,,,,0,1,2.5096709999997984,None,,,,,,,,888,23,M,R,2026-02-25_12h04.22.781,VisualSearch_2526_3,,2025.2.4,2026-02-25 12h04.23.000318 +0100,
vertical.xlsx,The target is tilted.,135,27,3,3,1,0,0,0,0,0,0,0,0,0,0,0,0,0,1,135,space,32.54878800000006,None,1,1,0.6587342000002536,None,space,1.5427666999994472,None,0,1,1,1,,,,,3,3,27,3,458.3898071000003,,,,,,,,,,,,,,,,,,,,,458.3745818999996,458.3898071000003,458.8734822999995,458.8779036999995,458.8930518999996,459.5569698999998,,,,,459.5571682,459.5722582999997,459.7725311000004,459.75649559999965,458.8930518999996,,,,,,,,1,1,0.6587342000002536,None,,,,,,,,888,23,M,R,2026-02-25_12h04.22.781,VisualSearch_2526_3,,2025.2.4,2026-02-25 12h04.23.000318 +0100,
vertical.xlsx,The target is tilted.,135,28,4,3,1,1,1,1,1,1,1,1,0,0,0,0,0,7,8,135,space,32.54878800000006,None,1,1,0.8603391000006013,None,space,1.5427666999994472,None,0,1,1,1,,,,,3,4,28,1,459.7725311000004,,,,,,,,,,,,,,,,,,,,,459.7571947999995,459.7725311000004,460.2563533000002,460.2615042999996,460.2773965999995,461.1397737999996,,,,,461.1399918999996,461.15522169999986,461.35501380000005,461.3392248,460.2773965999995,,,,,,,,1,1,0.8603391000006013,None,,,,,,,,888,23,M,R,2026-02-25_12h04.22.781,VisualSearch_2526_3,,2025.2.4,2026-02-25 12h04.23.000318 +0100,
vertical.xlsx,The target is tilted.,135,29,5,3,1,1,1,1,0,0,0,0,0,0,0,0,0,3,4,135,space,32.54878800000006,None,1,1,0.804675700000189,None,space,1.5427666999994472,None,0,1,1,1,,,,,3,5,29,2,461.35501380000005,,,,,,,,,,,,,,,,,,,,,461.3400236999996,461.35501380000005,461.83893590000025,461.84332240000003,461.8549049000003,462.6722702999996,,,,,462.67246160000013,462.68783879999955,462.88782790000005,462.8716532999997,461.8549049000003,,,,,,,,1,1,0.804675700000189,None,,,,,,,,888,23,M,R,2026-02-25_12h04.22.781,VisualSearch_2526_3,,2025.2.4,2026-02-25 12h04.23.000318 +0100,
vertical.xlsx,The target is tilted.,135,30,6,3,0,1,1,1,0,0,0,0,0,0,0,0,1,3,4,135,space,32.54878800000006,None,0,1,0.9339267000004838,None,space,1.5427666999994472,None,0,1,1,1,,,,,3,6,30,6,462.88782790000005,,,,,,,,,,,,,,,,,,,,,462.87244629999987,462.88782790000005,463.3713695999995,463.3757754999997,463.3919559999995,464.33813219999956,,,,,464.3383081000002,464.3534859000001,464.5537398999995,464.53762780000034,463.3919559999995,,,,,,,,0,1,0.9339267000004838,None,,,,,,,,888,23,M,R,2026-02-25_12h04.22.781,VisualSearch_2526_3,,2025.2.4,2026-02-25 12h04.23.000318 +0100,
vertical.xlsx,The target is tilted.,135,31,7,3,1,1,1,1,1,1,1,1,1,1,1,1,0,11,12,135,space,32.54878800000006,None,1,1,1.0219583999996757,None,space,1.5427666999994472,None,0,1,1,1,,,,,3,7,31,0,464.5537398999995,,,,,,,,,,,,,,,,,,,,,464.5383275000004,464.5537398999995,465.0372765000002,465.041706,465.0577424000003,466.08725609999965,,,,,466.08743440000035,466.10298630000034,466.3028863999998,466.28644989999975,465.0577424000003,,,,,,,,1,1,1.0219583999996757,None,,,,,,,,888,23,M,R,2026-02-25_12h04.22.781,VisualSearch_2526_3,,2025.2.4,2026-02-25 12h04.23.000318 +0100,
vertical.xlsx,The target is tilted.,135,32,0,4,0,1,1,1,0,0,0,0,0,0,0,0,1,3,4,135,space,32.54878800000006,None,0,1,0.6919761999997718,None,space,1.5427666999994472,None,0,1,1,1,,,,,4,0,32,6,466.3028863999998,,,,,,,,,,,,,,,,,,,,,466.28696990000026,466.3028863999998,466.7861200999996,466.7906006000003,466.8025891999996,467.5032451999996,,,,,467.50341990000015,467.51903239999956,467.71867980000025,467.70286229999965,466.8025891999996,,,,,,,,0,1,0.6919761999997718,None,,,,,,,,888,23,M,R,2026-02-25_12h04.22.781,VisualSearch_2526_3,,2025.2.4,2026-02-25 12h04.23.000318 +0100,
vertical.xlsx,The target is tilted.,135,33,1,4,0,0,0,0,0,0,0,0,0,0,0,0,1,1,1,135,space,32.54878800000006,None,0,1,0.4561455000002752,None,space,1.5427666999994472,None,0,1,1,1,,,,,4,1,33,7,467.71867980000025,,,,,,,,,,,,,,,,,,,,,467.7036674000001,467.71867980000025,468.2025986999997,468.2071012999995,468.2227149,468.68675819999953,,,,,468.68695339999977,468.7015302,468.9013014000002,468.88508660000025,468.2227149,,,,,,,,0,1,0.4561455000002752,None,,,,,,,,888,23,M,R,2026-02-25_12h04.22.781,VisualSearch_2526_3,,2025.2.4,2026-02-25 12h04.23.000318 +0100,
