file_name,block_instructions,target_example,thisN,thisTrialN,thisRepN,target_presence,opacity_1,opacity_2,opacity_3,opacity_4,opacity_5,opacity_6,opacity_7,opacity_8,opacity_9,opacity_10,opacity_11,opacity_12,n_distract,n_items,target_ori,key_resp_4.keys,key_resp_4.rt,key_resp_4.duration,key_resp.keys,key_resp.corr,key_resp.rt,key_resp.duration,key_resp_5.keys,key_resp_5.rt,key_resp_5.duration,blocks.thisRepN,blocks.thisTrialN,blocks.thisN,blocks.thisIndex,practice_trials.thisRepN,practice_trials.thisTrialN,practice_trials.thisN,practice_trials.thisIndex,trials.thisRepN,trials.thisTrialN,trials.thisN,trials.thisIndex,thisRow.t,notes,Welcome.started,WelcomeText.started,key_resp_2.started,Welcome.stopped,key_resp_2.keys,key_resp_2.rt,key_resp_2.duration,InformedConsent.started,text_4.started,InformedConsent.stopped,key_resp_6.keys,key_resp_6.rt,key_resp_6.duration,key_resp_4.started,example_target.started,text_3.started,blocks.key_resp_4.keys,blocks.key_resp_4.rt,blocks.key_resp_4.duration,FixCross.started,fixCross.started,FixCross.stopped,Stimulus.started,key_resp.started,Stimulus.stopped,practice_trials.key_resp.keys,practice_trials.key_resp.corr,practice_trials.key_resp.rt,practice_trials.key_resp.duration,BlankScreen.started,text.started,text.stopped,BlankScreen.stopped,fixCross.stopped,ExperimentStart.started,text_2.started,key_resp_5.started,ExperimentStart.stopped,blocks.key_resp_5.keys,blocks.key_resp_5.rt,blocks.key_resp_5.duration,trials.key_resp.keys,trials.key_resp.corr,trials.key_resp.rt,trials.key_resp.duration,Thanks.started,ThankYou.started,key_resp_3.started,Thanks.stopped,key_resp_3.keys,key_resp_3.rt,key_resp_3.duration,participant,leeftijd,gender,links/rechtshandig,date,expName,expVersion,psychopyVersion,expStart,
,,,,,,,,,,,,,,,,,,,,,,,,,,,,,,,,,,,,,,,,,,,,,,0.026941200000010213,0.05576599999994869,0.05576599999994869,75.21284419999995,space,75.0189304999999,None,,,,,,,,,,,,,,,,,,,,,,,,,,,,,,,,,,,,,,,,,,,,,,888,20,M,L,2026-02-23_11h09.44.310,VisualSearch_2526_3,,2025.2.4,2026-02-23 11h09.44.829715 +0100,
,,,,,,,,,,,,,,,,,,,,,,,,,,,,,,,,,,,,,,,,,,,,,,,,,,,,,75.21290160000001,75.21818209999992,95.58107939999991,y,20.365074400000026,None,,,,,,,,,,,,,,,,,,,,,,,,,,,,,,,,,,,,,,,,888,20,M,L,2026-02-23_11h09.44.310,VisualSearch_2526_3,,2025.2.4,2026-02-23 11h09.44.829715 +0100,
tilted.xlsx,The target is tilted.,117,0,0,0,0,0,0,0,0,0,0,0,0,0,0,0,1,1,1,117,space,10.573489300000006,None,0,1,2.4775975000000017,None,,,,0,0,0,0,0,0,0,7,,,,,106.33691369999997,,,,,,,,,,,,,,,95.67097579999995,95.67097579999995,95.67097579999995,space,10.573489300000006,None,106.33206059999998,106.33691369999997,106.77568369999995,106.77954579999994,106.79229579999992,109.27537759999996,0,1,2.4775975000000017,None,109.27557149999996,109.29059139999993,109.4911333,109.47503819999997,,,,,,,,,,,,,,,,,,,,888,20,M,L,2026-02-23_11h09.44.310,VisualSearch_2526_3,,2025.2.4,2026-02-23 11h09.44.829715 +0100,
tilted.xlsx,The target is tilted.,117,1,1,0,1,1,1,1,0,0,0,0,0,0,0,0,0,3,4,117,space,10.573489300000006,None,1,1,1.1482325000000628,None,,,,0,0,0,0,0,1,1,2,,,,,109.4911333,,,,,,,,,,,,,,,,,,,,,109.47568969999998,109.4911333,109.97446509999997,109.97896659999992,109.99536609999996,111.1573952,1,1,1.1482325000000628,None,111.15755200000001,111.17365089999998,111.37301869999999,111.35645729999999,109.99536609999996,,,,,,,,,,,,,,,,,,,888,20,M,L,2026-02-23_11h09.44.310,VisualSearch_2526_3,,2025.2.4,2026-02-23 11h09.44.829715 +0100,
tilted.xlsx,The target is tilted.,117,2,2,0,0,1,1,1,1,1,1,1,0,0,0,0,1,7,8,117,space,10.573489300000006,None,0,1,4.7402528000000075,None,,,,0,0,0,0,0,2,2,5,,,,,111.37301869999999,,,,,,,,,,,,,,,,,,,,,111.35683080000001,111.37301869999999,111.85683080000001,111.8609242,111.87600099999997,116.62173969999992,0,1,4.7402528000000075,None,116.62191369999994,116.63738149999995,116.83740839999996,116.82140179999999,111.87600099999997,,,,,,,,,,,,,,,,,,,888,20,M,L,2026-02-23_11h09.44.310,VisualSearch_2526_3,,2025.2.4,2026-02-23 11h09.44.829715 +0100,
tilted.xlsx,The target is tilted.,117,3,3,0,1,1,1,1,1,1,1,1,1,1,1,1,0,11,12,117,space,10.573489300000006,None,1,1,1.549377800000002,None,,,,0,0,0,0,0,3,3,0,,,,,116.83740839999996,,,,,,,,,,,,,,,,,,,,,116.8221557999999,116.83740839999996,117.32096969999998,117.32611159999999,117.34089499999993,118.903816,1,1,1.549377800000002,None,118.90400519999992,118.91959750000001,119.12001709999993,119.1038289999999,117.34089499999993,,,,,,,,,,,,,,,,,,,888,20,M,L,2026-02-23_11h09.44.310,VisualSearch_2526_3,,2025.2.4,2026-02-23 11h09.44.829715 +0100,
tilted.xlsx,The target is tilted.,117,4,4,0,0,1,1,1,1,1,1,1,1,1,1,1,1,11,12,117,space,10.573489300000006,None,0,1,3.645128899999918,None,,,,0,0,0,0,0,4,4,4,,,,,119.12001709999993,,,,,,,,,,,,,,,,,,,,,119.10452969999994,119.12001709999993,119.60324819999994,119.60724589999995,119.6234313,123.28471149999996,0,1,3.645128899999918,None,123.28481419999991,123.30068749999998,123.50097289999997,123.484872,119.6234313,,,,,,,,,,,,,,,,,,,888,20,M,L,2026-02-23_11h09.44.310,VisualSearch_2526_3,,2025.2.4,2026-02-23 11h09.44.829715 +0100,
tilted.xlsx,The target is tilted.,117,5,5,0,1,0,0,0,0,0,0,0,0,0,0,0,0,0,1,117,space,10.573489300000006,None,1,1,0.9697667000000365,None,,,,0,0,0,0,0,5,5,3,,,,,123.50097289999997,,,,,,,,,,,,,,,,,,,,,123.48555219999992,123.50097289999997,123.98455919999992,123.98907179999992,124.0042742999999,124.98473259999992,1,1,0.9697667000000365,None,124.98492419999991,125.00005969999995,125.20021149999991,125.18406279999999,124.0042742999999,,,,,,,,,,,,,,,,,,,888,20,M,L,2026-02-23_11h09.44.310,VisualSearch_2526_3,,2025.2.4,2026-02-23 11h09.44.829715 +0100,
tilted.xlsx,The target is tilted.,117,6,6,0,1,1,1,1,1,1,1,1,0,0,0,0,0,7,8,117,space,10.573489300000006,None,1,1,1.4074864000000389,None,,,,0,0,0,0,0,6,6,1,,,,,125.20021149999991,,,,,,,,,,,,,,,,,,,,,125.1847373999999,125.20021149999991,125.68387789999997,125.68843149999998,125.70629669999994,127.1165866,1,1,1.4074864000000389,None,127.11669039999992,127.13222329999996,127.33237209999993,127.3159015,125.70629669999994,,,,,,,,,,,,,,,,,,,888,20,M,L,2026-02-23_11h09.44.310,VisualSearch_2526_3,,2025.2.4,2026-02-23 11h09.44.829715 +0100,
tilted.xlsx,The target is tilted.,117,7,7,0,0,1,1,1,0,0,0,0,0,0,0,0,1,3,4,117,space,10.573489300000006,None,0,1,1.4711330999999745,None,,,,0,0,0,0,0,7,7,6,,,,,127.33237209999993,,,,,,,,,,,,,,,,,,,,,127.31625699999995,127.33237209999993,127.81598399999996,127.81806419999998,127.83227959999999,129.31564449999996,0,1,1.4711330999999745,None,129.3157734,129.331462,129.5314186999999,129.51490219999994,127.83227959999999,,,,,,,,,,,,,,,,,,,888,20,M,L,2026-02-23_11h09.44.310,VisualSearch_2526_3,,2025.2.4,2026-02-23 11h09.44.829715 +0100,
tilted.xlsx,The target is tilted.,117,0,0,0,1,1,1,1,0,0,0,0,0,0,0,0,0,3,4,117,space,10.573489300000006,None,1,1,0.5445568000000094,None,space,3.40261200000009,None,0,0,0,0,,,,,0,0,0,2,132.97973109999998,,,,,,,,,,,,,,,,,,,,,132.97549479999998,132.97973109999998,133.46344599999998,133.4686769,133.48512039999991,134.03070319999995,,,,,134.03088589999993,134.04592979999995,134.2459399999999,134.2300159,,129.5186531999999,129.5314186999999,129.5314186999999,132.94793029999994,space,3.40261200000009,None,1,1,0.5445568000000094,None,,,,,,,,888,20,M,L,2026-02-23_11h09.44.310,VisualSearch_2526_3,,2025.2.4,2026-02-23 11h09.44.829715 +0100,
tilted.xlsx,The target is tilted.,117,1,1,0,0,1,1,1,0,0,0,0,0,0,0,0,1,3,4,117,space,10.573489300000006,None,0,1,1.3969028999999864,None,space,3.40261200000009,None,0,0,0,0,,,,,0,1,1,6,134.2459399999999,,,,,,,,,,,,,,,,,,,,,134.23083279999992,134.2459399999999,134.7293967999999,134.73147399999993,134.74581219999993,136.14605740000002,,,,,136.14621869999996,136.16165690000003,136.36150249999992,136.34523450000006,134.74581219999993,,,,,,,,0,1,1.3969028999999864,None,,,,,,,,888,20,M,L,2026-02-23_11h09.44.310,VisualSearch_2526_3,,2025.2.4,2026-02-23 11h09.44.829715 +0100,
tilted.xlsx,The target is tilted.,117,2,2,0,0,1,1,1,1,1,1,1,0,0,0,0,1,7,8,117,space,10.573489300000006,None,1,0,2.45673550000015,None,space,3.40261200000009,None,0,0,0,0,,,,,0,2,2,5,136.36150249999992,,,,,,,,,,,,,,,,,,,,,136.3455959999999,136.36150249999992,136.84504070000003,136.84703079999986,136.86151849999987,139.32818929999985,,,,,139.3283773999999,139.34354689999986,139.54361159999985,139.52745549999986,136.86151849999987,,,,,,,,1,0,2.45673550000015,None,,,,,,,,888,20,M,L,2026-02-23_11h09.44.310,VisualSearch_2526_3,,2025.2.4,2026-02-23 11h09.44.829715 +0100,
tilted.xlsx,The target is tilted.,117,3,3,0,0,1,1,1,1,1,1,1,1,1,1,1,1,11,12,117,space,10.573489300000006,None,0,1,5.158695600000101,None,space,3.40261200000009,None,0,0,0,0,,,,,0,3,3,4,139.54361159999985,,,,,,,,,,,,,,,,,,,,,139.52819399999998,139.54361159999985,140.02733579999995,140.03182019999986,140.0475053,145.20883200000003,,,,,145.20904959999984,145.22441860000004,145.4247567,145.40889689999995,140.0475053,,,,,,,,0,1,5.158695600000101,None,,,,,,,,888,20,M,L,2026-02-23_11h09.44.310,VisualSearch_2526_3,,2025.2.4,2026-02-23 11h09.44.829715 +0100,
tilted.xlsx,The target is tilted.,117,4,4,0,1,0,0,0,0,0,0,0,0,0,0,0,0,0,1,117,space,10.573489300000006,None,1,1,0.5575996000000032,None,space,3.40261200000009,None,0,0,0,0,,,,,0,4,4,3,145.4247567,,,,,,,,,,,,,,,,,,,,,145.40961979999997,145.4247567,145.9083779,145.91317749999985,145.92933259999995,146.4908949999999,,,,,146.49099049999995,146.50690450000002,146.70704389999992,146.69093479999992,145.92933259999995,,,,,,,,1,1,0.5575996000000032,None,,,,,,,,888,20,M,L,2026-02-23_11h09.44.310,VisualSearch_2526_3,,2025.2.4,2026-02-23 11h09.44.829715 +0100,
tilted.xlsx,The target is tilted.,117,5,5,0,1,1,1,1,1,1,1,1,1,1,1,1,0,11,12,117,space,10.573489300000006,None,1,1,1.4397010999998656,None,space,3.40261200000009,None,0,0,0,0,,,,,0,5,5,0,146.70704389999992,,,,,,,,,,,,,,,,,,,,,146.69170080000004,146.70704389999992,147.19044080000003,147.19278450000002,147.20669729999986,148.65678249999996,,,,,148.65689799999996,148.6725323999999,148.87292159999993,148.8564558999999,147.20669729999986,,,,,,,,1,1,1.4397010999998656,None,,,,,,,,888,20,M,L,2026-02-23_11h09.44.310,VisualSearch_2526_3,,2025.2.4,2026-02-23 11h09.44.829715 +0100,
tilted.xlsx,The target is tilted.,117,6,6,0,1,1,1,1,1,1,1,1,0,0,0,0,0,7,8,117,space,10.573489300000006,None,1,1,1.6737232000000404,None,space,3.40261200000009,None,0,0,0,0,,,,,0,6,6,1,148.87292159999993,,,,,,,,,,,,,,,,,,,,,148.8569662,148.87292159999993,149.35668149999992,149.36118659999988,149.37879959999987,151.05623719999994,,,,,151.05644519999987,151.07164609999995,151.2721406999999,151.25579599999992,149.37879959999987,,,,,,,,1,1,1.6737232000000404,None,,,,,,,,888,20,M,L,2026-02-23_11h09.44.310,VisualSearch_2526_3,,2025.2.4,2026-02-23 11h09.44.829715 +0100,
tilted.xlsx,The target is tilted.,117,7,7,0,0,0,0,0,0,0,0,0,0,0,0,0,1,1,1,117,space,10.573489300000006,None,0,1,0.9183640999999625,None,space,3.40261200000009,None,0,0,0,0,,,,,0,7,7,7,151.2721406999999,,,,,,,,,,,,,,,,,,,,,151.25652209999998,151.2721406999999,151.7554313999999,151.76010739999992,151.77639709999994,152.7055009999999,,,,,152.7057041999999,152.72100460000001,152.92098050000004,152.9053004,151.77639709999994,,,,,,,,0,1,0.9183640999999625,None,,,,,,,,888,20,M,L,2026-02-23_11h09.44.310,VisualSearch_2526_3,,2025.2.4,2026-02-23 11h09.44.829715 +0100,
tilted.xlsx,The target is tilted.,117,8,0,1,0,1,1,1,1,1,1,1,1,1,1,1,1,11,12,117,space,10.573489300000006,None,0,1,4.541077399999949,None,space,3.40261200000009,None,0,0,0,0,,,,,1,0,8,4,152.92098050000004,,,,,,,,,,,,,,,,,,,,,152.90603579999993,152.92098050000004,153.4046833,153.40945859999988,153.42874719999986,157.98645269999997,,,,,157.98660089999998,158.00162799999998,158.2014681999999,158.18490299999985,153.42874719999986,,,,,,,,0,1,4.541077399999949,None,,,,,,,,888,20,M,L,2026-02-23_11h09.44.310,VisualSearch_2526_3,,2025.2.4,2026-02-23 11h09.44.829715 +0100,
tilted.xlsx,The target is tilted.,117,9,1,1,1,1,1,1,0,0,0,0,0,0,0,0,0,3,4,117,space,10.573489300000006,None,1,1,0.8270037000002048,None,space,3.40261200000009,None,0,0,0,0,,,,,1,1,9,2,158.2014681999999,,,,,,,,,,,,,,,,,,,,,158.1851967,158.2014681999999,158.6859207,158.69103229999996,158.70853220000004,159.55160950000004,,,,,159.55174220000004,159.56821880000007,159.76813270000002,159.75192960000004,158.70853220000004,,,,,,,,1,1,0.8270037000002048,None,,,,,,,,888,20,M,L,2026-02-23_11h09.44.310,VisualSearch_2526_3,,2025.2.4,2026-02-23 11h09.44.829715 +0100,
tilted.xlsx,The target is tilted.,117,10,2,1,0,0,0,0,0,0,0,0,0,0,0,0,1,1,1,117,space,10.573489300000006,None,0,1,0.7931951000000481,None,space,3.40261200000009,None,0,0,0,0,,,,,1,2,10,7,159.76813270000002,,,,,,,,,,,,,,,,,,,,,159.7527184999999,159.76813270000002,160.25152249999996,160.2560395999999,160.27162180000005,161.06842329999995,,,,,161.06862550000005,161.08381639999993,161.2838678999999,161.2675643,160.27162180000005,,,,,,,,0,1,0.7931951000000481,None,,,,,,,,888,20,M,L,2026-02-23_11h09.44.310,VisualSearch_2526_3,,2025.2.4,2026-02-23 11h09.44.829715 +0100,
tilted.xlsx,The target is tilted.,117,11,3,1,1,1,1,1,1,1,1,1,1,1,1,1,0,11,12,117,space,10.573489300000006,None,1,1,2.468568500000174,None,space,3.40261200000009,None,0,0,0,0,,,,,1,3,11,0,161.2838678999999,,,,,,,,,,,,,,,,,,,,,161.26830489999998,161.2838678999999,161.76799759999994,161.77317169999992,161.79236249999985,164.26640569999995,,,,,164.26655200000005,164.2823252999999,164.48230569999987,164.4662005,161.79236249999985,,,,,,,,1,1,2.468568500000174,None,,,,,,,,888,20,M,L,2026-02-23_11h09.44.310,VisualSearch_2526_3,,2025.2.4,2026-02-23 11h09.44.829715 +0100,
tilted.xlsx,The target is tilted.,117,12,4,1,1,0,0,0,0,0,0,0,0,0,0,0,0,0,1,117,space,10.573489300000006,None,1,1,0.7310451999999259,None,space,3.40261200000009,None,0,0,0,0,,,,,1,4,12,3,164.48230569999987,,,,,,,,,,,,,,,,,,,,,164.46693319999986,164.48230569999987,164.96620600000006,164.9715352999999,164.9876652999999,165.7325776,,,,,165.7327619,165.74836099999993,165.9484963,165.93280329999993,164.9876652999999,,,,,,,,1,1,0.7310451999999259,None,,,,,,,,888,20,M,L,2026-02-23_11h09.44.310,VisualSearch_2526_3,,2025.2.4,2026-02-23 11h09.44.829715 +0100,
tilted.xlsx,The target is tilted.,117,13,5,1,1,1,1,1,1,1,1,1,0,0,0,0,0,7,8,117,space,10.573489300000006,None,1,1,2.118656799999826,None,space,3.40261200000009,None,0,0,0,0,,,,,1,5,13,1,165.9484963,,,,,,,,,,,,,,,,,,,,,165.93373859999997,165.9484963,166.43202659999997,166.43694830000004,166.45187299999998,168.58178599999997,,,,,168.5820311,168.59716559999993,168.79709090000006,168.7814633999999,166.45187299999998,,,,,,,,1,1,2.118656799999826,None,,,,,,,,888,20,M,L,2026-02-23_11h09.44.310,VisualSearch_2526_3,,2025.2.4,2026-02-23 11h09.44.829715 +0100,
tilted.xlsx,The target is tilted.,117,14,6,1,0,1,1,1,0,0,0,0,0,0,0,0,1,3,4,117,space,10.573489300000006,None,0,1,1.0396926999999323,None,space,3.40261200000009,None,0,0,0,0,,,,,1,6,14,6,168.79709090000006,,,,,,,,,,,,,,,,,,,,,168.78285110000002,168.79709090000006,169.28134909999994,169.28656780000006,169.30390080000006,170.3470559,,,,,170.3471970999999,170.36266209999985,170.56253689999994,170.5463812999999,169.30390080000006,,,,,,,,0,1,1.0396926999999323,None,,,,,,,,888,20,M,L,2026-02-23_11h09.44.310,VisualSearch_2526_3,,2025.2.4,2026-02-23 11h09.44.829715 +0100,
tilted.xlsx,The target is tilted.,117,15,7,1,0,1,1,1,1,1,1,1,0,0,0,0,1,7,8,117,space,10.573489300000006,None,0,1,2.62196670000003,None,space,3.40261200000009,None,0,0,0,0,,,,,1,7,15,5,170.56253689999994,,,,,,,,,,,,,,,,,,,,,170.54687749999994,170.56253689999994,171.04642569999987,171.05091719999996,171.06620339999995,173.69546130000003,,,,,173.69560209999986,173.71126370000002,173.91156839999985,173.89537569999993,171.06620339999995,,,,,,,,0,1,2.62196670000003,None,,,,,,,,888,20,M,L,2026-02-23_11h09.44.310,VisualSearch_2526_3,,2025.2.4,2026-02-23 11h09.44.829715 +0100,
tilted.xlsx,The target is tilted.,117,16,0,2,1,1,1,1,1,1,1,1,1,1,1,1,0,11,12,117,space,10.573489300000006,None,1,1,0.8014742000000297,None,space,3.40261200000009,None,0,0,0,0,,,,,2,0,16,0,173.91156839999985,,,,,,,,,,,,,,,,,,,,,173.89623860000006,173.91156839999985,174.39521999999988,174.4005161,174.41790079999987,175.22832629999994,,,,,175.2285007999999,175.24384799999984,175.44385429999988,175.42780749999997,174.41790079999987,,,,,,,,1,1,0.8014742000000297,None,,,,,,,,888,20,M,L,2026-02-23_11h09.44.310,VisualSearch_2526_3,,2025.2.4,2026-02-23 11h09.44.829715 +0100,
tilted.xlsx,The target is tilted.,117,17,1,2,0,1,1,1,0,0,0,0,0,0,0,0,1,3,4,117,space,10.573489300000006,None,0,1,1.0329483000000437,None,space,3.40261200000009,None,0,0,0,0,,,,,2,1,17,6,175.44385429999988,,,,,,,,,,,,,,,,,,,,,175.42833969999992,175.44385429999988,175.9277508,175.93110849999994,175.94357719999994,176.97741610000003,,,,,176.97758469999985,176.99312499999996,177.19327929999986,177.1773518,175.94357719999994,,,,,,,,0,1,1.0329483000000437,None,,,,,,,,888,20,M,L,2026-02-23_11h09.44.310,VisualSearch_2526_3,,2025.2.4,2026-02-23 11h09.44.829715 +0100,
tilted.xlsx,The target is tilted.,117,18,2,2,0,0,0,0,0,0,0,0,0,0,0,0,1,1,1,117,space,10.573489300000006,None,0,1,0.690860100000009,None,space,3.40261200000009,None,0,0,0,0,,,,,2,2,18,7,177.19327929999986,,,,,,,,,,,,,,,,,,,,,177.17818839999995,177.19327929999986,177.6763492,177.6780374,177.69265139999993,178.39373869999986,,,,,178.39389119999987,178.40910519999989,178.60948519999988,178.59285769999997,177.69265139999993,,,,,,,,0,1,0.690860100000009,None,,,,,,,,888,20,M,L,2026-02-23_11h09.44.310,VisualSearch_2526_3,,2025.2.4,2026-02-23 11h09.44.829715 +0100,
tilted.xlsx,The target is tilted.,117,19,3,2,0,1,1,1,1,1,1,1,0,0,0,0,1,7,8,117,space,10.573489300000006,None,0,1,3.074214500000153,None,space,3.40261200000009,None,0,0,0,0,,,,,2,3,19,5,178.60948519999988,,,,,,,,,,,,,,,,,,,,,178.5933227999999,178.60948519999988,179.0925115,179.0949255999999,179.10864429999992,182.19179069999996,,,,,182.19193139999993,182.20725829999992,182.4076356999999,182.39123829999994,179.10864429999992,,,,,,,,0,1,3.074214500000153,None,,,,,,,,888,20,M,L,2026-02-23_11h09.44.310,VisualSearch_2526_3,,2025.2.4,2026-02-23 11h09.44.829715 +0100,
tilted.xlsx,The target is tilted.,117,20,4,2,1,0,0,0,0,0,0,0,0,0,0,0,0,0,1,117,space,10.573489300000006,None,1,1,0.528717499999857,None,space,3.40261200000009,None,0,0,0,0,,,,,2,4,20,3,182.4076356999999,,,,,,,,,,,,,,,,,,,,,182.39152379999996,182.4076356999999,182.89126680000004,182.89600900000005,182.91316189999998,183.4578529999999,,,,,183.45806419999985,183.47354129999985,183.67424600000004,183.65801080000006,182.91316189999998,,,,,,,,1,1,0.528717499999857,None,,,,,,,,888,20,M,L,2026-02-23_11h09.44.310,VisualSearch_2526_3,,2025.2.4,2026-02-23 11h09.44.829715 +0100,
tilted.xlsx,The target is tilted.,117,21,5,2,1,1,1,1,1,1,1,1,0,0,0,0,0,7,8,117,space,10.573489300000006,None,1,1,0.9157577999999376,None,space,3.40261200000009,None,0,0,0,0,,,,,2,5,21,1,183.67424600000004,,,,,,,,,,,,,,,,,,,,,183.65884349999988,183.67424600000004,184.15766970000004,184.16277739999987,184.17989250000005,185.10737749999998,,,,,185.10755960000006,185.12277500000005,185.3230991999999,185.30675759999986,184.17989250000005,,,,,,,,1,1,0.9157577999999376,None,,,,,,,,888,20,M,L,2026-02-23_11h09.44.310,VisualSearch_2526_3,,2025.2.4,2026-02-23 11h09.44.829715 +0100,
tilted.xlsx,The target is tilted.,117,22,6,2,1,1,1,1,0,0,0,0,0,0,0,0,0,3,4,117,space,10.573489300000006,None,1,1,0.965689999999995,None,space,3.40261200000009,None,0,0,0,0,,,,,2,6,22,2,185.3230991999999,,,,,,,,,,,,,,,,,,,,,185.30731889999993,185.3230991999999,185.80652429999986,185.8109523999999,185.8268275999999,186.80664430000002,,,,,186.80678899999998,186.82193469999993,187.022604,187.00621060000003,185.8268275999999,,,,,,,,1,1,0.965689999999995,None,,,,,,,,888,20,M,L,2026-02-23_11h09.44.310,VisualSearch_2526_3,,2025.2.4,2026-02-23 11h09.44.829715 +0100,
tilted.xlsx,The target is tilted.,117,23,7,2,0,1,1,1,1,1,1,1,1,1,1,1,1,11,12,117,space,10.573489300000006,None,0,1,3.52426760000003,None,space,3.40261200000009,None,0,0,0,0,,,,,2,7,23,4,187.022604,,,,,,,,,,,,,,,,,,,,,187.0070429,187.022604,187.50604699999985,187.51113199999986,187.52817289999984,191.05428959999995,,,,,191.05443409999998,191.07007780000004,191.27018729999986,191.25403000000006,187.52817289999984,,,,,,,,0,1,3.52426760000003,None,,,,,,,,888,20,M,L,2026-02-23_11h09.44.310,VisualSearch_2526_3,,2025.2.4,2026-02-23 11h09.44.829715 +0100,
tilted.xlsx,The target is tilted.,117,24,0,3,1,1,1,1,0,0,0,0,0,0,0,0,0,3,4,117,space,10.573489300000006,None,1,1,0.9251732000000175,None,space,3.40261200000009,None,0,0,0,0,,,,,3,0,24,2,191.27018729999986,,,,,,,,,,,,,,,,,,,,,191.25475989999995,191.27018729999986,191.75370069999985,191.7584557,191.7757638999999,192.70391289999998,,,,,192.70409700000005,192.7194113999999,192.91940610000006,192.90318980000006,191.7757638999999,,,,,,,,1,1,0.9251732000000175,None,,,,,,,,888,20,M,L,2026-02-23_11h09.44.310,VisualSearch_2526_3,,2025.2.4,2026-02-23 11h09.44.829715 +0100,
tilted.xlsx,The target is tilted.,117,25,1,3,1,0,0,0,0,0,0,0,0,0,0,0,0,0,1,117,space,10.573489300000006,None,1,1,0.5409053999999287,None,space,3.40261200000009,None,0,0,0,0,,,,,3,1,25,3,192.91940610000006,,,,,,,,,,,,,,,,,,,,,192.90392889999998,192.91940610000006,193.40321569999992,193.40832,193.42271230000006,193.96938099999988,,,,,193.96949059999997,193.98519349999992,194.18542920000004,194.16927269999996,193.42271230000006,,,,,,,,1,1,0.5409053999999287,None,,,,,,,,888,20,M,L,2026-02-23_11h09.44.310,VisualSearch_2526_3,,2025.2.4,2026-02-23 11h09.44.829715 +0100,
tilted.xlsx,The target is tilted.,117,26,2,3,1,1,1,1,1,1,1,1,0,0,0,0,0,7,8,117,space,10.573489300000006,None,1,1,1.1529967999999826,None,space,3.40261200000009,None,0,0,0,0,,,,,3,2,26,1,194.18542920000004,,,,,,,,,,,,,,,,,,,,,194.17002149999985,194.18542920000004,194.66827130000001,194.6692928,194.6851013999999,195.8524637999999,,,,,195.8526695999999,195.8678774,196.0678800999999,196.05149140000003,194.6851013999999,,,,,,,,1,1,1.1529967999999826,None,,,,,,,,888,20,M,L,2026-02-23_11h09.44.310,VisualSearch_2526_3,,2025.2.4,2026-02-23 11h09.44.829715 +0100,
tilted.xlsx,The target is tilted.,117,27,3,3,0,1,1,1,1,1,1,1,0,0,0,0,1,7,8,117,space,10.573489300000006,None,1,0,0.8614861000000928,None,space,3.40261200000009,None,0,0,0,0,,,,,3,3,27,5,196.0678800999999,,,,,,,,,,,,,,,,,,,,,196.0518826,196.0678800999999,196.5522031999999,196.55736750000005,196.57321579999984,197.4511505999999,,,,,197.45150539999986,197.4669343999999,197.66728390000003,197.65134739999985,196.57321579999984,,,,,,,,1,0,0.8614861000000928,None,,,,,,,,888,20,M,L,2026-02-23_11h09.44.310,VisualSearch_2526_3,,2025.2.4,2026-02-23 11h09.44.829715 +0100,
tilted.xlsx,The target is tilted.,117,28,4,3,0,1,1,1,0,0,0,0,0,0,0,0,1,3,4,117,space,10.573489300000006,None,0,1,1.0071018999999524,None,space,3.40261200000009,None,0,0,0,0,,,,,3,4,28,6,197.66728390000003,,,,,,,,,,,,,,,,,,,,,197.65220399999998,197.66728390000003,198.15086859999997,198.15581279999992,198.16995109999993,199.18490539999993,,,,,199.18516509999995,199.19966909999994,199.39964729999997,199.38322960000005,198.16995109999993,,,,,,,,0,1,1.0071018999999524,None,,,,,,,,888,20,M,L,2026-02-23_11h09.44.310,VisualSearch_2526_3,,2025.2.4,2026-02-23 11h09.44.829715 +0100,
tilted.xlsx,The target is tilted.,117,29,5,3,0,0,0,0,0,0,0,0,0,0,0,0,1,1,1,117,space,10.573489300000006,None,0,1,0.7321219000000383,None,space,3.40261200000009,None,0,0,0,0,,,,,3,5,29,7,199.39964729999997,,,,,,,,,,,,,,,,,,,,,199.3837375999999,199.39964729999997,199.88339999999994,199.88793609999993,199.9046275999999,200.64984729999992,,,,,200.65002630000004,200.66565220000007,200.86568859999988,200.8496728,199.9046275999999,,,,,,,,0,1,0.7321219000000383,None,,,,,,,,888,20,M,L,2026-02-23_11h09.44.310,VisualSearch_2526_3,,2025.2.4,2026-02-23 11h09.44.829715 +0100,
tilted.xlsx,The target is tilted.,117,30,6,3,0,1,1,1,1,1,1,1,1,1,1,1,1,11,12,117,space,10.573489300000006,None,0,1,5.673624999999902,None,space,3.40261200000009,None,0,0,0,0,,,,,3,6,30,4,200.86568859999988,,,,,,,,,,,,,,,,,,,,,200.8505533,200.86568859999988,201.34961079999994,201.35491009999987,201.36821800000007,207.04740530000004,,,,,207.0476397,207.06292489999987,207.26346169999988,207.2473473,201.36821800000007,,,,,,,,0,1,5.673624999999902,None,,,,,,,,888,20,M,L,2026-02-23_11h09.44.310,VisualSearch_2526_3,,2025.2.4,2026-02-23 11h09.44.829715 +0100,
tilted.xlsx,The target is tilted.,117,31,7,3,1,1,1,1,1,1,1,1,1,1,1,1,0,11,12,117,space,10.573489300000006,None,1,1,1.3976709000000938,None,space,3.40261200000009,None,0,0,0,0,,,,,3,7,31,0,207.26346169999988,,,,,,,,,,,,,,,,,,,,,207.24815910000007,207.26346169999988,207.74646899999993,207.75110870000003,207.76817519999986,209.17995619999988,,,,,209.18018319999987,209.19536100000005,209.39529960000004,209.38000949999991,207.76817519999986,,,,,,,,1,1,1.3976709000000938,None,,,,,,,,888,20,M,L,2026-02-23_11h09.44.310,VisualSearch_2526_3,,2025.2.4,2026-02-23 11h09.44.829715 +0100,
tilted.xlsx,The target is tilted.,117,32,0,4,0,1,1,1,1,1,1,1,0,0,0,0,1,7,8,117,space,10.573489300000006,None,1,0,1.6150769999999284,None,space,3.40261200000009,None,0,0,0,0,,,,,4,0,32,5,209.39529960000004,,,,,,,,,,,,,,,,,,,,,209.38082800000007,209.39529960000004,209.87946339999985,209.88474619999988,209.90432740000006,211.52897940000003,,,,,211.5292285999999,211.54398270000002,211.74417819999985,211.72808880000002,209.90432740000006,,,,,,,,1,0,1.6150769999999284,None,,,,,,,,888,20,M,L,2026-02-23_11h09.44.310,VisualSearch_2526_3,,2025.2.4,2026-02-23 11h09.44.829715 +0100,
tilted.xlsx,The target is tilted.,117,33,1,4,0,1,1,1,1,1,1,1,1,1,1,1,1,11,12,117,space,10.573489300000006,None,0,1,5.644517600000199,None,space,3.40261200000009,None,0,0,0,0,,,,,4,1,33,4,211.74417819999985,,,,,,,,,,,,,,,,,,,,,211.72891579999987,211.74417819999985,212.22808020000002,212.23330220000003,212.2531985999999,217.9083776,,,,,217.90845949999994,217.92437369999993,218.1241854,218.1077421,212.2531985999999,,,,,,,,0,1,5.644517600000199,None,,,,,,,,888,20,M,L,2026-02-23_11h09.44.310,VisualSearch_2526_3,,2025.2.4,2026-02-23 11h09.44.829715 +0100,
tilted.xlsx,The target is tilted.,117,34,2,4,0,1,1,1,0,0,0,0,0,0,0,0,1,3,4,117,space,10.573489300000006,None,0,1,1.4617797999999311,None,space,3.40261200000009,None,0,0,0,0,,,,,4,2,34,6,218.1241854,,,,,,,,,,,,,,,,,,,,,218.10802420000005,218.1241854,218.60748319999993,218.60888980000004,218.62409679999996,220.09175329999994,,,,,220.0919515999999,220.10671460000003,220.30669979999993,220.29032359999997,218.62409679999996,,,,,,,,0,1,1.4617797999999311,None,,,,,,,,888,20,M,L,2026-02-23_11h09.44.310,VisualSearch_2526_3,,2025.2.4,2026-02-23 11h09.44.829715 +0100,
tilted.xlsx,The target is tilted.,117,35,3,4,0,0,0,0,0,0,0,0,0,0,0,0,1,1,1,117,space,10.573489300000006,None,0,1,0.9386265000000549,None,space,3.40261200000009,None,0,0,0,0,,,,,4,3,35,7,220.30669979999993,,,,,,,,,,,,,,,,,,,,,220.2907178999999,220.30669979999993,220.7904223999999,220.79378029999998,220.8077699999999,221.75653450000004,,,,,221.75662969999985,221.77256880000004,221.972759,221.9565063,220.8077699999999,,,,,,,,0,1,0.9386265000000549,None,,,,,,,,888,20,M,L,2026-02-23_11h09.44.310,VisualSearch_2526_3,,2025.2.4,2026-02-23 11h09.44.829715 +0100,
tilted.xlsx,The target is tilted.,117,36,4,4,1,1,1,1,0,0,0,0,0,0,0,0,0,3,4,117,space,10.573489300000006,None,1,1,1.0633268999999927,None,space,3.40261200000009,None,0,0,0,0,,,,,4,4,36,2,221.972759,,,,,,,,,,,,,,,,,,,,,221.95704090000004,221.972759,222.45660369999996,222.4618223,222.47829899999988,223.5559002,,,,,223.55604240000002,223.57204720000004,223.77218489999996,223.7561839,222.47829899999988,,,,,,,,1,1,1.0633268999999927,None,,,,,,,,888,20,M,L,2026-02-23_11h09.44.310,VisualSearch_2526_3,,2025.2.4,2026-02-23 11h09.44.829715 +0100,
tilted.xlsx,The target is tilted.,117,37,5,4,1,1,1,1,1,1,1,1,0,0,0,0,0,7,8,117,space,10.573489300000006,None,1,1,1.9280774999999721,None,space,3.40261200000009,None,0,0,0,0,,,,,4,5,37,1,223.77218489999996,,,,,,,,,,,,,,,,,,,,,223.75701630000003,223.77218489999996,224.255762,224.26092229999995,224.2784726,226.2222408,,,,,226.22244920000003,226.23746619999997,226.4377832,226.42151549999994,224.2784726,,,,,,,,1,1,1.9280774999999721,None,,,,,,,,888,20,M,L,2026-02-23_11h09.44.310,VisualSearch_2526_3,,2025.2.4,2026-02-23 11h09.44.829715 +0100,
tilted.xlsx,The target is tilted.,117,38,6,4,1,1,1,1,1,1,1,1,1,1,1,1,0,11,12,117,space,10.573489300000006,None,1,1,2.5545477000000574,None,space,3.40261200000009,None,0,0,0,0,,,,,4,6,38,0,226.4377832,,,,,,,,,,,,,,,,,,,,,226.42222590000006,226.4377832,226.9208544999999,226.92491659999996,226.93720710000002,229.5042959,,,,,229.5044972999999,229.51945269999987,229.71915760000002,229.7027768999999,226.93720710000002,,,,,,,,1,1,2.5545477000000574,None,,,,,,,,888,20,M,L,2026-02-23_11h09.44.310,VisualSearch_2526_3,,2025.2.4,2026-02-23 11h09.44.829715 +0100,
tilted.xlsx,The target is tilted.,117,39,7,4,1,0,0,0,0,0,0,0,0,0,0,0,0,0,1,117,space,10.573489300000006,None,1,1,0.6051781000001029,None,space,3.40261200000009,None,0,0,0,0,,,,,4,7,39,3,229.71915760000002,,,,,,,,,,,,,,,,,,,,,229.70315989999995,229.71915760000002,230.20361720000005,230.20871349999993,230.2249159999999,230.83667749999995,,,,,230.8368805,230.85211479999998,231.05256970000005,231.03619479999998,230.2249159999999,,,,,,,,1,1,0.6051781000001029,None,,,,,,,,888,20,M,L,2026-02-23_11h09.44.310,VisualSearch_2526_3,,2025.2.4,2026-02-23 11h09.44.829715 +0100,
tilted.xlsx,The target is tilted.,117,40,0,5,1,1,1,1,1,1,1,1,0,0,0,0,0,7,8,117,space,10.573489300000006,None,1,1,0.5606249999998454,None,space,3.40261200000009,None,0,0,0,0,,,,,5,0,40,1,231.05256970000005,,,,,,,,,,,,,,,,,,,,,231.03708159999996,231.05256970000005,231.53554829999985,231.54002749999995,231.5583173,232.13520500000004,,,,,232.13533589999997,232.15159730000005,232.3512699999999,232.33497839999995,231.5583173,,,,,,,,1,1,0.5606249999998454,None,,,,,,,,888,20,M,L,2026-02-23_11h09.44.310,VisualSearch_2526_3,,2025.2.4,2026-02-23 11h09.44.829715 +0100,
tilted.xlsx,The target is tilted.,117,41,1,5,0,1,1,1,1,1,1,1,1,1,1,1,1,11,12,117,space,10.573489300000006,None,0,1,3.843919899999946,None,space,3.40261200000009,None,0,0,0,0,,,,,5,1,41,4,232.3512699999999,,,,,,,,,,,,,,,,,,,,,232.33548769999993,232.3512699999999,232.8347546,232.8381918,232.8513742,236.70058289999997,,,,,236.70079110000006,236.71608500000002,236.91622949999987,236.9001874999999,232.8513742,,,,,,,,0,1,3.843919899999946,None,,,,,,,,888,20,M,L,2026-02-23_11h09.44.310,VisualSearch_2526_3,,2025.2.4,2026-02-23 11h09.44.829715 +0100,
tilted.xlsx,The target is tilted.,117,42,2,5,0,0,0,0,0,0,0,0,0,0,0,0,1,1,1,117,space,10.573489300000006,None,0,1,0.5724164000000656,None,space,3.40261200000009,None,0,0,0,0,,,,,5,2,42,7,236.91622949999987,,,,,,,,,,,,,,,,,,,,,236.90091989999996,236.91622949999987,237.40033479999988,237.4055166999999,237.42491389999986,238.00014239999996,,,,,238.0003443999999,238.01522180000006,238.21513319999985,238.19926859999987,237.42491389999986,,,,,,,,0,1,0.5724164000000656,None,,,,,,,,888,20,M,L,2026-02-23_11h09.44.310,VisualSearch_2526_3,,2025.2.4,2026-02-23 11h09.44.829715 +0100,
tilted.xlsx,The target is tilted.,117,43,3,5,0,1,1,1,0,0,0,0,0,0,0,0,1,3,4,117,space,10.573489300000006,None,0,1,1.9215363000000707,None,space,3.40261200000009,None,0,0,0,0,,,,,5,3,43,6,238.21513319999985,,,,,,,,,,,,,,,,,,,,,238.20005579999997,238.21513319999985,238.69874800000002,238.7011132,238.71515750000003,240.64889889999995,,,,,240.64906489999998,240.66417619999993,240.86423889999992,240.8476667,238.71515750000003,,,,,,,,0,1,1.9215363000000707,None,,,,,,,,888,20,M,L,2026-02-23_11h09.44.310,VisualSearch_2526_3,,2025.2.4,2026-02-23 11h09.44.829715 +0100,
tilted.xlsx,The target is tilted.,117,44,4,5,0,1,1,1,1,1,1,1,0,0,0,0,1,7,8,117,space,10.573489300000006,None,1,0,1.4058141999998952,None,space,3.40261200000009,None,0,0,0,0,,,,,5,4,44,5,240.86423889999992,,,,,,,,,,,,,,,,,,,,,240.84820309999986,240.86423889999992,241.34845399999995,241.35377389999985,241.36425699999995,242.7810755999999,,,,,242.7812738,242.7965056999999,242.99685410000006,242.9808066999999,241.36425699999995,,,,,,,,1,0,1.4058141999998952,None,,,,,,,,888,20,M,L,2026-02-23_11h09.44.310,VisualSearch_2526_3,,2025.2.4,2026-02-23 11h09.44.829715 +0100,
tilted.xlsx,The target is tilted.,117,45,5,5,1,1,1,1,0,0,0,0,0,0,0,0,0,3,4,117,space,10.573489300000006,None,1,1,0.7227215000000342,None,space,3.40261200000009,None,0,0,0,0,,,,,5,5,45,2,242.99685410000006,,,,,,,,,,,,,,,,,,,,,242.98163939999995,242.99685410000006,243.48086609999996,243.48609940000006,243.5024573999999,244.2298684,,,,,244.22995739999988,244.24562130000004,244.4459328999999,244.42980669999997,243.5024573999999,,,,,,,,1,1,0.7227215000000342,None,,,,,,,,888,20,M,L,2026-02-23_11h09.44.310,VisualSearch_2526_3,,2025.2.4,2026-02-23 11h09.44.829715 +0100,
tilted.xlsx,The target is tilted.,117,46,6,5,1,1,1,1,1,1,1,1,1,1,1,1,0,11,12,117,space,10.573489300000006,None,1,1,3.8093497999998363,None,space,3.40261200000009,None,0,0,0,0,,,,,5,6,46,0,244.4459328999999,,,,,,,,,,,,,,,,,,,,,244.43054029999985,244.4459328999999,244.92928000000006,244.93157429999997,244.94571569999994,248.76195889999985,,,,,248.76223749999986,248.7773448999999,248.97773989999996,248.96169669999995,244.94571569999994,,,,,,,,1,1,3.8093497999998363,None,,,,,,,,888,20,M,L,2026-02-23_11h09.44.310,VisualSearch_2526_3,,2025.2.4,2026-02-23 11h09.44.829715 +0100,
tilted.xlsx,The target is tilted.,117,47,7,5,1,0,0,0,0,0,0,0,0,0,0,0,0,0,1,117,space,10.573489300000006,None,1,1,0.5749353999999585,None,space,3.40261200000009,None,0,0,0,0,,,,,5,7,47,3,248.97773989999996,,,,,,,,,,,,,,,,,,,,,248.9624956,248.97773989999996,249.4767096999999,249.47880250000003,249.49329599999987,250.0775354,,,,,250.07774960000006,250.09331139999995,250.29313260000004,250.27651259999993,,,,,,,,,1,1,0.5749353999999585,None,,,,,,,,888,20,M,L,2026-02-23_11h09.44.310,VisualSearch_2526_3,,2025.2.4,2026-02-23 11h09.44.829715 +0100,
tilted.xlsx,The target is tilted.,117,48,0,6,0,1,1,1,0,0,0,0,0,0,0,0,1,3,4,117,space,10.573489300000006,None,0,1,1.080325700000003,None,space,3.40261200000009,None,0,0,0,0,,,,,6,0,48,6,250.29313260000004,,,,,,,,,,,,,,,,,,,,,250.27686449999987,250.29313260000004,250.77700329999993,250.7810689999999,250.7955133999999,251.89320699999985,,,,,251.8933631,251.90901259999987,252.1091689,252.0932115999999,250.7955133999999,,,,,,,,0,1,1.080325700000003,None,,,,,,,,888,20,M,L,2026-02-23_11h09.44.310,VisualSearch_2526_3,,2025.2.4,2026-02-23 11h09.44.829715 +0100,
tilted.xlsx,The target is tilted.,117,49,1,6,1,1,1,1,1,1,1,1,0,0,0,0,0,7,8,117,space,10.573489300000006,None,1,1,1.9585956999999325,None,space,3.40261200000009,None,0,0,0,0,,,,,6,1,49,1,252.1091689,,,,,,,,,,,,,,,,,,,,,252.0940518,252.1091689,252.59295780000002,252.5981637,252.61519269999985,254.57543540000006,,,,,254.57557659999998,254.5911466,254.79142159999992,254.77493379999987,252.61519269999985,,,,,,,,1,1,1.9585956999999325,None,,,,,,,,888,20,M,L,2026-02-23_11h09.44.310,VisualSearch_2526_3,,2025.2.4,2026-02-23 11h09.44.829715 +0100,
tilted.xlsx,The target is tilted.,117,50,2,6,0,1,1,1,1,1,1,1,0,0,0,0,1,7,8,117,space,10.573489300000006,None,0,1,2.7290255000000343,None,space,3.40261200000009,None,0,0,0,0,,,,,6,2,50,5,254.79142159999992,,,,,,,,,,,,,,,,,,,,,254.77560879999987,254.79142159999992,255.27463809999995,255.27764609999986,255.2912561999999,258.02444360000004,,,,,258.02467179999985,258.03960729999994,258.239726,258.22351809999986,255.2912561999999,,,,,,,,0,1,2.7290255000000343,None,,,,,,,,888,20,M,L,2026-02-23_11h09.44.310,VisualSearch_2526_3,,2025.2.4,2026-02-23 11h09.44.829715 +0100,
tilted.xlsx,The target is tilted.,117,51,3,6,0,0,0,0,0,0,0,0,0,0,0,0,1,1,1,117,space,10.573489300000006,None,0,1,0.5389247999999043,None,space,3.40261200000009,None,0,0,0,0,,,,,6,3,51,7,258.239726,,,,,,,,,,,,,,,,,,,,,258.2242547999999,258.239726,258.7232698,258.7277910999999,258.7403075,259.29037730000005,,,,,259.2905403,259.30568930000004,259.50563339999985,259.4895045999999,258.7403075,,,,,,,,0,1,0.5389247999999043,None,,,,,,,,888,20,M,L,2026-02-23_11h09.44.310,VisualSearch_2526_3,,2025.2.4,2026-02-23 11h09.44.829715 +0100,
tilted.xlsx,The target is tilted.,117,52,4,6,0,1,1,1,1,1,1,1,1,1,1,1,1,11,12,117,space,10.573489300000006,None,0,1,3.968208499999946,None,space,3.40261200000009,None,0,0,0,0,,,,,6,4,52,4,259.50563339999985,,,,,,,,,,,,,,,,,,,,,259.48999860000004,259.50563339999985,259.98921859999996,259.9922486999999,260.0054121999999,263.9873640999999,,,,,263.98745429999985,264.0034249,264.2037032999999,264.1874203,260.0054121999999,,,,,,,,0,1,3.968208499999946,None,,,,,,,,888,20,M,L,2026-02-23_11h09.44.310,VisualSearch_2526_3,,2025.2.4,2026-02-23 11h09.44.829715 +0100,
tilted.xlsx,The target is tilted.,117,53,5,6,1,0,0,0,0,0,0,0,0,0,0,0,0,0,1,117,space,10.573489300000006,None,1,1,0.5244296999999278,None,space,3.40261200000009,None,0,0,0,0,,,,,6,5,53,3,264.2037032999999,,,,,,,,,,,,,,,,,,,,,264.18819259999987,264.2037032999999,264.68742769999994,264.6927891,264.70789909999985,265.23816569999985,,,,,265.23841489999995,265.2529052,265.4536109999999,265.43751240000006,264.70789909999985,,,,,,,,1,1,0.5244296999999278,None,,,,,,,,888,20,M,L,2026-02-23_11h09.44.310,VisualSearch_2526_3,,2025.2.4,2026-02-23 11h09.44.829715 +0100,
tilted.xlsx,The target is tilted.,117,54,6,6,1,1,1,1,1,1,1,1,1,1,1,1,0,11,12,117,space,10.573489300000006,None,1,1,1.840803600000072,None,space,3.40261200000009,None,0,0,0,0,,,,,6,6,54,0,265.4536109999999,,,,,,,,,,,,,,,,,,,,,265.43831380000006,265.4536109999999,265.93729529999996,265.94236,265.95911090000004,267.8032997999999,,,,,267.8035258,267.81866820000005,268.0184804999999,268.00226339999995,265.95911090000004,,,,,,,,1,1,1.840803600000072,None,,,,,,,,888,20,M,L,2026-02-23_11h09.44.310,VisualSearch_2526_3,,2025.2.4,2026-02-23 11h09.44.829715 +0100,
tilted.xlsx,The target is tilted.,117,55,7,6,1,1,1,1,0,0,0,0,0,0,0,0,0,3,4,117,space,10.573489300000006,None,1,1,1.0388181999999233,None,space,3.40261200000009,None,0,0,0,0,,,,,6,7,55,2,268.0184804999999,,,,,,,,,,,,,,,,,,,,,268.00297720000003,268.0184804999999,268.50234290000003,268.5063447,268.51833710000005,269.56848049999985,,,,,269.56864040000005,269.58445630000006,269.78458039999987,269.76873909999995,268.51833710000005,,,,,,,,1,1,1.0388181999999233,None,,,,,,,,888,20,M,L,2026-02-23_11h09.44.310,VisualSearch_2526_3,,2025.2.4,2026-02-23 11h09.44.829715 +0100,
tilted.xlsx,The target is tilted.,117,56,0,7,1,0,0,0,0,0,0,0,0,0,0,0,0,0,1,117,space,10.573489300000006,None,1,1,0.5907366000001275,None,space,3.40261200000009,None,0,0,0,0,,,,,7,0,56,3,269.78458039999987,,,,,,,,,,,,,,,,,,,,,269.76954639999985,269.78458039999987,270.26852829999984,270.2736998999999,270.2900795999999,270.88470789999997,,,,,270.8848564,270.90042399999993,271.10029699999996,271.08419860000004,270.2900795999999,,,,,,,,1,1,0.5907366000001275,None,,,,,,,,888,20,M,L,2026-02-23_11h09.44.310,VisualSearch_2526_3,,2025.2.4,2026-02-23 11h09.44.829715 +0100,
tilted.xlsx,The target is tilted.,117,57,1,7,1,1,1,1,1,1,1,1,0,0,0,0,0,7,8,117,space,10.573489300000006,None,1,1,0.7535402000000886,None,space,3.40261200000009,None,0,0,0,0,,,,,7,1,57,1,271.10029699999996,,,,,,,,,,,,,,,,,,,,,271.08495760000005,271.10029699999996,271.5845907999999,271.58947769999986,271.6055274,272.3679124999999,,,,,272.3681385,272.3832725,272.5833238,272.56727580000006,271.6055274,,,,,,,,1,1,0.7535402000000886,None,,,,,,,,888,20,M,L,2026-02-23_11h09.44.310,VisualSearch_2526_3,,2025.2.4,2026-02-23 11h09.44.829715 +0100,
tilted.xlsx,The target is tilted.,117,58,2,7,0,1,1,1,0,0,0,0,0,0,0,0,1,3,4,117,space,10.573489300000006,None,0,1,0.9443621000000348,None,space,3.40261200000009,None,0,0,0,0,,,,,7,2,58,6,272.5833238,,,,,,,,,,,,,,,,,,,,,272.56810359999986,272.5833238,273.06692929999986,273.07186609999985,273.08720960000005,274.0332799,,,,,274.0334341999999,274.0489722,274.24917749999986,274.23321009999995,273.08720960000005,,,,,,,,0,1,0.9443621000000348,None,,,,,,,,888,20,M,L,2026-02-23_11h09.44.310,VisualSearch_2526_3,,2025.2.4,2026-02-23 11h09.44.829715 +0100,
tilted.xlsx,The target is tilted.,117,59,3,7,1,1,1,1,1,1,1,1,1,1,1,1,0,11,12,117,space,10.573489300000006,None,1,1,2.420173999999861,None,space,3.40261200000009,None,0,0,0,0,,,,,7,3,59,0,274.24917749999986,,,,,,,,,,,,,,,,,,,,,274.2340368,274.24917749999986,274.73335129999987,274.7384612999999,274.7563227999999,277.18151139999986,,,,,277.1816266999999,277.19746369999984,277.39778120000005,277.3817185999999,274.7563227999999,,,,,,,,1,1,2.420173999999861,None,,,,,,,,888,20,M,L,2026-02-23_11h09.44.310,VisualSearch_2526_3,,2025.2.4,2026-02-23 11h09.44.829715 +0100,
tilted.xlsx,The target is tilted.,117,60,4,7,0,1,1,1,1,1,1,1,0,0,0,0,1,7,8,117,space,10.573489300000006,None,0,1,3.0925907000000734,None,space,3.40261200000009,None,0,0,0,0,,,,,7,4,60,5,277.39778120000005,,,,,,,,,,,,,,,,,,,,,277.3826280999999,277.39778120000005,277.88143719999994,277.8866174,277.90460659999985,281.01367949999985,,,,,281.01390259999994,281.02909569999997,281.2296028999999,281.2132027,277.90460659999985,,,,,,,,0,1,3.0925907000000734,None,,,,,,,,888,20,M,L,2026-02-23_11h09.44.310,VisualSearch_2526_3,,2025.2.4,2026-02-23 11h09.44.829715 +0100,
tilted.xlsx,The target is tilted.,117,61,5,7,0,0,0,0,0,0,0,0,0,0,0,0,1,1,1,117,space,10.573489300000006,None,0,1,0.755157600000075,None,space,3.40261200000009,None,0,0,0,0,,,,,7,5,61,7,281.2296028999999,,,,,,,,,,,,,,,,,,,,,281.2139866,281.2296028999999,281.71328070000004,281.71856980000007,281.73481249999986,282.49627110000006,,,,,282.4964573,282.5117613,282.71210429999996,282.6959480999999,281.73481249999986,,,,,,,,0,1,0.755157600000075,None,,,,,,,,888,20,M,L,2026-02-23_11h09.44.310,VisualSearch_2526_3,,2025.2.4,2026-02-23 11h09.44.829715 +0100,
tilted.xlsx,The target is tilted.,117,62,6,7,1,1,1,1,0,0,0,0,0,0,0,0,0,3,4,117,space,10.573489300000006,None,1,1,0.541171200000008,None,space,3.40261200000009,None,0,0,0,0,,,,,7,6,62,2,282.71210429999996,,,,,,,,,,,,,,,,,,,,,282.6967812999999,282.71210429999996,283.1960870999999,283.2014546999999,283.22083399999997,283.77816630000007,,,,,283.7782821999999,283.79459599999996,283.9943991,283.97840870000005,283.22083399999997,,,,,,,,1,1,0.541171200000008,None,,,,,,,,888,20,M,L,2026-02-23_11h09.44.310,VisualSearch_2526_3,,2025.2.4,2026-02-23 11h09.44.829715 +0100,
tilted.xlsx,The target is tilted.,117,63,7,7,0,1,1,1,1,1,1,1,1,1,1,1,1,11,12,117,space,10.573489300000006,None,0,1,4.946255100000144,None,space,3.40261200000009,None,0,0,0,0,,,,,7,7,63,4,283.9943991,,,,,,,,,,,,,,,,,,,,,283.9789140999999,283.9943991,284.47811290000004,284.48268170000006,284.4987951999999,289.4598363,,,,,289.46003999999994,289.47542039999985,289.6755209999999,289.65941769999995,284.4987951999999,,,,,,,,0,1,4.946255100000144,None,,,,,,,,888,20,M,L,2026-02-23_11h09.44.310,VisualSearch_2526_3,,2025.2.4,2026-02-23 11h09.44.829715 +0100,
tilted.xlsx,The target is tilted.,117,64,0,8,1,1,1,1,0,0,0,0,0,0,0,0,0,3,4,117,space,10.573489300000006,None,0,0,1.0359306999998807,None,space,3.40261200000009,None,0,0,0,0,,,,,8,0,64,2,289.6755209999999,,,,,,,,,,,,,,,,,,,,,289.6601232999999,289.6755209999999,290.15874299999996,290.1616322,290.17656480000005,291.22565269999996,,,,,291.2258454,291.2411789,291.44157989999985,291.4251634,290.17656480000005,,,,,,,,0,0,1.0359306999998807,None,,,,,,,,888,20,M,L,2026-02-23_11h09.44.310,VisualSearch_2526_3,,2025.2.4,2026-02-23 11h09.44.829715 +0100,
tilted.xlsx,The target is tilted.,117,65,1,8,1,1,1,1,1,1,1,1,1,1,1,1,0,11,12,117,space,10.573489300000006,None,1,1,1.7406478000000334,None,space,3.40261200000009,None,0,0,0,0,,,,,8,1,65,0,291.44157989999985,,,,,,,,,,,,,,,,,,,,,291.42583609999997,291.44157989999985,291.92521799999986,291.93011079999997,291.94641780000006,293.6911258,,,,,293.6913244,293.7067221,293.90654530000006,293.89036480000004,291.94641780000006,,,,,,,,1,1,1.7406478000000334,None,,,,,,,,888,20,M,L,2026-02-23_11h09.44.310,VisualSearch_2526_3,,2025.2.4,2026-02-23 11h09.44.829715 +0100,
tilted.xlsx,The target is tilted.,117,66,2,8,0,1,1,1,0,0,0,0,0,0,0,0,1,3,4,117,space,10.573489300000006,None,0,1,1.1769930999998905,None,space,3.40261200000009,None,0,0,0,0,,,,,8,2,66,6,293.90654530000006,,,,,,,,,,,,,,,,,,,,,293.89085350000005,293.90654530000006,294.3903986,294.3949622,294.4113233999999,295.5904694999999,,,,,295.5906465999999,295.60584289999997,295.8059109999999,295.78965889999995,294.4113233999999,,,,,,,,0,1,1.1769930999998905,None,,,,,,,,888,20,M,L,2026-02-23_11h09.44.310,VisualSearch_2526_3,,2025.2.4,2026-02-23 11h09.44.829715 +0100,
tilted.xlsx,The target is tilted.,117,67,3,8,0,0,0,0,0,0,0,0,0,0,0,0,1,1,1,117,space,10.573489300000006,None,0,1,0.6227639000001091,None,space,3.40261200000009,None,0,0,0,0,,,,,8,3,67,7,295.8059109999999,,,,,,,,,,,,,,,,,,,,,295.7901996999999,295.8059109999999,296.2897292,296.2942553999999,296.3084607999999,296.93888889999994,,,,,296.9389673999999,296.95509130000005,,297.13953760000004,296.3084607999999,,,,,,,,0,1,0.6227639000001091,None,,,,,,,,888,20,M,L,2026-02-23_11h09.44.310,VisualSearch_2526_3,,2025.2.4,2026-02-23 11h09.44.829715 +0100,
tilted.xlsx,The target is tilted.,117,68,4,8,0,1,1,1,1,1,1,1,1,1,1,1,1,11,12,117,space,10.573489300000006,None,0,1,4.117985899999894,None,space,3.40261200000009,None,0,0,0,0,,,,,8,4,68,4,297.15547360000005,,,,,,,,,,,,,,,,,,,,,297.1404247999999,297.15547360000005,297.63930400000004,297.64445720000003,297.6612539999999,301.7880834,,,,,301.78828569999996,301.8030578999999,302.00311009999996,301.9869478999999,,,,,,,,,0,1,4.117985899999894,None,,,,,,,,888,20,M,L,2026-02-23_11h09.44.310,VisualSearch_2526_3,,2025.2.4,2026-02-23 11h09.44.829715 +0100,
tilted.xlsx,The target is tilted.,117,69,5,8,1,1,1,1,1,1,1,1,0,0,0,0,0,7,8,117,space,10.573489300000006,None,1,1,1.4299877000000834,None,space,3.40261200000009,None,0,0,0,0,,,,,8,5,69,1,302.00311009999996,,,,,,,,,,,,,,,,,,,,,301.98745689999987,302.00311009999996,302.4873195,302.49251230000004,302.5090462999999,303.95270719999985,,,,,303.9528665,303.96867989999987,304.16931750000003,304.1529800999999,302.5090462999999,,,,,,,,1,1,1.4299877000000834,None,,,,,,,,888,20,M,L,2026-02-23_11h09.44.310,VisualSearch_2526_3,,2025.2.4,2026-02-23 11h09.44.829715 +0100,
tilted.xlsx,The target is tilted.,117,70,6,8,0,1,1,1,1,1,1,1,0,0,0,0,1,7,8,117,space,10.573489300000006,None,0,1,2.9117378999999346,None,space,3.40261200000009,None,0,0,0,0,,,,,8,6,70,5,304.16931750000003,,,,,,,,,,,,,,,,,,,,,304.15381320000006,304.16931750000003,304.65300179999986,304.65761329999987,304.6744927,307.60075919999986,,,,,307.6008695999999,307.61739680000005,,307.80123779999985,304.6744927,,,,,,,,0,1,2.9117378999999346,None,,,,,,,,888,20,M,L,2026-02-23_11h09.44.310,VisualSearch_2526_3,,2025.2.4,2026-02-23 11h09.44.829715 +0100,
tilted.xlsx,The target is tilted.,117,71,7,8,1,0,0,0,0,0,0,0,0,0,0,0,0,0,1,117,space,10.573489300000006,None,1,1,0.6035205999999107,None,space,3.40261200000009,None,0,0,0,0,,,,,8,7,71,3,307.8176014999999,,,,,,,,,,,,,,,,,,,,,307.8021068999999,307.8176014999999,308.30075039999997,308.3050888,308.3214974,308.93442600000003,,,,,308.9346229999999,308.94992279999997,309.1499446,309.1343348999999,308.3214974,,,,,,,,1,1,0.6035205999999107,None,,,,,,,,888,20,M,L,2026-02-23_11h09.44.310,VisualSearch_2526_3,,2025.2.4,2026-02-23 11h09.44.829715 +0100,
tilted.xlsx,The target is tilted.,117,72,0,9,0,1,1,1,1,1,1,1,1,1,1,1,1,11,12,117,space,10.573489300000006,None,0,1,3.5363330000000133,None,space,3.40261200000009,None,0,0,0,0,,,,,9,0,72,4,309.1499446,,,,,,,,,,,,,,,,,,,,,309.13513680000005,309.1499446,309.633828,309.6387763,309.65655560000005,313.1995084,,,,,313.1997002999999,313.21451290000005,313.41523889999985,313.3990693999999,309.65655560000005,,,,,,,,0,1,3.5363330000000133,None,,,,,,,,888,20,M,L,2026-02-23_11h09.44.310,VisualSearch_2526_3,,2025.2.4,2026-02-23 11h09.44.829715 +0100,
tilted.xlsx,The target is tilted.,117,73,1,9,0,0,0,0,0,0,0,0,0,0,0,0,1,1,1,117,space,10.573489300000006,None,0,1,0.5982136000000082,None,space,3.40261200000009,None,0,0,0,0,,,,,9,1,73,7,313.41523889999985,,,,,,,,,,,,,,,,,,,,,313.3998773999999,313.41523889999985,313.8985353999999,313.90367760000004,313.9202708,314.53249890000006,,,,,314.5327574999999,314.5473895,314.7472594999999,314.7309926999999,313.9202708,,,,,,,,0,1,0.5982136000000082,None,,,,,,,,888,20,M,L,2026-02-23_11h09.44.310,VisualSearch_2526_3,,2025.2.4,2026-02-23 11h09.44.829715 +0100,
tilted.xlsx,The target is tilted.,117,74,2,9,0,1,1,1,0,0,0,0,0,0,0,0,1,3,4,117,space,10.573489300000006,None,0,1,1.2097850999998627,None,space,3.40261200000009,None,0,0,0,0,,,,,9,2,74,6,314.7472594999999,,,,,,,,,,,,,,,,,,,,,314.73163499999987,314.7472594999999,315.23115340000004,315.23632569999995,315.25316759999987,316.46468329999993,,,,,316.4648778999999,316.4796882999999,316.67990970000005,316.66372409999985,315.25316759999987,,,,,,,,0,1,1.2097850999998627,None,,,,,,,,888,20,M,L,2026-02-23_11h09.44.310,VisualSearch_2526_3,,2025.2.4,2026-02-23 11h09.44.829715 +0100,
tilted.xlsx,The target is tilted.,117,75,3,9,1,1,1,1,0,0,0,0,0,0,0,0,0,3,4,117,space,10.573489300000006,None,1,1,1.150931200000059,None,space,3.40261200000009,None,0,0,0,0,,,,,9,3,75,2,316.67990970000005,,,,,,,,,,,,,,,,,,,,,316.66483730000004,316.67990970000005,317.1634429999999,317.1673579999999,317.18297959999995,318.34714699999995,,,,,318.3473414,318.36224560000005,318.56286239999986,318.54673479999997,317.18297959999995,,,,,,,,1,1,1.150931200000059,None,,,,,,,,888,20,M,L,2026-02-23_11h09.44.310,VisualSearch_2526_3,,2025.2.4,2026-02-23 11h09.44.829715 +0100,
tilted.xlsx,The target is tilted.,117,76,4,9,1,0,0,0,0,0,0,0,0,0,0,0,0,0,1,117,space,10.573489300000006,None,1,1,0.9214219000000412,None,space,3.40261200000009,None,0,0,0,0,,,,,9,4,76,3,318.56286239999986,,,,,,,,,,,,,,,,,,,,,318.5475265,318.56286239999986,319.04607369999985,319.05045459999997,319.0665337999999,319.99527739999985,,,,,319.99538000000007,320.0112813999999,320.21170789999996,320.1954685999999,319.0665337999999,,,,,,,,1,1,0.9214219000000412,None,,,,,,,,888,20,M,L,2026-02-23_11h09.44.310,VisualSearch_2526_3,,2025.2.4,2026-02-23 11h09.44.829715 +0100,
tilted.xlsx,The target is tilted.,117,77,5,9,1,1,1,1,1,1,1,1,0,0,0,0,0,7,8,117,space,10.573489300000006,None,0,0,4.936934100000144,None,space,3.40261200000009,None,0,0,0,0,,,,,9,5,77,1,320.21170789999996,,,,,,,,,,,,,,,,,,,,,320.1962684,320.21170789999996,320.69497239999987,320.69773510000005,320.7115007,325.6600971999999,,,,,325.6602946999999,325.6755077999999,325.8754443,325.8596336999999,320.7115007,,,,,,,,0,0,4.936934100000144,None,,,,,,,,888,20,M,L,2026-02-23_11h09.44.310,VisualSearch_2526_3,,2025.2.4,2026-02-23 11h09.44.829715 +0100,
tilted.xlsx,The target is tilted.,117,78,6,9,0,1,1,1,1,1,1,1,0,0,0,0,1,7,8,117,space,10.573489300000006,None,0,1,2.9351317999999083,None,space,3.40261200000009,None,0,0,0,0,,,,,9,6,78,5,325.8754443,,,,,,,,,,,,,,,,,,,,,325.8604427999999,325.8754443,326.35942239999986,326.3644758999999,326.38286590000007,329.3244041999999,,,,,329.32450919999997,329.3403163999999,329.5403412999999,329.5242461,326.38286590000007,,,,,,,,0,1,2.9351317999999083,None,,,,,,,,888,20,M,L,2026-02-23_11h09.44.310,VisualSearch_2526_3,,2025.2.4,2026-02-23 11h09.44.829715 +0100,
tilted.xlsx,The target is tilted.,117,79,7,9,1,1,1,1,1,1,1,1,1,1,1,1,0,11,12,117,space,10.573489300000006,None,0,0,3.9698430999999346,None,space,3.40261200000009,None,0,0,0,0,,,,,9,7,79,0,329.5403412999999,,,,,,,,,,,,,,,,,,,,,329.5247861999999,329.5403412999999,330.02436450000005,330.02889830000004,330.04528660000005,334.02264739999987,,,,,334.0228027999999,334.03833280000003,334.23853499999996,334.22244290000003,330.04528660000005,,,,,,,,0,0,3.9698430999999346,None,,,,,,,,888,20,M,L,2026-02-23_11h09.44.310,VisualSearch_2526_3,,2025.2.4,2026-02-23 11h09.44.829715 +0100,
tilted.xlsx,The target is tilted.,117,80,0,10,0,0,0,0,0,0,0,0,0,0,0,0,1,1,1,117,space,10.573489300000006,None,0,1,0.5143362999999681,None,space,3.40261200000009,None,0,0,0,0,,,,,10,0,80,7,334.23853499999996,,,,,,,,,,,,,,,,,,,,,334.2232242,334.23853499999996,334.72217469999987,334.7265333,334.74376370000004,335.2724140999999,,,,,335.2726149,335.28799789999994,335.48823500000003,335.47204209999995,334.74376370000004,,,,,,,,0,1,0.5143362999999681,None,,,,,,,,888,20,M,L,2026-02-23_11h09.44.310,VisualSearch_2526_3,,2025.2.4,2026-02-23 11h09.44.829715 +0100,
tilted.xlsx,The target is tilted.,117,81,1,10,1,1,1,1,1,1,1,1,0,0,0,0,0,7,8,117,space,10.573489300000006,None,1,1,2.120691699999952,None,space,3.40261200000009,None,0,0,0,0,,,,,10,1,81,1,335.48823500000003,,,,,,,,,,,,,,,,,,,,,335.4727831,335.48823500000003,335.97169529999996,335.9768105999999,335.99372990000006,338.1212702999999,,,,,338.1214648,338.13669060000007,338.3368754999999,338.32076059999986,335.99372990000006,,,,,,,,1,1,2.120691699999952,None,,,,,,,,888,20,M,L,2026-02-23_11h09.44.310,VisualSearch_2526_3,,2025.2.4,2026-02-23 11h09.44.829715 +0100,
tilted.xlsx,The target is tilted.,117,82,2,10,1,1,1,1,0,0,0,0,0,0,0,0,0,3,4,117,space,10.573489300000006,None,1,1,0.8833939999999529,None,space,3.40261200000009,None,0,0,0,0,,,,,10,2,82,2,338.3368754999999,,,,,,,,,,,,,,,,,,,,,338.32159379999985,338.3368754999999,338.82008359999986,338.8245391999999,338.839786,339.7362825,,,,,339.73637259999987,339.75219749999997,339.9525813,339.9363103999999,338.839786,,,,,,,,1,1,0.8833939999999529,None,,,,,,,,888,20,M,L,2026-02-23_11h09.44.310,VisualSearch_2526_3,,2025.2.4,2026-02-23 11h09.44.829715 +0100,
tilted.xlsx,The target is tilted.,117,83,3,10,0,1,1,1,1,1,1,1,0,0,0,0,1,7,8,117,space,10.573489300000006,None,0,1,3.968572600000016,None,space,3.40261200000009,None,0,0,0,0,,,,,10,3,83,5,339.9525813,,,,,,,,,,,,,,,,,,,,,339.9370615999999,339.9525813,340.43637609999996,340.44170009999993,340.4543398999999,344.43471009999985,,,,,344.4349451999999,344.4503978,344.65022010000007,344.6338226999999,340.4543398999999,,,,,,,,0,1,3.968572600000016,None,,,,,,,,888,20,M,L,2026-02-23_11h09.44.310,VisualSearch_2526_3,,2025.2.4,2026-02-23 11h09.44.829715 +0100,
tilted.xlsx,The target is tilted.,117,84,4,10,0,1,1,1,1,1,1,1,1,1,1,1,1,11,12,117,space,10.573489300000006,None,0,1,5.07372139999984,None,space,3.40261200000009,None,0,0,0,0,,,,,10,4,84,4,344.65022010000007,,,,,,,,,,,,,,,,,,,,,344.6342227,344.65022010000007,345.13420169999995,345.13755489999994,345.1513244,350.23170890000006,,,,,350.2321947999999,350.2476598999999,350.44790979999993,350.43176829999993,345.1513244,,,,,,,,0,1,5.07372139999984,None,,,,,,,,888,20,M,L,2026-02-23_11h09.44.310,VisualSearch_2526_3,,2025.2.4,2026-02-23 11h09.44.829715 +0100,
tilted.xlsx,The target is tilted.,117,85,5,10,0,1,1,1,0,0,0,0,0,0,0,0,1,3,4,117,space,10.573489300000006,None,0,1,1.1572802000000593,None,space,3.40261200000009,None,0,0,0,0,,,,,10,5,85,6,350.44790979999993,,,,,,,,,,,,,,,,,,,,,350.43264869999985,350.44790979999993,350.9316523,350.93718309999986,350.9515793999999,352.11439300000006,,,,,352.1145385,352.1301544999999,352.33032750000007,352.3142739,350.9515793999999,,,,,,,,0,1,1.1572802000000593,None,,,,,,,,888,20,M,L,2026-02-23_11h09.44.310,VisualSearch_2526_3,,2025.2.4,2026-02-23 11h09.44.829715 +0100,
tilted.xlsx,The target is tilted.,117,86,6,10,1,0,0,0,0,0,0,0,0,0,0,0,0,0,1,117,space,10.573489300000006,None,1,1,0.6025923000001967,None,space,3.40261200000009,None,0,0,0,0,,,,,10,6,86,3,352.33032750000007,,,,,,,,,,,,,,,,,,,,,352.3150997,352.33032750000007,352.81414829999994,352.8192813999999,352.8354646999999,353.44782310000005,,,,,353.4480182,353.46336109999993,353.66336120000005,353.64733810000007,352.8354646999999,,,,,,,,1,1,0.6025923000001967,None,,,,,,,,888,20,M,L,2026-02-23_11h09.44.310,VisualSearch_2526_3,,2025.2.4,2026-02-23 11h09.44.829715 +0100,
tilted.xlsx,The target is tilted.,117,87,7,10,1,1,1,1,1,1,1,1,1,1,1,1,0,11,12,117,space,10.573489300000006,None,1,1,1.6107707000001028,None,space,3.40261200000009,None,0,0,0,0,,,,,10,7,87,0,353.66336120000005,,,,,,,,,,,,,,,,,,,,,353.6481463,353.66336120000005,354.1471801,354.1523084999999,354.1675883999999,355.7962679,,,,,355.7964437999999,355.81232269999987,356.01251449999995,355.9958910999999,354.1675883999999,,,,,,,,1,1,1.6107707000001028,None,,,,,,,,888,20,M,L,2026-02-23_11h09.44.310,VisualSearch_2526_3,,2025.2.4,2026-02-23 11h09.44.829715 +0100,
tilted.xlsx,The target is tilted.,117,88,0,11,0,1,1,1,1,1,1,1,0,0,0,0,1,7,8,117,space,10.573489300000006,None,0,1,3.3326631999998426,None,space,3.40261200000009,None,0,0,0,0,,,,,11,0,88,5,356.01251449999995,,,,,,,,,,,,,,,,,,,,,355.99660300000005,356.01251449999995,356.49534619999986,356.4997893,356.51306249999993,359.86152990000005,,,,,359.8617285,359.87687159999996,360.0767836,360.0600987999999,356.51306249999993,,,,,,,,0,1,3.3326631999998426,None,,,,,,,,888,20,M,L,2026-02-23_11h09.44.310,VisualSearch_2526_3,,2025.2.4,2026-02-23 11h09.44.829715 +0100,
tilted.xlsx,The target is tilted.,117,89,1,11,1,1,1,1,0,0,0,0,0,0,0,0,0,3,4,117,space,10.573489300000006,None,1,1,1.188957500000015,None,space,3.40261200000009,None,0,0,0,0,,,,,11,1,89,2,360.0767836,,,,,,,,,,,,,,,,,,,,,360.0606163,360.0767836,360.56052520000003,360.56493209999985,360.583253,361.7769217,,,,,361.77719449999995,361.79236420000007,361.99215359999994,361.9757001999999,360.583253,,,,,,,,1,1,1.188957500000015,None,,,,,,,,888,20,M,L,2026-02-23_11h09.44.310,VisualSearch_2526_3,,2025.2.4,2026-02-23 11h09.44.829715 +0100,
tilted.xlsx,The target is tilted.,117,90,2,11,1,1,1,1,1,1,1,1,0,0,0,0,0,7,8,117,space,10.573489300000006,None,1,1,2.543017299999974,None,space,3.40261200000009,None,0,0,0,0,,,,,11,2,90,1,361.99215359999994,,,,,,,,,,,,,,,,,,,,,361.97600850000003,361.99215359999994,362.47758269999986,362.4831001,362.4999846999999,365.059475,,,,,365.05972929999984,365.07457,365.27462079999987,365.2585007,362.4999846999999,,,,,,,,1,1,2.543017299999974,None,,,,,,,,888,20,M,L,2026-02-23_11h09.44.310,VisualSearch_2526_3,,2025.2.4,2026-02-23 11h09.44.829715 +0100,
tilted.xlsx,The target is tilted.,117,91,3,11,0,0,0,0,0,0,0,0,0,0,0,0,1,1,1,117,space,10.573489300000006,None,0,1,0.793202600000086,None,space,3.40261200000009,None,0,0,0,0,,,,,11,3,91,7,365.27462079999987,,,,,,,,,,,,,,,,,,,,,365.2593179999999,365.27462079999987,365.7586288,365.7637591,365.7800155,366.5751745,,,,,366.57539199999997,366.5904427999999,366.7907734999999,366.77486079999994,365.7800155,,,,,,,,0,1,0.793202600000086,None,,,,,,,,888,20,M,L,2026-02-23_11h09.44.310,VisualSearch_2526_3,,2025.2.4,2026-02-23 11h09.44.829715 +0100,
tilted.xlsx,The target is tilted.,117,92,4,11,0,1,1,1,0,0,0,0,0,0,0,0,1,3,4,117,space,10.573489300000006,None,0,1,1.0176539000001412,None,space,3.40261200000009,None,0,0,0,0,,,,,11,4,92,6,366.7907734999999,,,,,,,,,,,,,,,,,,,,,366.77566750000005,366.7907734999999,367.2897866999999,367.29137220000007,367.3064380999999,368.3398645,,,,,368.33995000000004,368.35597489999986,368.5560745999999,368.53973240000005,,,,,,,,,0,1,1.0176539000001412,None,,,,,,,,888,20,M,L,2026-02-23_11h09.44.310,VisualSearch_2526_3,,2025.2.4,2026-02-23 11h09.44.829715 +0100,
tilted.xlsx,The target is tilted.,117,93,5,11,1,0,0,0,0,0,0,0,0,0,0,0,0,0,1,117,space,10.573489300000006,None,1,1,0.5266722999999729,None,space,3.40261200000009,None,0,0,0,0,,,,,11,5,93,3,368.5560745999999,,,,,,,,,,,,,,,,,,,,,368.540068,368.5560745999999,369.03954369999997,369.0425014,369.0556965999999,369.5901836999999,,,,,369.59039959999996,369.6057016,369.80569449999984,369.7891116999999,369.0556965999999,,,,,,,,1,1,0.5266722999999729,None,,,,,,,,888,20,M,L,2026-02-23_11h09.44.310,VisualSearch_2526_3,,2025.2.4,2026-02-23 11h09.44.829715 +0100,
tilted.xlsx,The target is tilted.,117,94,6,11,1,1,1,1,1,1,1,1,1,1,1,1,0,11,12,117,space,10.573489300000006,None,1,1,1.3119905000000927,None,space,3.40261200000009,None,0,0,0,0,,,,,11,6,94,0,369.80569449999984,,,,,,,,,,,,,,,,,,,,,369.7894905999999,369.80569449999984,370.28987789999996,370.2950209999999,370.31088679999993,371.6394743999999,,,,,371.6396574999999,371.65485349999994,371.85516029999985,371.839078,370.31088679999993,,,,,,,,1,1,1.3119905000000927,None,,,,,,,,888,20,M,L,2026-02-23_11h09.44.310,VisualSearch_2526_3,,2025.2.4,2026-02-23 11h09.44.829715 +0100,
tilted.xlsx,The target is tilted.,117,95,7,11,0,1,1,1,1,1,1,1,1,1,1,1,1,11,12,117,space,10.573489300000006,None,0,1,3.493344400000069,None,space,3.40261200000009,None,0,0,0,0,,,,,11,7,95,4,371.85516029999985,,,,,,,,,,,,,,,,,,,,,371.83991149999997,371.85516029999985,372.3389445,372.34398039999996,372.3620234,375.87036250000006,,,,,375.87052689999996,375.88602279999986,376.0860235,376.0699202999999,372.3620234,,,,,,,,0,1,3.493344400000069,None,,,,,,,,888,20,M,L,2026-02-23_11h09.44.310,VisualSearch_2526_3,,2025.2.4,2026-02-23 11h09.44.829715 +0100,
tilted.xlsx,The target is tilted.,117,96,0,12,0,1,1,1,1,1,1,1,1,1,1,1,1,11,12,117,space,10.573489300000006,None,0,1,3.9607322999997905,None,space,3.40261200000009,None,0,0,0,0,,,,,12,0,96,4,376.0860235,,,,,,,,,,,,,,,,,,,,,376.07073739999987,376.0860235,376.5701065999999,376.5754308999999,376.59349440000005,380.56799939999996,,,,,380.5681118,380.5842768,380.78414329999987,380.7679805,376.59349440000005,,,,,,,,0,1,3.9607322999997905,None,,,,,,,,888,20,M,L,2026-02-23_11h09.44.310,VisualSearch_2526_3,,2025.2.4,2026-02-23 11h09.44.829715 +0100,
tilted.xlsx,The target is tilted.,117,97,1,12,1,1,1,1,0,0,0,0,0,0,0,0,0,3,4,117,space,10.573489300000006,None,1,1,0.7781104000000596,None,space,3.40261200000009,None,0,0,0,0,,,,,12,1,97,2,380.78414329999987,,,,,,,,,,,,,,,,,,,,,380.76872579999986,380.78414329999987,381.2674586999999,381.2719456,381.28814009999996,382.0684102,,,,,382.0686367999999,382.08371710000006,382.2832831999999,382.26682059999985,381.28814009999996,,,,,,,,1,1,0.7781104000000596,None,,,,,,,,888,20,M,L,2026-02-23_11h09.44.310,VisualSearch_2526_3,,2025.2.4,2026-02-23 11h09.44.829715 +0100,
tilted.xlsx,The target is tilted.,117,98,2,12,0,0,0,0,0,0,0,0,0,0,0,0,1,1,1,117,space,10.573489300000006,None,0,1,0.6018897999999808,None,space,3.40261200000009,None,0,0,0,0,,,,,12,2,98,7,382.2832831999999,,,,,,,,,,,,,,,,,,,,,382.2672757,382.2832831999999,382.7674018,382.77237679999985,382.78922940000007,383.3997196,,,,,383.3998044,383.4157894,383.61595609999995,383.5999297999999,382.78922940000007,,,,,,,,0,1,0.6018897999999808,None,,,,,,,,888,20,M,L,2026-02-23_11h09.44.310,VisualSearch_2526_3,,2025.2.4,2026-02-23 11h09.44.829715 +0100,
tilted.xlsx,The target is tilted.,117,99,3,12,1,1,1,1,1,1,1,1,0,0,0,0,0,7,8,117,space,10.573489300000006,None,1,1,1.4079004000000168,None,space,3.40261200000009,None,0,0,0,0,,,,,12,3,99,1,383.61595609999995,,,,,,,,,,,,,,,,,,,,,383.60065629999986,383.61595609999995,384.0999273,384.10501969999996,384.12132629999996,385.5325172999999,,,,,385.53269219999993,385.5482499,385.7482929999999,385.7324108,384.12132629999996,,,,,,,,1,1,1.4079004000000168,None,,,,,,,,888,20,M,L,2026-02-23_11h09.44.310,VisualSearch_2526_3,,2025.2.4,2026-02-23 11h09.44.829715 +0100,
tilted.xlsx,The target is tilted.,117,100,4,12,0,1,1,1,0,0,0,0,0,0,0,0,1,3,4,117,space,10.573489300000006,None,0,1,1.0986229999998613,None,space,3.40261200000009,None,0,0,0,0,,,,,12,4,100,6,385.7482929999999,,,,,,,,,,,,,,,,,,,,,385.73324120000007,385.7482929999999,386.2320551,386.23688289999996,386.25239680000004,387.3659674999999,,,,,387.36622510000007,387.38146319999987,387.58077809999986,387.5643648,386.25239680000004,,,,,,,,0,1,1.0986229999998613,None,,,,,,,,888,20,M,L,2026-02-23_11h09.44.310,VisualSearch_2526_3,,2025.2.4,2026-02-23 11h09.44.829715 +0100,
tilted.xlsx,The target is tilted.,117,101,5,12,1,1,1,1,1,1,1,1,1,1,1,1,0,11,12,117,space,10.573489300000006,None,1,1,1.0486422000001312,None,space,3.40261200000009,None,0,0,0,0,,,,,12,5,101,0,387.58077809999986,,,,,,,,,,,,,,,,,,,,,387.5648076,387.58077809999986,388.0641581,388.0673890999999,388.0811876999999,389.1320424999999,,,,,389.132284,389.1470204,389.3469072999999,389.3307519,388.0811876999999,,,,,,,,1,1,1.0486422000001312,None,,,,,,,,888,20,M,L,2026-02-23_11h09.44.310,VisualSearch_2526_3,,2025.2.4,2026-02-23 11h09.44.829715 +0100,
tilted.xlsx,The target is tilted.,117,102,6,12,0,1,1,1,1,1,1,1,0,0,0,0,1,7,8,117,space,10.573489300000006,None,0,1,3.5377932999999757,None,space,3.40261200000009,None,0,0,0,0,,,,,12,6,102,5,389.3469072999999,,,,,,,,,,,,,,,,,,,,,389.33146009999996,389.3469072999999,389.8309812,389.83599449999997,389.85359930000004,393.39558409999995,,,,,393.3956848999999,393.4112917,393.61151960000007,393.5955165999999,389.85359930000004,,,,,,,,0,1,3.5377932999999757,None,,,,,,,,888,20,M,L,2026-02-23_11h09.44.310,VisualSearch_2526_3,,2025.2.4,2026-02-23 11h09.44.829715 +0100,
tilted.xlsx,The target is tilted.,117,103,7,12,1,0,0,0,0,0,0,0,0,0,0,0,0,0,1,117,space,10.573489300000006,None,1,1,0.6296677000000273,None,space,3.40261200000009,None,0,0,0,0,,,,,12,7,103,3,393.61151960000007,,,,,,,,,,,,,,,,,,,,,393.59633299999996,393.61151960000007,394.09529069999985,394.1004083,394.11270579999996,394.74572079999984,,,,,394.74596129999986,394.7609964999999,394.9610086,394.9453435999999,394.11270579999996,,,,,,,,1,1,0.6296677000000273,None,,,,,,,,888,20,M,L,2026-02-23_11h09.44.310,VisualSearch_2526_3,,2025.2.4,2026-02-23 11h09.44.829715 +0100,
tilted.xlsx,The target is tilted.,117,104,0,13,0,1,1,1,0,0,0,0,0,0,0,0,1,3,4,117,space,10.573489300000006,None,0,1,1.0584353000001556,None,space,3.40261200000009,None,0,0,0,0,,,,,13,0,104,6,394.9610086,,,,,,,,,,,,,,,,,,,,,394.9461458999999,394.9610086,395.4446734999999,395.4496985999999,395.4653389,396.5281442999999,,,,,396.5283646999999,396.54360810000003,396.7435694999999,396.72778419999986,395.4653389,,,,,,,,0,1,1.0584353000001556,None,,,,,,,,888,20,M,L,2026-02-23_11h09.44.310,VisualSearch_2526_3,,2025.2.4,2026-02-23 11h09.44.829715 +0100,
tilted.xlsx,The target is tilted.,117,105,1,13,1,1,1,1,0,0,0,0,0,0,0,0,0,3,4,117,space,10.573489300000006,None,1,1,0.6239372000000003,None,space,3.40261200000009,None,0,0,0,0,,,,,13,1,105,2,396.7435694999999,,,,,,,,,,,,,,,,,,,,,396.7285953999999,396.7435694999999,397.22760519999997,397.2326957999999,397.24958160000006,397.8773796999999,,,,,397.87759660000006,397.89333569999985,398.09320649999995,398.0765005999999,397.24958160000006,,,,,,,,1,1,0.6239372000000003,None,,,,,,,,888,20,M,L,2026-02-23_11h09.44.310,VisualSearch_2526_3,,2025.2.4,2026-02-23 11h09.44.829715 +0100,
tilted.xlsx,The target is tilted.,117,106,2,13,1,0,0,0,0,0,0,0,0,0,0,0,0,0,1,117,space,10.573489300000006,None,1,1,0.5040549999998802,None,space,3.40261200000009,None,0,0,0,0,,,,,13,2,106,3,398.09320649999995,,,,,,,,,,,,,,,,,,,,,398.0771516,398.09320649999995,398.57632390000003,398.58091579999996,398.5968092999999,399.10995819999994,,,,,399.1101165,399.1259766999999,399.32570179999993,399.30942349999987,398.5968092999999,,,,,,,,1,1,0.5040549999998802,None,,,,,,,,888,20,M,L,2026-02-23_11h09.44.310,VisualSearch_2526_3,,2025.2.4,2026-02-23 11h09.44.829715 +0100,
tilted.xlsx,The target is tilted.,117,107,3,13,1,1,1,1,1,1,1,1,1,1,1,1,0,11,12,117,space,10.573489300000006,None,1,1,0.6963809999999739,None,space,3.40261200000009,None,0,0,0,0,,,,,13,3,107,0,399.32570179999993,,,,,,,,,,,,,,,,,,,,,399.3100936999999,399.32570179999993,399.80922669999995,399.813302,399.82746440000005,400.52585120000003,,,,,400.52603380000005,400.5419480999999,400.7414971999999,400.7253848999999,399.82746440000005,,,,,,,,1,1,0.6963809999999739,None,,,,,,,,888,20,M,L,2026-02-23_11h09.44.310,VisualSearch_2526_3,,2025.2.4,2026-02-23 11h09.44.829715 +0100,
tilted.xlsx,The target is tilted.,117,108,4,13,1,1,1,1,1,1,1,1,0,0,0,0,0,7,8,117,space,10.573489300000006,None,1,1,0.4736275000000205,None,space,3.40261200000009,None,0,0,0,0,,,,,13,4,108,1,400.7414971999999,,,,,,,,,,,,,,,,,,,,,400.72613449999994,400.7414971999999,401.22541090000004,401.2304021,401.24855520000006,401.7252329999999,,,,,401.7253991,401.7410892999999,401.94116529999997,401.92515249999997,401.24855520000006,,,,,,,,1,1,0.4736275000000205,None,,,,,,,,888,20,M,L,2026-02-23_11h09.44.310,VisualSearch_2526_3,,2025.2.4,2026-02-23 11h09.44.829715 +0100,
tilted.xlsx,The target is tilted.,117,109,5,13,0,1,1,1,1,1,1,1,1,1,1,1,1,11,12,117,space,10.573489300000006,None,1,0,1.7699605000000247,None,space,3.40261200000009,None,0,0,0,0,,,,,13,5,109,4,401.94116529999997,,,,,,,,,,,,,,,,,,,,,401.9260356,401.94116529999997,402.42439820000004,402.42686389999994,402.4405838,404.2245576999999,,,,,404.22473349999996,404.24015600000007,404.4401478,404.4239124999999,402.4405838,,,,,,,,1,0,1.7699605000000247,None,,,,,,,,888,20,M,L,2026-02-23_11h09.44.310,VisualSearch_2526_3,,2025.2.4,2026-02-23 11h09.44.829715 +0100,
tilted.xlsx,The target is tilted.,117,110,6,13,0,0,0,0,0,0,0,0,0,0,0,0,1,1,1,117,space,10.573489300000006,None,0,1,0.7059450000001561,None,space,3.40261200000009,None,0,0,0,0,,,,,13,6,110,7,404.4401478,,,,,,,,,,,,,,,,,,,,,404.42462810000006,404.4401478,404.9237969999999,404.9288027,404.94543150000004,405.65762619999987,,,,,405.65784729999996,405.6730998999999,405.8725365,405.856366,404.94543150000004,,,,,,,,0,1,0.7059450000001561,None,,,,,,,,888,20,M,L,2026-02-23_11h09.44.310,VisualSearch_2526_3,,2025.2.4,2026-02-23 11h09.44.829715 +0100,
tilted.xlsx,The target is tilted.,117,111,7,13,0,1,1,1,1,1,1,1,0,0,0,0,1,7,8,117,space,10.573489300000006,None,0,1,2.3013802999998916,None,space,3.40261200000009,None,0,0,0,0,,,,,13,7,111,5,405.8725365,,,,,,,,,,,,,,,,,,,,,405.85709569999995,405.8725365,406.35650009999995,406.361721,406.3776553,408.6887778999999,,,,,408.68894709999995,408.704606,408.9044842999999,408.88852410000004,406.3776553,,,,,,,,0,1,2.3013802999998916,None,,,,,,,,888,20,M,L,2026-02-23_11h09.44.310,VisualSearch_2526_3,,2025.2.4,2026-02-23 11h09.44.829715 +0100,
tilted.xlsx,The target is tilted.,117,112,0,14,1,1,1,1,1,1,1,1,0,0,0,0,0,7,8,117,space,10.573489300000006,None,0,0,2.653422300000102,None,space,3.40261200000009,None,0,0,0,0,,,,,14,0,112,1,408.9044842999999,,,,,,,,,,,,,,,,,,,,,408.8893367999999,408.9044842999999,409.3883016,409.39357640000003,409.41130509999994,412.07029480000006,,,,,412.07043010000007,412.0863233,412.28615489999993,412.270342,409.41130509999994,,,,,,,,0,0,2.653422300000102,None,,,,,,,,888,20,M,L,2026-02-23_11h09.44.310,VisualSearch_2526_3,,2025.2.4,2026-02-23 11h09.44.829715 +0100,
tilted.xlsx,The target is tilted.,117,113,1,14,0,1,1,1,1,1,1,1,0,0,0,0,1,7,8,117,space,10.573489300000006,None,0,1,2.2794208000000253,None,space,3.40261200000009,None,0,0,0,0,,,,,14,1,113,5,412.28615489999993,,,,,,,,,,,,,,,,,,,,,412.27110059999995,412.28615489999993,412.7701167,412.77378729999987,412.78638580000006,415.0698238,,,,,415.0700474999999,415.08554879999997,415.28511750000007,415.2685343999999,412.78638580000006,,,,,,,,0,1,2.2794208000000253,None,,,,,,,,888,20,M,L,2026-02-23_11h09.44.310,VisualSearch_2526_3,,2025.2.4,2026-02-23 11h09.44.829715 +0100,
tilted.xlsx,The target is tilted.,117,114,2,14,1,1,1,1,0,0,0,0,0,0,0,0,0,3,4,117,space,10.573489300000006,None,1,1,0.5089973999999984,None,space,3.40261200000009,None,0,0,0,0,,,,,14,2,114,2,415.28511750000007,,,,,,,,,,,,,,,,,,,,,415.26902870000004,415.28511750000007,415.76915869999993,415.7742796,415.7902451,416.3025086,,,,,416.30274099999997,416.31794179999997,416.5179447999999,416.5022219,415.7902451,,,,,,,,1,1,0.5089973999999984,None,,,,,,,,888,20,M,L,2026-02-23_11h09.44.310,VisualSearch_2526_3,,2025.2.4,2026-02-23 11h09.44.829715 +0100,
tilted.xlsx,The target is tilted.,117,115,3,14,0,1,1,1,1,1,1,1,1,1,1,1,1,11,12,117,space,10.573489300000006,None,0,1,3.617256199999929,None,space,3.40261200000009,None,0,0,0,0,,,,,14,3,115,4,416.5179447999999,,,,,,,,,,,,,,,,,,,,,416.5030208999999,416.5179447999999,417.0016656,417.00676729999986,417.0210162999999,420.6506388999999,,,,,420.6508592,420.6663002,420.8659012999999,420.8499213,417.0210162999999,,,,,,,,0,1,3.617256199999929,None,,,,,,,,888,20,M,L,2026-02-23_11h09.44.310,VisualSearch_2526_3,,2025.2.4,2026-02-23 11h09.44.829715 +0100,
tilted.xlsx,The target is tilted.,117,116,4,14,0,0,0,0,0,0,0,0,0,0,0,0,1,1,1,117,space,10.573489300000006,None,0,1,0.7060338000001138,None,space,3.40261200000009,None,0,0,0,0,,,,,14,4,116,7,420.8659012999999,,,,,,,,,,,,,,,,,,,,,420.85068869999986,420.8659012999999,421.349281,421.3521455,421.3652161,422.0827279,,,,,422.0829461999999,422.0984289999999,422.29857849999985,422.28172029999996,421.3652161,,,,,,,,0,1,0.7060338000001138,None,,,,,,,,888,20,M,L,2026-02-23_11h09.44.310,VisualSearch_2526_3,,2025.2.4,2026-02-23 11h09.44.829715 +0100,
tilted.xlsx,The target is tilted.,117,117,5,14,0,1,1,1,0,0,0,0,0,0,0,0,1,3,4,117,space,10.573489300000006,None,0,1,0.8925167000002148,None,space,3.40261200000009,None,0,0,0,0,,,,,14,5,117,6,422.29857849999985,,,,,,,,,,,,,,,,,,,,,422.28207240000006,422.29857849999985,422.7825556999999,422.7870028,422.80313179999985,423.6984878999999,,,,,423.69862779999994,423.71419130000004,423.9144059,423.8984266,422.80313179999985,,,,,,,,0,1,0.8925167000002148,None,,,,,,,,888,20,M,L,2026-02-23_11h09.44.310,VisualSearch_2526_3,,2025.2.4,2026-02-23 11h09.44.829715 +0100,
tilted.xlsx,The target is tilted.,117,118,6,14,1,0,0,0,0,0,0,0,0,0,0,0,0,0,1,117,space,10.573489300000006,None,1,1,0.6348132999999052,None,space,3.40261200000009,None,0,0,0,0,,,,,14,6,118,3,423.9144059,,,,,,,,,,,,,,,,,,,,,423.89925259999995,423.9144059,424.39805939999997,424.40245060000007,424.4202794999999,425.06436329999997,,,,,425.0644969,425.0803504999999,425.28041689999986,425.26426549999996,424.4202794999999,,,,,,,,1,1,0.6348132999999052,None,,,,,,,,888,20,M,L,2026-02-23_11h09.44.310,VisualSearch_2526_3,,2025.2.4,2026-02-23 11h09.44.829715 +0100,
tilted.xlsx,The target is tilted.,117,119,7,14,1,1,1,1,1,1,1,1,1,1,1,1,0,11,12,117,space,10.573489300000006,None,1,1,0.5757856000000174,None,space,3.40261200000009,None,0,0,0,0,,,,,14,7,119,0,425.28041689999986,,,,,,,,,,,,,,,,,,,,,425.26501170000006,425.28041689999986,425.76428369999985,425.7694987,425.78963799999997,426.3811834999999,,,,,426.38138030000005,426.39675609999995,426.61220260000005,426.58041789999993,425.78963799999997,,,,,,,,1,1,0.5757856000000174,None,,,,,,,,888,20,M,L,2026-02-23_11h09.44.310,VisualSearch_2526_3,,2025.2.4,2026-02-23 11h09.44.829715 +0100,
tilted.xlsx,The target is tilted.,117,0,0,0,,,,,,,,,,,,,,,,,space,10.573489300000006,None,,,,,space,3.40261200000009,None,0,0,0,0,,,,,,,,,,,,,,,,,,,,,,,,,,,,,,,,,,,,,,,,,,,,,,,,,,,,,,,,,,,,,,,888,20,M,L,2026-02-23_11h09.44.310,VisualSearch_2526_3,,2025.2.4,2026-02-23 11h09.44.829715 +0100,
vertical.xlsx,The target is tilted.,135,0,0,0,1,0,0,0,0,0,0,0,0,0,0,0,0,0,1,135,space,25.255607900000086,None,1,1,0.6368179999999484,None,,,,0,1,1,1,0,0,0,3,,,,,451.91910659999985,,,,,,,,,,,,,,,426.61220260000005,426.61220260000005,426.61220260000005,space,25.255607900000086,None,451.91500070000006,451.91910659999985,452.3851049,452.39022090000003,452.40625469999986,453.0523731999999,1,1,0.6368179999999484,None,453.0525897,453.06787099999997,453.2682199999999,453.25216879999994,,,,,,,,,,,,,,,,,,,,888,20,M,L,2026-02-23_11h09.44.310,VisualSearch_2526_3,,2025.2.4,2026-02-23 11h09.44.829715 +0100,
vertical.xlsx,The target is tilted.,135,1,1,0,0,1,1,1,0,0,0,0,0,0,0,0,1,3,4,135,space,25.255607900000086,None,0,1,0.8415701999999783,None,,,,0,1,1,1,0,1,1,6,,,,,453.2682199999999,,,,,,,,,,,,,,,,,,,,,453.2529159999999,453.2682199999999,453.75137470000004,453.75654839999993,453.77547260000006,454.6350321,0,1,0.8415701999999783,None,454.6352216,454.65052130000004,454.85057329999995,454.83445860000006,453.77547260000006,,,,,,,,,,,,,,,,,,,888,20,M,L,2026-02-23_11h09.44.310,VisualSearch_2526_3,,2025.2.4,2026-02-23 11h09.44.829715 +0100,
vertical.xlsx,The target is tilted.,135,2,2,0,1,1,1,1,1,1,1,1,1,1,1,1,0,11,12,135,space,25.255607900000086,None,1,1,1.2556839999999738,None,,,,0,1,1,1,0,2,2,0,,,,,454.85057329999995,,,,,,,,,,,,,,,,,,,,,454.8352187999999,454.85057329999995,455.3345572999999,455.3399184,455.3574331,456.6174945999999,1,1,1.2556839999999738,None,456.61771049999993,456.6326374,456.83286039999984,456.8168088,455.3574331,,,,,,,,,,,,,,,,,,,888,20,M,L,2026-02-23_11h09.44.310,VisualSearch_2526_3,,2025.2.4,2026-02-23 11h09.44.829715 +0100,
vertical.xlsx,The target is tilted.,135,3,3,0,0,0,0,0,0,0,0,0,0,0,0,0,1,1,1,135,space,25.255607900000086,None,0,1,0.5771063999998205,None,,,,0,1,1,1,0,3,3,7,,,,,456.83286039999984,,,,,,,,,,,,,,,,,,,,,456.81757319999997,456.83286039999984,457.3164786,457.32152989999986,457.33797949999985,457.91614430000004,0,1,0.5771063999998205,None,457.91627560000006,457.93249779999996,458.13258040000005,458.11650080000004,457.33797949999985,,,,,,,,,,,,,,,,,,,888,20,M,L,2026-02-23_11h09.44.310,VisualSearch_2526_3,,2025.2.4,2026-02-23 11h09.44.829715 +0100,
vertical.xlsx,The target is tilted.,135,4,4,0,1,1,1,1,0,0,0,0,0,0,0,0,0,3,4,135,space,25.255607900000086,None,1,1,0.9674756000001707,None,,,,0,1,1,1,0,4,4,2,,,,,458.13258040000005,,,,,,,,,,,,,,,,,,,,,458.11724030000005,458.13258040000005,458.6160258,458.62095939999995,458.6367711999999,459.6162254999999,1,1,0.9674756000001707,None,459.61643579999986,459.63166060000003,459.83153530000004,459.8152012999999,458.6367711999999,,,,,,,,,,,,,,,,,,,888,20,M,L,2026-02-23_11h09.44.310,VisualSearch_2526_3,,2025.2.4,2026-02-23 11h09.44.829715 +0100,
vertical.xlsx,The target is tilted.,135,5,5,0,1,1,1,1,1,1,1,1,0,0,0,0,0,7,8,135,space,25.255607900000086,None,1,1,0.7587862000000314,None,,,,0,1,1,1,0,5,5,1,,,,,459.83153530000004,,,,,,,,,,,,,,,,,,,,,459.8158693999999,459.83153530000004,460.31543609999994,460.32057199999986,460.33777239999995,461.0981211999999,1,1,0.7587862000000314,None,461.09825209999985,461.1139378999999,461.3140816,461.29809469999987,460.33777239999995,,,,,,,,,,,,,,,,,,,888,20,M,L,2026-02-23_11h09.44.310,VisualSearch_2526_3,,2025.2.4,2026-02-23 11h09.44.829715 +0100,
vertical.xlsx,The target is tilted.,135,6,6,0,0,1,1,1,1,1,1,1,0,0,0,0,1,7,8,135,space,25.255607900000086,None,0,1,1.6569822999999815,None,,,,0,1,1,1,0,6,6,5,,,,,461.3140816,,,,,,,,,,,,,,,,,,,,,461.2988522999999,461.3140816,461.79772649999995,461.80217229999994,461.8184629,463.4804242,0,1,1.6569822999999815,None,463.4805721,463.49664540000003,463.69614320000005,463.6795480999999,461.8184629,,,,,,,,,,,,,,,,,,,888,20,M,L,2026-02-23_11h09.44.310,VisualSearch_2526_3,,2025.2.4,2026-02-23 11h09.44.829715 +0100,
vertical.xlsx,The target is tilted.,135,7,7,0,0,1,1,1,1,1,1,1,1,1,1,1,1,11,12,135,space,25.255607900000086,None,0,1,1.7838676999999734,None,,,,0,1,1,1,0,7,7,4,,,,,463.69614320000005,,,,,,,,,,,,,,,,,,,,,463.6799452999999,463.69614320000005,464.18006059999993,464.184117,464.19675630000006,465.9956628,0,1,1.7838676999999734,None,465.9957597,466.01193969999986,466.2118928,466.1957147999999,464.19675630000006,,,,,,,,,,,,,,,,,,,888,20,M,L,2026-02-23_11h09.44.310,VisualSearch_2526_3,,2025.2.4,2026-02-23 11h09.44.829715 +0100,
vertical.xlsx,The target is tilted.,135,0,0,0,1,0,0,0,0,0,0,0,0,0,0,0,0,0,1,135,space,25.255607900000086,None,1,1,0.5354251999999633,None,space,3.0420343000000685,None,0,1,1,1,,,,,0,0,0,3,469.29112480000003,,,,,,,,,,,,,,,,,,,,,469.2870519999999,469.29112480000003,469.7776630999999,469.7827493,469.7988974,470.34395419999987,,,,,470.34408940000003,470.3596542999999,470.5598362999999,470.54370219999987,,466.2034735,466.2118928,466.2118928,469.2619124999999,space,3.0420343000000685,None,1,1,0.5354251999999633,None,,,,,,,,888,20,M,L,2026-02-23_11h09.44.310,VisualSearch_2526_3,,2025.2.4,2026-02-23 11h09.44.829715 +0100,
vertical.xlsx,The target is tilted.,135,1,1,0,0,1,1,1,0,0,0,0,0,0,0,0,1,3,4,135,space,25.255607900000086,None,0,1,0.7561290000001009,None,space,3.0420343000000685,None,0,1,1,1,,,,,0,1,1,6,470.5598362999999,,,,,,,,,,,,,,,,,,,,,470.54443360000005,470.5598362999999,471.04355740000005,471.04865960000006,471.06798989999993,471.82713539999986,,,,,471.82732869999995,471.84271979999994,472.0427413,472.0266552999999,471.06798989999993,,,,,,,,0,1,0.7561290000001009,None,,,,,,,,888,20,M,L,2026-02-23_11h09.44.310,VisualSearch_2526_3,,2025.2.4,2026-02-23 11h09.44.829715 +0100,
vertical.xlsx,The target is tilted.,135,2,2,0,0,1,1,1,1,1,1,1,1,1,1,1,1,11,12,135,space,25.255607900000086,None,0,1,1.9882350000000315,None,space,3.0420343000000685,None,0,1,1,1,,,,,0,2,2,4,472.0427413,,,,,,,,,,,,,,,,,,,,,472.0274867999999,472.0427413,472.5267483,472.53172629999995,472.5486587999999,474.54220050000004,,,,,474.54243900000006,474.5579301,474.7577274,474.7419901999999,472.5486587999999,,,,,,,,0,1,1.9882350000000315,None,,,,,,,,888,20,M,L,2026-02-23_11h09.44.310,VisualSearch_2526_3,,2025.2.4,2026-02-23 11h09.44.829715 +0100,
vertical.xlsx,The target is tilted.,135,3,3,0,0,1,1,1,1,1,1,1,0,0,0,0,1,7,8,135,space,25.255607900000086,None,0,1,1.244987700000138,None,space,3.0420343000000685,None,0,1,1,1,,,,,0,3,3,5,474.7577274,,,,,,,,,,,,,,,,,,,,,474.7428146,474.7577274,475.24163139999996,475.2460119,475.26206090000005,476.5083563999999,,,,,476.5085468,476.5239428,476.72402680000005,476.70765929999993,475.26206090000005,,,,,,,,0,1,1.244987700000138,None,,,,,,,,888,20,M,L,2026-02-23_11h09.44.310,VisualSearch_2526_3,,2025.2.4,2026-02-23 11h09.44.829715 +0100,
vertical.xlsx,The target is tilted.,135,4,4,0,1,1,1,1,1,1,1,1,1,1,1,1,0,11,12,135,space,25.255607900000086,None,0,0,1.5216149999998834,None,space,3.0420343000000685,None,0,1,1,1,,,,,0,4,4,0,476.72402680000005,,,,,,,,,,,,,,,,,,,,,476.70831529999987,476.72402680000005,477.2079251,477.2129886,477.23089779999987,478.7565520999999,,,,,478.75666950000004,478.7728781999999,478.97276450000004,478.9561512,477.23089779999987,,,,,,,,0,0,1.5216149999998834,None,,,,,,,,888,20,M,L,2026-02-23_11h09.44.310,VisualSearch_2526_3,,2025.2.4,2026-02-23 11h09.44.829715 +0100,
vertical.xlsx,The target is tilted.,135,5,5,0,0,0,0,0,0,0,0,0,0,0,0,0,1,1,1,135,space,25.255607900000086,None,0,1,0.5409753999999793,None,space,3.0420343000000685,None,0,1,1,1,,,,,0,5,5,7,478.97276450000004,,,,,,,,,,,,,,,,,,,,,478.95649579999986,478.97276450000004,479.4566345999999,479.4617166999999,479.4777764999999,480.0235333999999,,,,,480.02374940000004,480.03899,480.23925110000005,480.22325520000004,479.4777764999999,,,,,,,,0,1,0.5409753999999793,None,,,,,,,,888,20,M,L,2026-02-23_11h09.44.310,VisualSearch_2526_3,,2025.2.4,2026-02-23 11h09.44.829715 +0100,
vertical.xlsx,The target is tilted.,135,6,6,0,1,1,1,1,1,1,1,1,0,0,0,0,0,7,8,135,space,25.255607900000086,None,1,1,1.2567583999998533,None,space,3.0420343000000685,None,0,1,1,1,,,,,0,6,6,1,480.23925110000005,,,,,,,,,,,,,,,,,,,,,480.22407580000004,480.23925110000005,480.7224805999999,480.72751829999993,480.74461329999986,482.0052441999999,,,,,482.0053805,482.0212182999999,482.2209679,482.2048035999999,480.74461329999986,,,,,,,,1,1,1.2567583999998533,None,,,,,,,,888,20,M,L,2026-02-23_11h09.44.310,VisualSearch_2526_3,,2025.2.4,2026-02-23 11h09.44.829715 +0100,
vertical.xlsx,The target is tilted.,135,7,7,0,1,1,1,1,0,0,0,0,0,0,0,0,0,3,4,135,space,25.255607900000086,None,1,1,0.5966194999998606,None,space,3.0420343000000685,None,0,1,1,1,,,,,0,7,7,2,482.2209679,,,,,,,,,,,,,,,,,,,,,482.20534399999997,482.2209679,482.7048339999999,482.70880639999996,482.7231035,483.3214224999999,,,,,483.3215811,483.33719959999985,483.53738729999986,483.52119930000003,482.7231035,,,,,,,,1,1,0.5966194999998606,None,,,,,,,,888,20,M,L,2026-02-23_11h09.44.310,VisualSearch_2526_3,,2025.2.4,2026-02-23 11h09.44.829715 +0100,
vertical.xlsx,The target is tilted.,135,8,0,1,1,1,1,1,1,1,1,1,0,0,0,0,0,7,8,135,space,25.255607900000086,None,1,1,0.5040429000000586,None,space,3.0420343000000685,None,0,1,1,1,,,,,1,0,8,1,483.53738729999986,,,,,,,,,,,,,,,,,,,,,483.5220537,483.53738729999986,484.02118229999996,484.0263393,484.04448049999996,484.55443349999996,,,,,484.55462420000003,484.5702535999999,484.7699447,484.75361939999993,484.04448049999996,,,,,,,,1,1,0.5040429000000586,None,,,,,,,,888,20,M,L,2026-02-23_11h09.44.310,VisualSearch_2526_3,,2025.2.4,2026-02-23 11h09.44.829715 +0100,
vertical.xlsx,The target is tilted.,135,9,1,1,0,1,1,1,1,1,1,1,1,1,1,1,1,11,12,135,space,25.255607900000086,None,0,1,1.5189915999999357,None,space,3.0420343000000685,None,0,1,1,1,,,,,1,1,9,4,484.7699447,,,,,,,,,,,,,,,,,,,,,484.7540753999999,484.7699447,485.25418089999994,485.2587182,485.2752771999999,486.80298089999997,,,,,486.80308709999986,486.8189984999999,487.0189206,487.0026103,485.2752771999999,,,,,,,,0,1,1.5189915999999357,None,,,,,,,,888,20,M,L,2026-02-23_11h09.44.310,VisualSearch_2526_3,,2025.2.4,2026-02-23 11h09.44.829715 +0100,
vertical.xlsx,The target is tilted.,135,10,2,1,1,1,1,1,0,0,0,0,0,0,0,0,0,3,4,135,space,25.255607900000086,None,1,1,1.072480799999994,None,space,3.0420343000000685,None,0,1,1,1,,,,,1,2,10,2,487.0189206,,,,,,,,,,,,,,,,,,,,,487.0030875,487.0189206,487.50257999999985,487.50710159999994,487.52350249999995,488.60230520000005,,,,,488.60242990000006,488.61826139999994,488.8181413,488.80205039999987,487.52350249999995,,,,,,,,1,1,1.072480799999994,None,,,,,,,,888,20,M,L,2026-02-23_11h09.44.310,VisualSearch_2526_3,,2025.2.4,2026-02-23 11h09.44.829715 +0100,
vertical.xlsx,The target is tilted.,135,11,3,1,0,1,1,1,0,0,0,0,0,0,0,0,1,3,4,135,space,25.255607900000086,None,0,1,0.8766244999999344,None,space,3.0420343000000685,None,0,1,1,1,,,,,1,3,11,6,488.8181413,,,,,,,,,,,,,,,,,,,,,488.80278069999986,488.8181413,489.30179350000003,489.306296,489.32235879999985,490.2021055,,,,,490.2023013999999,490.2175090999999,490.4174917999999,490.40131569999994,489.32235879999985,,,,,,,,0,1,0.8766244999999344,None,,,,,,,,888,20,M,L,2026-02-23_11h09.44.310,VisualSearch_2526_3,,2025.2.4,2026-02-23 11h09.44.829715 +0100,
vertical.xlsx,The target is tilted.,135,12,4,1,1,1,1,1,1,1,1,1,1,1,1,1,0,11,12,135,space,25.255607900000086,None,1,1,0.467039700000214,None,space,3.0420343000000685,None,0,1,1,1,,,,,1,4,12,0,490.4174917999999,,,,,,,,,,,,,,,,,,,,,490.4021399999999,490.4174917999999,490.90159330000006,490.90661209999985,490.9235566,491.4017767,,,,,491.4019983999999,491.41705120000006,491.61730369999987,491.6013355,490.9235566,,,,,,,,1,1,0.467039700000214,None,,,,,,,,888,20,M,L,2026-02-23_11h09.44.310,VisualSearch_2526_3,,2025.2.4,2026-02-23 11h09.44.829715 +0100,
vertical.xlsx,The target is tilted.,135,13,5,1,0,1,1,1,1,1,1,1,0,0,0,0,1,7,8,135,space,25.255607900000086,None,0,1,1.5383656999999857,None,space,3.0420343000000685,None,0,1,1,1,,,,,1,5,13,5,491.61730369999987,,,,,,,,,,,,,,,,,,,,,491.6020825999999,491.61730369999987,492.1004381,492.1048567999999,492.1233903,493.66724309999995,,,,,493.6674358,493.6827876,493.88270250000005,493.86644009999986,492.1233903,,,,,,,,0,1,1.5383656999999857,None,,,,,,,,888,20,M,L,2026-02-23_11h09.44.310,VisualSearch_2526_3,,2025.2.4,2026-02-23 11h09.44.829715 +0100,
vertical.xlsx,The target is tilted.,135,14,6,1,1,0,0,0,0,0,0,0,0,0,0,0,0,0,1,135,space,25.255607900000086,None,1,1,0.495278499999813,None,space,3.0420343000000685,None,0,1,1,1,,,,,1,6,14,3,493.88270250000005,,,,,,,,,,,,,,,,,,,,,493.8671225999999,493.88270250000005,494.3663007,494.3708173,494.38370269999996,494.88289659999987,,,,,494.8830932999999,494.8986244,495.09852750000005,495.0824482999999,494.38370269999996,,,,,,,,1,1,0.495278499999813,None,,,,,,,,888,20,M,L,2026-02-23_11h09.44.310,VisualSearch_2526_3,,2025.2.4,2026-02-23 11h09.44.829715 +0100,
vertical.xlsx,The target is tilted.,135,15,7,1,0,0,0,0,0,0,0,0,0,0,0,0,1,1,1,135,space,25.255607900000086,None,0,1,0.702898100000084,None,space,3.0420343000000685,None,0,1,1,1,,,,,1,7,15,7,495.09852750000005,,,,,,,,,,,,,,,,,,,,,495.08319089999986,495.09852750000005,495.5825253999999,495.5869126,495.60326199999986,496.31590200000005,,,,,496.31615310000007,496.3313323,496.53146059999995,496.5158242,495.60326199999986,,,,,,,,0,1,0.702898100000084,None,,,,,,,,888,20,M,L,2026-02-23_11h09.44.310,VisualSearch_2526_3,,2025.2.4,2026-02-23 11h09.44.829715 +0100,
vertical.xlsx,The target is tilted.,135,16,0,2,1,1,1,1,1,1,1,1,1,1,1,1,0,11,12,135,space,25.255607900000086,None,1,1,0.854037500000004,None,space,3.0420343000000685,None,0,1,1,1,,,,,2,0,16,0,496.53146059999995,,,,,,,,,,,,,,,,,,,,,496.5166242999999,496.53146059999995,497.0150908999999,497.02018529999987,497.03718749999985,497.8983954999999,,,,,497.8985848,497.9141259999999,498.11385599999994,498.09795239999994,497.03718749999985,,,,,,,,1,1,0.854037500000004,None,,,,,,,,888,20,M,L,2026-02-23_11h09.44.310,VisualSearch_2526_3,,2025.2.4,2026-02-23 11h09.44.829715 +0100,
vertical.xlsx,The target is tilted.,135,17,1,2,0,1,1,1,1,1,1,1,0,0,0,0,1,7,8,135,space,25.255607900000086,None,0,1,1.3573112999999921,None,space,3.0420343000000685,None,0,1,1,1,,,,,2,1,17,5,498.11385599999994,,,,,,,,,,,,,,,,,,,,,498.0987528999999,498.11385599999994,498.5974953,498.60189479999985,498.6213066999999,499.98008189999996,,,,,499.98018809999985,499.9961713,500.19629659999987,500.1802229,498.6213066999999,,,,,,,,0,1,1.3573112999999921,None,,,,,,,,888,20,M,L,2026-02-23_11h09.44.310,VisualSearch_2526_3,,2025.2.4,2026-02-23 11h09.44.829715 +0100,
vertical.xlsx,The target is tilted.,135,18,2,2,0,1,1,1,0,0,0,0,0,0,0,0,1,3,4,135,space,25.255607900000086,None,0,1,0.8304379999999583,None,space,3.0420343000000685,None,0,1,1,1,,,,,2,2,18,6,500.19629659999987,,,,,,,,,,,,,,,,,,,,,500.1809493999999,500.19629659999987,500.6799845999999,500.6843908999999,500.6997661999999,501.54714650000005,,,,,501.5473646999999,501.5629325,501.7628588,501.74659700000007,500.6997661999999,,,,,,,,0,1,0.8304379999999583,None,,,,,,,,888,20,M,L,2026-02-23_11h09.44.310,VisualSearch_2526_3,,2025.2.4,2026-02-23 11h09.44.829715 +0100,
vertical.xlsx,The target is tilted.,135,19,3,2,1,1,1,1,0,0,0,0,0,0,0,0,0,3,4,135,space,25.255607900000086,None,1,1,0.5812221000001045,None,space,3.0420343000000685,None,0,1,1,1,,,,,2,3,19,2,501.7628588,,,,,,,,,,,,,,,,,,,,,501.74741990000007,501.7628588,502.2460111999999,502.2503947,502.2667690999999,502.8620776999999,,,,,502.8622384,502.878234,503.07830979999994,503.0621546,502.2667690999999,,,,,,,,1,1,0.5812221000001045,None,,,,,,,,888,20,M,L,2026-02-23_11h09.44.310,VisualSearch_2526_3,,2025.2.4,2026-02-23 11h09.44.829715 +0100,
vertical.xlsx,The target is tilted.,135,20,4,2,0,0,0,0,0,0,0,0,0,0,0,0,1,1,1,135,space,25.255607900000086,None,0,1,0.6436756999999034,None,space,3.0420343000000685,None,0,1,1,1,,,,,2,4,20,7,503.07830979999994,,,,,,,,,,,,,,,,,,,,,503.06290820000004,503.07830979999994,503.56182739999986,503.56488279999985,503.57802560000005,504.22910639999986,,,,,504.2292640999999,504.24490130000004,504.4448794,504.42872220000004,503.57802560000005,,,,,,,,0,1,0.6436756999999034,None,,,,,,,,888,20,M,L,2026-02-23_11h09.44.310,VisualSearch_2526_3,,2025.2.4,2026-02-23 11h09.44.829715 +0100,
vertical.xlsx,The target is tilted.,135,21,5,2,0,1,1,1,1,1,1,1,1,1,1,1,1,11,12,135,space,25.255607900000086,None,0,1,1.699026300000014,None,space,3.0420343000000685,None,0,1,1,1,,,,,2,5,21,4,504.4448794,,,,,,,,,,,,,,,,,,,,,504.42942960000005,504.4448794,504.9284528999999,504.9329708,504.94855659999985,506.66067509999993,,,,,506.6608414,506.67665710000006,506.8766174,506.8609827999999,504.94855659999985,,,,,,,,0,1,1.699026300000014,None,,,,,,,,888,20,M,L,2026-02-23_11h09.44.310,VisualSearch_2526_3,,2025.2.4,2026-02-23 11h09.44.829715 +0100,
vertical.xlsx,The target is tilted.,135,22,6,2,1,1,1,1,1,1,1,1,0,0,0,0,0,7,8,135,space,25.255607900000086,None,0,0,1.0289975000000595,None,space,3.0420343000000685,None,0,1,1,1,,,,,2,6,22,1,506.8766174,,,,,,,,,,,,,,,,,,,,,506.8617207,506.8766174,507.35972190000007,507.36156370000003,507.3762360999999,508.4097955,,,,,508.40989949999994,508.42589509999993,508.62565629999995,508.60945990000005,507.3762360999999,,,,,,,,0,0,1.0289975000000595,None,,,,,,,,888,20,M,L,2026-02-23_11h09.44.310,VisualSearch_2526_3,,2025.2.4,2026-02-23 11h09.44.829715 +0100,
vertical.xlsx,The target is tilted.,135,23,7,2,1,0,0,0,0,0,0,0,0,0,0,0,0,0,1,135,space,25.255607900000086,None,1,1,0.46001879999994344,None,space,3.0420343000000685,None,0,1,1,1,,,,,2,7,23,3,508.62565629999995,,,,,,,,,,,,,,,,,,,,,508.6099623,508.62565629999995,509.10978269999987,509.1128701,509.1261806,509.59261049999986,,,,,509.59274619999997,509.60864649999985,509.80851069999994,509.7923513999999,509.1261806,,,,,,,,1,1,0.46001879999994344,None,,,,,,,,888,20,M,L,2026-02-23_11h09.44.310,VisualSearch_2526_3,,2025.2.4,2026-02-23 11h09.44.829715 +0100,
vertical.xlsx,The target is tilted.,135,24,0,3,1,1,1,1,0,0,0,0,0,0,0,0,0,3,4,135,space,25.255607900000086,None,1,1,0.6035323999999491,None,space,3.0420343000000685,None,0,1,1,1,,,,,3,0,24,2,509.80851069999994,,,,,,,,,,,,,,,,,,,,,509.79316629999994,509.80851069999994,510.29194259999986,510.29491970000004,510.3082701999999,510.92582930000003,,,,,510.9260222999999,510.9413806,511.14129550000007,511.12517589999993,510.3082701999999,,,,,,,,1,1,0.6035323999999491,None,,,,,,,,888,20,M,L,2026-02-23_11h09.44.310,VisualSearch_2526_3,,2025.2.4,2026-02-23 11h09.44.829715 +0100,
vertical.xlsx,The target is tilted.,135,25,1,3,0,1,1,1,1,1,1,1,0,0,0,0,1,7,8,135,space,25.255607900000086,None,0,1,1.0976590000000215,None,space,3.0420343000000685,None,0,1,1,1,,,,,3,1,25,5,511.14129550000007,,,,,,,,,,,,,,,,,,,,,511.1259235,511.14129550000007,511.62478569999985,511.6277981999999,511.64101789999995,512.7419054,,,,,512.7421015,512.7570903999999,512.9572306999999,512.9409943,511.64101789999995,,,,,,,,0,1,1.0976590000000215,None,,,,,,,,888,20,M,L,2026-02-23_11h09.44.310,VisualSearch_2526_3,,2025.2.4,2026-02-23 11h09.44.829715 +0100,
vertical.xlsx,The target is tilted.,135,26,2,3,1,1,1,1,1,1,1,1,0,0,0,0,0,7,8,135,space,25.255607900000086,None,1,1,0.5452362999999423,None,space,3.0420343000000685,None,0,1,1,1,,,,,3,2,26,1,512.9572306999999,,,,,,,,,,,,,,,,,,,,,512.9417725000001,512.9572306999999,513.4407283999999,513.4451417,513.4626581999999,514.0241271,,,,,514.0242793,514.039859,514.2396105999999,514.2236949,513.4626581999999,,,,,,,,1,1,0.5452362999999423,None,,,,,,,,888,20,M,L,2026-02-23_11h09.44.310,VisualSearch_2526_3,,2025.2.4,2026-02-23 11h09.44.829715 +0100,
vertical.xlsx,The target is tilted.,135,27,3,3,0,0,0,0,0,0,0,0,0,0,0,0,1,1,1,135,space,25.255607900000086,None,0,1,0.7271981999999753,None,space,3.0420343000000685,None,0,1,1,1,,,,,3,3,27,7,514.2396105999999,,,,,,,,,,,,,,,,,,,,,514.2243000999999,514.2396105999999,514.7231996,514.7250638,514.7394967999999,515.4733827,,,,,515.4735097999999,515.4893826,515.6892401,515.6733687999999,514.7394967999999,,,,,,,,0,1,0.7271981999999753,None,,,,,,,,888,20,M,L,2026-02-23_11h09.44.310,VisualSearch_2526_3,,2025.2.4,2026-02-23 11h09.44.829715 +0100,
vertical.xlsx,The target is tilted.,135,28,4,3,0,1,1,1,0,0,0,0,0,0,0,0,1,3,4,135,space,25.255607900000086,None,0,1,1.0937509000000318,None,space,3.0420343000000685,None,0,1,1,1,,,,,3,4,28,6,515.6892401,,,,,,,,,,,,,,,,,,,,,515.6741216999999,515.6892401,516.1731589999999,516.1762758,516.1888179,517.2895642999999,,,,,517.2897599999999,517.3050195999999,517.5050156,517.4890312999999,516.1888179,,,,,,,,0,1,1.0937509000000318,None,,,,,,,,888,20,M,L,2026-02-23_11h09.44.310,VisualSearch_2526_3,,2025.2.4,2026-02-23 11h09.44.829715 +0100,
vertical.xlsx,The target is tilted.,135,29,5,3,1,0,0,0,0,0,0,0,0,0,0,0,0,0,1,135,space,25.255607900000086,None,1,1,0.4484658000001218,None,space,3.0420343000000685,None,0,1,1,1,,,,,3,5,29,3,517.5050156,,,,,,,,,,,,,,,,,,,,,517.4898751999999,517.5050156,517.9887002999999,517.9941919999999,518.0116513999999,518.4723412999999,,,,,518.4725354,518.487987,518.6878532000001,518.6717417,518.0116513999999,,,,,,,,1,1,0.4484658000001218,None,,,,,,,,888,20,M,L,2026-02-23_11h09.44.310,VisualSearch_2526_3,,2025.2.4,2026-02-23 11h09.44.829715 +0100,
vertical.xlsx,The target is tilted.,135,30,6,3,0,1,1,1,1,1,1,1,1,1,1,1,1,11,12,135,space,25.255607900000086,None,0,1,1.3926681000000372,None,space,3.0420343000000685,None,0,1,1,1,,,,,3,6,30,4,518.6878532000001,,,,,,,,,,,,,,,,,,,,,518.6725732,518.6878532000001,519.1718713999999,519.176878,519.1941365999999,520.5885871999999,,,,,520.5887816,520.6041467999999,520.8038056,520.7876443,519.1941365999999,,,,,,,,0,1,1.3926681000000372,None,,,,,,,,888,20,M,L,2026-02-23_11h09.44.310,VisualSearch_2526_3,,2025.2.4,2026-02-23 11h09.44.829715 +0100,
vertical.xlsx,The target is tilted.,135,31,7,3,1,1,1,1,1,1,1,1,1,1,1,1,0,11,12,135,space,25.255607900000086,None,1,1,0.5480795999999373,None,space,3.0420343000000685,None,0,1,1,1,,,,,3,7,31,0,520.8038056,,,,,,,,,,,,,,,,,,,,,520.7883471999999,520.8038056,521.2867635,521.2891061,521.3036073999999,521.8543305000001,,,,,521.8545282,521.8702117,522.0695693,522.0533532,521.3036073999999,,,,,,,,1,1,0.5480795999999373,None,,,,,,,,888,20,M,L,2026-02-23_11h09.44.310,VisualSearch_2526_3,,2025.2.4,2026-02-23 11h09.44.829715 +0100,
vertical.xlsx,The target is tilted.,135,32,0,4,0,1,1,1,1,1,1,1,0,0,0,0,1,7,8,135,space,25.255607900000086,None,0,1,1.2921410999999807,None,space,3.0420343000000685,None,0,1,1,1,,,,,4,0,32,5,522.0695693,,,,,,,,,,,,,,,,,,,,,522.0538801999999,522.0695693,522.5534918999999,522.5586997999999,522.576701,523.8700348,,,,,523.8702323999998,523.8857932999999,524.0853755,524.0687794,522.576701,,,,,,,,0,1,1.2921410999999807,None,,,,,,,,888,20,M,L,2026-02-23_11h09.44.310,VisualSearch_2526_3,,2025.2.4,2026-02-23 11h09.44.829715 +0100,
vertical.xlsx,The target is tilted.,135,33,1,4,0,1,1,1,0,0,0,0,0,0,0,0,1,3,4,135,space,25.255607900000086,None,0,1,0.7525256999999783,None,space,3.0420343000000685,None,0,1,1,1,,,,,4,1,33,6,524.0853755,,,,,,,,,,,,,,,,,,,,,524.0691239999999,524.0853755,524.5690368,524.5734651,524.5906439,525.3526552999999,,,,,525.3528480999998,525.3687187999999,525.5686481999999,525.5526365999999,524.5906439,,,,,,,,0,1,0.7525256999999783,None,,,,,,,,888,20,M,L,2026-02-23_11h09.44.310,VisualSearch_2526_3,,2025.2.4,2026-02-23 11h09.44.829715 +0100,
vertical.xlsx,The target is tilted.,135,34,2,4,1,1,1,1,0,0,0,0,0,0,0,0,0,3,4,135,space,25.255607900000086,None,1,1,0.6294447000000218,None,space,3.0420343000000685,None,0,1,1,1,,,,,4,2,34,2,525.5686481999999,,,,,,,,,,,,,,,,,,,,,525.5535052,525.5686481999999,526.0520257999999,526.0573004,526.0762129,526.7186936999999,,,,,526.7188893999999,526.7342214,526.9344107,526.9186769999999,526.0762129,,,,,,,,1,1,0.6294447000000218,None,,,,,,,,888,20,M,L,2026-02-23_11h09.44.310,VisualSearch_2526_3,,2025.2.4,2026-02-23 11h09.44.829715 +0100,
vertical.xlsx,The target is tilted.,135,35,3,4,1,1,1,1,1,1,1,1,1,1,1,1,0,11,12,135,space,25.255607900000086,None,1,1,0.6435854999999719,None,space,3.0420343000000685,None,0,1,1,1,,,,,4,3,35,0,526.9344107,,,,,,,,,,,,,,,,,,,,,526.9194722,526.9344107,527.4176838999999,527.4220874999999,527.4376095999999,528.0839587999999,,,,,528.0840698,528.1001962,528.3001155,528.2838944999999,527.4376095999999,,,,,,,,1,1,0.6435854999999719,None,,,,,,,,888,20,M,L,2026-02-23_11h09.44.310,VisualSearch_2526_3,,2025.2.4,2026-02-23 11h09.44.829715 +0100,
vertical.xlsx,The target is tilted.,135,36,4,4,1,1,1,1,1,1,1,1,0,0,0,0,0,7,8,135,space,25.255607900000086,None,1,1,1.2732852000001458,None,space,3.0420343000000685,None,0,1,1,1,,,,,4,4,36,1,528.3001155,,,,,,,,,,,,,,,,,,,,,528.2845775999999,528.3001155,528.7838615000001,528.7882652000001,528.8020713999999,530.0841814999999,,,,,530.084376,530.0997275,530.2997883999999,530.2832091999999,528.8020713999999,,,,,,,,1,1,1.2732852000001458,None,,,,,,,,888,20,M,L,2026-02-23_11h09.44.310,VisualSearch_2526_3,,2025.2.4,2026-02-23 11h09.44.829715 +0100,
vertical.xlsx,The target is tilted.,135,37,5,4,0,1,1,1,1,1,1,1,1,1,1,1,1,11,12,135,space,25.255607900000086,None,0,1,1.7786118000001352,None,space,3.0420343000000685,None,0,1,1,1,,,,,4,5,37,4,530.2997883999999,,,,,,,,,,,,,,,,,,,,,530.2839253,530.2997883999999,530.7837003,530.7887424999999,530.8064927,532.5993905,,,,,532.5995849999999,532.6149484,532.8148265,532.7986785999999,530.8064927,,,,,,,,0,1,1.7786118000001352,None,,,,,,,,888,20,M,L,2026-02-23_11h09.44.310,VisualSearch_2526_3,,2025.2.4,2026-02-23 11h09.44.829715 +0100,
