file_name,block_instructions,target_example,thisN,thisTrialN,thisRepN,target_presence,opacity_1,opacity_2,opacity_3,opacity_4,opacity_5,opacity_6,opacity_7,opacity_8,opacity_9,opacity_10,opacity_11,opacity_12,n_distract,n_items,target_ori,key_resp_4.keys,key_resp_4.rt,key_resp_4.duration,key_resp.keys,key_resp.corr,key_resp.rt,key_resp.duration,key_resp_5.keys,key_resp_5.rt,key_resp_5.duration,blocks.thisRepN,blocks.thisTrialN,blocks.thisN,blocks.thisIndex,practice_trials.thisRepN,practice_trials.thisTrialN,practice_trials.thisN,practice_trials.thisIndex,trials.thisRepN,trials.thisTrialN,trials.thisN,trials.thisIndex,thisRow.t,notes,Welcome.started,WelcomeText.started,key_resp_2.started,Welcome.stopped,key_resp_2.keys,key_resp_2.rt,key_resp_2.duration,InformedConsent.started,text_4.started,InformedConsent.stopped,key_resp_6.keys,key_resp_6.rt,key_resp_6.duration,key_resp_4.started,example_target.started,text_3.started,blocks.key_resp_4.keys,blocks.key_resp_4.rt,blocks.key_resp_4.duration,FixCross.started,fixCross.started,FixCross.stopped,Stimulus.started,key_resp.started,Stimulus.stopped,practice_trials.key_resp.keys,practice_trials.key_resp.corr,practice_trials.key_resp.rt,practice_trials.key_resp.duration,BlankScreen.started,text.started,text.stopped,BlankScreen.stopped,fixCross.stopped,ExperimentStart.started,text_2.started,key_resp_5.started,ExperimentStart.stopped,blocks.key_resp_5.keys,blocks.key_resp_5.rt,blocks.key_resp_5.duration,trials.key_resp.keys,trials.key_resp.corr,trials.key_resp.rt,trials.key_resp.duration,Thanks.started,ThankYou.started,key_resp_3.started,Thanks.stopped,key_resp_3.keys,key_resp_3.rt,key_resp_3.duration,participant,leeftijd,gender,links/rechtshandig,date,expName,expVersion,psychopyVersion,expStart,
,,,,,,,,,,,,,,,,,,,,,,,,,,,,,,,,,,,,,,,,,,,,,,0.026978999999300868,0.05526620000000548,0.05526620000000548,34.75248169999941,space,34.685500599999614,None,,,,,,,,,,,,,,,,,,,,,,,,,,,,,,,,,,,,,,,,,,,,,,889,20,M,R,2026-02-25_12h17.33.098,VisualSearch_2526_3,,2025.2.4,2026-02-25 12h17.33.307534 +0100,
,,,,,,,,,,,,,,,,,,,,,,,,,,,,,,,,,,,,,,,,,,,,,,,,,,,,,34.75258699999995,34.75935009999921,38.45889399999942,y,3.6977954999993017,None,,,,,,,,,,,,,,,,,,,,,,,,,,,,,,,,,,,,,,,,889,20,M,R,2026-02-25_12h17.33.098,VisualSearch_2526_3,,2025.2.4,2026-02-25 12h17.33.307534 +0100,
tilted.xlsx,The target is tilted.,117,0,0,0,0,1,1,1,1,1,1,1,0,0,0,0,1,7,8,117,space,5.95992219999971,None,1,0,1.8068124000001262,None,,,,0,0,0,0,0,0,0,5,,,,,44.50374169999941,,,,,,,,,,,,,,,38.502731599999606,38.502731599999606,38.502731599999606,space,5.95992219999971,None,44.49783269999989,44.50374169999941,44.98783669999921,44.9926018999995,45.008307799999784,46.821391599999515,1,0,1.8068124000001262,None,46.8215825999996,46.83684119999998,47.036880499999825,47.02082919999975,,,,,,,,,,,,,,,,,,,,889,20,M,R,2026-02-25_12h17.33.098,VisualSearch_2526_3,,2025.2.4,2026-02-25 12h17.33.307534 +0100,
tilted.xlsx,The target is tilted.,117,1,1,0,0,1,1,1,0,0,0,0,0,0,0,0,1,3,4,117,space,5.95992219999971,None,0,1,2.6264978999997766,None,,,,0,0,0,0,0,1,1,6,,,,,47.036880499999825,,,,,,,,,,,,,,,,,,,,,47.021582399999716,47.036880499999825,47.5202534,47.52481969999917,47.54073479999988,50.16999989999931,0,1,2.6264978999997766,None,50.170190799999546,50.185237400000005,50.385348099999646,50.36928679999983,47.54073479999988,,,,,,,,,,,,,,,,,,,889,20,M,R,2026-02-25_12h17.33.098,VisualSearch_2526_3,,2025.2.4,2026-02-25 12h17.33.307534 +0100,
tilted.xlsx,The target is tilted.,117,2,2,0,1,0,0,0,0,0,0,0,0,0,0,0,0,0,1,117,space,5.95992219999971,None,1,1,0.5444078999998965,None,,,,0,0,0,0,0,2,2,3,,,,,50.385348099999646,,,,,,,,,,,,,,,,,,,,,50.36993219999931,50.385348099999646,50.86887589999969,50.873450899999625,50.88867309999932,51.436051799999404,1,1,0.5444078999998965,None,51.43627889999971,51.45100199999979,51.651553599999716,51.63528889999998,50.88867309999932,,,,,,,,,,,,,,,,,,,889,20,M,R,2026-02-25_12h17.33.098,VisualSearch_2526_3,,2025.2.4,2026-02-25 12h17.33.307534 +0100,
tilted.xlsx,The target is tilted.,117,3,3,0,1,1,1,1,1,1,1,1,0,0,0,0,0,7,8,117,space,5.95992219999971,None,1,1,1.5831001000005926,None,,,,0,0,0,0,0,3,3,1,,,,,51.651553599999716,,,,,,,,,,,,,,,,,,,,,51.63593909999963,51.651553599999716,52.13524319999942,52.13983599999938,52.15640959999928,53.750737299999855,1,1,1.5831001000005926,None,53.75085249999938,53.766516599999704,53.96698639999977,53.95090919999984,52.15640959999928,,,,,,,,,,,,,,,,,,,889,20,M,R,2026-02-25_12h17.33.098,VisualSearch_2526_3,,2025.2.4,2026-02-25 12h17.33.307534 +0100,
tilted.xlsx,The target is tilted.,117,4,4,0,1,1,1,1,1,1,1,1,1,1,1,1,0,11,12,117,space,5.95992219999971,None,1,1,2.1272156000004543,None,,,,0,0,0,0,0,4,4,0,,,,,53.96698639999977,,,,,,,,,,,,,,,,,,,,,53.951624999999694,53.96698639999977,54.45078899999953,54.45535569999993,54.47304329999952,56.616209299999355,1,1,2.1272156000004543,None,56.61640779999925,56.631962999999814,56.83248089999961,56.816164099999696,54.47304329999952,,,,,,,,,,,,,,,,,,,889,20,M,R,2026-02-25_12h17.33.098,VisualSearch_2526_3,,2025.2.4,2026-02-25 12h17.33.307534 +0100,
tilted.xlsx,The target is tilted.,117,5,5,0,1,1,1,1,0,0,0,0,0,0,0,0,0,3,4,117,space,5.95992219999971,None,0,0,1.2965952000004108,None,,,,0,0,0,0,0,5,5,2,,,,,56.83248089999961,,,,,,,,,,,,,,,,,,,,,56.8168698999998,56.83248089999961,57.31613500000003,57.320767799999885,57.33912859999964,58.64812279999933,0,0,1.2965952000004108,None,58.64821109999957,58.66449509999984,,58.848512099999425,57.33912859999964,,,,,,,,,,,,,,,,,,,889,20,M,R,2026-02-25_12h17.33.098,VisualSearch_2526_3,,2025.2.4,2026-02-25 12h17.33.307534 +0100,
tilted.xlsx,The target is tilted.,117,6,6,0,0,0,0,0,0,0,0,0,0,0,0,0,1,1,1,117,space,5.95992219999971,None,0,1,1.1084314999998242,None,,,,0,0,0,0,0,6,6,7,,,,,58.864860799999406,,,,,,,,,,,,,,,,,,,,,58.849197300000014,58.864860799999406,59.34846039999957,59.3531540999993,59.37021939999977,60.481971399999566,0,1,1.1084314999998242,None,60.48217499999919,60.49677079999947,60.69736279999961,60.6812532999993,59.37021939999977,,,,,,,,,,,,,,,,,,,889,20,M,R,2026-02-25_12h17.33.098,VisualSearch_2526_3,,2025.2.4,2026-02-25 12h17.33.307534 +0100,
tilted.xlsx,The target is tilted.,117,7,7,0,0,1,1,1,1,1,1,1,1,1,1,1,1,11,12,117,space,5.95992219999971,None,1,0,3.148743800000375,None,,,,0,0,0,0,0,7,7,4,,,,,60.69736279999961,,,,,,,,,,,,,,,,,,,,,60.68190669999967,60.69736279999961,61.18103379999957,61.185640099999546,61.202264300000024,64.36338929999965,1,0,3.148743800000375,None,64.36356599999999,64.37851809999938,64.57892309999988,64.56285239999943,61.202264300000024,,,,,,,,,,,,,,,,,,,889,20,M,R,2026-02-25_12h17.33.098,VisualSearch_2526_3,,2025.2.4,2026-02-25 12h17.33.307534 +0100,
tilted.xlsx,The target is tilted.,117,0,0,0,1,1,1,1,1,1,1,1,0,0,0,0,0,7,8,117,space,5.95992219999971,None,1,1,1.3850354999995034,None,space,6.662209099999927,None,0,0,0,0,,,,,0,0,0,1,71.27560119999998,,,,,,,,,,,,,,,,,,,,,71.2715105999996,71.27560119999998,71.75926439999967,71.76397429999997,71.78219790000003,73.17588529999921,,,,,73.17609489999995,73.19109369999933,73.39158569999927,73.37509499999942,,64.56980229999954,64.57892309999988,64.57892309999988,71.24349559999973,space,6.662209099999927,None,1,1,1.3850354999995034,None,,,,,,,,889,20,M,R,2026-02-25_12h17.33.098,VisualSearch_2526_3,,2025.2.4,2026-02-25 12h17.33.307534 +0100,
tilted.xlsx,The target is tilted.,117,1,1,0,1,0,0,0,0,0,0,0,0,0,0,0,0,0,1,117,space,5.95992219999971,None,1,1,0.4898059999995894,None,space,6.662209099999927,None,0,0,0,0,,,,,0,1,1,3,73.39158569999927,,,,,,,,,,,,,,,,,,,,,73.37583209999957,73.39158569999927,73.87531679999938,73.87990300000001,73.89637999999923,74.39171979999992,,,,,74.39190469999994,74.40723309999976,74.60760579999987,74.59152670000003,73.89637999999923,,,,,,,,1,1,0.4898059999995894,None,,,,,,,,889,20,M,R,2026-02-25_12h17.33.098,VisualSearch_2526_3,,2025.2.4,2026-02-25 12h17.33.307534 +0100,
tilted.xlsx,The target is tilted.,117,2,2,0,1,1,1,1,1,1,1,1,1,1,1,1,0,11,12,117,space,5.95992219999971,None,1,1,1.2242179000004398,None,space,6.662209099999927,None,0,0,0,0,,,,,0,2,2,0,74.60760579999987,,,,,,,,,,,,,,,,,,,,,74.59228050000002,74.60760579999987,75.09124059999976,75.09590069999922,75.11337149999963,76.34096729999965,,,,,76.34116779999931,76.3563181999998,76.55659449999985,76.54039339999963,75.11337149999963,,,,,,,,1,1,1.2242179000004398,None,,,,,,,,889,20,M,R,2026-02-25_12h17.33.098,VisualSearch_2526_3,,2025.2.4,2026-02-25 12h17.33.307534 +0100,
tilted.xlsx,The target is tilted.,117,3,3,0,0,1,1,1,1,1,1,1,1,1,1,1,1,11,12,117,space,5.95992219999971,None,0,1,2.6160335000004125,None,space,6.662209099999927,None,0,0,0,0,,,,,0,3,3,4,76.55659449999985,,,,,,,,,,,,,,,,,,,,,76.54125299999941,76.55659449999985,77.0405224999995,77.04539729999942,77.0619487999993,79.6901054,,,,,79.6903026,79.7047677999999,79.90494139999919,79.88923339999928,77.0619487999993,,,,,,,,0,1,2.6160335000004125,None,,,,,,,,889,20,M,R,2026-02-25_12h17.33.098,VisualSearch_2526_3,,2025.2.4,2026-02-25 12h17.33.307534 +0100,
tilted.xlsx,The target is tilted.,117,4,4,0,0,1,1,1,0,0,0,0,0,0,0,0,1,3,4,117,space,5.95992219999971,None,0,1,0.9648937000001752,None,space,6.662209099999927,None,0,0,0,0,,,,,0,4,4,6,79.90494139999919,,,,,,,,,,,,,,,,,,,,,79.88997849999942,79.90494139999919,80.38896889999978,80.3936334,80.41047499999968,81.38829209999949,,,,,81.38849199999913,81.40397839999969,81.60426589999952,81.58760929999971,80.41047499999968,,,,,,,,0,1,0.9648937000001752,None,,,,,,,,889,20,M,R,2026-02-25_12h17.33.098,VisualSearch_2526_3,,2025.2.4,2026-02-25 12h17.33.307534 +0100,
tilted.xlsx,The target is tilted.,117,5,5,0,0,1,1,1,1,1,1,1,0,0,0,0,1,7,8,117,space,5.95992219999971,None,0,1,2.0304590999994616,None,space,6.662209099999927,None,0,0,0,0,,,,,0,5,5,5,81.60426589999952,,,,,,,,,,,,,,,,,,,,,81.58798899999965,81.60426589999952,82.08779459999914,82.09240099999988,82.10822999999982,84.1535888999997,,,,,84.15376989999913,84.16941609999958,84.36986139999954,84.35375929999918,82.10822999999982,,,,,,,,0,1,2.0304590999994616,None,,,,,,,,889,20,M,R,2026-02-25_12h17.33.098,VisualSearch_2526_3,,2025.2.4,2026-02-25 12h17.33.307534 +0100,
tilted.xlsx,The target is tilted.,117,6,6,0,1,1,1,1,0,0,0,0,0,0,0,0,0,3,4,117,space,5.95992219999971,None,1,1,0.7291318999996292,None,space,6.662209099999927,None,0,0,0,0,,,,,0,6,6,2,84.36986139999954,,,,,,,,,,,,,,,,,,,,,84.35449729999982,84.36986139999954,84.85323769999923,84.85784299999978,84.87443749999966,85.61977369999931,,,,,85.62001209999926,85.6354440999994,85.83556789999966,85.81980769999973,84.87443749999966,,,,,,,,1,1,0.7291318999996292,None,,,,,,,,889,20,M,R,2026-02-25_12h17.33.098,VisualSearch_2526_3,,2025.2.4,2026-02-25 12h17.33.307534 +0100,
tilted.xlsx,The target is tilted.,117,7,7,0,0,0,0,0,0,0,0,0,0,0,0,0,1,1,1,117,space,5.95992219999971,None,0,1,0.5789167000002635,None,space,6.662209099999927,None,0,0,0,0,,,,,0,7,7,7,85.83556789999966,,,,,,,,,,,,,,,,,,,,,85.82052179999937,85.83556789999966,86.31950589999997,86.32408829999986,86.34227339999961,86.93582679999963,,,,,86.93604039999991,86.95144439999967,87.15193219999946,87.13561739999932,86.34227339999961,,,,,,,,0,1,0.5789167000002635,None,,,,,,,,889,20,M,R,2026-02-25_12h17.33.098,VisualSearch_2526_3,,2025.2.4,2026-02-25 12h17.33.307534 +0100,
tilted.xlsx,The target is tilted.,117,8,0,1,1,1,1,1,1,1,1,1,0,0,0,0,0,7,8,117,space,5.95992219999971,None,1,1,1.2504561999994621,None,space,6.662209099999927,None,0,0,0,0,,,,,1,0,8,1,87.15193219999946,,,,,,,,,,,,,,,,,,,,,87.13639619999958,87.15193219999946,87.63536619999923,87.64005539999926,87.65809929999978,88.91902419999951,,,,,88.91924189999918,88.93396709999979,89.13441649999913,89.11830819999977,87.65809929999978,,,,,,,,1,1,1.2504561999994621,None,,,,,,,,889,20,M,R,2026-02-25_12h17.33.098,VisualSearch_2526_3,,2025.2.4,2026-02-25 12h17.33.307534 +0100,
tilted.xlsx,The target is tilted.,117,9,1,1,1,1,1,1,1,1,1,1,1,1,1,1,0,11,12,117,space,5.95992219999971,None,0,0,2.30173829999967,None,space,6.662209099999927,None,0,0,0,0,,,,,1,1,9,0,89.13441649999913,,,,,,,,,,,,,,,,,,,,,89.11901929999931,89.13441649999913,89.61798089999957,89.62214139999924,89.63471319999917,91.95011049999994,,,,,91.95032259999971,91.9658245999999,92.1663624999992,92.15027439999994,89.63471319999917,,,,,,,,0,0,2.30173829999967,None,,,,,,,,889,20,M,R,2026-02-25_12h17.33.098,VisualSearch_2526_3,,2025.2.4,2026-02-25 12h17.33.307534 +0100,
tilted.xlsx,The target is tilted.,117,10,2,1,0,0,0,0,0,0,0,0,0,0,0,0,1,1,1,117,space,5.95992219999971,None,0,1,0.5519047999996474,None,space,6.662209099999927,None,0,0,0,0,,,,,1,2,10,7,92.1663624999992,,,,,,,,,,,,,,,,,,,,,92.1509901999998,92.1663624999992,92.64995369999997,92.65458269999999,92.67175839999982,93.23372089999975,,,,,93.23393699999997,93.24862229999962,93.44907079999939,93.43299119999938,92.67175839999982,,,,,,,,0,1,0.5519047999996474,None,,,,,,,,889,20,M,R,2026-02-25_12h17.33.098,VisualSearch_2526_3,,2025.2.4,2026-02-25 12h17.33.307534 +0100,
tilted.xlsx,The target is tilted.,117,11,3,1,0,1,1,1,1,1,1,1,1,1,1,1,1,11,12,117,space,5.95992219999971,None,1,0,1.8640556999998807,None,space,6.662209099999927,None,0,0,0,0,,,,,1,3,11,4,93.44907079999939,,,,,,,,,,,,,,,,,,,,,93.43369949999942,93.44907079999939,93.93279509999957,93.93742039999961,93.95372769999994,95.83138579999923,,,,,95.83152569999947,95.84743569999955,96.04791549999936,96.03185989999929,93.95372769999994,,,,,,,,1,0,1.8640556999998807,None,,,,,,,,889,20,M,R,2026-02-25_12h17.33.098,VisualSearch_2526_3,,2025.2.4,2026-02-25 12h17.33.307534 +0100,
tilted.xlsx,The target is tilted.,117,12,4,1,0,1,1,1,0,0,0,0,0,0,0,0,1,3,4,117,space,5.95992219999971,None,0,1,0.7007520999995904,None,space,6.662209099999927,None,0,0,0,0,,,,,1,4,12,6,96.04791549999936,,,,,,,,,,,,,,,,,,,,,96.03256709999914,96.04791549999936,96.53109769999992,96.53584759999922,96.55141819999972,97.26460119999956,,,,,97.26482699999997,97.28016239999943,97.48068149999926,97.4645316999995,96.55141819999972,,,,,,,,0,1,0.7007520999995904,None,,,,,,,,889,20,M,R,2026-02-25_12h17.33.098,VisualSearch_2526_3,,2025.2.4,2026-02-25 12h17.33.307534 +0100,
tilted.xlsx,The target is tilted.,117,13,5,1,0,1,1,1,1,1,1,1,0,0,0,0,1,7,8,117,space,5.95992219999971,None,1,0,0.9847050000007584,None,space,6.662209099999927,None,0,0,0,0,,,,,1,5,13,5,97.48068149999926,,,,,,,,,,,,,,,,,,,,,97.46523559999969,97.48068149999926,97.96431389999998,97.96889259999989,97.98017479999999,98.98018049999973,,,,,98.98037739999927,98.99598669999978,99.1960325,99.17998889999944,97.98017479999999,,,,,,,,1,0,0.9847050000007584,None,,,,,,,,889,20,M,R,2026-02-25_12h17.33.098,VisualSearch_2526_3,,2025.2.4,2026-02-25 12h17.33.307534 +0100,
tilted.xlsx,The target is tilted.,117,14,6,1,1,1,1,1,0,0,0,0,0,0,0,0,0,3,4,117,space,5.95992219999971,None,0,0,0.6433686000000307,None,space,6.662209099999927,None,0,0,0,0,,,,,1,6,14,2,99.1960325,,,,,,,,,,,,,,,,,,,,,99.18074309999975,99.1960325,99.68015139999989,99.68469779999941,99.70042429999921,100.34719419999965,,,,,100.34742749999987,100.3621491999993,100.56254119999994,100.54634549999992,99.70042429999921,,,,,,,,0,0,0.6433686000000307,None,,,,,,,,889,20,M,R,2026-02-25_12h17.33.098,VisualSearch_2526_3,,2025.2.4,2026-02-25 12h17.33.307534 +0100,
tilted.xlsx,The target is tilted.,117,15,7,1,1,0,0,0,0,0,0,0,0,0,0,0,0,0,1,117,space,5.95992219999971,None,1,1,0.6159746000002997,None,space,6.662209099999927,None,0,0,0,0,,,,,1,7,15,3,100.56254119999994,,,,,,,,,,,,,,,,,,,,,100.54707109999981,100.56254119999994,101.04591039999923,101.05058409999947,101.06596889999946,101.6959412999995,,,,,101.6961425999998,101.7115245999994,101.9117856999992,101.89543369999956,101.06596889999946,,,,,,,,1,1,0.6159746000002997,None,,,,,,,,889,20,M,R,2026-02-25_12h17.33.098,VisualSearch_2526_3,,2025.2.4,2026-02-25 12h17.33.307534 +0100,
tilted.xlsx,The target is tilted.,117,16,0,2,0,1,1,1,0,0,0,0,0,0,0,0,1,3,4,117,space,5.95992219999971,None,0,1,0.887744599999678,None,space,6.662209099999927,None,0,0,0,0,,,,,2,0,16,6,101.9117856999992,,,,,,,,,,,,,,,,,,,,,101.8962262999994,101.9117856999992,102.39539239999976,102.4000747,102.41355799999928,103.3120758999994,,,,,103.31227539999963,103.32740889999968,103.5278258999997,103.51176579999992,102.41355799999928,,,,,,,,0,1,0.887744599999678,None,,,,,,,,889,20,M,R,2026-02-25_12h17.33.098,VisualSearch_2526_3,,2025.2.4,2026-02-25 12h17.33.307534 +0100,
tilted.xlsx,The target is tilted.,117,17,1,2,1,1,1,1,1,1,1,1,1,1,1,1,0,11,12,117,space,5.95992219999971,None,1,1,0.9049629999999524,None,space,6.662209099999927,None,0,0,0,0,,,,,2,1,17,0,103.5278258999997,,,,,,,,,,,,,,,,,,,,,103.5125779,103.5278258999997,104.01158359999954,104.01614889999928,104.0322972999993,104.94492229999923,,,,,104.9451197999997,104.95999229999961,105.16047269999945,105.14437539999926,104.0322972999993,,,,,,,,1,1,0.9049629999999524,None,,,,,,,,889,20,M,R,2026-02-25_12h17.33.098,VisualSearch_2526_3,,2025.2.4,2026-02-25 12h17.33.307534 +0100,
tilted.xlsx,The target is tilted.,117,18,2,2,1,0,0,0,0,0,0,0,0,0,0,0,0,0,1,117,space,5.95992219999971,None,1,1,0.5053037999996377,None,space,6.662209099999927,None,0,0,0,0,,,,,2,2,18,3,105.16047269999945,,,,,,,,,,,,,,,,,,,,,105.14508719999958,105.16047269999945,105.64350119999926,105.64548719999948,105.65996409999934,106.17776659999981,,,,,106.17796759999965,106.19271069999922,106.39315349999924,106.37695029999941,105.65996409999934,,,,,,,,1,1,0.5053037999996377,None,,,,,,,,889,20,M,R,2026-02-25_12h17.33.098,VisualSearch_2526_3,,2025.2.4,2026-02-25 12h17.33.307534 +0100,
tilted.xlsx,The target is tilted.,117,19,3,2,0,0,0,0,0,0,0,0,0,0,0,0,1,1,1,117,space,5.95992219999971,None,0,1,0.535852299999533,None,space,6.662209099999927,None,0,0,0,0,,,,,2,3,19,7,106.39315349999924,,,,,,,,,,,,,,,,,,,,,106.37769429999935,106.39315349999924,106.87687669999923,106.88147949999984,106.89899679999962,107.44356059999973,,,,,107.44376299999931,107.4587959999999,107.65926209999998,107.64297499999975,106.89899679999962,,,,,,,,0,1,0.535852299999533,None,,,,,,,,889,20,M,R,2026-02-25_12h17.33.098,VisualSearch_2526_3,,2025.2.4,2026-02-25 12h17.33.307534 +0100,
tilted.xlsx,The target is tilted.,117,20,4,2,1,1,1,1,1,1,1,1,0,0,0,0,0,7,8,117,space,5.95992219999971,None,1,1,1.8754117999997106,None,space,6.662209099999927,None,0,0,0,0,,,,,2,4,20,1,107.65926209999998,,,,,,,,,,,,,,,,,,,,,107.64369679999982,107.65926209999998,108.1430692999993,108.14770019999924,108.16521679999914,110.04259559999991,,,,,110.04279529999985,110.05767969999943,110.25807109999914,110.24205659999916,108.16521679999914,,,,,,,,1,1,1.8754117999997106,None,,,,,,,,889,20,M,R,2026-02-25_12h17.33.098,VisualSearch_2526_3,,2025.2.4,2026-02-25 12h17.33.307534 +0100,
tilted.xlsx,The target is tilted.,117,21,5,2,0,1,1,1,1,1,1,1,0,0,0,0,1,7,8,117,space,5.95992219999971,None,0,1,1.892686600000161,None,space,6.662209099999927,None,0,0,0,0,,,,,2,5,21,5,110.25807109999914,,,,,,,,,,,,,,,,,,,,,110.24283309999919,110.25807109999914,110.74181829999998,110.74650709999969,110.76330879999932,112.65808899999956,,,,,112.65829459999986,112.67311529999915,112.87383609999961,112.8574220999999,110.76330879999932,,,,,,,,0,1,1.892686600000161,None,,,,,,,,889,20,M,R,2026-02-25_12h17.33.098,VisualSearch_2526_3,,2025.2.4,2026-02-25 12h17.33.307534 +0100,
tilted.xlsx,The target is tilted.,117,22,6,2,0,1,1,1,1,1,1,1,1,1,1,1,1,11,12,117,space,5.95992219999971,None,0,1,2.6902343000001565,None,space,6.662209099999927,None,0,0,0,0,,,,,2,6,22,4,112.87383609999961,,,,,,,,,,,,,,,,,,,,,112.85813829999915,112.87383609999961,113.35726699999941,113.36185139999998,113.37810719999925,116.07325270000001,,,,,116.0734552999993,116.0882646,116.28852689999985,116.27285559999928,113.37810719999925,,,,,,,,0,1,2.6902343000001565,None,,,,,,,,889,20,M,R,2026-02-25_12h17.33.098,VisualSearch_2526_3,,2025.2.4,2026-02-25 12h17.33.307534 +0100,
tilted.xlsx,The target is tilted.,117,23,7,2,1,1,1,1,0,0,0,0,0,0,0,0,0,3,4,117,space,5.95992219999971,None,0,0,0.8579239000000598,None,space,6.662209099999927,None,0,0,0,0,,,,,2,7,23,2,116.28852689999985,,,,,,,,,,,,,,,,,,,,,116.2739391999994,116.28852689999985,116.77190379999956,116.77635329999976,116.78839219999918,117.65584529999978,,,,,117.65604279999934,117.6705250999994,117.87134229999992,117.85510649999924,116.78839219999918,,,,,,,,0,0,0.8579239000000598,None,,,,,,,,889,20,M,R,2026-02-25_12h17.33.098,VisualSearch_2526_3,,2025.2.4,2026-02-25 12h17.33.307534 +0100,
tilted.xlsx,The target is tilted.,117,24,0,3,0,0,0,0,0,0,0,0,0,0,0,0,1,1,1,117,space,5.95992219999971,None,0,1,1.16392629999973,None,space,6.662209099999927,None,0,0,0,0,,,,,3,0,24,7,117.87134229999992,,,,,,,,,,,,,,,,,,,,,117.85584889999973,117.87134229999992,118.35465839999961,118.35922349999964,118.3707975999996,119.53837699999985,,,,,119.53861469999993,119.55339279999953,119.7538227999994,119.73769919999995,118.3707975999996,,,,,,,,0,1,1.16392629999973,None,,,,,,,,889,20,M,R,2026-02-25_12h17.33.098,VisualSearch_2526_3,,2025.2.4,2026-02-25 12h17.33.307534 +0100,
tilted.xlsx,The target is tilted.,117,25,1,3,1,0,0,0,0,0,0,0,0,0,0,0,0,0,1,117,space,5.95992219999971,None,1,1,0.5762918000000354,None,space,6.662209099999927,None,0,0,0,0,,,,,3,1,25,3,119.7538227999994,,,,,,,,,,,,,,,,,,,,,119.73851659999946,119.7538227999994,120.23713639999914,120.2417304999999,120.2591853999993,120.83764559999963,,,,,120.83784639999976,120.8526953999999,121.05285430000004,121.03669059999993,120.2591853999993,,,,,,,,1,1,0.5762918000000354,None,,,,,,,,889,20,M,R,2026-02-25_12h17.33.098,VisualSearch_2526_3,,2025.2.4,2026-02-25 12h17.33.307534 +0100,
tilted.xlsx,The target is tilted.,117,26,2,3,1,1,1,1,0,0,0,0,0,0,0,0,0,3,4,117,space,5.95992219999971,None,0,0,0.7087779999992563,None,space,6.662209099999927,None,0,0,0,0,,,,,3,2,26,2,121.05285430000004,,,,,,,,,,,,,,,,,,,,,121.03725549999945,121.05285430000004,121.53680889999941,121.54157899999973,121.5580989,122.27020559999983,,,,,122.27040569999917,122.28541289999976,122.48580719999973,122.46969069999977,121.5580989,,,,,,,,0,0,0.7087779999992563,None,,,,,,,,889,20,M,R,2026-02-25_12h17.33.098,VisualSearch_2526_3,,2025.2.4,2026-02-25 12h17.33.307534 +0100,
tilted.xlsx,The target is tilted.,117,27,3,3,1,1,1,1,1,1,1,1,1,1,1,1,0,11,12,117,space,5.95992219999971,None,0,0,2.267367800000102,None,space,6.662209099999927,None,0,0,0,0,,,,,3,3,27,0,122.48580719999973,,,,,,,,,,,,,,,,,,,,,122.47044639999967,122.48580719999973,122.96957739999925,122.97421349999968,122.99114009999994,125.2690421999996,,,,,125.26924339999914,125.28405699999985,125.48461039999984,125.46834379999927,122.99114009999994,,,,,,,,0,0,2.267367800000102,None,,,,,,,,889,20,M,R,2026-02-25_12h17.33.098,VisualSearch_2526_3,,2025.2.4,2026-02-25 12h17.33.307534 +0100,
tilted.xlsx,The target is tilted.,117,28,4,3,1,1,1,1,1,1,1,1,0,0,0,0,0,7,8,117,space,5.95992219999971,None,1,1,1.0716024000003017,None,space,6.662209099999927,None,0,0,0,0,,,,,3,4,28,1,125.48461039999984,,,,,,,,,,,,,,,,,,,,,125.4691329999996,125.48461039999984,125.9678359999998,125.97245449999991,125.98897339999985,127.06805189999977,,,,,127.06825319999916,127.08322409999982,127.28321619999952,127.26755679999951,125.98897339999985,,,,,,,,1,1,1.0716024000003017,None,,,,,,,,889,20,M,R,2026-02-25_12h17.33.098,VisualSearch_2526_3,,2025.2.4,2026-02-25 12h17.33.307534 +0100,
tilted.xlsx,The target is tilted.,117,29,5,3,0,1,1,1,1,1,1,1,0,0,0,0,1,7,8,117,space,5.95992219999971,None,0,1,1.4354527000004964,None,space,6.662209099999927,None,0,0,0,0,,,,,3,5,29,5,127.28321619999952,,,,,,,,,,,,,,,,,,,,,127.26836869999988,127.28321619999952,127.76722269999937,127.77133859999958,127.78798239999924,129.23338369999965,,,,,129.23354839999956,129.24902889999976,129.44939349999913,129.43329229999927,127.78798239999924,,,,,,,,0,1,1.4354527000004964,None,,,,,,,,889,20,M,R,2026-02-25_12h17.33.098,VisualSearch_2526_3,,2025.2.4,2026-02-25 12h17.33.307534 +0100,
tilted.xlsx,The target is tilted.,117,30,6,3,0,1,1,1,1,1,1,1,1,1,1,1,1,11,12,117,space,5.95992219999971,None,0,1,2.3012092000008124,None,space,6.662209099999927,None,0,0,0,0,,,,,3,6,30,4,129.44939349999913,,,,,,,,,,,,,,,,,,,,,129.43401369999992,129.44939349999913,129.93328259999998,129.93860829999994,129.95505119999962,132.26529349999964,,,,,132.26544560000002,132.2808626999995,132.4813347999998,132.46536339999966,129.95505119999962,,,,,,,,0,1,2.3012092000008124,None,,,,,,,,889,20,M,R,2026-02-25_12h17.33.098,VisualSearch_2526_3,,2025.2.4,2026-02-25 12h17.33.307534 +0100,
tilted.xlsx,The target is tilted.,117,31,7,3,0,1,1,1,0,0,0,0,0,0,0,0,1,3,4,117,space,5.95992219999971,None,0,1,0.6936675000006289,None,space,6.662209099999927,None,0,0,0,0,,,,,3,7,31,6,132.4813347999998,,,,,,,,,,,,,,,,,,,,,132.4660871999995,132.4813347999998,132.9650656999993,132.9697385999998,132.98501419999957,133.68173449999995,,,,,133.6819501,133.69691989999956,133.89730999999938,133.88130789999923,132.98501419999957,,,,,,,,0,1,0.6936675000006289,None,,,,,,,,889,20,M,R,2026-02-25_12h17.33.098,VisualSearch_2526_3,,2025.2.4,2026-02-25 12h17.33.307534 +0100,
tilted.xlsx,The target is tilted.,117,32,0,4,1,1,1,1,1,1,1,1,0,0,0,0,0,7,8,117,space,5.95992219999971,None,1,1,0.6865422000000763,None,space,6.662209099999927,None,0,0,0,0,,,,,4,0,32,1,133.89730999999938,,,,,,,,,,,,,,,,,,,,,133.8820796,133.89730999999938,134.38067589999991,134.38550359999954,134.40400709999994,135.09795329999997,,,,,135.09818989999985,135.11285449999923,135.3133498999996,135.29727689999982,134.40400709999994,,,,,,,,1,1,0.6865422000000763,None,,,,,,,,889,20,M,R,2026-02-25_12h17.33.098,VisualSearch_2526_3,,2025.2.4,2026-02-25 12h17.33.307534 +0100,
tilted.xlsx,The target is tilted.,117,33,1,4,0,0,0,0,0,0,0,0,0,0,0,0,1,1,1,117,space,5.95992219999971,None,0,1,0.5973209000003408,None,space,6.662209099999927,None,0,0,0,0,,,,,4,1,33,7,135.3133498999996,,,,,,,,,,,,,,,,,,,,,135.29799279999952,135.3133498999996,135.79687139999987,135.80148139999983,135.8173171999997,136.42983000000004,,,,,136.4300115999995,136.44562359999964,136.64603799999986,136.6300124999998,135.8173171999997,,,,,,,,0,1,0.5973209000003408,None,,,,,,,,889,20,M,R,2026-02-25_12h17.33.098,VisualSearch_2526_3,,2025.2.4,2026-02-25 12h17.33.307534 +0100,
tilted.xlsx,The target is tilted.,117,34,2,4,0,1,1,1,1,1,1,1,0,0,0,0,1,7,8,117,space,5.95992219999971,None,0,1,2.208929399999761,None,space,6.662209099999927,None,0,0,0,0,,,,,4,2,34,5,136.64603799999986,,,,,,,,,,,,,,,,,,,,,136.6308255999993,136.64603799999986,137.1297872999994,137.1343594,137.15152339999986,139.36247000000003,,,,,139.36267339999995,139.37760339999932,139.5780023999996,139.56163149999975,137.15152339999986,,,,,,,,0,1,2.208929399999761,None,,,,,,,,889,20,M,R,2026-02-25_12h17.33.098,VisualSearch_2526_3,,2025.2.4,2026-02-25 12h17.33.307534 +0100,
tilted.xlsx,The target is tilted.,117,35,3,4,1,1,1,1,0,0,0,0,0,0,0,0,0,3,4,117,space,5.95992219999971,None,1,1,1.1425480000007155,None,space,6.662209099999927,None,0,0,0,0,,,,,4,3,35,2,139.5780023999996,,,,,,,,,,,,,,,,,,,,,139.5623674999997,139.5780023999996,140.06183449999935,140.0663898999992,140.0837144999996,141.22722709999925,,,,,141.22730779999983,141.24361809999937,,141.42752729999938,140.0837144999996,,,,,,,,1,1,1.1425480000007155,None,,,,,,,,889,20,M,R,2026-02-25_12h17.33.098,VisualSearch_2526_3,,2025.2.4,2026-02-25 12h17.33.307534 +0100,
tilted.xlsx,The target is tilted.,117,36,4,4,1,0,0,0,0,0,0,0,0,0,0,0,0,0,1,117,space,5.95992219999971,None,1,1,0.6917643999995562,None,space,6.662209099999927,None,0,0,0,0,,,,,4,4,36,3,141.44351239999924,,,,,,,,,,,,,,,,,,,,,141.4283837999992,141.44351239999924,141.92758479999975,141.93215529999998,141.95080549999966,142.64452239999991,,,,,142.64476549999927,142.65957170000001,142.85999209999954,142.84389009999995,141.95080549999966,,,,,,,,1,1,0.6917643999995562,None,,,,,,,,889,20,M,R,2026-02-25_12h17.33.098,VisualSearch_2526_3,,2025.2.4,2026-02-25 12h17.33.307534 +0100,
tilted.xlsx,The target is tilted.,117,37,5,4,1,1,1,1,1,1,1,1,1,1,1,1,0,11,12,117,space,5.95992219999971,None,1,1,1.3163657000004605,None,space,6.662209099999927,None,0,0,0,0,,,,,4,5,37,0,142.85999209999954,,,,,,,,,,,,,,,,,,,,,142.84465179999916,142.85999209999954,143.34363099999973,143.34834639999917,143.36478279999938,144.6935354999996,,,,,144.69373749999977,144.7085905999993,144.90862909999942,144.89305929999955,143.36478279999938,,,,,,,,1,1,1.3163657000004605,None,,,,,,,,889,20,M,R,2026-02-25_12h17.33.098,VisualSearch_2526_3,,2025.2.4,2026-02-25 12h17.33.307534 +0100,
tilted.xlsx,The target is tilted.,117,38,6,4,0,1,1,1,1,1,1,1,1,1,1,1,1,11,12,117,space,5.95992219999971,None,0,1,2.5509632000002966,None,space,6.662209099999927,None,0,0,0,0,,,,,4,6,38,4,144.90862909999942,,,,,,,,,,,,,,,,,,,,,144.89377259999947,144.90862909999942,145.39270119999946,145.39724299999943,145.4143114999997,147.97535009999956,,,,,147.97555649999958,147.99042439999994,148.19089499999973,148.17466989999957,145.4143114999997,,,,,,,,0,1,2.5509632000002966,None,,,,,,,,889,20,M,R,2026-02-25_12h17.33.098,VisualSearch_2526_3,,2025.2.4,2026-02-25 12h17.33.307534 +0100,
tilted.xlsx,The target is tilted.,117,39,7,4,0,1,1,1,0,0,0,0,0,0,0,0,1,3,4,117,space,5.95992219999971,None,0,1,0.9153272999992623,None,space,6.662209099999927,None,0,0,0,0,,,,,4,7,39,6,148.19089499999973,,,,,,,,,,,,,,,,,,,,,148.17538879999938,148.19089499999973,148.6741476999996,148.67876609999985,148.69403479999983,149.62389379999968,,,,,149.6240871,149.63965019999978,149.84011349999946,149.82401969999955,148.69403479999983,,,,,,,,0,1,0.9153272999992623,None,,,,,,,,889,20,M,R,2026-02-25_12h17.33.098,VisualSearch_2526_3,,2025.2.4,2026-02-25 12h17.33.307534 +0100,
tilted.xlsx,The target is tilted.,117,40,0,5,0,1,1,1,0,0,0,0,0,0,0,0,1,3,4,117,space,5.95992219999971,None,0,1,0.8811049000005369,None,space,6.662209099999927,None,0,0,0,0,,,,,5,0,40,6,149.84011349999946,,,,,,,,,,,,,,,,,,,,,149.82473899999968,149.84011349999946,150.32376899999963,150.32832099999996,150.3436245999992,151.23971139999958,,,,,151.23987659999966,151.25550379999913,151.45596719999958,151.43997209999998,150.3436245999992,,,,,,,,0,1,0.8811049000005369,None,,,,,,,,889,20,M,R,2026-02-25_12h17.33.098,VisualSearch_2526_3,,2025.2.4,2026-02-25 12h17.33.307534 +0100,
tilted.xlsx,The target is tilted.,117,41,1,5,0,1,1,1,1,1,1,1,0,0,0,0,1,7,8,117,space,5.95992219999971,None,0,1,3.2444580999999744,None,space,6.662209099999927,None,0,0,0,0,,,,,5,1,41,5,151.45596719999958,,,,,,,,,,,,,,,,,,,,,151.44074399999954,151.45596719999958,151.93938309999976,151.9439459999994,151.95925519999946,155.20550849999927,,,,,155.20576119999987,155.22044669999923,155.42092309999953,155.40476219999982,151.95925519999946,,,,,,,,0,1,3.2444580999999744,None,,,,,,,,889,20,M,R,2026-02-25_12h17.33.098,VisualSearch_2526_3,,2025.2.4,2026-02-25 12h17.33.307534 +0100,
tilted.xlsx,The target is tilted.,117,42,2,5,1,1,1,1,1,1,1,1,0,0,0,0,0,7,8,117,space,5.95992219999971,None,1,1,0.7480561999991551,None,space,6.662209099999927,None,0,0,0,0,,,,,5,2,42,1,155.42092309999953,,,,,,,,,,,,,,,,,,,,,155.4054784,155.42092309999953,155.90445179999915,155.9090028999999,155.92464989999917,156.68728779999947,,,,,156.68746589999955,156.70306279999932,156.90328839999984,156.88699009999982,155.92464989999917,,,,,,,,1,1,0.7480561999991551,None,,,,,,,,889,20,M,R,2026-02-25_12h17.33.098,VisualSearch_2526_3,,2025.2.4,2026-02-25 12h17.33.307534 +0100,
tilted.xlsx,The target is tilted.,117,43,3,5,0,0,0,0,0,0,0,0,0,0,0,0,1,1,1,117,space,5.95992219999971,None,0,1,1.105563500000244,None,space,6.662209099999927,None,0,0,0,0,,,,,5,3,43,7,156.90328839999984,,,,,,,,,,,,,,,,,,,,,156.88771369999995,156.90328839999984,157.38674079999964,157.39124719999927,157.40331669999978,158.52066149999973,,,,,158.5208733999998,158.53555349999988,158.73600409999926,158.7200129999992,157.40331669999978,,,,,,,,0,1,1.105563500000244,None,,,,,,,,889,20,M,R,2026-02-25_12h17.33.098,VisualSearch_2526_3,,2025.2.4,2026-02-25 12h17.33.307534 +0100,
tilted.xlsx,The target is tilted.,117,44,4,5,1,1,1,1,0,0,0,0,0,0,0,0,0,3,4,117,space,5.95992219999971,None,1,1,0.8569755000007717,None,space,6.662209099999927,None,0,0,0,0,,,,,5,4,44,2,158.73600409999926,,,,,,,,,,,,,,,,,,,,,158.7207432999994,158.73600409999926,159.21971929999927,159.22432559999925,159.2425149999999,160.10289419999935,,,,,160.10309399999915,160.11822799999936,160.3186266999992,160.30245879999984,159.2425149999999,,,,,,,,1,1,0.8569755000007717,None,,,,,,,,889,20,M,R,2026-02-25_12h17.33.098,VisualSearch_2526_3,,2025.2.4,2026-02-25 12h17.33.307534 +0100,
tilted.xlsx,The target is tilted.,117,45,5,5,1,1,1,1,1,1,1,1,1,1,1,1,0,11,12,117,space,5.95992219999971,None,0,0,2.8203774999992675,None,space,6.662209099999927,None,0,0,0,0,,,,,5,5,45,0,160.3186266999992,,,,,,,,,,,,,,,,,,,,,160.30321619999995,160.3186266999992,160.80216239999936,160.80699119999917,160.8239741999996,163.65129230000002,,,,,163.65149309999924,163.6666121999997,163.8667923999992,163.8510022999999,160.8239741999996,,,,,,,,0,0,2.8203774999992675,None,,,,,,,,889,20,M,R,2026-02-25_12h17.33.098,VisualSearch_2526_3,,2025.2.4,2026-02-25 12h17.33.307534 +0100,
tilted.xlsx,The target is tilted.,117,46,6,5,0,1,1,1,1,1,1,1,1,1,1,1,1,11,12,117,space,5.95992219999971,None,0,1,1.9803375999999844,None,space,6.662209099999927,None,0,0,0,0,,,,,5,6,46,4,163.8667923999992,,,,,,,,,,,,,,,,,,,,,163.85171469999932,163.8667923999992,164.35078039999917,164.35543209999923,164.3705818999997,166.36629789999915,,,,,166.36649539999962,166.38201479999952,166.58251669999936,166.56617839999944,164.3705818999997,,,,,,,,0,1,1.9803375999999844,None,,,,,,,,889,20,M,R,2026-02-25_12h17.33.098,VisualSearch_2526_3,,2025.2.4,2026-02-25 12h17.33.307534 +0100,
tilted.xlsx,The target is tilted.,117,47,7,5,1,0,0,0,0,0,0,0,0,0,0,0,0,0,1,117,space,5.95992219999971,None,0,0,0.46120909999990545,None,space,6.662209099999927,None,0,0,0,0,,,,,5,7,47,3,166.58251669999936,,,,,,,,,,,,,,,,,,,,,166.56700249999994,166.58251669999936,167.0658169999997,167.07035449999967,167.08614529999977,167.5497166999994,,,,,167.54991589999918,167.5648255999995,167.7649679999995,167.74907469999926,167.08614529999977,,,,,,,,0,0,0.46120909999990545,None,,,,,,,,889,20,M,R,2026-02-25_12h17.33.098,VisualSearch_2526_3,,2025.2.4,2026-02-25 12h17.33.307534 +0100,
tilted.xlsx,The target is tilted.,117,48,0,6,1,1,1,1,0,0,0,0,0,0,0,0,0,3,4,117,space,5.95992219999971,None,1,1,0.7181878000001234,None,space,6.662209099999927,None,0,0,0,0,,,,,6,0,48,2,167.7649679999995,,,,,,,,,,,,,,,,,,,,,167.74980919999962,167.7649679999995,168.24894969999968,168.2535111999996,168.26854589999948,168.99806479999916,,,,,168.99820409999938,169.01413569999931,169.2143833,169.19821489999958,168.26854589999948,,,,,,,,1,1,0.7181878000001234,None,,,,,,,,889,20,M,R,2026-02-25_12h17.33.098,VisualSearch_2526_3,,2025.2.4,2026-02-25 12h17.33.307534 +0100,
tilted.xlsx,The target is tilted.,117,49,1,6,0,1,1,1,1,1,1,1,1,1,1,1,1,11,12,117,space,5.95992219999971,None,0,1,2.357420600000296,None,space,6.662209099999927,None,0,0,0,0,,,,,6,1,49,4,169.2143833,,,,,,,,,,,,,,,,,,,,,169.19899729999997,169.2143833,169.69829279999976,169.70283849999942,169.7160344999993,172.08102429999963,,,,,172.08122419999927,172.09579869999925,172.29645600000003,172.2804516999995,169.7160344999993,,,,,,,,0,1,2.357420600000296,None,,,,,,,,889,20,M,R,2026-02-25_12h17.33.098,VisualSearch_2526_3,,2025.2.4,2026-02-25 12h17.33.307534 +0100,
tilted.xlsx,The target is tilted.,117,50,2,6,1,0,0,0,0,0,0,0,0,0,0,0,0,0,1,117,space,5.95992219999971,None,1,1,0.4869185000006837,None,space,6.662209099999927,None,0,0,0,0,,,,,6,2,50,3,172.29645600000003,,,,,,,,,,,,,,,,,,,,,172.2811643999994,172.29645600000003,172.77994989999934,172.78447079999933,172.8021718,173.29709099999945,,,,,173.29727209999965,173.31217669999933,173.51266469999973,173.49642949999998,172.8021718,,,,,,,,1,1,0.4869185000006837,None,,,,,,,,889,20,M,R,2026-02-25_12h17.33.098,VisualSearch_2526_3,,2025.2.4,2026-02-25 12h17.33.307534 +0100,
tilted.xlsx,The target is tilted.,117,51,3,6,0,0,0,0,0,0,0,0,0,0,0,0,1,1,1,117,space,5.95992219999971,None,0,1,0.588295300000027,None,space,6.662209099999927,None,0,0,0,0,,,,,6,3,51,7,173.51266469999973,,,,,,,,,,,,,,,,,,,,,173.4972659999994,173.51266469999973,173.99615599999925,174.00071239999943,174.01690129999952,174.61297859999922,,,,,174.6131594999997,174.62826189999942,174.82868769999914,174.81264379999993,174.01690129999952,,,,,,,,0,1,0.588295300000027,None,,,,,,,,889,20,M,R,2026-02-25_12h17.33.098,VisualSearch_2526_3,,2025.2.4,2026-02-25 12h17.33.307534 +0100,
tilted.xlsx,The target is tilted.,117,52,4,6,0,1,1,1,1,1,1,1,0,0,0,0,1,7,8,117,space,5.95992219999971,None,1,0,0.8112856999996438,None,space,6.662209099999927,None,0,0,0,0,,,,,6,4,52,5,174.82868769999914,,,,,,,,,,,,,,,,,,,,,174.81335949999993,174.82868769999914,175.31243489999997,175.31696319999992,175.33361249999962,176.1617338999995,,,,,176.16191349999917,176.17754109999987,176.37800369999968,176.36193079999975,175.33361249999962,,,,,,,,1,0,0.8112856999996438,None,,,,,,,,889,20,M,R,2026-02-25_12h17.33.098,VisualSearch_2526_3,,2025.2.4,2026-02-25 12h17.33.307534 +0100,
tilted.xlsx,The target is tilted.,117,53,5,6,1,1,1,1,1,1,1,1,0,0,0,0,0,7,8,117,space,5.95992219999971,None,1,1,1.925765400000273,None,space,6.662209099999927,None,0,0,0,0,,,,,6,5,53,1,176.37800369999968,,,,,,,,,,,,,,,,,,,,,176.36264419999952,176.37800369999968,176.86133249999966,176.86588940000001,176.88253579999946,178.81135379999978,,,,,178.81153929999982,178.8263395999993,179.0266830999999,179.01053929999944,176.88253579999946,,,,,,,,1,1,1.925765400000273,None,,,,,,,,889,20,M,R,2026-02-25_12h17.33.098,VisualSearch_2526_3,,2025.2.4,2026-02-25 12h17.33.307534 +0100,
tilted.xlsx,The target is tilted.,117,54,6,6,1,1,1,1,1,1,1,1,1,1,1,1,0,11,12,117,space,5.95992219999971,None,0,0,1.9020583000001352,None,space,6.662209099999927,None,0,0,0,0,,,,,6,6,54,0,179.0266830999999,,,,,,,,,,,,,,,,,,,,,179.01128319999953,179.0266830999999,179.51046549999955,179.5150326999992,179.53221479999957,181.44348909999917,,,,,181.4436885999994,181.4586303999995,181.65897039999982,181.64294249999966,179.53221479999957,,,,,,,,0,0,1.9020583000001352,None,,,,,,,,889,20,M,R,2026-02-25_12h17.33.098,VisualSearch_2526_3,,2025.2.4,2026-02-25 12h17.33.307534 +0100,
tilted.xlsx,The target is tilted.,117,55,7,6,0,1,1,1,0,0,0,0,0,0,0,0,1,3,4,117,space,5.95992219999971,None,0,1,0.639780299999984,None,space,6.662209099999927,None,0,0,0,0,,,,,6,7,55,6,181.65897039999982,,,,,,,,,,,,,,,,,,,,,181.6437049999995,181.65897039999982,182.14248009999937,182.14703969999937,182.1640951999998,182.80950829999983,,,,,182.80972199999997,182.82456079999974,183.02486419999968,183.0084371999992,182.1640951999998,,,,,,,,0,1,0.639780299999984,None,,,,,,,,889,20,M,R,2026-02-25_12h17.33.098,VisualSearch_2526_3,,2025.2.4,2026-02-25 12h17.33.307534 +0100,
tilted.xlsx,The target is tilted.,117,56,0,7,1,1,1,1,1,1,1,1,1,1,1,1,0,11,12,117,space,5.95992219999971,None,1,1,0.940076500000032,None,space,6.662209099999927,None,0,0,0,0,,,,,7,0,56,0,183.02486419999968,,,,,,,,,,,,,,,,,,,,,183.00916419999976,183.02486419999968,183.50829469999917,183.51261739999973,183.52398969999922,184.47540319999916,,,,,184.47560259999955,184.49045539999952,184.69093489999977,184.67480459999933,183.52398969999922,,,,,,,,1,1,0.940076500000032,None,,,,,,,,889,20,M,R,2026-02-25_12h17.33.098,VisualSearch_2526_3,,2025.2.4,2026-02-25 12h17.33.307534 +0100,
tilted.xlsx,The target is tilted.,117,57,1,7,1,1,1,1,1,1,1,1,0,0,0,0,0,7,8,117,space,5.95992219999971,None,0,0,2.208075800000188,None,space,6.662209099999927,None,0,0,0,0,,,,,7,1,57,1,184.69093489999977,,,,,,,,,,,,,,,,,,,,,184.6755137,184.69093489999977,185.17471579999983,185.17932569999994,185.19589049999922,187.4072942999992,,,,,187.40749569999934,187.42244429999937,187.62298889999965,187.60621029999947,185.19589049999922,,,,,,,,0,0,2.208075800000188,None,,,,,,,,889,20,M,R,2026-02-25_12h17.33.098,VisualSearch_2526_3,,2025.2.4,2026-02-25 12h17.33.307534 +0100,
tilted.xlsx,The target is tilted.,117,58,2,7,0,1,1,1,0,0,0,0,0,0,0,0,1,3,4,117,space,5.95992219999971,None,0,1,0.6532753000001321,None,space,6.662209099999927,None,0,0,0,0,,,,,7,2,58,6,187.62298889999965,,,,,,,,,,,,,,,,,,,,,187.60695939999914,187.62298889999965,188.10648749999928,188.11114729999917,188.12640769999962,188.78999659999954,,,,,188.7901880999998,188.8051461999994,189.00546099999974,188.9895506999992,188.12640769999962,,,,,,,,0,1,0.6532753000001321,None,,,,,,,,889,20,M,R,2026-02-25_12h17.33.098,VisualSearch_2526_3,,2025.2.4,2026-02-25 12h17.33.307534 +0100,
tilted.xlsx,The target is tilted.,117,59,3,7,0,1,1,1,1,1,1,1,0,0,0,0,1,7,8,117,space,5.95992219999971,None,0,1,1.9378716000001077,None,space,6.662209099999927,None,0,0,0,0,,,,,7,3,59,5,189.00546099999974,,,,,,,,,,,,,,,,,,,,,188.99068259999967,189.00546099999974,189.48886369999946,189.49350969999978,189.51070569999956,191.45551499999965,,,,,191.45571089999976,191.47052239999994,191.67107399999986,191.65503649999937,189.51070569999956,,,,,,,,0,1,1.9378716000001077,None,,,,,,,,889,20,M,R,2026-02-25_12h17.33.098,VisualSearch_2526_3,,2025.2.4,2026-02-25 12h17.33.307534 +0100,
tilted.xlsx,The target is tilted.,117,60,4,7,1,1,1,1,0,0,0,0,0,0,0,0,0,3,4,117,space,5.95992219999971,None,1,1,1.0683695999996417,None,space,6.662209099999927,None,0,0,0,0,,,,,7,4,60,2,191.67107399999986,,,,,,,,,,,,,,,,,,,,,191.65578619999997,191.67107399999986,192.15473989999919,192.15936209999927,192.17573019999963,193.25469919999978,,,,,193.25489339999967,193.26972739999928,193.46989689999918,193.45384829999966,192.17573019999963,,,,,,,,1,1,1.0683695999996417,None,,,,,,,,889,20,M,R,2026-02-25_12h17.33.098,VisualSearch_2526_3,,2025.2.4,2026-02-25 12h17.33.307534 +0100,
tilted.xlsx,The target is tilted.,117,61,5,7,0,0,0,0,0,0,0,0,0,0,0,0,1,1,1,117,space,5.95992219999971,None,0,1,0.6219300000002477,None,space,6.662209099999927,None,0,0,0,0,,,,,7,5,61,7,193.46989689999918,,,,,,,,,,,,,,,,,,,,,193.4545736,193.46989689999918,193.95403069999975,193.9587265,193.97560919999978,194.60352219999913,,,,,194.6036994999995,194.61913539999932,194.8193696999997,194.8032562999997,193.97560919999978,,,,,,,,0,1,0.6219300000002477,None,,,,,,,,889,20,M,R,2026-02-25_12h17.33.098,VisualSearch_2526_3,,2025.2.4,2026-02-25 12h17.33.307534 +0100,
tilted.xlsx,The target is tilted.,117,62,6,7,1,0,0,0,0,0,0,0,0,0,0,0,0,0,1,117,space,5.95992219999971,None,1,1,0.5422006999997393,None,space,6.662209099999927,None,0,0,0,0,,,,,7,6,62,3,194.8193696999997,,,,,,,,,,,,,,,,,,,,,194.80398659999992,194.8193696999997,195.3027665999998,195.30750089999947,195.32433479999963,195.86990849999984,,,,,195.87010079999982,195.88525819999995,196.08555969999998,196.06954609999957,195.32433479999963,,,,,,,,1,1,0.5422006999997393,None,,,,,,,,889,20,M,R,2026-02-25_12h17.33.098,VisualSearch_2526_3,,2025.2.4,2026-02-25 12h17.33.307534 +0100,
tilted.xlsx,The target is tilted.,117,63,7,7,0,1,1,1,1,1,1,1,1,1,1,1,1,11,12,117,space,5.95992219999971,None,0,1,1.7642922000004546,None,space,6.662209099999927,None,0,0,0,0,,,,,7,7,63,4,196.08555969999998,,,,,,,,,,,,,,,,,,,,,196.07027949999974,196.08555969999998,196.56941389999974,196.57399349999923,196.58537089999936,198.35215919999973,,,,,198.35235549999925,198.36749939999936,198.5679016999993,198.55189039999914,196.58537089999936,,,,,,,,0,1,1.7642922000004546,None,,,,,,,,889,20,M,R,2026-02-25_12h17.33.098,VisualSearch_2526_3,,2025.2.4,2026-02-25 12h17.33.307534 +0100,
tilted.xlsx,The target is tilted.,117,64,0,8,0,1,1,1,0,0,0,0,0,0,0,0,1,3,4,117,space,5.95992219999971,None,0,1,0.5761967999997069,None,space,6.662209099999927,None,0,0,0,0,,,,,8,0,64,6,198.5679016999993,,,,,,,,,,,,,,,,,,,,,198.55261339999925,198.5679016999993,199.05114929999945,199.05585599999995,199.07208379999975,199.65158919999976,,,,,199.65178419999938,199.66684299999997,199.8672902999997,199.85123269999985,199.07208379999975,,,,,,,,0,1,0.5761967999997069,None,,,,,,,,889,20,M,R,2026-02-25_12h17.33.098,VisualSearch_2526_3,,2025.2.4,2026-02-25 12h17.33.307534 +0100,
tilted.xlsx,The target is tilted.,117,65,1,8,0,1,1,1,1,1,1,1,1,1,1,1,1,11,12,117,space,5.95992219999971,None,0,1,2.2771418000002086,None,space,6.662209099999927,None,0,0,0,0,,,,,8,1,65,4,199.8672902999997,,,,,,,,,,,,,,,,,,,,,199.85194219999994,199.8672902999997,200.35081529999934,200.35543909999978,200.37354089999917,202.66642869999941,,,,,202.66661339999973,202.68212869999934,202.88244869999926,202.86644139999953,200.37354089999917,,,,,,,,0,1,2.2771418000002086,None,,,,,,,,889,20,M,R,2026-02-25_12h17.33.098,VisualSearch_2526_3,,2025.2.4,2026-02-25 12h17.33.307534 +0100,
tilted.xlsx,The target is tilted.,117,66,2,8,1,0,0,0,0,0,0,0,0,0,0,0,0,0,1,117,space,5.95992219999971,None,1,1,0.5289316999997027,None,space,6.662209099999927,None,0,0,0,0,,,,,8,2,66,3,202.88244869999926,,,,,,,,,,,,,,,,,,,,,202.8672420999992,202.88244869999926,203.3661844999997,203.37075579999964,203.38717569999972,203.93250239999998,,,,,203.93268929999977,203.94823889999952,204.14844209999956,204.13229539999975,203.38717569999972,,,,,,,,1,1,0.5289316999997027,None,,,,,,,,889,20,M,R,2026-02-25_12h17.33.098,VisualSearch_2526_3,,2025.2.4,2026-02-25 12h17.33.307534 +0100,
tilted.xlsx,The target is tilted.,117,67,3,8,1,1,1,1,1,1,1,1,1,1,1,1,0,11,12,117,space,5.95992219999971,None,0,0,2.188498399999844,None,space,6.662209099999927,None,0,0,0,0,,,,,8,3,67,0,204.14844209999956,,,,,,,,,,,,,,,,,,,,,204.13308039999993,204.14844209999956,204.63262939999913,204.63794599999983,204.65402399999948,206.84830039999997,,,,,206.8484982,206.86345419999998,207.06389189999936,207.04731189999984,204.65402399999948,,,,,,,,0,0,2.188498399999844,None,,,,,,,,889,20,M,R,2026-02-25_12h17.33.098,VisualSearch_2526_3,,2025.2.4,2026-02-25 12h17.33.307534 +0100,
tilted.xlsx,The target is tilted.,117,68,4,8,1,1,1,1,1,1,1,1,0,0,0,0,0,7,8,117,space,5.95992219999971,None,1,1,1.077697800000351,None,space,6.662209099999927,None,0,0,0,0,,,,,8,4,68,1,207.06389189999936,,,,,,,,,,,,,,,,,,,,,207.04803699999957,207.06389189999936,207.54774180000004,207.55221749999964,207.56820629999947,208.64763779999976,,,,,208.6478331999997,208.6627886999995,208.86326119999922,208.8470459,207.56820629999947,,,,,,,,1,1,1.077697800000351,None,,,,,,,,889,20,M,R,2026-02-25_12h17.33.098,VisualSearch_2526_3,,2025.2.4,2026-02-25 12h17.33.307534 +0100,
tilted.xlsx,The target is tilted.,117,69,5,8,0,1,1,1,1,1,1,1,0,0,0,0,1,7,8,117,space,5.95992219999971,None,1,0,2.621720899999673,None,space,6.662209099999927,None,0,0,0,0,,,,,8,5,69,5,208.86326119999922,,,,,,,,,,,,,,,,,,,,,208.84778800000004,208.86326119999922,209.3465897999995,209.3511383999994,209.36876529999972,211.99593859999914,,,,,211.9961528999993,212.01123489999918,212.211319,212.19542490000003,209.36876529999972,,,,,,,,1,0,2.621720899999673,None,,,,,,,,889,20,M,R,2026-02-25_12h17.33.098,VisualSearch_2526_3,,2025.2.4,2026-02-25 12h17.33.307534 +0100,
tilted.xlsx,The target is tilted.,117,70,6,8,0,0,0,0,0,0,0,0,0,0,0,0,1,1,1,117,space,5.95992219999971,None,0,1,0.9218111999998655,None,space,6.662209099999927,None,0,0,0,0,,,,,8,6,70,7,212.211319,,,,,,,,,,,,,,,,,,,,,212.19616439999936,212.211319,212.69519579999996,212.69970919999923,212.7164316999997,213.64547049999965,,,,,213.64566659999946,213.66047399999934,213.8609695999994,213.84486259999994,212.7164316999997,,,,,,,,0,1,0.9218111999998655,None,,,,,,,,889,20,M,R,2026-02-25_12h17.33.098,VisualSearch_2526_3,,2025.2.4,2026-02-25 12h17.33.307534 +0100,
tilted.xlsx,The target is tilted.,117,71,7,8,1,1,1,1,0,0,0,0,0,0,0,0,0,3,4,117,space,5.95992219999971,None,0,0,1.4557561000001442,None,space,6.662209099999927,None,0,0,0,0,,,,,8,7,71,2,213.8609695999994,,,,,,,,,,,,,,,,,,,,,213.84557329999916,213.8609695999994,214.3443897999996,214.34808169999997,214.36043119999977,215.8276019999994,,,,,215.8277991999994,215.84280039999976,216.04335739999988,216.0270647999996,214.36043119999977,,,,,,,,0,0,1.4557561000001442,None,,,,,,,,889,20,M,R,2026-02-25_12h17.33.098,VisualSearch_2526_3,,2025.2.4,2026-02-25 12h17.33.307534 +0100,
tilted.xlsx,The target is tilted.,117,72,0,9,0,1,1,1,1,1,1,1,0,0,0,0,1,7,8,117,space,5.95992219999971,None,0,1,2.1478705999998056,None,space,6.662209099999927,None,0,0,0,0,,,,,9,0,72,5,216.04335739999988,,,,,,,,,,,,,,,,,,,,,216.02780089999942,216.04335739999988,216.52688019999914,216.5313374999996,216.54650609999953,218.7091279999995,,,,,218.7093133999997,218.72482499999933,218.92523299999993,218.90903219999927,216.54650609999953,,,,,,,,0,1,2.1478705999998056,None,,,,,,,,889,20,M,R,2026-02-25_12h17.33.098,VisualSearch_2526_3,,2025.2.4,2026-02-25 12h17.33.307534 +0100,
tilted.xlsx,The target is tilted.,117,73,1,9,1,0,0,0,0,0,0,0,0,0,0,0,0,0,1,117,space,5.95992219999971,None,1,1,0.5231603000001996,None,space,6.662209099999927,None,0,0,0,0,,,,,9,1,73,3,218.92523299999993,,,,,,,,,,,,,,,,,,,,,218.90975699999944,218.92523299999993,219.40897979999954,219.41339159999916,219.43157840000003,219.95896769999945,,,,,219.95916059999945,219.97441179999987,220.17475489999924,220.15865219999978,219.43157840000003,,,,,,,,1,1,0.5231603000001996,None,,,,,,,,889,20,M,R,2026-02-25_12h17.33.098,VisualSearch_2526_3,,2025.2.4,2026-02-25 12h17.33.307534 +0100,
tilted.xlsx,The target is tilted.,117,74,2,9,1,1,1,1,1,1,1,1,1,1,1,1,0,11,12,117,space,5.95992219999971,None,0,0,2.8235079999994923,None,space,6.662209099999927,None,0,0,0,0,,,,,9,2,74,0,220.17475489999924,,,,,,,,,,,,,,,,,,,,,220.1593525999997,220.17475489999924,220.65805139999975,220.66265189999922,220.67815849999988,223.5076122999999,,,,,223.5078051999999,223.5226832999997,223.72322299999996,223.7070324999995,220.67815849999988,,,,,,,,0,0,2.8235079999994923,None,,,,,,,,889,20,M,R,2026-02-25_12h17.33.098,VisualSearch_2526_3,,2025.2.4,2026-02-25 12h17.33.307534 +0100,
tilted.xlsx,The target is tilted.,117,75,3,9,1,1,1,1,0,0,0,0,0,0,0,0,0,3,4,117,space,5.95992219999971,None,0,0,0.7710787999994864,None,space,6.662209099999927,None,0,0,0,0,,,,,9,3,75,2,223.72322299999996,,,,,,,,,,,,,,,,,,,,,223.7077393999998,223.72322299999996,224.20664209999995,224.21114039999975,224.22711019999952,225.006985,,,,,225.0071795999993,225.02203369999916,225.22248079999918,225.20619799999986,224.22711019999952,,,,,,,,0,0,0.7710787999994864,None,,,,,,,,889,20,M,R,2026-02-25_12h17.33.098,VisualSearch_2526_3,,2025.2.4,2026-02-25 12h17.33.307534 +0100,
tilted.xlsx,The target is tilted.,117,76,4,9,0,0,0,0,0,0,0,0,0,0,0,0,1,1,1,117,space,5.95992219999971,None,0,1,0.4683631999996578,None,space,6.662209099999927,None,0,0,0,0,,,,,9,4,76,7,225.22248079999918,,,,,,,,,,,,,,,,,,,,,225.20694279999952,225.22248079999918,225.70579019999968,225.71033219999936,225.72660729999916,226.2061137999999,,,,,226.20630379999966,226.22145249999994,226.4218704999994,226.40563359999942,225.72660729999916,,,,,,,,0,1,0.4683631999996578,None,,,,,,,,889,20,M,R,2026-02-25_12h17.33.098,VisualSearch_2526_3,,2025.2.4,2026-02-25 12h17.33.307534 +0100,
tilted.xlsx,The target is tilted.,117,77,5,9,0,1,1,1,1,1,1,1,1,1,1,1,1,11,12,117,space,5.95992219999971,None,0,1,2.2352785999992193,None,space,6.662209099999927,None,0,0,0,0,,,,,9,5,77,4,226.4218704999994,,,,,,,,,,,,,,,,,,,,,226.40639869999995,226.4218704999994,226.90555929999937,226.90999349999947,226.92778799999996,229.17120669999986,,,,,229.17138239999986,229.18672519999927,229.38723200000004,229.37114939999992,226.92778799999996,,,,,,,,0,1,2.2352785999992193,None,,,,,,,,889,20,M,R,2026-02-25_12h17.33.098,VisualSearch_2526_3,,2025.2.4,2026-02-25 12h17.33.307534 +0100,
tilted.xlsx,The target is tilted.,117,78,6,9,0,1,1,1,0,0,0,0,0,0,0,0,1,3,4,117,space,5.95992219999971,None,0,1,1.2956146999995326,None,space,6.662209099999927,None,0,0,0,0,,,,,9,6,78,6,229.38723200000004,,,,,,,,,,,,,,,,,,,,,229.3718747999992,229.38723200000004,229.8709713999997,229.87541949999923,229.89193089999935,231.20300959999986,,,,,231.20315019999998,231.2191574999997,,231.40326879999975,229.89193089999935,,,,,,,,0,1,1.2956146999995326,None,,,,,,,,889,20,M,R,2026-02-25_12h17.33.098,VisualSearch_2526_3,,2025.2.4,2026-02-25 12h17.33.307534 +0100,
tilted.xlsx,The target is tilted.,117,79,7,9,1,1,1,1,1,1,1,1,0,0,0,0,0,7,8,117,space,5.95992219999971,None,1,1,2.07392340000024,None,space,6.662209099999927,None,0,0,0,0,,,,,9,7,79,1,231.41963999999916,,,,,,,,,,,,,,,,,,,,,231.4040301999994,231.41963999999916,231.90335289999985,231.9079583999992,231.92590819999987,234.00288369999998,,,,,234.00308099999984,234.0179275999999,234.2183772999997,234.20224609999968,231.92590819999987,,,,,,,,1,1,2.07392340000024,None,,,,,,,,889,20,M,R,2026-02-25_12h17.33.098,VisualSearch_2526_3,,2025.2.4,2026-02-25 12h17.33.307534 +0100,
tilted.xlsx,The target is tilted.,117,80,0,10,0,1,1,1,0,0,0,0,0,0,0,0,1,3,4,117,space,5.95992219999971,None,0,1,1.0474668999995629,None,space,6.662209099999927,None,0,0,0,0,,,,,10,0,80,6,234.2183772999997,,,,,,,,,,,,,,,,,,,,,234.20295879999958,234.2183772999997,234.70206899999994,234.70660689999931,234.72490239999934,235.78492239999923,,,,,235.7851183999992,235.8003949999993,236.00093649999963,235.98477189999994,234.72490239999934,,,,,,,,0,1,1.0474668999995629,None,,,,,,,,889,20,M,R,2026-02-25_12h17.33.098,VisualSearch_2526_3,,2025.2.4,2026-02-25 12h17.33.307534 +0100,
tilted.xlsx,The target is tilted.,117,81,1,10,0,1,1,1,1,1,1,1,0,0,0,0,1,7,8,117,space,5.95992219999971,None,0,1,1.7692782000003717,None,space,6.662209099999927,None,0,0,0,0,,,,,10,1,81,5,236.00093649999963,,,,,,,,,,,,,,,,,,,,,235.98547699999926,236.00093649999963,236.48459179999918,236.48902559999988,236.50580809999974,238.28401789999953,,,,,238.2841738999996,238.2992803999996,238.4994242999992,238.48364859999947,236.50580809999974,,,,,,,,0,1,1.7692782000003717,None,,,,,,,,889,20,M,R,2026-02-25_12h17.33.098,VisualSearch_2526_3,,2025.2.4,2026-02-25 12h17.33.307534 +0100,
tilted.xlsx,The target is tilted.,117,82,2,10,1,0,0,0,0,0,0,0,0,0,0,0,0,0,1,117,space,5.95992219999971,None,1,1,0.7166433999991568,None,space,6.662209099999927,None,0,0,0,0,,,,,10,2,82,3,238.4994242999992,,,,,,,,,,,,,,,,,,,,,238.48435959999915,238.4994242999992,238.98306539999976,238.98766979999982,239.00463559999935,239.73372539999946,,,,,239.73393029999988,239.74863969999933,239.9490436999995,239.93299279999974,239.00463559999935,,,,,,,,1,1,0.7166433999991568,None,,,,,,,,889,20,M,R,2026-02-25_12h17.33.098,VisualSearch_2526_3,,2025.2.4,2026-02-25 12h17.33.307534 +0100,
tilted.xlsx,The target is tilted.,117,83,3,10,0,0,0,0,0,0,0,0,0,0,0,0,1,1,1,117,space,5.95992219999971,None,0,1,0.5667470000007597,None,space,6.662209099999927,None,0,0,0,0,,,,,10,3,83,7,239.9490436999995,,,,,,,,,,,,,,,,,,,,,239.93369970000003,239.9490436999995,240.43274669999937,240.43722819999948,240.45364759999939,241.03223309999976,,,,,241.0324430999999,241.0480519999992,241.2484685999998,241.23221399999966,240.45364759999939,,,,,,,,0,1,0.5667470000007597,None,,,,,,,,889,20,M,R,2026-02-25_12h17.33.098,VisualSearch_2526_3,,2025.2.4,2026-02-25 12h17.33.307534 +0100,
tilted.xlsx,The target is tilted.,117,84,4,10,1,1,1,1,1,1,1,1,0,0,0,0,0,7,8,117,space,5.95992219999971,None,0,0,2.2324827000002188,None,space,6.662209099999927,None,0,0,0,0,,,,,10,4,84,1,241.2484685999998,,,,,,,,,,,,,,,,,,,,,241.2329250999992,241.2484685999998,241.73218869999982,241.7366581999995,241.75048059999972,243.99817050000001,,,,,243.99835819999953,244.01382769999964,244.2137006999992,244.1976440999997,241.75048059999972,,,,,,,,0,0,2.2324827000002188,None,,,,,,,,889,20,M,R,2026-02-25_12h17.33.098,VisualSearch_2526_3,,2025.2.4,2026-02-25 12h17.33.307534 +0100,
tilted.xlsx,The target is tilted.,117,85,5,10,1,1,1,1,0,0,0,0,0,0,0,0,0,3,4,117,space,5.95992219999971,None,1,1,0.815045000000282,None,space,6.662209099999927,None,0,0,0,0,,,,,10,5,85,2,244.2137006999992,,,,,,,,,,,,,,,,,,,,,244.19835559999956,244.2137006999992,244.69749719999982,244.70197899999948,244.7177490999993,245.54758839999977,,,,,245.54778579999947,245.56320079999932,245.76309330000004,245.74644079999962,244.7177490999993,,,,,,,,1,1,0.815045000000282,None,,,,,,,,889,20,M,R,2026-02-25_12h17.33.098,VisualSearch_2526_3,,2025.2.4,2026-02-25 12h17.33.307534 +0100,
tilted.xlsx,The target is tilted.,117,86,6,10,1,1,1,1,1,1,1,1,1,1,1,1,0,11,12,117,space,5.95992219999971,None,1,1,3.2664480000003095,None,space,6.662209099999927,None,0,0,0,0,,,,,10,6,86,0,245.76309330000004,,,,,,,,,,,,,,,,,,,,,245.7468487999995,245.76309330000004,246.2467133,246.25127599999996,246.26748399999997,249.54586440000003,,,,,249.5466182,249.56134479999946,249.76129439999931,249.7446949999994,246.26748399999997,,,,,,,,1,1,3.2664480000003095,None,,,,,,,,889,20,M,R,2026-02-25_12h17.33.098,VisualSearch_2526_3,,2025.2.4,2026-02-25 12h17.33.307534 +0100,
tilted.xlsx,The target is tilted.,117,87,7,10,0,1,1,1,1,1,1,1,1,1,1,1,1,11,12,117,space,5.95992219999971,None,0,1,2.396516299999348,None,space,6.662209099999927,None,0,0,0,0,,,,,10,7,87,4,249.76129439999931,,,,,,,,,,,,,,,,,,,,,249.74542439999914,249.76129439999931,250.24511359999997,250.24965189999966,250.26085329999933,252.6606452999995,,,,,252.66077889999997,252.67646419999983,252.87646869999935,252.86046929999975,250.26085329999933,,,,,,,,0,1,2.396516299999348,None,,,,,,,,889,20,M,R,2026-02-25_12h17.33.098,VisualSearch_2526_3,,2025.2.4,2026-02-25 12h17.33.307534 +0100,
tilted.xlsx,The target is tilted.,117,88,0,11,0,0,0,0,0,0,0,0,0,0,0,0,1,1,1,117,space,5.95992219999971,None,1,0,0.8449934000000212,None,space,6.662209099999927,None,0,0,0,0,,,,,11,0,88,7,252.87646869999935,,,,,,,,,,,,,,,,,,,,,252.86120269999992,252.87646869999935,253.36013419999927,253.36473129999922,253.38115039999957,254.24317939999946,,,,,254.24335509999946,254.2591984999999,254.4590006999997,254.44313689999944,253.38115039999957,,,,,,,,1,0,0.8449934000000212,None,,,,,,,,889,20,M,R,2026-02-25_12h17.33.098,VisualSearch_2526_3,,2025.2.4,2026-02-25 12h17.33.307534 +0100,
tilted.xlsx,The target is tilted.,117,89,1,11,0,1,1,1,1,1,1,1,0,0,0,0,1,7,8,117,space,5.95992219999971,None,0,1,2.207683999999972,None,space,6.662209099999927,None,0,0,0,0,,,,,11,1,89,5,254.4590006999997,,,,,,,,,,,,,,,,,,,,,254.44388349999917,254.4590006999997,254.9428412999996,254.9474053999993,254.96397249999973,257.17532759999995,,,,,257.17552109999997,257.1911973999995,257.3907406999997,257.37496029999966,254.96397249999973,,,,,,,,0,1,2.207683999999972,None,,,,,,,,889,20,M,R,2026-02-25_12h17.33.098,VisualSearch_2526_3,,2025.2.4,2026-02-25 12h17.33.307534 +0100,
tilted.xlsx,The target is tilted.,117,90,2,11,1,0,0,0,0,0,0,0,0,0,0,0,0,0,1,117,space,5.95992219999971,None,1,1,0.48117739999997866,None,space,6.662209099999927,None,0,0,0,0,,,,,11,2,90,3,257.3907406999997,,,,,,,,,,,,,,,,,,,,,257.3756771999997,257.3907406999997,257.8748416999997,257.8793350999995,257.8958374999993,258.3916372999993,,,,,258.39181049999934,258.4072492999994,258.60721339999964,258.59109069999977,257.8958374999993,,,,,,,,1,1,0.48117739999997866,None,,,,,,,,889,20,M,R,2026-02-25_12h17.33.098,VisualSearch_2526_3,,2025.2.4,2026-02-25 12h17.33.307534 +0100,
tilted.xlsx,The target is tilted.,117,91,3,11,0,1,1,1,0,0,0,0,0,0,0,0,1,3,4,117,space,5.95992219999971,None,0,1,0.8352930999999444,None,space,6.662209099999927,None,0,0,0,0,,,,,11,3,91,6,258.60721339999964,,,,,,,,,,,,,,,,,,,,,258.5918281999993,258.60721339999964,259.0910557999996,259.0955525999998,259.11293939999996,259.9570559999993,,,,,259.95720339999934,259.97313549999944,260.17317619999994,260.1570364999998,259.11293939999996,,,,,,,,0,1,0.8352930999999444,None,,,,,,,,889,20,M,R,2026-02-25_12h17.33.098,VisualSearch_2526_3,,2025.2.4,2026-02-25 12h17.33.307534 +0100,
tilted.xlsx,The target is tilted.,117,92,4,11,1,1,1,1,1,1,1,1,0,0,0,0,0,7,8,117,space,5.95992219999971,None,0,0,1.6090063000001464,None,space,6.662209099999927,None,0,0,0,0,,,,,11,4,92,1,260.17317619999994,,,,,,,,,,,,,,,,,,,,,260.1577456999994,260.17317619999994,260.65686879999976,260.6613559999996,260.67284669999935,262.29001289999997,,,,,262.29021419999935,262.3051734999999,262.50526159999936,262.4890577999995,260.67284669999935,,,,,,,,0,0,1.6090063000001464,None,,,,,,,,889,20,M,R,2026-02-25_12h17.33.098,VisualSearch_2526_3,,2025.2.4,2026-02-25 12h17.33.307534 +0100,
tilted.xlsx,The target is tilted.,117,93,5,11,1,1,1,1,0,0,0,0,0,0,0,0,0,3,4,117,space,5.95992219999971,None,1,1,0.8600984000004246,None,space,6.662209099999927,None,0,0,0,0,,,,,11,5,93,2,262.50526159999936,,,,,,,,,,,,,,,,,,,,,262.4897812999998,262.50526159999936,262.98917599999913,262.99363059999996,263.0117040999994,263.8891262999996,,,,,263.8892989999995,263.9048051999998,264.10484279999946,264.0885352999994,263.0117040999994,,,,,,,,1,1,0.8600984000004246,None,,,,,,,,889,20,M,R,2026-02-25_12h17.33.098,VisualSearch_2526_3,,2025.2.4,2026-02-25 12h17.33.307534 +0100,
tilted.xlsx,The target is tilted.,117,94,6,11,0,1,1,1,1,1,1,1,1,1,1,1,1,11,12,117,space,5.95992219999971,None,0,1,2.3397381000004316,None,space,6.662209099999927,None,0,0,0,0,,,,,11,6,94,4,264.10484279999946,,,,,,,,,,,,,,,,,,,,,264.0892746999998,264.10484279999946,264.58805269999993,264.5925385999999,264.6079667999993,266.9545124999995,,,,,266.95470229999955,266.9697140999997,267.1700609999998,267.15392239999983,264.6079667999993,,,,,,,,0,1,2.3397381000004316,None,,,,,,,,889,20,M,R,2026-02-25_12h17.33.098,VisualSearch_2526_3,,2025.2.4,2026-02-25 12h17.33.307534 +0100,
tilted.xlsx,The target is tilted.,117,95,7,11,1,1,1,1,1,1,1,1,1,1,1,1,0,11,12,117,space,5.95992219999971,None,1,1,1.5658127999995486,None,space,6.662209099999927,None,0,0,0,0,,,,,11,7,95,0,267.1700609999998,,,,,,,,,,,,,,,,,,,,,267.15463179999915,267.1700609999998,267.6532989999996,267.6577936999993,267.6748560999995,269.2534360999998,,,,,269.2536295,269.2689963999992,269.4689006999997,269.45295909999913,267.6748560999995,,,,,,,,1,1,1.5658127999995486,None,,,,,,,,889,20,M,R,2026-02-25_12h17.33.098,VisualSearch_2526_3,,2025.2.4,2026-02-25 12h17.33.307534 +0100,
tilted.xlsx,The target is tilted.,117,96,0,12,0,1,1,1,1,1,1,1,1,1,1,1,1,11,12,117,space,5.95992219999971,None,0,1,2.019715599999472,None,space,6.662209099999927,None,0,0,0,0,,,,,12,0,96,4,269.4689006999997,,,,,,,,,,,,,,,,,,,,,269.45370039999943,269.4689006999997,269.9526976999996,269.95714189999944,269.9742600999998,272.00228009999955,,,,,272.0024719999992,272.0178272999992,272.2177507999995,272.20147349999934,269.9742600999998,,,,,,,,0,1,2.019715599999472,None,,,,,,,,889,20,M,R,2026-02-25_12h17.33.098,VisualSearch_2526_3,,2025.2.4,2026-02-25 12h17.33.307534 +0100,
tilted.xlsx,The target is tilted.,117,97,1,12,0,1,1,1,1,1,1,1,0,0,0,0,1,7,8,117,space,5.95992219999971,None,0,1,1.828258900000037,None,space,6.662209099999927,None,0,0,0,0,,,,,12,1,97,5,272.2177507999995,,,,,,,,,,,,,,,,,,,,,272.20231109999986,272.2177507999995,272.7009184999997,272.70540249999976,272.7223460999994,274.56778080000004,,,,,274.5680348999995,274.5832385999993,274.78328989999955,274.76693109999997,272.7223460999994,,,,,,,,0,1,1.828258900000037,None,,,,,,,,889,20,M,R,2026-02-25_12h17.33.098,VisualSearch_2526_3,,2025.2.4,2026-02-25 12h17.33.307534 +0100,
tilted.xlsx,The target is tilted.,117,98,2,12,1,1,1,1,1,1,1,1,1,1,1,1,0,11,12,117,space,5.95992219999971,None,0,0,2.507678699999815,None,space,6.662209099999927,None,0,0,0,0,,,,,12,2,98,0,274.78328989999955,,,,,,,,,,,,,,,,,,,,,274.76766939999925,274.78328989999955,275.2667520999994,275.2712277999999,275.28822089999994,277.7991142999999,,,,,277.79928909999944,277.81475389999923,278.0149096999994,277.9989782999992,275.28822089999994,,,,,,,,0,0,2.507678699999815,None,,,,,,,,889,20,M,R,2026-02-25_12h17.33.098,VisualSearch_2526_3,,2025.2.4,2026-02-25 12h17.33.307534 +0100,
tilted.xlsx,The target is tilted.,117,99,3,12,1,0,0,0,0,0,0,0,0,0,0,0,0,0,1,117,space,5.95992219999971,None,1,1,0.5286641000002419,None,space,6.662209099999927,None,0,0,0,0,,,,,12,3,99,3,278.0149096999994,,,,,,,,,,,,,,,,,,,,,277.9996842999999,278.0149096999994,278.4987954999997,278.5033647999999,278.51460269999916,279.04847209999934,,,,,279.0486242999996,279.0645225999997,279.2646253999992,279.2484252999993,278.51460269999916,,,,,,,,1,1,0.5286641000002419,None,,,,,,,,889,20,M,R,2026-02-25_12h17.33.098,VisualSearch_2526_3,,2025.2.4,2026-02-25 12h17.33.307534 +0100,
tilted.xlsx,The target is tilted.,117,100,4,12,1,1,1,1,1,1,1,1,0,0,0,0,0,7,8,117,space,5.95992219999971,None,1,1,1.5661742999991475,None,space,6.662209099999927,None,0,0,0,0,,,,,12,4,100,1,279.2646253999992,,,,,,,,,,,,,,,,,,,,,279.2492358999998,279.2646253999992,279.7478784999994,279.75235799999973,279.7680381,281.3480692999992,,,,,281.3482944999996,281.3633708999996,281.56354849999934,281.5472431999997,279.7680381,,,,,,,,1,1,1.5661742999991475,None,,,,,,,,889,20,M,R,2026-02-25_12h17.33.098,VisualSearch_2526_3,,2025.2.4,2026-02-25 12h17.33.307534 +0100,
tilted.xlsx,The target is tilted.,117,101,5,12,0,0,0,0,0,0,0,0,0,0,0,0,1,1,1,117,space,5.95992219999971,None,0,1,0.5903800999994928,None,space,6.662209099999927,None,0,0,0,0,,,,,12,5,101,7,281.56354849999934,,,,,,,,,,,,,,,,,,,,,281.54799619999994,281.56354849999934,282.0470841999995,282.05155749999994,282.0673408999992,282.66382799999974,,,,,282.6640043999996,282.6795898999999,282.8795550999994,282.86342719999993,282.0673408999992,,,,,,,,0,1,0.5903800999994928,None,,,,,,,,889,20,M,R,2026-02-25_12h17.33.098,VisualSearch_2526_3,,2025.2.4,2026-02-25 12h17.33.307534 +0100,
tilted.xlsx,The target is tilted.,117,102,6,12,0,1,1,1,0,0,0,0,0,0,0,0,1,3,4,117,space,5.95992219999971,None,0,1,1.017264499999328,None,space,6.662209099999927,None,0,0,0,0,,,,,12,6,102,6,282.8795550999994,,,,,,,,,,,,,,,,,,,,,282.8641319999997,282.8795550999994,283.3630125999998,283.36748949999946,283.38323599999967,284.4127343,,,,,284.41290709999976,284.4283768999994,284.62860399999954,284.61243379999996,283.38323599999967,,,,,,,,0,1,1.017264499999328,None,,,,,,,,889,20,M,R,2026-02-25_12h17.33.098,VisualSearch_2526_3,,2025.2.4,2026-02-25 12h17.33.307534 +0100,
tilted.xlsx,The target is tilted.,117,103,7,12,1,1,1,1,0,0,0,0,0,0,0,0,0,3,4,117,space,5.95992219999971,None,1,1,0.7434174999998504,None,space,6.662209099999927,None,0,0,0,0,,,,,12,7,103,2,284.62860399999954,,,,,,,,,,,,,,,,,,,,,284.61316929999975,284.62860399999954,285.1123472999998,285.11679619999995,285.13367279999966,285.8790669,,,,,285.87924419999945,285.89461329999995,286.09481249999953,286.0786464999992,285.13367279999966,,,,,,,,1,1,0.7434174999998504,None,,,,,,,,889,20,M,R,2026-02-25_12h17.33.098,VisualSearch_2526_3,,2025.2.4,2026-02-25 12h17.33.307534 +0100,
tilted.xlsx,The target is tilted.,117,104,0,13,0,0,0,0,0,0,0,0,0,0,0,0,1,1,1,117,space,5.95992219999971,None,0,1,0.5419464000005974,None,space,6.662209099999927,None,0,0,0,0,,,,,13,0,104,7,286.09481249999953,,,,,,,,,,,,,,,,,,,,,286.0793492999992,286.09481249999953,286.5782230999994,286.58270529999936,286.59811849999915,287.1445716999997,,,,,287.14469909999934,287.16035399999964,287.3608719999993,287.34479739999915,286.59811849999915,,,,,,,,0,1,0.5419464000005974,None,,,,,,,,889,20,M,R,2026-02-25_12h17.33.098,VisualSearch_2526_3,,2025.2.4,2026-02-25 12h17.33.307534 +0100,
tilted.xlsx,The target is tilted.,117,105,1,13,1,1,1,1,0,0,0,0,0,0,0,0,0,3,4,117,space,5.95992219999971,None,1,1,0.8152869000005012,None,space,6.662209099999927,None,0,0,0,0,,,,,13,1,105,2,287.3608719999993,,,,,,,,,,,,,,,,,,,,,287.34554599999956,287.3608719999993,287.84452319999946,287.84898299999986,287.86549279999963,288.6942036999999,,,,,288.6944002,288.7097559999993,288.9096966999996,288.8936494999998,287.86549279999963,,,,,,,,1,1,0.8152869000005012,None,,,,,,,,889,20,M,R,2026-02-25_12h17.33.098,VisualSearch_2526_3,,2025.2.4,2026-02-25 12h17.33.307534 +0100,
tilted.xlsx,The target is tilted.,117,106,2,13,0,1,1,1,1,1,1,1,1,1,1,1,1,11,12,117,space,5.95992219999971,None,0,1,2.0154774000002362,None,space,6.662209099999927,None,0,0,0,0,,,,,13,2,106,4,288.9096966999996,,,,,,,,,,,,,,,,,,,,,288.8943939999999,288.9096966999996,289.39348939999945,289.39795719999984,289.4146643999993,291.44325089999984,,,,,291.4434248999996,291.4587896999992,291.65881269999954,291.6424303999993,289.4146643999993,,,,,,,,0,1,2.0154774000002362,None,,,,,,,,889,20,M,R,2026-02-25_12h17.33.098,VisualSearch_2526_3,,2025.2.4,2026-02-25 12h17.33.307534 +0100,
tilted.xlsx,The target is tilted.,117,107,3,13,1,0,0,0,0,0,0,0,0,0,0,0,0,0,1,117,space,5.95992219999971,None,1,1,0.7484731999993528,None,space,6.662209099999927,None,0,0,0,0,,,,,13,3,107,3,291.65881269999954,,,,,,,,,,,,,,,,,,,,,291.6431386999993,291.65881269999954,292.1425868999995,292.14716789999966,292.16395939999984,292.92558909999934,,,,,292.92575809999926,292.9412199999997,293.1413333999999,293.12569769999936,292.16395939999984,,,,,,,,1,1,0.7484731999993528,None,,,,,,,,889,20,M,R,2026-02-25_12h17.33.098,VisualSearch_2526_3,,2025.2.4,2026-02-25 12h17.33.307534 +0100,
tilted.xlsx,The target is tilted.,117,108,4,13,0,1,1,1,0,0,0,0,0,0,0,0,1,3,4,117,space,5.95992219999971,None,0,1,0.723855199999889,None,space,6.662209099999927,None,0,0,0,0,,,,,13,4,108,6,293.1413333999999,,,,,,,,,,,,,,,,,,,,,293.1264354999994,293.1413333999999,293.62535189999926,293.62985409999965,293.6449493,294.3749035999999,,,,,294.3750395999996,294.3908892999998,294.5908750999997,294.5747216999998,293.6449493,,,,,,,,0,1,0.723855199999889,None,,,,,,,,889,20,M,R,2026-02-25_12h17.33.098,VisualSearch_2526_3,,2025.2.4,2026-02-25 12h17.33.307534 +0100,
tilted.xlsx,The target is tilted.,117,109,5,13,1,1,1,1,1,1,1,1,0,0,0,0,0,7,8,117,space,5.95992219999971,None,0,0,1.933959699999832,None,space,6.662209099999927,None,0,0,0,0,,,,,13,5,109,1,294.5908750999997,,,,,,,,,,,,,,,,,,,,,294.57542719999947,294.5908750999997,295.07465819999925,295.07910979999997,295.09038559999954,297.04100559999915,,,,,297.04122349999943,297.05610779999915,297.2562990999995,297.24023099999977,295.09038559999954,,,,,,,,0,0,1.933959699999832,None,,,,,,,,889,20,M,R,2026-02-25_12h17.33.098,VisualSearch_2526_3,,2025.2.4,2026-02-25 12h17.33.307534 +0100,
tilted.xlsx,The target is tilted.,117,110,6,13,1,1,1,1,1,1,1,1,1,1,1,1,0,11,12,117,space,5.95992219999971,None,1,1,2.030898099999831,None,space,6.662209099999927,None,0,0,0,0,,,,,13,6,110,0,297.2562990999995,,,,,,,,,,,,,,,,,,,,,297.2409369999996,297.2562990999995,297.73963099999946,297.74418389999937,297.75587369999994,299.78956389999985,,,,,299.78975719999926,299.8047635999992,300.00489599999946,299.9886067999996,297.75587369999994,,,,,,,,1,1,2.030898099999831,None,,,,,,,,889,20,M,R,2026-02-25_12h17.33.098,VisualSearch_2526_3,,2025.2.4,2026-02-25 12h17.33.307534 +0100,
tilted.xlsx,The target is tilted.,117,111,7,13,0,1,1,1,1,1,1,1,0,0,0,0,1,7,8,117,space,5.95992219999971,None,0,1,1.6906732999996166,None,space,6.662209099999927,None,0,0,0,0,,,,,13,7,111,5,300.00489599999946,,,,,,,,,,,,,,,,,,,,,299.9893394999999,300.00489599999946,300.4887472999999,300.49328649999916,300.5107905999994,302.204847,,,,,302.20503909999934,302.22076879999986,302.42060199999923,302.4044381999993,300.5107905999994,,,,,,,,0,1,1.6906732999996166,None,,,,,,,,889,20,M,R,2026-02-25_12h17.33.098,VisualSearch_2526_3,,2025.2.4,2026-02-25 12h17.33.307534 +0100,
tilted.xlsx,The target is tilted.,117,112,0,14,1,1,1,1,1,1,1,1,0,0,0,0,0,7,8,117,space,5.95992219999971,None,1,1,0.7779941000007966,None,space,6.662209099999927,None,0,0,0,0,,,,,14,0,112,1,302.42060199999923,,,,,,,,,,,,,,,,,,,,,302.4051743,302.42060199999923,302.90465959999983,302.9091424999997,302.9254906999995,303.7206225,,,,,303.7207959999996,303.7366005999993,303.9366281999992,303.9205161,302.9254906999995,,,,,,,,1,1,0.7779941000007966,None,,,,,,,,889,20,M,R,2026-02-25_12h17.33.098,VisualSearch_2526_3,,2025.2.4,2026-02-25 12h17.33.307534 +0100,
tilted.xlsx,The target is tilted.,117,113,1,14,0,1,1,1,1,1,1,1,1,1,1,1,1,11,12,117,space,5.95992219999971,None,0,1,3.0577183999994304,None,space,6.662209099999927,None,0,0,0,0,,,,,14,1,113,4,303.9366281999992,,,,,,,,,,,,,,,,,,,,,303.9212239999997,303.9366281999992,304.4203314999995,304.42483809999976,304.44225219999953,307.50237319999997,,,,,307.5025665999992,307.5183445999992,307.71781219999957,307.7022772,304.44225219999953,,,,,,,,0,1,3.0577183999994304,None,,,,,,,,889,20,M,R,2026-02-25_12h17.33.098,VisualSearch_2526_3,,2025.2.4,2026-02-25 12h17.33.307534 +0100,
tilted.xlsx,The target is tilted.,117,114,2,14,1,1,1,1,0,0,0,0,0,0,0,0,0,3,4,117,space,5.95992219999971,None,1,1,0.9389971999999034,None,space,6.662209099999927,None,0,0,0,0,,,,,14,2,114,2,307.71781219999957,,,,,,,,,,,,,,,,,,,,,307.70310269999936,307.71781219999957,308.2019427999994,308.20649069999945,308.22357979999924,309.16838329999973,,,,,309.16857569999956,309.18419209999956,309.38373239999964,309.36769509999976,308.22357979999924,,,,,,,,1,1,0.9389971999999034,None,,,,,,,,889,20,M,R,2026-02-25_12h17.33.098,VisualSearch_2526_3,,2025.2.4,2026-02-25 12h17.33.307534 +0100,
tilted.xlsx,The target is tilted.,117,115,3,14,0,0,0,0,0,0,0,0,0,0,0,0,1,1,1,117,space,5.95992219999971,None,0,1,0.700005599999713,None,space,6.662209099999927,None,0,0,0,0,,,,,14,3,115,7,309.38373239999964,,,,,,,,,,,,,,,,,,,,,309.3684181999997,309.38373239999964,309.86698349999915,309.8702854999992,309.8841853999993,310.60021809999944,,,,,310.6003189999992,310.6161941999999,310.8166186999997,310.80054029999974,309.8841853999993,,,,,,,,0,1,0.700005599999713,None,,,,,,,,889,20,M,R,2026-02-25_12h17.33.098,VisualSearch_2526_3,,2025.2.4,2026-02-25 12h17.33.307534 +0100,
tilted.xlsx,The target is tilted.,117,116,4,14,1,0,0,0,0,0,0,0,0,0,0,0,0,0,1,117,space,5.95992219999971,None,1,1,0.6565236000005825,None,space,6.662209099999927,None,0,0,0,0,,,,,14,4,116,3,310.8166186999997,,,,,,,,,,,,,,,,,,,,,310.8012592999994,310.8166186999997,311.3004856999996,311.30502779999915,311.32147799999984,311.98376459999963,,,,,311.9839579999998,311.99957469999936,312.1992376999997,312.1828584999994,311.32147799999984,,,,,,,,1,1,0.6565236000005825,None,,,,,,,,889,20,M,R,2026-02-25_12h17.33.098,VisualSearch_2526_3,,2025.2.4,2026-02-25 12h17.33.307534 +0100,
tilted.xlsx,The target is tilted.,117,117,5,14,0,1,1,1,1,1,1,1,0,0,0,0,1,7,8,117,space,5.95992219999971,None,0,1,2.50911140000062,None,space,6.662209099999927,None,0,0,0,0,,,,,14,5,117,5,312.1992376999997,,,,,,,,,,,,,,,,,,,,,312.18350289999944,312.1992376999997,312.68297619999976,312.6875089999994,312.7049174999993,315.2154967999995,,,,,315.2156895999997,315.2313469999999,315.43136439999944,315.4154011999999,312.7049174999993,,,,,,,,0,1,2.50911140000062,None,,,,,,,,889,20,M,R,2026-02-25_12h17.33.098,VisualSearch_2526_3,,2025.2.4,2026-02-25 12h17.33.307534 +0100,
tilted.xlsx,The target is tilted.,117,118,6,14,1,1,1,1,1,1,1,1,1,1,1,1,0,11,12,117,space,5.95992219999971,None,1,1,2.1835591000008208,None,space,6.662209099999927,None,0,0,0,0,,,,,14,6,118,0,315.43136439999944,,,,,,,,,,,,,,,,,,,,,315.4161265999992,315.43136439999944,315.9145736999999,315.9191259999998,315.9310594999997,318.13087109999924,,,,,318.1310039,318.14673349999975,318.34667139999965,318.3305284999997,315.9310594999997,,,,,,,,1,1,2.1835591000008208,None,,,,,,,,889,20,M,R,2026-02-25_12h17.33.098,VisualSearch_2526_3,,2025.2.4,2026-02-25 12h17.33.307534 +0100,
tilted.xlsx,The target is tilted.,117,119,7,14,0,1,1,1,0,0,0,0,0,0,0,0,1,3,4,117,space,5.95992219999971,None,0,1,1.2850101000003633,None,space,6.662209099999927,None,0,0,0,0,,,,,14,7,119,6,318.34667139999965,,,,,,,,,,,,,,,,,,,,,318.3312638999996,318.34667139999965,318.8300614,318.8346288999992,318.8462555999995,320.1462828999993,,,,,320.14643259999957,320.16188389999934,320.3770298999998,320.3461983999996,318.8462555999995,,,,,,,,0,1,1.2850101000003633,None,,,,,,,,889,20,M,R,2026-02-25_12h17.33.098,VisualSearch_2526_3,,2025.2.4,2026-02-25 12h17.33.307534 +0100,
tilted.xlsx,The target is tilted.,117,0,0,0,,,,,,,,,,,,,,,,,space,5.95992219999971,None,,,,,space,6.662209099999927,None,0,0,0,0,,,,,,,,,,,,,,,,,,,,,,,,,,,,,,,,,,,,,,,,,,,,,,,,,,,,,,,,,,,,,,,889,20,M,R,2026-02-25_12h17.33.098,VisualSearch_2526_3,,2025.2.4,2026-02-25 12h17.33.307534 +0100,
vertical.xlsx,The target is tilted.,135,0,0,0,1,1,1,1,0,0,0,0,0,0,0,0,0,3,4,135,space,4.23722749999979,None,1,1,0.5816026000002239,None,,,,0,1,1,1,0,0,0,2,,,,,324.65531649999957,,,,,,,,,,,,,,,320.3770298999998,320.3770298999998,320.3770298999998,space,4.23722749999979,None,324.6511544999994,324.65531649999957,325.1440598999998,325.1487207,325.1651919999995,325.7607518999994,1,1,0.5816026000002239,None,325.76089409999986,325.7766163999995,325.9763696,325.9601026999999,,,,,,,,,,,,,,,,,,,,889,20,M,R,2026-02-25_12h17.33.098,VisualSearch_2526_3,,2025.2.4,2026-02-25 12h17.33.307534 +0100,
vertical.xlsx,The target is tilted.,135,1,1,0,0,1,1,1,1,1,1,1,1,1,1,1,1,11,12,135,space,4.23722749999979,None,0,1,1.4771820999994816,None,,,,0,1,1,1,0,1,1,4,,,,,325.9763696,,,,,,,,,,,,,,,,,,,,,325.96077949999926,325.9763696,326.46029669999916,326.4647849999992,326.4815702999995,327.9599853999998,0,1,1.4771820999994816,None,327.96016429999963,327.97547309999936,328.17515679999997,328.1591306,326.4815702999995,,,,,,,,,,,,,,,,,,,889,20,M,R,2026-02-25_12h17.33.098,VisualSearch_2526_3,,2025.2.4,2026-02-25 12h17.33.307534 +0100,
vertical.xlsx,The target is tilted.,135,2,2,0,1,1,1,1,1,1,1,1,1,1,1,1,0,11,12,135,space,4.23722749999979,None,1,1,0.5616871000001993,None,,,,0,1,1,1,0,2,2,0,,,,,328.17515679999997,,,,,,,,,,,,,,,,,,,,,328.1598019999992,328.17515679999997,328.65935679999984,328.6641734999994,328.6790954999997,329.24282289999974,1,1,0.5616871000001993,None,329.24300649999986,329.25839559999986,329.45801689999917,329.4422614999994,328.6790954999997,,,,,,,,,,,,,,,,,,,889,20,M,R,2026-02-25_12h17.33.098,VisualSearch_2526_3,,2025.2.4,2026-02-25 12h17.33.307534 +0100,
vertical.xlsx,The target is tilted.,135,3,3,0,0,0,0,0,0,0,0,0,0,0,0,0,1,1,1,135,space,4.23722749999979,None,0,1,1.0251623999993171,None,,,,0,1,1,1,0,3,3,7,,,,,329.45801689999917,,,,,,,,,,,,,,,,,,,,,329.4429225999993,329.45801689999917,329.9420554999997,329.9465074999998,329.9630245999997,330.9912121999996,0,1,1.0251623999993171,None,330.99133829999937,331.00746959999924,331.20753949999926,331.1914657999996,329.9630245999997,,,,,,,,,,,,,,,,,,,889,20,M,R,2026-02-25_12h17.33.098,VisualSearch_2526_3,,2025.2.4,2026-02-25 12h17.33.307534 +0100,
vertical.xlsx,The target is tilted.,135,4,4,0,1,0,0,0,0,0,0,0,0,0,0,0,0,0,1,135,space,4.23722749999979,None,1,1,0.5925514999998995,None,,,,0,1,1,1,0,4,4,3,,,,,331.20753949999926,,,,,,,,,,,,,,,,,,,,,331.19211499999983,331.20753949999926,331.69123899999977,331.69571859999996,331.71246299999984,332.30811789999916,1,1,0.5925514999998995,None,332.3083063999993,332.3235591999992,332.5237131999993,332.50745409999945,331.71246299999984,,,,,,,,,,,,,,,,,,,889,20,M,R,2026-02-25_12h17.33.098,VisualSearch_2526_3,,2025.2.4,2026-02-25 12h17.33.307534 +0100,
vertical.xlsx,The target is tilted.,135,5,5,0,0,1,1,1,0,0,0,0,0,0,0,0,1,3,4,135,space,4.23722749999979,None,0,1,0.7899669999997059,None,,,,0,1,1,1,0,5,5,6,,,,,332.5237131999993,,,,,,,,,,,,,,,,,,,,,332.5081132999994,332.5237131999993,333.0073008999998,333.0119122999995,333.0281206999998,333.8238096999994,0,1,0.7899669999997059,None,333.82399279999936,333.8394134,334.03914089999944,334.02361089999977,333.0281206999998,,,,,,,,,,,,,,,,,,,889,20,M,R,2026-02-25_12h17.33.098,VisualSearch_2526_3,,2025.2.4,2026-02-25 12h17.33.307534 +0100,
vertical.xlsx,The target is tilted.,135,6,6,0,1,1,1,1,1,1,1,1,0,0,0,0,0,7,8,135,space,4.23722749999979,None,1,1,0.7169068000002881,None,,,,0,1,1,1,0,6,6,1,,,,,334.03914089999944,,,,,,,,,,,,,,,,,,,,,334.02427009999974,334.03914089999944,334.5233564,334.5278574999993,334.54523419999987,335.2733456999995,1,1,0.7169068000002881,None,335.27351649999946,335.2889590999994,335.48897169999964,335.4728787999993,334.54523419999987,,,,,,,,,,,,,,,,,,,889,20,M,R,2026-02-25_12h17.33.098,VisualSearch_2526_3,,2025.2.4,2026-02-25 12h17.33.307534 +0100,
vertical.xlsx,The target is tilted.,135,7,7,0,0,1,1,1,1,1,1,1,0,0,0,0,1,7,8,135,space,4.23722749999979,None,0,1,0.7574579000001904,None,,,,0,1,1,1,0,7,7,5,,,,,335.48897169999964,,,,,,,,,,,,,,,,,,,,,335.47354989999985,335.48897169999964,335.9725820999993,335.9771716999994,335.9930881,336.7550963999993,0,1,0.7574579000001904,None,336.7552188999998,336.77149139999983,336.97110799999973,336.9552832999998,335.9930881,,,,,,,,,,,,,,,,,,,889,20,M,R,2026-02-25_12h17.33.098,VisualSearch_2526_3,,2025.2.4,2026-02-25 12h17.33.307534 +0100,
vertical.xlsx,The target is tilted.,135,0,0,0,0,1,1,1,1,1,1,1,1,1,1,1,1,11,12,135,space,4.23722749999979,None,0,1,1.3988445999993928,None,space,4.971629600000597,None,0,1,1,1,,,,,0,0,0,4,341.98402219999934,,,,,,,,,,,,,,,,,,,,,341.9797402999993,341.98402219999934,342.46943269999974,342.47401360000003,342.4905468999996,343.9027858999998,,,,,343.9029794999997,343.91828429999987,344.11831789999997,344.1023944999997,,336.96222509999916,336.97110799999973,336.97110799999973,341.9535299999998,space,4.971629600000597,None,0,1,1.3988445999993928,None,,,,,,,,889,20,M,R,2026-02-25_12h17.33.098,VisualSearch_2526_3,,2025.2.4,2026-02-25 12h17.33.307534 +0100,
vertical.xlsx,The target is tilted.,135,1,1,0,1,1,1,1,1,1,1,1,0,0,0,0,0,7,8,135,space,4.23722749999979,None,1,1,0.7094442999996318,None,space,4.971629600000597,None,0,1,1,1,,,,,0,1,1,1,344.11831789999997,,,,,,,,,,,,,,,,,,,,,344.10309719999987,344.11831789999997,344.60201679999955,344.6065312999999,344.62402369999927,345.33509689999937,,,,,345.3352224999999,345.3509340999999,345.5509425,345.5349204999993,344.62402369999927,,,,,,,,1,1,0.7094442999996318,None,,,,,,,,889,20,M,R,2026-02-25_12h17.33.098,VisualSearch_2526_3,,2025.2.4,2026-02-25 12h17.33.307534 +0100,
vertical.xlsx,The target is tilted.,135,2,2,0,0,1,1,1,0,0,0,0,0,0,0,0,1,3,4,135,space,4.23722749999979,None,0,1,0.6092459000001327,None,space,4.971629600000597,None,0,1,1,1,,,,,0,2,2,6,345.5509425,,,,,,,,,,,,,,,,,,,,,345.53564649999953,345.5509425,346.03472299999976,346.0397783999997,346.0558745999997,346.6682252999999,,,,,346.66839769999933,346.6837668999997,346.88386659999924,346.8676169999999,346.0558745999997,,,,,,,,0,1,0.6092459000001327,None,,,,,,,,889,20,M,R,2026-02-25_12h17.33.098,VisualSearch_2526_3,,2025.2.4,2026-02-25 12h17.33.307534 +0100,
vertical.xlsx,The target is tilted.,135,3,3,0,1,1,1,1,1,1,1,1,1,1,1,1,0,11,12,135,space,4.23722749999979,None,1,1,0.6932827999999063,None,space,4.971629600000597,None,0,1,1,1,,,,,0,3,3,0,346.88386659999924,,,,,,,,,,,,,,,,,,,,,346.86840239999947,346.88386659999924,347.3673326999997,347.37181939999937,347.3878728999998,348.08441539999967,,,,,348.08462189999955,348.09953759999917,348.29961379999986,348.28365249999933,347.3878728999998,,,,,,,,1,1,0.6932827999999063,None,,,,,,,,889,20,M,R,2026-02-25_12h17.33.098,VisualSearch_2526_3,,2025.2.4,2026-02-25 12h17.33.307534 +0100,
vertical.xlsx,The target is tilted.,135,4,4,0,0,1,1,1,1,1,1,1,0,0,0,0,1,7,8,135,space,4.23722749999979,None,0,1,1.0790815000000293,None,space,4.971629600000597,None,0,1,1,1,,,,,0,4,4,5,348.29961379999986,,,,,,,,,,,,,,,,,,,,,348.2843605999997,348.29961379999986,348.78343659999973,348.7879848999992,348.8044057999996,349.9000068999994,,,,,349.9001853999998,349.91536239999914,350.11544909999975,350.0993214,348.8044057999996,,,,,,,,0,1,1.0790815000000293,None,,,,,,,,889,20,M,R,2026-02-25_12h17.33.098,VisualSearch_2526_3,,2025.2.4,2026-02-25 12h17.33.307534 +0100,
vertical.xlsx,The target is tilted.,135,5,5,0,1,0,0,0,0,0,0,0,0,0,0,0,0,0,1,135,space,4.23722749999979,None,1,1,0.44349770000007993,None,space,4.971629600000597,None,0,1,1,1,,,,,0,5,5,3,350.11544909999975,,,,,,,,,,,,,,,,,,,,,350.10006219999923,350.11544909999975,350.5992779999997,350.6037587999999,350.61880909999945,351.06593279999925,,,,,351.0661295,351.0814195999992,351.2817540999995,351.26539739999953,350.61880909999945,,,,,,,,1,1,0.44349770000007993,None,,,,,,,,889,20,M,R,2026-02-25_12h17.33.098,VisualSearch_2526_3,,2025.2.4,2026-02-25 12h17.33.307534 +0100,
vertical.xlsx,The target is tilted.,135,6,6,0,1,1,1,1,0,0,0,0,0,0,0,0,0,3,4,135,space,4.23722749999979,None,1,1,0.7928256000004694,None,space,4.971629600000597,None,0,1,1,1,,,,,0,6,6,2,351.2817540999995,,,,,,,,,,,,,,,,,,,,,351.2661301999997,351.2817540999995,351.76551539999946,351.77000269999917,351.78503,352.5818944999992,,,,,352.5820844,352.5977619999994,352.7976630999992,352.7814393999997,351.78503,,,,,,,,1,1,0.7928256000004694,None,,,,,,,,889,20,M,R,2026-02-25_12h17.33.098,VisualSearch_2526_3,,2025.2.4,2026-02-25 12h17.33.307534 +0100,
vertical.xlsx,The target is tilted.,135,7,7,0,0,0,0,0,0,0,0,0,0,0,0,0,1,1,1,135,space,4.23722749999979,None,0,1,0.484254900000451,None,space,4.971629600000597,None,0,1,1,1,,,,,0,7,7,7,352.7976630999992,,,,,,,,,,,,,,,,,,,,,352.78218339999967,352.7976630999992,353.28142259999913,353.28591849999975,353.3028700999994,353.7979766999997,,,,,353.7981900999994,353.8138934999997,354.01376959999925,353.9976446999999,353.3028700999994,,,,,,,,0,1,0.484254900000451,None,,,,,,,,889,20,M,R,2026-02-25_12h17.33.098,VisualSearch_2526_3,,2025.2.4,2026-02-25 12h17.33.307534 +0100,
vertical.xlsx,The target is tilted.,135,8,0,1,1,1,1,1,1,1,1,1,1,1,1,1,0,11,12,135,space,4.23722749999979,None,1,1,1.2388538999994125,None,space,4.971629600000597,None,0,1,1,1,,,,,1,0,8,0,354.01376959999925,,,,,,,,,,,,,,,,,,,,,353.99835919999987,354.01376959999925,354.4974543999997,354.50192179999976,354.5176587999995,355.7633165999996,,,,,355.7634871999999,355.7797058999995,355.97961099999975,355.9635995999997,354.5176587999995,,,,,,,,1,1,1.2388538999994125,None,,,,,,,,889,20,M,R,2026-02-25_12h17.33.098,VisualSearch_2526_3,,2025.2.4,2026-02-25 12h17.33.307534 +0100,
vertical.xlsx,The target is tilted.,135,9,1,1,0,1,1,1,1,1,1,1,0,0,0,0,1,7,8,135,space,4.23722749999979,None,0,1,1.2099603999995452,None,space,4.971629600000597,None,0,1,1,1,,,,,1,1,9,5,355.97961099999975,,,,,,,,,,,,,,,,,,,,,355.9643266999992,355.97961099999975,356.4631811999998,356.46775929999967,356.4832358999993,357.6963748999997,,,,,357.6965758999995,357.7118711999992,357.9120828999994,357.8955755999996,356.4832358999993,,,,,,,,0,1,1.2099603999995452,None,,,,,,,,889,20,M,R,2026-02-25_12h17.33.098,VisualSearch_2526_3,,2025.2.4,2026-02-25 12h17.33.307534 +0100,
vertical.xlsx,The target is tilted.,135,10,2,1,0,1,1,1,1,1,1,1,1,1,1,1,1,11,12,135,space,4.23722749999979,None,0,1,0.7266096000003017,None,space,4.971629600000597,None,0,1,1,1,,,,,1,2,10,4,357.9120828999994,,,,,,,,,,,,,,,,,,,,,357.89630579999994,357.9120828999994,358.3955851999999,358.4001152999999,358.41603979999945,359.1459120999998,,,,,359.1461122999999,359.1612970999995,359.36142440000003,359.3454378999995,358.41603979999945,,,,,,,,0,1,0.7266096000003017,None,,,,,,,,889,20,M,R,2026-02-25_12h17.33.098,VisualSearch_2526_3,,2025.2.4,2026-02-25 12h17.33.307534 +0100,
vertical.xlsx,The target is tilted.,135,11,3,1,0,1,1,1,0,0,0,0,0,0,0,0,1,3,4,135,space,4.23722749999979,None,0,1,0.5320229999997537,None,space,4.971629600000597,None,0,1,1,1,,,,,1,3,11,6,359.36142440000003,,,,,,,,,,,,,,,,,,,,,359.34616089999963,359.36142440000003,359.8451923999992,359.84968859999935,359.8662719999993,360.4121000999994,,,,,360.41230799999994,360.4275074999996,360.6274403999996,360.61133679999966,359.8662719999993,,,,,,,,0,1,0.5320229999997537,None,,,,,,,,889,20,M,R,2026-02-25_12h17.33.098,VisualSearch_2526_3,,2025.2.4,2026-02-25 12h17.33.307534 +0100,
vertical.xlsx,The target is tilted.,135,12,4,1,1,0,0,0,0,0,0,0,0,0,0,0,0,0,1,135,space,4.23722749999979,None,1,1,0.43872970000029454,None,space,4.971629600000597,None,0,1,1,1,,,,,1,4,12,3,360.6274403999996,,,,,,,,,,,,,,,,,,,,,360.6121158999995,360.6274403999996,361.11118909999914,361.1156570999992,361.1268063999996,361.5779653999998,,,,,361.5781561999993,361.59367179999936,361.7935899999993,361.7771159999993,361.1268063999996,,,,,,,,1,1,0.43872970000029454,None,,,,,,,,889,20,M,R,2026-02-25_12h17.33.098,VisualSearch_2526_3,,2025.2.4,2026-02-25 12h17.33.307534 +0100,
vertical.xlsx,The target is tilted.,135,13,5,1,0,0,0,0,0,0,0,0,0,0,0,0,1,1,1,135,space,4.23722749999979,None,0,1,0.4796401000003243,None,space,4.971629600000597,None,0,1,1,1,,,,,1,5,13,7,361.7935899999993,,,,,,,,,,,,,,,,,,,,,361.7778610999994,361.7935899999993,362.2772060999996,362.2817327999992,362.29766259999997,362.79412069999944,,,,,362.79430969999976,362.8098298999994,363.0098034999992,362.99367319999965,362.29766259999997,,,,,,,,0,1,0.4796401000003243,None,,,,,,,,889,20,M,R,2026-02-25_12h17.33.098,VisualSearch_2526_3,,2025.2.4,2026-02-25 12h17.33.307534 +0100,
vertical.xlsx,The target is tilted.,135,14,6,1,1,1,1,1,1,1,1,1,0,0,0,0,0,7,8,135,space,4.23722749999979,None,1,1,0.5281455000003916,None,space,4.971629600000597,None,0,1,1,1,,,,,1,6,14,1,363.0098034999992,,,,,,,,,,,,,,,,,,,,,362.9943813,363.0098034999992,363.49298569999974,363.49767899999915,363.5127146999994,364.04378669999915,,,,,364.0439907,364.0589266999996,364.25918339999953,364.2430027999999,363.5127146999994,,,,,,,,1,1,0.5281455000003916,None,,,,,,,,889,20,M,R,2026-02-25_12h17.33.098,VisualSearch_2526_3,,2025.2.4,2026-02-25 12h17.33.307534 +0100,
vertical.xlsx,The target is tilted.,135,15,7,1,1,1,1,1,0,0,0,0,0,0,0,0,0,3,4,135,space,4.23722749999979,None,1,1,0.6634210000001985,None,space,4.971629600000597,None,0,1,1,1,,,,,1,7,15,2,364.25918339999953,,,,,,,,,,,,,,,,,,,,,364.24373409999953,364.25918339999953,364.7424351999998,364.74548159999995,364.75865039999917,365.42612089999966,,,,,365.4263162999996,365.4420098999999,365.64193629999954,365.6254033999994,364.75865039999917,,,,,,,,1,1,0.6634210000001985,None,,,,,,,,889,20,M,R,2026-02-25_12h17.33.098,VisualSearch_2526_3,,2025.2.4,2026-02-25 12h17.33.307534 +0100,
vertical.xlsx,The target is tilted.,135,16,0,2,0,0,0,0,0,0,0,0,0,0,0,0,1,1,1,135,space,4.23722749999979,None,0,1,0.4683585000002495,None,space,4.971629600000597,None,0,1,1,1,,,,,2,0,16,7,365.64193629999954,,,,,,,,,,,,,,,,,,,,,365.6261081999992,365.64193629999954,366.1253622999993,366.12993389999974,366.146162,366.62581769999997,,,,,366.62601019999966,366.6408668999993,366.8413326,366.82532059999994,366.146162,,,,,,,,0,1,0.4683585000002495,None,,,,,,,,889,20,M,R,2026-02-25_12h17.33.098,VisualSearch_2526_3,,2025.2.4,2026-02-25 12h17.33.307534 +0100,
vertical.xlsx,The target is tilted.,135,17,1,2,1,1,1,1,1,1,1,1,1,1,1,1,0,11,12,135,space,4.23722749999979,None,1,1,1.2582811000002039,None,space,4.971629600000597,None,0,1,1,1,,,,,2,1,17,0,366.8413326,,,,,,,,,,,,,,,,,,,,,366.8260473,366.8413326,367.32497929999954,367.3294920999997,367.34093119999943,368.60821269999997,,,,,368.6084016999994,368.62372309999955,368.82379330000003,368.8075310999993,367.34093119999943,,,,,,,,1,1,1.2582811000002039,None,,,,,,,,889,20,M,R,2026-02-25_12h17.33.098,VisualSearch_2526_3,,2025.2.4,2026-02-25 12h17.33.307534 +0100,
vertical.xlsx,The target is tilted.,135,18,2,2,0,1,1,1,1,1,1,1,0,0,0,0,1,7,8,135,space,4.23722749999979,None,0,1,0.8638066000003164,None,space,4.971629600000597,None,0,1,1,1,,,,,2,2,18,5,368.82379330000003,,,,,,,,,,,,,,,,,,,,,368.8083392999997,368.82379330000003,369.3070340999993,369.3115474999995,369.32661409999946,370.20674039999994,,,,,370.20681799999966,370.222855,370.42292180000004,370.40666650000003,369.32661409999946,,,,,,,,0,1,0.8638066000003164,None,,,,,,,,889,20,M,R,2026-02-25_12h17.33.098,VisualSearch_2526_3,,2025.2.4,2026-02-25 12h17.33.307534 +0100,
vertical.xlsx,The target is tilted.,135,19,3,2,1,1,1,1,0,0,0,0,0,0,0,0,0,3,4,135,space,4.23722749999979,None,1,1,0.5864698000004864,None,space,4.971629600000597,None,0,1,1,1,,,,,2,3,19,2,370.42292180000004,,,,,,,,,,,,,,,,,,,,,370.4074219999993,370.42292180000004,370.90657609999926,370.91128129999925,370.92584239999996,371.52366559999973,,,,,371.5238697999994,371.5387596999999,371.73908140000003,371.7230284999996,370.92584239999996,,,,,,,,1,1,0.5864698000004864,None,,,,,,,,889,20,M,R,2026-02-25_12h17.33.098,VisualSearch_2526_3,,2025.2.4,2026-02-25 12h17.33.307534 +0100,
vertical.xlsx,The target is tilted.,135,20,4,2,1,1,1,1,1,1,1,1,0,0,0,0,0,7,8,135,space,4.23722749999979,None,1,1,0.5706914000002143,None,space,4.971629600000597,None,0,1,1,1,,,,,2,4,20,1,371.73908140000003,,,,,,,,,,,,,,,,,,,,,371.7237617999999,371.73908140000003,372.22277309999936,372.2272327999999,372.2442310999995,372.8230636999997,,,,,372.8232552999998,372.83859329999996,373.0385028999999,373.02235649999966,372.2442310999995,,,,,,,,1,1,0.5706914000002143,None,,,,,,,,889,20,M,R,2026-02-25_12h17.33.098,VisualSearch_2526_3,,2025.2.4,2026-02-25 12h17.33.307534 +0100,
vertical.xlsx,The target is tilted.,135,21,5,2,0,1,1,1,1,1,1,1,1,1,1,1,1,11,12,135,space,4.23722749999979,None,0,1,0.7368812000004255,None,space,4.971629600000597,None,0,1,1,1,,,,,2,5,21,4,373.0385028999999,,,,,,,,,,,,,,,,,,,,,373.0230692999994,373.0385028999999,373.5216705999992,373.52618489999986,373.54230969999935,374.28882259999955,,,,,374.2890123999996,374.3045585,374.50475129999995,374.4883992999994,373.54230969999935,,,,,,,,0,1,0.7368812000004255,None,,,,,,,,889,20,M,R,2026-02-25_12h17.33.098,VisualSearch_2526_3,,2025.2.4,2026-02-25 12h17.33.307534 +0100,
vertical.xlsx,The target is tilted.,135,22,6,2,1,0,0,0,0,0,0,0,0,0,0,0,0,0,1,135,space,4.23722749999979,None,1,1,0.4376917000008689,None,space,4.971629600000597,None,0,1,1,1,,,,,2,6,22,3,374.50475129999995,,,,,,,,,,,,,,,,,,,,,374.4891265999995,374.50475129999995,374.9881792999995,374.9926842999994,375.00969129999976,375.45514769999954,,,,,375.4553378999999,375.4706490999997,375.6703123999996,375.6540447999996,375.00969129999976,,,,,,,,1,1,0.4376917000008689,None,,,,,,,,889,20,M,R,2026-02-25_12h17.33.098,VisualSearch_2526_3,,2025.2.4,2026-02-25 12h17.33.307534 +0100,
vertical.xlsx,The target is tilted.,135,23,7,2,0,1,1,1,0,0,0,0,0,0,0,0,1,3,4,135,space,4.23722749999979,None,0,1,0.5592755000006946,None,space,4.971629600000597,None,0,1,1,1,,,,,2,7,23,6,375.6703123999996,,,,,,,,,,,,,,,,,,,,,375.65479119999964,375.6703123999996,376.15396209999926,376.1585402999999,376.1701994999994,376.73794089999956,,,,,376.7381356999995,376.7534141999995,376.95337499999914,376.9372119999998,376.1701994999994,,,,,,,,0,1,0.5592755000006946,None,,,,,,,,889,20,M,R,2026-02-25_12h17.33.098,VisualSearch_2526_3,,2025.2.4,2026-02-25 12h17.33.307534 +0100,
vertical.xlsx,The target is tilted.,135,24,0,3,1,1,1,1,0,0,0,0,0,0,0,0,0,3,4,135,space,4.23722749999979,None,1,1,0.5304324999997334,None,space,4.971629600000597,None,0,1,1,1,,,,,3,0,24,2,376.95337499999914,,,,,,,,,,,,,,,,,,,,,376.9379205999994,376.95337499999914,377.43699579999975,377.4414788999993,377.45744169999944,378.0038477999997,,,,,378.00405090000004,378.01951310000004,378.21951099999933,378.20337029999973,377.45744169999944,,,,,,,,1,1,0.5304324999997334,None,,,,,,,,889,20,M,R,2026-02-25_12h17.33.098,VisualSearch_2526_3,,2025.2.4,2026-02-25 12h17.33.307534 +0100,
vertical.xlsx,The target is tilted.,135,25,1,3,0,1,1,1,0,0,0,0,0,0,0,0,1,3,4,135,space,4.23722749999979,None,0,1,0.6996666000004552,None,space,4.971629600000597,None,0,1,1,1,,,,,3,1,25,6,378.21951099999933,,,,,,,,,,,,,,,,,,,,,378.20412249999936,378.21951099999933,378.7031709999992,378.70765049999954,378.72456389999934,379.43674529999953,,,,,379.4369145999999,379.4520272,379.6522589999995,379.6357075999995,378.72456389999934,,,,,,,,0,1,0.6996666000004552,None,,,,,,,,889,20,M,R,2026-02-25_12h17.33.098,VisualSearch_2526_3,,2025.2.4,2026-02-25 12h17.33.307534 +0100,
vertical.xlsx,The target is tilted.,135,26,2,3,1,0,0,0,0,0,0,0,0,0,0,0,0,0,1,135,space,4.23722749999979,None,1,1,0.4277160999999978,None,space,4.971629600000597,None,0,1,1,1,,,,,3,2,26,3,379.6522589999995,,,,,,,,,,,,,,,,,,,,,379.6364126999997,379.6522589999995,380.13580699999966,380.14039159999993,380.1563349999997,380.5858737999997,,,,,380.5860645999992,380.60168689999955,380.8016067999997,380.7851303999996,380.1563349999997,,,,,,,,1,1,0.4277160999999978,None,,,,,,,,889,20,M,R,2026-02-25_12h17.33.098,VisualSearch_2526_3,,2025.2.4,2026-02-25 12h17.33.307534 +0100,
vertical.xlsx,The target is tilted.,135,27,3,3,0,0,0,0,0,0,0,0,0,0,0,0,1,1,1,135,space,4.23722749999979,None,0,1,0.6727043999999296,None,space,4.971629600000597,None,0,1,1,1,,,,,3,3,27,7,380.8016067999997,,,,,,,,,,,,,,,,,,,,,380.7858609999994,380.8016067999997,381.28549639999983,381.29011509999964,381.30647749999935,381.98544129999937,,,,,381.98563059999924,382.00076029999946,382.20069069999954,382.1845137,381.30647749999935,,,,,,,,0,1,0.6727043999999296,None,,,,,,,,889,20,M,R,2026-02-25_12h17.33.098,VisualSearch_2526_3,,2025.2.4,2026-02-25 12h17.33.307534 +0100,
vertical.xlsx,The target is tilted.,135,28,4,3,1,1,1,1,1,1,1,1,1,1,1,1,0,11,12,135,space,4.23722749999979,None,1,1,0.7228838000000906,None,space,4.971629600000597,None,0,1,1,1,,,,,3,4,28,0,382.20069069999954,,,,,,,,,,,,,,,,,,,,,382.1852476999993,382.20069069999954,382.6847055999997,382.68923839999934,382.70562469999913,383.4348688,,,,,383.4350637999996,383.4504584999995,383.6498982999992,383.63382999999976,382.70562469999913,,,,,,,,1,1,0.7228838000000906,None,,,,,,,,889,20,M,R,2026-02-25_12h17.33.098,VisualSearch_2526_3,,2025.2.4,2026-02-25 12h17.33.307534 +0100,
vertical.xlsx,The target is tilted.,135,29,5,3,0,1,1,1,1,1,1,1,1,1,1,1,1,11,12,135,space,4.23722749999979,None,0,1,1.4127575000002253,None,space,4.971629600000597,None,0,1,1,1,,,,,3,5,29,4,383.6498982999992,,,,,,,,,,,,,,,,,,,,,383.6345627999999,383.6498982999992,384.1340068999998,384.1385146999992,384.15456059999997,385.5838378999997,,,,,385.58402879999994,385.5993914999999,385.79937319999954,385.7827606999999,384.15456059999997,,,,,,,,0,1,1.4127575000002253,None,,,,,,,,889,20,M,R,2026-02-25_12h17.33.098,VisualSearch_2526_3,,2025.2.4,2026-02-25 12h17.33.307534 +0100,
vertical.xlsx,The target is tilted.,135,30,6,3,1,1,1,1,1,1,1,1,0,0,0,0,0,7,8,135,space,4.23722749999979,None,1,1,0.7917682999996032,None,space,4.971629600000597,None,0,1,1,1,,,,,3,6,30,1,385.79937319999954,,,,,,,,,,,,,,,,,,,,,385.7835114999998,385.79937319999954,386.28305849999924,386.2876744999994,386.3044919999993,387.09957209999993,,,,,387.09976259999985,387.1150078999999,387.3150470999999,387.2992357999992,386.3044919999993,,,,,,,,1,1,0.7917682999996032,None,,,,,,,,889,20,M,R,2026-02-25_12h17.33.098,VisualSearch_2526_3,,2025.2.4,2026-02-25 12h17.33.307534 +0100,
vertical.xlsx,The target is tilted.,135,31,7,3,0,1,1,1,1,1,1,1,0,0,0,0,1,7,8,135,space,4.23722749999979,None,0,1,0.9277246000001469,None,space,4.971629600000597,None,0,1,1,1,,,,,3,7,31,5,387.3150470999999,,,,,,,,,,,,,,,,,,,,,387.29994049999914,387.3150470999999,387.7988971999994,387.8034164999999,387.8209044999994,388.76580169999943,,,,,388.7659937999997,388.781285,388.98079919999964,388.96484259999943,387.8209044999994,,,,,,,,0,1,0.9277246000001469,None,,,,,,,,889,20,M,R,2026-02-25_12h17.33.098,VisualSearch_2526_3,,2025.2.4,2026-02-25 12h17.33.307534 +0100,
vertical.xlsx,The target is tilted.,135,32,0,4,0,1,1,1,1,1,1,1,0,0,0,0,1,7,8,135,space,4.23722749999979,None,0,1,1.5157346000005418,None,space,4.971629600000597,None,0,1,1,1,,,,,4,0,32,5,388.98079919999964,,,,,,,,,,,,,,,,,,,,,388.9655991999998,388.98079919999964,389.4649993999992,389.46960109999964,389.48658759999944,391.01483709999957,,,,,391.01504939999995,391.03031809999993,391.23023269999976,391.21406189999925,389.48658759999944,,,,,,,,0,1,1.5157346000005418,None,,,,,,,,889,20,M,R,2026-02-25_12h17.33.098,VisualSearch_2526_3,,2025.2.4,2026-02-25 12h17.33.307534 +0100,
vertical.xlsx,The target is tilted.,135,33,1,4,1,1,1,1,0,0,0,0,0,0,0,0,0,3,4,135,space,4.23722749999979,None,1,1,0.5790134999997463,None,space,4.971629600000597,None,0,1,1,1,,,,,4,1,33,2,391.23023269999976,,,,,,,,,,,,,,,,,,,,,391.21477139999934,391.23023269999976,391.7135515,391.7159093999999,391.7298697999995,392.3140561,,,,,392.31426869999996,392.3296400999998,392.52947029999996,392.51353109999945,391.7298697999995,,,,,,,,1,1,0.5790134999997463,None,,,,,,,,889,20,M,R,2026-02-25_12h17.33.098,VisualSearch_2526_3,,2025.2.4,2026-02-25 12h17.33.307534 +0100,
vertical.xlsx,The target is tilted.,135,34,2,4,1,0,0,0,0,0,0,0,0,0,0,0,0,0,1,135,space,4.23722749999979,None,1,1,0.48971870000059425,None,space,4.971629600000597,None,0,1,1,1,,,,,4,2,34,3,392.52947029999996,,,,,,,,,,,,,,,,,,,,,392.51424659999975,392.52947029999996,393.01316339999994,393.0176445999996,393.03359999999975,393.5301649999992,,,,,393.5303572999992,393.5455192999998,393.74529429999984,393.7294200999995,393.03359999999975,,,,,,,,1,1,0.48971870000059425,None,,,,,,,,889,20,M,R,2026-02-25_12h17.33.098,VisualSearch_2526_3,,2025.2.4,2026-02-25 12h17.33.307534 +0100,
