file_name,block_instructions,target_example,thisN,thisTrialN,thisRepN,target_presence,opacity_1,opacity_2,opacity_3,opacity_4,opacity_5,opacity_6,opacity_7,opacity_8,opacity_9,opacity_10,opacity_11,opacity_12,n_distract,n_items,target_ori,key_resp_4.keys,key_resp_4.rt,key_resp_4.duration,key_resp.keys,key_resp.corr,key_resp.rt,key_resp.duration,key_resp_5.keys,key_resp_5.rt,key_resp_5.duration,blocks.thisRepN,blocks.thisTrialN,blocks.thisN,blocks.thisIndex,practice_trials.thisRepN,practice_trials.thisTrialN,practice_trials.thisN,practice_trials.thisIndex,trials.thisRepN,trials.thisTrialN,trials.thisN,trials.thisIndex,thisRow.t,notes,Welcome.started,WelcomeText.started,key_resp_2.started,Welcome.stopped,key_resp_2.keys,key_resp_2.rt,key_resp_2.duration,InformedConsent.started,text_4.started,InformedConsent.stopped,key_resp_6.keys,key_resp_6.rt,key_resp_6.duration,key_resp_4.started,example_target.started,text_3.started,blocks.key_resp_4.keys,blocks.key_resp_4.rt,blocks.key_resp_4.duration,FixCross.started,fixCross.started,FixCross.stopped,Stimulus.started,key_resp.started,Stimulus.stopped,practice_trials.key_resp.keys,practice_trials.key_resp.corr,practice_trials.key_resp.rt,practice_trials.key_resp.duration,BlankScreen.started,text.started,text.stopped,BlankScreen.stopped,fixCross.stopped,ExperimentStart.started,text_2.started,key_resp_5.started,ExperimentStart.stopped,blocks.key_resp_5.keys,blocks.key_resp_5.rt,blocks.key_resp_5.duration,trials.key_resp.keys,trials.key_resp.corr,trials.key_resp.rt,trials.key_resp.duration,Thanks.started,ThankYou.started,key_resp_3.started,Thanks.stopped,key_resp_3.keys,key_resp_3.rt,key_resp_3.duration,participant,leeftijd,gender,links/rechtshandig,date,expName,expVersion,psychopyVersion,expStart,
,,,,,,,,,,,,,,,,,,,,,,,,,,,,,,,,,,,,,,,,,,,,,,0.013414900000043417,0.02555110000002969,0.02555110000002969,85.98845099999994,space,85.9456244999999,None,,,,,,,,,,,,,,,,,,,,,,,,,,,,,,,,,,,,,,,,,,,,,,889,20,V,R,2026-02-23_11h26.53.770,VisualSearch_2526_3,,2025.2.4,2026-02-23 11h26.53.960168 +0100,
,,,,,,,,,,,,,,,,,,,,,,,,,,,,,,,,,,,,,,,,,,,,,,,,,,,,,85.98855959999992,85.99566460000005,100.96767840000007,y,14.967734600000085,None,,,,,,,,,,,,,,,,,,,,,,,,,,,,,,,,,,,,,,,,889,20,V,R,2026-02-23_11h26.53.770,VisualSearch_2526_3,,2025.2.4,2026-02-23 11h26.53.960168 +0100,
tilted.xlsx,The target is tilted.,117,0,0,0,0,1,1,1,0,0,0,0,0,0,0,0,1,3,4,117,space,8.305506700000024,None,1,0,2.4408405000001494,None,,,,0,0,0,0,0,0,0,6,,,,,109.36124730000006,,,,,,,,,,,,,,,101.01274009999997,101.01274009999997,101.01274009999997,space,8.305506700000024,None,109.35565569999994,109.36124730000006,109.8459600000001,109.8507889,109.86827840000001,112.31240860000003,1,0,2.4408405000001494,None,112.31261999999992,112.32766459999993,112.52777399999991,112.51170860000002,,,,,,,,,,,,,,,,,,,,889,20,V,R,2026-02-23_11h26.53.770,VisualSearch_2526_3,,2025.2.4,2026-02-23 11h26.53.960168 +0100,
tilted.xlsx,The target is tilted.,117,1,1,0,0,0,0,0,0,0,0,0,0,0,0,0,1,1,1,117,space,8.305506700000024,None,1,0,1.561304199999995,None,,,,0,0,0,0,0,1,1,7,,,,,112.52777399999991,,,,,,,,,,,,,,,,,,,,,112.51234750000003,112.52777399999991,113.01147059999994,113.01617540000007,113.03268879999996,114.61126310000009,1,0,1.561304199999995,None,114.61146179999992,114.62675239999999,114.82672329999991,114.8106620000001,113.03268879999996,,,,,,,,,,,,,,,,,,,889,20,V,R,2026-02-23_11h26.53.770,VisualSearch_2526_3,,2025.2.4,2026-02-23 11h26.53.960168 +0100,
tilted.xlsx,The target is tilted.,117,2,2,0,1,0,0,0,0,0,0,0,0,0,0,0,0,0,1,117,space,8.305506700000024,None,1,1,1.322267600000032,None,,,,0,0,0,0,0,2,2,3,,,,,114.82672329999991,,,,,,,,,,,,,,,,,,,,,114.81129959999998,114.82672329999991,115.31032430000005,115.31491180000012,115.33162659999994,116.66028419999998,1,1,1.322267600000032,None,116.66047720000006,116.67521749999992,116.87563470000009,116.8595537000001,115.33162659999994,,,,,,,,,,,,,,,,,,,889,20,V,R,2026-02-23_11h26.53.770,VisualSearch_2526_3,,2025.2.4,2026-02-23 11h26.53.960168 +0100,
tilted.xlsx,The target is tilted.,117,3,3,0,0,1,1,1,1,1,1,1,0,0,0,0,1,7,8,117,space,8.305506700000024,None,1,0,3.7069342000002052,None,,,,0,0,0,0,0,3,3,5,,,,,116.87563470000009,,,,,,,,,,,,,,,,,,,,,116.86022670000011,116.87563470000009,117.35945119999997,117.36399219999998,117.38104380000004,121.09122249999996,1,0,3.7069342000002052,None,121.09142259999999,121.10658250000006,121.30695990000004,121.2908519,117.38104380000004,,,,,,,,,,,,,,,,,,,889,20,V,R,2026-02-23_11h26.53.770,VisualSearch_2526_3,,2025.2.4,2026-02-23 11h26.53.960168 +0100,
tilted.xlsx,The target is tilted.,117,4,4,0,0,1,1,1,1,1,1,1,1,1,1,1,1,11,12,117,space,8.305506700000024,None,0,1,4.2749337999998716,None,,,,0,0,0,0,0,4,4,4,,,,,121.30695990000004,,,,,,,,,,,,,,,,,,,,,121.29153120000001,121.30695990000004,121.79082229999995,121.79543089999993,121.81452110000009,126.10524250000003,0,1,4.2749337999998716,None,126.10542959999998,126.1208924,126.32125969999993,126.3053488999999,121.81452110000009,,,,,,,,,,,,,,,,,,,889,20,V,R,2026-02-23_11h26.53.770,VisualSearch_2526_3,,2025.2.4,2026-02-23 11h26.53.960168 +0100,
tilted.xlsx,The target is tilted.,117,5,5,0,1,1,1,1,1,1,1,1,0,0,0,0,0,7,8,117,space,8.305506700000024,None,1,1,2.990335999999843,None,,,,0,0,0,0,0,5,5,1,,,,,126.32125969999993,,,,,,,,,,,,,,,,,,,,,126.30598910000003,126.32125969999993,126.8048240999999,126.80946829999993,126.82549990000007,129.82084910000003,1,1,2.990335999999843,None,129.82103989999996,129.835955,130.03657879999992,130.02029310000012,126.82549990000007,,,,,,,,,,,,,,,,,,,889,20,V,R,2026-02-23_11h26.53.770,VisualSearch_2526_3,,2025.2.4,2026-02-23 11h26.53.960168 +0100,
tilted.xlsx,The target is tilted.,117,6,6,0,1,1,1,1,1,1,1,1,1,1,1,1,0,11,12,117,space,8.305506700000024,None,0,0,3.6298487999997633,None,,,,0,0,0,0,0,6,6,0,,,,,130.03657879999992,,,,,,,,,,,,,,,,,,,,,130.02096490000008,130.03657879999992,130.52013520000014,130.52482880000002,130.54168349999986,134.18467399999986,0,0,3.6298487999997633,None,134.18476570000007,134.20046690000004,134.40120809999985,134.3849603000001,130.54168349999986,,,,,,,,,,,,,,,,,,,889,20,V,R,2026-02-23_11h26.53.770,VisualSearch_2526_3,,2025.2.4,2026-02-23 11h26.53.960168 +0100,
tilted.xlsx,The target is tilted.,117,7,7,0,1,1,1,1,0,0,0,0,0,0,0,0,0,3,4,117,space,8.305506700000024,None,1,1,1.7769714000000931,None,,,,0,0,0,0,0,7,7,2,,,,,134.40120809999985,,,,,,,,,,,,,,,,,,,,,134.3857386000002,134.40120809999985,134.88482980000003,134.889543,134.9078109999998,136.6997955999998,1,1,1.7769714000000931,None,136.69988549999994,136.7164540000001,,136.90027170000008,134.9078109999998,,,,,,,,,,,,,,,,,,,889,20,V,R,2026-02-23_11h26.53.770,VisualSearch_2526_3,,2025.2.4,2026-02-23 11h26.53.960168 +0100,
tilted.xlsx,The target is tilted.,117,0,0,0,1,1,1,1,0,0,0,0,0,0,0,0,0,3,4,117,space,8.305506700000024,None,1,1,10.646864800000003,None,space,2.1092979999998533,None,0,0,0,0,,,,,0,0,0,2,139.0633661999998,,,,,,,,,,,,,,,,,,,,,139.05928359999984,139.0633661999998,139.54907290000006,139.55379749999997,139.5706149,150.22770019999984,,,,,150.22785069999986,150.2432465999998,150.4437558000002,150.42760840000005,,136.9071646,136.91670249999993,136.91670249999993,139.0331652000002,space,2.1092979999998533,None,1,1,10.646864800000003,None,,,,,,,,889,20,V,R,2026-02-23_11h26.53.770,VisualSearch_2526_3,,2025.2.4,2026-02-23 11h26.53.960168 +0100,
tilted.xlsx,The target is tilted.,117,1,1,0,0,1,1,1,0,0,0,0,0,0,0,0,1,3,4,117,space,8.305506700000024,None,0,1,1.1371019000002889,None,space,2.1092979999998533,None,0,0,0,0,,,,,0,1,1,6,150.4437558000002,,,,,,,,,,,,,,,,,,,,,150.42839909999998,150.4437558000002,150.92732869999986,150.93200219999994,150.94874249999998,152.0941706000001,,,,,152.09436429999982,152.10906439999985,152.30932030000008,152.2937801999999,150.94874249999998,,,,,,,,0,1,1.1371019000002889,None,,,,,,,,889,20,V,R,2026-02-23_11h26.53.770,VisualSearch_2526_3,,2025.2.4,2026-02-23 11h26.53.960168 +0100,
tilted.xlsx,The target is tilted.,117,2,2,0,1,1,1,1,1,1,1,1,1,1,1,1,0,11,12,117,space,8.305506700000024,None,1,1,3.1124995000000126,None,space,2.1092979999998533,None,0,0,0,0,,,,,0,2,2,0,152.30932030000008,,,,,,,,,,,,,,,,,,,,,152.29448939999997,152.30932030000008,152.79314219999992,152.7978311999998,152.8148408999998,155.94194649999986,,,,,155.9421504999998,155.95744979999995,156.15797959999986,156.14173800000003,152.8148408999998,,,,,,,,1,1,3.1124995000000126,None,,,,,,,,889,20,V,R,2026-02-23_11h26.53.770,VisualSearch_2526_3,,2025.2.4,2026-02-23 11h26.53.960168 +0100,
tilted.xlsx,The target is tilted.,117,3,3,0,1,1,1,1,1,1,1,1,0,0,0,0,0,7,8,117,space,8.305506700000024,None,1,1,3.2537160000001677,None,space,2.1092979999998533,None,0,0,0,0,,,,,0,3,3,1,156.15797959999986,,,,,,,,,,,,,,,,,,,,,156.14250259999994,156.15797959999986,156.64172810000014,156.6463467000001,156.66310110000018,159.92369840000015,,,,,159.92389849999995,159.9389392999999,160.13935340000012,160.1233937999998,156.66310110000018,,,,,,,,1,1,3.2537160000001677,None,,,,,,,,889,20,V,R,2026-02-23_11h26.53.770,VisualSearch_2526_3,,2025.2.4,2026-02-23 11h26.53.960168 +0100,
tilted.xlsx,The target is tilted.,117,4,4,0,1,0,0,0,0,0,0,0,0,0,0,0,0,0,1,117,space,8.305506700000024,None,1,1,1.1046955000001617,None,space,2.1092979999998533,None,0,0,0,0,,,,,0,4,4,3,160.13935340000012,,,,,,,,,,,,,,,,,,,,,160.1242034999998,160.13935340000012,160.6229697000001,160.6276261999999,160.6443608000002,161.75568959999987,,,,,161.75578699999983,161.77122480000003,161.97159320000014,161.95543440000006,160.6443608000002,,,,,,,,1,1,1.1046955000001617,None,,,,,,,,889,20,V,R,2026-02-23_11h26.53.770,VisualSearch_2526_3,,2025.2.4,2026-02-23 11h26.53.960168 +0100,
tilted.xlsx,The target is tilted.,117,5,5,0,0,1,1,1,1,1,1,1,1,1,1,1,1,11,12,117,space,8.305506700000024,None,0,1,11.436840900000334,None,space,2.1092979999998533,None,0,0,0,0,,,,,0,5,5,4,161.97159320000014,,,,,,,,,,,,,,,,,,,,,161.95613639999988,161.97159320000014,162.45543209999983,162.46014870000022,162.47522809999987,173.91707680000013,,,,,173.9172289999999,173.93241220000004,174.1326803999998,174.1171522000002,162.47522809999987,,,,,,,,0,1,11.436840900000334,None,,,,,,,,889,20,V,R,2026-02-23_11h26.53.770,VisualSearch_2526_3,,2025.2.4,2026-02-23 11h26.53.960168 +0100,
tilted.xlsx,The target is tilted.,117,6,6,0,0,1,1,1,1,1,1,1,0,0,0,0,1,7,8,117,space,8.305506700000024,None,0,1,4.1660822999997436,None,space,2.1092979999998533,None,0,0,0,0,,,,,0,6,6,5,174.1326803999998,,,,,,,,,,,,,,,,,,,,,174.1178499,174.1326803999998,174.6165712999998,174.62126460000013,174.6381643000002,178.81519319999984,,,,,178.81539140000018,178.83027640000023,179.0307077,179.0143770000002,174.6381643000002,,,,,,,,0,1,4.1660822999997436,None,,,,,,,,889,20,V,R,2026-02-23_11h26.53.770,VisualSearch_2526_3,,2025.2.4,2026-02-23 11h26.53.960168 +0100,
tilted.xlsx,The target is tilted.,117,7,7,0,0,0,0,0,0,0,0,0,0,0,0,0,1,1,1,117,space,8.305506700000024,None,0,1,0.9355917999996564,None,space,2.1092979999998533,None,0,0,0,0,,,,,0,7,7,7,179.0307077,,,,,,,,,,,,,,,,,,,,,179.01512900000012,179.0307077,179.51438840000014,179.52028739999992,179.53572379999991,180.4812886000002,,,,,180.48148070000002,180.49621760000014,180.6963956000002,180.6802528999999,179.53572379999991,,,,,,,,0,1,0.9355917999996564,None,,,,,,,,889,20,V,R,2026-02-23_11h26.53.770,VisualSearch_2526_3,,2025.2.4,2026-02-23 11h26.53.960168 +0100,
tilted.xlsx,The target is tilted.,117,8,0,1,1,1,1,1,1,1,1,1,0,0,0,0,0,7,8,117,space,8.305506700000024,None,1,1,4.247484299999996,None,space,2.1092979999998533,None,0,0,0,0,,,,,1,0,8,1,180.6963956000002,,,,,,,,,,,,,,,,,,,,,180.6809523999998,180.6963956000002,181.18032620000008,181.18500070000005,181.19639119999988,185.44568970000023,,,,,185.4458892,185.46056220000014,185.6611759,185.64479069999993,181.19639119999988,,,,,,,,1,1,4.247484299999996,None,,,,,,,,889,20,V,R,2026-02-23_11h26.53.770,VisualSearch_2526_3,,2025.2.4,2026-02-23 11h26.53.960168 +0100,
tilted.xlsx,The target is tilted.,117,9,1,1,1,0,0,0,0,0,0,0,0,0,0,0,0,0,1,117,space,8.305506700000024,None,1,1,1.1553231000002597,None,space,2.1092979999998533,None,0,0,0,0,,,,,1,1,9,3,185.6611759,,,,,,,,,,,,,,,,,,,,,185.6454971999999,185.6611759,186.1447854999999,186.1494421,186.16508230000022,187.3282339,,,,,187.32843230000003,187.34310759999994,187.5436403000001,187.52757829999996,186.16508230000022,,,,,,,,1,1,1.1553231000002597,None,,,,,,,,889,20,V,R,2026-02-23_11h26.53.770,VisualSearch_2526_3,,2025.2.4,2026-02-23 11h26.53.960168 +0100,
tilted.xlsx,The target is tilted.,117,10,2,1,0,1,1,1,1,1,1,1,1,1,1,1,1,11,12,117,space,8.305506700000024,None,0,1,5.476822300000094,None,space,2.1092979999998533,None,0,0,0,0,,,,,1,2,10,4,187.5436403000001,,,,,,,,,,,,,,,,,,,,,187.52830000000017,187.5436403000001,188.02736389999995,188.03199590000008,188.04855199999997,193.5410205999999,,,,,193.5411617000002,193.5570352000002,193.75754070000016,193.74127729999987,188.04855199999997,,,,,,,,0,1,5.476822300000094,None,,,,,,,,889,20,V,R,2026-02-23_11h26.53.770,VisualSearch_2526_3,,2025.2.4,2026-02-23 11h26.53.960168 +0100,
tilted.xlsx,The target is tilted.,117,11,3,1,0,1,1,1,0,0,0,0,0,0,0,0,1,3,4,117,space,8.305506700000024,None,0,1,1.3957500999999866,None,space,2.1092979999998533,None,0,0,0,0,,,,,1,3,11,6,193.75754070000016,,,,,,,,,,,,,,,,,,,,,193.7420192000002,193.75754070000016,194.24075389999985,194.24544140000012,194.26174539999988,195.67366199999992,,,,,195.67387230000008,195.6892488000001,195.88967290000005,195.87376199999994,194.26174539999988,,,,,,,,0,1,1.3957500999999866,None,,,,,,,,889,20,V,R,2026-02-23_11h26.53.770,VisualSearch_2526_3,,2025.2.4,2026-02-23 11h26.53.960168 +0100,
tilted.xlsx,The target is tilted.,117,12,4,1,1,1,1,1,0,0,0,0,0,0,0,0,0,3,4,117,space,8.305506700000024,None,1,1,1.1331856000001608,None,space,2.1092979999998533,None,0,0,0,0,,,,,1,4,12,2,195.88967290000005,,,,,,,,,,,,,,,,,,,,,195.8745663000002,195.88967290000005,196.3734452000001,196.37814300000014,196.39472150000006,197.5401903999998,,,,,197.5403871000001,197.55510919999983,197.75541260000023,197.73946120000005,196.39472150000006,,,,,,,,1,1,1.1331856000001608,None,,,,,,,,889,20,V,R,2026-02-23_11h26.53.770,VisualSearch_2526_3,,2025.2.4,2026-02-23 11h26.53.960168 +0100,
tilted.xlsx,The target is tilted.,117,13,5,1,0,0,0,0,0,0,0,0,0,0,0,0,1,1,1,117,space,8.305506700000024,None,0,1,2.0080290999999306,None,space,2.1092979999998533,None,0,0,0,0,,,,,1,5,13,7,197.75541260000023,,,,,,,,,,,,,,,,,,,,,197.74020050000013,197.75541260000023,198.23887820000004,198.2435366000002,198.2605258000001,200.27199309999992,,,,,200.27220310000007,200.2873522000002,200.48740350000003,200.47140259999992,198.2605258000001,,,,,,,,0,1,2.0080290999999306,None,,,,,,,,889,20,V,R,2026-02-23_11h26.53.770,VisualSearch_2526_3,,2025.2.4,2026-02-23 11h26.53.960168 +0100,
tilted.xlsx,The target is tilted.,117,14,6,1,1,1,1,1,1,1,1,1,1,1,1,1,0,11,12,117,space,8.305506700000024,None,1,1,2.044659600000159,None,space,2.1092979999998533,None,0,0,0,0,,,,,1,6,14,0,200.48740350000003,,,,,,,,,,,,,,,,,,,,,200.47212379999996,200.48740350000003,200.9716805999999,200.97676909999996,200.99311580000017,203.05358839999985,,,,,203.05378489999998,203.06937810000022,203.26972390000014,203.25318670000001,200.99311580000017,,,,,,,,1,1,2.044659600000159,None,,,,,,,,889,20,V,R,2026-02-23_11h26.53.770,VisualSearch_2526_3,,2025.2.4,2026-02-23 11h26.53.960168 +0100,
tilted.xlsx,The target is tilted.,117,15,7,1,0,1,1,1,1,1,1,1,0,0,0,0,1,7,8,117,space,8.305506700000024,None,0,1,3.3660141000000294,None,space,2.1092979999998533,None,0,0,0,0,,,,,1,7,15,5,203.26972390000014,,,,,,,,,,,,,,,,,,,,,203.25381149999998,203.26972390000014,203.75341240000012,203.75809390000018,203.7694269000001,207.1509996000002,,,,,207.1511168999998,207.16769739999995,,207.3517419000002,203.7694269000001,,,,,,,,0,1,3.3660141000000294,None,,,,,,,,889,20,V,R,2026-02-23_11h26.53.770,VisualSearch_2526_3,,2025.2.4,2026-02-23 11h26.53.960168 +0100,
tilted.xlsx,The target is tilted.,117,16,0,2,1,0,0,0,0,0,0,0,0,0,0,0,0,0,1,117,space,8.305506700000024,None,1,1,0.7623155000001134,None,space,2.1092979999998533,None,0,0,0,0,,,,,2,0,16,3,207.36804259999985,,,,,,,,,,,,,,,,,,,,,207.35259950000022,207.36804259999985,207.8514361,207.8561084999999,207.8735548000002,208.65092549999986,,,,,208.65110059999984,208.66667979999988,208.86727300000007,208.85129489999986,,,,,,,,,1,1,0.7623155000001134,None,,,,,,,,889,20,V,R,2026-02-23_11h26.53.770,VisualSearch_2526_3,,2025.2.4,2026-02-23 11h26.53.960168 +0100,
tilted.xlsx,The target is tilted.,117,17,1,2,0,1,1,1,1,1,1,1,1,1,1,1,1,11,12,117,space,8.305506700000024,None,0,1,4.285392400000092,None,space,2.1092979999998533,None,0,0,0,0,,,,,2,1,17,4,208.86727300000007,,,,,,,,,,,,,,,,,,,,,208.8519961999998,208.86727300000007,209.3509932999998,209.35560240000018,209.37216060000014,213.66572950000023,,,,,213.66587080000022,213.6810736,213.88131679999992,213.86551600000007,209.37216060000014,,,,,,,,0,1,4.285392400000092,None,,,,,,,,889,20,V,R,2026-02-23_11h26.53.770,VisualSearch_2526_3,,2025.2.4,2026-02-23 11h26.53.960168 +0100,
tilted.xlsx,The target is tilted.,117,18,2,2,1,1,1,1,1,1,1,1,1,1,1,1,0,11,12,117,space,8.305506700000024,None,1,1,1.7099923000000672,None,space,2.1092979999998533,None,0,0,0,0,,,,,2,2,18,0,213.88131679999992,,,,,,,,,,,,,,,,,,,,,213.86626450000017,213.88131679999992,214.36527880000017,214.3699783999998,214.38533780000012,216.0986177000002,,,,,216.09885150000014,216.1133616999998,216.31392970000002,216.29765460000021,214.38533780000012,,,,,,,,1,1,1.7099923000000672,None,,,,,,,,889,20,V,R,2026-02-23_11h26.53.770,VisualSearch_2526_3,,2025.2.4,2026-02-23 11h26.53.960168 +0100,
tilted.xlsx,The target is tilted.,117,19,3,2,0,1,1,1,0,0,0,0,0,0,0,0,1,3,4,117,space,8.305506700000024,None,0,1,0.9534172999997281,None,space,2.1092979999998533,None,0,0,0,0,,,,,2,3,19,6,216.31392970000002,,,,,,,,,,,,,,,,,,,,,216.29838089999998,216.31392970000002,216.79752650000023,216.80213780000008,216.81913820000022,217.78159280000023,,,,,217.78178599999978,217.79592149999985,217.99639820000016,217.98035270000014,216.81913820000022,,,,,,,,0,1,0.9534172999997281,None,,,,,,,,889,20,V,R,2026-02-23_11h26.53.770,VisualSearch_2526_3,,2025.2.4,2026-02-23 11h26.53.960168 +0100,
tilted.xlsx,The target is tilted.,117,20,4,2,0,1,1,1,1,1,1,1,0,0,0,0,1,7,8,117,space,8.305506700000024,None,0,1,3.5193208999999115,None,space,2.1092979999998533,None,0,0,0,0,,,,,2,4,20,5,217.99639820000016,,,,,,,,,,,,,,,,,,,,,217.9810513,217.99639820000016,218.47977680000008,218.4844297000002,218.4982493,222.02901009999982,,,,,222.0292063999998,222.0441311000002,222.24439319999988,222.2279377000002,218.4982493,,,,,,,,0,1,3.5193208999999115,None,,,,,,,,889,20,V,R,2026-02-23_11h26.53.770,VisualSearch_2526_3,,2025.2.4,2026-02-23 11h26.53.960168 +0100,
tilted.xlsx,The target is tilted.,117,21,5,2,0,0,0,0,0,0,0,0,0,0,0,0,1,1,1,117,space,8.305506700000024,None,0,1,0.9186465999996472,None,space,2.1092979999998533,None,0,0,0,0,,,,,2,5,21,7,222.24439319999988,,,,,,,,,,,,,,,,,,,,,222.22844139999984,222.24439319999988,222.72824719999994,222.73290789999987,222.75004349999995,223.67770589999986,,,,,223.67786219999994,223.69314659999986,223.8937985,223.8775874999999,222.75004349999995,,,,,,,,0,1,0.9186465999996472,None,,,,,,,,889,20,V,R,2026-02-23_11h26.53.770,VisualSearch_2526_3,,2025.2.4,2026-02-23 11h26.53.960168 +0100,
tilted.xlsx,The target is tilted.,117,22,6,2,1,1,1,1,1,1,1,1,0,0,0,0,0,7,8,117,space,8.305506700000024,None,1,1,1.1716351000000031,None,space,2.1092979999998533,None,0,0,0,0,,,,,2,6,22,1,223.8937985,,,,,,,,,,,,,,,,,,,,,223.87833440000009,223.8937985,224.37743160000014,224.38211239999987,224.39848529999995,225.57722850000005,,,,,225.57742110000004,225.59241260000022,225.7927470000002,225.7767454000002,224.39848529999995,,,,,,,,1,1,1.1716351000000031,None,,,,,,,,889,20,V,R,2026-02-23_11h26.53.770,VisualSearch_2526_3,,2025.2.4,2026-02-23 11h26.53.960168 +0100,
tilted.xlsx,The target is tilted.,117,23,7,2,1,1,1,1,0,0,0,0,0,0,0,0,0,3,4,117,space,8.305506700000024,None,1,1,0.616161099999772,None,space,2.1092979999998533,None,0,0,0,0,,,,,2,7,23,2,225.7927470000002,,,,,,,,,,,,,,,,,,,,,225.77744689999986,225.7927470000002,226.27664750000008,226.28148850000002,226.29818649999993,226.92659600000002,,,,,226.92677260000005,226.94175579999978,227.14216469999997,227.12613739999983,226.29818649999993,,,,,,,,1,1,0.616161099999772,None,,,,,,,,889,20,V,R,2026-02-23_11h26.53.770,VisualSearch_2526_3,,2025.2.4,2026-02-23 11h26.53.960168 +0100,
tilted.xlsx,The target is tilted.,117,24,0,3,0,1,1,1,1,1,1,1,0,0,0,0,1,7,8,117,space,8.305506700000024,None,0,1,3.0433889999999337,None,space,2.1092979999998533,None,0,0,0,0,,,,,3,0,24,5,227.14216469999997,,,,,,,,,,,,,,,,,,,,,227.12687530000017,227.14216469999997,227.62611059999995,227.6311389,227.64748570000006,230.70691939999983,,,,,230.7070124999998,230.7237321,,230.90746890000014,227.64748570000006,,,,,,,,0,1,3.0433889999999337,None,,,,,,,,889,20,V,R,2026-02-23_11h26.53.770,VisualSearch_2526_3,,2025.2.4,2026-02-23 11h26.53.960168 +0100,
tilted.xlsx,The target is tilted.,117,25,1,3,0,1,1,1,1,1,1,1,1,1,1,1,1,11,12,117,space,8.305506700000024,None,0,1,2.8952196999998705,None,space,2.1092979999998533,None,0,0,0,0,,,,,3,1,25,4,230.92395939999983,,,,,,,,,,,,,,,,,,,,,230.9082095000001,230.92395939999983,231.40735109999991,231.41207850000023,231.42815450000012,234.33924679999996,,,,,234.33942360000015,234.35501980000004,234.55515900000023,234.53906819999997,,,,,,,,,0,1,2.8952196999998705,None,,,,,,,,889,20,V,R,2026-02-23_11h26.53.770,VisualSearch_2526_3,,2025.2.4,2026-02-23 11h26.53.960168 +0100,
tilted.xlsx,The target is tilted.,117,26,2,3,1,1,1,1,1,1,1,1,1,1,1,1,0,11,12,117,space,8.305506700000024,None,1,1,3.6410408999995525,None,space,2.1092979999998533,None,0,0,0,0,,,,,3,2,26,0,234.55515900000023,,,,,,,,,,,,,,,,,,,,,234.53979790000017,234.55515900000023,235.03885479999985,235.04342209999982,235.05564419999996,238.70485170000006,,,,,238.7050525000002,238.7197718,238.92023089999998,238.90412249999986,235.05564419999996,,,,,,,,1,1,3.6410408999995525,None,,,,,,,,889,20,V,R,2026-02-23_11h26.53.770,VisualSearch_2526_3,,2025.2.4,2026-02-23 11h26.53.960168 +0100,
tilted.xlsx,The target is tilted.,117,27,3,3,0,1,1,1,0,0,0,0,0,0,0,0,1,3,4,117,space,8.305506700000024,None,0,1,1.9522447999997894,None,space,2.1092979999998533,None,0,0,0,0,,,,,3,3,27,6,238.92023089999998,,,,,,,,,,,,,,,,,,,,,238.90485580000018,238.92023089999998,239.4038552999998,239.40848660000006,239.42684889999987,241.38675780000017,,,,,241.3869400000001,241.4018306999999,241.60232370000017,241.58617609999988,239.42684889999987,,,,,,,,0,1,1.9522447999997894,None,,,,,,,,889,20,V,R,2026-02-23_11h26.53.770,VisualSearch_2526_3,,2025.2.4,2026-02-23 11h26.53.960168 +0100,
tilted.xlsx,The target is tilted.,117,28,4,3,1,0,0,0,0,0,0,0,0,0,0,0,0,0,1,117,space,8.305506700000024,None,1,1,0.9803882999999587,None,space,2.1092979999998533,None,0,0,0,0,,,,,3,4,28,3,241.60232370000017,,,,,,,,,,,,,,,,,,,,,241.58691810000005,241.60232370000017,242.0859238999999,242.09055950000015,242.10867470000017,243.1016462,,,,,243.10175060000006,243.1181479999998,243.3182863999998,243.3018215999998,242.10867470000017,,,,,,,,1,1,0.9803882999999587,None,,,,,,,,889,20,V,R,2026-02-23_11h26.53.770,VisualSearch_2526_3,,2025.2.4,2026-02-23 11h26.53.960168 +0100,
tilted.xlsx,The target is tilted.,117,29,5,3,0,0,0,0,0,0,0,0,0,0,0,0,1,1,1,117,space,8.305506700000024,None,0,1,0.5709679999999935,None,space,2.1092979999998533,None,0,0,0,0,,,,,3,5,29,7,243.3182863999998,,,,,,,,,,,,,,,,,,,,,243.3025538999998,243.3182863999998,243.80171450000012,243.8063679999998,243.8228276000002,244.4009791000001,,,,,244.40106040000023,244.41701420000004,244.61741400000005,244.60080810000022,243.8228276000002,,,,,,,,0,1,0.5709679999999935,None,,,,,,,,889,20,V,R,2026-02-23_11h26.53.770,VisualSearch_2526_3,,2025.2.4,2026-02-23 11h26.53.960168 +0100,
tilted.xlsx,The target is tilted.,117,30,6,3,1,1,1,1,0,0,0,0,0,0,0,0,0,3,4,117,space,8.305506700000024,None,1,1,0.7886161000001266,None,space,2.1092979999998533,None,0,0,0,0,,,,,3,6,30,2,244.61741400000005,,,,,,,,,,,,,,,,,,,,,244.60126990000003,244.61741400000005,245.10115710000014,245.10572690000004,245.1172236,245.91764369999987,,,,,245.91782420000004,245.9330051999998,246.13352370000007,246.11786099999995,245.1172236,,,,,,,,1,1,0.7886161000001266,None,,,,,,,,889,20,V,R,2026-02-23_11h26.53.770,VisualSearch_2526_3,,2025.2.4,2026-02-23 11h26.53.960168 +0100,
tilted.xlsx,The target is tilted.,117,31,7,3,1,1,1,1,1,1,1,1,0,0,0,0,0,7,8,117,space,8.305506700000024,None,1,1,4.1632902000001195,None,space,2.1092979999998533,None,0,0,0,0,,,,,3,7,31,1,246.13352370000007,,,,,,,,,,,,,,,,,,,,,246.11853739999992,246.13352370000007,246.61744049999993,246.62232749999998,246.63793599999985,250.81541970000012,,,,,250.81561549999992,250.83098670000004,251.03130699999997,251.0152811999999,246.63793599999985,,,,,,,,1,1,4.1632902000001195,None,,,,,,,,889,20,V,R,2026-02-23_11h26.53.770,VisualSearch_2526_3,,2025.2.4,2026-02-23 11h26.53.960168 +0100,
tilted.xlsx,The target is tilted.,117,32,0,4,0,1,1,1,1,1,1,1,0,0,0,0,1,7,8,117,space,8.305506700000024,None,0,1,7.515755700000227,None,space,2.1092979999998533,None,0,0,0,0,,,,,4,0,32,5,251.03130699999997,,,,,,,,,,,,,,,,,,,,,251.01601330000017,251.03130699999997,251.5151486000002,251.51973890000022,251.5378647,259.06189830000017,,,,,259.0620993,259.07708720000005,259.27741029999993,259.26189249999993,251.5378647,,,,,,,,0,1,7.515755700000227,None,,,,,,,,889,20,V,R,2026-02-23_11h26.53.770,VisualSearch_2526_3,,2025.2.4,2026-02-23 11h26.53.960168 +0100,
tilted.xlsx,The target is tilted.,117,33,1,4,1,1,1,1,0,0,0,0,0,0,0,0,0,3,4,117,space,8.305506700000024,None,0,0,1.5916223999997783,None,space,2.1092979999998533,None,0,0,0,0,,,,,4,1,33,2,259.27741029999993,,,,,,,,,,,,,,,,,,,,,259.2625700000001,259.27741029999993,259.76141630000006,259.76603769999997,259.78311400000007,261.3780199,,,,,261.3782440000002,261.3927741,261.5932553,261.5770964000001,259.78311400000007,,,,,,,,0,0,1.5916223999997783,None,,,,,,,,889,20,V,R,2026-02-23_11h26.53.770,VisualSearch_2526_3,,2025.2.4,2026-02-23 11h26.53.960168 +0100,
tilted.xlsx,The target is tilted.,117,34,2,4,1,0,0,0,0,0,0,0,0,0,0,0,0,0,1,117,space,8.305506700000024,None,1,1,0.7662504999998418,None,space,2.1092979999998533,None,0,0,0,0,,,,,4,2,34,3,261.5932553,,,,,,,,,,,,,,,,,,,,,261.57783989999984,261.5932553,262.07702300000005,262.0815808,262.0990826999998,262.87645899999984,,,,,262.8766696,262.89200700000015,263.09262509999985,263.0766891999999,262.0990826999998,,,,,,,,1,1,0.7662504999998418,None,,,,,,,,889,20,V,R,2026-02-23_11h26.53.770,VisualSearch_2526_3,,2025.2.4,2026-02-23 11h26.53.960168 +0100,
tilted.xlsx,The target is tilted.,117,35,3,4,1,1,1,1,1,1,1,1,0,0,0,0,0,7,8,117,space,8.305506700000024,None,0,0,2.514042899999822,None,space,2.1092979999998533,None,0,0,0,0,,,,,4,3,35,1,263.09262509999985,,,,,,,,,,,,,,,,,,,,,263.0774809000002,263.09262509999985,263.5762355999998,263.5809691000002,263.59767080000006,266.1249567000002,,,,,266.12516949999986,266.1405489000001,266.34122360000015,266.3250128000002,263.59767080000006,,,,,,,,0,0,2.514042899999822,None,,,,,,,,889,20,V,R,2026-02-23_11h26.53.770,VisualSearch_2526_3,,2025.2.4,2026-02-23 11h26.53.960168 +0100,
tilted.xlsx,The target is tilted.,117,36,4,4,0,0,0,0,0,0,0,0,0,0,0,0,1,1,1,117,space,8.305506700000024,None,0,1,1.0239218000001529,None,space,2.1092979999998533,None,0,0,0,0,,,,,4,4,36,7,266.34122360000015,,,,,,,,,,,,,,,,,,,,,266.3257412999999,266.34122360000015,266.8247696000001,266.83011839999995,266.84529940000016,267.8748154000002,,,,,267.8750094999998,267.8899388000002,268.0900752,268.0738613000001,266.84529940000016,,,,,,,,0,1,1.0239218000001529,None,,,,,,,,889,20,V,R,2026-02-23_11h26.53.770,VisualSearch_2526_3,,2025.2.4,2026-02-23 11h26.53.960168 +0100,
tilted.xlsx,The target is tilted.,117,37,5,4,1,1,1,1,1,1,1,1,1,1,1,1,0,11,12,117,space,8.305506700000024,None,1,1,3.8130793000000267,None,space,2.1092979999998533,None,0,0,0,0,,,,,4,5,37,0,268.0900752,,,,,,,,,,,,,,,,,,,,,268.0746064000002,268.0900752,268.5741532999998,268.5792521000001,268.59476169999994,272.4220601999998,,,,,272.4222741000001,272.4377185999999,272.63823479999996,272.6218262,268.59476169999994,,,,,,,,1,1,3.8130793000000267,None,,,,,,,,889,20,V,R,2026-02-23_11h26.53.770,VisualSearch_2526_3,,2025.2.4,2026-02-23 11h26.53.960168 +0100,
tilted.xlsx,The target is tilted.,117,38,6,4,0,1,1,1,0,0,0,0,0,0,0,0,1,3,4,117,space,8.305506700000024,None,0,1,1.0881886000001941,None,space,2.1092979999998533,None,0,0,0,0,,,,,4,6,38,6,272.63823479999996,,,,,,,,,,,,,,,,,,,,,272.6225615000001,272.63823479999996,273.12191529999996,273.12696280000023,273.14368850000005,274.23858529999984,,,,,274.2387848999999,274.25358519999986,274.4538667999998,274.4377345999999,273.14368850000005,,,,,,,,0,1,1.0881886000001941,None,,,,,,,,889,20,V,R,2026-02-23_11h26.53.770,VisualSearch_2526_3,,2025.2.4,2026-02-23 11h26.53.960168 +0100,
tilted.xlsx,The target is tilted.,117,39,7,4,0,1,1,1,1,1,1,1,1,1,1,1,1,11,12,117,space,8.305506700000024,None,0,1,7.384987400000227,None,space,2.1092979999998533,None,0,0,0,0,,,,,4,7,39,4,274.4538667999998,,,,,,,,,,,,,,,,,,,,,274.43856100000016,274.4538667999998,274.9379894000001,274.94302410000023,274.9605426999999,282.3514917,,,,,282.3516882000001,282.3665612000002,282.56707429999983,282.5508271000001,274.9605426999999,,,,,,,,0,1,7.384987400000227,None,,,,,,,,889,20,V,R,2026-02-23_11h26.53.770,VisualSearch_2526_3,,2025.2.4,2026-02-23 11h26.53.960168 +0100,
tilted.xlsx,The target is tilted.,117,40,0,5,0,1,1,1,1,1,1,1,0,0,0,0,1,7,8,117,space,8.305506700000024,None,0,1,2.8583957999999257,None,space,2.1092979999998533,None,0,0,0,0,,,,,5,0,40,5,282.56707429999983,,,,,,,,,,,,,,,,,,,,,282.5515721999998,282.56707429999983,283.05102109999984,283.0559973000002,283.07092050000006,285.9330986000002,,,,,285.9332958000002,285.94828440000015,286.1488763,286.1325853999999,283.07092050000006,,,,,,,,0,1,2.8583957999999257,None,,,,,,,,889,20,V,R,2026-02-23_11h26.53.770,VisualSearch_2526_3,,2025.2.4,2026-02-23 11h26.53.960168 +0100,
tilted.xlsx,The target is tilted.,117,41,1,5,0,0,0,0,0,0,0,0,0,0,0,0,1,1,1,117,space,8.305506700000024,None,0,1,0.9477348999998867,None,space,2.1092979999998533,None,0,0,0,0,,,,,5,1,41,7,286.1488763,,,,,,,,,,,,,,,,,,,,,286.1334135999998,286.1488763,286.6321184000001,286.6368507999998,286.6530710999998,287.6142582,,,,,287.6143233,287.6311005,,287.8150116999998,286.6530710999998,,,,,,,,0,1,0.9477348999998867,None,,,,,,,,889,20,V,R,2026-02-23_11h26.53.770,VisualSearch_2526_3,,2025.2.4,2026-02-23 11h26.53.960168 +0100,
tilted.xlsx,The target is tilted.,117,42,2,5,1,1,1,1,1,1,1,1,1,1,1,1,0,11,12,117,space,8.305506700000024,None,0,0,4.654031099999884,None,space,2.1092979999998533,None,0,0,0,0,,,,,5,2,42,0,287.8313495,,,,,,,,,,,,,,,,,,,,,287.8157434000002,287.8313495,288.31456330000015,288.3191322,288.3340347000001,292.9963199000001,,,,,292.99645940000005,293.01171249999993,293.2118674000001,293.1960284999998,288.3340347000001,,,,,,,,0,0,4.654031099999884,None,,,,,,,,889,20,V,R,2026-02-23_11h26.53.770,VisualSearch_2526_3,,2025.2.4,2026-02-23 11h26.53.960168 +0100,
tilted.xlsx,The target is tilted.,117,43,3,5,0,1,1,1,0,0,0,0,0,0,0,0,1,3,4,117,space,8.305506700000024,None,0,1,2.151028100000076,None,space,2.1092979999998533,None,0,0,0,0,,,,,5,3,43,6,293.2118674000001,,,,,,,,,,,,,,,,,,,,,293.19676989999994,293.2118674000001,293.69609590000005,293.70093359999987,293.7182083,295.8784183999999,,,,,295.87861869999983,295.89379729999996,296.09433650000005,296.0782855,293.7182083,,,,,,,,0,1,2.151028100000076,None,,,,,,,,889,20,V,R,2026-02-23_11h26.53.770,VisualSearch_2526_3,,2025.2.4,2026-02-23 11h26.53.960168 +0100,
tilted.xlsx,The target is tilted.,117,44,4,5,1,1,1,1,1,1,1,1,0,0,0,0,0,7,8,117,space,8.305506700000024,None,1,1,2.6745945000002393,None,space,2.1092979999998533,None,0,0,0,0,,,,,5,4,44,1,296.09433650000005,,,,,,,,,,,,,,,,,,,,,296.07916009999985,296.09433650000005,296.5780311000001,296.5832155999999,296.6003035000001,299.2769541,,,,,299.2771332,299.2922176999998,299.49228960000005,299.4763911000002,296.6003035000001,,,,,,,,1,1,2.6745945000002393,None,,,,,,,,889,20,V,R,2026-02-23_11h26.53.770,VisualSearch_2526_3,,2025.2.4,2026-02-23 11h26.53.960168 +0100,
tilted.xlsx,The target is tilted.,117,45,5,5,0,1,1,1,1,1,1,1,1,1,1,1,1,11,12,117,space,8.305506700000024,None,0,1,8.33747859999994,None,space,2.1092979999998533,None,0,0,0,0,,,,,5,5,45,4,299.49228960000005,,,,,,,,,,,,,,,,,,,,,299.47711719999984,299.49228960000005,299.97645669999997,299.98115429999984,299.9975643999999,308.33942869999987,,,,,308.33964679999985,308.3547698,308.5550700000001,308.5393852999998,299.9975643999999,,,,,,,,0,1,8.33747859999994,None,,,,,,,,889,20,V,R,2026-02-23_11h26.53.770,VisualSearch_2526_3,,2025.2.4,2026-02-23 11h26.53.960168 +0100,
tilted.xlsx,The target is tilted.,117,46,6,5,1,0,0,0,0,0,0,0,0,0,0,0,0,0,1,117,space,8.305506700000024,None,1,1,0.8844796999997016,None,space,2.1092979999998533,None,0,0,0,0,,,,,5,6,46,3,308.5550700000001,,,,,,,,,,,,,,,,,,,,,308.5401893999999,308.5550700000001,309.0390421999998,309.0436336,309.06084799999985,309.955772,,,,,309.95597269999985,309.9706923000001,310.17127000000005,310.1550632000001,309.06084799999985,,,,,,,,1,1,0.8844796999997016,None,,,,,,,,889,20,V,R,2026-02-23_11h26.53.770,VisualSearch_2526_3,,2025.2.4,2026-02-23 11h26.53.960168 +0100,
tilted.xlsx,The target is tilted.,117,47,7,5,1,1,1,1,0,0,0,0,0,0,0,0,0,3,4,117,space,8.305506700000024,None,1,1,0.9515050999998493,None,space,2.1092979999998533,None,0,0,0,0,,,,,5,7,47,2,310.17127000000005,,,,,,,,,,,,,,,,,,,,,310.1557903999999,310.17127000000005,310.6547035000001,310.65949750000004,310.67751710000016,311.63792260000014,,,,,311.6380978999998,311.65326960000016,311.85377459999995,311.83766720000017,310.67751710000016,,,,,,,,1,1,0.9515050999998493,None,,,,,,,,889,20,V,R,2026-02-23_11h26.53.770,VisualSearch_2526_3,,2025.2.4,2026-02-23 11h26.53.960168 +0100,
tilted.xlsx,The target is tilted.,117,48,0,6,0,1,1,1,0,0,0,0,0,0,0,0,1,3,4,117,space,8.305506700000024,None,0,1,1.0440959000002294,None,space,2.1092979999998533,None,0,0,0,0,,,,,6,0,48,6,311.85377459999995,,,,,,,,,,,,,,,,,,,,,311.8383769999998,311.85377459999995,312.3374163000001,312.3420772000002,312.3594995000001,313.4201255999999,,,,,313.4203347,313.43570569999997,313.6359197999998,313.6198449000001,312.3594995000001,,,,,,,,0,1,1.0440959000002294,None,,,,,,,,889,20,V,R,2026-02-23_11h26.53.770,VisualSearch_2526_3,,2025.2.4,2026-02-23 11h26.53.960168 +0100,
tilted.xlsx,The target is tilted.,117,49,1,6,1,1,1,1,0,0,0,0,0,0,0,0,0,3,4,117,space,8.305506700000024,None,1,1,1.0279655999997885,None,space,2.1092979999998533,None,0,0,0,0,,,,,6,1,49,2,313.6359197999998,,,,,,,,,,,,,,,,,,,,,313.6205745,313.6359197999998,314.1200474999998,314.1245925999999,314.1418288000002,315.1857507000002,,,,,315.1859114000001,315.2018021000001,315.40207910000004,315.3859826999999,314.1418288000002,,,,,,,,1,1,1.0279655999997885,None,,,,,,,,889,20,V,R,2026-02-23_11h26.53.770,VisualSearch_2526_3,,2025.2.4,2026-02-23 11h26.53.960168 +0100,
tilted.xlsx,The target is tilted.,117,50,2,6,0,1,1,1,1,1,1,1,1,1,1,1,1,11,12,117,space,8.305506700000024,None,0,1,5.18772749999971,None,space,2.1092979999998533,None,0,0,0,0,,,,,6,2,50,4,315.40207910000004,,,,,,,,,,,,,,,,,,,,,315.3867237000002,315.40207910000004,315.88573070000007,315.8903071000002,315.9067355999998,321.0998167,,,,,321.0999193,321.11549450000007,321.31600619999995,321.29994220000003,315.9067355999998,,,,,,,,0,1,5.18772749999971,None,,,,,,,,889,20,V,R,2026-02-23_11h26.53.770,VisualSearch_2526_3,,2025.2.4,2026-02-23 11h26.53.960168 +0100,
tilted.xlsx,The target is tilted.,117,51,3,6,1,0,0,0,0,0,0,0,0,0,0,0,0,0,1,117,space,8.305506700000024,None,1,1,1.0206053999995675,None,space,2.1092979999998533,None,0,0,0,0,,,,,6,3,51,3,321.31600619999995,,,,,,,,,,,,,,,,,,,,,321.3006856999998,321.31600619999995,321.79991080000013,321.8044563000001,321.82346269999994,322.8498523999999,,,,,322.85004779999986,322.86478999999986,323.0650641999998,323.04927470000007,321.82346269999994,,,,,,,,1,1,1.0206053999995675,None,,,,,,,,889,20,V,R,2026-02-23_11h26.53.770,VisualSearch_2526_3,,2025.2.4,2026-02-23 11h26.53.960168 +0100,
tilted.xlsx,The target is tilted.,117,52,4,6,0,1,1,1,1,1,1,1,0,0,0,0,1,7,8,117,space,8.305506700000024,None,0,1,4.576618399999916,None,space,2.1092979999998533,None,0,0,0,0,,,,,6,4,52,5,323.0650641999998,,,,,,,,,,,,,,,,,,,,,323.0499791,323.0650641999998,323.5488630000002,323.55344919999993,323.5702776999999,328.1634465999998,,,,,328.1636673999999,328.17901210000014,328.3796565,328.36335410000015,323.5702776999999,,,,,,,,0,1,4.576618399999916,None,,,,,,,,889,20,V,R,2026-02-23_11h26.53.770,VisualSearch_2526_3,,2025.2.4,2026-02-23 11h26.53.960168 +0100,
tilted.xlsx,The target is tilted.,117,53,5,6,1,1,1,1,1,1,1,1,1,1,1,1,0,11,12,117,space,8.305506700000024,None,1,1,2.84573649999993,None,space,2.1092979999998533,None,0,0,0,0,,,,,6,5,53,0,328.3796565,,,,,,,,,,,,,,,,,,,,,328.36410309999997,328.3796565,328.8631704000002,328.86776299999997,328.88412619999986,331.74508660000015,,,,,331.7452952000001,331.7607095999999,331.96104679999985,331.94516690000023,328.88412619999986,,,,,,,,1,1,2.84573649999993,None,,,,,,,,889,20,V,R,2026-02-23_11h26.53.770,VisualSearch_2526_3,,2025.2.4,2026-02-23 11h26.53.960168 +0100,
tilted.xlsx,The target is tilted.,117,54,6,6,0,0,0,0,0,0,0,0,0,0,0,0,1,1,1,117,space,8.305506700000024,None,0,1,0.7152636000000712,None,space,2.1092979999998533,None,0,0,0,0,,,,,6,6,54,7,331.96104679999985,,,,,,,,,,,,,,,,,,,,,331.9458726999999,331.96104679999985,332.4449665999998,332.4495723000002,332.4659008000001,333.1943782000001,,,,,333.1945592999998,333.21006509999984,333.41050440000004,333.39449750000017,332.4659008000001,,,,,,,,0,1,0.7152636000000712,None,,,,,,,,889,20,V,R,2026-02-23_11h26.53.770,VisualSearch_2526_3,,2025.2.4,2026-02-23 11h26.53.960168 +0100,
tilted.xlsx,The target is tilted.,117,55,7,6,1,1,1,1,1,1,1,1,0,0,0,0,0,7,8,117,space,8.305506700000024,None,1,1,4.180908000000272,None,space,2.1092979999998533,None,0,0,0,0,,,,,6,7,55,1,333.41050440000004,,,,,,,,,,,,,,,,,,,,,333.3952369000001,333.41050440000004,333.8942813000001,333.8992962,333.9148818000001,338.10900190000007,,,,,338.10922300000016,338.1245084999998,338.32503310000016,338.3086996999998,333.9148818000001,,,,,,,,1,1,4.180908000000272,None,,,,,,,,889,20,V,R,2026-02-23_11h26.53.770,VisualSearch_2526_3,,2025.2.4,2026-02-23 11h26.53.960168 +0100,
tilted.xlsx,The target is tilted.,117,56,0,7,0,0,0,0,0,0,0,0,0,0,0,0,1,1,1,117,space,8.305506700000024,None,0,1,0.6257912999999462,None,space,2.1092979999998533,None,0,0,0,0,,,,,7,0,56,7,338.32503310000016,,,,,,,,,,,,,,,,,,,,,338.3095058000001,338.32503310000016,338.80886380000015,338.81343119999997,338.8305259000001,339.4589632999998,,,,,339.45916169999987,339.47395489999985,339.67449120000015,339.6583843000001,338.8305259000001,,,,,,,,0,1,0.6257912999999462,None,,,,,,,,889,20,V,R,2026-02-23_11h26.53.770,VisualSearch_2526_3,,2025.2.4,2026-02-23 11h26.53.960168 +0100,
tilted.xlsx,The target is tilted.,117,57,1,7,0,1,1,1,1,1,1,1,1,1,1,1,1,11,12,117,space,8.305506700000024,None,0,1,4.885025699999915,None,space,2.1092979999998533,None,0,0,0,0,,,,,7,1,57,4,339.67449120000015,,,,,,,,,,,,,,,,,,,,,339.65909020000004,339.67449120000015,340.15819540000007,340.1627893000002,340.18008570000006,345.07306129999984,,,,,345.07325560000004,345.0880555000001,345.2884769,345.27215709999996,340.18008570000006,,,,,,,,0,1,4.885025699999915,None,,,,,,,,889,20,V,R,2026-02-23_11h26.53.770,VisualSearch_2526_3,,2025.2.4,2026-02-23 11h26.53.960168 +0100,
tilted.xlsx,The target is tilted.,117,58,2,7,1,1,1,1,1,1,1,1,1,1,1,1,0,11,12,117,space,8.305506700000024,None,1,1,2.098030000000108,None,space,2.1092979999998533,None,0,0,0,0,,,,,7,2,58,0,345.2884769,,,,,,,,,,,,,,,,,,,,,345.2728579000002,345.2884769,345.77185729999997,345.7764896000001,345.7936763,347.90456310000013,,,,,347.9046890000002,347.92015000000015,348.1206430999998,348.1045452000001,345.7936763,,,,,,,,1,1,2.098030000000108,None,,,,,,,,889,20,V,R,2026-02-23_11h26.53.770,VisualSearch_2526_3,,2025.2.4,2026-02-23 11h26.53.960168 +0100,
tilted.xlsx,The target is tilted.,117,59,3,7,1,1,1,1,0,0,0,0,0,0,0,0,0,3,4,117,space,8.305506700000024,None,1,1,0.8060940000000301,None,space,2.1092979999998533,None,0,0,0,0,,,,,7,3,59,2,348.1206430999998,,,,,,,,,,,,,,,,,,,,,348.10524640000017,348.1206430999998,348.6042716999998,348.6089614,348.6247329999999,349.43778720000023,,,,,349.43799319999994,349.4526948,349.6532555000001,349.63678830000003,348.6247329999999,,,,,,,,1,1,0.8060940000000301,None,,,,,,,,889,20,V,R,2026-02-23_11h26.53.770,VisualSearch_2526_3,,2025.2.4,2026-02-23 11h26.53.960168 +0100,
tilted.xlsx,The target is tilted.,117,60,4,7,1,1,1,1,1,1,1,1,0,0,0,0,0,7,8,117,space,8.305506700000024,None,1,1,1.1939581000001454,None,space,2.1092979999998533,None,0,0,0,0,,,,,7,4,60,1,349.6532555000001,,,,,,,,,,,,,,,,,,,,,349.63751909999996,349.6532555000001,350.1370223000001,350.14167699999985,350.1580037000001,351.3535224999998,,,,,351.3537217999999,351.3685588000001,351.56892489999996,351.5526523000001,350.1580037000001,,,,,,,,1,1,1.1939581000001454,None,,,,,,,,889,20,V,R,2026-02-23_11h26.53.770,VisualSearch_2526_3,,2025.2.4,2026-02-23 11h26.53.960168 +0100,
tilted.xlsx,The target is tilted.,117,61,5,7,0,1,1,1,1,1,1,1,0,0,0,0,1,7,8,117,space,8.305506700000024,None,0,1,3.5035108000001856,None,space,2.1092979999998533,None,0,0,0,0,,,,,7,5,61,5,351.56892489999996,,,,,,,,,,,,,,,,,,,,,351.55335309999987,351.56892489999996,352.0525444000002,352.0572076000001,352.0735732999999,355.58499199999983,,,,,355.5851875999999,355.6000127,355.80044969999994,355.78428439999993,352.0735732999999,,,,,,,,0,1,3.5035108000001856,None,,,,,,,,889,20,V,R,2026-02-23_11h26.53.770,VisualSearch_2526_3,,2025.2.4,2026-02-23 11h26.53.960168 +0100,
tilted.xlsx,The target is tilted.,117,62,6,7,0,1,1,1,0,0,0,0,0,0,0,0,1,3,4,117,space,8.305506700000024,None,0,1,0.8130349999996724,None,space,2.1092979999998533,None,0,0,0,0,,,,,7,6,62,6,355.80044969999994,,,,,,,,,,,,,,,,,,,,,355.784985,355.80044969999994,356.2840646000002,356.2889604999998,356.3053685000002,357.13353230000007,,,,,357.1337268,357.14915559999986,357.349653,357.33347500000013,356.3053685000002,,,,,,,,0,1,0.8130349999996724,None,,,,,,,,889,20,V,R,2026-02-23_11h26.53.770,VisualSearch_2526_3,,2025.2.4,2026-02-23 11h26.53.960168 +0100,
tilted.xlsx,The target is tilted.,117,63,7,7,1,0,0,0,0,0,0,0,0,0,0,0,0,0,1,117,space,8.305506700000024,None,1,1,0.8105181999999331,None,space,2.1092979999998533,None,0,0,0,0,,,,,7,7,63,3,357.349653,,,,,,,,,,,,,,,,,,,,,357.3342232000002,357.349653,357.8333104000001,357.8379035999999,357.85380150000015,358.66695159999995,,,,,358.66714549999983,358.6819708999999,358.8823608,358.86628829999995,357.85380150000015,,,,,,,,1,1,0.8105181999999331,None,,,,,,,,889,20,V,R,2026-02-23_11h26.53.770,VisualSearch_2526_3,,2025.2.4,2026-02-23 11h26.53.960168 +0100,
tilted.xlsx,The target is tilted.,117,64,0,8,0,1,1,1,1,1,1,1,1,1,1,1,1,11,12,117,space,8.305506700000024,None,0,1,3.2235953999997946,None,space,2.1092979999998533,None,0,0,0,0,,,,,8,0,64,4,358.8823608,,,,,,,,,,,,,,,,,,,,,358.8670083999998,358.8823608,359.3656948,359.3702833,359.3884593999999,362.6150925999998,,,,,362.61531119999995,362.6300583999998,362.83058270000015,362.81432150000023,359.3884593999999,,,,,,,,0,1,3.2235953999997946,None,,,,,,,,889,20,V,R,2026-02-23_11h26.53.770,VisualSearch_2526_3,,2025.2.4,2026-02-23 11h26.53.960168 +0100,
tilted.xlsx,The target is tilted.,117,65,1,8,1,0,0,0,0,0,0,0,0,0,0,0,0,0,1,117,space,8.305506700000024,None,1,1,0.6892652000001362,None,space,2.1092979999998533,None,0,0,0,0,,,,,8,1,65,3,362.83058270000015,,,,,,,,,,,,,,,,,,,,,362.8150376000001,362.83058270000015,363.3141382000001,363.3187700000001,363.3352032999999,364.0307567000002,,,,,364.0309496000002,364.04609189999996,364.2466737000002,364.2306971999999,363.3352032999999,,,,,,,,1,1,0.6892652000001362,None,,,,,,,,889,20,V,R,2026-02-23_11h26.53.770,VisualSearch_2526_3,,2025.2.4,2026-02-23 11h26.53.960168 +0100,
tilted.xlsx,The target is tilted.,117,66,2,8,1,1,1,1,1,1,1,1,1,1,1,1,0,11,12,117,space,8.305506700000024,None,1,1,3.4761262000001807,None,space,2.1092979999998533,None,0,0,0,0,,,,,8,2,66,0,364.2466737000002,,,,,,,,,,,,,,,,,,,,,364.23149609999996,364.2466737000002,364.7303298999998,364.7349412000001,364.7513265,368.2286150000002,,,,,368.2287302000002,368.2440454,368.4448014000002,368.4287817000002,364.7513265,,,,,,,,1,1,3.4761262000001807,None,,,,,,,,889,20,V,R,2026-02-23_11h26.53.770,VisualSearch_2526_3,,2025.2.4,2026-02-23 11h26.53.960168 +0100,
tilted.xlsx,The target is tilted.,117,67,3,8,0,1,1,1,1,1,1,1,0,0,0,0,1,7,8,117,space,8.305506700000024,None,0,1,3.7562853000003997,None,space,2.1092979999998533,None,0,0,0,0,,,,,8,3,67,5,368.4448014000002,,,,,,,,,,,,,,,,,,,,,368.4296332000001,368.4448014000002,368.9283816999998,368.9330050000001,368.9497869999998,372.7094550999998,,,,,372.7095419,372.7252771000001,,372.9096621000001,368.9497869999998,,,,,,,,0,1,3.7562853000003997,None,,,,,,,,889,20,V,R,2026-02-23_11h26.53.770,VisualSearch_2526_3,,2025.2.4,2026-02-23 11h26.53.960168 +0100,
tilted.xlsx,The target is tilted.,117,68,4,8,1,1,1,1,0,0,0,0,0,0,0,0,0,3,4,117,space,8.305506700000024,None,0,0,1.7562528999997085,None,space,2.1092979999998533,None,0,0,0,0,,,,,8,4,68,2,372.9260766,,,,,,,,,,,,,,,,,,,,,372.91040099999987,372.9260766,373.4098544000001,373.41472610000005,373.4311636,375.19276520000017,,,,,375.19296139999983,375.20770640000023,375.4081013000002,375.39214749999996,373.4311636,,,,,,,,0,0,1.7562528999997085,None,,,,,,,,889,20,V,R,2026-02-23_11h26.53.770,VisualSearch_2526_3,,2025.2.4,2026-02-23 11h26.53.960168 +0100,
tilted.xlsx,The target is tilted.,117,69,5,8,0,1,1,1,0,0,0,0,0,0,0,0,1,3,4,117,space,8.305506700000024,None,0,1,1.4269773000000896,None,space,2.1092979999998533,None,0,0,0,0,,,,,8,5,69,6,375.4081013000002,,,,,,,,,,,,,,,,,,,,,375.39292120000005,375.4081013000002,375.89202279999995,375.8970554,375.90786390000017,377.34102770000004,,,,,377.3411601999999,377.3566930999998,377.55721370000015,377.5413682000001,375.90786390000017,,,,,,,,0,1,1.4269773000000896,None,,,,,,,,889,20,V,R,2026-02-23_11h26.53.770,VisualSearch_2526_3,,2025.2.4,2026-02-23 11h26.53.960168 +0100,
tilted.xlsx,The target is tilted.,117,70,6,8,0,0,0,0,0,0,0,0,0,0,0,0,1,1,1,117,space,8.305506700000024,None,0,1,0.968931800000064,None,space,2.1092979999998533,None,0,0,0,0,,,,,8,6,70,7,377.55721370000015,,,,,,,,,,,,,,,,,,,,,377.54228320000016,377.55721370000015,378.04098450000015,378.0455927999999,378.06194690000007,379.04099280000014,,,,,379.04118140000014,379.0559151,379.2560428999998,379.2404178999998,378.06194690000007,,,,,,,,0,1,0.968931800000064,None,,,,,,,,889,20,V,R,2026-02-23_11h26.53.770,VisualSearch_2526_3,,2025.2.4,2026-02-23 11h26.53.960168 +0100,
tilted.xlsx,The target is tilted.,117,71,7,8,1,1,1,1,1,1,1,1,0,0,0,0,0,7,8,117,space,8.305506700000024,None,1,1,1.8375961000001553,None,space,2.1092979999998533,None,0,0,0,0,,,,,8,7,71,1,379.2560428999998,,,,,,,,,,,,,,,,,,,,,379.2411131000001,379.2560428999998,379.74016589999997,379.7447319999999,379.7614425999998,381.6064865000001,,,,,381.60667390000003,381.6214054999998,381.8216828000002,381.80584509999994,379.7614425999998,,,,,,,,1,1,1.8375961000001553,None,,,,,,,,889,20,V,R,2026-02-23_11h26.53.770,VisualSearch_2526_3,,2025.2.4,2026-02-23 11h26.53.960168 +0100,
tilted.xlsx,The target is tilted.,117,72,0,9,1,1,1,1,1,1,1,1,1,1,1,1,0,11,12,117,space,8.305506700000024,None,1,1,0.8264013000002706,None,space,2.1092979999998533,None,0,0,0,0,,,,,9,0,72,0,381.8216828000002,,,,,,,,,,,,,,,,,,,,,381.80656350000004,381.8216828000002,382.3056307999998,382.3101287000002,382.32808249999994,383.15573629999994,,,,,383.15592390000006,383.1707442999998,383.3713313999999,383.3545302,382.32808249999994,,,,,,,,1,1,0.8264013000002706,None,,,,,,,,889,20,V,R,2026-02-23_11h26.53.770,VisualSearch_2526_3,,2025.2.4,2026-02-23 11h26.53.960168 +0100,
tilted.xlsx,The target is tilted.,117,73,1,9,1,1,1,1,0,0,0,0,0,0,0,0,0,3,4,117,space,8.305506700000024,None,1,1,2.6123374999997395,None,space,2.1092979999998533,None,0,0,0,0,,,,,9,1,73,2,383.3713313999999,,,,,,,,,,,,,,,,,,,,,383.3552440000001,383.3713313999999,383.8550892999999,383.8599127,383.8764190999998,386.5030041000002,,,,,386.5030986999998,386.5190564000002,,386.7033745000001,383.8764190999998,,,,,,,,1,1,2.6123374999997395,None,,,,,,,,889,20,V,R,2026-02-23_11h26.53.770,VisualSearch_2526_3,,2025.2.4,2026-02-23 11h26.53.960168 +0100,
tilted.xlsx,The target is tilted.,117,74,2,9,0,1,1,1,0,0,0,0,0,0,0,0,1,3,4,117,space,8.305506700000024,None,0,1,2.3138096000002406,None,space,2.1092979999998533,None,0,0,0,0,,,,,9,2,74,6,386.7197887,,,,,,,,,,,,,,,,,,,,,386.7041969999998,386.7197887,387.20326409999984,387.2078780999998,387.2254719,389.5522773,,,,,389.5525048000002,389.56780319999984,389.76847710000015,389.7518401,387.2254719,,,,,,,,0,1,2.3138096000002406,None,,,,,,,,889,20,V,R,2026-02-23_11h26.53.770,VisualSearch_2526_3,,2025.2.4,2026-02-23 11h26.53.960168 +0100,
tilted.xlsx,The target is tilted.,117,75,3,9,1,1,1,1,1,1,1,1,0,0,0,0,0,7,8,117,space,8.305506700000024,None,1,1,0.8648293000001104,None,space,2.1092979999998533,None,0,0,0,0,,,,,9,3,75,1,389.76847710000015,,,,,,,,,,,,,,,,,,,,,389.7526141000001,389.76847710000015,390.2517918000001,390.25630579999984,390.2723542000001,391.1519096999998,,,,,391.1521011000002,391.1671067,391.3674911999999,391.3515807000001,390.2723542000001,,,,,,,,1,1,0.8648293000001104,None,,,,,,,,889,20,V,R,2026-02-23_11h26.53.770,VisualSearch_2526_3,,2025.2.4,2026-02-23 11h26.53.960168 +0100,
tilted.xlsx,The target is tilted.,117,76,4,9,0,1,1,1,1,1,1,1,1,1,1,1,1,11,12,117,space,8.305506700000024,None,0,1,4.574554099999659,None,space,2.1092979999998533,None,0,0,0,0,,,,,9,4,76,4,391.3674911999999,,,,,,,,,,,,,,,,,,,,,391.35227550000013,391.3674911999999,391.85135019999984,391.85583169999995,391.8722018000001,396.44974579999985,,,,,396.44994109999993,396.4646832000001,396.6651564000001,396.6484729000001,391.8722018000001,,,,,,,,0,1,4.574554099999659,None,,,,,,,,889,20,V,R,2026-02-23_11h26.53.770,VisualSearch_2526_3,,2025.2.4,2026-02-23 11h26.53.960168 +0100,
tilted.xlsx,The target is tilted.,117,77,5,9,0,1,1,1,1,1,1,1,0,0,0,0,1,7,8,117,space,8.305506700000024,None,0,1,3.0270261000000573,None,space,2.1092979999998533,None,0,0,0,0,,,,,9,5,77,5,396.6651564000001,,,,,,,,,,,,,,,,,,,,,396.6491953000002,396.6651564000001,397.1489392000001,397.1536368999998,397.1706247999998,400.21388249999995,,,,,400.21405660000005,400.2296162,400.4299238000001,400.41367560000003,397.1706247999998,,,,,,,,0,1,3.0270261000000573,None,,,,,,,,889,20,V,R,2026-02-23_11h26.53.770,VisualSearch_2526_3,,2025.2.4,2026-02-23 11h26.53.960168 +0100,
tilted.xlsx,The target is tilted.,117,78,6,9,1,0,0,0,0,0,0,0,0,0,0,0,0,0,1,117,space,8.305506700000024,None,0,0,0.808426700000382,None,space,2.1092979999998533,None,0,0,0,0,,,,,9,6,78,3,400.4299238000001,,,,,,,,,,,,,,,,,,,,,400.41440290000014,400.4299238000001,400.9134710000001,400.9179934000001,400.93380189999993,401.7467085999999,,,,,401.7468099,401.7621451000002,401.96276969999985,401.9467646999999,400.93380189999993,,,,,,,,0,0,0.808426700000382,None,,,,,,,,889,20,V,R,2026-02-23_11h26.53.770,VisualSearch_2526_3,,2025.2.4,2026-02-23 11h26.53.960168 +0100,
tilted.xlsx,The target is tilted.,117,79,7,9,0,0,0,0,0,0,0,0,0,0,0,0,1,1,1,117,space,8.305506700000024,None,0,1,0.8169268999999986,None,space,2.1092979999998533,None,0,0,0,0,,,,,9,7,79,7,401.96276969999985,,,,,,,,,,,,,,,,,,,,,401.9474587000002,401.96276969999985,402.44652840000003,402.4510799000002,402.4679871999999,403.2966184999998,,,,,403.29680829999984,403.3115315000002,403.5118608,403.4959667999999,402.4679871999999,,,,,,,,0,1,0.8169268999999986,None,,,,,,,,889,20,V,R,2026-02-23_11h26.53.770,VisualSearch_2526_3,,2025.2.4,2026-02-23 11h26.53.960168 +0100,
tilted.xlsx,The target is tilted.,117,80,0,10,1,1,1,1,1,1,1,1,0,0,0,0,0,7,8,117,space,8.305506700000024,None,0,0,3.983676800000012,None,space,2.1092979999998533,None,0,0,0,0,,,,,10,0,80,1,403.5118608,,,,,,,,,,,,,,,,,,,,,403.4966581000001,403.5118608,403.9958472999999,404.0003210000002,404.0169920999999,408.01020200000016,,,,,408.0103265,408.0258758000002,408.22638410000013,408.2104802000001,404.0169920999999,,,,,,,,0,0,3.983676800000012,None,,,,,,,,889,20,V,R,2026-02-23_11h26.53.770,VisualSearch_2526_3,,2025.2.4,2026-02-23 11h26.53.960168 +0100,
tilted.xlsx,The target is tilted.,117,81,1,10,1,0,0,0,0,0,0,0,0,0,0,0,0,0,1,117,space,8.305506700000024,None,1,1,0.5806812999999238,None,space,2.1092979999998533,None,0,0,0,0,,,,,10,1,81,3,408.22638410000013,,,,,,,,,,,,,,,,,,,,,408.21119699999986,408.22638410000013,408.7103577999999,408.71502540000006,408.7316225000002,409.3265927,,,,,409.32681690000004,409.3421033000002,409.5426402999999,409.52657750000003,408.7316225000002,,,,,,,,1,1,0.5806812999999238,None,,,,,,,,889,20,V,R,2026-02-23_11h26.53.770,VisualSearch_2526_3,,2025.2.4,2026-02-23 11h26.53.960168 +0100,
tilted.xlsx,The target is tilted.,117,82,2,10,0,1,1,1,1,1,1,1,1,1,1,1,1,11,12,117,space,8.305506700000024,None,1,0,3.6746093000001565,None,space,2.1092979999998533,None,0,0,0,0,,,,,10,2,82,4,409.5426402999999,,,,,,,,,,,,,,,,,,,,,409.5273313,409.5426402999999,410.0265253,410.0316925999998,410.04607150000015,413.7248232999998,,,,,413.72501350000016,413.7401014999998,413.9406753999999,413.9244067000002,410.04607150000015,,,,,,,,1,0,3.6746093000001565,None,,,,,,,,889,20,V,R,2026-02-23_11h26.53.770,VisualSearch_2526_3,,2025.2.4,2026-02-23 11h26.53.960168 +0100,
tilted.xlsx,The target is tilted.,117,83,3,10,0,0,0,0,0,0,0,0,0,0,0,0,1,1,1,117,space,8.305506700000024,None,0,1,0.8624825000001692,None,space,2.1092979999998533,None,0,0,0,0,,,,,10,3,83,7,413.9406753999999,,,,,,,,,,,,,,,,,,,,,413.92512550000015,413.9406753999999,414.4241620999999,414.4287875000002,414.4439433,415.30774339999994,,,,,415.3079325000001,415.32278139999994,415.5232134999999,415.5071340000002,414.4439433,,,,,,,,0,1,0.8624825000001692,None,,,,,,,,889,20,V,R,2026-02-23_11h26.53.770,VisualSearch_2526_3,,2025.2.4,2026-02-23 11h26.53.960168 +0100,
tilted.xlsx,The target is tilted.,117,84,4,10,1,1,1,1,0,0,0,0,0,0,0,0,0,3,4,117,space,8.305506700000024,None,1,1,1.3329579999999623,None,space,2.1092979999998533,None,0,0,0,0,,,,,10,4,84,2,415.5232134999999,,,,,,,,,,,,,,,,,,,,,415.5078679999999,415.5232134999999,416.00691359999996,416.0114123999999,416.0281338000002,417.3731743000001,,,,,417.37336530000016,417.3885880999999,417.5882371,417.5718052,416.0281338000002,,,,,,,,1,1,1.3329579999999623,None,,,,,,,,889,20,V,R,2026-02-23_11h26.53.770,VisualSearch_2526_3,,2025.2.4,2026-02-23 11h26.53.960168 +0100,
tilted.xlsx,The target is tilted.,117,85,5,10,0,1,1,1,1,1,1,1,0,0,0,0,1,7,8,117,space,8.305506700000024,None,0,1,4.930597900000066,None,space,2.1092979999998533,None,0,0,0,0,,,,,10,5,85,5,417.5882371,,,,,,,,,,,,,,,,,,,,,417.5721053999998,417.5882371,418.07174409999993,418.07395759999986,418.0880417000001,423.02097389999994,,,,,423.0217312000002,423.03646809999987,423.23657070000013,423.2203216999999,418.0880417000001,,,,,,,,0,1,4.930597900000066,None,,,,,,,,889,20,V,R,2026-02-23_11h26.53.770,VisualSearch_2526_3,,2025.2.4,2026-02-23 11h26.53.960168 +0100,
tilted.xlsx,The target is tilted.,117,86,6,10,1,1,1,1,1,1,1,1,1,1,1,1,0,11,12,117,space,8.305506700000024,None,1,1,2.10861019999993,None,space,2.1092979999998533,None,0,0,0,0,,,,,10,6,86,0,423.23657070000013,,,,,,,,,,,,,,,,,,,,,423.2211580999999,423.23657070000013,423.7200796999998,423.7246754,423.7409989,425.85281629999986,,,,,425.8530121000001,425.8685241999999,426.06861129999993,426.05229829999985,423.7409989,,,,,,,,1,1,2.10861019999993,None,,,,,,,,889,20,V,R,2026-02-23_11h26.53.770,VisualSearch_2526_3,,2025.2.4,2026-02-23 11h26.53.960168 +0100,
tilted.xlsx,The target is tilted.,117,87,7,10,0,1,1,1,0,0,0,0,0,0,0,0,1,3,4,117,space,8.305506700000024,None,0,1,2.6132815000000846,None,space,2.1092979999998533,None,0,0,0,0,,,,,10,7,87,6,426.06861129999993,,,,,,,,,,,,,,,,,,,,,426.05310459999987,426.06861129999993,426.5519152999998,426.55648050000013,426.5737290999998,429.2015902999999,,,,,429.2018037,429.2165026,429.4168185000001,429.4012273000001,426.5737290999998,,,,,,,,0,1,2.6132815000000846,None,,,,,,,,889,20,V,R,2026-02-23_11h26.53.770,VisualSearch_2526_3,,2025.2.4,2026-02-23 11h26.53.960168 +0100,
tilted.xlsx,The target is tilted.,117,88,0,11,0,0,0,0,0,0,0,0,0,0,0,0,1,1,1,117,space,8.305506700000024,None,0,1,0.8136438999999882,None,space,2.1092979999998533,None,0,0,0,0,,,,,11,0,88,7,429.4168185000001,,,,,,,,,,,,,,,,,,,,,429.4018950000002,429.4168185000001,429.9006259,429.90509739999993,429.9212319999999,430.7506430000001,,,,,430.7508154999998,430.76630839999984,430.9662369,430.95017269999994,429.9212319999999,,,,,,,,0,1,0.8136438999999882,None,,,,,,,,889,20,V,R,2026-02-23_11h26.53.770,VisualSearch_2526_3,,2025.2.4,2026-02-23 11h26.53.960168 +0100,
tilted.xlsx,The target is tilted.,117,89,1,11,1,1,1,1,1,1,1,1,1,1,1,1,0,11,12,117,space,8.305506700000024,None,1,1,1.6782960999998977,None,space,2.1092979999998533,None,0,0,0,0,,,,,11,1,89,0,430.9662369,,,,,,,,,,,,,,,,,,,,,430.95086830000014,430.9662369,431.4500657000001,431.4545501,431.47253160000014,433.1661455000001,,,,,433.16631859999984,433.1815908000001,433.38177870000004,433.36567020000007,431.47253160000014,,,,,,,,1,1,1.6782960999998977,None,,,,,,,,889,20,V,R,2026-02-23_11h26.53.770,VisualSearch_2526_3,,2025.2.4,2026-02-23 11h26.53.960168 +0100,
tilted.xlsx,The target is tilted.,117,90,2,11,0,1,1,1,0,0,0,0,0,0,0,0,1,3,4,117,space,8.305506700000024,None,0,1,2.376970000000256,None,space,2.1092979999998533,None,0,0,0,0,,,,,11,2,90,6,433.38177870000004,,,,,,,,,,,,,,,,,,,,,433.3664282000002,433.38177870000004,433.8653775999999,433.8700058000002,433.8857792000001,436.2649309000001,,,,,436.2651183999999,436.2804100000001,436.48008559999994,436.4644473999999,433.8857792000001,,,,,,,,0,1,2.376970000000256,None,,,,,,,,889,20,V,R,2026-02-23_11h26.53.770,VisualSearch_2526_3,,2025.2.4,2026-02-23 11h26.53.960168 +0100,
tilted.xlsx,The target is tilted.,117,91,3,11,1,1,1,1,0,0,0,0,0,0,0,0,0,3,4,117,space,8.305506700000024,None,1,1,1.8314080000000104,None,space,2.1092979999998533,None,0,0,0,0,,,,,11,3,91,2,436.48008559999994,,,,,,,,,,,,,,,,,,,,,436.4651161999998,436.48008559999994,436.9640628999998,436.96860200000015,436.9842593999999,438.83029509999983,,,,,438.8304730000002,438.8459489999998,439.04564860000005,439.0297785,436.9842593999999,,,,,,,,1,1,1.8314080000000104,None,,,,,,,,889,20,V,R,2026-02-23_11h26.53.770,VisualSearch_2526_3,,2025.2.4,2026-02-23 11h26.53.960168 +0100,
tilted.xlsx,The target is tilted.,117,92,4,11,0,1,1,1,1,1,1,1,0,0,0,0,1,7,8,117,space,8.305506700000024,None,0,1,3.5678164000000834,None,space,2.1092979999998533,None,0,0,0,0,,,,,11,4,92,5,439.04564860000005,,,,,,,,,,,,,,,,,,,,,439.0305302999998,439.04564860000005,439.5293115000002,439.53384930000016,439.5508741000001,443.1277999000001,,,,,443.12790710000013,443.14385990000005,443.3437169000001,443.32820879999986,439.5508741000001,,,,,,,,0,1,3.5678164000000834,None,,,,,,,,889,20,V,R,2026-02-23_11h26.53.770,VisualSearch_2526_3,,2025.2.4,2026-02-23 11h26.53.960168 +0100,
tilted.xlsx,The target is tilted.,117,93,5,11,0,1,1,1,1,1,1,1,1,1,1,1,1,11,12,117,space,8.305506700000024,None,0,1,4.275144700000055,None,space,2.1092979999998533,None,0,0,0,0,,,,,11,5,93,4,443.3437169000001,,,,,,,,,,,,,,,,,,,,,443.3288931999998,443.3437169000001,443.8274855000002,443.8320758000002,443.84798220000016,448.1263854000001,,,,,448.12659830000007,448.14166360000013,448.34136779999994,448.32547050000016,443.84798220000016,,,,,,,,0,1,4.275144700000055,None,,,,,,,,889,20,V,R,2026-02-23_11h26.53.770,VisualSearch_2526_3,,2025.2.4,2026-02-23 11h26.53.960168 +0100,
tilted.xlsx,The target is tilted.,117,94,6,11,1,1,1,1,1,1,1,1,0,0,0,0,0,7,8,117,space,8.305506700000024,None,1,1,3.9186399999998685,None,space,2.1092979999998533,None,0,0,0,0,,,,,11,6,94,1,448.34136779999994,,,,,,,,,,,,,,,,,,,,,448.32620169999996,448.34136779999994,448.8253682000002,448.8298557999999,448.8479123999998,452.7738230000002,,,,,452.7740130999998,452.78921920000016,452.98956220000014,452.97337570000013,448.8479123999998,,,,,,,,1,1,3.9186399999998685,None,,,,,,,,889,20,V,R,2026-02-23_11h26.53.770,VisualSearch_2526_3,,2025.2.4,2026-02-23 11h26.53.960168 +0100,
tilted.xlsx,The target is tilted.,117,95,7,11,1,0,0,0,0,0,0,0,0,0,0,0,0,0,1,117,space,8.305506700000024,None,1,1,0.8253113000000667,None,space,2.1092979999998533,None,0,0,0,0,,,,,11,7,95,3,452.98956220000014,,,,,,,,,,,,,,,,,,,,,452.97412529999997,452.98956220000014,453.47313850000023,453.4777181000002,453.49531009999987,454.3233475999998,,,,,454.32354169999985,454.33890640000004,454.5389523000001,454.5226129,453.49531009999987,,,,,,,,1,1,0.8253113000000667,None,,,,,,,,889,20,V,R,2026-02-23_11h26.53.770,VisualSearch_2526_3,,2025.2.4,2026-02-23 11h26.53.960168 +0100,
tilted.xlsx,The target is tilted.,117,96,0,12,1,0,0,0,0,0,0,0,0,0,0,0,0,0,1,117,space,8.305506700000024,None,1,1,0.54756929999985,None,space,2.1092979999998533,None,0,0,0,0,,,,,12,0,96,3,454.5389523000001,,,,,,,,,,,,,,,,,,,,,454.52333410000006,454.5389523000001,455.0225647999998,455.02705919999994,455.0429614000002,455.6062353,,,,,455.60642570000005,455.6216449000001,455.82130859999984,455.8054918999999,455.0429614000002,,,,,,,,1,1,0.54756929999985,None,,,,,,,,889,20,V,R,2026-02-23_11h26.53.770,VisualSearch_2526_3,,2025.2.4,2026-02-23 11h26.53.960168 +0100,
tilted.xlsx,The target is tilted.,117,97,1,12,0,1,1,1,1,1,1,1,0,0,0,0,1,7,8,117,space,8.305506700000024,None,0,1,4.005548499999804,None,space,2.1092979999998533,None,0,0,0,0,,,,,12,1,97,5,455.82130859999984,,,,,,,,,,,,,,,,,,,,,455.80621799999994,455.82130859999984,456.3053005999998,456.3099241000002,456.3266857000001,460.3372032,,,,,460.3373896999999,460.35281310000005,460.55285660000004,460.5366013999999,456.3266857000001,,,,,,,,0,1,4.005548499999804,None,,,,,,,,889,20,V,R,2026-02-23_11h26.53.770,VisualSearch_2526_3,,2025.2.4,2026-02-23 11h26.53.960168 +0100,
tilted.xlsx,The target is tilted.,117,98,2,12,0,0,0,0,0,0,0,0,0,0,0,0,1,1,1,117,space,8.305506700000024,None,0,1,2.4522298000001683,None,space,2.1092979999998533,None,0,0,0,0,,,,,12,2,98,7,460.55285660000004,,,,,,,,,,,,,,,,,,,,,460.5373419,460.55285660000004,461.0364992000002,461.0410012,461.05599099999995,463.5192432000001,,,,,463.51943700000015,463.53451729999983,463.73476370000003,463.7186006999998,461.05599099999995,,,,,,,,0,1,2.4522298000001683,None,,,,,,,,889,20,V,R,2026-02-23_11h26.53.770,VisualSearch_2526_3,,2025.2.4,2026-02-23 11h26.53.960168 +0100,
tilted.xlsx,The target is tilted.,117,99,3,12,0,1,1,1,0,0,0,0,0,0,0,0,1,3,4,117,space,8.305506700000024,None,0,1,1.557760799999869,None,space,2.1092979999998533,None,0,0,0,0,,,,,12,3,99,6,463.73476370000003,,,,,,,,,,,,,,,,,,,,,463.7193920000002,463.73476370000003,464.2183000000002,464.2230258000002,464.2399831,465.8012534000002,,,,,465.8014446999998,465.8168468000001,466.0169917999999,466.0007787000002,464.2399831,,,,,,,,0,1,1.557760799999869,None,,,,,,,,889,20,V,R,2026-02-23_11h26.53.770,VisualSearch_2526_3,,2025.2.4,2026-02-23 11h26.53.960168 +0100,
tilted.xlsx,The target is tilted.,117,100,4,12,0,1,1,1,1,1,1,1,1,1,1,1,1,11,12,117,space,8.305506700000024,None,0,1,4.571183799999744,None,space,2.1092979999998533,None,0,0,0,0,,,,,12,4,100,4,466.0169917999999,,,,,,,,,,,,,,,,,,,,,466.0015068,466.0169917999999,466.50076300000023,466.5052926000001,466.5217528999999,471.09920799999986,,,,,471.0994054999999,471.1146775999998,471.31455630000005,471.2984164000002,466.5217528999999,,,,,,,,0,1,4.571183799999744,None,,,,,,,,889,20,V,R,2026-02-23_11h26.53.770,VisualSearch_2526_3,,2025.2.4,2026-02-23 11h26.53.960168 +0100,
tilted.xlsx,The target is tilted.,117,101,5,12,1,1,1,1,1,1,1,1,1,1,1,1,0,11,12,117,space,8.305506700000024,None,0,0,2.5528729000002386,None,space,2.1092979999998533,None,0,0,0,0,,,,,12,5,101,0,471.31455630000005,,,,,,,,,,,,,,,,,,,,,471.29917279999995,471.31455630000005,471.79796710000005,471.80249100000015,471.82002320000015,474.38082710000003,,,,,474.38102779999986,474.39652580000006,474.5965147999998,474.58037880000006,471.82002320000015,,,,,,,,0,0,2.5528729000002386,None,,,,,,,,889,20,V,R,2026-02-23_11h26.53.770,VisualSearch_2526_3,,2025.2.4,2026-02-23 11h26.53.960168 +0100,
tilted.xlsx,The target is tilted.,117,102,6,12,1,1,1,1,0,0,0,0,0,0,0,0,0,3,4,117,space,8.305506700000024,None,0,0,0.728403999999955,None,space,2.1092979999998533,None,0,0,0,0,,,,,12,6,102,2,474.5965147999998,,,,,,,,,,,,,,,,,,,,,474.58107670000004,474.5965147999998,475.0801595999999,475.0846632,475.09778570000003,475.8300207,,,,,475.8302090999998,475.8458063999999,476.04556750000006,476.02994030000013,475.09778570000003,,,,,,,,0,0,0.728403999999955,None,,,,,,,,889,20,V,R,2026-02-23_11h26.53.770,VisualSearch_2526_3,,2025.2.4,2026-02-23 11h26.53.960168 +0100,
tilted.xlsx,The target is tilted.,117,103,7,12,1,1,1,1,1,1,1,1,0,0,0,0,0,7,8,117,space,8.305506700000024,None,1,1,1.7547700000000077,None,space,2.1092979999998533,None,0,0,0,0,,,,,12,7,103,1,476.04556750000006,,,,,,,,,,,,,,,,,,,,,476.0307178999999,476.04556750000006,476.5291261,476.53368939999996,476.55083450000006,478.31184880000023,,,,,478.31200349999995,478.3275016,478.5280148999998,478.5116749000001,476.55083450000006,,,,,,,,1,1,1.7547700000000077,None,,,,,,,,889,20,V,R,2026-02-23_11h26.53.770,VisualSearch_2526_3,,2025.2.4,2026-02-23 11h26.53.960168 +0100,
tilted.xlsx,The target is tilted.,117,104,0,13,1,1,1,1,1,1,1,1,1,1,1,1,0,11,12,117,space,8.305506700000024,None,0,0,5.462608399999681,None,space,2.1092979999998533,None,0,0,0,0,,,,,13,0,104,0,478.5280148999998,,,,,,,,,,,,,,,,,,,,,478.51244040000006,478.5280148999998,479.0115496000001,479.0161191999998,479.03210909999984,484.5096949000001,,,,,484.5098915000001,484.5251546000002,484.7252283999999,484.7092500000001,479.03210909999984,,,,,,,,0,0,5.462608399999681,None,,,,,,,,889,20,V,R,2026-02-23_11h26.53.770,VisualSearch_2526_3,,2025.2.4,2026-02-23 11h26.53.960168 +0100,
tilted.xlsx,The target is tilted.,117,105,1,13,1,1,1,1,0,0,0,0,0,0,0,0,0,3,4,117,space,8.305506700000024,None,0,0,0.8358776999998554,None,space,2.1092979999998533,None,0,0,0,0,,,,,13,1,105,2,484.7252283999999,,,,,,,,,,,,,,,,,,,,,484.7100386999998,484.7252283999999,485.2079357,485.2097962999999,485.2247227999999,486.075208,,,,,486.0753996000001,486.09095490000004,486.29130929999997,486.2753442999999,485.2247227999999,,,,,,,,0,0,0.8358776999998554,None,,,,,,,,889,20,V,R,2026-02-23_11h26.53.770,VisualSearch_2526_3,,2025.2.4,2026-02-23 11h26.53.960168 +0100,
tilted.xlsx,The target is tilted.,117,106,2,13,1,0,0,0,0,0,0,0,0,0,0,0,0,0,1,117,space,8.305506700000024,None,1,1,0.9738603999999214,None,space,2.1092979999998533,None,0,0,0,0,,,,,13,2,106,3,486.29130929999997,,,,,,,,,,,,,,,,,,,,,486.27621079999994,486.29130929999997,486.77475389999995,486.7792741999999,486.7973364000002,487.7745342999999,,,,,487.7747265999999,487.79041429999984,487.9900103000002,487.97433160000014,486.7973364000002,,,,,,,,1,1,0.9738603999999214,None,,,,,,,,889,20,V,R,2026-02-23_11h26.53.770,VisualSearch_2526_3,,2025.2.4,2026-02-23 11h26.53.960168 +0100,
tilted.xlsx,The target is tilted.,117,107,3,13,1,1,1,1,1,1,1,1,0,0,0,0,0,7,8,117,space,8.305506700000024,None,0,0,3.478167499999927,None,space,2.1092979999998533,None,0,0,0,0,,,,,13,3,107,1,487.9900103000002,,,,,,,,,,,,,,,,,,,,,487.97500520000017,487.9900103000002,488.4739855999999,488.47851349999996,488.49507400000016,491.9893546999999,,,,,491.98952870000016,492.00473780000016,492.20482909999987,492.1893160000002,488.49507400000016,,,,,,,,0,0,3.478167499999927,None,,,,,,,,889,20,V,R,2026-02-23_11h26.53.770,VisualSearch_2526_3,,2025.2.4,2026-02-23 11h26.53.960168 +0100,
tilted.xlsx,The target is tilted.,117,108,4,13,0,1,1,1,1,1,1,1,0,0,0,0,1,7,8,117,space,8.305506700000024,None,0,1,3.2171392999998716,None,space,2.1092979999998533,None,0,0,0,0,,,,,13,4,108,5,492.20482909999987,,,,,,,,,,,,,,,,,,,,,492.18999370000006,492.20482909999987,492.68863480000005,492.6932290000002,492.70823529999984,495.9377975,,,,,495.93799109999986,495.9533620999998,496.15326789999995,496.13720309999985,492.70823529999984,,,,,,,,0,1,3.2171392999998716,None,,,,,,,,889,20,V,R,2026-02-23_11h26.53.770,VisualSearch_2526_3,,2025.2.4,2026-02-23 11h26.53.960168 +0100,
tilted.xlsx,The target is tilted.,117,109,5,13,0,1,1,1,0,0,0,0,0,0,0,0,1,3,4,117,space,8.305506700000024,None,0,1,5.039285299999847,None,space,2.1092979999998533,None,0,0,0,0,,,,,13,5,109,6,496.15326789999995,,,,,,,,,,,,,,,,,,,,,496.13791100000003,496.15326789999995,496.6369707000001,496.64141940000013,496.65783369999986,501.7015343999999,,,,,501.7017277000002,501.71716619999984,501.91742880000015,501.9012221999999,496.65783369999986,,,,,,,,0,1,5.039285299999847,None,,,,,,,,889,20,V,R,2026-02-23_11h26.53.770,VisualSearch_2526_3,,2025.2.4,2026-02-23 11h26.53.960168 +0100,
tilted.xlsx,The target is tilted.,117,110,6,13,0,1,1,1,1,1,1,1,1,1,1,1,1,11,12,117,space,8.305506700000024,None,0,1,5.221655400000145,None,space,2.1092979999998533,None,0,0,0,0,,,,,13,6,110,4,501.91742880000015,,,,,,,,,,,,,,,,,,,,,501.90195759999983,501.91742880000015,502.40093619999993,502.4054604999999,502.42074190000017,507.64849019999997,,,,,507.6486523000001,507.6645178000001,507.8646692,507.84859600000004,502.42074190000017,,,,,,,,0,1,5.221655400000145,None,,,,,,,,889,20,V,R,2026-02-23_11h26.53.770,VisualSearch_2526_3,,2025.2.4,2026-02-23 11h26.53.960168 +0100,
tilted.xlsx,The target is tilted.,117,111,7,13,0,0,0,0,0,0,0,0,0,0,0,0,1,1,1,117,space,8.305506700000024,None,0,1,0.7025981000001593,None,space,2.1092979999998533,None,0,0,0,0,,,,,13,7,111,7,507.8646692,,,,,,,,,,,,,,,,,,,,,507.8493716999999,507.8646692,508.3485111000002,508.3537472999999,508.3713481000002,509.08185849999995,,,,,509.0820513000001,509.0973412000001,509.2969185999998,509.2810433000002,508.3713481000002,,,,,,,,0,1,0.7025981000001593,None,,,,,,,,889,20,V,R,2026-02-23_11h26.53.770,VisualSearch_2526_3,,2025.2.4,2026-02-23 11h26.53.960168 +0100,
tilted.xlsx,The target is tilted.,117,112,0,14,0,1,1,1,1,1,1,1,1,1,1,1,1,11,12,117,space,8.305506700000024,None,1,0,5.09365200000002,None,space,2.1092979999998533,None,0,0,0,0,,,,,14,0,112,4,509.2969185999998,,,,,,,,,,,,,,,,,,,,,509.2817680999999,509.2969185999998,509.7810987999999,509.78566350000006,509.8020801,514.9133579000002,,,,,514.9135502000001,514.9279908999999,515.1277484,515.1117897000001,509.8020801,,,,,,,,1,0,5.09365200000002,None,,,,,,,,889,20,V,R,2026-02-23_11h26.53.770,VisualSearch_2526_3,,2025.2.4,2026-02-23 11h26.53.960168 +0100,
tilted.xlsx,The target is tilted.,117,113,1,14,0,1,1,1,1,1,1,1,0,0,0,0,1,7,8,117,space,8.305506700000024,None,0,1,1.8257698999996137,None,space,2.1092979999998533,None,0,0,0,0,,,,,14,1,113,5,515.1277484,,,,,,,,,,,,,,,,,,,,,515.1125273999999,515.1277484,515.6117188000001,515.6161619000002,515.6326147000002,517.4614721999999,,,,,517.4616758,517.4766559000002,517.6766676999998,517.6605726,515.6326147000002,,,,,,,,0,1,1.8257698999996137,None,,,,,,,,889,20,V,R,2026-02-23_11h26.53.770,VisualSearch_2526_3,,2025.2.4,2026-02-23 11h26.53.960168 +0100,
tilted.xlsx,The target is tilted.,117,114,2,14,0,1,1,1,0,0,0,0,0,0,0,0,1,3,4,117,space,8.305506700000024,None,0,1,0.939140800000132,None,space,2.1092979999998533,None,0,0,0,0,,,,,14,2,114,6,517.6766676999998,,,,,,,,,,,,,,,,,,,,,517.6613920000002,517.6766676999998,518.1607047999998,518.1656916,518.1833598999999,519.1270141000002,,,,,519.1272038,519.1428198000001,519.3424212000002,519.3266436000001,518.1833598999999,,,,,,,,0,1,0.939140800000132,None,,,,,,,,889,20,V,R,2026-02-23_11h26.53.770,VisualSearch_2526_3,,2025.2.4,2026-02-23 11h26.53.960168 +0100,
tilted.xlsx,The target is tilted.,117,115,3,14,1,0,0,0,0,0,0,0,0,0,0,0,0,0,1,117,space,8.305506700000024,None,0,0,0.6230599999998958,None,space,2.1092979999998533,None,0,0,0,0,,,,,14,3,115,3,519.3424212000002,,,,,,,,,,,,,,,,,,,,,519.3273370999998,519.3424212000002,519.8264581000001,519.8310296000002,519.8459773000002,520.4766087,,,,,520.4767963000002,520.4921968000001,520.6920123000002,520.6760271,519.8459773000002,,,,,,,,0,0,0.6230599999998958,None,,,,,,,,889,20,V,R,2026-02-23_11h26.53.770,VisualSearch_2526_3,,2025.2.4,2026-02-23 11h26.53.960168 +0100,
tilted.xlsx,The target is tilted.,117,116,4,14,1,1,1,1,1,1,1,1,1,1,1,1,0,11,12,117,space,8.305506700000024,None,0,0,8.135519800000111,None,space,2.1092979999998533,None,0,0,0,0,,,,,14,4,116,0,520.6920123000002,,,,,,,,,,,,,,,,,,,,,520.6767312999998,520.6920123000002,521.1757936000001,521.1803538000001,521.1982626000001,529.3390987999999,,,,,529.3392692999998,529.3547769999998,529.5545503000001,529.5386648000001,521.1982626000001,,,,,,,,0,0,8.135519800000111,None,,,,,,,,889,20,V,R,2026-02-23_11h26.53.770,VisualSearch_2526_3,,2025.2.4,2026-02-23 11h26.53.960168 +0100,
tilted.xlsx,The target is tilted.,117,117,5,14,0,0,0,0,0,0,0,0,0,0,0,0,1,1,1,117,space,8.305506700000024,None,0,1,0.6441990000002988,None,space,2.1092979999998533,None,0,0,0,0,,,,,14,5,117,7,529.5545503000001,,,,,,,,,,,,,,,,,,,,,529.5393897000001,529.5545503000001,530.0384013,530.0430677000002,530.0593534000002,530.7053718999998,,,,,530.7055643000001,530.720849,530.9209051999999,530.9045213000002,530.0593534000002,,,,,,,,0,1,0.6441990000002988,None,,,,,,,,889,20,V,R,2026-02-23_11h26.53.770,VisualSearch_2526_3,,2025.2.4,2026-02-23 11h26.53.960168 +0100,
tilted.xlsx,The target is tilted.,117,118,6,14,1,1,1,1,0,0,0,0,0,0,0,0,0,3,4,117,space,8.305506700000024,None,1,1,1.9737755999999536,None,space,2.1092979999998533,None,0,0,0,0,,,,,14,6,118,2,530.9209051999999,,,,,,,,,,,,,,,,,,,,,530.9052788000001,530.9209051999999,531.4046251000002,531.4094462999999,531.4249124,533.4033081,,,,,533.4034027999999,533.4194325999999,533.6196484999998,533.6033240999998,531.4249124,,,,,,,,1,1,1.9737755999999536,None,,,,,,,,889,20,V,R,2026-02-23_11h26.53.770,VisualSearch_2526_3,,2025.2.4,2026-02-23 11h26.53.960168 +0100,
tilted.xlsx,The target is tilted.,117,119,7,14,1,1,1,1,1,1,1,1,0,0,0,0,0,7,8,117,space,8.305506700000024,None,1,1,3.084288099999867,None,space,2.1092979999998533,None,0,0,0,0,,,,,14,7,119,1,533.6196484999998,,,,,,,,,,,,,,,,,,,,,533.6040639,533.6196484999998,534.1031062,534.1076455,534.1238942000002,537.2183742,,,,,537.2184577,537.2344154,537.4511464999998,537.4185666999999,534.1238942000002,,,,,,,,1,1,3.084288099999867,None,,,,,,,,889,20,V,R,2026-02-23_11h26.53.770,VisualSearch_2526_3,,2025.2.4,2026-02-23 11h26.53.960168 +0100,
tilted.xlsx,The target is tilted.,117,0,0,0,,,,,,,,,,,,,,,,,space,8.305506700000024,None,,,,,space,2.1092979999998533,None,0,0,0,0,,,,,,,,,,,,,,,,,,,,,,,,,,,,,,,,,,,,,,,,,,,,,,,,,,,,,,,,,,,,,,,889,20,V,R,2026-02-23_11h26.53.770,VisualSearch_2526_3,,2025.2.4,2026-02-23 11h26.53.960168 +0100,
vertical.xlsx,The target is tilted.,135,0,0,0,1,0,0,0,0,0,0,0,0,0,0,0,0,0,1,135,space,8.612228200000118,None,1,1,1.264310099999875,None,,,,0,1,1,1,0,0,0,3,,,,,546.093365,,,,,,,,,,,,,,,537.4511464999998,537.4511464999998,537.4511464999998,space,8.612228200000118,None,546.0891319,546.093365,546.5806955999999,546.5852895,546.6018578000001,547.8809918,1,1,1.264310099999875,None,547.8812200999998,547.8963083000001,548.0964207,548.080307,,,,,,,,,,,,,,,,,,,,889,20,V,R,2026-02-23_11h26.53.770,VisualSearch_2526_3,,2025.2.4,2026-02-23 11h26.53.960168 +0100,
vertical.xlsx,The target is tilted.,135,1,1,0,0,1,1,1,1,1,1,1,1,1,1,1,1,11,12,135,space,8.612228200000118,None,0,1,3.369004700000005,None,,,,0,1,1,1,0,1,1,4,,,,,548.0964207,,,,,,,,,,,,,,,,,,,,,548.0809525000002,548.0964207,548.5799103000002,548.5844195000002,548.5999272000001,551.9783900999998,0,1,3.369004700000005,None,551.978543,551.9944114000002,552.1941961999999,552.1783093000001,548.5999272000001,,,,,,,,,,,,,,,,,,,889,20,V,R,2026-02-23_11h26.53.770,VisualSearch_2526_3,,2025.2.4,2026-02-23 11h26.53.960168 +0100,
vertical.xlsx,The target is tilted.,135,2,2,0,0,1,1,1,0,0,0,0,0,0,0,0,1,3,4,135,space,8.612228200000118,None,0,1,1.0947943999999552,None,,,,0,1,1,1,0,2,2,6,,,,,552.1941961999999,,,,,,,,,,,,,,,,,,,,,552.1789907,552.1941961999999,552.6782071999999,552.6827004999998,552.6990521,553.7949722000001,0,1,1.0947943999999552,None,553.7952066,553.8100642000002,554.0101591,553.9937456999999,552.6990521,,,,,,,,,,,,,,,,,,,889,20,V,R,2026-02-23_11h26.53.770,VisualSearch_2526_3,,2025.2.4,2026-02-23 11h26.53.960168 +0100,
vertical.xlsx,The target is tilted.,135,3,3,0,0,0,0,0,0,0,0,0,0,0,0,0,1,1,1,135,space,8.612228200000118,None,0,1,0.5432003000000805,None,,,,0,1,1,1,0,3,3,7,,,,,554.0101591,,,,,,,,,,,,,,,,,,,,,553.9941184000002,554.0101591,554.4939817000002,554.4984511999999,554.5145377000001,555.0608656000002,0,1,0.5432003000000805,None,555.0610316999998,555.0763843000002,555.2764494999999,555.2599422000001,554.5145377000001,,,,,,,,,,,,,,,,,,,889,20,V,R,2026-02-23_11h26.53.770,VisualSearch_2526_3,,2025.2.4,2026-02-23 11h26.53.960168 +0100,
vertical.xlsx,The target is tilted.,135,4,4,0,0,1,1,1,1,1,1,1,0,0,0,0,1,7,8,135,space,8.612228200000118,None,0,1,1.0185817999999927,None,,,,0,1,1,1,0,4,4,5,,,,,555.2764494999999,,,,,,,,,,,,,,,,,,,,,555.2606073999998,555.2764494999999,555.7603284999998,555.7652881000001,555.7807134000002,556.8098686999999,0,1,1.0185817999999927,None,556.8100501000001,556.8256610999999,557.0257060000001,557.0096345999998,555.7807134000002,,,,,,,,,,,,,,,,,,,889,20,V,R,2026-02-23_11h26.53.770,VisualSearch_2526_3,,2025.2.4,2026-02-23 11h26.53.960168 +0100,
vertical.xlsx,The target is tilted.,135,5,5,0,1,1,1,1,1,1,1,1,1,1,1,1,0,11,12,135,space,8.612228200000118,None,0,0,1.2372029999996812,None,,,,0,1,1,1,0,5,5,0,,,,,557.0257060000001,,,,,,,,,,,,,,,,,,,,,557.0103965000001,557.0257060000001,557.5093515000001,557.5138918,557.5308133000001,558.7751611000001,0,0,1.2372029999996812,None,558.7752530999999,558.7911135000002,558.9912701000001,558.9749355000001,557.5308133000001,,,,,,,,,,,,,,,,,,,889,20,V,R,2026-02-23_11h26.53.770,VisualSearch_2526_3,,2025.2.4,2026-02-23 11h26.53.960168 +0100,
vertical.xlsx,The target is tilted.,135,6,6,0,1,1,1,1,1,1,1,1,0,0,0,0,0,7,8,135,space,8.612228200000118,None,0,0,2.4037665000000743,None,,,,0,1,1,1,0,6,6,1,,,,,558.9912701000001,,,,,,,,,,,,,,,,,,,,,558.9755886999999,558.9912701000001,559.4750597999998,559.4796914000001,559.4953119999998,561.9076831,0,0,2.4037665000000743,None,561.9078668,561.9230264999999,562.1233522999999,562.107389,559.4953119999998,,,,,,,,,,,,,,,,,,,889,20,V,R,2026-02-23_11h26.53.770,VisualSearch_2526_3,,2025.2.4,2026-02-23 11h26.53.960168 +0100,
vertical.xlsx,The target is tilted.,135,7,7,0,1,1,1,1,0,0,0,0,0,0,0,0,0,3,4,135,space,8.612228200000118,None,1,1,0.6831543000002966,None,,,,0,1,1,1,0,7,7,2,,,,,562.1233522999999,,,,,,,,,,,,,,,,,,,,,562.1081265999999,562.1233522999999,562.6070545999999,562.6115851000002,562.6296370000002,563.3237895,1,1,0.6831543000002966,None,563.3239746000002,563.3393343,563.5393931000001,563.5229882000001,562.6296370000002,,,,,,,,,,,,,,,,,,,889,20,V,R,2026-02-23_11h26.53.770,VisualSearch_2526_3,,2025.2.4,2026-02-23 11h26.53.960168 +0100,
vertical.xlsx,The target is tilted.,135,0,0,0,1,1,1,1,1,1,1,1,1,1,1,1,0,11,12,135,space,8.612228200000118,None,0,0,3.5985428999997566,None,space,3.5307630999996036,None,0,1,1,1,,,,,0,0,0,0,567.1033218,,,,,,,,,,,,,,,,,,,,,567.0992371999998,567.1033218,567.5878635000001,567.5924502,567.6099253,571.2202820999998,,,,,571.2204783,571.2358373,571.4358064,571.4196438000001,,563.5299293999999,563.5393931000001,563.5393931000001,567.0718294000001,space,3.5307630999996036,None,0,0,3.5985428999997566,None,,,,,,,,889,20,V,R,2026-02-23_11h26.53.770,VisualSearch_2526_3,,2025.2.4,2026-02-23 11h26.53.960168 +0100,
vertical.xlsx,The target is tilted.,135,1,1,0,0,1,1,1,1,1,1,1,0,0,0,0,1,7,8,135,space,8.612228200000118,None,0,1,3.602268699999968,None,space,3.5307630999996036,None,0,1,1,1,,,,,0,1,1,5,571.4358064,,,,,,,,,,,,,,,,,,,,,571.4203372999998,571.4358064,571.9193554000001,571.9238762000002,571.9406511,575.5513635999998,,,,,575.5515455000002,575.5671285999999,575.7671234000002,575.7508704999998,571.9406511,,,,,,,,0,1,3.602268699999968,None,,,,,,,,889,20,V,R,2026-02-23_11h26.53.770,VisualSearch_2526_3,,2025.2.4,2026-02-23 11h26.53.960168 +0100,
vertical.xlsx,The target is tilted.,135,2,2,0,1,1,1,1,0,0,0,0,0,0,0,0,0,3,4,135,space,8.612228200000118,None,1,1,0.95503140000028,None,space,3.5307630999996036,None,0,1,1,1,,,,,0,2,2,2,575.7671234000002,,,,,,,,,,,,,,,,,,,,,575.7516079999998,575.7671234000002,576.2507210000001,576.2550693000001,576.2667380999999,577.2335423000002,,,,,577.2337666999999,577.2496867000002,577.4493783,577.4334381000001,576.2667380999999,,,,,,,,1,1,0.95503140000028,None,,,,,,,,889,20,V,R,2026-02-23_11h26.53.770,VisualSearch_2526_3,,2025.2.4,2026-02-23 11h26.53.960168 +0100,
vertical.xlsx,The target is tilted.,135,3,3,0,1,1,1,1,1,1,1,1,0,0,0,0,0,7,8,135,space,8.612228200000118,None,0,0,0.9161760000001777,None,space,3.5307630999996036,None,0,1,1,1,,,,,0,3,3,1,577.4493783,,,,,,,,,,,,,,,,,,,,,577.4342027999999,577.4493783,577.9330456,577.9376034999998,577.9538888,578.8832192000002,,,,,578.8833898999999,578.8989336000002,579.0988301999998,579.0826886000002,577.9538888,,,,,,,,0,0,0.9161760000001777,None,,,,,,,,889,20,V,R,2026-02-23_11h26.53.770,VisualSearch_2526_3,,2025.2.4,2026-02-23 11h26.53.960168 +0100,
vertical.xlsx,The target is tilted.,135,4,4,0,0,1,1,1,1,1,1,1,1,1,1,1,1,11,12,135,space,8.612228200000118,None,0,1,0.761376299999938,None,space,3.5307630999996036,None,0,1,1,1,,,,,0,4,4,4,579.0988301999998,,,,,,,,,,,,,,,,,,,,,579.0834127999999,579.0988301999998,579.5822833,579.5868219000001,579.6033120999998,580.3660292000002,,,,,580.3662185999999,580.3814445,580.5815399,580.5649156000002,579.6033120999998,,,,,,,,0,1,0.761376299999938,None,,,,,,,,889,20,V,R,2026-02-23_11h26.53.770,VisualSearch_2526_3,,2025.2.4,2026-02-23 11h26.53.960168 +0100,
vertical.xlsx,The target is tilted.,135,5,5,0,0,1,1,1,0,0,0,0,0,0,0,0,1,3,4,135,space,8.612228200000118,None,0,1,0.7136430999998993,None,space,3.5307630999996036,None,0,1,1,1,,,,,0,5,5,6,580.5815399,,,,,,,,,,,,,,,,,,,,,580.5656280999999,580.5815399,581.0653125000001,581.0698370000002,581.0858681000002,581.8154459999998,,,,,581.8156368000002,581.8307517999999,582.0309857,582.0149141999998,581.0858681000002,,,,,,,,0,1,0.7136430999998993,None,,,,,,,,889,20,V,R,2026-02-23_11h26.53.770,VisualSearch_2526_3,,2025.2.4,2026-02-23 11h26.53.960168 +0100,
vertical.xlsx,The target is tilted.,135,6,6,0,1,0,0,0,0,0,0,0,0,0,0,0,0,0,1,135,space,8.612228200000118,None,1,1,0.5625823999998829,None,space,3.5307630999996036,None,0,1,1,1,,,,,0,6,6,3,582.0309857,,,,,,,,,,,,,,,,,,,,,582.0156774,582.0309857,582.5145356999999,582.5191732999999,582.5362259000001,583.1148832000001,,,,,583.1150762999998,583.1303374000001,583.3304289999999,583.3143312,582.5362259000001,,,,,,,,1,1,0.5625823999998829,None,,,,,,,,889,20,V,R,2026-02-23_11h26.53.770,VisualSearch_2526_3,,2025.2.4,2026-02-23 11h26.53.960168 +0100,
vertical.xlsx,The target is tilted.,135,7,7,0,0,0,0,0,0,0,0,0,0,0,0,0,1,1,1,135,space,8.612228200000118,None,0,1,0.6026582999998027,None,space,3.5307630999996036,None,0,1,1,1,,,,,0,7,7,7,583.3304289999999,,,,,,,,,,,,,,,,,,,,,583.3151458999998,583.3304289999999,583.8138925999999,583.8184822999999,583.8300112999998,584.4475733000002,,,,,584.4477911000001,584.4628030000001,584.6625746000002,584.6469559999998,583.8300112999998,,,,,,,,0,1,0.6026582999998027,None,,,,,,,,889,20,V,R,2026-02-23_11h26.53.770,VisualSearch_2526_3,,2025.2.4,2026-02-23 11h26.53.960168 +0100,
vertical.xlsx,The target is tilted.,135,8,0,1,0,1,1,1,1,1,1,1,1,1,1,1,1,11,12,135,space,8.612228200000118,None,0,1,0.7849353000001429,None,space,3.5307630999996036,None,0,1,1,1,,,,,1,0,8,4,584.6625746000002,,,,,,,,,,,,,,,,,,,,,584.6477459999999,584.6625746000002,585.1467685999999,585.1512464,585.1626871000001,585.9635480999998,,,,,585.9637371000001,585.9790360999998,586.1791092000001,586.1626048,585.1626871000001,,,,,,,,0,1,0.7849353000001429,None,,,,,,,,889,20,V,R,2026-02-23_11h26.53.770,VisualSearch_2526_3,,2025.2.4,2026-02-23 11h26.53.960168 +0100,
vertical.xlsx,The target is tilted.,135,9,1,1,1,0,0,0,0,0,0,0,0,0,0,0,0,0,1,135,space,8.612228200000118,None,1,1,0.7098218999999517,None,space,3.5307630999996036,None,0,1,1,1,,,,,1,1,9,3,586.1791092000001,,,,,,,,,,,,,,,,,,,,,586.1633211000001,586.1791092000001,586.662532,586.6670769999998,586.6833393999998,587.3963719000001,,,,,587.3965900000001,587.4118163,587.6113398999998,587.5956002999999,586.6833393999998,,,,,,,,1,1,0.7098218999999517,None,,,,,,,,889,20,V,R,2026-02-23_11h26.53.770,VisualSearch_2526_3,,2025.2.4,2026-02-23 11h26.53.960168 +0100,
vertical.xlsx,The target is tilted.,135,10,2,1,0,0,0,0,0,0,0,0,0,0,0,0,1,1,1,135,space,8.612228200000118,None,0,1,0.5297923000002811,None,space,3.5307630999996036,None,0,1,1,1,,,,,1,2,10,7,587.6113398999998,,,,,,,,,,,,,,,,,,,,,587.5963092999998,587.6113398999998,588.0953821999999,588.0999522,588.1164437,588.6621367,,,,,588.6623093000001,588.6778803999998,588.8778724000001,588.8616273,588.1164437,,,,,,,,0,1,0.5297923000002811,None,,,,,,,,889,20,V,R,2026-02-23_11h26.53.770,VisualSearch_2526_3,,2025.2.4,2026-02-23 11h26.53.960168 +0100,
vertical.xlsx,The target is tilted.,135,11,3,1,0,1,1,1,1,1,1,1,0,0,0,0,1,7,8,135,space,8.612228200000118,None,0,1,2.442028299999947,None,space,3.5307630999996036,None,0,1,1,1,,,,,1,3,11,5,588.8778724000001,,,,,,,,,,,,,,,,,,,,,588.8623722999998,588.8778724000001,589.3615117000002,589.3660077000002,589.3823307,591.8276282999998,,,,,591.8278183,591.8427859999999,592.0429004,592.0265459,589.3823307,,,,,,,,0,1,2.442028299999947,None,,,,,,,,889,20,V,R,2026-02-23_11h26.53.770,VisualSearch_2526_3,,2025.2.4,2026-02-23 11h26.53.960168 +0100,
vertical.xlsx,The target is tilted.,135,12,4,1,1,1,1,1,1,1,1,1,1,1,1,1,0,11,12,135,space,8.612228200000118,None,0,0,0.881896300000335,None,space,3.5307630999996036,None,0,1,1,1,,,,,1,4,12,0,592.0429004,,,,,,,,,,,,,,,,,,,,,592.0272686999999,592.0429004,592.5268666999998,592.5317619999998,592.5485213999998,593.4433805000001,,,,,593.4435735,593.4589231000002,593.6589677,593.6427160000001,592.5485213999998,,,,,,,,0,0,0.881896300000335,None,,,,,,,,889,20,V,R,2026-02-23_11h26.53.770,VisualSearch_2526_3,,2025.2.4,2026-02-23 11h26.53.960168 +0100,
vertical.xlsx,The target is tilted.,135,13,5,1,0,1,1,1,0,0,0,0,0,0,0,0,1,3,4,135,space,8.612228200000118,None,0,1,0.6049376000000848,None,space,3.5307630999996036,None,0,1,1,1,,,,,1,5,13,6,593.6589677,,,,,,,,,,,,,,,,,,,,,593.6434938999998,593.6589677,594.1424795,594.1470015000002,594.1650913000001,594.7759536000001,,,,,594.7761265000001,594.7913940999999,594.9913270999998,594.9752805999999,594.1650913000001,,,,,,,,0,1,0.6049376000000848,None,,,,,,,,889,20,V,R,2026-02-23_11h26.53.770,VisualSearch_2526_3,,2025.2.4,2026-02-23 11h26.53.960168 +0100,
vertical.xlsx,The target is tilted.,135,14,6,1,1,1,1,1,1,1,1,1,0,0,0,0,0,7,8,135,space,8.612228200000118,None,0,0,1.3715749000002688,None,space,3.5307630999996036,None,0,1,1,1,,,,,1,6,14,1,594.9913270999998,,,,,,,,,,,,,,,,,,,,,594.9763464999999,594.9913270999998,595.4749377,595.477819,595.4911122999999,596.875006,,,,,596.8751761999999,596.8906540999999,597.0906889,597.0744868999998,595.4911122999999,,,,,,,,0,0,1.3715749000002688,None,,,,,,,,889,20,V,R,2026-02-23_11h26.53.770,VisualSearch_2526_3,,2025.2.4,2026-02-23 11h26.53.960168 +0100,
vertical.xlsx,The target is tilted.,135,15,7,1,1,1,1,1,0,0,0,0,0,0,0,0,0,3,4,135,space,8.612228200000118,None,0,0,0.6801976000001559,None,space,3.5307630999996036,None,0,1,1,1,,,,,1,7,15,2,597.0906889,,,,,,,,,,,,,,,,,,,,,597.0752169999998,597.0906889,597.5744069,597.5791803,597.5943884999999,598.2908146000002,,,,,598.2909885000001,598.3067497,598.5068050000002,598.4907464999999,597.5943884999999,,,,,,,,0,0,0.6801976000001559,None,,,,,,,,889,20,V,R,2026-02-23_11h26.53.770,VisualSearch_2526_3,,2025.2.4,2026-02-23 11h26.53.960168 +0100,
vertical.xlsx,The target is tilted.,135,16,0,2,0,1,1,1,0,0,0,0,0,0,0,0,1,3,4,135,space,8.612228200000118,None,0,1,0.6431265999999596,None,space,3.5307630999996036,None,0,1,1,1,,,,,2,0,16,6,598.5068050000002,,,,,,,,,,,,,,,,,,,,,598.4914470000001,598.5068050000002,598.9905077999999,598.9950411000002,599.0104560000002,599.6569542999998,,,,,599.6571501999999,599.6728220000002,599.8727425999998,599.8567510999999,599.0104560000002,,,,,,,,0,1,0.6431265999999596,None,,,,,,,,889,20,V,R,2026-02-23_11h26.53.770,VisualSearch_2526_3,,2025.2.4,2026-02-23 11h26.53.960168 +0100,
vertical.xlsx,The target is tilted.,135,17,1,2,0,1,1,1,1,1,1,1,1,1,1,1,1,11,12,135,space,8.612228200000118,None,0,1,1.5425241000002643,None,space,3.5307630999996036,None,0,1,1,1,,,,,2,1,17,4,599.8727425999998,,,,,,,,,,,,,,,,,,,,,599.8574541,599.8727425999998,600.3563569999999,600.3609101999998,600.3773788999999,601.9219636,,,,,601.9220468000001,601.9383055999999,602.1384854,602.1219487999999,600.3773788999999,,,,,,,,0,1,1.5425241000002643,None,,,,,,,,889,20,V,R,2026-02-23_11h26.53.770,VisualSearch_2526_3,,2025.2.4,2026-02-23 11h26.53.960168 +0100,
vertical.xlsx,The target is tilted.,135,18,2,2,1,1,1,1,1,1,1,1,0,0,0,0,0,7,8,135,space,8.612228200000118,None,1,1,1.4146357999998145,None,space,3.5307630999996036,None,0,1,1,1,,,,,2,2,18,1,602.1384854,,,,,,,,,,,,,,,,,,,,,602.1227078,602.1384854,602.6219517000002,602.6264778000002,602.6424702000002,604.0715957999998,,,,,604.0717886,604.0875828000001,604.2874395000001,604.2715626000002,602.6424702000002,,,,,,,,1,1,1.4146357999998145,None,,,,,,,,889,20,V,R,2026-02-23_11h26.53.770,VisualSearch_2526_3,,2025.2.4,2026-02-23 11h26.53.960168 +0100,
vertical.xlsx,The target is tilted.,135,19,3,2,1,0,0,0,0,0,0,0,0,0,0,0,0,0,1,135,space,8.612228200000118,None,1,1,0.5571772000002966,None,space,3.5307630999996036,None,0,1,1,1,,,,,2,3,19,3,604.2874395000001,,,,,,,,,,,,,,,,,,,,,604.2722633999999,604.2874395000001,604.7712542000002,604.7760770000002,604.7930525999998,605.3543422,,,,,605.3545292000001,605.3703707000002,605.5699559000002,605.5540819999999,604.7930525999998,,,,,,,,1,1,0.5571772000002966,None,,,,,,,,889,20,V,R,2026-02-23_11h26.53.770,VisualSearch_2526_3,,2025.2.4,2026-02-23 11h26.53.960168 +0100,
vertical.xlsx,The target is tilted.,135,20,4,2,1,1,1,1,0,0,0,0,0,0,0,0,0,3,4,135,space,8.612228200000118,None,1,1,0.9427903999999216,None,space,3.5307630999996036,None,0,1,1,1,,,,,2,4,20,2,605.5699559000002,,,,,,,,,,,,,,,,,,,,,605.5549091,605.5699559000002,606.0538611,606.0583874000001,606.0750896000002,607.0201761000001,,,,,607.0203466,607.0361713999998,607.2361521999999,607.2198449,606.0750896000002,,,,,,,,1,1,0.9427903999999216,None,,,,,,,,889,20,V,R,2026-02-23_11h26.53.770,VisualSearch_2526_3,,2025.2.4,2026-02-23 11h26.53.960168 +0100,
vertical.xlsx,The target is tilted.,135,21,5,2,0,0,0,0,0,0,0,0,0,0,0,0,1,1,1,135,space,8.612228200000118,None,0,1,0.6596048999999766,None,space,3.5307630999996036,None,0,1,1,1,,,,,2,5,21,7,607.2361521999999,,,,,,,,,,,,,,,,,,,,,607.2205670999999,607.2361521999999,607.7198657000001,607.7243621,607.7410401999998,608.4029730999998,,,,,608.4031616999998,608.4188504000001,608.6184916999998,608.6024868000002,607.7410401999998,,,,,,,,0,1,0.6596048999999766,None,,,,,,,,889,20,V,R,2026-02-23_11h26.53.770,VisualSearch_2526_3,,2025.2.4,2026-02-23 11h26.53.960168 +0100,
vertical.xlsx,The target is tilted.,135,22,6,2,0,1,1,1,1,1,1,1,0,0,0,0,1,7,8,135,space,8.612228200000118,None,0,1,2.0481574000000364,None,space,3.5307630999996036,None,0,1,1,1,,,,,2,6,22,5,608.6184916999998,,,,,,,,,,,,,,,,,,,,,608.6032573999998,608.6184916999998,609.1021542000001,609.1066589,609.1239266,611.1854317999998,,,,,611.1856221,611.2008991999999,611.4009448999998,611.3846589000002,609.1239266,,,,,,,,0,1,2.0481574000000364,None,,,,,,,,889,20,V,R,2026-02-23_11h26.53.770,VisualSearch_2526_3,,2025.2.4,2026-02-23 11h26.53.960168 +0100,
vertical.xlsx,The target is tilted.,135,23,7,2,1,1,1,1,1,1,1,1,1,1,1,1,0,11,12,135,space,8.612228200000118,None,0,0,2.2150151000000733,None,space,3.5307630999996036,None,0,1,1,1,,,,,2,7,23,0,611.4009448999998,,,,,,,,,,,,,,,,,,,,,611.3854440000002,611.4009448999998,611.8845367000001,611.8891120999999,611.9058327999999,614.1340204,,,,,614.1342345999999,614.1494752000001,614.3496167000001,614.3333445999999,611.9058327999999,,,,,,,,0,0,2.2150151000000733,None,,,,,,,,889,20,V,R,2026-02-23_11h26.53.770,VisualSearch_2526_3,,2025.2.4,2026-02-23 11h26.53.960168 +0100,
vertical.xlsx,The target is tilted.,135,24,0,3,1,0,0,0,0,0,0,0,0,0,0,0,0,0,1,135,space,8.612228200000118,None,1,1,0.5098683999999594,None,space,3.5307630999996036,None,0,1,1,1,,,,,3,0,24,3,614.3496167000001,,,,,,,,,,,,,,,,,,,,,614.3341054999999,614.3496167000001,614.8328723000002,614.8374384000001,614.8538928,615.3670092,,,,,615.3672130000002,615.3823418,615.5822292999999,615.5663241999998,614.8538928,,,,,,,,1,1,0.5098683999999594,None,,,,,,,,889,20,V,R,2026-02-23_11h26.53.770,VisualSearch_2526_3,,2025.2.4,2026-02-23 11h26.53.960168 +0100,
vertical.xlsx,The target is tilted.,135,25,1,3,0,0,0,0,0,0,0,0,0,0,0,0,1,1,1,135,space,8.612228200000118,None,1,0,0.47449360000018714,None,space,3.5307630999996036,None,0,1,1,1,,,,,3,1,25,7,615.5822292999999,,,,,,,,,,,,,,,,,,,,,615.5670484,615.5822292999999,616.0660363,616.0712126999999,616.0859357000002,616.5660478000002,,,,,616.5662386000001,616.5815111999998,616.7814476000001,616.7656607000001,616.0859357000002,,,,,,,,1,0,0.47449360000018714,None,,,,,,,,889,20,V,R,2026-02-23_11h26.53.770,VisualSearch_2526_3,,2025.2.4,2026-02-23 11h26.53.960168 +0100,
vertical.xlsx,The target is tilted.,135,26,2,3,0,1,1,1,0,0,0,0,0,0,0,0,1,3,4,135,space,8.612228200000118,None,0,1,2.434297400000105,None,space,3.5307630999996036,None,0,1,1,1,,,,,3,2,26,6,616.7814476000001,,,,,,,,,,,,,,,,,,,,,616.7663679999998,616.7814476000001,617.2653105000002,617.2698776999998,617.2850463000002,619.7311828999998,,,,,619.7313729999998,619.7470298000001,619.9470853,619.9309774999999,617.2850463000002,,,,,,,,0,1,2.434297400000105,None,,,,,,,,889,20,V,R,2026-02-23_11h26.53.770,VisualSearch_2526_3,,2025.2.4,2026-02-23 11h26.53.960168 +0100,
vertical.xlsx,The target is tilted.,135,27,3,3,1,1,1,1,1,1,1,1,0,0,0,0,0,7,8,135,space,8.612228200000118,None,1,1,0.9546233999999458,None,space,3.5307630999996036,None,0,1,1,1,,,,,3,3,27,1,619.9470853,,,,,,,,,,,,,,,,,,,,,619.9317945999999,619.9470853,620.4307449999999,620.4354037999999,620.4519468000001,621.4140841999999,,,,,621.4142731,621.4292911999999,621.6296436999999,621.6132940999998,620.4519468000001,,,,,,,,1,1,0.9546233999999458,None,,,,,,,,889,20,V,R,2026-02-23_11h26.53.770,VisualSearch_2526_3,,2025.2.4,2026-02-23 11h26.53.960168 +0100,
vertical.xlsx,The target is tilted.,135,28,4,3,0,1,1,1,1,1,1,1,0,0,0,0,1,7,8,135,space,8.612228200000118,None,0,1,2.9002669000001333,None,space,3.5307630999996036,None,0,1,1,1,,,,,3,4,28,5,621.6296436999999,,,,,,,,,,,,,,,,,,,,,621.6140222000001,621.6296436999999,622.1131348000001,622.1177126999999,622.1336804999999,625.0458237,,,,,625.0460141000001,625.0613887000002,625.2610889,625.2446373999999,622.1336804999999,,,,,,,,0,1,2.9002669000001333,None,,,,,,,,889,20,V,R,2026-02-23_11h26.53.770,VisualSearch_2526_3,,2025.2.4,2026-02-23 11h26.53.960168 +0100,
vertical.xlsx,The target is tilted.,135,29,5,3,1,1,1,1,1,1,1,1,1,1,1,1,0,11,12,135,space,8.612228200000118,None,1,1,2.0140056999998706,None,space,3.5307630999996036,None,0,1,1,1,,,,,3,5,29,0,625.2610889,,,,,,,,,,,,,,,,,,,,,625.2450163999999,625.2610889,625.7449081000002,625.7494832999998,625.7647856000001,627.7945213999999,,,,,627.7947141000002,627.8100649,628.0099211999998,627.9936587999998,625.7647856000001,,,,,,,,1,1,2.0140056999998706,None,,,,,,,,889,20,V,R,2026-02-23_11h26.53.770,VisualSearch_2526_3,,2025.2.4,2026-02-23 11h26.53.960168 +0100,
vertical.xlsx,The target is tilted.,135,30,6,3,0,1,1,1,1,1,1,1,1,1,1,1,1,11,12,135,space,8.612228200000118,None,0,1,1.5906260000001566,None,space,3.5307630999996036,None,0,1,1,1,,,,,3,6,30,4,628.0099211999998,,,,,,,,,,,,,,,,,,,,,627.9944203000002,628.0099211999998,628.4935275999999,628.4980609000002,628.5139077000001,630.1086996000001,,,,,630.1088164999999,630.1248607999999,,630.3092935000002,628.5139077000001,,,,,,,,0,1,1.5906260000001566,None,,,,,,,,889,20,V,R,2026-02-23_11h26.53.770,VisualSearch_2526_3,,2025.2.4,2026-02-23 11h26.53.960168 +0100,
vertical.xlsx,The target is tilted.,135,31,7,3,1,1,1,1,0,0,0,0,0,0,0,0,0,3,4,135,space,8.612228200000118,None,1,1,0.6885003000002143,None,space,3.5307630999996036,None,0,1,1,1,,,,,3,7,31,2,630.3256896999999,,,,,,,,,,,,,,,,,,,,,630.3100523999999,630.3256896999999,630.8091943000002,630.8143834,630.8305873000002,631.5260473000001,,,,,631.5262369999998,631.5415718000002,631.7413011000001,631.7255342999999,,,,,,,,,1,1,0.6885003000002143,None,,,,,,,,889,20,V,R,2026-02-23_11h26.53.770,VisualSearch_2526_3,,2025.2.4,2026-02-23 11h26.53.960168 +0100,
vertical.xlsx,The target is tilted.,135,32,0,4,1,1,1,1,1,1,1,1,0,0,0,0,0,7,8,135,space,8.612228200000118,None,0,0,1.5668872999999621,None,space,3.5307630999996036,None,0,1,1,1,,,,,4,0,32,1,631.7413011000001,,,,,,,,,,,,,,,,,,,,,631.7262552999998,631.7413011000001,632.2254645999999,632.2303823,632.2463423000002,633.8257411000002,,,,,633.8259349000002,633.8404103,634.0406568999999,634.0243343999998,632.2463423000002,,,,,,,,0,0,1.5668872999999621,None,,,,,,,,889,20,V,R,2026-02-23_11h26.53.770,VisualSearch_2526_3,,2025.2.4,2026-02-23 11h26.53.960168 +0100,
vertical.xlsx,The target is tilted.,135,33,1,4,1,0,0,0,0,0,0,0,0,0,0,0,0,0,1,135,space,8.612228200000118,None,1,1,0.602550600000086,None,space,3.5307630999996036,None,0,1,1,1,,,,,4,1,33,3,634.0406568999999,,,,,,,,,,,,,,,,,,,,,634.0251675000002,634.0406568999999,634.5241560000002,634.5286428000002,634.545453,635.1578152999998,,,,,635.158017,635.1730740999999,635.3733410000002,635.3572829000002,634.545453,,,,,,,,1,1,0.602550600000086,None,,,,,,,,889,20,V,R,2026-02-23_11h26.53.770,VisualSearch_2526_3,,2025.2.4,2026-02-23 11h26.53.960168 +0100,
vertical.xlsx,The target is tilted.,135,34,2,4,0,1,1,1,0,0,0,0,0,0,0,0,1,3,4,135,space,8.612228200000118,None,0,1,0.6861897999997382,None,space,3.5307630999996036,None,0,1,1,1,,,,,4,2,34,6,635.3733410000002,,,,,,,,,,,,,,,,,,,,,635.3581305999999,635.3733410000002,635.8569123,635.8615434999999,635.8776868000002,636.5738828000001,,,,,636.5740766000001,636.5893709,636.7894039999999,636.7732546999998,635.8776868000002,,,,,,,,0,1,0.6861897999997382,None,,,,,,,,889,20,V,R,2026-02-23_11h26.53.770,VisualSearch_2526_3,,2025.2.4,2026-02-23 11h26.53.960168 +0100,
vertical.xlsx,The target is tilted.,135,35,3,4,0,0,0,0,0,0,0,0,0,0,0,0,1,1,1,135,space,8.612228200000118,None,0,1,0.5426760000000286,None,space,3.5307630999996036,None,0,1,1,1,,,,,4,3,35,7,636.7894039999999,,,,,,,,,,,,,,,,,,,,,636.7739509999999,636.7894039999999,637.2730729000002,637.2775597000002,637.29411,637.8400396999998,,,,,637.8402284000001,637.8555222000002,638.0554205999999,638.0392214000001,637.29411,,,,,,,,0,1,0.5426760000000286,None,,,,,,,,889,20,V,R,2026-02-23_11h26.53.770,VisualSearch_2526_3,,2025.2.4,2026-02-23 11h26.53.960168 +0100,
vertical.xlsx,The target is tilted.,135,36,4,4,1,1,1,1,1,1,1,1,1,1,1,1,0,11,12,135,space,8.612228200000118,None,1,1,1.8556438999999045,None,space,3.5307630999996036,None,0,1,1,1,,,,,4,4,36,0,638.0554205999999,,,,,,,,,,,,,,,,,,,,,638.0399749999999,638.0554205999999,638.5386460000002,638.543148,638.5550860000001,640.4219233000001,,,,,640.4220902999998,640.4375784000001,640.6373983999999,640.6215390999998,638.5550860000001,,,,,,,,1,1,1.8556438999999045,None,,,,,,,,889,20,V,R,2026-02-23_11h26.53.770,VisualSearch_2526_3,,2025.2.4,2026-02-23 11h26.53.960168 +0100,
