file_name,block_instructions,target_example,thisN,thisTrialN,thisRepN,target_presence,opacity_1,opacity_2,opacity_3,opacity_4,opacity_5,opacity_6,opacity_7,opacity_8,opacity_9,opacity_10,opacity_11,opacity_12,n_distract,n_items,target_ori,key_resp_4.keys,key_resp_4.rt,key_resp_4.duration,key_resp.keys,key_resp.corr,key_resp.rt,key_resp.duration,key_resp_5.keys,key_resp_5.rt,key_resp_5.duration,blocks.thisRepN,blocks.thisTrialN,blocks.thisN,blocks.thisIndex,practice_trials.thisRepN,practice_trials.thisTrialN,practice_trials.thisN,practice_trials.thisIndex,trials.thisRepN,trials.thisTrialN,trials.thisN,trials.thisIndex,thisRow.t,notes,Welcome.started,WelcomeText.started,key_resp_2.started,Welcome.stopped,key_resp_2.keys,key_resp_2.rt,key_resp_2.duration,InformedConsent.started,text_4.started,InformedConsent.stopped,key_resp_6.keys,key_resp_6.rt,key_resp_6.duration,key_resp_4.started,example_target.started,text_3.started,blocks.key_resp_4.keys,blocks.key_resp_4.rt,blocks.key_resp_4.duration,FixCross.started,fixCross.started,FixCross.stopped,Stimulus.started,key_resp.started,Stimulus.stopped,practice_trials.key_resp.keys,practice_trials.key_resp.corr,practice_trials.key_resp.rt,practice_trials.key_resp.duration,BlankScreen.started,text.started,text.stopped,BlankScreen.stopped,fixCross.stopped,ExperimentStart.started,text_2.started,key_resp_5.started,ExperimentStart.stopped,blocks.key_resp_5.keys,blocks.key_resp_5.rt,blocks.key_resp_5.duration,trials.key_resp.keys,trials.key_resp.corr,trials.key_resp.rt,trials.key_resp.duration,Thanks.started,ThankYou.started,key_resp_3.started,Thanks.stopped,key_resp_3.keys,key_resp_3.rt,key_resp_3.duration,participant,leeftijd,gender,links/rechtshandig,date,expName,expVersion,psychopyVersion,expStart,
,,,,,,,,,,,,,,,,,,,,,,,,,,,,,,,,,,,,,,,,,,,,,,0.022083699999711826,0.032939299999725336,0.032939299999725336,88.66120509999973,space,88.60088170000017,None,,,,,,,,,,,,,,,,,,,,,,,,,,,,,,,,,,,,,,,,,,,,,,890,21,M,R,2026-02-23_11h43.25.695,VisualSearch_2526_3,,2025.2.4,2026-02-23 11h43.25.892946 +0100,
,,,,,,,,,,,,,,,,,,,,,,,,,,,,,,,,,,,,,,,,,,,,,,,,,,,,,88.6612897,88.66690930000004,109.00588029999972,y,20.329054299999825,None,,,,,,,,,,,,,,,,,,,,,,,,,,,,,,,,,,,,,,,,890,21,M,R,2026-02-23_11h43.25.695,VisualSearch_2526_3,,2025.2.4,2026-02-23 11h43.25.892946 +0100,
vertical.xlsx,The target is tilted.,135,0,0,0,0,0,0,0,0,0,0,0,0,0,0,0,1,1,1,135,space,8.608841099999609,None,0,1,2.0407117999998263,None,,,,0,0,0,1,0,0,0,7,,,,,117.69200269999965,,,,,,,,,,,,,,,109.0447965999997,109.0447965999997,109.0447965999997,space,8.608841099999609,None,117.687457,117.69200269999965,118.18402629999991,118.18878049999967,118.20347179999999,120.25021749999996,0,1,2.0407117999998263,None,120.25039509999988,120.26609749999989,120.46601349999992,120.44945289999987,,,,,,,,,,,,,,,,,,,,890,21,M,R,2026-02-23_11h43.25.695,VisualSearch_2526_3,,2025.2.4,2026-02-23 11h43.25.892946 +0100,
vertical.xlsx,The target is tilted.,135,1,1,0,1,1,1,1,1,1,1,1,1,1,1,1,0,11,12,135,space,8.608841099999609,None,1,1,1.6850620000000163,None,,,,0,0,0,1,0,1,1,0,,,,,120.46601349999992,,,,,,,,,,,,,,,,,,,,,120.45014139999967,120.46601349999992,120.9495982999997,120.95421969999961,120.96998940000003,122.66610149999997,1,1,1.6850620000000163,None,122.6662924999996,122.68129569999974,122.88153869999996,122.86563099999967,120.96998940000003,,,,,,,,,,,,,,,,,,,890,21,M,R,2026-02-23_11h43.25.695,VisualSearch_2526_3,,2025.2.4,2026-02-23 11h43.25.892946 +0100,
vertical.xlsx,The target is tilted.,135,2,2,0,0,1,1,1,0,0,0,0,0,0,0,0,1,3,4,135,space,8.608841099999609,None,0,1,0.9777045000000726,None,,,,0,0,0,1,0,2,2,6,,,,,122.88153869999996,,,,,,,,,,,,,,,,,,,,,122.8663948999997,122.88153869999996,123.36518279999973,123.36972839999999,123.38586510000005,124.3649046999999,0,1,0.9777045000000726,None,124.36511149999978,124.38032109999995,124.5807663999999,124.56489629999987,123.38586510000005,,,,,,,,,,,,,,,,,,,890,21,M,R,2026-02-23_11h43.25.695,VisualSearch_2526_3,,2025.2.4,2026-02-23 11h43.25.892946 +0100,
vertical.xlsx,The target is tilted.,135,3,3,0,0,1,1,1,1,1,1,1,1,1,1,1,1,11,12,135,space,8.608841099999609,None,0,1,2.5553595000001224,None,,,,0,0,0,1,0,3,3,4,,,,,124.5807663999999,,,,,,,,,,,,,,,,,,,,,124.56557589999966,124.5807663999999,125.06448229999978,125.06909159999987,125.0835732999999,127.64676250000002,0,1,2.5553595000001224,None,127.6474403999996,127.66213229999994,127.86261149999973,127.84646509999993,125.0835732999999,,,,,,,,,,,,,,,,,,,890,21,M,R,2026-02-23_11h43.25.695,VisualSearch_2526_3,,2025.2.4,2026-02-23 11h43.25.892946 +0100,
vertical.xlsx,The target is tilted.,135,4,4,0,0,1,1,1,1,1,1,1,0,0,0,0,1,7,8,135,space,8.608841099999609,None,0,1,1.5142854000000625,None,,,,0,0,0,1,0,4,4,5,,,,,127.86261149999973,,,,,,,,,,,,,,,,,,,,,127.84716329999992,127.86261149999973,128.3461169999996,128.3506553999996,128.36594149999974,129.89515729999994,0,1,1.5142854000000625,None,129.89533349999965,129.91118099999994,130.11160719999998,130.09547969999994,128.36594149999974,,,,,,,,,,,,,,,,,,,890,21,M,R,2026-02-23_11h43.25.695,VisualSearch_2526_3,,2025.2.4,2026-02-23 11h43.25.892946 +0100,
vertical.xlsx,The target is tilted.,135,5,5,0,1,0,0,0,0,0,0,0,0,0,0,0,0,0,1,135,space,8.608841099999609,None,1,1,0.7156152000002294,None,,,,0,0,0,1,0,5,5,3,,,,,130.11160719999998,,,,,,,,,,,,,,,,,,,,,130.0961599999996,130.11160719999998,130.595233,130.5997711,130.61486419999983,131.34499059999962,1,1,0.7156152000002294,None,131.3452044999999,131.3603776,131.56029179999996,131.54389859999992,130.61486419999983,,,,,,,,,,,,,,,,,,,890,21,M,R,2026-02-23_11h43.25.695,VisualSearch_2526_3,,2025.2.4,2026-02-23 11h43.25.892946 +0100,
vertical.xlsx,The target is tilted.,135,6,6,0,1,1,1,1,1,1,1,1,0,0,0,0,0,7,8,135,space,8.608841099999609,None,1,1,0.6357716999996228,None,,,,0,0,0,1,0,6,6,1,,,,,131.56029179999996,,,,,,,,,,,,,,,,,,,,,131.54418769999984,131.56029179999996,132.04450069999984,132.04916279999998,132.0653344999996,132.71143249999977,1,1,0.6357716999996228,None,132.7116275999997,132.72658409999985,132.9268044999999,132.91079179999997,132.0653344999996,,,,,,,,,,,,,,,,,,,890,21,M,R,2026-02-23_11h43.25.695,VisualSearch_2526_3,,2025.2.4,2026-02-23 11h43.25.892946 +0100,
vertical.xlsx,The target is tilted.,135,7,7,0,1,1,1,1,0,0,0,0,0,0,0,0,0,3,4,135,space,8.608841099999609,None,1,1,0.7046526999997695,None,,,,0,0,0,1,0,7,7,2,,,,,132.9268044999999,,,,,,,,,,,,,,,,,,,,,132.91151179999997,132.9268044999999,133.4105437999997,133.41525890000003,133.42989129999978,134.14469710000003,1,1,0.7046526999997695,None,134.14489149999963,134.15921949999984,134.35953159999963,134.3431757999997,133.42989129999978,,,,,,,,,,,,,,,,,,,890,21,M,R,2026-02-23_11h43.25.695,VisualSearch_2526_3,,2025.2.4,2026-02-23 11h43.25.892946 +0100,
vertical.xlsx,The target is tilted.,135,0,0,0,1,1,1,1,1,1,1,1,0,0,0,0,0,7,8,135,space,8.608841099999609,None,0,0,1.5112900999997692,None,space,1.8639610999998695,None,0,0,0,1,,,,,0,0,0,1,136.2545938999997,,,,,,,,,,,,,,,,,,,,,136.25077469999997,136.2545938999997,136.74220609999975,136.74697209999977,136.76027350000004,138.2754299999997,,,,,138.27564259999963,138.29041919999963,138.4909622,138.47503589999997,,134.3502100999999,134.35953159999963,134.35953159999963,136.22646779999968,space,1.8639610999998695,None,0,0,1.5112900999997692,None,,,,,,,,890,21,M,R,2026-02-23_11h43.25.695,VisualSearch_2526_3,,2025.2.4,2026-02-23 11h43.25.892946 +0100,
vertical.xlsx,The target is tilted.,135,1,1,0,0,1,1,1,0,0,0,0,0,0,0,0,1,3,4,135,space,8.608841099999609,None,0,1,1.3055233999998563,None,space,1.8639610999998695,None,0,0,0,1,,,,,0,1,1,6,138.4909622,,,,,,,,,,,,,,,,,,,,,138.47574080000004,138.4909622,138.97485719999986,138.9792610999998,138.99632699999984,140.30729659999997,,,,,140.3073870999997,140.32284979999986,140.5231991999999,140.50737519999984,138.99632699999984,,,,,,,,0,1,1.3055233999998563,None,,,,,,,,890,21,M,R,2026-02-23_11h43.25.695,VisualSearch_2526_3,,2025.2.4,2026-02-23 11h43.25.892946 +0100,
vertical.xlsx,The target is tilted.,135,2,2,0,1,1,1,1,0,0,0,0,0,0,0,0,0,3,4,135,space,8.608841099999609,None,1,1,0.8219961999998304,None,space,1.8639610999998695,None,0,0,0,1,,,,,0,2,2,2,140.5231991999999,,,,,,,,,,,,,,,,,,,,,140.5081441999996,140.5231991999999,141.00713499999983,141.0117121999997,141.02683949999982,141.85698419999972,,,,,141.85715299999993,141.87229909999996,142.07238589999997,142.05644699999993,141.02683949999982,,,,,,,,1,1,0.8219961999998304,None,,,,,,,,890,21,M,R,2026-02-23_11h43.25.695,VisualSearch_2526_3,,2025.2.4,2026-02-23 11h43.25.892946 +0100,
vertical.xlsx,The target is tilted.,135,3,3,0,0,1,1,1,1,1,1,1,1,1,1,1,1,11,12,135,space,8.608841099999609,None,0,1,1.8677631999998994,None,space,1.8639610999998695,None,0,0,0,1,,,,,0,3,3,4,142.07238589999997,,,,,,,,,,,,,,,,,,,,,142.05717379999987,142.07238589999997,142.55650369999967,142.56097409999984,142.57685569999967,144.45501109999987,,,,,144.45511429999988,144.47097970000004,144.67115639999975,144.6549439999999,142.57685569999967,,,,,,,,0,1,1.8677631999998994,None,,,,,,,,890,21,M,R,2026-02-23_11h43.25.695,VisualSearch_2526_3,,2025.2.4,2026-02-23 11h43.25.892946 +0100,
vertical.xlsx,The target is tilted.,135,4,4,0,1,0,0,0,0,0,0,0,0,0,0,0,0,0,1,135,space,8.608841099999609,None,1,1,0.5392856000003121,None,space,1.8639610999998695,None,0,0,0,1,,,,,0,4,4,3,144.67115639999975,,,,,,,,,,,,,,,,,,,,,144.6556085999996,144.67115639999975,145.15424779999967,145.15621569999985,145.17074869999988,145.72224629999982,,,,,145.72244739999996,145.7373206999996,145.93737949999968,145.92108299999973,145.17074869999988,,,,,,,,1,1,0.5392856000003121,None,,,,,,,,890,21,M,R,2026-02-23_11h43.25.695,VisualSearch_2526_3,,2025.2.4,2026-02-23 11h43.25.892946 +0100,
vertical.xlsx,The target is tilted.,135,5,5,0,0,0,0,0,0,0,0,0,0,0,0,0,1,1,1,135,space,8.608841099999609,None,1,0,0.40178329999980633,None,space,1.8639610999998695,None,0,0,0,1,,,,,0,5,5,7,145.93737949999968,,,,,,,,,,,,,,,,,,,,,145.92181759999994,145.93737949999968,146.42160399999966,146.42681249999987,146.44251469999972,146.85374769999999,,,,,146.85383629999978,146.8698614,147.06973209999978,147.05329919999986,146.44251469999972,,,,,,,,1,0,0.40178329999980633,None,,,,,,,,890,21,M,R,2026-02-23_11h43.25.695,VisualSearch_2526_3,,2025.2.4,2026-02-23 11h43.25.892946 +0100,
vertical.xlsx,The target is tilted.,135,6,6,0,0,1,1,1,1,1,1,1,0,0,0,0,1,7,8,135,space,8.608841099999609,None,0,1,1.9050819000003685,None,space,1.8639610999998695,None,0,0,0,1,,,,,0,6,6,5,147.06973209999978,,,,,,,,,,,,,,,,,,,,,147.05358819999992,147.06973209999978,147.5541604,147.5593885999997,147.5744612999997,149.48679839999977,,,,,149.4869635,149.50217859999975,149.7026818999998,149.68652949999978,,,,,,,,,0,1,1.9050819000003685,None,,,,,,,,890,21,M,R,2026-02-23_11h43.25.695,VisualSearch_2526_3,,2025.2.4,2026-02-23 11h43.25.892946 +0100,
vertical.xlsx,The target is tilted.,135,7,7,0,1,1,1,1,1,1,1,1,1,1,1,1,0,11,12,135,space,8.608841099999609,None,0,0,3.5718113999996604,None,space,1.8639610999998695,None,0,0,0,1,,,,,0,7,7,0,149.7026818999998,,,,,,,,,,,,,,,,,,,,,149.68731419999995,149.7026818999998,150.18637679999983,150.19092769999997,150.2060881999996,153.7853716999998,,,,,153.78559449999966,153.80021829999987,154.0007268999998,153.98460699999987,150.2060881999996,,,,,,,,0,0,3.5718113999996604,None,,,,,,,,890,21,M,R,2026-02-23_11h43.25.695,VisualSearch_2526_3,,2025.2.4,2026-02-23 11h43.25.892946 +0100,
vertical.xlsx,The target is tilted.,135,8,0,1,1,1,1,1,0,0,0,0,0,0,0,0,0,3,4,135,space,8.608841099999609,None,1,1,0.8025746000002982,None,space,1.8639610999998695,None,0,0,0,1,,,,,1,0,8,2,154.0007268999998,,,,,,,,,,,,,,,,,,,,,153.98541009999963,154.0007268999998,154.48395200000004,154.48861209999995,154.5006927999998,155.31726079999999,,,,,155.31747169999971,155.33280829999967,155.5334211999998,155.51729149999983,154.5006927999998,,,,,,,,1,1,0.8025746000002982,None,,,,,,,,890,21,M,R,2026-02-23_11h43.25.695,VisualSearch_2526_3,,2025.2.4,2026-02-23 11h43.25.892946 +0100,
vertical.xlsx,The target is tilted.,135,9,1,1,0,0,0,0,0,0,0,0,0,0,0,0,1,1,1,135,space,8.608841099999609,None,0,1,0.5444552000003569,None,space,1.8639610999998695,None,0,0,0,1,,,,,1,1,9,7,155.5334211999998,,,,,,,,,,,,,,,,,,,,,155.5180478999996,155.5334211999998,156.0170621999996,156.02154949999976,156.0366630999997,156.58410539999977,,,,,156.58436889999984,156.5989926999996,156.79894799999965,156.7829703999996,156.0366630999997,,,,,,,,0,1,0.5444552000003569,None,,,,,,,,890,21,M,R,2026-02-23_11h43.25.695,VisualSearch_2526_3,,2025.2.4,2026-02-23 11h43.25.892946 +0100,
vertical.xlsx,The target is tilted.,135,10,2,1,0,1,1,1,1,1,1,1,0,0,0,0,1,7,8,135,space,8.608841099999609,None,0,1,1.334947899999861,None,space,1.8639610999998695,None,0,0,0,1,,,,,1,2,10,5,156.79894799999965,,,,,,,,,,,,,,,,,,,,,156.78370779999977,156.79894799999965,157.28327119999994,157.28594599999997,157.29854709999972,158.64871099999982,,,,,158.6488532999997,158.66476489999968,158.86527109999997,158.84902469999997,157.29854709999972,,,,,,,,0,1,1.334947899999861,None,,,,,,,,890,21,M,R,2026-02-23_11h43.25.695,VisualSearch_2526_3,,2025.2.4,2026-02-23 11h43.25.892946 +0100,
vertical.xlsx,The target is tilted.,135,11,3,1,1,0,0,0,0,0,0,0,0,0,0,0,0,0,1,135,space,8.608841099999609,None,1,1,0.5403921000001901,None,space,1.8639610999998695,None,0,0,0,1,,,,,1,3,11,3,158.86527109999997,,,,,,,,,,,,,,,,,,,,,158.84976899999992,158.86527109999997,159.3486951,159.35335589999977,159.36969299999964,159.91573599999992,,,,,159.9159470999998,159.9308146999997,160.13134649999984,160.11524579999968,159.36969299999964,,,,,,,,1,1,0.5403921000001901,None,,,,,,,,890,21,M,R,2026-02-23_11h43.25.695,VisualSearch_2526_3,,2025.2.4,2026-02-23 11h43.25.892946 +0100,
vertical.xlsx,The target is tilted.,135,12,4,1,1,1,1,1,1,1,1,1,1,1,1,1,0,11,12,135,space,8.608841099999609,None,1,1,2.403077399999802,None,space,1.8639610999998695,None,0,0,0,1,,,,,1,4,12,0,160.13134649999984,,,,,,,,,,,,,,,,,,,,,160.11599549999983,160.13134649999984,160.61486669999977,160.61939029999985,160.6358439999999,163.04772979999962,,,,,163.0479395999996,163.0627586999999,163.26325719999977,163.2468775999996,160.6358439999999,,,,,,,,1,1,2.403077399999802,None,,,,,,,,890,21,M,R,2026-02-23_11h43.25.695,VisualSearch_2526_3,,2025.2.4,2026-02-23 11h43.25.892946 +0100,
vertical.xlsx,The target is tilted.,135,13,5,1,0,1,1,1,1,1,1,1,1,1,1,1,1,11,12,135,space,8.608841099999609,None,0,1,2.0646857000001546,None,space,1.8639610999998695,None,0,0,0,1,,,,,1,5,13,4,163.26325719999977,,,,,,,,,,,,,,,,,,,,,163.24764319999986,163.26325719999977,163.74684549999984,163.7513144999998,163.76643419999982,165.84520410000005,,,,,165.84533209999972,165.86167369999976,,166.04547460000003,163.76643419999982,,,,,,,,0,1,2.0646857000001546,None,,,,,,,,890,21,M,R,2026-02-23_11h43.25.695,VisualSearch_2526_3,,2025.2.4,2026-02-23 11h43.25.892946 +0100,
vertical.xlsx,The target is tilted.,135,14,6,1,0,1,1,1,0,0,0,0,0,0,0,0,1,3,4,135,space,8.608841099999609,None,0,1,0.8887442999998711,None,space,1.8639610999998695,None,0,0,0,1,,,,,1,6,14,6,166.06203519999963,,,,,,,,,,,,,,,,,,,,,166.0462524999998,166.06203519999963,166.54560849999962,166.55017339999995,166.56587649999983,167.46182090000002,,,,,167.4620485999999,167.4775095,167.67761239999982,167.66171510000004,166.56587649999983,,,,,,,,0,1,0.8887442999998711,None,,,,,,,,890,21,M,R,2026-02-23_11h43.25.695,VisualSearch_2526_3,,2025.2.4,2026-02-23 11h43.25.892946 +0100,
vertical.xlsx,The target is tilted.,135,15,7,1,1,1,1,1,1,1,1,1,0,0,0,0,0,7,8,135,space,8.608841099999609,None,1,1,0.7305621999998948,None,space,1.8639610999998695,None,0,0,0,1,,,,,1,7,15,1,167.67761239999982,,,,,,,,,,,,,,,,,,,,,167.66254549999985,167.67761239999982,168.16156619999992,168.16615030000003,168.18083979999983,168.92709399999967,,,,,168.9272103999997,168.94375199999968,,169.12767559999975,168.18083979999983,,,,,,,,1,1,0.7305621999998948,None,,,,,,,,890,21,M,R,2026-02-23_11h43.25.695,VisualSearch_2526_3,,2025.2.4,2026-02-23 11h43.25.892946 +0100,
vertical.xlsx,The target is tilted.,135,16,0,2,1,1,1,1,0,0,0,0,0,0,0,0,0,3,4,135,space,8.608841099999609,None,1,1,0.7435767000001761,None,space,1.8639610999998695,None,0,0,0,1,,,,,2,0,16,2,169.14399849999973,,,,,,,,,,,,,,,,,,,,,169.1286584999998,169.14399849999973,169.6273357,169.63202009999986,169.64661279999973,170.39402440000003,,,,,170.39423269999998,170.40942759999962,170.60982669999976,170.59383979999984,,,,,,,,,1,1,0.7435767000001761,None,,,,,,,,890,21,M,R,2026-02-23_11h43.25.695,VisualSearch_2526_3,,2025.2.4,2026-02-23 11h43.25.892946 +0100,
vertical.xlsx,The target is tilted.,135,17,1,2,0,0,0,0,0,0,0,0,0,0,0,0,1,1,1,135,space,8.608841099999609,None,0,1,0.5471345000000838,None,space,1.8639610999998695,None,0,0,0,1,,,,,2,1,17,7,170.60982669999976,,,,,,,,,,,,,,,,,,,,,170.59456909999972,170.60982669999976,171.09346589999996,171.09819289999996,171.11318779999965,171.67563599999994,,,,,171.67572829999972,171.69243179999967,,171.87586909999982,171.11318779999965,,,,,,,,0,1,0.5471345000000838,None,,,,,,,,890,21,M,R,2026-02-23_11h43.25.695,VisualSearch_2526_3,,2025.2.4,2026-02-23 11h43.25.892946 +0100,
vertical.xlsx,The target is tilted.,135,18,2,2,0,1,1,1,1,1,1,1,1,1,1,1,1,11,12,135,space,8.608841099999609,None,0,1,1.880246299999726,None,space,1.8639610999998695,None,0,0,0,1,,,,,2,2,18,4,171.89260149999973,,,,,,,,,,,,,,,,,,,,,171.87662309999996,171.89260149999973,172.37591840000005,172.3804656999996,172.3962250999998,174.2915641999998,,,,,174.29170989999966,174.3076334999996,174.50772899999993,174.49180009999964,,,,,,,,,0,1,1.880246299999726,None,,,,,,,,890,21,M,R,2026-02-23_11h43.25.695,VisualSearch_2526_3,,2025.2.4,2026-02-23 11h43.25.892946 +0100,
vertical.xlsx,The target is tilted.,135,19,3,2,1,0,0,0,0,0,0,0,0,0,0,0,0,0,1,135,space,8.608841099999609,None,1,1,0.49331019999999626,None,space,1.8639610999998695,None,0,0,0,1,,,,,2,3,19,3,174.50772899999993,,,,,,,,,,,,,,,,,,,,,174.49256809999997,174.50772899999993,174.99175479999985,174.99640550000004,175.01221050000004,175.5086993,,,,,175.5089036999998,175.52374489999966,175.72413289999986,175.70786969999972,175.01221050000004,,,,,,,,1,1,0.49331019999999626,None,,,,,,,,890,21,M,R,2026-02-23_11h43.25.695,VisualSearch_2526_3,,2025.2.4,2026-02-23 11h43.25.892946 +0100,
vertical.xlsx,The target is tilted.,135,20,4,2,1,1,1,1,1,1,1,1,0,0,0,0,0,7,8,135,space,8.608841099999609,None,1,1,0.6212761000001592,None,space,1.8639610999998695,None,0,0,0,1,,,,,2,4,20,1,175.72413289999986,,,,,,,,,,,,,,,,,,,,,175.70860439999979,175.72413289999986,176.2078177999997,176.21242859999984,176.22740529999965,176.85812429999987,,,,,176.85833060000004,176.87312619999966,177.0732036999998,177.0573460999999,176.22740529999965,,,,,,,,1,1,0.6212761000001592,None,,,,,,,,890,21,M,R,2026-02-23_11h43.25.695,VisualSearch_2526_3,,2025.2.4,2026-02-23 11h43.25.892946 +0100,
vertical.xlsx,The target is tilted.,135,21,5,2,0,1,1,1,0,0,0,0,0,0,0,0,1,3,4,135,space,8.608841099999609,None,0,1,0.6252375999997639,None,space,1.8639610999998695,None,0,0,0,1,,,,,2,5,21,6,177.0732036999998,,,,,,,,,,,,,,,,,,,,,177.05812449999985,177.0732036999998,177.5573973999999,177.56195979999984,177.57716039999968,178.20737259999987,,,,,178.20758039999964,178.22253179999962,178.42300129999967,178.40680099999963,177.57716039999968,,,,,,,,0,1,0.6252375999997639,None,,,,,,,,890,21,M,R,2026-02-23_11h43.25.695,VisualSearch_2526_3,,2025.2.4,2026-02-23 11h43.25.892946 +0100,
vertical.xlsx,The target is tilted.,135,22,6,2,0,1,1,1,1,1,1,1,0,0,0,0,1,7,8,135,space,8.608841099999609,None,0,1,1.6098190999996405,None,space,1.8639610999998695,None,0,0,0,1,,,,,2,6,22,5,178.42300129999967,,,,,,,,,,,,,,,,,,,,,178.40756669999973,178.42300129999967,178.90666099999999,178.91132639999978,178.92640959999972,180.53897759999973,,,,,180.53907159999972,180.55452859999968,180.75529049999977,180.73901369999976,178.92640959999972,,,,,,,,0,1,1.6098190999996405,None,,,,,,,,890,21,M,R,2026-02-23_11h43.25.695,VisualSearch_2526_3,,2025.2.4,2026-02-23 11h43.25.892946 +0100,
vertical.xlsx,The target is tilted.,135,23,7,2,1,1,1,1,1,1,1,1,1,1,1,1,0,11,12,135,space,8.608841099999609,None,1,1,0.6994776999999885,None,space,1.8639610999998695,None,0,0,0,1,,,,,2,7,23,0,180.75529049999977,,,,,,,,,,,,,,,,,,,,,180.7397744,180.75529049999977,181.23882569999978,181.24340349999966,181.25791319999962,181.97142269999995,,,,,181.97156419999965,181.98745149999968,182.18757749999986,182.1716432999997,181.25791319999962,,,,,,,,1,1,0.6994776999999885,None,,,,,,,,890,21,M,R,2026-02-23_11h43.25.695,VisualSearch_2526_3,,2025.2.4,2026-02-23 11h43.25.892946 +0100,
vertical.xlsx,The target is tilted.,135,24,0,3,1,1,1,1,0,0,0,0,0,0,0,0,0,3,4,135,space,8.608841099999609,None,1,1,0.5625696000001881,None,space,1.8639610999998695,None,0,0,0,1,,,,,3,0,24,2,182.18757749999986,,,,,,,,,,,,,,,,,,,,,182.1723864999999,182.18757749999986,182.67169699999977,182.67704299999968,182.69009209999967,183.25505569999996,,,,,183.25523829999975,183.2702574,183.47066909999967,183.4541489999997,182.69009209999967,,,,,,,,1,1,0.5625696000001881,None,,,,,,,,890,21,M,R,2026-02-23_11h43.25.695,VisualSearch_2526_3,,2025.2.4,2026-02-23 11h43.25.892946 +0100,
vertical.xlsx,The target is tilted.,135,25,1,3,1,1,1,1,1,1,1,1,1,1,1,1,0,11,12,135,space,8.608841099999609,None,1,1,0.7565529999997125,None,space,1.8639610999998695,None,0,0,0,1,,,,,3,1,25,0,183.47066909999967,,,,,,,,,,,,,,,,,,,,,183.4549861999999,183.47066909999967,183.95416879999993,183.95876180000005,183.9736813999998,184.73742139999968,,,,,184.73757439999963,184.75278609999987,184.95338979999997,184.9371342999998,183.9736813999998,,,,,,,,1,1,0.7565529999997125,None,,,,,,,,890,21,M,R,2026-02-23_11h43.25.695,VisualSearch_2526_3,,2025.2.4,2026-02-23 11h43.25.892946 +0100,
vertical.xlsx,The target is tilted.,135,26,2,3,1,0,0,0,0,0,0,0,0,0,0,0,0,0,1,135,space,8.608841099999609,None,1,1,0.4225790999998935,None,space,1.8639610999998695,None,0,0,0,1,,,,,3,2,26,3,184.95338979999997,,,,,,,,,,,,,,,,,,,,,184.93790649999983,184.95338979999997,185.43683099999998,185.44140259999995,185.45681179999974,185.88692279999987,,,,,185.88706569999977,185.9022170999997,186.10284539999975,186.08665159999964,185.45681179999974,,,,,,,,1,1,0.4225790999998935,None,,,,,,,,890,21,M,R,2026-02-23_11h43.25.695,VisualSearch_2526_3,,2025.2.4,2026-02-23 11h43.25.892946 +0100,
vertical.xlsx,The target is tilted.,135,27,3,3,1,1,1,1,1,1,1,1,0,0,0,0,0,7,8,135,space,8.608841099999609,None,1,1,2.217537099999845,None,space,1.8639610999998695,None,0,0,0,1,,,,,3,3,27,1,186.10284539999975,,,,,,,,,,,,,,,,,,,,,186.08741809999992,186.10284539999975,186.5863571,186.5908930999999,186.60629470000003,188.8358586999998,,,,,188.83604319999995,188.85099749999972,189.05149889999984,189.03548920000003,186.60629470000003,,,,,,,,1,1,2.217537099999845,None,,,,,,,,890,21,M,R,2026-02-23_11h43.25.695,VisualSearch_2526_3,,2025.2.4,2026-02-23 11h43.25.892946 +0100,
vertical.xlsx,The target is tilted.,135,28,4,3,0,1,1,1,1,1,1,1,0,0,0,0,1,7,8,135,space,8.608841099999609,None,0,1,1.0749407999996947,None,space,1.8639610999998695,None,0,0,0,1,,,,,3,4,28,5,189.05149889999984,,,,,,,,,,,,,,,,,,,,,189.03626289999966,189.05149889999984,189.5352115999999,189.53974049999988,189.55582179999965,190.63479959999995,,,,,190.6350035999999,190.65012989999968,190.8506725999996,190.83470139999963,189.55582179999965,,,,,,,,0,1,1.0749407999996947,None,,,,,,,,890,21,M,R,2026-02-23_11h43.25.695,VisualSearch_2526_3,,2025.2.4,2026-02-23 11h43.25.892946 +0100,
vertical.xlsx,The target is tilted.,135,29,5,3,0,1,1,1,1,1,1,1,1,1,1,1,1,11,12,135,space,8.608841099999609,None,0,1,1.7860700000001088,None,space,1.8639610999998695,None,0,0,0,1,,,,,3,5,29,4,190.8506725999996,,,,,,,,,,,,,,,,,,,,,190.83551499999976,190.8506725999996,191.33427669999992,191.3388087999997,191.35330329999988,193.1505304999996,,,,,193.15072199999986,193.1656667999996,193.36603149999974,193.34963369999969,191.35330329999988,,,,,,,,0,1,1.7860700000001088,None,,,,,,,,890,21,M,R,2026-02-23_11h43.25.695,VisualSearch_2526_3,,2025.2.4,2026-02-23 11h43.25.892946 +0100,
vertical.xlsx,The target is tilted.,135,30,6,3,0,1,1,1,0,0,0,0,0,0,0,0,1,3,4,135,space,8.608841099999609,None,0,1,0.8550626000001103,None,space,1.8639610999998695,None,0,0,0,1,,,,,3,6,30,6,193.36603149999974,,,,,,,,,,,,,,,,,,,,,193.35039229999984,193.36603149999974,193.84975229999964,193.8543838999999,193.8686432999998,194.73334260000001,,,,,194.7335478,194.74838799999998,194.94873329999973,194.93263129999968,193.8686432999998,,,,,,,,0,1,0.8550626000001103,None,,,,,,,,890,21,M,R,2026-02-23_11h43.25.695,VisualSearch_2526_3,,2025.2.4,2026-02-23 11h43.25.892946 +0100,
vertical.xlsx,The target is tilted.,135,31,7,3,0,0,0,0,0,0,0,0,0,0,0,0,1,1,1,135,space,8.608841099999609,None,0,1,0.5129219000000376,None,space,1.8639610999998695,None,0,0,0,1,,,,,3,7,31,7,194.94873329999973,,,,,,,,,,,,,,,,,,,,,194.9333905999997,194.94873329999973,195.4324029999998,195.43697659999998,195.4520776999998,195.98126860000002,,,,,195.98138519999975,195.9980932999997,,196.18183969999973,195.4520776999998,,,,,,,,0,1,0.5129219000000376,None,,,,,,,,890,21,M,R,2026-02-23_11h43.25.695,VisualSearch_2526_3,,2025.2.4,2026-02-23 11h43.25.892946 +0100,
vertical.xlsx,The target is tilted.,135,32,0,4,1,1,1,1,0,0,0,0,0,0,0,0,0,3,4,135,space,8.608841099999609,None,1,1,0.9851833000002443,None,space,1.8639610999998695,None,0,0,0,1,,,,,4,0,32,2,196.19820339999978,,,,,,,,,,,,,,,,,,,,,196.18260029999965,196.19820339999978,196.68093419999968,196.68311619999986,196.6977898,197.6976064999999,,,,,197.69775089999985,197.71363589999964,197.91417490000003,197.89788789999966,196.6977898,,,,,,,,1,1,0.9851833000002443,None,,,,,,,,890,21,M,R,2026-02-23_11h43.25.695,VisualSearch_2526_3,,2025.2.4,2026-02-23 11h43.25.892946 +0100,
vertical.xlsx,The target is tilted.,135,33,1,4,0,1,1,1,1,1,1,1,1,1,1,1,1,11,12,135,space,8.608841099999609,None,0,1,1.95014029999993,None,space,1.8639610999998695,None,0,0,0,1,,,,,4,1,33,4,197.91417490000003,,,,,,,,,,,,,,,,,,,,,197.89869709999994,197.91417490000003,198.39774659999966,198.4022498999998,198.41769509999995,200.380224,,,,,200.3804298,200.39570049999975,200.59625849999975,200.5800210999996,198.41769509999995,,,,,,,,0,1,1.95014029999993,None,,,,,,,,890,21,M,R,2026-02-23_11h43.25.695,VisualSearch_2526_3,,2025.2.4,2026-02-23 11h43.25.892946 +0100,
vertical.xlsx,The target is tilted.,135,34,2,4,0,0,0,0,0,0,0,0,0,0,0,0,1,1,1,135,space,8.608841099999609,None,0,1,0.48893879999968703,None,space,1.8639610999998695,None,0,0,0,1,,,,,4,2,34,7,200.59625849999975,,,,,,,,,,,,,,,,,,,,,200.58078869999963,200.59625849999975,201.07999989999962,201.08488069999976,201.09889959999964,201.59662660000004,,,,,201.59681249999994,201.61187629999995,201.81231660000003,201.79621319999978,201.09889959999964,,,,,,,,0,1,0.48893879999968703,None,,,,,,,,890,21,M,R,2026-02-23_11h43.25.695,VisualSearch_2526_3,,2025.2.4,2026-02-23 11h43.25.892946 +0100,
vertical.xlsx,The target is tilted.,135,35,3,4,0,1,1,1,1,1,1,1,0,0,0,0,1,7,8,135,space,8.608841099999609,None,0,1,1.078662699999768,None,space,1.8639610999998695,None,0,0,0,1,,,,,4,3,35,5,201.81231660000003,,,,,,,,,,,,,,,,,,,,,201.79696709999962,201.81231660000003,202.29501549999986,202.2969733,202.31188859999975,203.39599069999986,,,,,203.39620389999982,203.4111141999997,203.61152149999998,203.59542359999978,202.31188859999975,,,,,,,,0,1,1.078662699999768,None,,,,,,,,890,21,M,R,2026-02-23_11h43.25.695,VisualSearch_2526_3,,2025.2.4,2026-02-23 11h43.25.892946 +0100,
vertical.xlsx,The target is tilted.,135,36,4,4,1,1,1,1,1,1,1,1,1,1,1,1,0,11,12,135,space,8.608841099999609,None,0,0,2.317304299999705,None,space,1.8639610999998695,None,0,0,0,1,,,,,4,4,36,0,203.61152149999998,,,,,,,,,,,,,,,,,,,,,203.59615540000004,203.61152149999998,204.09526899999992,204.0997895999999,204.11112549999962,206.44386229999964,,,,,206.44404959999974,206.45967870000004,206.65995889999976,206.64360979999992,204.11112549999962,,,,,,,,0,0,2.317304299999705,None,,,,,,,,890,21,M,R,2026-02-23_11h43.25.695,VisualSearch_2526_3,,2025.2.4,2026-02-23 11h43.25.892946 +0100,
vertical.xlsx,The target is tilted.,135,37,5,4,1,0,0,0,0,0,0,0,0,0,0,0,0,0,1,135,space,8.608841099999609,None,1,1,0.6639359000000695,None,space,1.8639610999998695,None,0,0,0,1,,,,,4,5,37,3,206.65995889999976,,,,,,,,,,,,,,,,,,,,,206.64446819999966,206.65995889999976,207.1439117,207.14891239999997,207.1634482999998,207.8439099999996,,,,,207.8441515999998,207.85902289999967,208.05951589999995,208.04347139999982,207.1634482999998,,,,,,,,1,1,0.6639359000000695,None,,,,,,,,890,21,M,R,2026-02-23_11h43.25.695,VisualSearch_2526_3,,2025.2.4,2026-02-23 11h43.25.892946 +0100,
vertical.xlsx,The target is tilted.,135,38,6,4,0,1,1,1,0,0,0,0,0,0,0,0,1,3,4,135,space,8.608841099999609,None,0,1,0.924774200000229,None,space,1.8639610999998695,None,0,0,0,1,,,,,4,6,38,6,208.05951589999995,,,,,,,,,,,,,,,,,,,,,208.04419989999997,208.05951589999995,208.54315729999962,208.54779919999964,208.56272479999961,209.49325969999973,,,,,209.4934648999997,209.50826979999965,209.70865479999975,209.6926570999999,208.56272479999961,,,,,,,,0,1,0.924774200000229,None,,,,,,,,890,21,M,R,2026-02-23_11h43.25.695,VisualSearch_2526_3,,2025.2.4,2026-02-23 11h43.25.892946 +0100,
vertical.xlsx,The target is tilted.,135,39,7,4,1,1,1,1,1,1,1,1,0,0,0,0,0,7,8,135,space,8.608841099999609,None,1,1,1.6266436999999314,None,space,1.8639610999998695,None,0,0,0,1,,,,,4,7,39,1,209.70865479999975,,,,,,,,,,,,,,,,,,,,,209.69341450000002,209.70865479999975,210.1923271999999,210.1967757999996,210.2083573,211.84226249999983,,,,,211.84247059999961,211.8572119999999,212.05753559999994,212.04144889999998,210.2083573,,,,,,,,1,1,1.6266436999999314,None,,,,,,,,890,21,M,R,2026-02-23_11h43.25.695,VisualSearch_2526_3,,2025.2.4,2026-02-23 11h43.25.892946 +0100,
vertical.xlsx,The target is tilted.,135,40,0,5,0,1,1,1,1,1,1,1,1,1,1,1,1,11,12,135,space,8.608841099999609,None,0,1,2.3173149999997804,None,space,1.8639610999998695,None,0,0,0,1,,,,,5,0,40,4,212.05753559999994,,,,,,,,,,,,,,,,,,,,,212.0421991999997,212.05753559999994,212.54129269999976,212.54590979999966,212.55854739999995,214.8900636999997,,,,,214.89020739999978,214.9056529999998,215.10626289999982,215.0898755999997,212.55854739999995,,,,,,,,0,1,2.3173149999997804,None,,,,,,,,890,21,M,R,2026-02-23_11h43.25.695,VisualSearch_2526_3,,2025.2.4,2026-02-23 11h43.25.892946 +0100,
vertical.xlsx,The target is tilted.,135,41,1,5,1,1,1,1,0,0,0,0,0,0,0,0,0,3,4,135,space,8.608841099999609,None,1,1,1.5620506000000205,None,space,1.8639610999998695,None,0,0,0,1,,,,,5,1,41,2,215.10626289999982,,,,,,,,,,,,,,,,,,,,,215.09060509999972,215.10626289999982,215.5895301999999,215.5934903999996,215.6060497999997,217.1722092,,,,,217.17231999999967,217.1879154999997,217.38833959999965,217.37200619999976,215.6060497999997,,,,,,,,1,1,1.5620506000000205,None,,,,,,,,890,21,M,R,2026-02-23_11h43.25.695,VisualSearch_2526_3,,2025.2.4,2026-02-23 11h43.25.892946 +0100,
vertical.xlsx,The target is tilted.,135,42,2,5,0,1,1,1,1,1,1,1,0,0,0,0,1,7,8,135,space,8.608841099999609,None,0,1,2.0555350999998154,None,space,1.8639610999998695,None,0,0,0,1,,,,,5,2,42,5,217.38833959999965,,,,,,,,,,,,,,,,,,,,,217.37275539999973,217.38833959999965,217.8722705,217.87681199999997,217.8913617999997,219.95527679999987,,,,,219.95548280000003,219.97019139999975,220.1706393999998,220.1545543999996,217.8913617999997,,,,,,,,0,1,2.0555350999998154,None,,,,,,,,890,21,M,R,2026-02-23_11h43.25.695,VisualSearch_2526_3,,2025.2.4,2026-02-23 11h43.25.892946 +0100,
vertical.xlsx,The target is tilted.,135,43,3,5,1,1,1,1,1,1,1,1,0,0,0,0,0,7,8,135,space,8.608841099999609,None,1,1,1.6806963999997606,None,space,1.8639610999998695,None,0,0,0,1,,,,,5,3,43,1,220.1706393999998,,,,,,,,,,,,,,,,,,,,,220.15531659999988,220.1706393999998,220.65412079999987,220.65879419999965,220.67326009999988,222.3693060999999,,,,,222.36943249999968,222.38607779999984,,222.5699752999999,220.67326009999988,,,,,,,,1,1,1.6806963999997606,None,,,,,,,,890,21,M,R,2026-02-23_11h43.25.695,VisualSearch_2526_3,,2025.2.4,2026-02-23 11h43.25.892946 +0100,
vertical.xlsx,The target is tilted.,135,44,4,5,0,1,1,1,0,0,0,0,0,0,0,0,1,3,4,135,space,8.608841099999609,None,0,1,0.8558219999999892,None,space,1.8639610999998695,None,0,0,0,1,,,,,5,4,44,6,222.58615989999998,,,,,,,,,,,,,,,,,,,,,222.5710597999996,222.58615989999998,223.0695424999999,223.07416160000002,223.0894132999997,223.9532390999998,,,,,223.95344569999997,223.96837489999962,224.16847659999985,224.15242529999978,,,,,,,,,0,1,0.8558219999999892,None,,,,,,,,890,21,M,R,2026-02-23_11h43.25.695,VisualSearch_2526_3,,2025.2.4,2026-02-23 11h43.25.892946 +0100,
vertical.xlsx,The target is tilted.,135,45,5,5,1,1,1,1,1,1,1,1,1,1,1,1,0,11,12,135,space,8.608841099999609,None,1,1,1.1907216999998127,None,space,1.8639610999998695,None,0,0,0,1,,,,,5,5,45,0,224.16847659999985,,,,,,,,,,,,,,,,,,,,,224.15315389999978,224.16847659999985,224.65231939999967,224.65690519999998,224.67186679999986,225.86908319999975,,,,,225.86929139999984,225.88419629999999,226.0846775,226.06814899999972,224.67186679999986,,,,,,,,1,1,1.1907216999998127,None,,,,,,,,890,21,M,R,2026-02-23_11h43.25.695,VisualSearch_2526_3,,2025.2.4,2026-02-23 11h43.25.892946 +0100,
vertical.xlsx,The target is tilted.,135,46,6,5,1,0,0,0,0,0,0,0,0,0,0,0,0,0,1,135,space,8.608841099999609,None,1,1,0.39373840000007476,None,space,1.8639610999998695,None,0,0,0,1,,,,,5,6,46,3,226.0846775,,,,,,,,,,,,,,,,,,,,,226.06892749999997,226.0846775,226.56795160000001,226.57250449999992,226.58732489999966,226.9849577,,,,,226.98524329999964,227.00022169999966,227.20071839999991,227.18464589999985,226.58732489999966,,,,,,,,1,1,0.39373840000007476,None,,,,,,,,890,21,M,R,2026-02-23_11h43.25.695,VisualSearch_2526_3,,2025.2.4,2026-02-23 11h43.25.892946 +0100,
vertical.xlsx,The target is tilted.,135,47,7,5,0,0,0,0,0,0,0,0,0,0,0,0,1,1,1,135,space,8.608841099999609,None,0,1,0.5747168000002603,None,space,1.8639610999998695,None,0,0,0,1,,,,,5,7,47,7,227.20071839999991,,,,,,,,,,,,,,,,,,,,,227.18538919999992,227.20071839999991,227.68445139999994,227.68895929999962,227.7050334999999,228.2835725,,,,,228.28367189999972,228.29952579999963,,228.48384029999988,227.7050334999999,,,,,,,,0,1,0.5747168000002603,None,,,,,,,,890,21,M,R,2026-02-23_11h43.25.695,VisualSearch_2526_3,,2025.2.4,2026-02-23 11h43.25.892946 +0100,
vertical.xlsx,The target is tilted.,135,48,0,6,1,0,0,0,0,0,0,0,0,0,0,0,0,0,1,135,space,8.608841099999609,None,1,1,0.5305326000002424,None,space,1.8639610999998695,None,0,0,0,1,,,,,6,0,48,3,228.50017809999963,,,,,,,,,,,,,,,,,,,,,228.48472459999994,228.50017809999963,228.9838961999999,228.9886234999999,229.00363889999971,229.54934479999974,,,,,229.54946649999965,229.5661673999998,,229.74981660000003,229.00363889999971,,,,,,,,1,1,0.5305326000002424,None,,,,,,,,890,21,M,R,2026-02-23_11h43.25.695,VisualSearch_2526_3,,2025.2.4,2026-02-23 11h43.25.892946 +0100,
vertical.xlsx,The target is tilted.,135,49,1,6,0,1,1,1,1,1,1,1,0,0,0,0,1,7,8,135,space,8.608841099999609,None,0,1,2.2419285999999374,None,space,1.8639610999998695,None,0,0,0,1,,,,,6,1,49,5,229.7662876999998,,,,,,,,,,,,,,,,,,,,,229.75060069999972,229.7662876999998,230.2497989999997,230.2549583,230.26926619999995,232.51572009999973,,,,,232.51589259999992,232.53114049999976,232.7315566999996,232.71529429999964,,,,,,,,,0,1,2.2419285999999374,None,,,,,,,,890,21,M,R,2026-02-23_11h43.25.695,VisualSearch_2526_3,,2025.2.4,2026-02-23 11h43.25.892946 +0100,
vertical.xlsx,The target is tilted.,135,50,2,6,0,1,1,1,1,1,1,1,1,1,1,1,1,11,12,135,space,8.608841099999609,None,0,1,2.0444555000003675,None,space,1.8639610999998695,None,0,0,0,1,,,,,6,2,50,4,232.7315566999996,,,,,,,,,,,,,,,,,,,,,232.71606799999972,232.7315566999996,233.21516010000005,233.2197739999997,233.23584819999996,235.28200649999962,,,,,235.28232679999974,235.29654459999983,235.49705619999986,235.4808734999997,233.23584819999996,,,,,,,,0,1,2.0444555000003675,None,,,,,,,,890,21,M,R,2026-02-23_11h43.25.695,VisualSearch_2526_3,,2025.2.4,2026-02-23 11h43.25.892946 +0100,
vertical.xlsx,The target is tilted.,135,51,3,6,1,1,1,1,0,0,0,0,0,0,0,0,0,3,4,135,space,8.608841099999609,None,1,1,0.827194800000143,None,space,1.8639610999998695,None,0,0,0,1,,,,,6,3,51,2,235.49705619999986,,,,,,,,,,,,,,,,,,,,,235.48164159999988,235.49705619999986,235.98066179999978,235.98518829999966,236.00200489999997,236.83082339999964,,,,,236.83102839999992,236.84590089999983,237.04635179999968,237.0301058,236.00200489999997,,,,,,,,1,1,0.827194800000143,None,,,,,,,,890,21,M,R,2026-02-23_11h43.25.695,VisualSearch_2526_3,,2025.2.4,2026-02-23 11h43.25.892946 +0100,
vertical.xlsx,The target is tilted.,135,52,4,6,1,1,1,1,1,1,1,1,0,0,0,0,0,7,8,135,space,8.608841099999609,None,1,1,0.7327162999999928,None,space,1.8639610999998695,None,0,0,0,1,,,,,6,4,52,1,237.04635179999968,,,,,,,,,,,,,,,,,,,,,237.03089229999978,237.04635179999968,237.52962219999972,237.5341687,237.5486192999997,238.2954018999999,,,,,238.29552049999984,238.31216499999982,,238.49594789999992,237.5486192999997,,,,,,,,1,1,0.7327162999999928,None,,,,,,,,890,21,M,R,2026-02-23_11h43.25.695,VisualSearch_2526_3,,2025.2.4,2026-02-23 11h43.25.892946 +0100,
vertical.xlsx,The target is tilted.,135,53,5,6,0,0,0,0,0,0,0,0,0,0,0,0,1,1,1,135,space,8.608841099999609,None,0,1,0.5676755999998022,None,space,1.8639610999998695,None,0,0,0,1,,,,,6,5,53,7,238.51231009999992,,,,,,,,,,,,,,,,,,,,,238.49671790000002,238.51231009999992,238.99577689999978,239.00034819999973,239.016122,239.59584899999982,,,,,239.5960227999999,239.6111165999996,239.8117158,239.79564159999973,,,,,,,,,0,1,0.5676755999998022,None,,,,,,,,890,21,M,R,2026-02-23_11h43.25.695,VisualSearch_2526_3,,2025.2.4,2026-02-23 11h43.25.892946 +0100,
vertical.xlsx,The target is tilted.,135,54,6,6,1,1,1,1,1,1,1,1,1,1,1,1,0,11,12,135,space,8.608841099999609,None,0,0,2.207151199999771,None,space,1.8639610999998695,None,0,0,0,1,,,,,6,6,54,0,239.8117158,,,,,,,,,,,,,,,,,,,,,239.79636819999996,239.8117158,240.29497949999995,240.2973039999997,240.31133679999994,242.52820010000005,,,,,242.52840259999994,242.54331249999996,242.74330789999976,242.7274170999999,240.31133679999994,,,,,,,,0,0,2.207151199999771,None,,,,,,,,890,21,M,R,2026-02-23_11h43.25.695,VisualSearch_2526_3,,2025.2.4,2026-02-23 11h43.25.892946 +0100,
vertical.xlsx,The target is tilted.,135,55,7,6,0,1,1,1,0,0,0,0,0,0,0,0,1,3,4,135,space,8.608841099999609,None,0,1,0.6750067000002673,None,space,1.8639610999998695,None,0,0,0,1,,,,,6,7,55,6,242.74330789999976,,,,,,,,,,,,,,,,,,,,,242.72816879999982,242.74330789999976,243.22707459999992,243.2318677999997,243.24526119999973,243.92694429999983,,,,,243.92705429999978,243.94242099999974,244.1430206,244.12699919999977,243.24526119999973,,,,,,,,0,1,0.6750067000002673,None,,,,,,,,890,21,M,R,2026-02-23_11h43.25.695,VisualSearch_2526_3,,2025.2.4,2026-02-23 11h43.25.892946 +0100,
vertical.xlsx,The target is tilted.,135,56,0,7,1,1,1,1,1,1,1,1,0,0,0,0,0,7,8,135,space,8.608841099999609,None,1,1,0.5687385999999606,None,space,1.8639610999998695,None,0,0,0,1,,,,,7,0,56,1,244.1430206,,,,,,,,,,,,,,,,,,,,,244.12788060000003,244.1430206,244.62677659999963,244.63125539999965,244.64708389999987,245.2266399,,,,,245.2267812,245.24194249999982,245.44254649999993,245.42597819999992,244.64708389999987,,,,,,,,1,1,0.5687385999999606,None,,,,,,,,890,21,M,R,2026-02-23_11h43.25.695,VisualSearch_2526_3,,2025.2.4,2026-02-23 11h43.25.892946 +0100,
vertical.xlsx,The target is tilted.,135,57,1,7,1,1,1,1,1,1,1,1,1,1,1,1,0,11,12,135,space,8.608841099999609,None,1,1,0.8290413000004264,None,space,1.8639610999998695,None,0,0,0,1,,,,,7,1,57,0,245.44254649999993,,,,,,,,,,,,,,,,,,,,,245.42671900000005,245.44254649999993,245.92582959999982,245.93044059999966,245.9459855,246.77581089999967,,,,,246.77595129999963,246.79125989999966,246.99173669999982,246.97570829999995,245.9459855,,,,,,,,1,1,0.8290413000004264,None,,,,,,,,890,21,M,R,2026-02-23_11h43.25.695,VisualSearch_2526_3,,2025.2.4,2026-02-23 11h43.25.892946 +0100,
vertical.xlsx,The target is tilted.,135,58,2,7,1,0,0,0,0,0,0,0,0,0,0,0,0,0,1,135,space,8.608841099999609,None,1,1,0.4593076999999539,None,space,1.8639610999998695,None,0,0,0,1,,,,,7,2,58,3,246.99173669999982,,,,,,,,,,,,,,,,,,,,,246.97643189999962,246.99173669999982,247.4754028999996,247.48002159999987,247.4946129,247.95870909999985,,,,,247.9589160999999,247.97411929999998,248.17458579999993,248.15808189999962,247.4946129,,,,,,,,1,1,0.4593076999999539,None,,,,,,,,890,21,M,R,2026-02-23_11h43.25.695,VisualSearch_2526_3,,2025.2.4,2026-02-23 11h43.25.892946 +0100,
vertical.xlsx,The target is tilted.,135,59,3,7,1,1,1,1,0,0,0,0,0,0,0,0,0,3,4,135,space,8.608841099999609,None,1,1,0.9209004999997887,None,space,1.8639610999998695,None,0,0,0,1,,,,,7,3,59,2,248.17458579999993,,,,,,,,,,,,,,,,,,,,,248.15887799999973,248.17458579999993,248.65815219999968,248.66317339999978,248.67734359999986,249.60840119999966,,,,,249.60859989999972,249.6233997999998,249.8238664999999,249.80774840000004,248.67734359999986,,,,,,,,1,1,0.9209004999997887,None,,,,,,,,890,21,M,R,2026-02-23_11h43.25.695,VisualSearch_2526_3,,2025.2.4,2026-02-23 11h43.25.892946 +0100,
vertical.xlsx,The target is tilted.,135,60,4,7,0,0,0,0,0,0,0,0,0,0,0,0,1,1,1,135,space,8.608841099999609,None,0,1,0.5675482000001466,None,space,1.8639610999998695,None,0,0,0,1,,,,,7,4,60,7,249.8238664999999,,,,,,,,,,,,,,,,,,,,,249.80847159999985,249.8238664999999,250.30724629999986,250.31001259999994,250.32342979999976,250.90712729999996,,,,,250.90733699999964,250.92279819999976,251.1227589,251.10716279999997,250.32342979999976,,,,,,,,0,1,0.5675482000001466,None,,,,,,,,890,21,M,R,2026-02-23_11h43.25.695,VisualSearch_2526_3,,2025.2.4,2026-02-23 11h43.25.892946 +0100,
vertical.xlsx,The target is tilted.,135,61,5,7,0,1,1,1,0,0,0,0,0,0,0,0,1,3,4,135,space,8.608841099999609,None,0,1,0.6974303000001782,None,space,1.8639610999998695,None,0,0,0,1,,,,,7,5,61,6,251.1227589,,,,,,,,,,,,,,,,,,,,,251.10788719999982,251.1227589,251.60694109999986,251.61150019999968,251.62727289999975,252.33954700000004,,,,,252.33970689999978,252.35581599999978,252.55595399999993,252.53973019999967,251.62727289999975,,,,,,,,0,1,0.6974303000001782,None,,,,,,,,890,21,M,R,2026-02-23_11h43.25.695,VisualSearch_2526_3,,2025.2.4,2026-02-23 11h43.25.892946 +0100,
vertical.xlsx,The target is tilted.,135,62,6,7,0,1,1,1,1,1,1,1,1,1,1,1,1,11,12,135,space,8.608841099999609,None,0,1,2.278596600000128,None,space,1.8639610999998695,None,0,0,0,1,,,,,7,6,62,4,252.55595399999993,,,,,,,,,,,,,,,,,,,,,252.54048779999994,252.55595399999993,253.03948679999985,253.04406609999978,253.0585017999997,255.33803519999992,,,,,255.33816499999966,255.3540699,255.5546104,255.5380614999999,253.0585017999997,,,,,,,,0,1,2.278596600000128,None,,,,,,,,890,21,M,R,2026-02-23_11h43.25.695,VisualSearch_2526_3,,2025.2.4,2026-02-23 11h43.25.892946 +0100,
vertical.xlsx,The target is tilted.,135,63,7,7,0,1,1,1,1,1,1,1,0,0,0,0,1,7,8,135,space,8.608841099999609,None,0,1,1.7930756000000656,None,space,1.8639610999998695,None,0,0,0,1,,,,,7,7,63,5,255.5546104,,,,,,,,,,,,,,,,,,,,,255.53885979999995,255.5546104,256.03768169999967,256.04002599999967,256.0542357999998,257.85461529999975,,,,,257.8548160999999,257.86958689999983,258.07004959999995,258.0540074999999,256.0542357999998,,,,,,,,0,1,1.7930756000000656,None,,,,,,,,890,21,M,R,2026-02-23_11h43.25.695,VisualSearch_2526_3,,2025.2.4,2026-02-23 11h43.25.892946 +0100,
vertical.xlsx,The target is tilted.,135,64,0,8,0,0,0,0,0,0,0,0,0,0,0,0,1,1,1,135,space,8.608841099999609,None,0,1,0.713981700000204,None,space,1.8639610999998695,None,0,0,0,1,,,,,8,0,64,7,258.07004959999995,,,,,,,,,,,,,,,,,,,,,258.05474939999976,258.07004959999995,258.5537317999997,258.5582771999998,258.57178769999973,259.28653589999976,,,,,259.28663819999974,259.30209160000004,259.5028503999997,259.48668339999995,258.57178769999973,,,,,,,,0,1,0.713981700000204,None,,,,,,,,890,21,M,R,2026-02-23_11h43.25.695,VisualSearch_2526_3,,2025.2.4,2026-02-23 11h43.25.892946 +0100,
vertical.xlsx,The target is tilted.,135,65,1,8,1,1,1,1,1,1,1,1,1,1,1,1,0,11,12,135,space,8.608841099999609,None,1,1,1.4934696999998778,None,space,1.8639610999998695,None,0,0,0,1,,,,,8,1,65,0,259.5028503999997,,,,,,,,,,,,,,,,,,,,,259.48746549999987,259.5028503999997,259.9862579999999,259.99074169999994,260.0052707,261.50199729999986,,,,,261.50210579999975,261.5177639999997,261.7182762999996,261.7020097999998,260.0052707,,,,,,,,1,1,1.4934696999998778,None,,,,,,,,890,21,M,R,2026-02-23_11h43.25.695,VisualSearch_2526_3,,2025.2.4,2026-02-23 11h43.25.892946 +0100,
vertical.xlsx,The target is tilted.,135,66,2,8,0,1,1,1,1,1,1,1,0,0,0,0,1,7,8,135,space,8.608841099999609,None,0,1,1.7044316000001345,None,space,1.8639610999998695,None,0,0,0,1,,,,,8,2,66,5,261.7182762999996,,,,,,,,,,,,,,,,,,,,,261.7027401,261.7182762999996,262.20200780000005,262.20667589999994,262.2223847,263.93448420000004,,,,,263.93462069999987,263.9499959,264.1506164999996,264.1345014999997,262.2223847,,,,,,,,0,1,1.7044316000001345,None,,,,,,,,890,21,M,R,2026-02-23_11h43.25.695,VisualSearch_2526_3,,2025.2.4,2026-02-23 11h43.25.892946 +0100,
vertical.xlsx,The target is tilted.,135,67,3,8,0,1,1,1,0,0,0,0,0,0,0,0,1,3,4,135,space,8.608841099999609,None,0,1,1.0246141999996325,None,space,1.8639610999998695,None,0,0,0,1,,,,,8,3,67,6,264.1506164999996,,,,,,,,,,,,,,,,,,,,,264.13530999999966,264.1506164999996,264.6343348999999,264.6389624999997,264.6537982,265.68428919999997,,,,,265.6844280999999,265.69931829999996,265.89977199999976,265.88363019999997,264.6537982,,,,,,,,0,1,1.0246141999996325,None,,,,,,,,890,21,M,R,2026-02-23_11h43.25.695,VisualSearch_2526_3,,2025.2.4,2026-02-23 11h43.25.892946 +0100,
vertical.xlsx,The target is tilted.,135,68,4,8,1,1,1,1,1,1,1,1,0,0,0,0,0,7,8,135,space,8.608841099999609,None,1,1,1.597136700000192,None,space,1.8639610999998695,None,0,0,0,1,,,,,8,4,68,1,265.89977199999976,,,,,,,,,,,,,,,,,,,,,265.8843945999997,265.89977199999976,266.38360509999984,266.38798739999993,266.39955889999965,267.9999321999999,,,,,268.0001322999997,268.0149953,268.2154516999999,268.1992739999996,266.39955889999965,,,,,,,,1,1,1.597136700000192,None,,,,,,,,890,21,M,R,2026-02-23_11h43.25.695,VisualSearch_2526_3,,2025.2.4,2026-02-23 11h43.25.892946 +0100,
vertical.xlsx,The target is tilted.,135,69,5,8,1,1,1,1,0,0,0,0,0,0,0,0,0,3,4,135,space,8.608841099999609,None,1,1,0.7428310999998757,None,space,1.8639610999998695,None,0,0,0,1,,,,,8,5,69,2,268.2154516999999,,,,,,,,,,,,,,,,,,,,,268.2000361999999,268.2154516999999,268.6989771999997,268.70346519999975,268.71804999999995,269.4657864999999,,,,,269.46596599999975,269.4809315999996,269.6814718999999,269.66506759999993,268.71804999999995,,,,,,,,1,1,0.7428310999998757,None,,,,,,,,890,21,M,R,2026-02-23_11h43.25.695,VisualSearch_2526_3,,2025.2.4,2026-02-23 11h43.25.892946 +0100,
vertical.xlsx,The target is tilted.,135,70,6,8,0,1,1,1,1,1,1,1,1,1,1,1,1,11,12,135,space,8.608841099999609,None,0,1,2.5779931000001852,None,space,1.8639610999998695,None,0,0,0,1,,,,,8,6,70,4,269.6814718999999,,,,,,,,,,,,,,,,,,,,,269.66578949999985,269.6814718999999,270.16511279999986,270.16958939999995,270.1858782999998,272.77973759999986,,,,,272.7798760999999,272.7964936999997,,272.9802145999997,270.1858782999998,,,,,,,,0,1,2.5779931000001852,None,,,,,,,,890,21,M,R,2026-02-23_11h43.25.695,VisualSearch_2526_3,,2025.2.4,2026-02-23 11h43.25.892946 +0100,
vertical.xlsx,The target is tilted.,135,71,7,8,1,0,0,0,0,0,0,0,0,0,0,0,0,0,1,135,space,8.608841099999609,None,1,1,0.5579801999997471,None,space,1.8639610999998695,None,0,0,0,1,,,,,8,7,71,3,272.99623269999984,,,,,,,,,,,,,,,,,,,,,272.9809986999999,272.99623269999984,273.4801948999998,273.4848225999999,273.5009135,274.0635216999999,,,,,274.06371769999987,274.0789163999998,274.2792255999998,274.2634736,273.5009135,,,,,,,,1,1,0.5579801999997471,None,,,,,,,,890,21,M,R,2026-02-23_11h43.25.695,VisualSearch_2526_3,,2025.2.4,2026-02-23 11h43.25.892946 +0100,
vertical.xlsx,The target is tilted.,135,72,0,9,0,1,1,1,0,0,0,0,0,0,0,0,1,3,4,135,space,8.608841099999609,None,0,1,0.7699917999998434,None,space,1.8639610999998695,None,0,0,0,1,,,,,9,0,72,6,274.2792255999998,,,,,,,,,,,,,,,,,,,,,274.26426709999987,274.2792255999998,274.76299619999963,274.76751079999985,274.7825607,275.5625,,,,,275.56260380000003,275.5781896999997,275.7785316999998,275.76260319999983,274.7825607,,,,,,,,0,1,0.7699917999998434,None,,,,,,,,890,21,M,R,2026-02-23_11h43.25.695,VisualSearch_2526_3,,2025.2.4,2026-02-23 11h43.25.892946 +0100,
vertical.xlsx,The target is tilted.,135,73,1,9,0,1,1,1,1,1,1,1,0,0,0,0,1,7,8,135,space,8.608841099999609,None,0,1,2.4785350000001927,None,space,1.8639610999998695,None,0,0,0,1,,,,,9,1,73,5,275.7785316999998,,,,,,,,,,,,,,,,,,,,,275.76332839999986,275.7785316999998,276.26215669999965,276.2667213999998,276.2823228999996,278.7777877999997,,,,,278.7779989999999,278.79342819999965,278.99398299999984,278.97788409999976,276.2823228999996,,,,,,,,0,1,2.4785350000001927,None,,,,,,,,890,21,M,R,2026-02-23_11h43.25.695,VisualSearch_2526_3,,2025.2.4,2026-02-23 11h43.25.892946 +0100,
vertical.xlsx,The target is tilted.,135,74,2,9,0,0,0,0,0,0,0,0,0,0,0,0,1,1,1,135,space,8.608841099999609,None,0,1,0.561156199999914,None,space,1.8639610999998695,None,0,0,0,1,,,,,9,2,74,7,278.99398299999984,,,,,,,,,,,,,,,,,,,,,278.9786302999996,278.99398299999984,279.47756849999996,279.4818995999999,279.49983380000003,280.0764058,,,,,280.07652359999975,280.09319589999996,,280.2766514,279.49983380000003,,,,,,,,0,1,0.561156199999914,None,,,,,,,,890,21,M,R,2026-02-23_11h43.25.695,VisualSearch_2526_3,,2025.2.4,2026-02-23 11h43.25.892946 +0100,
vertical.xlsx,The target is tilted.,135,75,3,9,1,1,1,1,0,0,0,0,0,0,0,0,0,3,4,135,space,8.608841099999609,None,1,1,0.6030191999998351,None,space,1.8639610999998695,None,0,0,0,1,,,,,9,3,75,2,280.29307289999997,,,,,,,,,,,,,,,,,,,,,280.2775345,280.29307289999997,280.77676269999984,280.78129249999984,280.7964758999997,281.4105348999997,,,,,281.4107291,281.4256083999999,281.6260496,281.6098139999999,,,,,,,,,1,1,0.6030191999998351,None,,,,,,,,890,21,M,R,2026-02-23_11h43.25.695,VisualSearch_2526_3,,2025.2.4,2026-02-23 11h43.25.892946 +0100,
vertical.xlsx,The target is tilted.,135,76,4,9,1,1,1,1,1,1,1,1,1,1,1,1,0,11,12,135,space,8.608841099999609,None,1,1,0.9903071999997337,None,space,1.8639610999998695,None,0,0,0,1,,,,,9,4,76,0,281.6260496,,,,,,,,,,,,,,,,,,,,,281.61055829999987,281.6260496,282.10933750000004,282.1137632,282.12850089999984,283.12597879999976,,,,,283.1261204999996,283.1415017999998,283.34151029999975,283.3255168999999,282.12850089999984,,,,,,,,1,1,0.9903071999997337,None,,,,,,,,890,21,M,R,2026-02-23_11h43.25.695,VisualSearch_2526_3,,2025.2.4,2026-02-23 11h43.25.892946 +0100,
vertical.xlsx,The target is tilted.,135,77,5,9,1,0,0,0,0,0,0,0,0,0,0,0,0,0,1,135,space,8.608841099999609,None,1,1,0.45487980000007155,None,space,1.8639610999998695,None,0,0,0,1,,,,,9,5,77,3,283.34151029999975,,,,,,,,,,,,,,,,,,,,,283.3260836999998,283.34151029999975,283.82558189999963,283.8300310999998,283.84610329999987,284.3081603999999,,,,,284.3082463999999,284.32403669999985,284.5247022999997,284.5084502999998,283.84610329999987,,,,,,,,1,1,0.45487980000007155,None,,,,,,,,890,21,M,R,2026-02-23_11h43.25.695,VisualSearch_2526_3,,2025.2.4,2026-02-23 11h43.25.892946 +0100,
vertical.xlsx,The target is tilted.,135,78,6,9,1,1,1,1,1,1,1,1,0,0,0,0,0,7,8,135,space,8.608841099999609,None,1,1,1.7379274999998415,None,space,1.8639610999998695,None,0,0,0,1,,,,,9,6,78,1,284.5247022999997,,,,,,,,,,,,,,,,,,,,,284.5091859999998,284.5247022999997,285.0080192999999,285.0124595999996,285.0274680999996,286.7745313999999,,,,,286.77471209999976,286.78985999999986,286.9903314999997,286.9740425,285.0274680999996,,,,,,,,1,1,1.7379274999998415,None,,,,,,,,890,21,M,R,2026-02-23_11h43.25.695,VisualSearch_2526_3,,2025.2.4,2026-02-23 11h43.25.892946 +0100,
vertical.xlsx,The target is tilted.,135,79,7,9,0,1,1,1,1,1,1,1,1,1,1,1,1,11,12,135,space,8.608841099999609,None,0,1,2.9132042999999612,None,space,1.8639610999998695,None,0,0,0,1,,,,,9,7,79,4,286.9903314999997,,,,,,,,,,,,,,,,,,,,,286.97478409999985,286.9903314999997,287.47391739999966,287.4784258999998,287.49295189999975,290.4225107999996,,,,,290.4227341999999,290.4380361999997,290.6385022999998,290.6224379,287.49295189999975,,,,,,,,0,1,2.9132042999999612,None,,,,,,,,890,21,M,R,2026-02-23_11h43.25.695,VisualSearch_2526_3,,2025.2.4,2026-02-23 11h43.25.892946 +0100,
vertical.xlsx,The target is tilted.,135,80,0,10,0,0,0,0,0,0,0,0,0,0,0,0,1,1,1,135,space,8.608841099999609,None,0,1,0.5533148999998048,None,space,1.8639610999998695,None,0,0,0,1,,,,,10,0,80,7,290.6385022999998,,,,,,,,,,,,,,,,,,,,,290.6231934999996,290.6385022999998,291.1222034999996,291.12681509999993,291.14141489999975,291.70526949999976,,,,,291.7054135999997,291.72082409999985,291.92126419999977,291.90511389999983,291.14141489999975,,,,,,,,0,1,0.5533148999998048,None,,,,,,,,890,21,M,R,2026-02-23_11h43.25.695,VisualSearch_2526_3,,2025.2.4,2026-02-23 11h43.25.892946 +0100,
vertical.xlsx,The target is tilted.,135,81,1,10,1,1,1,1,0,0,0,0,0,0,0,0,0,3,4,135,space,8.608841099999609,None,1,1,0.5706350000000384,None,space,1.8639610999998695,None,0,0,0,1,,,,,10,1,81,2,291.92126419999977,,,,,,,,,,,,,,,,,,,,,291.9058707999998,291.92126419999977,292.4049508999997,292.4095023,292.42567599999984,293.00515859999996,,,,,293.0053528999997,293.0203241999998,293.2207444999999,293.20467389999976,292.42567599999984,,,,,,,,1,1,0.5706350000000384,None,,,,,,,,890,21,M,R,2026-02-23_11h43.25.695,VisualSearch_2526_3,,2025.2.4,2026-02-23 11h43.25.892946 +0100,
vertical.xlsx,The target is tilted.,135,82,2,10,0,1,1,1,0,0,0,0,0,0,0,0,1,3,4,135,space,8.608841099999609,None,0,1,0.9220651999999063,None,space,1.8639610999998695,None,0,0,0,1,,,,,10,2,82,6,293.2207444999999,,,,,,,,,,,,,,,,,,,,,293.20538050000005,293.2207444999999,293.70457020000003,293.70889069999976,293.7203912,294.6538922999998,,,,,294.6540584999998,294.6694668,294.8699281999998,294.85380069999974,293.7203912,,,,,,,,0,1,0.9220651999999063,None,,,,,,,,890,21,M,R,2026-02-23_11h43.25.695,VisualSearch_2526_3,,2025.2.4,2026-02-23 11h43.25.892946 +0100,
vertical.xlsx,The target is tilted.,135,83,3,10,0,1,1,1,1,1,1,1,1,1,1,1,1,11,12,135,space,8.608841099999609,None,0,1,2.8185742999999093,None,space,1.8639610999998695,None,0,0,0,1,,,,,10,3,83,4,294.8699281999998,,,,,,,,,,,,,,,,,,,,,294.85458649999964,294.8699281999998,295.3531840999999,295.3568022999998,295.3718027,298.20288119999987,,,,,298.20308209999985,298.21796429999995,298.41840490000004,298.4019100999999,295.3718027,,,,,,,,0,1,2.8185742999999093,None,,,,,,,,890,21,M,R,2026-02-23_11h43.25.695,VisualSearch_2526_3,,2025.2.4,2026-02-23 11h43.25.892946 +0100,
vertical.xlsx,The target is tilted.,135,84,4,10,1,0,0,0,0,0,0,0,0,0,0,0,0,0,1,135,space,8.608841099999609,None,1,1,0.4143687000000682,None,space,1.8639610999998695,None,0,0,0,1,,,,,10,4,84,3,298.41840490000004,,,,,,,,,,,,,,,,,,,,,298.4026429999999,298.41840490000004,298.90198680000003,298.9065321999997,298.9221468999999,299.3524116999997,,,,,299.35266409999986,299.36756739999964,299.56752800000004,299.55172509999966,298.9221468999999,,,,,,,,1,1,0.4143687000000682,None,,,,,,,,890,21,M,R,2026-02-23_11h43.25.695,VisualSearch_2526_3,,2025.2.4,2026-02-23 11h43.25.892946 +0100,
vertical.xlsx,The target is tilted.,135,85,5,10,0,1,1,1,1,1,1,1,0,0,0,0,1,7,8,135,space,8.608841099999609,None,0,1,1.9926322999999684,None,space,1.8639610999998695,None,0,0,0,1,,,,,10,5,85,5,299.56752800000004,,,,,,,,,,,,,,,,,,,,,299.5524848,299.56752800000004,300.0515691999999,300.05608379999967,300.0706138999999,302.0674893999999,,,,,302.067689,302.08328219999976,302.2834052999997,302.2674605999996,300.0706138999999,,,,,,,,0,1,1.9926322999999684,None,,,,,,,,890,21,M,R,2026-02-23_11h43.25.695,VisualSearch_2526_3,,2025.2.4,2026-02-23 11h43.25.892946 +0100,
vertical.xlsx,The target is tilted.,135,86,6,10,1,1,1,1,1,1,1,1,1,1,1,1,0,11,12,135,space,8.608841099999609,None,0,0,2.5667301000003135,None,space,1.8639610999998695,None,0,0,0,1,,,,,10,6,86,0,302.2834052999997,,,,,,,,,,,,,,,,,,,,,302.2683112999998,302.2834052999997,302.76698369999986,302.7714581,302.78712719999976,305.3663747999999,,,,,305.3665708999997,305.3819279999998,305.58165359999975,305.5652963999996,302.78712719999976,,,,,,,,0,0,2.5667301000003135,None,,,,,,,,890,21,M,R,2026-02-23_11h43.25.695,VisualSearch_2526_3,,2025.2.4,2026-02-23 11h43.25.892946 +0100,
vertical.xlsx,The target is tilted.,135,87,7,10,1,1,1,1,1,1,1,1,0,0,0,0,0,7,8,135,space,8.608841099999609,None,0,0,1.5769470999998703,None,space,1.8639610999998695,None,0,0,0,1,,,,,10,7,87,1,305.58165359999975,,,,,,,,,,,,,,,,,,,,,305.5660332999996,305.58165359999975,306.0656116,306.0707473999996,306.08384799999976,307.6643990999996,,,,,307.6645368999998,307.6806465999998,307.8807187999996,307.8646243999997,306.08384799999976,,,,,,,,0,0,1.5769470999998703,None,,,,,,,,890,21,M,R,2026-02-23_11h43.25.695,VisualSearch_2526_3,,2025.2.4,2026-02-23 11h43.25.892946 +0100,
vertical.xlsx,The target is tilted.,135,88,0,11,0,1,1,1,1,1,1,1,0,0,0,0,1,7,8,135,space,8.608841099999609,None,0,1,1.8695709999997234,None,space,1.8639610999998695,None,0,0,0,1,,,,,11,0,88,5,307.8807187999996,,,,,,,,,,,,,,,,,,,,,307.86541009999974,307.8807187999996,308.36445349999985,308.3689334999999,308.3858605999999,310.2642492,,,,,310.2644825999996,310.2796414999998,310.47957859999997,310.4634681999996,308.3858605999999,,,,,,,,0,1,1.8695709999997234,None,,,,,,,,890,21,M,R,2026-02-23_11h43.25.695,VisualSearch_2526_3,,2025.2.4,2026-02-23 11h43.25.892946 +0100,
vertical.xlsx,The target is tilted.,135,89,1,11,0,1,1,1,0,0,0,0,0,0,0,0,1,3,4,135,space,8.608841099999609,None,0,1,0.6018938000001981,None,space,1.8639610999998695,None,0,0,0,1,,,,,11,1,89,6,310.47957859999997,,,,,,,,,,,,,,,,,,,,,310.4642064999998,310.47957859999997,310.96302259999993,310.96813169999996,310.9828540999997,311.59614439999996,,,,,311.5962691999998,311.6121481,311.81195979999984,311.79629829999976,310.9828540999997,,,,,,,,0,1,0.6018938000001981,None,,,,,,,,890,21,M,R,2026-02-23_11h43.25.695,VisualSearch_2526_3,,2025.2.4,2026-02-23 11h43.25.892946 +0100,
vertical.xlsx,The target is tilted.,135,90,2,11,1,1,1,1,1,1,1,1,1,1,1,1,0,11,12,135,space,8.608841099999609,None,1,1,0.7509649999997237,None,space,1.8639610999998695,None,0,0,0,1,,,,,11,2,90,0,311.81195979999984,,,,,,,,,,,,,,,,,,,,,311.79699219999975,311.81195979999984,312.2954818999997,312.2972974999998,312.31192699999974,313.07886740000004,,,,,313.0790657999996,313.0949907999998,313.29475209999964,313.2787140999999,312.31192699999974,,,,,,,,1,1,0.7509649999997237,None,,,,,,,,890,21,M,R,2026-02-23_11h43.25.695,VisualSearch_2526_3,,2025.2.4,2026-02-23 11h43.25.892946 +0100,
vertical.xlsx,The target is tilted.,135,91,3,11,0,0,0,0,0,0,0,0,0,0,0,0,1,1,1,135,space,8.608841099999609,None,0,1,0.5397201000000678,None,space,1.8639610999998695,None,0,0,0,1,,,,,11,3,91,7,313.29475209999964,,,,,,,,,,,,,,,,,,,,,313.279438,313.29475209999964,313.7782907999999,313.7829190999996,313.7982820999996,314.34567689999994,,,,,314.34587399999964,314.3610193999998,314.5610566999999,314.5449094999999,313.7982820999996,,,,,,,,0,1,0.5397201000000678,None,,,,,,,,890,21,M,R,2026-02-23_11h43.25.695,VisualSearch_2526_3,,2025.2.4,2026-02-23 11h43.25.892946 +0100,
vertical.xlsx,The target is tilted.,135,92,4,11,1,1,1,1,0,0,0,0,0,0,0,0,0,3,4,135,space,8.608841099999609,None,1,1,1.15325890000031,None,space,1.8639610999998695,None,0,0,0,1,,,,,11,4,92,2,314.5610566999999,,,,,,,,,,,,,,,,,,,,,314.5456924,314.5610566999999,315.04493619999994,315.0496452999996,315.06510899999967,316.2272773999998,,,,,316.22742279999966,316.24353229999997,316.4435526999996,316.4275736999998,315.06510899999967,,,,,,,,1,1,1.15325890000031,None,,,,,,,,890,21,M,R,2026-02-23_11h43.25.695,VisualSearch_2526_3,,2025.2.4,2026-02-23 11h43.25.892946 +0100,
vertical.xlsx,The target is tilted.,135,93,5,11,0,1,1,1,1,1,1,1,1,1,1,1,1,11,12,135,space,8.608841099999609,None,0,1,3.683479199999965,None,space,1.8639610999998695,None,0,0,0,1,,,,,11,5,93,4,316.4435526999996,,,,,,,,,,,,,,,,,,,,,316.4283311999998,316.4435526999996,316.9272388999998,316.9317081999998,316.9467760999996,320.64275469999984,,,,,320.6429656,320.6579376999998,320.8578252999996,320.84205529999963,316.9467760999996,,,,,,,,0,1,3.683479199999965,None,,,,,,,,890,21,M,R,2026-02-23_11h43.25.695,VisualSearch_2526_3,,2025.2.4,2026-02-23 11h43.25.892946 +0100,
vertical.xlsx,The target is tilted.,135,94,6,11,1,1,1,1,1,1,1,1,0,0,0,0,0,7,8,135,space,8.608841099999609,None,1,1,0.8492486000000099,None,space,1.8639610999998695,None,0,0,0,1,,,,,11,6,94,1,320.8578252999996,,,,,,,,,,,,,,,,,,,,,320.84281439999995,320.8578252999996,321.3418816999997,321.3463287999998,321.36201589999973,322.2254006999997,,,,,322.22561429999996,322.2407530999999,322.44078599999966,322.42437819999986,321.36201589999973,,,,,,,,1,1,0.8492486000000099,None,,,,,,,,890,21,M,R,2026-02-23_11h43.25.695,VisualSearch_2526_3,,2025.2.4,2026-02-23 11h43.25.892946 +0100,
vertical.xlsx,The target is tilted.,135,95,7,11,1,0,0,0,0,0,0,0,0,0,0,0,0,0,1,135,space,8.608841099999609,None,1,1,0.4059492000001228,None,space,1.8639610999998695,None,0,0,0,1,,,,,11,7,95,3,322.44078599999966,,,,,,,,,,,,,,,,,,,,,322.4251451,322.44078599999966,322.9246417999998,322.92951719999974,322.94272569999976,323.35816269999987,,,,,323.3583607999999,323.3733607999998,323.57366349999984,323.5574905999997,322.94272569999976,,,,,,,,1,1,0.4059492000001228,None,,,,,,,,890,21,M,R,2026-02-23_11h43.25.695,VisualSearch_2526_3,,2025.2.4,2026-02-23 11h43.25.892946 +0100,
vertical.xlsx,The target is tilted.,135,96,0,12,1,1,1,1,1,1,1,1,0,0,0,0,0,7,8,135,space,8.608841099999609,None,1,1,0.7058047999998962,None,space,1.8639610999998695,None,0,0,0,1,,,,,12,0,96,1,323.57366349999984,,,,,,,,,,,,,,,,,,,,,323.55824399999983,323.57366349999984,324.05732799999987,324.0617898999999,324.07708049999974,324.7908677999999,,,,,324.79106649999994,324.8063506999997,325.0062718999998,324.9900978999999,324.07708049999974,,,,,,,,1,1,0.7058047999998962,None,,,,,,,,890,21,M,R,2026-02-23_11h43.25.695,VisualSearch_2526_3,,2025.2.4,2026-02-23 11h43.25.892946 +0100,
vertical.xlsx,The target is tilted.,135,97,1,12,1,1,1,1,0,0,0,0,0,0,0,0,0,3,4,135,space,8.608841099999609,None,1,1,0.6812309000001733,None,space,1.8639610999998695,None,0,0,0,1,,,,,12,1,97,2,325.0062718999998,,,,,,,,,,,,,,,,,,,,,324.9908326,325.0062718999998,325.4899852999997,325.49433839999983,325.5060156999998,326.1902035999997,,,,,326.19039959999964,326.2054621999996,326.4056452,326.3894559999999,325.5060156999998,,,,,,,,1,1,0.6812309000001733,None,,,,,,,,890,21,M,R,2026-02-23_11h43.25.695,VisualSearch_2526_3,,2025.2.4,2026-02-23 11h43.25.892946 +0100,
vertical.xlsx,The target is tilted.,135,98,2,12,1,1,1,1,1,1,1,1,1,1,1,1,0,11,12,135,space,8.608841099999609,None,1,1,0.6500762000000577,None,space,1.8639610999998695,None,0,0,0,1,,,,,12,2,98,0,326.4056452,,,,,,,,,,,,,,,,,,,,,326.39022529999966,326.4056452,326.8892972999997,326.8937447999997,326.9077714,327.57272239999975,,,,,327.5728984999996,327.5883048999999,327.7882096999997,327.7722242,326.9077714,,,,,,,,1,1,0.6500762000000577,None,,,,,,,,890,21,M,R,2026-02-23_11h43.25.695,VisualSearch_2526_3,,2025.2.4,2026-02-23 11h43.25.892946 +0100,
vertical.xlsx,The target is tilted.,135,99,3,12,0,1,1,1,1,1,1,1,1,1,1,1,1,11,12,135,space,8.608841099999609,None,0,1,2.427445499999976,None,space,1.8639610999998695,None,0,0,0,1,,,,,12,3,99,4,327.7882096999997,,,,,,,,,,,,,,,,,,,,,327.7729852999996,327.7882096999997,328.27207980000003,328.2767138999998,328.28989599999977,330.72066419999965,,,,,330.72081409999964,330.7368354,330.9365763999999,330.92075369999975,328.28989599999977,,,,,,,,0,1,2.427445499999976,None,,,,,,,,890,21,M,R,2026-02-23_11h43.25.695,VisualSearch_2526_3,,2025.2.4,2026-02-23 11h43.25.892946 +0100,
vertical.xlsx,The target is tilted.,135,100,4,12,0,0,0,0,0,0,0,0,0,0,0,0,1,1,1,135,space,8.608841099999609,None,0,1,0.46998470000016823,None,space,1.8639610999998695,None,0,0,0,1,,,,,12,4,100,7,330.9365763999999,,,,,,,,,,,,,,,,,,,,,330.9215089999998,330.9365763999999,331.42056030000003,331.42510029999994,331.43860019999966,331.92094929999985,,,,,331.92114839999977,331.9364051999996,332.1360228999997,332.12023269999963,331.43860019999966,,,,,,,,0,1,0.46998470000016823,None,,,,,,,,890,21,M,R,2026-02-23_11h43.25.695,VisualSearch_2526_3,,2025.2.4,2026-02-23 11h43.25.892946 +0100,
vertical.xlsx,The target is tilted.,135,101,5,12,0,1,1,1,1,1,1,1,0,0,0,0,1,7,8,135,space,8.608841099999609,None,0,1,1.8526122000002943,None,space,1.8639610999998695,None,0,0,0,1,,,,,12,5,101,5,332.1360228999997,,,,,,,,,,,,,,,,,,,,,332.12098909999986,332.1360228999997,332.6197595999997,332.6242179999999,332.6392936999996,334.50303689999964,,,,,334.50323549999985,334.51828129999967,334.7184084999999,334.7024692,332.6392936999996,,,,,,,,0,1,1.8526122000002943,None,,,,,,,,890,21,M,R,2026-02-23_11h43.25.695,VisualSearch_2526_3,,2025.2.4,2026-02-23 11h43.25.892946 +0100,
vertical.xlsx,The target is tilted.,135,102,6,12,0,1,1,1,0,0,0,0,0,0,0,0,1,3,4,135,space,8.608841099999609,None,0,1,0.8839732999999796,None,space,1.8639610999998695,None,0,0,0,1,,,,,12,6,102,6,334.7184084999999,,,,,,,,,,,,,,,,,,,,,334.7032144,334.7184084999999,335.2022592999997,335.2067440999999,335.22296979999965,336.1186888999996,,,,,336.11888699999963,336.13443549999965,336.33449159999964,336.3179986,335.22296979999965,,,,,,,,0,1,0.8839732999999796,None,,,,,,,,890,21,M,R,2026-02-23_11h43.25.695,VisualSearch_2526_3,,2025.2.4,2026-02-23 11h43.25.892946 +0100,
vertical.xlsx,The target is tilted.,135,103,7,12,1,0,0,0,0,0,0,0,0,0,0,0,0,0,1,135,space,8.608841099999609,None,1,1,0.6087102000001323,None,space,1.8639610999998695,None,0,0,0,1,,,,,12,7,103,3,336.33449159999964,,,,,,,,,,,,,,,,,,,,,336.3187192999999,336.33449159999964,336.8177762,336.8222047999998,336.83692559999963,337.4516177999999,,,,,337.4518178999997,337.46730209999987,337.6672537999998,337.6510080999997,336.83692559999963,,,,,,,,1,1,0.6087102000001323,None,,,,,,,,890,21,M,R,2026-02-23_11h43.25.695,VisualSearch_2526_3,,2025.2.4,2026-02-23 11h43.25.892946 +0100,
vertical.xlsx,The target is tilted.,135,104,0,13,0,1,1,1,1,1,1,1,0,0,0,0,1,7,8,135,space,8.608841099999609,None,0,1,1.4506198000003678,None,space,1.8639610999998695,None,0,0,0,1,,,,,13,0,104,5,337.6672537999998,,,,,,,,,,,,,,,,,,,,,337.65175629999976,337.6672537999998,338.15086539999993,338.15537049999966,338.1709751999997,339.6341029,,,,,339.63432399999965,339.6495533999996,339.84951060000003,339.83339039999964,338.1709751999997,,,,,,,,0,1,1.4506198000003678,None,,,,,,,,890,21,M,R,2026-02-23_11h43.25.695,VisualSearch_2526_3,,2025.2.4,2026-02-23 11h43.25.892946 +0100,
vertical.xlsx,The target is tilted.,135,105,1,13,0,1,1,1,0,0,0,0,0,0,0,0,1,3,4,135,space,8.608841099999609,None,0,1,0.9135112999997546,None,space,1.8639610999998695,None,0,0,0,1,,,,,13,1,105,6,339.84951060000003,,,,,,,,,,,,,,,,,,,,,339.83413219999966,339.84951060000003,340.3332470999999,340.3377504,340.3527039999999,341.28292469999997,,,,,341.28310039999997,341.29881579999983,341.4987245999996,341.4826653,340.3527039999999,,,,,,,,0,1,0.9135112999997546,None,,,,,,,,890,21,M,R,2026-02-23_11h43.25.695,VisualSearch_2526_3,,2025.2.4,2026-02-23 11h43.25.892946 +0100,
vertical.xlsx,The target is tilted.,135,106,2,13,0,0,0,0,0,0,0,0,0,0,0,0,1,1,1,135,space,8.608841099999609,None,0,1,0.4517553999999109,None,space,1.8639610999998695,None,0,0,0,1,,,,,13,2,106,7,341.4987245999996,,,,,,,,,,,,,,,,,,,,,341.4834237,341.4987245999996,341.9822433999998,341.9867331999999,342.0018522999999,342.4652848999999,,,,,342.4653613999999,342.4812773999997,342.68163259999983,342.6655195999997,342.0018522999999,,,,,,,,0,1,0.4517553999999109,None,,,,,,,,890,21,M,R,2026-02-23_11h43.25.695,VisualSearch_2526_3,,2025.2.4,2026-02-23 11h43.25.892946 +0100,
vertical.xlsx,The target is tilted.,135,107,3,13,0,1,1,1,1,1,1,1,1,1,1,1,1,11,12,135,space,8.608841099999609,None,0,1,2.4719849000002796,None,space,1.8639610999998695,None,0,0,0,1,,,,,13,3,107,4,342.68163259999983,,,,,,,,,,,,,,,,,,,,,342.6662374999996,342.68163259999983,343.1648600999997,343.16926179999973,343.18538039999976,345.6646458,,,,,345.6648449999998,345.6802282999997,345.8801319999998,345.86393529999987,343.18538039999976,,,,,,,,0,1,2.4719849000002796,None,,,,,,,,890,21,M,R,2026-02-23_11h43.25.695,VisualSearch_2526_3,,2025.2.4,2026-02-23 11h43.25.892946 +0100,
vertical.xlsx,The target is tilted.,135,108,4,13,1,0,0,0,0,0,0,0,0,0,0,0,0,0,1,135,space,8.608841099999609,None,1,1,0.6132327000000259,None,space,1.8639610999998695,None,0,0,0,1,,,,,13,4,108,3,345.8801319999998,,,,,,,,,,,,,,,,,,,,,345.8646951999999,345.8801319999998,346.3638412,346.3683412999999,346.3861056999999,347.0139280999997,,,,,347.0141257999999,347.0292473999998,347.2295759999997,347.21364889999995,346.3861056999999,,,,,,,,1,1,0.6132327000000259,None,,,,,,,,890,21,M,R,2026-02-23_11h43.25.695,VisualSearch_2526_3,,2025.2.4,2026-02-23 11h43.25.892946 +0100,
vertical.xlsx,The target is tilted.,135,109,5,13,1,1,1,1,1,1,1,1,1,1,1,1,0,11,12,135,space,8.608841099999609,None,1,1,0.8593080000000555,None,space,1.8639610999998695,None,0,0,0,1,,,,,13,5,109,0,347.2295759999997,,,,,,,,,,,,,,,,,,,,,347.2144567,347.2295759999997,347.71313199999986,347.7176465999996,347.7325434999998,348.5961594999999,,,,,348.59630819999984,348.6118803999998,348.8121455999999,348.79592999999977,347.7325434999998,,,,,,,,1,1,0.8593080000000555,None,,,,,,,,890,21,M,R,2026-02-23_11h43.25.695,VisualSearch_2526_3,,2025.2.4,2026-02-23 11h43.25.892946 +0100,
vertical.xlsx,The target is tilted.,135,110,6,13,1,1,1,1,0,0,0,0,0,0,0,0,0,3,4,135,space,8.608841099999609,None,1,1,0.6116839000001164,None,space,1.8639610999998695,None,0,0,0,1,,,,,13,6,110,2,348.8121455999999,,,,,,,,,,,,,,,,,,,,,348.7967857999997,348.8121455999999,349.29581029999963,349.30026529999986,349.31597109999984,349.9291559999997,,,,,349.9293527,349.9449298999998,350.1449120999996,350.1284074,349.31597109999984,,,,,,,,1,1,0.6116839000001164,None,,,,,,,,890,21,M,R,2026-02-23_11h43.25.695,VisualSearch_2526_3,,2025.2.4,2026-02-23 11h43.25.892946 +0100,
vertical.xlsx,The target is tilted.,135,111,7,13,1,1,1,1,1,1,1,1,0,0,0,0,0,7,8,135,space,8.608841099999609,None,0,0,1.4602375999998003,None,space,1.8639610999998695,None,0,0,0,1,,,,,13,7,111,1,350.1449120999996,,,,,,,,,,,,,,,,,,,,,350.12918119999995,350.1449120999996,350.6284618999998,350.6326767999999,350.6443449999997,352.1112159999998,,,,,352.1113564999996,352.12725569999975,352.3272729999999,352.31106999999975,350.6443449999997,,,,,,,,0,0,1.4602375999998003,None,,,,,,,,890,21,M,R,2026-02-23_11h43.25.695,VisualSearch_2526_3,,2025.2.4,2026-02-23 11h43.25.892946 +0100,
vertical.xlsx,The target is tilted.,135,112,0,14,1,1,1,1,1,1,1,1,1,1,1,1,0,11,12,135,space,8.608841099999609,None,1,1,1.719695700000102,None,space,1.8639610999998695,None,0,0,0,1,,,,,14,0,112,0,352.3272729999999,,,,,,,,,,,,,,,,,,,,,352.31185119999964,352.3272729999999,352.8108008999998,352.81521029999976,352.8291535999997,354.56054919999997,,,,,354.56074539999963,354.57613999999967,354.77614749999975,354.75996289999966,352.8291535999997,,,,,,,,1,1,1.719695700000102,None,,,,,,,,890,21,M,R,2026-02-23_11h43.25.695,VisualSearch_2526_3,,2025.2.4,2026-02-23 11h43.25.892946 +0100,
vertical.xlsx,The target is tilted.,135,113,1,14,1,1,1,1,0,0,0,0,0,0,0,0,0,3,4,135,space,8.608841099999609,None,1,1,0.5579444999998486,None,space,1.8639610999998695,None,0,0,0,1,,,,,14,1,113,2,354.77614749999975,,,,,,,,,,,,,,,,,,,,,354.76072569999997,354.77614749999975,355.2596245,355.2641011999999,355.2777130999998,355.84340459999976,,,,,355.84360339999967,355.85872119999976,356.0587650999996,356.0424546999998,355.2777130999998,,,,,,,,1,1,0.5579444999998486,None,,,,,,,,890,21,M,R,2026-02-23_11h43.25.695,VisualSearch_2526_3,,2025.2.4,2026-02-23 11h43.25.892946 +0100,
vertical.xlsx,The target is tilted.,135,114,2,14,0,1,1,1,0,0,0,0,0,0,0,0,1,3,4,135,space,8.608841099999609,None,0,1,2.145944999999756,None,space,1.8639610999998695,None,0,0,0,1,,,,,14,2,114,6,356.0587650999996,,,,,,,,,,,,,,,,,,,,,356.0431802999997,356.0587650999996,356.54247529999975,356.5470185999998,356.5627545999996,358.7243042,,,,,358.72438809999994,358.74073389999967,,358.9245552999996,356.5627545999996,,,,,,,,0,1,2.145944999999756,None,,,,,,,,890,21,M,R,2026-02-23_11h43.25.695,VisualSearch_2526_3,,2025.2.4,2026-02-23 11h43.25.892946 +0100,
vertical.xlsx,The target is tilted.,135,115,3,14,0,1,1,1,1,1,1,1,1,1,1,1,1,11,12,135,space,8.608841099999609,None,0,1,1.777281099999982,None,space,1.8639610999998695,None,0,0,0,1,,,,,14,3,115,4,358.9403453,,,,,,,,,,,,,,,,,,,,,358.9253561999999,358.9403453,359.42471750000004,359.4295377999997,359.44375969999965,361.2242508999998,,,,,361.22447539999985,361.23983099999987,361.4397291,361.4236600999998,359.44375969999965,,,,,,,,0,1,1.777281099999982,None,,,,,,,,890,21,M,R,2026-02-23_11h43.25.695,VisualSearch_2526_3,,2025.2.4,2026-02-23 11h43.25.892946 +0100,
vertical.xlsx,The target is tilted.,135,116,4,14,1,0,0,0,0,0,0,0,0,0,0,0,0,0,1,135,space,8.608841099999609,None,1,1,0.4685312999999951,None,space,1.8639610999998695,None,0,0,0,1,,,,,14,4,116,3,361.4397291,,,,,,,,,,,,,,,,,,,,,361.42439909999985,361.4397291,361.92329470000004,361.9278878,361.9402034999998,362.42319389999966,,,,,362.4233291999999,362.43911260000004,362.63917519999995,362.62311729999965,361.9402034999998,,,,,,,,1,1,0.4685312999999951,None,,,,,,,,890,21,M,R,2026-02-23_11h43.25.695,VisualSearch_2526_3,,2025.2.4,2026-02-23 11h43.25.892946 +0100,
vertical.xlsx,The target is tilted.,135,117,5,14,0,0,0,0,0,0,0,0,0,0,0,0,1,1,1,135,space,8.608841099999609,None,0,1,0.5111628999998175,None,space,1.8639610999998695,None,0,0,0,1,,,,,14,5,117,7,362.63917519999995,,,,,,,,,,,,,,,,,,,,,362.62384169999996,362.63917519999995,363.12289539999983,363.12750449999976,363.1423814,363.6565778999998,,,,,363.6567732999997,363.6719595999998,363.8719331999996,363.8558499999999,363.1423814,,,,,,,,0,1,0.5111628999998175,None,,,,,,,,890,21,M,R,2026-02-23_11h43.25.695,VisualSearch_2526_3,,2025.2.4,2026-02-23 11h43.25.892946 +0100,
vertical.xlsx,The target is tilted.,135,118,6,14,0,1,1,1,1,1,1,1,0,0,0,0,1,7,8,135,space,8.608841099999609,None,0,1,1.7363313000000744,None,space,1.8639610999998695,None,0,0,0,1,,,,,14,6,118,5,363.8719331999996,,,,,,,,,,,,,,,,,,,,,363.85668910000004,363.8719331999996,364.3554798,364.3598761999997,364.3735104999996,366.12182159999975,,,,,366.12201589999995,366.1373504999997,366.33739590000005,366.32094199999983,364.3735104999996,,,,,,,,0,1,1.7363313000000744,None,,,,,,,,890,21,M,R,2026-02-23_11h43.25.695,VisualSearch_2526_3,,2025.2.4,2026-02-23 11h43.25.892946 +0100,
vertical.xlsx,The target is tilted.,135,119,7,14,1,1,1,1,1,1,1,1,0,0,0,0,0,7,8,135,space,8.608841099999609,None,1,1,0.8647988000002442,None,space,1.8639610999998695,None,0,0,0,1,,,,,14,7,119,1,366.33739590000005,,,,,,,,,,,,,,,,,,,,,366.3213717999997,366.33739590000005,366.82113309999977,366.8255968999997,366.8411262999998,367.7208848999999,,,,,367.72103419999985,367.7368726999998,367.94987439999977,367.92040309999993,366.8411262999998,,,,,,,,1,1,0.8647988000002442,None,,,,,,,,890,21,M,R,2026-02-23_11h43.25.695,VisualSearch_2526_3,,2025.2.4,2026-02-23 11h43.25.892946 +0100,
vertical.xlsx,The target is tilted.,135,0,0,0,,,,,,,,,,,,,,,,,space,8.608841099999609,None,,,,,space,1.8639610999998695,None,0,0,0,1,,,,,,,,,,,,,,,,,,,,,,,,,,,,,,,,,,,,,,,,,,,,,,,,,,,,,,,,,,,,,,,890,21,M,R,2026-02-23_11h43.25.695,VisualSearch_2526_3,,2025.2.4,2026-02-23 11h43.25.892946 +0100,
tilted.xlsx,The target is tilted.,117,0,0,0,1,0,0,0,0,0,0,0,0,0,0,0,0,0,1,117,space,5.083673399999952,None,1,1,0.7637297000001126,None,,,,0,1,1,0,0,0,0,3,,,,,373.06055879999985,,,,,,,,,,,,,,,367.94987439999977,367.94987439999977,367.94987439999977,space,5.083673399999952,None,373.0567753999999,373.06055879999985,373.5512531999998,373.55583049999996,373.5717574,374.35170519999974,1,1,0.7637297000001126,None,374.35190239999974,374.3672468999998,374.56720359999963,374.5510202999999,,,,,,,,,,,,,,,,,,,,890,21,M,R,2026-02-23_11h43.25.695,VisualSearch_2526_3,,2025.2.4,2026-02-23 11h43.25.892946 +0100,
tilted.xlsx,The target is tilted.,117,1,1,0,0,0,0,0,0,0,0,0,0,0,0,0,1,1,1,117,space,5.083673399999952,None,1,0,0.4651214999998956,None,,,,0,1,1,0,0,1,1,7,,,,,374.56720359999963,,,,,,,,,,,,,,,,,,,,,374.5516679999996,374.56720359999963,375.0508544999998,375.05517710000004,375.06625329999997,375.5344901999997,1,0,0.4651214999998956,None,375.53467969999974,375.5498981999999,375.7497764,375.7336627999998,375.06625329999997,,,,,,,,,,,,,,,,,,,890,21,M,R,2026-02-23_11h43.25.695,VisualSearch_2526_3,,2025.2.4,2026-02-23 11h43.25.892946 +0100,
tilted.xlsx,The target is tilted.,117,2,2,0,1,1,1,1,0,0,0,0,0,0,0,0,0,3,4,117,space,5.083673399999952,None,1,1,0.6563194999998814,None,,,,0,1,1,0,0,2,2,2,,,,,375.7497764,,,,,,,,,,,,,,,,,,,,,375.7343821999998,375.7497764,376.2332683999998,376.2378491999998,376.2529024999999,376.91715099999965,1,1,0.6563194999998814,None,376.9173388999998,376.9323403999997,377.13268059999973,377.11644309999974,376.2529024999999,,,,,,,,,,,,,,,,,,,890,21,M,R,2026-02-23_11h43.25.695,VisualSearch_2526_3,,2025.2.4,2026-02-23 11h43.25.892946 +0100,
tilted.xlsx,The target is tilted.,117,3,3,0,0,1,1,1,0,0,0,0,0,0,0,0,1,3,4,117,space,5.083673399999952,None,0,1,0.9764982999995482,None,,,,0,1,1,0,0,3,3,6,,,,,377.13268059999973,,,,,,,,,,,,,,,,,,,,,377.1171280999997,377.13268059999973,377.6159107999997,377.62038619999976,377.6357416999999,378.6160811,0,1,0.9764982999995482,None,378.6162712999999,378.6319552,378.8316775999997,378.81566399999974,377.6357416999999,,,,,,,,,,,,,,,,,,,890,21,M,R,2026-02-23_11h43.25.695,VisualSearch_2526_3,,2025.2.4,2026-02-23 11h43.25.892946 +0100,
tilted.xlsx,The target is tilted.,117,4,4,0,0,1,1,1,1,1,1,1,0,0,0,0,1,7,8,117,space,5.083673399999952,None,1,0,3.8015215000000353,None,,,,0,1,1,0,0,4,4,5,,,,,378.8316775999997,,,,,,,,,,,,,,,,,,,,,378.81634929999973,378.8316775999997,379.31553589999976,379.3199774999998,379.3349251999998,383.1472313999998,1,0,3.8015215000000353,None,383.14742959999967,383.1629275999999,383.36271149999993,383.3470364,379.3349251999998,,,,,,,,,,,,,,,,,,,890,21,M,R,2026-02-23_11h43.25.695,VisualSearch_2526_3,,2025.2.4,2026-02-23 11h43.25.892946 +0100,
tilted.xlsx,The target is tilted.,117,5,5,0,1,1,1,1,1,1,1,1,1,1,1,1,0,11,12,117,space,5.083673399999952,None,1,1,2.275880700000016,None,,,,0,1,1,0,0,5,5,0,,,,,383.36271149999993,,,,,,,,,,,,,,,,,,,,,383.34773589999986,383.36271149999993,383.84674799999993,383.8512472999996,383.86695199999986,386.14580320000005,1,1,2.275880700000016,None,386.1459362999999,386.1617836999999,386.36176009999963,386.3455752,383.86695199999986,,,,,,,,,,,,,,,,,,,890,21,M,R,2026-02-23_11h43.25.695,VisualSearch_2526_3,,2025.2.4,2026-02-23 11h43.25.892946 +0100,
tilted.xlsx,The target is tilted.,117,6,6,0,0,1,1,1,1,1,1,1,1,1,1,1,1,11,12,117,space,5.083673399999952,None,1,0,1.213079199999811,None,,,,0,1,1,0,0,6,6,4,,,,,386.36176009999963,,,,,,,,,,,,,,,,,,,,,386.3462949,386.36176009999963,386.84543759999997,386.8499705999998,386.86610010000004,388.0949738999998,1,0,1.213079199999811,None,388.09510629999977,388.1108841999999,388.3106289999996,388.2942936999998,386.86610010000004,,,,,,,,,,,,,,,,,,,890,21,M,R,2026-02-23_11h43.25.695,VisualSearch_2526_3,,2025.2.4,2026-02-23 11h43.25.892946 +0100,
tilted.xlsx,The target is tilted.,117,7,7,0,1,1,1,1,1,1,1,1,0,0,0,0,0,7,8,117,space,5.083673399999952,None,1,1,1.475669200000084,None,,,,0,1,1,0,0,7,7,1,,,,,388.3106289999996,,,,,,,,,,,,,,,,,,,,,388.29461349999974,388.3106289999996,388.7944113999997,388.79891759999964,388.81469019999986,390.2941426999996,1,1,1.475669200000084,None,390.2943347999999,390.3098149999996,390.5098834999999,390.4936792999997,388.81469019999986,,,,,,,,,,,,,,,,,,,890,21,M,R,2026-02-23_11h43.25.695,VisualSearch_2526_3,,2025.2.4,2026-02-23 11h43.25.892946 +0100,
tilted.xlsx,The target is tilted.,117,0,0,0,0,1,1,1,1,1,1,1,1,1,1,1,1,11,12,117,space,5.083673399999952,None,1,0,4.127441699999963,None,space,1.7551183000000492,None,0,1,1,0,,,,,0,0,0,4,392.295388,,,,,,,,,,,,,,,,,,,,,392.29166159999977,392.295388,392.79241709999997,392.7970822999996,392.8120593999997,396.94087309999986,,,,,396.94100839999965,396.9567969999998,397.15685369999983,397.1406757,,390.5005815999998,390.5098834999999,390.5098834999999,392.2766879999999,space,1.7551183000000492,None,1,0,4.127441699999963,None,,,,,,,,890,21,M,R,2026-02-23_11h43.25.695,VisualSearch_2526_3,,2025.2.4,2026-02-23 11h43.25.892946 +0100,
tilted.xlsx,The target is tilted.,117,1,1,0,1,1,1,1,1,1,1,1,0,0,0,0,0,7,8,117,space,5.083673399999952,None,1,1,0.6418051999999079,None,space,1.7551183000000492,None,0,1,1,0,,,,,0,1,1,1,397.15685369999983,,,,,,,,,,,,,,,,,,,,,397.14143739999963,397.15685369999983,397.6401937999999,397.6446692999998,397.6586408999997,398.3072266999998,,,,,398.3074032999998,398.3227849,398.5229360999997,398.5065556999998,397.6586408999997,,,,,,,,1,1,0.6418051999999079,None,,,,,,,,890,21,M,R,2026-02-23_11h43.25.695,VisualSearch_2526_3,,2025.2.4,2026-02-23 11h43.25.892946 +0100,
tilted.xlsx,The target is tilted.,117,2,2,0,1,0,0,0,0,0,0,0,0,0,0,0,0,0,1,117,space,5.083673399999952,None,1,1,1.0624557000001005,None,space,1.7551183000000492,None,0,1,1,0,,,,,0,2,2,3,398.5229360999997,,,,,,,,,,,,,,,,,,,,,398.5072846999997,398.5229360999997,399.0065676999998,399.01099269999986,399.0260310999997,400.08908199999996,,,,,400.0891981,400.105223,400.3051951999996,400.28919859999996,399.0260310999997,,,,,,,,1,1,1.0624557000001005,None,,,,,,,,890,21,M,R,2026-02-23_11h43.25.695,VisualSearch_2526_3,,2025.2.4,2026-02-23 11h43.25.892946 +0100,
tilted.xlsx,The target is tilted.,117,3,3,0,1,1,1,1,0,0,0,0,0,0,0,0,0,3,4,117,space,5.083673399999952,None,1,1,1.2580062000001817,None,space,1.7551183000000492,None,0,1,1,0,,,,,0,3,3,2,400.3051951999996,,,,,,,,,,,,,,,,,,,,,400.2899312999998,400.3051951999996,400.7885729999998,400.7906923999999,400.80499659999987,402.0723816999998,,,,,402.0725774999996,402.08752400000003,402.2873980999998,402.27170609999985,400.80499659999987,,,,,,,,1,1,1.2580062000001817,None,,,,,,,,890,21,M,R,2026-02-23_11h43.25.695,VisualSearch_2526_3,,2025.2.4,2026-02-23 11h43.25.892946 +0100,
tilted.xlsx,The target is tilted.,117,4,4,0,0,0,0,0,0,0,0,0,0,0,0,0,1,1,1,117,space,5.083673399999952,None,0,1,0.6261668000001919,None,space,1.7551183000000492,None,0,1,1,0,,,,,0,4,4,7,402.2873980999998,,,,,,,,,,,,,,,,,,,,,402.2724662999999,402.2873980999998,402.77149429999963,402.7759885999999,402.7914963999997,403.42140849999987,,,,,403.4216027999996,403.4371216999998,403.6368193999997,403.6212480999998,402.7914963999997,,,,,,,,0,1,0.6261668000001919,None,,,,,,,,890,21,M,R,2026-02-23_11h43.25.695,VisualSearch_2526_3,,2025.2.4,2026-02-23 11h43.25.892946 +0100,
tilted.xlsx,The target is tilted.,117,5,5,0,1,1,1,1,1,1,1,1,1,1,1,1,0,11,12,117,space,5.083673399999952,None,1,1,1.5323261999997158,None,space,1.7551183000000492,None,0,1,1,0,,,,,0,5,5,0,403.6368193999997,,,,,,,,,,,,,,,,,,,,,403.6220564,403.6368193999997,404.1209162,404.1253621999999,404.1405136999997,405.6868108999997,,,,,405.6869936999997,405.70279059999984,405.9029016999998,405.8867688,404.1405136999997,,,,,,,,1,1,1.5323261999997158,None,,,,,,,,890,21,M,R,2026-02-23_11h43.25.695,VisualSearch_2526_3,,2025.2.4,2026-02-23 11h43.25.892946 +0100,
tilted.xlsx,The target is tilted.,117,6,6,0,0,1,1,1,0,0,0,0,0,0,0,0,1,3,4,117,space,5.083673399999952,None,0,1,1.0736652000000504,None,space,1.7551183000000492,None,0,1,1,0,,,,,0,6,6,6,405.9029016999998,,,,,,,,,,,,,,,,,,,,,405.8874891999999,405.9029016999998,406.386129,406.39055789999975,406.40417839999964,407.4861898999998,,,,,407.4863338,407.5020556999998,407.70207200000004,407.6861193,406.40417839999964,,,,,,,,0,1,1.0736652000000504,None,,,,,,,,890,21,M,R,2026-02-23_11h43.25.695,VisualSearch_2526_3,,2025.2.4,2026-02-23 11h43.25.892946 +0100,
tilted.xlsx,The target is tilted.,117,7,7,0,0,1,1,1,1,1,1,1,0,0,0,0,1,7,8,117,space,5.083673399999952,None,0,1,3.700972300000103,None,space,1.7551183000000492,None,0,1,1,0,,,,,0,7,7,5,407.70207200000004,,,,,,,,,,,,,,,,,,,,,407.68693159999975,407.70207200000004,408.1857222999997,408.1901407999999,408.2061045999999,411.9178910999999,,,,,411.9180922999999,411.9330576999996,412.1334382,412.1171936999999,408.2061045999999,,,,,,,,0,1,3.700972300000103,None,,,,,,,,890,21,M,R,2026-02-23_11h43.25.695,VisualSearch_2526_3,,2025.2.4,2026-02-23 11h43.25.892946 +0100,
tilted.xlsx,The target is tilted.,117,8,0,1,1,1,1,1,1,1,1,1,1,1,1,1,0,11,12,117,space,5.083673399999952,None,1,1,1.9820371999999224,None,space,1.7551183000000492,None,0,1,1,0,,,,,1,0,8,0,412.1334382,,,,,,,,,,,,,,,,,,,,,412.1179554,412.1334382,412.6170525999996,412.6215029,412.63668389999975,414.6333316,,,,,414.63352859999986,414.64879729999984,414.8487412999998,414.8325689999997,412.63668389999975,,,,,,,,1,1,1.9820371999999224,None,,,,,,,,890,21,M,R,2026-02-23_11h43.25.695,VisualSearch_2526_3,,2025.2.4,2026-02-23 11h43.25.892946 +0100,
tilted.xlsx,The target is tilted.,117,9,1,1,1,0,0,0,0,0,0,0,0,0,0,0,0,0,1,117,space,5.083673399999952,None,1,1,1.074042300000201,None,space,1.7551183000000492,None,0,1,1,0,,,,,1,1,9,3,414.8487412999998,,,,,,,,,,,,,,,,,,,,,414.83332819999987,414.8487412999998,415.3324263999998,415.33693849999963,415.35291719999987,416.4324623999996,,,,,416.4326572,416.44763969999985,416.64774279999983,416.6318650999997,415.35291719999987,,,,,,,,1,1,1.074042300000201,None,,,,,,,,890,21,M,R,2026-02-23_11h43.25.695,VisualSearch_2526_3,,2025.2.4,2026-02-23 11h43.25.892946 +0100,
tilted.xlsx,The target is tilted.,117,10,2,1,1,1,1,1,0,0,0,0,0,0,0,0,0,3,4,117,space,5.083673399999952,None,1,1,0.8747529999996004,None,space,1.7551183000000492,None,0,1,1,0,,,,,1,2,10,2,416.64774279999983,,,,,,,,,,,,,,,,,,,,,416.63269059999993,416.64774279999983,417.13152839999975,417.1360534999999,417.1513286999998,418.03164769999967,,,,,418.03184250000004,418.04731909999964,418.2471637999997,418.23074129999986,417.1513286999998,,,,,,,,1,1,0.8747529999996004,None,,,,,,,,890,21,M,R,2026-02-23_11h43.25.695,VisualSearch_2526_3,,2025.2.4,2026-02-23 11h43.25.892946 +0100,
tilted.xlsx,The target is tilted.,117,11,3,1,0,1,1,1,1,1,1,1,1,1,1,1,1,11,12,117,space,5.083673399999952,None,0,1,4.0660979999997835,None,space,1.7551183000000492,None,0,1,1,0,,,,,1,3,11,4,418.2471637999997,,,,,,,,,,,,,,,,,,,,,418.23147549999976,418.2471637999997,418.7308552999998,418.7358531,418.74920729999985,422.8292523,,,,,422.8294487999997,422.8451278999996,423.0451066999999,423.0287822999999,418.74920729999985,,,,,,,,0,1,4.0660979999997835,None,,,,,,,,890,21,M,R,2026-02-23_11h43.25.695,VisualSearch_2526_3,,2025.2.4,2026-02-23 11h43.25.892946 +0100,
tilted.xlsx,The target is tilted.,117,12,4,1,1,1,1,1,1,1,1,1,0,0,0,0,0,7,8,117,space,5.083673399999952,None,1,1,2.012062100000094,None,space,1.7551183000000492,None,0,1,1,0,,,,,1,4,12,1,423.0451066999999,,,,,,,,,,,,,,,,,,,,,423.0295679999999,423.0451066999999,423.52839589999985,423.5328792,423.5476770999999,425.5616947999997,,,,,425.56190689999994,425.57679329999974,425.77721219999967,425.76100640000004,423.5476770999999,,,,,,,,1,1,2.012062100000094,None,,,,,,,,890,21,M,R,2026-02-23_11h43.25.695,VisualSearch_2526_3,,2025.2.4,2026-02-23 11h43.25.892946 +0100,
tilted.xlsx,The target is tilted.,117,13,5,1,0,0,0,0,0,0,0,0,0,0,0,0,1,1,1,117,space,5.083673399999952,None,0,1,0.5464431000000332,None,space,1.7551183000000492,None,0,1,1,0,,,,,1,5,13,7,425.77721219999967,,,,,,,,,,,,,,,,,,,,,425.76180209999984,425.77721219999967,426.26054669999985,426.2651401999997,426.28021139999964,426.8277699999999,,,,,426.82796340000004,426.8431719,427.04330189999973,427.02722399999993,426.28021139999964,,,,,,,,0,1,0.5464431000000332,None,,,,,,,,890,21,M,R,2026-02-23_11h43.25.695,VisualSearch_2526_3,,2025.2.4,2026-02-23 11h43.25.892946 +0100,
tilted.xlsx,The target is tilted.,117,14,6,1,0,1,1,1,0,0,0,0,0,0,0,0,1,3,4,117,space,5.083673399999952,None,0,1,0.9059979999997267,None,space,1.7551183000000492,None,0,1,1,0,,,,,1,6,14,6,427.04330189999973,,,,,,,,,,,,,,,,,,,,,427.02793139999994,427.04330189999973,427.5268809999998,427.53142609999986,427.5464453999998,428.4609983999999,,,,,428.4611987999997,428.47596599999997,428.67587460000004,428.6596476999998,427.5464453999998,,,,,,,,0,1,0.9059979999997267,None,,,,,,,,890,21,M,R,2026-02-23_11h43.25.695,VisualSearch_2526_3,,2025.2.4,2026-02-23 11h43.25.892946 +0100,
tilted.xlsx,The target is tilted.,117,15,7,1,0,1,1,1,1,1,1,1,0,0,0,0,1,7,8,117,space,5.083673399999952,None,0,1,4.281718600000204,None,space,1.7551183000000492,None,0,1,1,0,,,,,1,7,15,5,428.67587460000004,,,,,,,,,,,,,,,,,,,,,428.6604355999998,428.67587460000004,429.1594272999996,429.1640596999996,429.18065509999997,433.4744824999998,,,,,433.47467979999965,433.4902634,433.6901441,433.6740660999999,429.18065509999997,,,,,,,,0,1,4.281718600000204,None,,,,,,,,890,21,M,R,2026-02-23_11h43.25.695,VisualSearch_2526_3,,2025.2.4,2026-02-23 11h43.25.892946 +0100,
tilted.xlsx,The target is tilted.,117,16,0,2,1,1,1,1,1,1,1,1,1,1,1,1,0,11,12,117,space,5.083673399999952,None,1,1,6.218032899999798,None,space,1.7551183000000492,None,0,1,1,0,,,,,2,0,16,0,433.6901441,,,,,,,,,,,,,,,,,,,,,433.67484590000004,433.6901441,434.17394369999965,434.17842249999967,434.19555949999994,440.42162310000003,,,,,440.4218191,440.4367202999997,440.63712639999994,440.62093609999965,434.19555949999994,,,,,,,,1,1,6.218032899999798,None,,,,,,,,890,21,M,R,2026-02-23_11h43.25.695,VisualSearch_2526_3,,2025.2.4,2026-02-23 11h43.25.892946 +0100,
tilted.xlsx,The target is tilted.,117,17,1,2,1,0,0,0,0,0,0,0,0,0,0,0,0,0,1,117,space,5.083673399999952,None,1,1,0.5106345999997757,None,space,1.7551183000000492,None,0,1,1,0,,,,,2,1,17,3,440.63712639999994,,,,,,,,,,,,,,,,,,,,,440.6216976999999,440.63712639999994,441.1206807999997,441.12521819999984,441.1401840999997,441.6539327999999,,,,,441.65410810000003,441.6695880999996,441.86982579999994,441.8537229999997,441.1401840999997,,,,,,,,1,1,0.5106345999997757,None,,,,,,,,890,21,M,R,2026-02-23_11h43.25.695,VisualSearch_2526_3,,2025.2.4,2026-02-23 11h43.25.892946 +0100,
tilted.xlsx,The target is tilted.,117,18,2,2,0,1,1,1,0,0,0,0,0,0,0,0,1,3,4,117,space,5.083673399999952,None,0,1,0.8470073999997112,None,space,1.7551183000000492,None,0,1,1,0,,,,,2,2,18,6,441.86982579999994,,,,,,,,,,,,,,,,,,,,,441.85450760000003,441.86982579999994,442.3535274999999,442.3580933999997,442.3718196,443.2202427999996,,,,,443.2204380999997,443.2359094999997,443.4357778999997,443.4192877999999,442.3718196,,,,,,,,0,1,0.8470073999997112,None,,,,,,,,890,21,M,R,2026-02-23_11h43.25.695,VisualSearch_2526_3,,2025.2.4,2026-02-23 11h43.25.892946 +0100,
tilted.xlsx,The target is tilted.,117,19,3,2,0,1,1,1,1,1,1,1,1,1,1,1,1,11,12,117,space,5.083673399999952,None,0,1,3.296563800000058,None,space,1.7551183000000492,None,0,1,1,0,,,,,2,3,19,4,443.4357778999997,,,,,,,,,,,,,,,,,,,,,443.42004129999987,443.4357778999997,443.9193516999999,443.92373789999965,443.9354057999999,447.2351354999996,,,,,447.23533180000004,447.25056889999996,447.45035759999973,447.43401859999994,443.9354057999999,,,,,,,,0,1,3.296563800000058,None,,,,,,,,890,21,M,R,2026-02-23_11h43.25.695,VisualSearch_2526_3,,2025.2.4,2026-02-23 11h43.25.892946 +0100,
tilted.xlsx,The target is tilted.,117,20,4,2,1,1,1,1,0,0,0,0,0,0,0,0,0,3,4,117,space,5.083673399999952,None,1,1,1.045368999999937,None,space,1.7551183000000492,None,0,1,1,0,,,,,2,4,20,2,447.45035759999973,,,,,,,,,,,,,,,,,,,,,447.4348428999997,447.45035759999973,447.93430979999994,447.9388552999999,447.95242659999985,449.0007158999997,,,,,449.00085179999996,449.01645459999963,449.2165302999997,449.20034199999964,447.95242659999985,,,,,,,,1,1,1.045368999999937,None,,,,,,,,890,21,M,R,2026-02-23_11h43.25.695,VisualSearch_2526_3,,2025.2.4,2026-02-23 11h43.25.892946 +0100,
tilted.xlsx,The target is tilted.,117,21,5,2,1,1,1,1,1,1,1,1,0,0,0,0,0,7,8,117,space,5.083673399999952,None,1,1,0.6369054000001597,None,space,1.7551183000000492,None,0,1,1,0,,,,,2,5,21,1,449.2165302999997,,,,,,,,,,,,,,,,,,,,,449.2010783999999,449.2165302999997,449.7000456999999,449.7046201999997,449.72051899999997,450.3671194999997,,,,,450.36731359999976,450.38226749999967,450.5825084999997,450.5665213999996,449.72051899999997,,,,,,,,1,1,0.6369054000001597,None,,,,,,,,890,21,M,R,2026-02-23_11h43.25.695,VisualSearch_2526_3,,2025.2.4,2026-02-23 11h43.25.892946 +0100,
tilted.xlsx,The target is tilted.,117,22,6,2,0,1,1,1,1,1,1,1,0,0,0,0,1,7,8,117,space,5.083673399999952,None,0,1,2.70657140000003,None,space,1.7551183000000492,None,0,1,1,0,,,,,2,6,22,5,450.5825084999997,,,,,,,,,,,,,,,,,,,,,450.56724319999967,450.5825084999997,451.0661917999996,451.07070479999993,451.0857415999999,453.7978057,,,,,453.7978988,453.81409110000004,454.014318,453.99772099999973,451.0857415999999,,,,,,,,0,1,2.70657140000003,None,,,,,,,,890,21,M,R,2026-02-23_11h43.25.695,VisualSearch_2526_3,,2025.2.4,2026-02-23 11h43.25.892946 +0100,
tilted.xlsx,The target is tilted.,117,23,7,2,0,0,0,0,0,0,0,0,0,0,0,0,1,1,1,117,space,5.083673399999952,None,0,1,0.5047119999999268,None,space,1.7551183000000492,None,0,1,1,0,,,,,2,7,23,7,454.014318,,,,,,,,,,,,,,,,,,,,,453.99853269999994,454.014318,454.49798499999997,454.5023489,454.5139985999999,455.03083879999986,,,,,455.03092449999986,455.0469197999996,455.2470349,455.2308770999998,454.5139985999999,,,,,,,,0,1,0.5047119999999268,None,,,,,,,,890,21,M,R,2026-02-23_11h43.25.695,VisualSearch_2526_3,,2025.2.4,2026-02-23 11h43.25.892946 +0100,
tilted.xlsx,The target is tilted.,117,24,0,3,0,1,1,1,1,1,1,1,1,1,1,1,1,11,12,117,space,5.083673399999952,None,0,1,3.484593600000153,None,space,1.7551183000000492,None,0,1,1,0,,,,,3,0,24,4,455.2470349,,,,,,,,,,,,,,,,,,,,,455.2316249999999,455.2470349,455.7307375999999,455.73536449999983,455.7489940999999,459.24613769999996,,,,,459.2462953999998,459.26190369999995,459.4616338999999,459.4456114999998,455.7489940999999,,,,,,,,0,1,3.484593600000153,None,,,,,,,,890,21,M,R,2026-02-23_11h43.25.695,VisualSearch_2526_3,,2025.2.4,2026-02-23 11h43.25.892946 +0100,
tilted.xlsx,The target is tilted.,117,25,1,3,0,1,1,1,1,1,1,1,0,0,0,0,1,7,8,117,space,5.083673399999952,None,0,1,2.907726100000218,None,space,1.7551183000000492,None,0,1,1,0,,,,,3,1,25,5,459.4616338999999,,,,,,,,,,,,,,,,,,,,,459.4463818999998,459.4616338999999,459.9455958999997,459.95005360000005,459.96608149999975,462.8772987999996,,,,,462.8774358999999,462.8935959999999,463.0935844999999,463.07742389999976,459.96608149999975,,,,,,,,0,1,2.907726100000218,None,,,,,,,,890,21,M,R,2026-02-23_11h43.25.695,VisualSearch_2526_3,,2025.2.4,2026-02-23 11h43.25.892946 +0100,
tilted.xlsx,The target is tilted.,117,26,2,3,1,1,1,1,0,0,0,0,0,0,0,0,0,3,4,117,space,5.083673399999952,None,0,0,0.9865371000000778,None,space,1.7551183000000492,None,0,1,1,0,,,,,3,2,26,2,463.0935844999999,,,,,,,,,,,,,,,,,,,,,463.0781543999997,463.0935844999999,463.5772096999999,463.5816842999998,463.5966771999997,464.59380809999993,,,,,464.5939835999998,464.6094291999998,464.8093654999998,464.79333529999985,463.5966771999997,,,,,,,,0,0,0.9865371000000778,None,,,,,,,,890,21,M,R,2026-02-23_11h43.25.695,VisualSearch_2526_3,,2025.2.4,2026-02-23 11h43.25.892946 +0100,
tilted.xlsx,The target is tilted.,117,27,3,3,0,0,0,0,0,0,0,0,0,0,0,0,1,1,1,117,space,5.083673399999952,None,0,1,0.5538301999999931,None,space,1.7551183000000492,None,0,1,1,0,,,,,3,3,27,7,464.8093654999998,,,,,,,,,,,,,,,,,,,,,464.7940792999998,464.8093654999998,465.2931601,465.29751769999984,465.30900599999995,465.87656949999973,,,,,465.87676250000004,465.8922193999997,466.0920759999999,466.07601039999963,465.30900599999995,,,,,,,,0,1,0.5538301999999931,None,,,,,,,,890,21,M,R,2026-02-23_11h43.25.695,VisualSearch_2526_3,,2025.2.4,2026-02-23 11h43.25.892946 +0100,
tilted.xlsx,The target is tilted.,117,28,4,3,1,1,1,1,1,1,1,1,1,1,1,1,0,11,12,117,space,5.083673399999952,None,0,0,2.9950905000000603,None,space,1.7551183000000492,None,0,1,1,0,,,,,3,4,28,0,466.0920759999999,,,,,,,,,,,,,,,,,,,,,466.0767979999996,466.0920759999999,466.57584819999965,466.5803573999997,466.59605509999983,469.60811639999974,,,,,469.608295,469.62381909999976,469.82374579999987,469.8073141,466.59605509999983,,,,,,,,0,0,2.9950905000000603,None,,,,,,,,890,21,M,R,2026-02-23_11h43.25.695,VisualSearch_2526_3,,2025.2.4,2026-02-23 11h43.25.892946 +0100,
tilted.xlsx,The target is tilted.,117,29,5,3,0,1,1,1,0,0,0,0,0,0,0,0,1,3,4,117,space,5.083673399999952,None,0,1,1.3249737000001005,None,space,1.7551183000000492,None,0,1,1,0,,,,,3,5,29,6,469.82374579999987,,,,,,,,,,,,,,,,,,,,,469.80802479999966,469.82374579999987,470.30760439999995,470.3125381,470.3271129999998,471.6572999,,,,,471.6574928,471.67257729999983,471.8728858999998,471.8566658999998,470.3271129999998,,,,,,,,0,1,1.3249737000001005,None,,,,,,,,890,21,M,R,2026-02-23_11h43.25.695,VisualSearch_2526_3,,2025.2.4,2026-02-23 11h43.25.892946 +0100,
tilted.xlsx,The target is tilted.,117,30,6,3,1,0,0,0,0,0,0,0,0,0,0,0,0,0,1,117,space,5.083673399999952,None,1,1,0.5512767000000167,None,space,1.7551183000000492,None,0,1,1,0,,,,,3,6,30,3,471.8728858999998,,,,,,,,,,,,,,,,,,,,,471.8574314999996,471.8728858999998,472.3565617999998,472.36095959999966,472.37642749999986,472.9401475999998,,,,,472.9403580999997,472.9553262999998,473.15566309999986,473.13938059999964,472.37642749999986,,,,,,,,1,1,0.5512767000000167,None,,,,,,,,890,21,M,R,2026-02-23_11h43.25.695,VisualSearch_2526_3,,2025.2.4,2026-02-23 11h43.25.892946 +0100,
tilted.xlsx,The target is tilted.,117,31,7,3,1,1,1,1,1,1,1,1,0,0,0,0,0,7,8,117,space,5.083673399999952,None,0,0,2.271643999999924,None,space,1.7551183000000492,None,0,1,1,0,,,,,3,7,31,1,473.15566309999986,,,,,,,,,,,,,,,,,,,,,473.14013179999984,473.15566309999986,473.6391857999997,473.64365329999964,473.65909269999975,475.93856019999976,,,,,475.9387578999999,475.9542042999997,476.1542325999999,476.1379023999998,473.65909269999975,,,,,,,,0,0,2.271643999999924,None,,,,,,,,890,21,M,R,2026-02-23_11h43.25.695,VisualSearch_2526_3,,2025.2.4,2026-02-23 11h43.25.892946 +0100,
tilted.xlsx,The target is tilted.,117,32,0,4,0,1,1,1,0,0,0,0,0,0,0,0,1,3,4,117,space,5.083673399999952,None,0,1,0.9545518999998421,None,space,1.7551183000000492,None,0,1,1,0,,,,,4,0,32,6,476.1542325999999,,,,,,,,,,,,,,,,,,,,,476.1386453,476.1542325999999,476.63803329999973,476.64243209999995,476.657381,477.6212406999998,,,,,477.6214341,477.6365704,477.83682120000003,477.82068779999963,476.657381,,,,,,,,0,1,0.9545518999998421,None,,,,,,,,890,21,M,R,2026-02-23_11h43.25.695,VisualSearch_2526_3,,2025.2.4,2026-02-23 11h43.25.892946 +0100,
tilted.xlsx,The target is tilted.,117,33,1,4,1,1,1,1,1,1,1,1,0,0,0,0,0,7,8,117,space,5.083673399999952,None,1,1,0.7194316999998591,None,space,1.7551183000000492,None,0,1,1,0,,,,,4,1,33,1,477.83682120000003,,,,,,,,,,,,,,,,,,,,,477.82144229999994,477.83682120000003,478.32040989999996,478.3250248999998,478.33941509999977,479.0702861999998,,,,,479.0710261999998,479.08557629999996,479.2861647999998,479.27002539999967,478.33941509999977,,,,,,,,1,1,0.7194316999998591,None,,,,,,,,890,21,M,R,2026-02-23_11h43.25.695,VisualSearch_2526_3,,2025.2.4,2026-02-23 11h43.25.892946 +0100,
tilted.xlsx,The target is tilted.,117,34,2,4,1,1,1,1,1,1,1,1,1,1,1,1,0,11,12,117,space,5.083673399999952,None,0,0,2.145584300000337,None,space,1.7551183000000492,None,0,1,1,0,,,,,4,2,34,0,479.2861647999998,,,,,,,,,,,,,,,,,,,,,479.2707900999999,479.2861647999998,479.7697785999999,479.7742536999999,479.78839059999973,481.93604860000005,,,,,481.93624520000003,481.95125919999964,482.1516314999999,482.1355147999998,479.78839059999973,,,,,,,,0,0,2.145584300000337,None,,,,,,,,890,21,M,R,2026-02-23_11h43.25.695,VisualSearch_2526_3,,2025.2.4,2026-02-23 11h43.25.892946 +0100,
