file_name,block_instructions,target_example,thisN,thisTrialN,thisRepN,target_presence,opacity_1,opacity_2,opacity_3,opacity_4,opacity_5,opacity_6,opacity_7,opacity_8,opacity_9,opacity_10,opacity_11,opacity_12,n_distract,n_items,target_ori,key_resp_4.keys,key_resp_4.rt,key_resp_4.duration,key_resp.keys,key_resp.corr,key_resp.rt,key_resp.duration,key_resp_5.keys,key_resp_5.rt,key_resp_5.duration,blocks.thisRepN,blocks.thisTrialN,blocks.thisN,blocks.thisIndex,practice_trials.thisRepN,practice_trials.thisTrialN,practice_trials.thisN,practice_trials.thisIndex,trials.thisRepN,trials.thisTrialN,trials.thisN,trials.thisIndex,thisRow.t,notes,Welcome.started,WelcomeText.started,key_resp_2.started,Welcome.stopped,key_resp_2.keys,key_resp_2.rt,key_resp_2.duration,InformedConsent.started,text_4.started,InformedConsent.stopped,key_resp_6.keys,key_resp_6.rt,key_resp_6.duration,key_resp_4.started,example_target.started,text_3.started,blocks.key_resp_4.keys,blocks.key_resp_4.rt,blocks.key_resp_4.duration,FixCross.started,fixCross.started,FixCross.stopped,Stimulus.started,key_resp.started,Stimulus.stopped,practice_trials.key_resp.keys,practice_trials.key_resp.corr,practice_trials.key_resp.rt,practice_trials.key_resp.duration,BlankScreen.started,text.started,text.stopped,BlankScreen.stopped,fixCross.stopped,ExperimentStart.started,text_2.started,key_resp_5.started,ExperimentStart.stopped,blocks.key_resp_5.keys,blocks.key_resp_5.rt,blocks.key_resp_5.duration,trials.key_resp.keys,trials.key_resp.corr,trials.key_resp.rt,trials.key_resp.duration,Thanks.started,ThankYou.started,key_resp_3.started,Thanks.stopped,key_resp_3.keys,key_resp_3.rt,key_resp_3.duration,participant,leeftijd,gender,links/rechtshandig,date,expName,expVersion,psychopyVersion,expStart,
,,,,,,,,,,,,,,,,,,,,,,,,,,,,,,,,,,,,,,,,,,,,,,0.03625759999977163,0.06281839999974181,0.06281839999974181,47.47800309999957,space,47.400491500000044,None,,,,,,,,,,,,,,,,,,,,,,,,,,,,,,,,,,,,,,,,,,,,,,891,20,M,R,2026-02-23_12h00.55.372,VisualSearch_2526_3,,2025.2.4,2026-02-23 12h00.55.585211 +0100,
,,,,,,,,,,,,,,,,,,,,,,,,,,,,,,,,,,,,,,,,,,,,,,,,,,,,,47.47814189999963,47.49371949999977,65.2697420999998,y,17.77808219999997,None,,,,,,,,,,,,,,,,,,,,,,,,,,,,,,,,,,,,,,,,891,20,M,R,2026-02-23_12h00.55.372,VisualSearch_2526_3,,2025.2.4,2026-02-23 12h00.55.585211 +0100,
tilted.xlsx,The target is tilted.,117,0,0,0,1,1,1,1,0,0,0,0,0,0,0,0,0,3,4,117,space,6.335571499999787,None,1,1,1.8340187000003425,None,,,,0,0,0,0,0,0,0,2,,,,,71.68002719999959,,,,,,,,,,,,,,,65.31170209999982,65.31170209999982,65.31170209999982,space,6.335571499999787,None,71.67420809999976,71.68002719999959,72.16554619999988,72.1704394999997,72.1817418999999,74.0318398999998,1,1,1.8340187000003425,None,74.0319983999998,74.04721329999984,74.24762239999973,74.23144449999972,,,,,,,,,,,,,,,,,,,,891,20,M,R,2026-02-23_12h00.55.372,VisualSearch_2526_3,,2025.2.4,2026-02-23 12h00.55.585211 +0100,
tilted.xlsx,The target is tilted.,117,1,1,0,0,0,0,0,0,0,0,0,0,0,0,0,1,1,1,117,space,6.335571499999787,None,0,1,1.175543700000162,None,,,,0,0,0,0,0,1,1,7,,,,,74.24762239999973,,,,,,,,,,,,,,,,,,,,,74.23211559999982,74.24762239999973,74.73120129999961,74.73583689999987,74.75385149999966,75.93117639999991,0,1,1.175543700000162,None,75.9313674,75.94634449999967,76.14660589999994,76.13063759999977,74.75385149999966,,,,,,,,,,,,,,,,,,,891,20,M,R,2026-02-23_12h00.55.372,VisualSearch_2526_3,,2025.2.4,2026-02-23 12h00.55.585211 +0100,
tilted.xlsx,The target is tilted.,117,2,2,0,0,1,1,1,0,0,0,0,0,0,0,0,1,3,4,117,space,6.335571499999787,None,0,1,1.44951570000012,None,,,,0,0,0,0,0,2,2,6,,,,,76.14660589999994,,,,,,,,,,,,,,,,,,,,,76.13129849999996,76.14660589999994,76.63028519999989,76.63493579999977,76.6513490999996,78.11318739999979,0,1,1.44951570000012,None,78.11331699999982,78.12856759999977,78.32899809999981,78.31288319999976,76.6513490999996,,,,,,,,,,,,,,,,,,,891,20,M,R,2026-02-23_12h00.55.372,VisualSearch_2526_3,,2025.2.4,2026-02-23 12h00.55.585211 +0100,
tilted.xlsx,The target is tilted.,117,3,3,0,0,1,1,1,1,1,1,1,1,1,1,1,1,11,12,117,space,6.335571499999787,None,0,1,6.071464200000264,None,,,,0,0,0,0,0,3,3,4,,,,,78.32899809999981,,,,,,,,,,,,,,,,,,,,,78.31357969999999,78.32899809999981,78.81267539999999,78.8172826,78.83243949999996,84.91043029999992,0,1,6.071464200000264,None,84.91062459999966,84.92548279999983,85.12602359999983,85.10996159999968,78.83243949999996,,,,,,,,,,,,,,,,,,,891,20,M,R,2026-02-23_12h00.55.372,VisualSearch_2526_3,,2025.2.4,2026-02-23 12h00.55.585211 +0100,
tilted.xlsx,The target is tilted.,117,4,4,0,1,1,1,1,1,1,1,1,0,0,0,0,0,7,8,117,space,6.335571499999787,None,1,1,2.720029600000089,None,,,,0,0,0,0,0,4,4,1,,,,,85.12602359999983,,,,,,,,,,,,,,,,,,,,,85.11075029999984,85.12602359999983,85.60928349999995,85.61398569999983,85.62562249999974,88.35756149999997,1,1,2.720029600000089,None,88.35765489999994,88.37428899999986,,88.55811519999997,85.62562249999974,,,,,,,,,,,,,,,,,,,891,20,M,R,2026-02-23_12h00.55.372,VisualSearch_2526_3,,2025.2.4,2026-02-23 12h00.55.585211 +0100,
tilted.xlsx,The target is tilted.,117,5,5,0,1,0,0,0,0,0,0,0,0,0,0,0,0,0,1,117,space,6.335571499999787,None,1,1,1.2570087999997668,None,,,,0,0,0,0,0,5,5,3,,,,,88.57451789999959,,,,,,,,,,,,,,,,,,,,,88.55891639999982,88.57451789999959,89.05786359999956,89.06249649999972,89.0790708999998,90.34124989999964,1,1,1.2570087999997668,None,90.3414458999996,90.35633819999975,90.55690249999998,90.5406739,,,,,,,,,,,,,,,,,,,,891,20,M,R,2026-02-23_12h00.55.372,VisualSearch_2526_3,,2025.2.4,2026-02-23 12h00.55.585211 +0100,
tilted.xlsx,The target is tilted.,117,6,6,0,0,1,1,1,1,1,1,1,0,0,0,0,1,7,8,117,space,6.335571499999787,None,0,1,1.7335052000003088,None,,,,0,0,0,0,0,6,6,5,,,,,90.55690249999998,,,,,,,,,,,,,,,,,,,,,90.54135419999966,90.55690249999998,91.04042289999961,91.0451208999998,91.06144829999994,92.80691349999961,0,1,1.7335052000003088,None,92.8071047999997,92.8218594,93.02231849999998,93.00622149999981,91.06144829999994,,,,,,,,,,,,,,,,,,,891,20,M,R,2026-02-23_12h00.55.372,VisualSearch_2526_3,,2025.2.4,2026-02-23 12h00.55.585211 +0100,
tilted.xlsx,The target is tilted.,117,7,7,0,1,1,1,1,1,1,1,1,1,1,1,1,0,11,12,117,space,6.335571499999787,None,1,1,1.563388699999905,None,,,,0,0,0,0,0,7,7,0,,,,,93.02231849999998,,,,,,,,,,,,,,,,,,,,,93.00689869999997,93.02231849999998,93.50618619999977,93.51095769999984,93.52835389999973,95.10476469999958,1,1,1.563388699999905,None,95.10489469999993,95.12082529999998,,95.3049933999996,93.52835389999973,,,,,,,,,,,,,,,,,,,891,20,M,R,2026-02-23_12h00.55.372,VisualSearch_2526_3,,2025.2.4,2026-02-23 12h00.55.585211 +0100,
tilted.xlsx,The target is tilted.,117,0,0,0,0,1,1,1,1,1,1,1,1,1,1,1,1,11,12,117,space,6.335571499999787,None,1,0,6.4535180999996555,None,space,5.696358000000146,None,0,0,0,0,,,,,0,0,0,4,101.05178989999968,,,,,,,,,,,,,,,,,,,,,101.04758959999981,101.05178989999968,101.53549309999971,101.54017989999966,101.55787659999987,108.01654739999958,,,,,108.0167578999999,108.03173469999956,108.23209529999986,108.21598829999994,,95.31278089999978,95.32130529999995,95.32130529999995,101.01961249999977,space,5.696358000000146,None,1,0,6.4535180999996555,None,,,,,,,,891,20,M,R,2026-02-23_12h00.55.372,VisualSearch_2526_3,,2025.2.4,2026-02-23 12h00.55.585211 +0100,
tilted.xlsx,The target is tilted.,117,1,1,0,0,1,1,1,0,0,0,0,0,0,0,0,1,3,4,117,space,6.335571499999787,None,0,1,1.3757860999999139,None,space,5.696358000000146,None,0,0,0,0,,,,,0,1,1,6,108.23209529999986,,,,,,,,,,,,,,,,,,,,,108.21671419999984,108.23209529999986,108.71549789999972,108.72035379999988,108.73681849999957,110.11575369999991,,,,,110.11594539999987,110.13067109999974,110.33114739999974,110.31493349999982,108.73681849999957,,,,,,,,0,1,1.3757860999999139,None,,,,,,,,891,20,M,R,2026-02-23_12h00.55.372,VisualSearch_2526_3,,2025.2.4,2026-02-23 12h00.55.585211 +0100,
tilted.xlsx,The target is tilted.,117,2,2,0,1,0,0,0,0,0,0,0,0,0,0,0,0,0,1,117,space,6.335571499999787,None,1,1,2.082141800000045,None,space,5.696358000000146,None,0,0,0,0,,,,,0,2,2,3,110.33114739999974,,,,,,,,,,,,,,,,,,,,,110.31566389999989,110.33114739999974,110.81464629999982,110.81941149999966,110.83643759999995,112.93042499999956,,,,,112.93062969999983,112.94603899999993,113.14661729999989,113.1302883999997,110.83643759999995,,,,,,,,1,1,2.082141800000045,None,,,,,,,,891,20,M,R,2026-02-23_12h00.55.372,VisualSearch_2526_3,,2025.2.4,2026-02-23 12h00.55.585211 +0100,
tilted.xlsx,The target is tilted.,117,3,3,0,1,1,1,1,0,0,0,0,0,0,0,0,0,3,4,117,space,6.335571499999787,None,1,1,1.0235324000000219,None,space,5.696358000000146,None,0,0,0,0,,,,,0,3,3,2,113.14661729999989,,,,,,,,,,,,,,,,,,,,,113.13103669999964,113.14661729999989,113.63010379999969,113.63471359999994,113.65324329999976,114.68006259999993,,,,,114.68029739999974,114.69528659999969,114.89592139999968,114.87932869999986,113.65324329999976,,,,,,,,1,1,1.0235324000000219,None,,,,,,,,891,20,M,R,2026-02-23_12h00.55.372,VisualSearch_2526_3,,2025.2.4,2026-02-23 12h00.55.585211 +0100,
tilted.xlsx,The target is tilted.,117,4,4,0,1,1,1,1,1,1,1,1,0,0,0,0,0,7,8,117,space,6.335571499999787,None,1,1,2.3090361999998095,None,space,5.696358000000146,None,0,0,0,0,,,,,0,4,4,1,114.89592139999968,,,,,,,,,,,,,,,,,,,,,114.88008599999966,114.89592139999968,115.37928879999981,115.3839840999999,115.39534719999983,117.7122803999996,,,,,117.71249079999961,117.72717479999983,117.92779419999988,117.91157489999978,115.39534719999983,,,,,,,,1,1,2.3090361999998095,None,,,,,,,,891,20,M,R,2026-02-23_12h00.55.372,VisualSearch_2526_3,,2025.2.4,2026-02-23 12h00.55.585211 +0100,
tilted.xlsx,The target is tilted.,117,5,5,0,0,1,1,1,1,1,1,1,0,0,0,0,1,7,8,117,space,6.335571499999787,None,0,1,2.8636639999999716,None,space,5.696358000000146,None,0,0,0,0,,,,,0,5,5,5,117.92779419999988,,,,,,,,,,,,,,,,,,,,,117.91233049999983,117.92779419999988,118.41106579999996,118.41572709999991,118.43150679999962,121.3097386999998,,,,,121.30992109999988,121.32551589999957,121.52608039999996,121.50992599999972,118.43150679999962,,,,,,,,0,1,2.8636639999999716,None,,,,,,,,891,20,M,R,2026-02-23_12h00.55.372,VisualSearch_2526_3,,2025.2.4,2026-02-23 12h00.55.585211 +0100,
tilted.xlsx,The target is tilted.,117,6,6,0,1,1,1,1,1,1,1,1,1,1,1,1,0,11,12,117,space,6.335571499999787,None,1,1,3.149284600000101,None,space,5.696358000000146,None,0,0,0,0,,,,,0,6,6,0,121.52608039999996,,,,,,,,,,,,,,,,,,,,,121.51067449999982,121.52608039999996,122.00941059999968,122.01408449999963,122.03009339999971,125.19200159999991,,,,,125.19218319999982,125.20712969999977,125.4077355999998,125.39162639999995,122.03009339999971,,,,,,,,1,1,3.149284600000101,None,,,,,,,,891,20,M,R,2026-02-23_12h00.55.372,VisualSearch_2526_3,,2025.2.4,2026-02-23 12h00.55.585211 +0100,
tilted.xlsx,The target is tilted.,117,7,7,0,0,0,0,0,0,0,0,0,0,0,0,0,1,1,1,117,space,6.335571499999787,None,0,1,0.8915372000001298,None,space,5.696358000000146,None,0,0,0,0,,,,,0,7,7,7,125.4077355999998,,,,,,,,,,,,,,,,,,,,,125.39233099999956,125.4077355999998,125.89151879999963,125.89747119999993,125.91349939999964,126.80828999999994,,,,,126.80849419999959,126.82316679999985,127.02360039999985,127.00747919999958,125.91349939999964,,,,,,,,0,1,0.8915372000001298,None,,,,,,,,891,20,M,R,2026-02-23_12h00.55.372,VisualSearch_2526_3,,2025.2.4,2026-02-23 12h00.55.585211 +0100,
tilted.xlsx,The target is tilted.,117,8,0,1,1,1,1,1,0,0,0,0,0,0,0,0,0,3,4,117,space,6.335571499999787,None,1,1,1.2818837999998323,None,space,5.696358000000146,None,0,0,0,0,,,,,1,0,8,2,127.02360039999985,,,,,,,,,,,,,,,,,,,,,127.00818199999958,127.02360039999985,127.50730929999963,127.51189889999978,127.53011929999957,128.8236350999996,,,,,128.82383519999985,128.8388313999999,129.0390014999998,129.02330139999958,127.53011929999957,,,,,,,,1,1,1.2818837999998323,None,,,,,,,,891,20,M,R,2026-02-23_12h00.55.372,VisualSearch_2526_3,,2025.2.4,2026-02-23 12h00.55.585211 +0100,
tilted.xlsx,The target is tilted.,117,9,1,1,0,1,1,1,0,0,0,0,0,0,0,0,1,3,4,117,space,6.335571499999787,None,0,1,1.661978299999646,None,space,5.696358000000146,None,0,0,0,0,,,,,1,1,9,6,129.0390014999998,,,,,,,,,,,,,,,,,,,,,129.02400469999975,129.0390014999998,129.52176829999962,129.5234215999999,129.53836909999973,131.20610069999975,,,,,131.20629989999998,131.22106699999995,131.42160009999998,131.40551519999963,129.53836909999973,,,,,,,,0,1,1.661978299999646,None,,,,,,,,891,20,M,R,2026-02-23_12h00.55.372,VisualSearch_2526_3,,2025.2.4,2026-02-23 12h00.55.585211 +0100,
tilted.xlsx,The target is tilted.,117,10,2,1,0,0,0,0,0,0,0,0,0,0,0,0,1,1,1,117,space,6.335571499999787,None,0,1,1.0234737000000678,None,space,5.696358000000146,None,0,0,0,0,,,,,1,2,10,7,131.42160009999998,,,,,,,,,,,,,,,,,,,,,131.40622159999975,131.42160009999998,131.90546339999992,131.91073559999995,131.92814549999957,132.9550766999996,,,,,132.95528269999977,132.9704042999997,133.17078669999955,133.15467919999992,131.92814549999957,,,,,,,,0,1,1.0234737000000678,None,,,,,,,,891,20,M,R,2026-02-23_12h00.55.372,VisualSearch_2526_3,,2025.2.4,2026-02-23 12h00.55.585211 +0100,
tilted.xlsx,The target is tilted.,117,11,3,1,1,0,0,0,0,0,0,0,0,0,0,0,0,0,1,117,space,6.335571499999787,None,1,1,1.0930181000003358,None,space,5.696358000000146,None,0,0,0,0,,,,,1,3,11,3,133.17078669999955,,,,,,,,,,,,,,,,,,,,,133.15538259999994,133.17078669999955,133.6544541999997,133.6595285999997,133.67037599999958,134.77088269999967,,,,,134.77108089999956,134.7861097,134.98669329999984,134.97041509999963,133.67037599999958,,,,,,,,1,1,1.0930181000003358,None,,,,,,,,891,20,M,R,2026-02-23_12h00.55.372,VisualSearch_2526_3,,2025.2.4,2026-02-23 12h00.55.585211 +0100,
tilted.xlsx,The target is tilted.,117,12,4,1,0,1,1,1,1,1,1,1,1,1,1,1,1,11,12,117,space,6.335571499999787,None,0,1,4.262144300000273,None,space,5.696358000000146,None,0,0,0,0,,,,,1,4,12,4,134.98669329999984,,,,,,,,,,,,,,,,,,,,,134.97117409999964,134.98669329999984,135.47031779999998,135.47558139999956,135.49180839999963,139.76803280000013,,,,,139.76821259999952,139.7839411,139.98399569999992,139.96819449999975,135.49180839999963,,,,,,,,0,1,4.262144300000273,None,,,,,,,,891,20,M,R,2026-02-23_12h00.55.372,VisualSearch_2526_3,,2025.2.4,2026-02-23 12h00.55.585211 +0100,
tilted.xlsx,The target is tilted.,117,13,5,1,0,1,1,1,1,1,1,1,0,0,0,0,1,7,8,117,space,6.335571499999787,None,0,1,2.566473599999881,None,space,5.696358000000146,None,0,0,0,0,,,,,1,5,13,5,139.98399569999992,,,,,,,,,,,,,,,,,,,,,139.96894049999946,139.98399569999992,140.46771099999978,140.47233279999955,140.4895848000001,143.06689529999994,,,,,143.06710819999944,143.0824652999995,143.28290329999936,143.26686289999952,140.4895848000001,,,,,,,,0,1,2.566473599999881,None,,,,,,,,891,20,M,R,2026-02-23_12h00.55.372,VisualSearch_2526_3,,2025.2.4,2026-02-23 12h00.55.585211 +0100,
tilted.xlsx,The target is tilted.,117,14,6,1,1,1,1,1,1,1,1,1,0,0,0,0,0,7,8,117,space,6.335571499999787,None,1,1,4.397298099999716,None,space,5.696358000000146,None,0,0,0,0,,,,,1,6,14,1,143.28290329999936,,,,,,,,,,,,,,,,,,,,,143.2675736999995,143.28290329999936,143.76629970000022,143.77090149999958,143.78803329999982,148.19773159999977,,,,,148.19786879999947,148.2131843000002,148.41382459999977,148.39771989999963,143.78803329999982,,,,,,,,1,1,4.397298099999716,None,,,,,,,,891,20,M,R,2026-02-23_12h00.55.372,VisualSearch_2526_3,,2025.2.4,2026-02-23 12h00.55.585211 +0100,
tilted.xlsx,The target is tilted.,117,15,7,1,1,1,1,1,1,1,1,1,1,1,1,1,0,11,12,117,space,6.335571499999787,None,1,1,1.4987439000005907,None,space,5.696358000000146,None,0,0,0,0,,,,,1,7,15,0,148.41382459999977,,,,,,,,,,,,,,,,,,,,,148.39844589999984,148.41382459999977,148.89736119999952,148.9020360999998,148.9192707999996,150.4299987999998,,,,,150.43021480000016,150.44559299999992,150.6461448999994,150.62942590000011,148.9192707999996,,,,,,,,1,1,1.4987439000005907,None,,,,,,,,891,20,M,R,2026-02-23_12h00.55.372,VisualSearch_2526_3,,2025.2.4,2026-02-23 12h00.55.585211 +0100,
tilted.xlsx,The target is tilted.,117,16,0,2,1,1,1,1,1,1,1,1,1,1,1,1,0,11,12,117,space,6.335571499999787,None,1,1,1.218434399999751,None,space,5.696358000000146,None,0,0,0,0,,,,,2,0,16,0,150.6461448999994,,,,,,,,,,,,,,,,,,,,,150.6298437999999,150.6461448999994,151.12949999999955,151.1341513000002,151.15160530000003,152.37982179999972,,,,,152.38002800000004,152.39478349999945,152.59537189999946,152.5793692000002,151.15160530000003,,,,,,,,1,1,1.218434399999751,None,,,,,,,,891,20,M,R,2026-02-23_12h00.55.372,VisualSearch_2526_3,,2025.2.4,2026-02-23 12h00.55.585211 +0100,
tilted.xlsx,The target is tilted.,117,17,1,2,0,1,1,1,1,1,1,1,1,1,1,1,1,11,12,117,space,6.335571499999787,None,0,1,4.919239599999855,None,space,5.696358000000146,None,0,0,0,0,,,,,2,1,17,4,152.59537189999946,,,,,,,,,,,,,,,,,,,,,152.5801623000002,152.59537189999946,153.07901339999944,153.08366019999949,153.1003464999999,158.02701979999938,,,,,158.02719829999978,158.04220329999998,158.24285459999965,158.22673869999971,153.1003464999999,,,,,,,,0,1,4.919239599999855,None,,,,,,,,891,20,M,R,2026-02-23_12h00.55.372,VisualSearch_2526_3,,2025.2.4,2026-02-23 12h00.55.585211 +0100,
tilted.xlsx,The target is tilted.,117,18,2,2,0,1,1,1,0,0,0,0,0,0,0,0,1,3,4,117,space,6.335571499999787,None,0,1,1.497445300000436,None,space,5.696358000000146,None,0,0,0,0,,,,,2,2,18,6,158.24285459999965,,,,,,,,,,,,,,,,,,,,,158.22754140000006,158.24285459999965,158.72648600000002,158.7310797999994,158.74834599999986,160.25856909999993,,,,,160.2587079,160.2745871000002,160.47510939999984,160.45905449999964,158.74834599999986,,,,,,,,0,1,1.497445300000436,None,,,,,,,,891,20,M,R,2026-02-23_12h00.55.372,VisualSearch_2526_3,,2025.2.4,2026-02-23 12h00.55.585211 +0100,
tilted.xlsx,The target is tilted.,117,19,3,2,1,1,1,1,0,0,0,0,0,0,0,0,0,3,4,117,space,6.335571499999787,None,1,1,1.036536999999953,None,space,5.696358000000146,None,0,0,0,0,,,,,2,3,19,2,160.47510939999984,,,,,,,,,,,,,,,,,,,,,160.45976519999977,160.47510939999984,160.95878690000018,160.96352220000017,160.98007409999946,162.0249675,,,,,162.02510949999987,162.04032959999995,162.24090800000022,162.2246368000001,160.98007409999946,,,,,,,,1,1,1.036536999999953,None,,,,,,,,891,20,M,R,2026-02-23_12h00.55.372,VisualSearch_2526_3,,2025.2.4,2026-02-23 12h00.55.585211 +0100,
tilted.xlsx,The target is tilted.,117,20,4,2,1,0,0,0,0,0,0,0,0,0,0,0,0,0,1,117,space,6.335571499999787,None,1,1,0.6926175999997213,None,space,5.696358000000146,None,0,0,0,0,,,,,2,4,20,3,162.24090800000022,,,,,,,,,,,,,,,,,,,,,162.2253569999998,162.24090800000022,162.72427000000016,162.7288222000002,162.7401335999998,163.44143239999948,,,,,163.44163489999983,163.45638709999957,163.6568330999994,163.64077179999958,162.7401335999998,,,,,,,,1,1,0.6926175999997213,None,,,,,,,,891,20,M,R,2026-02-23_12h00.55.372,VisualSearch_2526_3,,2025.2.4,2026-02-23 12h00.55.585211 +0100,
tilted.xlsx,The target is tilted.,117,21,5,2,0,1,1,1,1,1,1,1,0,0,0,0,1,7,8,117,space,6.335571499999787,None,0,1,2.4591944999992847,None,space,5.696358000000146,None,0,0,0,0,,,,,2,5,21,5,163.6568330999994,,,,,,,,,,,,,,,,,,,,,163.64152270000022,163.6568330999994,164.14064449999978,164.1459147999999,164.16409470000008,166.6390219,,,,,166.63908839999976,166.65529990000005,166.85556029999998,166.83924689999958,164.16409470000008,,,,,,,,0,1,2.4591944999992847,None,,,,,,,,891,20,M,R,2026-02-23_12h00.55.372,VisualSearch_2526_3,,2025.2.4,2026-02-23 12h00.55.585211 +0100,
tilted.xlsx,The target is tilted.,117,22,6,2,1,1,1,1,1,1,1,1,0,0,0,0,0,7,8,117,space,6.335571499999787,None,0,0,1.6666479000004983,None,space,5.696358000000146,None,0,0,0,0,,,,,2,6,22,1,166.85556029999998,,,,,,,,,,,,,,,,,,,,,166.8399758999999,166.85556029999998,167.33898889999955,167.34363489999987,167.3619593999997,169.0385153000002,,,,,169.0386642999997,169.0537922999997,169.2544071999996,169.2382604999998,167.3619593999997,,,,,,,,0,0,1.6666479000004983,None,,,,,,,,891,20,M,R,2026-02-23_12h00.55.372,VisualSearch_2526_3,,2025.2.4,2026-02-23 12h00.55.585211 +0100,
tilted.xlsx,The target is tilted.,117,23,7,2,0,0,0,0,0,0,0,0,0,0,0,0,1,1,1,117,space,6.335571499999787,None,0,1,0.7327356000005238,None,space,5.696358000000146,None,0,0,0,0,,,,,2,7,23,7,169.2544071999996,,,,,,,,,,,,,,,,,,,,,169.2389707999996,169.2544071999996,169.7381547,169.74274550000018,169.7592663999999,170.50431160000016,,,,,170.5045414000001,170.51978569999983,170.72032949999948,170.70428069999934,169.7592663999999,,,,,,,,0,1,0.7327356000005238,None,,,,,,,,891,20,M,R,2026-02-23_12h00.55.372,VisualSearch_2526_3,,2025.2.4,2026-02-23 12h00.55.585211 +0100,
tilted.xlsx,The target is tilted.,117,24,0,3,0,1,1,1,0,0,0,0,0,0,0,0,1,3,4,117,space,6.335571499999787,None,0,1,0.8022687000002406,None,space,5.696358000000146,None,0,0,0,0,,,,,3,0,24,6,170.72032949999948,,,,,,,,,,,,,,,,,,,,,170.70499939999945,170.72032949999948,171.20416389999946,171.20891170000004,171.22567789999948,172.03738750000002,,,,,172.03756779999958,172.05251389999967,172.2529324000002,172.23689129999957,171.22567789999948,,,,,,,,0,1,0.8022687000002406,None,,,,,,,,891,20,M,R,2026-02-23_12h00.55.372,VisualSearch_2526_3,,2025.2.4,2026-02-23 12h00.55.585211 +0100,
tilted.xlsx,The target is tilted.,117,25,1,3,1,1,1,1,1,1,1,1,1,1,1,1,0,11,12,117,space,6.335571499999787,None,0,0,2.4296520999996574,None,space,5.696358000000146,None,0,0,0,0,,,,,3,1,25,0,172.2529324000002,,,,,,,,,,,,,,,,,,,,,172.23762690000012,172.2529324000002,172.7367479999998,172.74132700000018,172.75817880000022,175.20179119999966,,,,,175.20193009999957,175.21758869999985,175.4182740000001,175.4020472999996,172.75817880000022,,,,,,,,0,0,2.4296520999996574,None,,,,,,,,891,20,M,R,2026-02-23_12h00.55.372,VisualSearch_2526_3,,2025.2.4,2026-02-23 12h00.55.585211 +0100,
tilted.xlsx,The target is tilted.,117,26,2,3,1,1,1,1,0,0,0,0,0,0,0,0,0,3,4,117,space,6.335571499999787,None,1,1,0.9580537000001641,None,space,5.696358000000146,None,0,0,0,0,,,,,3,2,26,2,175.4182740000001,,,,,,,,,,,,,,,,,,,,,175.40281879999975,175.4182740000001,175.90164379999942,175.90622289999965,175.92232079999985,176.88520049999943,,,,,176.8862807999999,176.90030160000015,177.10081929999933,177.0848248999996,175.92232079999985,,,,,,,,1,1,0.9580537000001641,None,,,,,,,,891,20,M,R,2026-02-23_12h00.55.372,VisualSearch_2526_3,,2025.2.4,2026-02-23 12h00.55.585211 +0100,
tilted.xlsx,The target is tilted.,117,27,3,3,1,0,0,0,0,0,0,0,0,0,0,0,0,0,1,117,space,6.335571499999787,None,1,1,0.7408528999994815,None,space,5.696358000000146,None,0,0,0,0,,,,,3,3,27,3,177.10081929999933,,,,,,,,,,,,,,,,,,,,,177.08565059999955,177.10081929999933,177.58453849999978,177.5891848999995,177.60569429999987,178.3510296999998,,,,,178.35125209999978,178.36630749999995,178.56656619999967,178.55067009999993,177.60569429999987,,,,,,,,1,1,0.7408528999994815,None,,,,,,,,891,20,M,R,2026-02-23_12h00.55.372,VisualSearch_2526_3,,2025.2.4,2026-02-23 12h00.55.585211 +0100,
tilted.xlsx,The target is tilted.,117,28,4,3,0,1,1,1,1,1,1,1,0,0,0,0,1,7,8,117,space,6.335571499999787,None,0,1,1.676777900000161,None,space,5.696358000000146,None,0,0,0,0,,,,,3,4,28,5,178.56656619999967,,,,,,,,,,,,,,,,,,,,,178.5514059000002,178.56656619999967,179.0503721,179.05519239999967,179.07129320000013,180.74988809999968,,,,,180.75009199999977,180.76522999999952,180.96579960000008,180.9492869999999,179.07129320000013,,,,,,,,0,1,1.676777900000161,None,,,,,,,,891,20,M,R,2026-02-23_12h00.55.372,VisualSearch_2526_3,,2025.2.4,2026-02-23 12h00.55.585211 +0100,
tilted.xlsx,The target is tilted.,117,29,5,3,1,1,1,1,1,1,1,1,0,0,0,0,0,7,8,117,space,6.335571499999787,None,0,0,1.3908657000001767,None,space,5.696358000000146,None,0,0,0,0,,,,,3,5,29,1,180.96579960000008,,,,,,,,,,,,,,,,,,,,,180.9500213999995,180.96579960000008,181.44935599999963,181.45397399999956,181.47048700000005,182.86560099999997,,,,,182.86580469999944,182.88089649999938,183.08141789999945,183.06528299999945,181.47048700000005,,,,,,,,0,0,1.3908657000001767,None,,,,,,,,891,20,M,R,2026-02-23_12h00.55.372,VisualSearch_2526_3,,2025.2.4,2026-02-23 12h00.55.585211 +0100,
tilted.xlsx,The target is tilted.,117,30,6,3,0,1,1,1,1,1,1,1,1,1,1,1,1,11,12,117,space,6.335571499999787,None,0,1,3.745975499999986,None,space,5.696358000000146,None,0,0,0,0,,,,,3,6,30,4,183.08141789999945,,,,,,,,,,,,,,,,,,,,,183.0660146999994,183.08141789999945,183.56515869999976,183.56988239999964,183.58740259999968,187.3464457999994,,,,,187.34662499999968,187.36218390000022,187.5623528000001,187.54667299999937,183.58740259999968,,,,,,,,0,1,3.745975499999986,None,,,,,,,,891,20,M,R,2026-02-23_12h00.55.372,VisualSearch_2526_3,,2025.2.4,2026-02-23 12h00.55.585211 +0100,
tilted.xlsx,The target is tilted.,117,31,7,3,0,0,0,0,0,0,0,0,0,0,0,0,1,1,1,117,space,6.335571499999787,None,0,1,0.6255498000000443,None,space,5.696358000000146,None,0,0,0,0,,,,,3,7,31,7,187.5623528000001,,,,,,,,,,,,,,,,,,,,,187.54738289999977,187.5623528000001,188.0459618,188.05056699999977,188.06781480000018,188.6967393,,,,,188.69697229999974,188.7115831999995,188.9121313999999,188.89599749999934,188.06781480000018,,,,,,,,0,1,0.6255498000000443,None,,,,,,,,891,20,M,R,2026-02-23_12h00.55.372,VisualSearch_2526_3,,2025.2.4,2026-02-23 12h00.55.585211 +0100,
tilted.xlsx,The target is tilted.,117,32,0,4,1,1,1,1,1,1,1,1,0,0,0,0,0,7,8,117,space,6.335571499999787,None,1,1,1.0627292999997735,None,space,5.696358000000146,None,0,0,0,0,,,,,4,0,32,1,188.9121313999999,,,,,,,,,,,,,,,,,,,,,188.89670739999974,188.9121313999999,189.39569869999968,189.40032810000002,189.41770009999937,190.49507940000012,,,,,190.49530110000023,190.51079889999937,190.71091919999935,190.69487919999983,189.41770009999937,,,,,,,,1,1,1.0627292999997735,None,,,,,,,,891,20,M,R,2026-02-23_12h00.55.372,VisualSearch_2526_3,,2025.2.4,2026-02-23 12h00.55.585211 +0100,
tilted.xlsx,The target is tilted.,117,33,1,4,0,1,1,1,1,1,1,1,0,0,0,0,1,7,8,117,space,6.335571499999787,None,0,1,1.7830524999999398,None,space,5.696358000000146,None,0,0,0,0,,,,,4,1,33,5,190.71091919999935,,,,,,,,,,,,,,,,,,,,,190.6956164999997,190.71091919999935,191.19503469999972,191.19967589999987,191.21706289999975,193.01136469999938,,,,,193.01156799999944,193.02628359999972,193.22687489999998,193.2105934999995,191.21706289999975,,,,,,,,0,1,1.7830524999999398,None,,,,,,,,891,20,M,R,2026-02-23_12h00.55.372,VisualSearch_2526_3,,2025.2.4,2026-02-23 12h00.55.585211 +0100,
tilted.xlsx,The target is tilted.,117,34,2,4,0,1,1,1,1,1,1,1,1,1,1,1,1,11,12,117,space,6.335571499999787,None,0,1,2.2631944000004296,None,space,5.696358000000146,None,0,0,0,0,,,,,4,2,34,4,193.22687489999998,,,,,,,,,,,,,,,,,,,,,193.21135129999993,193.22687489999998,193.71037769999975,193.71497659999977,193.73098299999992,196.00930930000004,,,,,196.00952009999992,196.02502689999938,196.22551199999953,196.20927600000005,193.73098299999992,,,,,,,,0,1,2.2631944000004296,None,,,,,,,,891,20,M,R,2026-02-23_12h00.55.372,VisualSearch_2526_3,,2025.2.4,2026-02-23 12h00.55.585211 +0100,
tilted.xlsx,The target is tilted.,117,35,3,4,0,0,0,0,0,0,0,0,0,0,0,0,1,1,1,117,space,6.335571499999787,None,0,1,0.8503194000004441,None,space,5.696358000000146,None,0,0,0,0,,,,,4,3,35,7,196.22551199999953,,,,,,,,,,,,,,,,,,,,,196.2100203999994,196.22551199999953,196.7091802,196.71390479999945,196.73100879999993,197.5924017000002,,,,,197.5925811000002,197.6074619999995,197.80809480000016,197.79185740000003,196.73100879999993,,,,,,,,0,1,0.8503194000004441,None,,,,,,,,891,20,M,R,2026-02-23_12h00.55.372,VisualSearch_2526_3,,2025.2.4,2026-02-23 12h00.55.585211 +0100,
tilted.xlsx,The target is tilted.,117,36,4,4,1,1,1,1,0,0,0,0,0,0,0,0,0,3,4,117,space,6.335571499999787,None,1,1,1.2437841999999364,None,space,5.696358000000146,None,0,0,0,0,,,,,4,4,36,2,197.80809480000016,,,,,,,,,,,,,,,,,,,,,197.79260039999963,197.80809480000016,198.2916749000001,198.29639349999934,198.31266599999935,199.55843799999957,,,,,199.55863739999995,199.5733865999996,199.7737893999997,199.75773329999947,198.31266599999935,,,,,,,,1,1,1.2437841999999364,None,,,,,,,,891,20,M,R,2026-02-23_12h00.55.372,VisualSearch_2526_3,,2025.2.4,2026-02-23 12h00.55.585211 +0100,
tilted.xlsx,The target is tilted.,117,37,5,4,1,1,1,1,1,1,1,1,1,1,1,1,0,11,12,117,space,6.335571499999787,None,1,1,1.9521452999997564,None,space,5.696358000000146,None,0,0,0,0,,,,,4,5,37,0,199.7737893999997,,,,,,,,,,,,,,,,,,,,,199.75844579999966,199.7737893999997,200.25757099999964,200.2621505000002,200.27894349999997,202.2400272,,,,,202.24016999999958,202.25540929999943,202.45597099999986,202.43947590000016,200.27894349999997,,,,,,,,1,1,1.9521452999997564,None,,,,,,,,891,20,M,R,2026-02-23_12h00.55.372,VisualSearch_2526_3,,2025.2.4,2026-02-23 12h00.55.585211 +0100,
tilted.xlsx,The target is tilted.,117,38,6,4,0,1,1,1,0,0,0,0,0,0,0,0,1,3,4,117,space,6.335571499999787,None,0,1,1.442446000000018,None,space,5.696358000000146,None,0,0,0,0,,,,,4,6,38,6,202.45597099999986,,,,,,,,,,,,,,,,,,,,,202.44022409999934,202.45597099999986,202.93946069999993,202.94458689999965,202.9608573999999,204.40630610000017,,,,,204.40651059999936,204.42124469999953,204.62168429999974,204.60520869999937,202.9608573999999,,,,,,,,0,1,1.442446000000018,None,,,,,,,,891,20,M,R,2026-02-23_12h00.55.372,VisualSearch_2526_3,,2025.2.4,2026-02-23 12h00.55.585211 +0100,
tilted.xlsx,The target is tilted.,117,39,7,4,1,0,0,0,0,0,0,0,0,0,0,0,0,0,1,117,space,6.335571499999787,None,1,1,0.871546400000625,None,space,5.696358000000146,None,0,0,0,0,,,,,4,7,39,3,204.62168429999974,,,,,,,,,,,,,,,,,,,,,204.60593199999994,204.62168429999974,205.10527259999935,205.1099677999996,205.12739889999966,206.00509610000017,,,,,206.00526390000005,206.02041439999948,206.22100589999945,206.2047894000002,205.12739889999966,,,,,,,,1,1,0.871546400000625,None,,,,,,,,891,20,M,R,2026-02-23_12h00.55.372,VisualSearch_2526_3,,2025.2.4,2026-02-23 12h00.55.585211 +0100,
tilted.xlsx,The target is tilted.,117,40,0,5,1,1,1,1,1,1,1,1,1,1,1,1,0,11,12,117,space,6.335571499999787,None,1,1,2.4726675000001705,None,space,5.696358000000146,None,0,0,0,0,,,,,5,0,40,0,206.22100589999945,,,,,,,,,,,,,,,,,,,,,206.20551529999966,206.22100589999945,206.70457619999934,206.70921390000012,206.7256867000001,209.2040092000002,,,,,209.20421179999948,209.21891929999992,209.4194695000001,209.40330959999983,206.7256867000001,,,,,,,,1,1,2.4726675000001705,None,,,,,,,,891,20,M,R,2026-02-23_12h00.55.372,VisualSearch_2526_3,,2025.2.4,2026-02-23 12h00.55.585211 +0100,
tilted.xlsx,The target is tilted.,117,41,1,5,1,0,0,0,0,0,0,0,0,0,0,0,0,0,1,117,space,6.335571499999787,None,1,1,0.7623134000004939,None,space,5.696358000000146,None,0,0,0,0,,,,,5,1,41,3,209.4194695000001,,,,,,,,,,,,,,,,,,,,,209.40403339999966,209.4194695000001,209.90301390000013,209.90773369999943,209.92508979999957,210.702632,,,,,210.7028379999997,210.7182385000001,210.91877149999937,210.90275689999953,209.92508979999957,,,,,,,,1,1,0.7623134000004939,None,,,,,,,,891,20,M,R,2026-02-23_12h00.55.372,VisualSearch_2526_3,,2025.2.4,2026-02-23 12h00.55.585211 +0100,
tilted.xlsx,The target is tilted.,117,42,2,5,0,1,1,1,1,1,1,1,1,1,1,1,1,11,12,117,space,6.335571499999787,None,0,1,3.274438299999929,None,space,5.696358000000146,None,0,0,0,0,,,,,5,2,42,4,210.91877149999937,,,,,,,,,,,,,,,,,,,,,210.9034719999995,210.91877149999937,211.40242850000004,211.40705229999958,211.42365139999993,214.70142609999994,,,,,214.7016325999998,214.71644629999946,214.9170337999999,214.90079639999976,211.42365139999993,,,,,,,,0,1,3.274438299999929,None,,,,,,,,891,20,M,R,2026-02-23_12h00.55.372,VisualSearch_2526_3,,2025.2.4,2026-02-23 12h00.55.585211 +0100,
tilted.xlsx,The target is tilted.,117,43,3,5,0,1,1,1,1,1,1,1,0,0,0,0,1,7,8,117,space,6.335571499999787,None,1,0,2.192833000000064,None,space,5.696358000000146,None,0,0,0,0,,,,,5,3,43,5,214.9170337999999,,,,,,,,,,,,,,,,,,,,,214.90155959999947,214.9170337999999,215.40054849999933,215.40520359999982,215.42114329999958,217.61619370000017,,,,,217.61630060000016,217.63152069999933,217.83212259999937,217.81574080000019,215.42114329999958,,,,,,,,1,0,2.192833000000064,None,,,,,,,,891,20,M,R,2026-02-23_12h00.55.372,VisualSearch_2526_3,,2025.2.4,2026-02-23 12h00.55.585211 +0100,
tilted.xlsx,The target is tilted.,117,44,4,5,1,1,1,1,1,1,1,1,0,0,0,0,0,7,8,117,space,6.335571499999787,None,0,0,2.206637700000101,None,space,5.696358000000146,None,0,0,0,0,,,,,5,4,44,1,217.83212259999937,,,,,,,,,,,,,,,,,,,,,217.81646749999936,217.83212259999937,218.3159413999997,218.3205449000002,218.3375704999994,220.54847399999971,,,,,220.54867590000003,220.56375249999974,220.7638621000001,220.74755789999972,218.3375704999994,,,,,,,,0,0,2.206637700000101,None,,,,,,,,891,20,M,R,2026-02-23_12h00.55.372,VisualSearch_2526_3,,2025.2.4,2026-02-23 12h00.55.585211 +0100,
tilted.xlsx,The target is tilted.,117,45,5,5,0,1,1,1,0,0,0,0,0,0,0,0,1,3,4,117,space,6.335571499999787,None,0,1,1.2297365000003992,None,space,5.696358000000146,None,0,0,0,0,,,,,5,5,45,6,220.7638621000001,,,,,,,,,,,,,,,,,,,,,220.74826489999987,220.7638621000001,221.24804300000005,221.2526388000001,221.27071489999935,222.51443509999945,,,,,222.51461759999938,222.52954920000002,222.7296621999999,222.71362699999963,221.27071489999935,,,,,,,,0,1,1.2297365000003992,None,,,,,,,,891,20,M,R,2026-02-23_12h00.55.372,VisualSearch_2526_3,,2025.2.4,2026-02-23 12h00.55.585211 +0100,
tilted.xlsx,The target is tilted.,117,46,6,5,0,0,0,0,0,0,0,0,0,0,0,0,1,1,1,117,space,6.335571499999787,None,0,1,0.6670766000006552,None,space,5.696358000000146,None,0,0,0,0,,,,,5,6,46,7,222.7296621999999,,,,,,,,,,,,,,,,,,,,,222.71435549999978,222.7296621999999,223.21379709999974,223.21854200000007,223.23394139999937,223.9140029999994,,,,,223.91421760000003,223.92888059999996,224.12936760000002,224.11301400000002,223.23394139999937,,,,,,,,0,1,0.6670766000006552,None,,,,,,,,891,20,M,R,2026-02-23_12h00.55.372,VisualSearch_2526_3,,2025.2.4,2026-02-23 12h00.55.585211 +0100,
tilted.xlsx,The target is tilted.,117,47,7,5,1,1,1,1,0,0,0,0,0,0,0,0,0,3,4,117,space,6.335571499999787,None,1,1,1.0693560999998226,None,space,5.696358000000146,None,0,0,0,0,,,,,5,7,47,2,224.12936760000002,,,,,,,,,,,,,,,,,,,,,224.11372749999964,224.12936760000002,224.61264339999934,224.61470569999938,224.62864709999985,225.71252700000014,,,,,225.7127676999994,225.72811950000005,225.92863279999938,225.91237039999987,224.62864709999985,,,,,,,,1,1,1.0693560999998226,None,,,,,,,,891,20,M,R,2026-02-23_12h00.55.372,VisualSearch_2526_3,,2025.2.4,2026-02-23 12h00.55.585211 +0100,
tilted.xlsx,The target is tilted.,117,48,0,6,0,1,1,1,1,1,1,1,0,0,0,0,1,7,8,117,space,6.335571499999787,None,0,1,3.5631690000000162,None,space,5.696358000000146,None,0,0,0,0,,,,,6,0,48,5,225.92863279999938,,,,,,,,,,,,,,,,,,,,,225.91310320000002,225.92863279999938,226.41222009999956,226.41672619999963,226.4282833000002,229.99466789999997,,,,,229.99488090000023,230.00960059999989,230.20998159999954,230.19397809999964,226.4282833000002,,,,,,,,0,1,3.5631690000000162,None,,,,,,,,891,20,M,R,2026-02-23_12h00.55.372,VisualSearch_2526_3,,2025.2.4,2026-02-23 12h00.55.585211 +0100,
tilted.xlsx,The target is tilted.,117,49,1,6,0,1,1,1,1,1,1,1,1,1,1,1,1,11,12,117,space,6.335571499999787,None,0,1,2.9360274000000572,None,space,5.696358000000146,None,0,0,0,0,,,,,6,1,49,4,230.20998159999954,,,,,,,,,,,,,,,,,,,,,230.19468519999964,230.20998159999954,230.69373909999968,230.6983927999995,230.7133401999995,233.65940249999994,,,,,233.65960439999935,233.6744775000002,233.8749174999998,233.85878899999943,230.7133401999995,,,,,,,,0,1,2.9360274000000572,None,,,,,,,,891,20,M,R,2026-02-23_12h00.55.372,VisualSearch_2526_3,,2025.2.4,2026-02-23 12h00.55.585211 +0100,
tilted.xlsx,The target is tilted.,117,50,2,6,0,0,0,0,0,0,0,0,0,0,0,0,1,1,1,117,space,6.335571499999787,None,0,1,0.7082963000002565,None,space,5.696358000000146,None,0,0,0,0,,,,,6,2,50,7,233.8749174999998,,,,,,,,,,,,,,,,,,,,,233.85953019999988,233.8749174999998,234.3587696999998,234.36349589999963,234.38019119999944,235.0919328999994,,,,,235.09214029999976,235.1071611000002,235.30775810000023,235.29154530000005,234.38019119999944,,,,,,,,0,1,0.7082963000002565,None,,,,,,,,891,20,M,R,2026-02-23_12h00.55.372,VisualSearch_2526_3,,2025.2.4,2026-02-23 12h00.55.585211 +0100,
tilted.xlsx,The target is tilted.,117,51,3,6,1,1,1,1,0,0,0,0,0,0,0,0,0,3,4,117,space,6.335571499999787,None,1,1,1.0531446999993932,None,space,5.696358000000146,None,0,0,0,0,,,,,6,3,51,2,235.30775810000023,,,,,,,,,,,,,,,,,,,,,235.29227109999965,235.30775810000023,235.79129150000017,235.7960121000001,235.8116301999994,236.87457679999943,,,,,236.87475849999964,236.88967699999966,237.0902645000001,237.0740535,235.8116301999994,,,,,,,,1,1,1.0531446999993932,None,,,,,,,,891,20,M,R,2026-02-23_12h00.55.372,VisualSearch_2526_3,,2025.2.4,2026-02-23 12h00.55.585211 +0100,
tilted.xlsx,The target is tilted.,117,52,4,6,0,1,1,1,0,0,0,0,0,0,0,0,1,3,4,117,space,6.335571499999787,None,0,1,1.6141029999998864,None,space,5.696358000000146,None,0,0,0,0,,,,,6,4,52,6,237.0902645000001,,,,,,,,,,,,,,,,,,,,,237.07478609999953,237.0902645000001,237.5737236,237.57832089999965,237.59488079999983,239.22302499999978,,,,,239.22325219999993,239.23852919999945,239.43880529999979,239.4230961999997,237.59488079999983,,,,,,,,0,1,1.6141029999998864,None,,,,,,,,891,20,M,R,2026-02-23_12h00.55.372,VisualSearch_2526_3,,2025.2.4,2026-02-23 12h00.55.585211 +0100,
tilted.xlsx,The target is tilted.,117,53,5,6,1,0,0,0,0,0,0,0,0,0,0,0,0,0,1,117,space,6.335571499999787,None,1,1,0.8798082000002978,None,space,5.696358000000146,None,0,0,0,0,,,,,6,5,53,3,239.43880529999979,,,,,,,,,,,,,,,,,,,,,239.42383370000016,239.43880529999979,239.92270770000005,239.92734239999982,239.94556489999968,240.8387788999994,,,,,240.83895619999976,240.85446159999947,241.05493479999996,241.0386142000002,239.94556489999968,,,,,,,,1,1,0.8798082000002978,None,,,,,,,,891,20,M,R,2026-02-23_12h00.55.372,VisualSearch_2526_3,,2025.2.4,2026-02-23 12h00.55.585211 +0100,
tilted.xlsx,The target is tilted.,117,54,6,6,1,1,1,1,1,1,1,1,0,0,0,0,0,7,8,117,space,6.335571499999787,None,1,1,0.7757857999995394,None,space,5.696358000000146,None,0,0,0,0,,,,,6,6,54,1,241.05493479999996,,,,,,,,,,,,,,,,,,,,,241.03937339999948,241.05493479999996,241.53883319999977,241.54339140000002,241.56021929999997,242.33869959999947,,,,,242.33890419999943,242.3538778999996,242.5543617999997,242.5382894999998,241.56021929999997,,,,,,,,1,1,0.7757857999995394,None,,,,,,,,891,20,M,R,2026-02-23_12h00.55.372,VisualSearch_2526_3,,2025.2.4,2026-02-23 12h00.55.585211 +0100,
tilted.xlsx,The target is tilted.,117,55,7,6,1,1,1,1,1,1,1,1,1,1,1,1,0,11,12,117,space,6.335571499999787,None,1,1,2.356892899999366,None,space,5.696358000000146,None,0,0,0,0,,,,,6,7,55,0,242.5543617999997,,,,,,,,,,,,,,,,,,,,,242.53900339999973,242.5543617999997,243.03812249999964,243.04269239999985,243.05924839999943,245.4205122999997,,,,,245.42072249999956,245.43578219999972,245.63617049999948,245.61965029999965,243.05924839999943,,,,,,,,1,1,2.356892899999366,None,,,,,,,,891,20,M,R,2026-02-23_12h00.55.372,VisualSearch_2526_3,,2025.2.4,2026-02-23 12h00.55.585211 +0100,
tilted.xlsx,The target is tilted.,117,56,0,7,0,0,0,0,0,0,0,0,0,0,0,0,1,1,1,117,space,6.335571499999787,None,0,1,1.1909719999994195,None,space,5.696358000000146,None,0,0,0,0,,,,,7,0,56,7,245.63617049999948,,,,,,,,,,,,,,,,,,,,,245.6200689000002,245.63617049999948,246.11969159999944,246.1243625000002,246.14254979999941,247.33666700000003,,,,,247.33686850000004,247.35175519999984,247.55217089999996,247.53618779999988,246.14254979999941,,,,,,,,0,1,1.1909719999994195,None,,,,,,,,891,20,M,R,2026-02-23_12h00.55.372,VisualSearch_2526_3,,2025.2.4,2026-02-23 12h00.55.585211 +0100,
tilted.xlsx,The target is tilted.,117,57,1,7,1,1,1,1,1,1,1,1,0,0,0,0,0,7,8,117,space,6.335571499999787,None,1,1,2.223412099999223,None,space,5.696358000000146,None,0,0,0,0,,,,,7,1,57,1,247.55217089999996,,,,,,,,,,,,,,,,,,,,,247.53698739999936,247.55217089999996,248.03562550000015,248.04032749999942,248.05783380000003,250.2850330999995,,,,,250.28523689999975,250.30025429999978,250.50071720000005,250.4842834999995,248.05783380000003,,,,,,,,1,1,2.223412099999223,None,,,,,,,,891,20,M,R,2026-02-23_12h00.55.372,VisualSearch_2526_3,,2025.2.4,2026-02-23 12h00.55.585211 +0100,
tilted.xlsx,The target is tilted.,117,58,2,7,1,1,1,1,1,1,1,1,1,1,1,1,0,11,12,117,space,6.335571499999787,None,1,1,1.7998293999999078,None,space,5.696358000000146,None,0,0,0,0,,,,,7,2,58,0,250.50071720000005,,,,,,,,,,,,,,,,,,,,,250.48502659999986,250.50071720000005,250.98446829999966,250.98902580000004,251.00573639999993,252.81796079999958,,,,,252.81824779999943,252.83243290000019,253.03298049999967,253.01692109999976,251.00573639999993,,,,,,,,1,1,1.7998293999999078,None,,,,,,,,891,20,M,R,2026-02-23_12h00.55.372,VisualSearch_2526_3,,2025.2.4,2026-02-23 12h00.55.585211 +0100,
tilted.xlsx,The target is tilted.,117,59,3,7,0,1,1,1,1,1,1,1,0,0,0,0,1,7,8,117,space,6.335571499999787,None,0,1,2.2936566999997012,None,space,5.696358000000146,None,0,0,0,0,,,,,7,3,59,5,253.03298049999967,,,,,,,,,,,,,,,,,,,,,253.01763290000008,253.03298049999967,253.5166650999995,253.5212249000001,253.53265469999997,255.83271689999992,,,,,255.83292709999978,255.84774900000002,256.0483092999998,256.0321253999996,253.53265469999997,,,,,,,,0,1,2.2936566999997012,None,,,,,,,,891,20,M,R,2026-02-23_12h00.55.372,VisualSearch_2526_3,,2025.2.4,2026-02-23 12h00.55.585211 +0100,
tilted.xlsx,The target is tilted.,117,60,4,7,1,0,0,0,0,0,0,0,0,0,0,0,0,0,1,117,space,6.335571499999787,None,1,1,1.160001999999622,None,space,5.696358000000146,None,0,0,0,0,,,,,7,4,60,3,256.0483092999998,,,,,,,,,,,,,,,,,,,,,256.03283669999973,256.0483092999998,256.5318648999996,256.53652699999975,256.5521079999994,257.7153582999995,,,,,257.7156117999998,257.73016340000004,257.9307103999995,257.9146105999994,256.5521079999994,,,,,,,,1,1,1.160001999999622,None,,,,,,,,891,20,M,R,2026-02-23_12h00.55.372,VisualSearch_2526_3,,2025.2.4,2026-02-23 12h00.55.585211 +0100,
tilted.xlsx,The target is tilted.,117,61,5,7,1,1,1,1,0,0,0,0,0,0,0,0,0,3,4,117,space,6.335571499999787,None,1,1,1.1989611999997578,None,space,5.696358000000146,None,0,0,0,0,,,,,7,5,61,2,257.9307103999995,,,,,,,,,,,,,,,,,,,,,257.9153231999994,257.9307103999995,258.4144795999996,258.4191979000002,258.4353232999997,259.64744819999987,,,,,259.64762550000023,259.66278659999944,259.8630714999995,259.84683259999974,258.4353232999997,,,,,,,,1,1,1.1989611999997578,None,,,,,,,,891,20,M,R,2026-02-23_12h00.55.372,VisualSearch_2526_3,,2025.2.4,2026-02-23 12h00.55.585211 +0100,
tilted.xlsx,The target is tilted.,117,62,6,7,0,1,1,1,1,1,1,1,1,1,1,1,1,11,12,117,space,6.335571499999787,None,0,1,4.6620640000001,None,space,5.696358000000146,None,0,0,0,0,,,,,7,6,62,4,259.8630714999995,,,,,,,,,,,,,,,,,,,,,259.84756890000017,259.8630714999995,260.3469143999996,260.35156959999995,260.36832879999974,265.04459369999995,,,,,265.0448104000002,265.0601432999997,265.2606922,265.2447397000001,260.36832879999974,,,,,,,,0,1,4.6620640000001,None,,,,,,,,891,20,M,R,2026-02-23_12h00.55.372,VisualSearch_2526_3,,2025.2.4,2026-02-23 12h00.55.585211 +0100,
tilted.xlsx,The target is tilted.,117,63,7,7,0,1,1,1,0,0,0,0,0,0,0,0,1,3,4,117,space,6.335571499999787,None,0,1,1.7219587999998112,None,space,5.696358000000146,None,0,0,0,0,,,,,7,7,63,6,265.2606922,,,,,,,,,,,,,,,,,,,,,265.24552279999943,265.2606922,265.74460169999975,265.7499149,265.7663319999997,267.49385669999947,,,,,267.49405739999975,267.5091046000002,267.7094949999996,267.6935105999996,265.7663319999997,,,,,,,,0,1,1.7219587999998112,None,,,,,,,,891,20,M,R,2026-02-23_12h00.55.372,VisualSearch_2526_3,,2025.2.4,2026-02-23 12h00.55.585211 +0100,
tilted.xlsx,The target is tilted.,117,64,0,8,1,1,1,1,1,1,1,1,1,1,1,1,0,11,12,117,space,6.335571499999787,None,1,1,1.695388300000559,None,space,5.696358000000146,None,0,0,0,0,,,,,8,0,64,0,267.7094949999996,,,,,,,,,,,,,,,,,,,,,267.6942669999994,267.7094949999996,268.19385659999944,268.19857869999987,268.2133466,269.9257051999998,,,,,269.9259127999999,269.9412428999999,270.14191399999936,270.1258014,268.2133466,,,,,,,,1,1,1.695388300000559,None,,,,,,,,891,20,M,R,2026-02-23_12h00.55.372,VisualSearch_2526_3,,2025.2.4,2026-02-23 12h00.55.585211 +0100,
tilted.xlsx,The target is tilted.,117,65,1,8,0,1,1,1,0,0,0,0,0,0,0,0,1,3,4,117,space,6.335571499999787,None,0,1,0.9521886000002269,None,space,5.696358000000146,None,0,0,0,0,,,,,8,1,65,6,270.14191399999936,,,,,,,,,,,,,,,,,,,,,270.1265118999995,270.14191399999936,270.62479269999994,270.62686840000015,270.6414103000002,271.6078031000002,,,,,271.6079410999996,271.6237957999997,,271.80808899999965,270.6414103000002,,,,,,,,0,1,0.9521886000002269,None,,,,,,,,891,20,M,R,2026-02-23_12h00.55.372,VisualSearch_2526_3,,2025.2.4,2026-02-23 12h00.55.585211 +0100,
tilted.xlsx,The target is tilted.,117,66,2,8,0,1,1,1,1,1,1,1,0,0,0,0,1,7,8,117,space,6.335571499999787,None,0,1,1.5866925000000265,None,space,5.696358000000146,None,0,0,0,0,,,,,8,2,66,5,271.8244430999998,,,,,,,,,,,,,,,,,,,,,271.8088412000002,271.8244430999998,272.3079071999996,272.3124918999997,272.33050929999945,273.9240386999995,,,,,273.9242202999999,273.9396068000001,274.14002609999943,274.12393829999974,272.33050929999945,,,,,,,,0,1,1.5866925000000265,None,,,,,,,,891,20,M,R,2026-02-23_12h00.55.372,VisualSearch_2526_3,,2025.2.4,2026-02-23 12h00.55.585211 +0100,
tilted.xlsx,The target is tilted.,117,67,3,8,1,0,0,0,0,0,0,0,0,0,0,0,0,0,1,117,space,6.335571499999787,None,1,1,0.5824683999999252,None,space,5.696358000000146,None,0,0,0,0,,,,,8,3,67,3,274.14002609999943,,,,,,,,,,,,,,,,,,,,,274.1246420000002,274.14002609999943,274.62381439999945,274.62887939999973,274.64256519999935,275.23993589999964,,,,,275.24013890000015,275.2556287000002,275.45616740000014,275.4398864,274.64256519999935,,,,,,,,1,1,0.5824683999999252,None,,,,,,,,891,20,M,R,2026-02-23_12h00.55.372,VisualSearch_2526_3,,2025.2.4,2026-02-23 12h00.55.585211 +0100,
tilted.xlsx,The target is tilted.,117,68,4,8,0,0,0,0,0,0,0,0,0,0,0,0,1,1,1,117,space,6.335571499999787,None,0,1,0.5936993999994229,None,space,5.696358000000146,None,0,0,0,0,,,,,8,4,68,7,275.45616740000014,,,,,,,,,,,,,,,,,,,,,275.4406460999994,275.45616740000014,275.93936859999985,275.9439090000001,275.95978869999954,276.5567199000002,,,,,276.55691739999975,276.57168929999943,276.7719492000001,276.7561571000001,275.95978869999954,,,,,,,,0,1,0.5936993999994229,None,,,,,,,,891,20,M,R,2026-02-23_12h00.55.372,VisualSearch_2526_3,,2025.2.4,2026-02-23 12h00.55.585211 +0100,
tilted.xlsx,The target is tilted.,117,69,5,8,0,1,1,1,1,1,1,1,1,1,1,1,1,11,12,117,space,6.335571499999787,None,0,1,2.615138100000877,None,space,5.696358000000146,None,0,0,0,0,,,,,8,5,69,4,276.7719492000001,,,,,,,,,,,,,,,,,,,,,276.75701660000004,276.7719492000001,277.2560424999997,277.2611916999999,277.27875489999997,279.90515730000016,,,,,279.90535450000016,279.9201002999994,280.12062299999934,280.10452269999996,277.27875489999997,,,,,,,,0,1,2.615138100000877,None,,,,,,,,891,20,M,R,2026-02-23_12h00.55.372,VisualSearch_2526_3,,2025.2.4,2026-02-23 12h00.55.585211 +0100,
tilted.xlsx,The target is tilted.,117,70,6,8,1,1,1,1,0,0,0,0,0,0,0,0,0,3,4,117,space,6.335571499999787,None,1,1,0.6792433999999048,None,space,5.696358000000146,None,0,0,0,0,,,,,8,6,70,2,280.12062299999934,,,,,,,,,,,,,,,,,,,,,280.10523199999943,280.12062299999934,280.6040022000002,280.60856620000004,280.62486669999953,281.3204762999999,,,,,281.3206889999997,281.3360859999998,281.5366828000001,281.52043879999974,280.62486669999953,,,,,,,,1,1,0.6792433999999048,None,,,,,,,,891,20,M,R,2026-02-23_12h00.55.372,VisualSearch_2526_3,,2025.2.4,2026-02-23 12h00.55.585211 +0100,
tilted.xlsx,The target is tilted.,117,71,7,8,1,1,1,1,1,1,1,1,0,0,0,0,0,7,8,117,space,6.335571499999787,None,1,1,0.8269979999995485,None,space,5.696358000000146,None,0,0,0,0,,,,,8,7,71,1,281.5366828000001,,,,,,,,,,,,,,,,,,,,,281.5211958999994,281.5366828000001,282.0202624999997,282.0256754999996,282.0408625999994,282.87014789999967,,,,,282.87034259999973,282.88544239999965,283.08602289999953,283.0694905999994,282.0408625999994,,,,,,,,1,1,0.8269979999995485,None,,,,,,,,891,20,M,R,2026-02-23_12h00.55.372,VisualSearch_2526_3,,2025.2.4,2026-02-23 12h00.55.585211 +0100,
tilted.xlsx,The target is tilted.,117,72,0,9,0,1,1,1,1,1,1,1,1,1,1,1,1,11,12,117,space,6.335571499999787,None,0,1,1.4896432000005007,None,space,5.696358000000146,None,0,0,0,0,,,,,9,0,72,4,283.08602289999953,,,,,,,,,,,,,,,,,,,,,283.07027719999996,283.08602289999953,283.56934630000023,283.5738924000002,283.59215489999997,285.08589040000015,,,,,285.0860859999998,285.1012006999995,285.3016445999997,285.28554249999934,283.59215489999997,,,,,,,,0,1,1.4896432000005007,None,,,,,,,,891,20,M,R,2026-02-23_12h00.55.372,VisualSearch_2526_3,,2025.2.4,2026-02-23 12h00.55.585211 +0100,
tilted.xlsx,The target is tilted.,117,73,1,9,0,1,1,1,1,1,1,1,0,0,0,0,1,7,8,117,space,6.335571499999787,None,0,1,1.1557586999997511,None,space,5.696358000000146,None,0,0,0,0,,,,,9,1,73,5,285.3016445999997,,,,,,,,,,,,,,,,,,,,,285.28624269999955,285.3016445999997,285.78514979999954,285.7896928999994,285.8071156000001,286.96795209999937,,,,,286.9681134999996,286.98333909999974,287.18365869999934,287.16790790000005,285.8071156000001,,,,,,,,0,1,1.1557586999997511,None,,,,,,,,891,20,M,R,2026-02-23_12h00.55.372,VisualSearch_2526_3,,2025.2.4,2026-02-23 12h00.55.585211 +0100,
tilted.xlsx,The target is tilted.,117,74,2,9,0,0,0,0,0,0,0,0,0,0,0,0,1,1,1,117,space,6.335571499999787,None,0,1,0.4964175000004616,None,space,5.696358000000146,None,0,0,0,0,,,,,9,2,74,7,287.18365869999934,,,,,,,,,,,,,,,,,,,,,287.1686502999996,287.18365869999934,287.6678102999999,287.6723697000002,287.6886032999996,288.2007797000001,,,,,288.2010046999999,288.21636269999954,288.4168420000001,288.40064589999974,287.6886032999996,,,,,,,,0,1,0.4964175000004616,None,,,,,,,,891,20,M,R,2026-02-23_12h00.55.372,VisualSearch_2526_3,,2025.2.4,2026-02-23 12h00.55.585211 +0100,
tilted.xlsx,The target is tilted.,117,75,3,9,1,0,0,0,0,0,0,0,0,0,0,0,0,0,1,117,space,6.335571499999787,None,1,1,0.5784741999996186,None,space,5.696358000000146,None,0,0,0,0,,,,,9,3,75,3,288.4168420000001,,,,,,,,,,,,,,,,,,,,,288.4013850999995,288.4168420000001,288.9004380000001,288.90497969999933,288.9209343999996,289.5161016999996,,,,,289.5162011999996,289.53277859999935,,289.71669340000017,288.9209343999996,,,,,,,,1,1,0.5784741999996186,None,,,,,,,,891,20,M,R,2026-02-23_12h00.55.372,VisualSearch_2526_3,,2025.2.4,2026-02-23 12h00.55.585211 +0100,
tilted.xlsx,The target is tilted.,117,76,4,9,1,1,1,1,1,1,1,1,0,0,0,0,0,7,8,117,space,6.335571499999787,None,1,1,0.6526365999998234,None,space,5.696358000000146,None,0,0,0,0,,,,,9,4,76,1,289.7329949,,,,,,,,,,,,,,,,,,,,,289.71746549999943,289.7329949,290.21638699999994,290.22096360000023,290.2380499999995,290.8998882000001,,,,,290.9000841000002,290.91519759999983,291.11558509999986,291.0992154999999,,,,,,,,,1,1,0.6526365999998234,None,,,,,,,,891,20,M,R,2026-02-23_12h00.55.372,VisualSearch_2526_3,,2025.2.4,2026-02-23 12h00.55.585211 +0100,
tilted.xlsx,The target is tilted.,117,77,5,9,1,1,1,1,1,1,1,1,1,1,1,1,0,11,12,117,space,6.335571499999787,None,1,1,1.9869948000005024,None,space,5.696358000000146,None,0,0,0,0,,,,,9,5,77,0,291.11558509999986,,,,,,,,,,,,,,,,,,,,,291.09995169999956,291.11558509999986,291.59902209999973,291.6036374,291.61967649999997,293.61564619999945,,,,,293.61584209999955,293.6306577999999,293.8309070999999,293.8150351999998,291.61967649999997,,,,,,,,1,1,1.9869948000005024,None,,,,,,,,891,20,M,R,2026-02-23_12h00.55.372,VisualSearch_2526_3,,2025.2.4,2026-02-23 12h00.55.585211 +0100,
tilted.xlsx,The target is tilted.,117,78,6,9,1,1,1,1,0,0,0,0,0,0,0,0,0,3,4,117,space,6.335571499999787,None,1,1,0.8445260000007693,None,space,5.696358000000146,None,0,0,0,0,,,,,9,6,78,2,293.8309070999999,,,,,,,,,,,,,,,,,,,,,293.8158516999997,293.8309070999999,294.3148166999995,294.31938390000005,294.3358816999994,295.1975066,,,,,295.19772239999975,295.2131667999997,295.4136555,295.397641,294.3358816999994,,,,,,,,1,1,0.8445260000007693,None,,,,,,,,891,20,M,R,2026-02-23_12h00.55.372,VisualSearch_2526_3,,2025.2.4,2026-02-23 12h00.55.585211 +0100,
tilted.xlsx,The target is tilted.,117,79,7,9,0,1,1,1,0,0,0,0,0,0,0,0,1,3,4,117,space,6.335571499999787,None,0,1,0.651585999999952,None,space,5.696358000000146,None,0,0,0,0,,,,,9,7,79,6,295.4136555,,,,,,,,,,,,,,,,,,,,,295.3983392999994,295.4136555,295.89723079999976,295.9023588999994,295.91749759999993,296.58078499999965,,,,,296.5809784999997,296.59563089999983,296.79641369999945,296.7801193,295.91749759999993,,,,,,,,0,1,0.651585999999952,None,,,,,,,,891,20,M,R,2026-02-23_12h00.55.372,VisualSearch_2526_3,,2025.2.4,2026-02-23 12h00.55.585211 +0100,
tilted.xlsx,The target is tilted.,117,80,0,10,1,1,1,1,0,0,0,0,0,0,0,0,0,3,4,117,space,6.335571499999787,None,1,1,0.6363369000000603,None,space,5.696358000000146,None,0,0,0,0,,,,,10,0,80,2,296.79641369999945,,,,,,,,,,,,,,,,,,,,,296.7808640999997,296.79641369999945,297.2954496999996,297.29682139999977,297.3120936999999,297.96240139999964,,,,,297.9624788999995,297.9783861000001,298.1782582999999,298.1618066999995,,,,,,,,,1,1,0.6363369000000603,None,,,,,,,,891,20,M,R,2026-02-23_12h00.55.372,VisualSearch_2526_3,,2025.2.4,2026-02-23 12h00.55.585211 +0100,
tilted.xlsx,The target is tilted.,117,81,1,10,1,1,1,1,1,1,1,1,0,0,0,0,0,7,8,117,space,6.335571499999787,None,1,1,1.7415063999997074,None,space,5.696358000000146,None,0,0,0,0,,,,,10,1,81,1,298.1782582999999,,,,,,,,,,,,,,,,,,,,,298.1620600000001,298.1782582999999,298.6617259999998,298.66344939999954,298.67811140000003,300.4293524999998,,,,,300.42959139999994,300.4444469999994,300.6443991000001,300.6287706999997,298.67811140000003,,,,,,,,1,1,1.7415063999997074,None,,,,,,,,891,20,M,R,2026-02-23_12h00.55.372,VisualSearch_2526_3,,2025.2.4,2026-02-23 12h00.55.585211 +0100,
tilted.xlsx,The target is tilted.,117,82,2,10,1,0,0,0,0,0,0,0,0,0,0,0,0,0,1,117,space,6.335571499999787,None,1,1,1.1041341999998622,None,space,5.696358000000146,None,0,0,0,0,,,,,10,2,82,3,300.6443991000001,,,,,,,,,,,,,,,,,,,,,300.62972989999935,300.6443991000001,301.1285670000002,301.1337735000002,301.1502534999995,302.26106500000014,,,,,302.2612414,302.2770354999998,302.4772361999999,302.4610831999994,301.1502534999995,,,,,,,,1,1,1.1041341999998622,None,,,,,,,,891,20,M,R,2026-02-23_12h00.55.372,VisualSearch_2526_3,,2025.2.4,2026-02-23 12h00.55.585211 +0100,
tilted.xlsx,The target is tilted.,117,83,3,10,0,0,0,0,0,0,0,0,0,0,0,0,1,1,1,117,space,6.335571499999787,None,0,1,0.6887458999999581,None,space,5.696358000000146,None,0,0,0,0,,,,,10,3,83,7,302.4772361999999,,,,,,,,,,,,,,,,,,,,,302.4619077000002,302.4772361999999,302.96092,302.9659534999996,302.9815572000002,303.6775223999998,,,,,303.67769670000007,303.69335060000003,303.89328439999963,303.87725079999973,302.9815572000002,,,,,,,,0,1,0.6887458999999581,None,,,,,,,,891,20,M,R,2026-02-23_12h00.55.372,VisualSearch_2526_3,,2025.2.4,2026-02-23 12h00.55.585211 +0100,
tilted.xlsx,The target is tilted.,117,84,4,10,0,1,1,1,1,1,1,1,1,1,1,1,1,11,12,117,space,6.335571499999787,None,0,1,3.292955500000062,None,space,5.696358000000146,None,0,0,0,0,,,,,10,4,84,4,303.89328439999963,,,,,,,,,,,,,,,,,,,,,303.8780465999994,303.89328439999963,304.37687529999994,304.3813551999997,304.3983530999999,307.6925305999998,,,,,307.6927292999994,307.70817339999985,307.90809930000023,307.89188499999955,304.3983530999999,,,,,,,,0,1,3.292955500000062,None,,,,,,,,891,20,M,R,2026-02-23_12h00.55.372,VisualSearch_2526_3,,2025.2.4,2026-02-23 12h00.55.585211 +0100,
tilted.xlsx,The target is tilted.,117,85,5,10,0,1,1,1,0,0,0,0,0,0,0,0,1,3,4,117,space,6.335571499999787,None,0,1,0.6714122000003044,None,space,5.696358000000146,None,0,0,0,0,,,,,10,5,85,6,307.90809930000023,,,,,,,,,,,,,,,,,,,,,307.8926827999999,307.90809930000023,308.3918096000002,308.39677209999945,308.4121995999999,309.09163750000016,,,,,309.0918336999998,309.10740769999984,309.30751029999965,309.29140249999955,308.4121995999999,,,,,,,,0,1,0.6714122000003044,None,,,,,,,,891,20,M,R,2026-02-23_12h00.55.372,VisualSearch_2526_3,,2025.2.4,2026-02-23 12h00.55.585211 +0100,
tilted.xlsx,The target is tilted.,117,86,6,10,1,1,1,1,1,1,1,1,1,1,1,1,0,11,12,117,space,6.335571499999787,None,1,1,1.9497596999999587,None,space,5.696358000000146,None,0,0,0,0,,,,,10,6,86,0,309.30751029999965,,,,,,,,,,,,,,,,,,,,,309.2922195999995,309.30751029999965,309.7910286000001,309.79552569999987,309.81133219999947,311.7737135000002,,,,,311.7739058000002,311.7894266999997,311.9893970999997,311.9734376000001,309.81133219999947,,,,,,,,1,1,1.9497596999999587,None,,,,,,,,891,20,M,R,2026-02-23_12h00.55.372,VisualSearch_2526_3,,2025.2.4,2026-02-23 12h00.55.585211 +0100,
tilted.xlsx,The target is tilted.,117,87,7,10,0,1,1,1,1,1,1,1,0,0,0,0,1,7,8,117,space,6.335571499999787,None,0,1,1.4939057999999932,None,space,5.696358000000146,None,0,0,0,0,,,,,10,7,87,5,311.9893970999997,,,,,,,,,,,,,,,,,,,,,311.9741398000001,311.9893970999997,312.4733513999995,312.47862320000013,312.4957101999994,314.00643660000014,,,,,314.00666969999975,314.0218728999994,314.2218042999998,314.20559529999946,312.4957101999994,,,,,,,,0,1,1.4939057999999932,None,,,,,,,,891,20,M,R,2026-02-23_12h00.55.372,VisualSearch_2526_3,,2025.2.4,2026-02-23 12h00.55.585211 +0100,
tilted.xlsx,The target is tilted.,117,88,0,11,1,1,1,1,1,1,1,1,1,1,1,1,0,11,12,117,space,6.335571499999787,None,1,1,1.1735344999997324,None,space,5.696358000000146,None,0,0,0,0,,,,,11,0,88,0,314.2218042999998,,,,,,,,,,,,,,,,,,,,,314.2063353999997,314.2218042999998,314.70510160000003,314.7096040000001,314.72690029999967,315.90520329999936,,,,,315.9056647000002,315.92067949999955,316.1209712999994,316.10481519999985,314.72690029999967,,,,,,,,1,1,1.1735344999997324,None,,,,,,,,891,20,M,R,2026-02-23_12h00.55.372,VisualSearch_2526_3,,2025.2.4,2026-02-23 12h00.55.585211 +0100,
tilted.xlsx,The target is tilted.,117,89,1,11,0,1,1,1,0,0,0,0,0,0,0,0,1,3,4,117,space,6.335571499999787,None,0,1,0.6841514999996434,None,space,5.696358000000146,None,0,0,0,0,,,,,11,1,89,6,316.1209712999994,,,,,,,,,,,,,,,,,,,,,316.1055937999995,316.1209712999994,316.6042954999998,316.6089502,316.62058709999974,317.3210555999999,,,,,317.3212013999996,317.3370479,317.5369606999998,317.5207590999994,316.62058709999974,,,,,,,,0,1,0.6841514999996434,None,,,,,,,,891,20,M,R,2026-02-23_12h00.55.372,VisualSearch_2526_3,,2025.2.4,2026-02-23 12h00.55.585211 +0100,
tilted.xlsx,The target is tilted.,117,90,2,11,1,1,1,1,0,0,0,0,0,0,0,0,0,3,4,117,space,6.335571499999787,None,1,1,0.6554342999997971,None,space,5.696358000000146,None,0,0,0,0,,,,,11,2,90,2,317.5369606999998,,,,,,,,,,,,,,,,,,,,,317.5215140999994,317.5369606999998,318.02054329999964,318.0250470999995,318.0413212999997,318.70417229999975,,,,,318.70436800000016,318.7197117999999,318.9195539999996,318.90354699999943,318.0413212999997,,,,,,,,1,1,0.6554342999997971,None,,,,,,,,891,20,M,R,2026-02-23_12h00.55.372,VisualSearch_2526_3,,2025.2.4,2026-02-23 12h00.55.585211 +0100,
tilted.xlsx,The target is tilted.,117,91,3,11,0,1,1,1,1,1,1,1,1,1,1,1,1,11,12,117,space,6.335571499999787,None,0,1,2.6857752999994773,None,space,5.696358000000146,None,0,0,0,0,,,,,11,3,91,4,318.9195539999996,,,,,,,,,,,,,,,,,,,,,318.90424589999975,318.9195539999996,319.40319469999986,319.40821149999965,319.42312959999936,322.11930509999956,,,,,322.1194991999996,322.1347992999995,322.33471249999957,322.3185579999995,319.42312959999936,,,,,,,,0,1,2.6857752999994773,None,,,,,,,,891,20,M,R,2026-02-23_12h00.55.372,VisualSearch_2526_3,,2025.2.4,2026-02-23 12h00.55.585211 +0100,
tilted.xlsx,The target is tilted.,117,92,4,11,0,0,0,0,0,0,0,0,0,0,0,0,1,1,1,117,space,6.335571499999787,None,0,1,0.6593997999998464,None,space,5.696358000000146,None,0,0,0,0,,,,,11,4,92,7,322.33471249999957,,,,,,,,,,,,,,,,,,,,,322.3192911000001,322.33471249999957,322.8185122,322.82298149999997,322.8410500999994,323.50207550000005,,,,,323.5022775000002,323.5174986999996,323.7175387000002,323.70134889999963,322.8410500999994,,,,,,,,0,1,0.6593997999998464,None,,,,,,,,891,20,M,R,2026-02-23_12h00.55.372,VisualSearch_2526_3,,2025.2.4,2026-02-23 12h00.55.585211 +0100,
tilted.xlsx,The target is tilted.,117,93,5,11,1,0,0,0,0,0,0,0,0,0,0,0,0,0,1,117,space,6.335571499999787,None,1,1,0.5360803000003216,None,space,5.696358000000146,None,0,0,0,0,,,,,11,5,93,3,323.7175387000002,,,,,,,,,,,,,,,,,,,,,323.7021119999995,323.7175387000002,324.20102610000004,324.2055213999997,324.22263410000005,324.76812589999963,,,,,324.7683248999997,324.7835812999997,324.98353649999945,324.9670854000001,324.22263410000005,,,,,,,,1,1,0.5360803000003216,None,,,,,,,,891,20,M,R,2026-02-23_12h00.55.372,VisualSearch_2526_3,,2025.2.4,2026-02-23 12h00.55.585211 +0100,
tilted.xlsx,The target is tilted.,117,94,6,11,1,1,1,1,1,1,1,1,0,0,0,0,0,7,8,117,space,6.335571499999787,None,1,1,1.6174403999993956,None,space,5.696358000000146,None,0,0,0,0,,,,,11,6,94,1,324.98353649999945,,,,,,,,,,,,,,,,,,,,,324.9678208,324.98353649999945,325.46754310000006,325.4724003999995,325.48325579999937,327.1169054999996,,,,,327.11710149999954,327.1324762999998,327.3325952,327.31656599999997,325.48325579999937,,,,,,,,1,1,1.6174403999993956,None,,,,,,,,891,20,M,R,2026-02-23_12h00.55.372,VisualSearch_2526_3,,2025.2.4,2026-02-23 12h00.55.585211 +0100,
tilted.xlsx,The target is tilted.,117,95,7,11,0,1,1,1,1,1,1,1,0,0,0,0,1,7,8,117,space,6.335571499999787,None,0,1,1.4721349999999802,None,space,5.696358000000146,None,0,0,0,0,,,,,11,7,95,5,327.3325952,,,,,,,,,,,,,,,,,,,,,327.3173598999997,327.3325952,327.8160476999997,327.8205961999997,327.8375454000002,329.31576899999936,,,,,329.3159442000001,329.331541,329.53150349999987,329.5154867999995,327.8375454000002,,,,,,,,0,1,1.4721349999999802,None,,,,,,,,891,20,M,R,2026-02-23_12h00.55.372,VisualSearch_2526_3,,2025.2.4,2026-02-23 12h00.55.585211 +0100,
tilted.xlsx,The target is tilted.,117,96,0,12,0,1,1,1,1,1,1,1,1,1,1,1,1,11,12,117,space,6.335571499999787,None,1,0,1.2661502000000837,None,space,5.696358000000146,None,0,0,0,0,,,,,12,0,96,4,329.53150349999987,,,,,,,,,,,,,,,,,,,,,329.5162905000002,329.53150349999987,330.0151014999997,330.01965299999983,330.0370790000002,331.31523329999936,,,,,331.3154632999999,331.33031789999995,331.53051279999954,331.51436409999997,330.0370790000002,,,,,,,,1,0,1.2661502000000837,None,,,,,,,,891,20,M,R,2026-02-23_12h00.55.372,VisualSearch_2526_3,,2025.2.4,2026-02-23 12h00.55.585211 +0100,
tilted.xlsx,The target is tilted.,117,97,1,12,0,1,1,1,1,1,1,1,0,0,0,0,1,7,8,117,space,6.335571499999787,None,0,1,1.258142499999849,None,space,5.696358000000146,None,0,0,0,0,,,,,12,1,97,5,331.53051279999954,,,,,,,,,,,,,,,,,,,,,331.51509880000003,331.53051279999954,332.01419229999965,332.0187353999995,332.03336589999935,333.2972401000002,,,,,333.2974170000002,333.31313199999977,333.5130801,333.49696170000016,332.03336589999935,,,,,,,,0,1,1.258142499999849,None,,,,,,,,891,20,M,R,2026-02-23_12h00.55.372,VisualSearch_2526_3,,2025.2.4,2026-02-23 12h00.55.585211 +0100,
tilted.xlsx,The target is tilted.,117,98,2,12,0,0,0,0,0,0,0,0,0,0,0,0,1,1,1,117,space,6.335571499999787,None,0,1,0.6286184999999023,None,space,5.696358000000146,None,0,0,0,0,,,,,12,2,98,7,333.5130801,,,,,,,,,,,,,,,,,,,,,333.4976658999999,333.5130801,333.9967620000002,334.0012486999999,334.01799230000006,334.66333799999984,,,,,334.66351279999935,334.67907569999943,334.87905529999944,334.8631118999997,334.01799230000006,,,,,,,,0,1,0.6286184999999023,None,,,,,,,,891,20,M,R,2026-02-23_12h00.55.372,VisualSearch_2526_3,,2025.2.4,2026-02-23 12h00.55.585211 +0100,
tilted.xlsx,The target is tilted.,117,99,3,12,1,1,1,1,1,1,1,1,1,1,1,1,0,11,12,117,space,6.335571499999787,None,1,1,4.177783600000112,None,space,5.696358000000146,None,0,0,0,0,,,,,12,3,99,0,334.87905529999944,,,,,,,,,,,,,,,,,,,,,334.86391869999943,334.87905529999944,335.3627227000002,335.3673120999997,335.3836336999998,339.57732970000006,,,,,339.57741619999933,339.59339619999946,339.7935126999996,339.7773489999995,335.3836336999998,,,,,,,,1,1,4.177783600000112,None,,,,,,,,891,20,M,R,2026-02-23_12h00.55.372,VisualSearch_2526_3,,2025.2.4,2026-02-23 12h00.55.585211 +0100,
tilted.xlsx,The target is tilted.,117,100,4,12,1,1,1,1,1,1,1,1,0,0,0,0,0,7,8,117,space,6.335571499999787,None,1,1,2.6038770999994085,None,space,5.696358000000146,None,0,0,0,0,,,,,12,4,100,1,339.7935126999996,,,,,,,,,,,,,,,,,,,,,339.77810349999936,339.7935126999996,340.2771552999998,340.28219390000004,340.2988750999998,342.9098193999994,,,,,342.9100156999998,342.9253901999996,343.1247404999999,343.1084907999998,340.2988750999998,,,,,,,,1,1,2.6038770999994085,None,,,,,,,,891,20,M,R,2026-02-23_12h00.55.372,VisualSearch_2526_3,,2025.2.4,2026-02-23 12h00.55.585211 +0100,
tilted.xlsx,The target is tilted.,117,101,5,12,1,0,0,0,0,0,0,0,0,0,0,0,0,0,1,117,space,6.335571499999787,None,1,1,0.6729473999994298,None,space,5.696358000000146,None,0,0,0,0,,,,,12,5,101,3,343.1247404999999,,,,,,,,,,,,,,,,,,,,,343.10906620000014,343.1247404999999,343.60864079999965,343.6131349000002,343.6288939000001,344.3091241999996,,,,,344.30930320000016,344.32469209999954,344.5247070999999,344.5082557999999,343.6288939000001,,,,,,,,1,1,0.6729473999994298,None,,,,,,,,891,20,M,R,2026-02-23_12h00.55.372,VisualSearch_2526_3,,2025.2.4,2026-02-23 12h00.55.585211 +0100,
tilted.xlsx,The target is tilted.,117,102,6,12,0,1,1,1,0,0,0,0,0,0,0,0,1,3,4,117,space,6.335571499999787,None,0,1,0.893906600000264,None,space,5.696358000000146,None,0,0,0,0,,,,,12,6,102,6,344.5247070999999,,,,,,,,,,,,,,,,,,,,,344.5089739,344.5247070999999,345.0089933999993,345.0135183999996,345.02436439999974,345.9251503999999,,,,,345.9253441999995,345.94070819999934,346.1405485,346.12421549999954,345.02436439999974,,,,,,,,0,1,0.893906600000264,None,,,,,,,,891,20,M,R,2026-02-23_12h00.55.372,VisualSearch_2526_3,,2025.2.4,2026-02-23 12h00.55.585211 +0100,
tilted.xlsx,The target is tilted.,117,103,7,12,1,1,1,1,0,0,0,0,0,0,0,0,0,3,4,117,space,6.335571499999787,None,1,1,1.358643900000061,None,space,5.696358000000146,None,0,0,0,0,,,,,12,7,103,2,346.1405485,,,,,,,,,,,,,,,,,,,,,346.1249527999994,346.1405485,346.6242398999998,346.6288506999995,346.6431792999997,348.00728579999986,,,,,348.0074645999998,348.0229468000002,348.2230421999998,348.20692869999993,346.6431792999997,,,,,,,,1,1,1.358643900000061,None,,,,,,,,891,20,M,R,2026-02-23_12h00.55.372,VisualSearch_2526_3,,2025.2.4,2026-02-23 12h00.55.585211 +0100,
tilted.xlsx,The target is tilted.,117,104,0,13,0,0,0,0,0,0,0,0,0,0,0,0,1,1,1,117,space,6.335571499999787,None,0,1,0.5257933000002595,None,space,5.696358000000146,None,0,0,0,0,,,,,13,0,104,7,348.2230421999998,,,,,,,,,,,,,,,,,,,,,348.2076302999999,348.2230421999998,348.70675269999947,348.7112860000002,348.7279804999994,349.25710169999957,,,,,349.2573115,349.27241790000016,349.4725035999995,349.45638409999947,348.7279804999994,,,,,,,,0,1,0.5257933000002595,None,,,,,,,,891,20,M,R,2026-02-23_12h00.55.372,VisualSearch_2526_3,,2025.2.4,2026-02-23 12h00.55.585211 +0100,
tilted.xlsx,The target is tilted.,117,105,1,13,1,1,1,1,1,1,1,1,1,1,1,1,0,11,12,117,space,6.335571499999787,None,0,0,3.5982286999997086,None,space,5.696358000000146,None,0,0,0,0,,,,,13,1,105,0,349.4725035999995,,,,,,,,,,,,,,,,,,,,,349.45709099999976,349.4725035999995,349.9562056999998,349.960681,349.9776713999995,353.5878001999995,,,,,353.58799880000015,353.60355409999966,353.8038584000001,353.78760490000013,349.9776713999995,,,,,,,,0,0,3.5982286999997086,None,,,,,,,,891,20,M,R,2026-02-23_12h00.55.372,VisualSearch_2526_3,,2025.2.4,2026-02-23 12h00.55.585211 +0100,
tilted.xlsx,The target is tilted.,117,106,2,13,0,1,1,1,1,1,1,1,0,0,0,0,1,7,8,117,space,6.335571499999787,None,1,0,1.0784880999999586,None,space,5.696358000000146,None,0,0,0,0,,,,,13,2,106,5,353.8038584000001,,,,,,,,,,,,,,,,,,,,,353.7883554999994,353.8038584000001,354.28740249999964,354.29192289999946,354.30837289999954,355.4034858,,,,,355.4036433999995,355.4192005,355.61921419999953,355.6036924999994,354.30837289999954,,,,,,,,1,0,1.0784880999999586,None,,,,,,,,891,20,M,R,2026-02-23_12h00.55.372,VisualSearch_2526_3,,2025.2.4,2026-02-23 12h00.55.585211 +0100,
tilted.xlsx,The target is tilted.,117,107,3,13,1,1,1,1,1,1,1,1,0,0,0,0,0,7,8,117,space,6.335571499999787,None,1,1,1.690642999999909,None,space,5.696358000000146,None,0,0,0,0,,,,,13,3,107,1,355.61921419999953,,,,,,,,,,,,,,,,,,,,,355.6045551000002,355.61921419999953,356.1032650000002,356.10786509999934,356.12448240000003,357.8194509,,,,,357.81964519999974,357.8351335000002,358.0353516,358.01930539999967,356.12448240000003,,,,,,,,1,1,1.690642999999909,None,,,,,,,,891,20,M,R,2026-02-23_12h00.55.372,VisualSearch_2526_3,,2025.2.4,2026-02-23 12h00.55.585211 +0100,
tilted.xlsx,The target is tilted.,117,108,4,13,0,1,1,1,0,0,0,0,0,0,0,0,1,3,4,117,space,6.335571499999787,None,0,1,0.9271793999996589,None,space,5.696358000000146,None,0,0,0,0,,,,,13,4,108,6,358.0353516,,,,,,,,,,,,,,,,,,,,,358.0201283000001,358.0353516,358.5188304999997,358.5233476999997,358.54124159999947,359.4849287000002,,,,,359.48500959999956,359.5009580000001,359.7005594999996,359.6851981999994,358.54124159999947,,,,,,,,0,1,0.9271793999996589,None,,,,,,,,891,20,M,R,2026-02-23_12h00.55.372,VisualSearch_2526_3,,2025.2.4,2026-02-23 12h00.55.585211 +0100,
tilted.xlsx,The target is tilted.,117,109,5,13,1,1,1,1,0,0,0,0,0,0,0,0,0,3,4,117,space,6.335571499999787,None,1,1,0.9791033999999854,None,space,5.696358000000146,None,0,0,0,0,,,,,13,5,109,2,359.7005594999996,,,,,,,,,,,,,,,,,,,,,359.6860193999996,359.7005594999996,360.1847947000001,360.1893427,360.2071529,361.20163189999994,,,,,361.20186460000014,361.21702830000004,361.41618379999954,361.3997420999999,360.2071529,,,,,,,,1,1,0.9791033999999854,None,,,,,,,,891,20,M,R,2026-02-23_12h00.55.372,VisualSearch_2526_3,,2025.2.4,2026-02-23 12h00.55.585211 +0100,
tilted.xlsx,The target is tilted.,117,110,6,13,1,0,0,0,0,0,0,0,0,0,0,0,0,0,1,117,space,6.335571499999787,None,1,1,0.7406464000005144,None,space,5.696358000000146,None,0,0,0,0,,,,,13,6,110,3,361.41618379999954,,,,,,,,,,,,,,,,,,,,,361.4000251000002,361.41618379999954,361.90078570000014,361.9059231999995,361.92235819999996,362.6669331999997,,,,,362.6671301000001,362.68276019999985,362.8830641999998,362.8670704000001,361.92235819999996,,,,,,,,1,1,0.7406464000005144,None,,,,,,,,891,20,M,R,2026-02-23_12h00.55.372,VisualSearch_2526_3,,2025.2.4,2026-02-23 12h00.55.585211 +0100,
tilted.xlsx,The target is tilted.,117,111,7,13,0,1,1,1,1,1,1,1,1,1,1,1,1,11,12,117,space,6.335571499999787,None,0,1,4.647241100000429,None,space,5.696358000000146,None,0,0,0,0,,,,,13,7,111,4,362.8830641999998,,,,,,,,,,,,,,,,,,,,,362.8678656999996,362.8830641999998,363.3668733999998,363.3719274,363.38212499999963,368.0316818999995,,,,,368.03187489999937,368.0470964000001,368.24730210000007,368.2310361999994,363.38212499999963,,,,,,,,0,1,4.647241100000429,None,,,,,,,,891,20,M,R,2026-02-23_12h00.55.372,VisualSearch_2526_3,,2025.2.4,2026-02-23 12h00.55.585211 +0100,
tilted.xlsx,The target is tilted.,117,112,0,14,1,1,1,1,1,1,1,1,1,1,1,1,0,11,12,117,space,6.335571499999787,None,0,0,4.039675400000306,None,space,5.696358000000146,None,0,0,0,0,,,,,14,0,112,0,368.24730210000007,,,,,,,,,,,,,,,,,,,,,368.2317748999999,368.24730210000007,368.7307853999996,368.7353441,368.75328930000023,372.79629350000005,,,,,372.79649310000013,372.8117374999997,373.0117183999996,372.99519649999957,368.75328930000023,,,,,,,,0,0,4.039675400000306,None,,,,,,,,891,20,M,R,2026-02-23_12h00.55.372,VisualSearch_2526_3,,2025.2.4,2026-02-23 12h00.55.585211 +0100,
tilted.xlsx,The target is tilted.,117,113,1,14,0,1,1,1,1,1,1,1,0,0,0,0,1,7,8,117,space,6.335571499999787,None,0,1,7.177899299999808,None,space,5.696358000000146,None,0,0,0,0,,,,,14,1,113,5,373.0117183999996,,,,,,,,,,,,,,,,,,,,,372.9959292999997,373.0117183999996,373.4954825,373.5003108999995,373.5172756999996,380.7089151999994,,,,,380.70905579999953,380.7247685999996,380.92482400000017,380.9088028000001,373.5172756999996,,,,,,,,0,1,7.177899299999808,None,,,,,,,,891,20,M,R,2026-02-23_12h00.55.372,VisualSearch_2526_3,,2025.2.4,2026-02-23 12h00.55.585211 +0100,
tilted.xlsx,The target is tilted.,117,114,2,14,1,1,1,1,0,0,0,0,0,0,0,0,0,3,4,117,space,6.335571499999787,None,1,1,1.1870485999997982,None,space,5.696358000000146,None,0,0,0,0,,,,,14,2,114,2,380.92482400000017,,,,,,,,,,,,,,,,,,,,,380.9095548999999,380.92482400000017,381.40838029999986,381.41291580000006,381.42925890000015,382.6251520999999,,,,,382.6253499999998,382.64033770000015,382.84061109999993,382.82453750000013,381.42925890000015,,,,,,,,1,1,1.1870485999997982,None,,,,,,,,891,20,M,R,2026-02-23_12h00.55.372,VisualSearch_2526_3,,2025.2.4,2026-02-23 12h00.55.585211 +0100,
tilted.xlsx,The target is tilted.,117,115,3,14,1,1,1,1,1,1,1,1,0,0,0,0,0,7,8,117,space,6.335571499999787,None,1,1,1.072633799999494,None,space,5.696358000000146,None,0,0,0,0,,,,,14,3,115,1,382.84061109999993,,,,,,,,,,,,,,,,,,,,,382.82524429999967,382.84061109999993,383.3241173000001,383.3286794999999,383.34497879999935,384.42413239999996,,,,,384.42432770000005,384.4397978000002,384.6394089999999,384.6235168999997,383.34497879999935,,,,,,,,1,1,1.072633799999494,None,,,,,,,,891,20,M,R,2026-02-23_12h00.55.372,VisualSearch_2526_3,,2025.2.4,2026-02-23 12h00.55.585211 +0100,
tilted.xlsx,The target is tilted.,117,116,4,14,1,0,0,0,0,0,0,0,0,0,0,0,0,0,1,117,space,6.335571499999787,None,1,1,0.5654352000001381,None,space,5.696358000000146,None,0,0,0,0,,,,,14,4,116,3,384.6394089999999,,,,,,,,,,,,,,,,,,,,,384.6242496,384.6394089999999,385.1235363999999,385.1280663000002,385.1431207999999,385.72372979999955,,,,,385.7239182999997,385.73893850000013,385.93902930000013,385.92309369999975,385.1431207999999,,,,,,,,1,1,0.5654352000001381,None,,,,,,,,891,20,M,R,2026-02-23_12h00.55.372,VisualSearch_2526_3,,2025.2.4,2026-02-23 12h00.55.585211 +0100,
tilted.xlsx,The target is tilted.,117,117,5,14,0,1,1,1,1,1,1,1,1,1,1,1,1,11,12,117,space,6.335571499999787,None,0,1,4.214400199999545,None,space,5.696358000000146,None,0,0,0,0,,,,,14,5,117,4,385.93902930000013,,,,,,,,,,,,,,,,,,,,,385.92385409999997,385.93902930000013,386.4228621999996,386.4274660999995,386.44542369999954,390.6714698999999,,,,,390.67166469999984,390.68700880000006,390.8866594999995,390.87070989999984,386.44542369999954,,,,,,,,0,1,4.214400199999545,None,,,,,,,,891,20,M,R,2026-02-23_12h00.55.372,VisualSearch_2526_3,,2025.2.4,2026-02-23 12h00.55.585211 +0100,
tilted.xlsx,The target is tilted.,117,118,6,14,0,0,0,0,0,0,0,0,0,0,0,0,1,1,1,117,space,6.335571499999787,None,0,1,0.9102105000001757,None,space,5.696358000000146,None,0,0,0,0,,,,,14,6,118,7,390.8866594999995,,,,,,,,,,,,,,,,,,,,,390.87144260000014,390.8866594999995,391.3706599000002,391.3751433000002,391.3865399000001,392.3040906000001,,,,,392.30424859999994,392.31953419999945,392.51951959999997,392.5034506999996,391.3865399000001,,,,,,,,0,1,0.9102105000001757,None,,,,,,,,891,20,M,R,2026-02-23_12h00.55.372,VisualSearch_2526_3,,2025.2.4,2026-02-23 12h00.55.585211 +0100,
tilted.xlsx,The target is tilted.,117,119,7,14,0,1,1,1,0,0,0,0,0,0,0,0,1,3,4,117,space,6.335571499999787,None,0,1,0.8759060999991561,None,space,5.696358000000146,None,0,0,0,0,,,,,14,7,119,6,392.51951959999997,,,,,,,,,,,,,,,,,,,,,392.5041790999999,392.51951959999997,393.0032658999994,393.0077666000002,393.02279659999977,393.9029991000002,,,,,393.9031917999996,393.91865069999994,394.1343855,394.10257390000015,393.02279659999977,,,,,,,,0,1,0.8759060999991561,None,,,,,,,,891,20,M,R,2026-02-23_12h00.55.372,VisualSearch_2526_3,,2025.2.4,2026-02-23 12h00.55.585211 +0100,
tilted.xlsx,The target is tilted.,117,0,0,0,,,,,,,,,,,,,,,,,space,6.335571499999787,None,,,,,space,5.696358000000146,None,0,0,0,0,,,,,,,,,,,,,,,,,,,,,,,,,,,,,,,,,,,,,,,,,,,,,,,,,,,,,,,,,,,,,,,891,20,M,R,2026-02-23_12h00.55.372,VisualSearch_2526_3,,2025.2.4,2026-02-23 12h00.55.585211 +0100,
vertical.xlsx,The target is tilted.,135,0,0,0,0,1,1,1,1,1,1,1,0,0,0,0,1,7,8,135,space,10.007043599999633,None,0,1,1.4688343999996505,None,,,,0,1,1,1,0,0,0,5,,,,,404.1793439999997,,,,,,,,,,,,,,,394.1343855,394.1343855,394.1343855,space,10.007043599999633,None,404.17491609999934,404.1793439999997,404.6642876000001,404.6689475999997,404.6845336000001,406.1644308,0,1,1.4688343999996505,None,406.16462850000016,406.17999610000015,406.37969909999947,406.3638608999995,,,,,,,,,,,,,,,,,,,,891,20,M,R,2026-02-23_12h00.55.372,VisualSearch_2526_3,,2025.2.4,2026-02-23 12h00.55.585211 +0100,
vertical.xlsx,The target is tilted.,135,1,1,0,1,1,1,1,1,1,1,1,0,0,0,0,0,7,8,135,space,10.007043599999633,None,1,1,1.176200200000494,None,,,,0,1,1,1,0,1,1,1,,,,,406.37969909999947,,,,,,,,,,,,,,,,,,,,,406.36451219999935,406.37969909999947,406.8635840000002,406.86809309999944,406.88452559999996,408.0636598999995,1,1,1.176200200000494,None,408.0638581999997,408.0787768999994,408.27891129999944,408.26282219999985,406.88452559999996,,,,,,,,,,,,,,,,,,,891,20,M,R,2026-02-23_12h00.55.372,VisualSearch_2526_3,,2025.2.4,2026-02-23 12h00.55.585211 +0100,
vertical.xlsx,The target is tilted.,135,2,2,0,1,1,1,1,1,1,1,1,1,1,1,1,0,11,12,135,space,10.007043599999633,None,1,1,0.7495427000003474,None,,,,0,1,1,1,0,2,2,0,,,,,408.27891129999944,,,,,,,,,,,,,,,,,,,,,408.2635094000002,408.27891129999944,408.7627044999995,408.76734439999973,408.78560119999975,409.54626400000006,1,1,0.7495427000003474,None,409.54644979999966,409.56165120000014,409.7617151999998,409.74563459999945,408.78560119999975,,,,,,,,,,,,,,,,,,,891,20,M,R,2026-02-23_12h00.55.372,VisualSearch_2526_3,,2025.2.4,2026-02-23 12h00.55.585211 +0100,
vertical.xlsx,The target is tilted.,135,3,3,0,0,1,1,1,0,0,0,0,0,0,0,0,1,3,4,135,space,10.007043599999633,None,0,1,0.7831571999995504,None,,,,0,1,1,1,0,3,3,6,,,,,409.7617151999998,,,,,,,,,,,,,,,,,,,,,409.74632189999966,409.7617151999998,410.2454977000002,410.24996819999933,410.2655899999995,411.0622294,0,1,0.7831571999995504,None,411.0624150999997,411.0776738999998,411.2776901000002,411.26152090000005,410.2655899999995,,,,,,,,,,,,,,,,,,,891,20,M,R,2026-02-23_12h00.55.372,VisualSearch_2526_3,,2025.2.4,2026-02-23 12h00.55.585211 +0100,
vertical.xlsx,The target is tilted.,135,4,4,0,0,1,1,1,1,1,1,1,1,1,1,1,1,11,12,135,space,10.007043599999633,None,0,1,1.0551121999997122,None,,,,0,1,1,1,0,4,4,4,,,,,411.2776901000002,,,,,,,,,,,,,,,,,,,,,411.26219749999973,411.2776901000002,411.7612955999998,411.76580309999963,411.7814300999994,412.8446952999998,0,1,1.0551121999997122,None,412.8448806000001,412.8598073999997,413.0601574999996,413.0440365999998,411.7814300999994,,,,,,,,,,,,,,,,,,,891,20,M,R,2026-02-23_12h00.55.372,VisualSearch_2526_3,,2025.2.4,2026-02-23 12h00.55.585211 +0100,
vertical.xlsx,The target is tilted.,135,5,5,0,1,0,0,0,0,0,0,0,0,0,0,0,0,0,1,135,space,10.007043599999633,None,1,1,0.4418307999994795,None,,,,0,1,1,1,0,5,5,3,,,,,413.0601574999996,,,,,,,,,,,,,,,,,,,,,413.04471779999994,413.0601574999996,413.5438487999995,413.54844189999994,413.56480239999973,414.01060349999943,1,1,0.4418307999994795,None,414.0107895999995,414.0264000000002,414.2263200000002,414.2101047000001,413.56480239999973,,,,,,,,,,,,,,,,,,,891,20,M,R,2026-02-23_12h00.55.372,VisualSearch_2526_3,,2025.2.4,2026-02-23 12h00.55.585211 +0100,
vertical.xlsx,The target is tilted.,135,6,6,0,1,1,1,1,0,0,0,0,0,0,0,0,0,3,4,135,space,10.007043599999633,None,1,1,0.4810427000002164,None,,,,0,1,1,1,0,6,6,2,,,,,414.2263200000002,,,,,,,,,,,,,,,,,,,,,414.2107966999997,414.2263200000002,414.70998800000007,414.71453789999987,414.7309259999997,415.22674159999997,1,1,0.4810427000002164,None,415.22689599999967,415.24253180000005,415.44243139999935,415.4263384000001,414.7309259999997,,,,,,,,,,,,,,,,,,,891,20,M,R,2026-02-23_12h00.55.372,VisualSearch_2526_3,,2025.2.4,2026-02-23 12h00.55.585211 +0100,
vertical.xlsx,The target is tilted.,135,7,7,0,0,0,0,0,0,0,0,0,0,0,0,0,1,1,1,135,space,10.007043599999633,None,0,1,0.5939405999997689,None,,,,0,1,1,1,0,7,7,7,,,,,415.44243139999935,,,,,,,,,,,,,,,,,,,,,415.4270144999996,415.44243139999935,415.9258563999997,415.93073199999935,415.94748819999995,416.54273259999945,0,1,0.5939405999997689,None,416.5429196,416.55817269999943,416.75868200000014,416.7425834999999,415.94748819999995,,,,,,,,,,,,,,,,,,,891,20,M,R,2026-02-23_12h00.55.372,VisualSearch_2526_3,,2025.2.4,2026-02-23 12h00.55.585211 +0100,
vertical.xlsx,The target is tilted.,135,0,0,0,1,1,1,1,1,1,1,1,0,0,0,0,0,7,8,135,space,10.007043599999633,None,1,1,0.8425636000001759,None,space,1.7891646999996738,None,0,1,1,1,,,,,0,0,0,1,418.57766889999994,,,,,,,,,,,,,,,,,,,,,418.57394519999934,418.57766889999994,419.0744663999999,419.07904649999955,419.0967068999994,419.941472,,,,,419.94166339999947,419.95698069999935,420.15696960000014,420.1407143000001,,416.7503647999997,416.75868200000014,416.75868200000014,418.5587062999998,space,1.7891646999996738,None,1,1,0.8425636000001759,None,,,,,,,,891,20,M,R,2026-02-23_12h00.55.372,VisualSearch_2526_3,,2025.2.4,2026-02-23 12h00.55.585211 +0100,
vertical.xlsx,The target is tilted.,135,1,1,0,0,1,1,1,0,0,0,0,0,0,0,0,1,3,4,135,space,10.007043599999633,None,0,1,0.5511790999998993,None,space,1.7891646999996738,None,0,1,1,1,,,,,0,1,1,6,420.15696960000014,,,,,,,,,,,,,,,,,,,,,420.14143120000017,420.15696960000014,420.6403851,420.6449017,420.66095839999934,421.22427860000016,,,,,421.22447650000004,421.2397320999994,421.4396095999996,421.4237877999999,420.66095839999934,,,,,,,,0,1,0.5511790999998993,None,,,,,,,,891,20,M,R,2026-02-23_12h00.55.372,VisualSearch_2526_3,,2025.2.4,2026-02-23 12h00.55.585211 +0100,
vertical.xlsx,The target is tilted.,135,2,2,0,0,0,0,0,0,0,0,0,0,0,0,0,1,1,1,135,space,10.007043599999633,None,0,1,0.47583709999980783,None,space,1.7891646999996738,None,0,1,1,1,,,,,0,2,2,7,421.4396095999996,,,,,,,,,,,,,,,,,,,,,421.4245956,421.4396095999996,421.92342210000015,421.9278935999996,421.94309810000004,422.42333459999963,,,,,422.42352809999966,422.4389199000002,422.6390570999997,422.62311499999987,421.94309810000004,,,,,,,,0,1,0.47583709999980783,None,,,,,,,,891,20,M,R,2026-02-23_12h00.55.372,VisualSearch_2526_3,,2025.2.4,2026-02-23 12h00.55.585211 +0100,
vertical.xlsx,The target is tilted.,135,3,3,0,0,1,1,1,1,1,1,1,1,1,1,1,1,11,12,135,space,10.007043599999633,None,0,1,1.3767275000000154,None,space,1.7891646999996738,None,0,1,1,1,,,,,0,3,3,4,422.6390570999997,,,,,,,,,,,,,,,,,,,,,422.62381849999974,422.6390570999997,423.12283780000007,423.12729809999973,423.1437728999995,424.5227282000001,,,,,424.5229171999995,424.53808979999985,424.73827669999946,424.72206400000005,423.1437728999995,,,,,,,,0,1,1.3767275000000154,None,,,,,,,,891,20,M,R,2026-02-23_12h00.55.372,VisualSearch_2526_3,,2025.2.4,2026-02-23 12h00.55.585211 +0100,
vertical.xlsx,The target is tilted.,135,4,4,0,0,1,1,1,1,1,1,1,0,0,0,0,1,7,8,135,space,10.007043599999633,None,0,1,0.865492699999777,None,space,1.7891646999996738,None,0,1,1,1,,,,,0,4,4,5,424.73827669999946,,,,,,,,,,,,,,,,,,,,,424.7228175999994,424.73827669999946,425.22183839999934,425.22633989999986,425.2419224,426.12147760000016,,,,,426.12161699999933,426.1375409999996,426.33750569999984,426.32126729999936,425.2419224,,,,,,,,0,1,0.865492699999777,None,,,,,,,,891,20,M,R,2026-02-23_12h00.55.372,VisualSearch_2526_3,,2025.2.4,2026-02-23 12h00.55.585211 +0100,
vertical.xlsx,The target is tilted.,135,5,5,0,1,1,1,1,0,0,0,0,0,0,0,0,0,3,4,135,space,10.007043599999633,None,1,1,0.5452218000000357,None,space,1.7891646999996738,None,0,1,1,1,,,,,0,5,5,2,426.33750569999984,,,,,,,,,,,,,,,,,,,,,426.32201570000007,426.33750569999984,426.8210415999997,426.8255558999995,426.8413826000001,427.38772389999986,,,,,427.3879170999994,427.40353920000007,427.6036376999996,427.58747019999964,426.8413826000001,,,,,,,,1,1,0.5452218000000357,None,,,,,,,,891,20,M,R,2026-02-23_12h00.55.372,VisualSearch_2526_3,,2025.2.4,2026-02-23 12h00.55.585211 +0100,
vertical.xlsx,The target is tilted.,135,6,6,0,1,0,0,0,0,0,0,0,0,0,0,0,0,0,1,135,space,10.007043599999633,None,1,1,0.39072699999996985,None,space,1.7891646999996738,None,0,1,1,1,,,,,0,6,6,3,427.6036376999996,,,,,,,,,,,,,,,,,,,,,427.58822610000016,427.6036376999996,428.0873274999999,428.09178779999957,428.10699479999994,428.5042467999997,,,,,428.5044389999998,428.5197545999995,428.7196159,428.7035632000002,428.10699479999994,,,,,,,,1,1,0.39072699999996985,None,,,,,,,,891,20,M,R,2026-02-23_12h00.55.372,VisualSearch_2526_3,,2025.2.4,2026-02-23 12h00.55.585211 +0100,
vertical.xlsx,The target is tilted.,135,7,7,0,1,1,1,1,1,1,1,1,1,1,1,1,0,11,12,135,space,10.007043599999633,None,1,1,0.5417026000004626,None,space,1.7891646999996738,None,0,1,1,1,,,,,0,7,7,0,428.7196159,,,,,,,,,,,,,,,,,,,,,428.70430819999956,428.7196159,429.20293939999965,429.2074910999995,429.2256090999995,429.77006949999986,,,,,429.7702698999997,429.7857935999996,429.98588809999956,429.96937539999954,429.2256090999995,,,,,,,,1,1,0.5417026000004626,None,,,,,,,,891,20,M,R,2026-02-23_12h00.55.372,VisualSearch_2526_3,,2025.2.4,2026-02-23 12h00.55.585211 +0100,
vertical.xlsx,The target is tilted.,135,8,0,1,0,1,1,1,1,1,1,1,0,0,0,0,1,7,8,135,space,10.007043599999633,None,0,1,0.6758475000006001,None,space,1.7891646999996738,None,0,1,1,1,,,,,1,0,8,5,429.98588809999956,,,,,,,,,,,,,,,,,,,,,429.97011169999996,429.98588809999956,430.46944440000016,430.47441819999995,430.4913008999997,431.1693755000001,,,,,431.1695679999998,431.1851428999994,431.38526069999944,431.3691496999995,430.4913008999997,,,,,,,,0,1,0.6758475000006001,None,,,,,,,,891,20,M,R,2026-02-23_12h00.55.372,VisualSearch_2526_3,,2025.2.4,2026-02-23 12h00.55.585211 +0100,
vertical.xlsx,The target is tilted.,135,9,1,1,0,1,1,1,1,1,1,1,1,1,1,1,1,11,12,135,space,10.007043599999633,None,0,1,1.3299631999998383,None,space,1.7891646999996738,None,0,1,1,1,,,,,1,1,9,4,431.38526069999944,,,,,,,,,,,,,,,,,,,,,431.3698782999995,431.38526069999944,431.8690643999994,431.8740021999997,431.8906093999999,433.2359557999994,,,,,433.2361486999994,433.2506656999999,433.45088239999995,433.4347204999999,431.8906093999999,,,,,,,,0,1,1.3299631999998383,None,,,,,,,,891,20,M,R,2026-02-23_12h00.55.372,VisualSearch_2526_3,,2025.2.4,2026-02-23 12h00.55.585211 +0100,
vertical.xlsx,The target is tilted.,135,10,2,1,0,0,0,0,0,0,0,0,0,0,0,0,1,1,1,135,space,10.007043599999633,None,0,1,0.5983668999997462,None,space,1.7891646999996738,None,0,1,1,1,,,,,1,2,10,7,433.45088239999995,,,,,,,,,,,,,,,,,,,,,433.43553010000005,433.45088239999995,433.93432729999995,433.9388133999996,433.95052989999976,434.55150920000005,,,,,434.5517017999996,434.5667282999998,434.7670220999994,434.7508570999994,433.95052989999976,,,,,,,,0,1,0.5983668999997462,None,,,,,,,,891,20,M,R,2026-02-23_12h00.55.372,VisualSearch_2526_3,,2025.2.4,2026-02-23 12h00.55.585211 +0100,
vertical.xlsx,The target is tilted.,135,11,3,1,1,1,1,1,1,1,1,1,0,0,0,0,0,7,8,135,space,10.007043599999633,None,1,1,0.6044475000007878,None,space,1.7891646999996738,None,0,1,1,1,,,,,1,3,11,1,434.7670220999994,,,,,,,,,,,,,,,,,,,,,434.7515704000002,434.7670220999994,435.2503486999999,435.2548505999998,435.27132519999986,435.8840889999997,,,,,435.88427920000004,435.89967509999997,436.0995527,436.0833751999994,435.27132519999986,,,,,,,,1,1,0.6044475000007878,None,,,,,,,,891,20,M,R,2026-02-23_12h00.55.372,VisualSearch_2526_3,,2025.2.4,2026-02-23 12h00.55.585211 +0100,
vertical.xlsx,The target is tilted.,135,12,4,1,1,1,1,1,0,0,0,0,0,0,0,0,0,3,4,135,space,10.007043599999633,None,1,1,0.5614960000002611,None,space,1.7891646999996738,None,0,1,1,1,,,,,1,4,12,2,436.0995527,,,,,,,,,,,,,,,,,,,,,436.0841051000002,436.0995527,436.58346349999965,436.5880438999998,436.6035385,437.16619429999946,,,,,437.16629760000023,437.18213999999944,437.38249739999947,437.36642449999954,436.6035385,,,,,,,,1,1,0.5614960000002611,None,,,,,,,,891,20,M,R,2026-02-23_12h00.55.372,VisualSearch_2526_3,,2025.2.4,2026-02-23 12h00.55.585211 +0100,
vertical.xlsx,The target is tilted.,135,13,5,1,1,1,1,1,1,1,1,1,1,1,1,1,0,11,12,135,space,10.007043599999633,None,1,1,1.3364744999998948,None,space,1.7891646999996738,None,0,1,1,1,,,,,1,5,13,0,437.38249739999947,,,,,,,,,,,,,,,,,,,,,437.36714619999975,437.38249739999947,437.86612809999997,437.8706038999994,437.88768740000023,439.2327554999997,,,,,439.2329501999998,439.2482064000001,439.4478199,439.4319696999996,437.88768740000023,,,,,,,,1,1,1.3364744999998948,None,,,,,,,,891,20,M,R,2026-02-23_12h00.55.372,VisualSearch_2526_3,,2025.2.4,2026-02-23 12h00.55.585211 +0100,
vertical.xlsx,The target is tilted.,135,14,6,1,1,0,0,0,0,0,0,0,0,0,0,0,0,0,1,135,space,10.007043599999633,None,1,1,0.5589694999998756,None,space,1.7891646999996738,None,0,1,1,1,,,,,1,6,14,3,439.4478199,,,,,,,,,,,,,,,,,,,,,439.4327293000001,439.4478199,439.9318357999996,439.9365809999995,439.95201339999994,440.51432739999973,,,,,440.5144035999997,440.53082849999964,,440.7146594999999,439.95201339999994,,,,,,,,1,1,0.5589694999998756,None,,,,,,,,891,20,M,R,2026-02-23_12h00.55.372,VisualSearch_2526_3,,2025.2.4,2026-02-23 12h00.55.585211 +0100,
vertical.xlsx,The target is tilted.,135,15,7,1,0,1,1,1,0,0,0,0,0,0,0,0,1,3,4,135,space,10.007043599999633,None,0,1,0.6104821999997512,None,space,1.7891646999996738,None,0,1,1,1,,,,,1,7,15,6,440.7306029999995,,,,,,,,,,,,,,,,,,,,,440.7153979999998,440.7306029999995,441.21470569999974,441.21919750000006,441.2368242999996,441.86414829999967,,,,,441.8642374999995,441.88015099999984,442.08035470000004,442.06428769999957,441.2368242999996,,,,,,,,0,1,0.6104821999997512,None,,,,,,,,891,20,M,R,2026-02-23_12h00.55.372,VisualSearch_2526_3,,2025.2.4,2026-02-23 12h00.55.585211 +0100,
vertical.xlsx,The target is tilted.,135,16,0,2,0,1,1,1,1,1,1,1,1,1,1,1,1,11,12,135,space,10.007043599999633,None,0,1,1.2528691999996227,None,space,1.7891646999996738,None,0,1,1,1,,,,,2,0,16,4,442.08035470000004,,,,,,,,,,,,,,,,,,,,,442.06505199999947,442.08035470000004,442.56400239999994,442.5684894000001,442.58544369999936,443.8470266999998,,,,,443.84723110000004,443.8624814,444.06277869999985,444.04650189999984,442.58544369999936,,,,,,,,0,1,1.2528691999996227,None,,,,,,,,891,20,M,R,2026-02-23_12h00.55.372,VisualSearch_2526_3,,2025.2.4,2026-02-23 12h00.55.585211 +0100,
vertical.xlsx,The target is tilted.,135,17,1,2,1,1,1,1,0,0,0,0,0,0,0,0,0,3,4,135,space,10.007043599999633,None,1,1,0.738859400000365,None,space,1.7891646999996738,None,0,1,1,1,,,,,2,1,17,2,444.06277869999985,,,,,,,,,,,,,,,,,,,,,444.0472378999998,444.06277869999985,444.54646300000013,444.5510112999996,444.5681045999995,445.31314599999996,,,,,445.3133345000001,445.3287031999994,445.5286169999995,445.5123152000001,444.5681045999995,,,,,,,,1,1,0.738859400000365,None,,,,,,,,891,20,M,R,2026-02-23_12h00.55.372,VisualSearch_2526_3,,2025.2.4,2026-02-23 12h00.55.585211 +0100,
vertical.xlsx,The target is tilted.,135,18,2,2,1,1,1,1,1,1,1,1,1,1,1,1,0,11,12,135,space,10.007043599999633,None,1,1,0.7528216999999131,None,space,1.7891646999996738,None,0,1,1,1,,,,,2,2,18,0,445.5286169999995,,,,,,,,,,,,,,,,,,,,,445.51305189999994,445.5286169999995,446.01241509999954,446.01685510000016,446.0321248999994,446.79581069999995,,,,,446.79600170000003,446.81144319999976,447.01142539999955,446.99536080000007,446.0321248999994,,,,,,,,1,1,0.7528216999999131,None,,,,,,,,891,20,M,R,2026-02-23_12h00.55.372,VisualSearch_2526_3,,2025.2.4,2026-02-23 12h00.55.585211 +0100,
vertical.xlsx,The target is tilted.,135,19,3,2,1,1,1,1,1,1,1,1,0,0,0,0,0,7,8,135,space,10.007043599999633,None,1,1,0.8620946000000913,None,space,1.7891646999996738,None,0,1,1,1,,,,,2,3,19,1,447.01142539999955,,,,,,,,,,,,,,,,,,,,,446.99620599999935,447.01142539999955,447.49520619999976,447.4996933999996,447.51701120000007,448.3957948000002,,,,,448.3959872999999,448.41076719999955,448.6104081999997,448.5944101,447.51701120000007,,,,,,,,1,1,0.8620946000000913,None,,,,,,,,891,20,M,R,2026-02-23_12h00.55.372,VisualSearch_2526_3,,2025.2.4,2026-02-23 12h00.55.585211 +0100,
vertical.xlsx,The target is tilted.,135,20,4,2,0,1,1,1,1,1,1,1,0,0,0,0,1,7,8,135,space,10.007043599999633,None,0,1,0.6989906999997402,None,space,1.7891646999996738,None,0,1,1,1,,,,,2,4,20,5,448.6104081999997,,,,,,,,,,,,,,,,,,,,,448.5951448999999,448.6104081999997,449.0943292999996,449.0988932999994,449.1164985999999,449.82801340000015,,,,,449.8282347999998,449.84331900000006,450.0434276000001,450.0273178000002,449.1164985999999,,,,,,,,0,1,0.6989906999997402,None,,,,,,,,891,20,M,R,2026-02-23_12h00.55.372,VisualSearch_2526_3,,2025.2.4,2026-02-23 12h00.55.585211 +0100,
vertical.xlsx,The target is tilted.,135,21,5,2,1,0,0,0,0,0,0,0,0,0,0,0,0,0,1,135,space,10.007043599999633,None,1,1,0.5002538999997341,None,space,1.7891646999996738,None,0,1,1,1,,,,,2,5,21,3,450.0434276000001,,,,,,,,,,,,,,,,,,,,,450.02801989999944,450.0434276000001,450.52710960000013,450.53160459999935,450.5430176999994,451.0604121000001,,,,,451.06062689999953,451.0759764999998,451.2761994999996,451.2597129999999,450.5430176999994,,,,,,,,1,1,0.5002538999997341,None,,,,,,,,891,20,M,R,2026-02-23_12h00.55.372,VisualSearch_2526_3,,2025.2.4,2026-02-23 12h00.55.585211 +0100,
vertical.xlsx,The target is tilted.,135,22,6,2,0,0,0,0,0,0,0,0,0,0,0,0,1,1,1,135,space,10.007043599999633,None,0,1,0.6061254000005647,None,space,1.7891646999996738,None,0,1,1,1,,,,,2,6,22,7,451.2761994999996,,,,,,,,,,,,,,,,,,,,,451.2604618999999,451.2761994999996,451.75950650000004,451.76401099999975,451.7796693999994,452.3934132999998,,,,,452.3936042,452.40869319999956,452.6087580999997,452.5926420999999,451.7796693999994,,,,,,,,0,1,0.6061254000005647,None,,,,,,,,891,20,M,R,2026-02-23_12h00.55.372,VisualSearch_2526_3,,2025.2.4,2026-02-23 12h00.55.585211 +0100,
vertical.xlsx,The target is tilted.,135,23,7,2,0,1,1,1,0,0,0,0,0,0,0,0,1,3,4,135,space,10.007043599999633,None,0,1,0.9809971000004225,None,space,1.7891646999996738,None,0,1,1,1,,,,,2,7,23,6,452.6087580999997,,,,,,,,,,,,,,,,,,,,,452.59339299999965,452.6087580999997,453.09222660000023,453.09677650000003,453.1120600999998,454.1088456000002,,,,,454.1089754999998,454.1247254999994,454.32479469999953,454.30878410000014,453.1120600999998,,,,,,,,0,1,0.9809971000004225,None,,,,,,,,891,20,M,R,2026-02-23_12h00.55.372,VisualSearch_2526_3,,2025.2.4,2026-02-23 12h00.55.585211 +0100,
vertical.xlsx,The target is tilted.,135,24,0,3,0,1,1,1,0,0,0,0,0,0,0,0,1,3,4,135,space,10.007043599999633,None,0,1,0.5686421999998856,None,space,1.7891646999996738,None,0,1,1,1,,,,,3,0,24,6,454.32479469999953,,,,,,,,,,,,,,,,,,,,,454.30958729999975,454.32479469999953,454.8080857,454.8125924000001,454.82896500000015,455.4085758999995,,,,,455.40874940000003,455.4243314999999,455.6242269999998,455.60765779999974,454.82896500000015,,,,,,,,0,1,0.5686421999998856,None,,,,,,,,891,20,M,R,2026-02-23_12h00.55.372,VisualSearch_2526_3,,2025.2.4,2026-02-23 12h00.55.585211 +0100,
vertical.xlsx,The target is tilted.,135,25,1,3,1,0,0,0,0,0,0,0,0,0,0,0,0,0,1,135,space,10.007043599999633,None,1,1,0.9238450000002558,None,space,1.7891646999996738,None,0,1,1,1,,,,,3,1,25,3,455.6242269999998,,,,,,,,,,,,,,,,,,,,,455.6084593999999,455.6242269999998,456.10748099999955,456.1120034999999,456.12868239999943,457.0579286999996,,,,,457.0581261000002,457.07342500000004,457.2735421000002,457.2573900000002,456.12868239999943,,,,,,,,1,1,0.9238450000002558,None,,,,,,,,891,20,M,R,2026-02-23_12h00.55.372,VisualSearch_2526_3,,2025.2.4,2026-02-23 12h00.55.585211 +0100,
vertical.xlsx,The target is tilted.,135,26,2,3,0,0,0,0,0,0,0,0,0,0,0,0,1,1,1,135,space,10.007043599999633,None,0,1,0.7744755999992776,None,space,1.7891646999996738,None,0,1,1,1,,,,,3,2,26,7,457.2735421000002,,,,,,,,,,,,,,,,,,,,,457.25821700000006,457.2735421000002,457.7569263999999,457.76208329999963,457.77879079999957,458.5569819999996,,,,,458.55717779999986,458.5727088999997,458.7727437999997,458.7566901999994,457.77879079999957,,,,,,,,0,1,0.7744755999992776,None,,,,,,,,891,20,M,R,2026-02-23_12h00.55.372,VisualSearch_2526_3,,2025.2.4,2026-02-23 12h00.55.585211 +0100,
vertical.xlsx,The target is tilted.,135,27,3,3,1,1,1,1,1,1,1,1,0,0,0,0,0,7,8,135,space,10.007043599999633,None,1,1,1.5467670000007274,None,space,1.7891646999996738,None,0,1,1,1,,,,,3,3,27,1,458.7727437999997,,,,,,,,,,,,,,,,,,,,,458.75739250000015,458.7727437999997,459.25595010000006,459.2606859000002,459.2778558999994,460.83923360000017,,,,,460.8393696999997,460.8549474999995,461.0550699999999,461.03890719999936,459.2778558999994,,,,,,,,1,1,1.5467670000007274,None,,,,,,,,891,20,M,R,2026-02-23_12h00.55.372,VisualSearch_2526_3,,2025.2.4,2026-02-23 12h00.55.585211 +0100,
vertical.xlsx,The target is tilted.,135,28,4,3,1,1,1,1,1,1,1,1,1,1,1,1,0,11,12,135,space,10.007043599999633,None,1,1,1.9453313000003618,None,space,1.7891646999996738,None,0,1,1,1,,,,,3,4,28,0,461.0550699999999,,,,,,,,,,,,,,,,,,,,,461.03961630000003,461.0550699999999,461.5387760999997,461.5437141999996,461.5600978999996,463.5213457999994,,,,,463.5215383,463.53715950000014,463.73727819999976,463.72114439999996,461.5600978999996,,,,,,,,1,1,1.9453313000003618,None,,,,,,,,891,20,M,R,2026-02-23_12h00.55.372,VisualSearch_2526_3,,2025.2.4,2026-02-23 12h00.55.585211 +0100,
vertical.xlsx,The target is tilted.,135,29,5,3,0,1,1,1,1,1,1,1,1,1,1,1,1,11,12,135,space,10.007043599999633,None,0,1,2.761748500000067,None,space,1.7891646999996738,None,0,1,1,1,,,,,3,5,29,4,463.73727819999976,,,,,,,,,,,,,,,,,,,,,463.7219706000001,463.73727819999976,464.22075819999964,464.2252902999994,464.2422026999998,467.0193465999996,,,,,467.01949680000007,467.0355211000001,467.2356249999998,467.2193308000001,464.2422026999998,,,,,,,,0,1,2.761748500000067,None,,,,,,,,891,20,M,R,2026-02-23_12h00.55.372,VisualSearch_2526_3,,2025.2.4,2026-02-23 12h00.55.585211 +0100,
vertical.xlsx,The target is tilted.,135,30,6,3,0,1,1,1,1,1,1,1,0,0,0,0,1,7,8,135,space,10.007043599999633,None,0,1,1.6757053999999698,None,space,1.7891646999996738,None,0,1,1,1,,,,,3,6,30,5,467.2356249999998,,,,,,,,,,,,,,,,,,,,,467.2200917999994,467.2356249999998,467.7192050999997,467.7237249999994,467.7401149000002,469.41880209999954,,,,,469.4189776999997,469.43455529999983,469.6340269999996,469.61792990000004,467.7401149000002,,,,,,,,0,1,1.6757053999999698,None,,,,,,,,891,20,M,R,2026-02-23_12h00.55.372,VisualSearch_2526_3,,2025.2.4,2026-02-23 12h00.55.585211 +0100,
vertical.xlsx,The target is tilted.,135,31,7,3,1,1,1,1,0,0,0,0,0,0,0,0,0,3,4,135,space,10.007043599999633,None,1,1,0.7735028000006423,None,space,1.7891646999996738,None,0,1,1,1,,,,,3,7,31,2,469.6340269999996,,,,,,,,,,,,,,,,,,,,,469.6182966000001,469.6340269999996,470.11823139999933,470.1227431000002,470.1392136999998,470.91757649999954,,,,,470.91767239999945,470.93334430000004,471.13384649999944,471.117745,470.1392136999998,,,,,,,,1,1,0.7735028000006423,None,,,,,,,,891,20,M,R,2026-02-23_12h00.55.372,VisualSearch_2526_3,,2025.2.4,2026-02-23 12h00.55.585211 +0100,
vertical.xlsx,The target is tilted.,135,32,0,4,1,1,1,1,1,1,1,1,1,1,1,1,0,11,12,135,space,10.007043599999633,None,1,1,1.458213799999612,None,space,1.7891646999996738,None,0,1,1,1,,,,,4,0,32,0,471.13384649999944,,,,,,,,,,,,,,,,,,,,,471.1184529999996,471.13384649999944,471.6175011,471.6220032999995,471.6388775999999,473.0998752999999,,,,,473.0999594,473.1157244000001,473.3161918999999,473.29996710000023,471.6388775999999,,,,,,,,1,1,1.458213799999612,None,,,,,,,,891,20,M,R,2026-02-23_12h00.55.372,VisualSearch_2526_3,,2025.2.4,2026-02-23 12h00.55.585211 +0100,
vertical.xlsx,The target is tilted.,135,33,1,4,1,0,0,0,0,0,0,0,0,0,0,0,0,0,1,135,space,10.007043599999633,None,1,1,0.8286779000000024,None,space,1.7891646999996738,None,0,1,1,1,,,,,4,1,33,3,473.3161918999999,,,,,,,,,,,,,,,,,,,,,473.30070659999956,473.3161918999999,473.7994487000001,473.8039606999996,473.82113829999935,474.6664125000002,,,,,474.66658830000006,474.68207239999947,474.88205830000015,474.86587610000015,473.82113829999935,,,,,,,,1,1,0.8286779000000024,None,,,,,,,,891,20,M,R,2026-02-23_12h00.55.372,VisualSearch_2526_3,,2025.2.4,2026-02-23 12h00.55.585211 +0100,
vertical.xlsx,The target is tilted.,135,34,2,4,1,1,1,1,0,0,0,0,0,0,0,0,0,3,4,135,space,10.007043599999633,None,1,1,0.5226345000000947,None,space,1.7891646999996738,None,0,1,1,1,,,,,4,2,34,2,474.88205830000015,,,,,,,,,,,,,,,,,,,,,474.86669669999947,474.88205830000015,475.36571609999964,475.3702096000002,475.3871895999996,475.91583390000005,,,,,475.91600719999997,475.9315695,476.1312928000002,476.1151205000001,475.3871895999996,,,,,,,,1,1,0.5226345000000947,None,,,,,,,,891,20,M,R,2026-02-23_12h00.55.372,VisualSearch_2526_3,,2025.2.4,2026-02-23 12h00.55.585211 +0100,
