file_name,block_instructions,target_example,thisN,thisTrialN,thisRepN,target_presence,opacity_1,opacity_2,opacity_3,opacity_4,opacity_5,opacity_6,opacity_7,opacity_8,opacity_9,opacity_10,opacity_11,opacity_12,n_distract,n_items,target_ori,key_resp_4.keys,key_resp_4.rt,key_resp_4.duration,key_resp.keys,key_resp.corr,key_resp.rt,key_resp.duration,key_resp_5.keys,key_resp_5.rt,key_resp_5.duration,blocks.thisRepN,blocks.thisTrialN,blocks.thisN,blocks.thisIndex,practice_trials.thisRepN,practice_trials.thisTrialN,practice_trials.thisN,practice_trials.thisIndex,trials.thisRepN,trials.thisTrialN,trials.thisN,trials.thisIndex,thisRow.t,notes,Welcome.started,WelcomeText.started,key_resp_2.started,Welcome.stopped,key_resp_2.keys,key_resp_2.rt,key_resp_2.duration,InformedConsent.started,text_4.started,InformedConsent.stopped,key_resp_6.keys,key_resp_6.rt,key_resp_6.duration,key_resp_4.started,example_target.started,text_3.started,blocks.key_resp_4.keys,blocks.key_resp_4.rt,blocks.key_resp_4.duration,FixCross.started,fixCross.started,FixCross.stopped,Stimulus.started,key_resp.started,Stimulus.stopped,practice_trials.key_resp.keys,practice_trials.key_resp.corr,practice_trials.key_resp.rt,practice_trials.key_resp.duration,BlankScreen.started,text.started,text.stopped,BlankScreen.stopped,fixCross.stopped,ExperimentStart.started,text_2.started,key_resp_5.started,ExperimentStart.stopped,blocks.key_resp_5.keys,blocks.key_resp_5.rt,blocks.key_resp_5.duration,trials.key_resp.keys,trials.key_resp.corr,trials.key_resp.rt,trials.key_resp.duration,Thanks.started,ThankYou.started,key_resp_3.started,Thanks.stopped,key_resp_3.keys,key_resp_3.rt,key_resp_3.duration,participant,leeftijd,gender,links/rechtshandig,date,expName,expVersion,psychopyVersion,expStart,
,,,,,,,,,,,,,,,,,,,,,,,,,,,,,,,,,,,,,,,,,,,,,,0.020411299999977928,0.03154689999996663,0.03154689999996663,32.276908599999956,space,32.15331800000001,None,,,,,,,,,,,,,,,,,,,,,,,,,,,,,,,,,,,,,,,,,,,,,,892,22,M,R,2026-02-25_11h04.37.889,VisualSearch_2526_3,,2025.2.4,2026-02-25 11h04.38.394919 +0100,
,,,,,,,,,,,,,,,,,,,,,,,,,,,,,,,,,,,,,,,,,,,,,,,,,,,,,32.27695470000003,32.28219439999998,35.25302929999998,y,2.964670000000069,None,,,,,,,,,,,,,,,,,,,,,,,,,,,,,,,,,,,,,,,,892,22,M,R,2026-02-25_11h04.37.889,VisualSearch_2526_3,,2025.2.4,2026-02-25 11h04.38.394919 +0100,
tilted.xlsx,The target is tilted.,117,0,0,0,0,1,1,1,1,1,1,1,1,1,1,1,1,11,12,117,space,4.312021600000094,None,0,1,3.9152768999999807,None,,,,0,0,0,0,0,0,0,4,,,,,39.731987000000004,,,,,,,,,,,,,,,35.356016400000044,35.356016400000044,35.356016400000044,space,4.312021600000094,None,39.727616799999964,39.731987000000004,40.200062900000034,40.204840399999966,40.221599200000014,44.14906099999996,0,1,3.9152768999999807,None,44.14925459999995,44.164570000000026,44.36443510000004,44.348306200000025,,,,,,,,,,,,,,,,,,,,892,22,M,R,2026-02-25_11h04.37.889,VisualSearch_2526_3,,2025.2.4,2026-02-25 11h04.38.394919 +0100,
tilted.xlsx,The target is tilted.,117,1,1,0,1,1,1,1,1,1,1,1,0,0,0,0,0,7,8,117,space,4.312021600000094,None,1,1,2.5706537999999455,None,,,,0,0,0,0,0,1,1,1,,,,,44.36443510000004,,,,,,,,,,,,,,,,,,,,,44.349050300000044,44.36443510000004,44.848173599999996,44.852743799999985,44.86953300000005,47.44733459999998,1,1,2.5706537999999455,None,47.447505699999965,47.46302960000003,47.66296550000004,47.646783400000004,44.86953300000005,,,,,,,,,,,,,,,,,,,892,22,M,R,2026-02-25_11h04.37.889,VisualSearch_2526_3,,2025.2.4,2026-02-25 11h04.38.394919 +0100,
tilted.xlsx,The target is tilted.,117,2,2,0,1,1,1,1,1,1,1,1,1,1,1,1,0,11,12,117,space,4.312021600000094,None,1,1,0.9440985999999612,None,,,,0,0,0,0,0,2,2,0,,,,,47.66296550000004,,,,,,,,,,,,,,,,,,,,,47.64751920000003,47.66296550000004,48.14663099999996,48.15124449999996,48.168943799999965,49.12995169999999,1,1,0.9440985999999612,None,49.13014069999997,49.145078799999965,49.345683699999995,49.32956039999999,48.168943799999965,,,,,,,,,,,,,,,,,,,892,22,M,R,2026-02-25_11h04.37.889,VisualSearch_2526_3,,2025.2.4,2026-02-25 11h04.38.394919 +0100,
tilted.xlsx,The target is tilted.,117,3,3,0,0,0,0,0,0,0,0,0,0,0,0,0,1,1,1,117,space,4.312021600000094,None,0,1,1.211206700000048,None,,,,0,0,0,0,0,3,3,7,,,,,49.345683699999995,,,,,,,,,,,,,,,,,,,,,49.33030640000004,49.345683699999995,49.82931150000002,49.83396010000001,49.85291489999997,51.07899859999998,0,1,1.211206700000048,None,51.079196199999956,51.09432519999996,51.29432350000002,51.27845449999995,49.85291489999997,,,,,,,,,,,,,,,,,,,892,22,M,R,2026-02-25_11h04.37.889,VisualSearch_2526_3,,2025.2.4,2026-02-25 11h04.38.394919 +0100,
tilted.xlsx,The target is tilted.,117,4,4,0,1,0,0,0,0,0,0,0,0,0,0,0,0,0,1,117,space,4.312021600000094,None,1,1,0.8357191999999714,None,,,,0,0,0,0,0,4,4,3,,,,,51.29432350000002,,,,,,,,,,,,,,,,,,,,,51.2791909,51.29432350000002,51.777997899999946,51.782623599999965,51.80113389999997,52.64521339999999,1,1,0.8357191999999714,None,52.64540469999997,52.66023199999995,52.86031049999997,52.84453780000001,51.80113389999997,,,,,,,,,,,,,,,,,,,892,22,M,R,2026-02-25_11h04.37.889,VisualSearch_2526_3,,2025.2.4,2026-02-25 11h04.38.394919 +0100,
tilted.xlsx,The target is tilted.,117,5,5,0,1,1,1,1,0,0,0,0,0,0,0,0,0,3,4,117,space,4.312021600000094,None,1,1,0.9870742000000519,None,,,,0,0,0,0,0,5,5,2,,,,,52.86031049999997,,,,,,,,,,,,,,,,,,,,,52.84517549999998,52.86031049999997,53.34426099999996,53.34896349999997,53.36030040000003,54.360424999999964,1,1,0.9870742000000519,None,54.36062179999999,54.376140899999996,54.57659560000002,54.559903899999995,53.36030040000003,,,,,,,,,,,,,,,,,,,892,22,M,R,2026-02-25_11h04.37.889,VisualSearch_2526_3,,2025.2.4,2026-02-25 11h04.38.394919 +0100,
tilted.xlsx,The target is tilted.,117,6,6,0,0,1,1,1,0,0,0,0,0,0,0,0,1,3,4,117,space,4.312021600000094,None,0,1,0.7401026000000002,None,,,,0,0,0,0,0,6,6,6,,,,,54.57659560000002,,,,,,,,,,,,,,,,,,,,,54.56054080000001,54.57659560000002,55.060323100000005,55.06536310000001,55.08205669999995,55.82670059999998,0,1,0.7401026000000002,None,55.826890400000025,55.842151299999955,56.042404499999975,56.02635499999997,55.08205669999995,,,,,,,,,,,,,,,,,,,892,22,M,R,2026-02-25_11h04.37.889,VisualSearch_2526_3,,2025.2.4,2026-02-25 11h04.38.394919 +0100,
tilted.xlsx,The target is tilted.,117,7,7,0,0,1,1,1,1,1,1,1,0,0,0,0,1,7,8,117,space,4.312021600000094,None,0,1,2.232359200000019,None,,,,0,0,0,0,0,7,7,5,,,,,56.042404499999975,,,,,,,,,,,,,,,,,,,,,56.02705060000005,56.042404499999975,56.52582359999997,56.53053780000005,56.54407790000005,58.79151469999999,0,1,2.232359200000019,None,58.79167099999995,58.80733680000003,59.01348280000002,58.99138819999996,56.54407790000005,,,,,,,,,,,,,,,,,,,892,22,M,R,2026-02-25_11h04.37.889,VisualSearch_2526_3,,2025.2.4,2026-02-25 11h04.38.394919 +0100,
tilted.xlsx,The target is tilted.,117,0,0,0,0,1,1,1,1,1,1,1,0,0,0,0,1,7,8,117,space,4.312021600000094,None,0,1,3.1873873999999205,None,space,2.5495958999999857,None,0,0,0,0,,,,,0,0,0,5,61.59211300000004,,,,,,,,,,,,,,,,,,,,,61.58827299999996,61.59211300000004,62.09016559999998,62.09518890000004,62.10625419999997,65.30575280000005,,,,,65.30603250000001,65.32099419999997,65.5215806,65.50534319999997,,59.0090821,59.01348280000002,59.01348280000002,61.57352270000001,space,2.5495958999999857,None,0,1,3.1873873999999205,None,,,,,,,,892,22,M,R,2026-02-25_11h04.37.889,VisualSearch_2526_3,,2025.2.4,2026-02-25 11h04.38.394919 +0100,
tilted.xlsx,The target is tilted.,117,1,1,0,0,0,0,0,0,0,0,0,0,0,0,0,1,1,1,117,space,4.312021600000094,None,0,1,0.7806772999999794,None,space,2.5495958999999857,None,0,0,0,0,,,,,0,1,1,7,65.5215806,,,,,,,,,,,,,,,,,,,,,65.50611549999996,65.5215806,66.00511589999996,66.00979610000002,66.02860350000003,66.82169399999998,,,,,66.82189419999997,66.83696980000002,67.03751890000001,67.021478,66.02860350000003,,,,,,,,0,1,0.7806772999999794,None,,,,,,,,892,22,M,R,2026-02-25_11h04.37.889,VisualSearch_2526_3,,2025.2.4,2026-02-25 11h04.38.394919 +0100,
tilted.xlsx,The target is tilted.,117,2,2,0,1,1,1,1,0,0,0,0,0,0,0,0,0,3,4,117,space,4.312021600000094,None,1,1,0.9565800999999965,None,space,2.5495958999999857,None,0,0,0,0,,,,,0,2,2,2,67.03751890000001,,,,,,,,,,,,,,,,,,,,,67.02222849999998,67.03751890000001,67.52126469999996,67.525846,67.54245630000003,68.50360060000003,,,,,68.50369069999999,68.51941969999996,68.72014630000001,68.70384179999996,67.54245630000003,,,,,,,,1,1,0.9565800999999965,None,,,,,,,,892,22,M,R,2026-02-25_11h04.37.889,VisualSearch_2526_3,,2025.2.4,2026-02-25 11h04.38.394919 +0100,
tilted.xlsx,The target is tilted.,117,3,3,0,1,1,1,1,1,1,1,1,1,1,1,1,0,11,12,117,space,4.312021600000094,None,1,1,1.2730565000000524,None,space,2.5495958999999857,None,0,0,0,0,,,,,0,3,3,0,68.72014630000001,,,,,,,,,,,,,,,,,,,,,68.70455819999995,68.72014630000001,69.20364510000002,69.20802830000002,69.21976389999998,70.50343380000004,,,,,70.50363560000005,70.51877439999998,70.71923159999994,70.70292210000002,69.21976389999998,,,,,,,,1,1,1.2730565000000524,None,,,,,,,,892,22,M,R,2026-02-25_11h04.37.889,VisualSearch_2526_3,,2025.2.4,2026-02-25 11h04.38.394919 +0100,
tilted.xlsx,The target is tilted.,117,4,4,0,0,1,1,1,0,0,0,0,0,0,0,0,1,3,4,117,space,4.312021600000094,None,0,1,0.8788020999999162,None,space,2.5495958999999857,None,0,0,0,0,,,,,0,4,4,6,70.71923159999994,,,,,,,,,,,,,,,,,,,,,70.70394390000001,70.71923159999994,71.20255150000003,71.2072422,71.22389599999997,72.11821440000006,,,,,72.11834910000005,72.13475440000002,,72.31879660000004,71.22389599999997,,,,,,,,0,1,0.8788020999999162,None,,,,,,,,892,22,M,R,2026-02-25_11h04.37.889,VisualSearch_2526_3,,2025.2.4,2026-02-25 11h04.38.394919 +0100,
tilted.xlsx,The target is tilted.,117,5,5,0,1,1,1,1,1,1,1,1,0,0,0,0,0,7,8,117,space,4.312021600000094,None,1,1,1.2430424000000357,None,space,2.5495958999999857,None,0,0,0,0,,,,,0,5,5,1,72.33507340000006,,,,,,,,,,,,,,,,,,,,,72.31955189999996,72.33507340000006,72.81864580000001,72.82328710000002,72.84007380000003,74.08530989999997,,,,,74.085507,74.10049760000004,74.30093380000005,74.28469010000003,,,,,,,,,1,1,1.2430424000000357,None,,,,,,,,892,22,M,R,2026-02-25_11h04.37.889,VisualSearch_2526_3,,2025.2.4,2026-02-25 11h04.38.394919 +0100,
tilted.xlsx,The target is tilted.,117,6,6,0,0,1,1,1,1,1,1,1,1,1,1,1,1,11,12,117,space,4.312021600000094,None,0,1,3.1681453999999576,None,space,2.5495958999999857,None,0,0,0,0,,,,,0,6,6,4,74.30093380000005,,,,,,,,,,,,,,,,,,,,,74.28542900000002,74.30093380000005,74.7845218,74.7890913,74.80430239999998,77.98351060000005,,,,,77.98371529999997,77.9987635,78.19920209999998,78.18284619999997,74.80430239999998,,,,,,,,0,1,3.1681453999999576,None,,,,,,,,892,22,M,R,2026-02-25_11h04.37.889,VisualSearch_2526_3,,2025.2.4,2026-02-25 11h04.38.394919 +0100,
tilted.xlsx,The target is tilted.,117,7,7,0,1,0,0,0,0,0,0,0,0,0,0,0,0,0,1,117,space,4.312021600000094,None,1,1,0.6060872000000472,None,space,2.5495958999999857,None,0,0,0,0,,,,,0,7,7,3,78.19920209999998,,,,,,,,,,,,,,,,,,,,,78.18356949999998,78.19920209999998,78.6824699,78.68715269999996,78.70405749999998,79.31624680000004,,,,,79.31644800000004,79.33144359999994,79.53172459999996,79.51562639999997,78.70405749999998,,,,,,,,1,1,0.6060872000000472,None,,,,,,,,892,22,M,R,2026-02-25_11h04.37.889,VisualSearch_2526_3,,2025.2.4,2026-02-25 11h04.38.394919 +0100,
tilted.xlsx,The target is tilted.,117,8,0,1,1,1,1,1,1,1,1,1,1,1,1,1,0,11,12,117,space,4.312021600000094,None,1,1,2.4184526000000233,None,space,2.5495958999999857,None,0,0,0,0,,,,,1,0,8,0,79.53172459999996,,,,,,,,,,,,,,,,,,,,,79.5163483,79.53172459999996,80.01551199999994,80.02013409999995,80.03140859999996,82.46428839999999,,,,,82.46449519999999,82.47995160000005,82.68044769999995,82.6642233,80.03140859999996,,,,,,,,1,1,2.4184526000000233,None,,,,,,,,892,22,M,R,2026-02-25_11h04.37.889,VisualSearch_2526_3,,2025.2.4,2026-02-25 11h04.38.394919 +0100,
tilted.xlsx,The target is tilted.,117,9,1,1,0,1,1,1,1,1,1,1,0,0,0,0,1,7,8,117,space,4.312021600000094,None,0,1,1.97436289999996,None,space,2.5495958999999857,None,0,0,0,0,,,,,1,1,9,5,82.68044769999995,,,,,,,,,,,,,,,,,,,,,82.66496280000001,82.68044769999995,83.16402570000002,83.16871819999994,83.18653670000003,85.16361199999994,,,,,85.16381479999995,85.17875779999997,85.37924339999995,85.36289120000004,83.18653670000003,,,,,,,,0,1,1.97436289999996,None,,,,,,,,892,22,M,R,2026-02-25_11h04.37.889,VisualSearch_2526_3,,2025.2.4,2026-02-25 11h04.38.394919 +0100,
tilted.xlsx,The target is tilted.,117,10,2,1,1,0,0,0,0,0,0,0,0,0,0,0,0,0,1,117,space,4.312021600000094,None,1,1,0.8249109999999291,None,space,2.5495958999999857,None,0,0,0,0,,,,,1,2,10,3,85.37924339999995,,,,,,,,,,,,,,,,,,,,,85.36362659999998,85.37924339999995,85.86274379999998,85.8673751,85.88472869999998,86.71254859999999,,,,,86.71269710000001,86.72806290000005,86.92853100000002,86.91222540000001,85.88472869999998,,,,,,,,1,1,0.8249109999999291,None,,,,,,,,892,22,M,R,2026-02-25_11h04.37.889,VisualSearch_2526_3,,2025.2.4,2026-02-25 11h04.38.394919 +0100,
tilted.xlsx,The target is tilted.,117,11,3,1,0,0,0,0,0,0,0,0,0,0,0,0,1,1,1,117,space,4.312021600000094,None,0,1,0.6688409999999294,None,space,2.5495958999999857,None,0,0,0,0,,,,,1,3,11,7,86.92853100000002,,,,,,,,,,,,,,,,,,,,,86.91293440000004,86.92853100000002,87.4122218,87.41674499999999,87.43372450000004,88.11249369999996,,,,,88.11272659999997,88.12742760000003,88.32790060000002,88.31135089999998,87.43372450000004,,,,,,,,0,1,0.6688409999999294,None,,,,,,,,892,22,M,R,2026-02-25_11h04.37.889,VisualSearch_2526_3,,2025.2.4,2026-02-25 11h04.38.394919 +0100,
tilted.xlsx,The target is tilted.,117,12,4,1,1,1,1,1,1,1,1,1,0,0,0,0,0,7,8,117,space,4.312021600000094,None,1,1,1.272017300000016,None,space,2.5495958999999857,None,0,0,0,0,,,,,1,4,12,1,88.32790060000002,,,,,,,,,,,,,,,,,,,,,88.31206540000005,88.32790060000002,88.81126310000002,88.8158429,88.83216159999995,90.11158560000001,,,,,90.1118275,90.12653799999998,90.32703019999997,90.31091879999997,88.83216159999995,,,,,,,,1,1,1.272017300000016,None,,,,,,,,892,22,M,R,2026-02-25_11h04.37.889,VisualSearch_2526_3,,2025.2.4,2026-02-25 11h04.38.394919 +0100,
tilted.xlsx,The target is tilted.,117,13,5,1,0,1,1,1,0,0,0,0,0,0,0,0,1,3,4,117,space,4.312021600000094,None,0,1,1.3456332000000657,None,space,2.5495958999999857,None,0,0,0,0,,,,,1,5,13,6,90.32703019999997,,,,,,,,,,,,,,,,,,,,,90.31164090000004,90.32703019999997,90.81061039999997,90.815244,90.83109460000003,92.19285200000002,,,,,92.19299839999996,92.20885090000002,92.40930630000003,92.39306859999999,90.83109460000003,,,,,,,,0,1,1.3456332000000657,None,,,,,,,,892,22,M,R,2026-02-25_11h04.37.889,VisualSearch_2526_3,,2025.2.4,2026-02-25 11h04.38.394919 +0100,
tilted.xlsx,The target is tilted.,117,14,6,1,0,1,1,1,1,1,1,1,1,1,1,1,1,11,12,117,space,4.312021600000094,None,0,1,3.0225851999999804,None,space,2.5495958999999857,None,0,0,0,0,,,,,1,6,14,4,92.40930630000003,,,,,,,,,,,,,,,,,,,,,92.39378450000004,92.40930630000003,92.89299440000002,92.89757550000002,92.91450859999998,95.94177219999995,,,,,95.94197220000001,95.95719280000003,96.1576162,96.14141800000004,92.91450859999998,,,,,,,,0,1,3.0225851999999804,None,,,,,,,,892,22,M,R,2026-02-25_11h04.37.889,VisualSearch_2526_3,,2025.2.4,2026-02-25 11h04.38.394919 +0100,
tilted.xlsx,The target is tilted.,117,15,7,1,1,1,1,1,0,0,0,0,0,0,0,0,0,3,4,117,space,4.312021600000094,None,1,1,0.8663027000000056,None,space,2.5495958999999857,None,0,0,0,0,,,,,1,7,15,2,96.1576162,,,,,,,,,,,,,,,,,,,,,96.14220079999996,96.1576162,96.64136640000004,96.64608510000005,96.66271040000004,97.54160830000001,,,,,97.54181630000005,97.55644110000003,97.75693039999999,97.74078689999999,96.66271040000004,,,,,,,,1,1,0.8663027000000056,None,,,,,,,,892,22,M,R,2026-02-25_11h04.37.889,VisualSearch_2526_3,,2025.2.4,2026-02-25 11h04.38.394919 +0100,
tilted.xlsx,The target is tilted.,117,16,0,2,0,1,1,1,1,1,1,1,0,0,0,0,1,7,8,117,space,4.312021600000094,None,0,1,2.0081599000000097,None,space,2.5495958999999857,None,0,0,0,0,,,,,2,0,16,5,97.75693039999999,,,,,,,,,,,,,,,,,,,,,97.74149839999995,97.75693039999999,98.2406522,98.24524359999998,98.2619929,100.27321099999995,,,,,100.27341339999998,100.28855880000003,100.48906820000002,100.47271330000001,98.2619929,,,,,,,,0,1,2.0081599000000097,None,,,,,,,,892,22,M,R,2026-02-25_11h04.37.889,VisualSearch_2526_3,,2025.2.4,2026-02-25 11h04.38.394919 +0100,
tilted.xlsx,The target is tilted.,117,17,1,2,1,1,1,1,0,0,0,0,0,0,0,0,0,3,4,117,space,4.312021600000094,None,1,1,0.6464685000000827,None,space,2.5495958999999857,None,0,0,0,0,,,,,2,1,17,2,100.48906820000002,,,,,,,,,,,,,,,,,,,,,100.47342879999997,100.48906820000002,100.97233189999997,100.97690250000005,100.9886626,101.63922849999994,,,,,101.63942699999996,101.65448130000004,101.8550626,101.83893279999995,100.9886626,,,,,,,,1,1,0.6464685000000827,None,,,,,,,,892,22,M,R,2026-02-25_11h04.37.889,VisualSearch_2526_3,,2025.2.4,2026-02-25 11h04.38.394919 +0100,
tilted.xlsx,The target is tilted.,117,18,2,2,0,1,1,1,1,1,1,1,1,1,1,1,1,11,12,117,space,4.312021600000094,None,0,1,3.0257265999999845,None,space,2.5495958999999857,None,0,0,0,0,,,,,2,2,18,4,101.8550626,,,,,,,,,,,,,,,,,,,,,101.83963589999996,101.8550626,102.33854940000003,102.34315700000002,102.3543803,105.3878181,,,,,105.38802239999995,105.40291200000001,105.60281640000005,105.58657470000003,102.3543803,,,,,,,,0,1,3.0257265999999845,None,,,,,,,,892,22,M,R,2026-02-25_11h04.37.889,VisualSearch_2526_3,,2025.2.4,2026-02-25 11h04.38.394919 +0100,
tilted.xlsx,The target is tilted.,117,19,3,2,1,0,0,0,0,0,0,0,0,0,0,0,0,0,1,117,space,4.312021600000094,None,1,1,0.5994716000000153,None,space,2.5495958999999857,None,0,0,0,0,,,,,2,3,19,3,105.60281640000005,,,,,,,,,,,,,,,,,,,,,105.58694979999996,105.60281640000005,106.0869874,106.0915867,106.10990949999996,106.7205821,,,,,106.72078139999996,106.73563039999999,106.93601179999996,106.9201971,106.10990949999996,,,,,,,,1,1,0.5994716000000153,None,,,,,,,,892,22,M,R,2026-02-25_11h04.37.889,VisualSearch_2526_3,,2025.2.4,2026-02-25 11h04.38.394919 +0100,
tilted.xlsx,The target is tilted.,117,20,4,2,1,1,1,1,1,1,1,1,0,0,0,0,0,7,8,117,space,4.312021600000094,None,1,1,0.9308362000000443,None,space,2.5495958999999857,None,0,0,0,0,,,,,2,4,20,1,106.93601179999996,,,,,,,,,,,,,,,,,,,,,106.92095830000005,106.93601179999996,107.41972039999996,107.42438419999996,107.44118390000006,108.38570890000005,,,,,108.38588879999998,108.4014972,108.60165089999998,108.58552550000002,107.44118390000006,,,,,,,,1,1,0.9308362000000443,None,,,,,,,,892,22,M,R,2026-02-25_11h04.37.889,VisualSearch_2526_3,,2025.2.4,2026-02-25 11h04.38.394919 +0100,
tilted.xlsx,The target is tilted.,117,21,5,2,1,1,1,1,1,1,1,1,1,1,1,1,0,11,12,117,space,4.312021600000094,None,1,1,3.1441486999999597,None,space,2.5495958999999857,None,0,0,0,0,,,,,2,5,21,0,108.60165089999998,,,,,,,,,,,,,,,,,,,,,108.58626809999998,108.60165089999998,109.08550219999995,109.09026789999996,109.10692689999996,112.2674783,,,,,112.26771410000003,112.28307519999998,112.48356139999999,112.4673745,109.10692689999996,,,,,,,,1,1,3.1441486999999597,None,,,,,,,,892,22,M,R,2026-02-25_11h04.37.889,VisualSearch_2526_3,,2025.2.4,2026-02-25 11h04.38.394919 +0100,
tilted.xlsx,The target is tilted.,117,22,6,2,0,1,1,1,0,0,0,0,0,0,0,0,1,3,4,117,space,4.312021600000094,None,0,1,1.5074131999999736,None,space,2.5495958999999857,None,0,0,0,0,,,,,2,6,22,6,112.48356139999999,,,,,,,,,,,,,,,,,,,,,112.46811679999996,112.48356139999999,112.9670003,112.971855,112.98821780000003,114.50003509999999,,,,,114.50023769999996,114.51543939999999,114.71580770000003,114.69963570000004,112.98821780000003,,,,,,,,0,1,1.5074131999999736,None,,,,,,,,892,22,M,R,2026-02-25_11h04.37.889,VisualSearch_2526_3,,2025.2.4,2026-02-25 11h04.38.394919 +0100,
tilted.xlsx,The target is tilted.,117,23,7,2,0,0,0,0,0,0,0,0,0,0,0,0,1,1,1,117,space,4.312021600000094,None,0,1,0.5293684999999186,None,space,2.5495958999999857,None,0,0,0,0,,,,,2,7,23,7,114.71580770000003,,,,,,,,,,,,,,,,,,,,,114.70036019999998,114.71580770000003,115.19958710000003,115.20415490000005,115.22156829999994,115.76581480000004,,,,,115.76604020000002,115.78145840000002,115.9816859,115.96581809999998,115.22156829999994,,,,,,,,0,1,0.5293684999999186,None,,,,,,,,892,22,M,R,2026-02-25_11h04.37.889,VisualSearch_2526_3,,2025.2.4,2026-02-25 11h04.38.394919 +0100,
tilted.xlsx,The target is tilted.,117,24,0,3,1,1,1,1,1,1,1,1,1,1,1,1,0,11,12,117,space,4.312021600000094,None,1,1,2.2326057999999875,None,space,2.5495958999999857,None,0,0,0,0,,,,,3,0,24,0,115.9816859,,,,,,,,,,,,,,,,,,,,,115.96656250000001,115.9816859,116.46556220000002,116.47029169999996,116.48581339999998,118.73048059999996,,,,,118.7305662,118.7465757,118.94639080000002,118.93000119999999,116.48581339999998,,,,,,,,1,1,2.2326057999999875,None,,,,,,,,892,22,M,R,2026-02-25_11h04.37.889,VisualSearch_2526_3,,2025.2.4,2026-02-25 11h04.38.394919 +0100,
tilted.xlsx,The target is tilted.,117,25,1,3,0,1,1,1,1,1,1,1,0,0,0,0,1,7,8,117,space,4.312021600000094,None,0,1,2.2372408999999607,None,space,2.5495958999999857,None,0,0,0,0,,,,,3,1,25,5,118.94639080000002,,,,,,,,,,,,,,,,,,,,,118.9303519,118.94639080000002,119.42986670000005,119.43145489999995,119.446278,121.69647150000003,,,,,121.69670080000003,121.71216230000005,121.9125669,121.89659189999998,119.446278,,,,,,,,0,1,2.2372408999999607,None,,,,,,,,892,22,M,R,2026-02-25_11h04.37.889,VisualSearch_2526_3,,2025.2.4,2026-02-25 11h04.38.394919 +0100,
tilted.xlsx,The target is tilted.,117,26,2,3,1,1,1,1,0,0,0,0,0,0,0,0,0,3,4,117,space,4.312021600000094,None,1,1,0.9774274000000105,None,space,2.5495958999999857,None,0,0,0,0,,,,,3,2,26,2,121.9125669,,,,,,,,,,,,,,,,,,,,,121.89745900000003,121.9125669,122.39580130000002,122.40045420000001,122.41728190000003,123.39634860000001,,,,,123.39654670000004,123.41140170000006,123.61156900000003,123.59513560000005,122.41728190000003,,,,,,,,1,1,0.9774274000000105,None,,,,,,,,892,22,M,R,2026-02-25_11h04.37.889,VisualSearch_2526_3,,2025.2.4,2026-02-25 11h04.38.394919 +0100,
tilted.xlsx,The target is tilted.,117,27,3,3,0,1,1,1,0,0,0,0,0,0,0,0,1,3,4,117,space,4.312021600000094,None,0,1,0.9346440000000484,None,space,2.5495958999999857,None,0,0,0,0,,,,,3,3,27,6,123.61156900000003,,,,,,,,,,,,,,,,,,,,,123.59549800000002,123.61156900000003,124.09537179999995,124.09992260000001,124.11554049999995,125.06199509999999,,,,,125.06217800000002,125.07736160000002,125.27779439999995,125.2615055,124.11554049999995,,,,,,,,0,1,0.9346440000000484,None,,,,,,,,892,22,M,R,2026-02-25_11h04.37.889,VisualSearch_2526_3,,2025.2.4,2026-02-25 11h04.38.394919 +0100,
tilted.xlsx,The target is tilted.,117,28,4,3,1,0,0,0,0,0,0,0,0,0,0,0,0,0,1,117,space,4.312021600000094,None,1,1,0.5749418999999989,None,space,2.5495958999999857,None,0,0,0,0,,,,,3,4,28,3,125.27779439999995,,,,,,,,,,,,,,,,,,,,,125.26223479999999,125.27779439999995,125.76125609999997,125.76582399999995,125.78209770000001,126.36130600000001,,,,,126.36150569999995,126.37670419999995,126.57716140000002,126.56065490000003,125.78209770000001,,,,,,,,1,1,0.5749418999999989,None,,,,,,,,892,22,M,R,2026-02-25_11h04.37.889,VisualSearch_2526_3,,2025.2.4,2026-02-25 11h04.38.394919 +0100,
tilted.xlsx,The target is tilted.,117,29,5,3,0,1,1,1,1,1,1,1,1,1,1,1,1,11,12,117,space,4.312021600000094,None,0,1,2.73291549999999,None,space,2.5495958999999857,None,0,0,0,0,,,,,3,5,29,4,126.57716140000002,,,,,,,,,,,,,,,,,,,,,126.56136260000005,126.57716140000002,127.06065950000004,127.06522010000003,127.0808207,129.82616050000001,,,,,129.82638889999998,129.841764,130.04188739999995,130.0261521,127.0808207,,,,,,,,0,1,2.73291549999999,None,,,,,,,,892,22,M,R,2026-02-25_11h04.37.889,VisualSearch_2526_3,,2025.2.4,2026-02-25 11h04.38.394919 +0100,
tilted.xlsx,The target is tilted.,117,30,6,3,0,0,0,0,0,0,0,0,0,0,0,0,1,1,1,117,space,4.312021600000094,None,0,1,0.6287315999999237,None,space,2.5495958999999857,None,0,0,0,0,,,,,3,6,30,7,130.04188739999995,,,,,,,,,,,,,,,,,,,,,130.02703480000002,130.04188739999995,130.52550199999996,130.53006230000005,130.54857000000004,131.19218690000002,,,,,131.19242399999996,131.207811,131.40832839999996,131.39216969999995,130.54857000000004,,,,,,,,0,1,0.6287315999999237,None,,,,,,,,892,22,M,R,2026-02-25_11h04.37.889,VisualSearch_2526_3,,2025.2.4,2026-02-25 11h04.38.394919 +0100,
tilted.xlsx,The target is tilted.,117,31,7,3,1,1,1,1,1,1,1,1,0,0,0,0,0,7,8,117,space,4.312021600000094,None,1,1,0.6674573999999893,None,space,2.5495958999999857,None,0,0,0,0,,,,,3,7,31,1,131.40832839999996,,,,,,,,,,,,,,,,,,,,,131.39287379999996,131.40832839999996,131.89170000000001,131.8962722,131.91286649999995,132.59222690000001,,,,,132.59242670000003,132.60716060000004,132.80756240000005,132.79149689999997,131.91286649999995,,,,,,,,1,1,0.6674573999999893,None,,,,,,,,892,22,M,R,2026-02-25_11h04.37.889,VisualSearch_2526_3,,2025.2.4,2026-02-25 11h04.38.394919 +0100,
tilted.xlsx,The target is tilted.,117,32,0,4,0,0,0,0,0,0,0,0,0,0,0,0,1,1,1,117,space,4.312021600000094,None,0,1,0.5160455000000184,None,space,2.5495958999999857,None,0,0,0,0,,,,,4,0,32,7,132.80756240000005,,,,,,,,,,,,,,,,,,,,,132.7922145,132.80756240000005,133.29125139999996,133.2958542,133.31187169999998,133.84097959999997,,,,,133.84123609999995,133.8566287,134.05694119999998,134.04111899999998,133.31187169999998,,,,,,,,0,1,0.5160455000000184,None,,,,,,,,892,22,M,R,2026-02-25_11h04.37.889,VisualSearch_2526_3,,2025.2.4,2026-02-25 11h04.38.394919 +0100,
tilted.xlsx,The target is tilted.,117,33,1,4,1,1,1,1,0,0,0,0,0,0,0,0,0,3,4,117,space,4.312021600000094,None,1,1,0.724070099999949,None,space,2.5495958999999857,None,0,0,0,0,,,,,4,1,33,2,134.05694119999998,,,,,,,,,,,,,,,,,,,,,134.04187390000004,134.05694119999998,134.54079409999997,134.54533219999996,134.56241620000003,135.29039939999996,,,,,135.29057680000005,135.30600619999996,135.50646170000005,135.4903104,134.56241620000003,,,,,,,,1,1,0.724070099999949,None,,,,,,,,892,22,M,R,2026-02-25_11h04.37.889,VisualSearch_2526_3,,2025.2.4,2026-02-25 11h04.38.394919 +0100,
tilted.xlsx,The target is tilted.,117,34,2,4,1,1,1,1,1,1,1,1,0,0,0,0,0,7,8,117,space,4.312021600000094,None,1,1,2.155001900000002,None,space,2.5495958999999857,None,0,0,0,0,,,,,4,2,34,1,135.50646170000005,,,,,,,,,,,,,,,,,,,,,135.49103179999997,135.50646170000005,135.99007389999997,135.99468649999994,136.01303589999998,138.17259809999996,,,,,138.17279940000003,138.18801989999997,138.3880987,138.37211330000002,136.01303589999998,,,,,,,,1,1,2.155001900000002,None,,,,,,,,892,22,M,R,2026-02-25_11h04.37.889,VisualSearch_2526_3,,2025.2.4,2026-02-25 11h04.38.394919 +0100,
tilted.xlsx,The target is tilted.,117,35,3,4,0,1,1,1,1,1,1,1,1,1,1,1,1,11,12,117,space,4.312021600000094,None,0,1,2.5007466999999224,None,space,2.5495958999999857,None,0,0,0,0,,,,,4,3,35,4,138.3880987,,,,,,,,,,,,,,,,,,,,,138.3727622,138.3880987,138.87216609999996,138.87677770000005,138.89235789999998,141.40463969999996,,,,,141.40481780000005,141.41977640000005,141.61997199999996,141.60418909999999,138.89235789999998,,,,,,,,0,1,2.5007466999999224,None,,,,,,,,892,22,M,R,2026-02-25_11h04.37.889,VisualSearch_2526_3,,2025.2.4,2026-02-25 11h04.38.394919 +0100,
tilted.xlsx,The target is tilted.,117,36,4,4,1,1,1,1,1,1,1,1,1,1,1,1,0,11,12,117,space,4.312021600000094,None,1,1,1.397700900000018,None,space,2.5495958999999857,None,0,0,0,0,,,,,4,4,36,0,141.61997199999996,,,,,,,,,,,,,,,,,,,,,141.60489859999996,141.61997199999996,142.10365769999999,142.10829320000005,142.12642819999996,143.53623289999996,,,,,143.5363466,143.55213270000002,143.75262169999996,143.7367349,142.12642819999996,,,,,,,,1,1,1.397700900000018,None,,,,,,,,892,22,M,R,2026-02-25_11h04.37.889,VisualSearch_2526_3,,2025.2.4,2026-02-25 11h04.38.394919 +0100,
tilted.xlsx,The target is tilted.,117,37,5,4,0,1,1,1,0,0,0,0,0,0,0,0,1,3,4,117,space,4.312021600000094,None,0,1,0.6658989999999676,None,space,2.5495958999999857,None,0,0,0,0,,,,,4,5,37,6,143.75262169999996,,,,,,,,,,,,,,,,,,,,,143.7376713,143.75262169999996,144.23627180000005,144.2408792,144.25835729999994,144.9351001,,,,,144.93521510000005,144.95158179999999,,145.1353295,144.25835729999994,,,,,,,,0,1,0.6658989999999676,None,,,,,,,,892,22,M,R,2026-02-25_11h04.37.889,VisualSearch_2526_3,,2025.2.4,2026-02-25 11h04.38.394919 +0100,
tilted.xlsx,The target is tilted.,117,38,6,4,1,0,0,0,0,0,0,0,0,0,0,0,0,0,1,117,space,4.312021600000094,None,1,1,0.5741307000000688,None,space,2.5495958999999857,None,0,0,0,0,,,,,4,6,38,3,145.15181670000004,,,,,,,,,,,,,,,,,,,,,145.13604669999995,145.15181670000004,145.63550429999998,145.64006519999998,145.6560548,146.23534559999996,,,,,146.23553619999996,146.2510095,146.45142750000002,146.43526829999996,145.6560548,,,,,,,,1,1,0.5741307000000688,None,,,,,,,,892,22,M,R,2026-02-25_11h04.37.889,VisualSearch_2526_3,,2025.2.4,2026-02-25 11h04.38.394919 +0100,
tilted.xlsx,The target is tilted.,117,39,7,4,0,1,1,1,1,1,1,1,0,0,0,0,1,7,8,117,space,4.312021600000094,None,0,1,1.8799856000000545,None,space,2.5495958999999857,None,0,0,0,0,,,,,4,7,39,5,146.45142750000002,,,,,,,,,,,,,,,,,,,,,146.43600059999994,146.45142750000002,146.9350994,146.93964919999996,146.95541279999998,148.85086309999997,,,,,148.85108509999998,148.8664354,149.06683269999996,149.05066950000003,146.95541279999998,,,,,,,,0,1,1.8799856000000545,None,,,,,,,,892,22,M,R,2026-02-25_11h04.37.889,VisualSearch_2526_3,,2025.2.4,2026-02-25 11h04.38.394919 +0100,
tilted.xlsx,The target is tilted.,117,40,0,5,0,1,1,1,1,1,1,1,1,1,1,1,1,11,12,117,space,4.312021600000094,None,0,1,3.4773030000000063,None,space,2.5495958999999857,None,0,0,0,0,,,,,5,0,40,4,149.06683269999996,,,,,,,,,,,,,,,,,,,,,149.0513972,149.06683269999996,149.55066060000001,149.55545419999999,149.5720546,153.06551049999996,,,,,153.0657218,153.08117949999996,153.28122840000003,153.26552330000004,149.5720546,,,,,,,,0,1,3.4773030000000063,None,,,,,,,,892,22,M,R,2026-02-25_11h04.37.889,VisualSearch_2526_3,,2025.2.4,2026-02-25 11h04.38.394919 +0100,
tilted.xlsx,The target is tilted.,117,41,1,5,0,1,1,1,1,1,1,1,0,0,0,0,1,7,8,117,space,4.312021600000094,None,0,1,2.377119700000094,None,space,2.5495958999999857,None,0,0,0,0,,,,,5,1,41,5,153.28122840000003,,,,,,,,,,,,,,,,,,,,,153.26624909999998,153.28122840000003,153.76546210000004,153.77041999999994,153.78878150000003,156.18039009999995,,,,,156.18053970000005,156.19644129999995,156.39694889999998,156.38076209999997,153.78878150000003,,,,,,,,0,1,2.377119700000094,None,,,,,,,,892,22,M,R,2026-02-25_11h04.37.889,VisualSearch_2526_3,,2025.2.4,2026-02-25 11h04.38.394919 +0100,
tilted.xlsx,The target is tilted.,117,42,2,5,1,1,1,1,1,1,1,1,1,1,1,1,0,11,12,117,space,4.312021600000094,None,1,1,1.9133467999999993,None,space,2.5495958999999857,None,0,0,0,0,,,,,5,2,42,0,156.39694889999998,,,,,,,,,,,,,,,,,,,,,156.38152249999996,156.39694889999998,156.88057319999996,156.88506399999994,156.90319439999996,158.82942409999998,,,,,158.82960530000003,158.84523390000004,159.0456319,159.0295476,156.90319439999996,,,,,,,,1,1,1.9133467999999993,None,,,,,,,,892,22,M,R,2026-02-25_11h04.37.889,VisualSearch_2526_3,,2025.2.4,2026-02-25 11h04.38.394919 +0100,
tilted.xlsx,The target is tilted.,117,43,3,5,1,0,0,0,0,0,0,0,0,0,0,0,0,0,1,117,space,4.312021600000094,None,1,1,0.9196146000000454,None,space,2.5495958999999857,None,0,0,0,0,,,,,5,3,43,3,159.0456319,,,,,,,,,,,,,,,,,,,,,159.03029030000005,159.0456319,159.52937640000005,159.53401740000004,159.54951370000003,160.47852339999997,,,,,160.4786199,160.4942486,160.69498950000002,160.67884370000002,159.54951370000003,,,,,,,,1,1,0.9196146000000454,None,,,,,,,,892,22,M,R,2026-02-25_11h04.37.889,VisualSearch_2526_3,,2025.2.4,2026-02-25 11h04.38.394919 +0100,
tilted.xlsx,The target is tilted.,117,44,4,5,1,1,1,1,0,0,0,0,0,0,0,0,0,3,4,117,space,4.312021600000094,None,1,1,1.0409393999999565,None,space,2.5495958999999857,None,0,0,0,0,,,,,5,4,44,2,160.69498950000002,,,,,,,,,,,,,,,,,,,,,160.67954940000004,160.69498950000002,161.17850020000003,161.18332669999995,161.201096,162.24534129999995,,,,,162.24553979999996,162.26040149999994,162.4608723,162.44466690000002,161.201096,,,,,,,,1,1,1.0409393999999565,None,,,,,,,,892,22,M,R,2026-02-25_11h04.37.889,VisualSearch_2526_3,,2025.2.4,2026-02-25 11h04.38.394919 +0100,
tilted.xlsx,The target is tilted.,117,45,5,5,0,0,0,0,0,0,0,0,0,0,0,0,1,1,1,117,space,4.312021600000094,None,0,1,0.5867359000000079,None,space,2.5495958999999857,None,0,0,0,0,,,,,5,5,45,7,162.4608723,,,,,,,,,,,,,,,,,,,,,162.4453959,162.4608723,162.9444658,162.94903999999997,162.96703449999995,163.56121659999997,,,,,163.5614005,163.57649990000004,163.776926,163.7608212,162.96703449999995,,,,,,,,0,1,0.5867359000000079,None,,,,,,,,892,22,M,R,2026-02-25_11h04.37.889,VisualSearch_2526_3,,2025.2.4,2026-02-25 11h04.38.394919 +0100,
tilted.xlsx,The target is tilted.,117,46,6,5,1,1,1,1,1,1,1,1,0,0,0,0,0,7,8,117,space,4.312021600000094,None,1,1,1.544022600000062,None,space,2.5495958999999857,None,0,0,0,0,,,,,5,6,46,1,163.776926,,,,,,,,,,,,,,,,,,,,,163.7615207,163.776926,164.26063769999996,164.26520900000003,164.2820107,165.84229679999999,,,,,165.84242629999994,165.85908170000005,,166.04275040000005,164.2820107,,,,,,,,1,1,1.544022600000062,None,,,,,,,,892,22,M,R,2026-02-25_11h04.37.889,VisualSearch_2526_3,,2025.2.4,2026-02-25 11h04.38.394919 +0100,
tilted.xlsx,The target is tilted.,117,47,7,5,0,1,1,1,0,0,0,0,0,0,0,0,1,3,4,117,space,4.312021600000094,None,0,1,0.8357565000000022,None,space,2.5495958999999857,None,0,0,0,0,,,,,5,7,47,6,166.0592315,,,,,,,,,,,,,,,,,,,,,166.04380019999996,166.0592315,166.54255090000004,166.54718089999994,166.56246499999997,167.40963680000004,,,,,167.40981780000004,167.42472110000006,167.6251112,167.60868270000003,166.56246499999997,,,,,,,,0,1,0.8357565000000022,None,,,,,,,,892,22,M,R,2026-02-25_11h04.37.889,VisualSearch_2526_3,,2025.2.4,2026-02-25 11h04.38.394919 +0100,
tilted.xlsx,The target is tilted.,117,48,0,6,0,0,0,0,0,0,0,0,0,0,0,0,1,1,1,117,space,4.312021600000094,None,0,1,0.636221100000057,None,space,2.5495958999999857,None,0,0,0,0,,,,,6,0,48,7,167.6251112,,,,,,,,,,,,,,,,,,,,,167.60924190000003,167.6251112,168.10873719999995,168.1132867,168.130718,168.77563550000002,,,,,168.7763284,168.7907391,168.99128389999998,168.97501929999999,168.130718,,,,,,,,0,1,0.636221100000057,None,,,,,,,,892,22,M,R,2026-02-25_11h04.37.889,VisualSearch_2526_3,,2025.2.4,2026-02-25 11h04.38.394919 +0100,
tilted.xlsx,The target is tilted.,117,49,1,6,1,1,1,1,0,0,0,0,0,0,0,0,0,3,4,117,space,4.312021600000094,None,1,1,0.9767536000000518,None,space,2.5495958999999857,None,0,0,0,0,,,,,6,1,49,2,168.99128389999998,,,,,,,,,,,,,,,,,,,,,168.97578299999998,168.99128389999998,169.47483420000003,169.47946890000003,169.49464490000003,170.47469880000006,,,,,170.47489789999997,170.48997640000005,170.69048610000004,170.67424100000005,169.49464490000003,,,,,,,,1,1,0.9767536000000518,None,,,,,,,,892,22,M,R,2026-02-25_11h04.37.889,VisualSearch_2526_3,,2025.2.4,2026-02-25 11h04.38.394919 +0100,
tilted.xlsx,The target is tilted.,117,50,2,6,0,1,1,1,1,1,1,1,0,0,0,0,1,7,8,117,space,4.312021600000094,None,0,1,2.0787833999999066,None,space,2.5495958999999857,None,0,0,0,0,,,,,6,2,50,5,170.69048610000004,,,,,,,,,,,,,,,,,,,,,170.67498369999998,170.69048610000004,171.1739324,171.1784781,171.19459080000001,173.28968080000004,,,,,173.2898973,173.3053304,173.50581799999998,173.48960590000002,171.19459080000001,,,,,,,,0,1,2.0787833999999066,None,,,,,,,,892,22,M,R,2026-02-25_11h04.37.889,VisualSearch_2526_3,,2025.2.4,2026-02-25 11h04.38.394919 +0100,
tilted.xlsx,The target is tilted.,117,51,3,6,0,1,1,1,0,0,0,0,0,0,0,0,1,3,4,117,space,4.312021600000094,None,0,1,0.9020246000000043,None,space,2.5495958999999857,None,0,0,0,0,,,,,6,3,51,6,173.50581799999998,,,,,,,,,,,,,,,,,,,,,173.490363,173.50581799999998,173.9895269,173.99402380000004,174.01103220000005,174.92275259999997,,,,,174.922958,174.93798200000003,175.13846539999997,175.12224749999996,174.01103220000005,,,,,,,,0,1,0.9020246000000043,None,,,,,,,,892,22,M,R,2026-02-25_11h04.37.889,VisualSearch_2526_3,,2025.2.4,2026-02-25 11h04.38.394919 +0100,
tilted.xlsx,The target is tilted.,117,52,4,6,1,1,1,1,1,1,1,1,1,1,1,1,0,11,12,117,space,4.312021600000094,None,1,1,1.0580886999999848,None,space,2.5495958999999857,None,0,0,0,0,,,,,6,4,52,0,175.13846539999997,,,,,,,,,,,,,,,,,,,,,175.12300419999997,175.13846539999997,175.62178649999998,175.626392,175.6426252,176.7050716,,,,,176.70526900000004,176.7204868,176.92100189999996,176.90469370000005,175.6426252,,,,,,,,1,1,1.0580886999999848,None,,,,,,,,892,22,M,R,2026-02-25_11h04.37.889,VisualSearch_2526_3,,2025.2.4,2026-02-25 11h04.38.394919 +0100,
tilted.xlsx,The target is tilted.,117,53,5,6,0,1,1,1,1,1,1,1,1,1,1,1,1,11,12,117,space,4.312021600000094,None,0,1,2.754219799999987,None,space,2.5495958999999857,None,0,0,0,0,,,,,6,5,53,4,176.92100189999996,,,,,,,,,,,,,,,,,,,,,176.90542070000004,176.92100189999996,177.40448519999995,177.40962349999995,177.42484779999995,180.18683439999995,,,,,180.1870576,180.20224159999998,180.40253299999995,180.3864334,177.42484779999995,,,,,,,,0,1,2.754219799999987,None,,,,,,,,892,22,M,R,2026-02-25_11h04.37.889,VisualSearch_2526_3,,2025.2.4,2026-02-25 11h04.38.394919 +0100,
tilted.xlsx,The target is tilted.,117,54,6,6,1,1,1,1,1,1,1,1,0,0,0,0,0,7,8,117,space,4.312021600000094,None,1,1,1.144387800000004,None,space,2.5495958999999857,None,0,0,0,0,,,,,6,6,54,1,180.40253299999995,,,,,,,,,,,,,,,,,,,,,180.38715539999998,180.40253299999995,180.88624140000002,180.89079990000005,180.9084504,182.06867320000003,,,,,182.0688169,182.08467929999995,182.28489620000005,182.26909899999998,180.9084504,,,,,,,,1,1,1.144387800000004,None,,,,,,,,892,22,M,R,2026-02-25_11h04.37.889,VisualSearch_2526_3,,2025.2.4,2026-02-25 11h04.38.394919 +0100,
tilted.xlsx,The target is tilted.,117,55,7,6,1,0,0,0,0,0,0,0,0,0,0,0,0,0,1,117,space,4.312021600000094,None,1,1,0.7621222999999873,None,space,2.5495958999999857,None,0,0,0,0,,,,,6,7,55,3,182.28489620000005,,,,,,,,,,,,,,,,,,,,,182.26980430000003,182.28489620000005,182.76890170000001,182.77352559999997,182.7902444,183.5678951,,,,,183.56804090000003,183.58427619999998,,183.76814000000002,182.7902444,,,,,,,,1,1,0.7621222999999873,None,,,,,,,,892,22,M,R,2026-02-25_11h04.37.889,VisualSearch_2526_3,,2025.2.4,2026-02-25 11h04.38.394919 +0100,
tilted.xlsx,The target is tilted.,117,56,0,7,0,1,1,1,1,1,1,1,0,0,0,0,1,7,8,117,space,4.312021600000094,None,0,1,1.7464238000000023,None,space,2.5495958999999857,None,0,0,0,0,,,,,7,0,56,5,183.78457939999998,,,,,,,,,,,,,,,,,,,,,183.76890049999997,183.78457939999998,184.2682049,184.2728217,184.28998750000005,186.05073849999997,,,,,186.05093780000004,186.06621900000005,186.26670260000003,186.25073339999994,184.28998750000005,,,,,,,,0,1,1.7464238000000023,None,,,,,,,,892,22,M,R,2026-02-25_11h04.37.889,VisualSearch_2526_3,,2025.2.4,2026-02-25 11h04.38.394919 +0100,
tilted.xlsx,The target is tilted.,117,57,1,7,1,1,1,1,1,1,1,1,0,0,0,0,0,7,8,117,space,4.312021600000094,None,1,1,2.1312222000000247,None,space,2.5495958999999857,None,0,0,0,0,,,,,7,1,57,1,186.26670260000003,,,,,,,,,,,,,,,,,,,,,186.25152490000005,186.26670260000003,186.75034100000005,186.75494049999998,186.77159470000004,188.91627340000002,,,,,188.91645600000004,188.9316033,189.13160689999995,189.11580219999996,186.77159470000004,,,,,,,,1,1,2.1312222000000247,None,,,,,,,,892,22,M,R,2026-02-25_11h04.37.889,VisualSearch_2526_3,,2025.2.4,2026-02-25 11h04.38.394919 +0100,
tilted.xlsx,The target is tilted.,117,58,2,7,1,1,1,1,1,1,1,1,1,1,1,1,0,11,12,117,space,4.312021600000094,None,0,0,2.678462599999989,None,space,2.5495958999999857,None,0,0,0,0,,,,,7,2,58,0,189.13160689999995,,,,,,,,,,,,,,,,,,,,,189.11654739999994,189.13160689999995,189.61535519999995,189.61880659999997,189.63293409999994,192.31473319999998,,,,,192.3149356,192.3300064,192.53041740000003,192.51424550000002,189.63293409999994,,,,,,,,0,0,2.678462599999989,None,,,,,,,,892,22,M,R,2026-02-25_11h04.37.889,VisualSearch_2526_3,,2025.2.4,2026-02-25 11h04.38.394919 +0100,
tilted.xlsx,The target is tilted.,117,59,3,7,1,1,1,1,0,0,0,0,0,0,0,0,0,3,4,117,space,4.312021600000094,None,1,1,0.9460837000000311,None,space,2.5495958999999857,None,0,0,0,0,,,,,7,3,59,2,192.53041740000003,,,,,,,,,,,,,,,,,,,,,192.51496940000004,192.53041740000003,193.0140543,193.0186718,193.0349043,193.99671999999998,,,,,193.99689450000005,194.01245649999998,194.21298019999995,194.19693930000005,193.0349043,,,,,,,,1,1,0.9460837000000311,None,,,,,,,,892,22,M,R,2026-02-25_11h04.37.889,VisualSearch_2526_3,,2025.2.4,2026-02-25 11h04.38.394919 +0100,
tilted.xlsx,The target is tilted.,117,60,4,7,1,0,0,0,0,0,0,0,0,0,0,0,0,0,1,117,space,4.312021600000094,None,1,1,0.7104322999999795,None,space,2.5495958999999857,None,0,0,0,0,,,,,7,4,60,3,194.21298019999995,,,,,,,,,,,,,,,,,,,,,194.19771460000004,194.21298019999995,194.69635189999997,194.70099470000002,194.71261140000001,195.4296723,,,,,195.4298033,195.44509000000005,195.64579730000003,195.62969439999995,194.71261140000001,,,,,,,,1,1,0.7104322999999795,None,,,,,,,,892,22,M,R,2026-02-25_11h04.37.889,VisualSearch_2526_3,,2025.2.4,2026-02-25 11h04.38.394919 +0100,
tilted.xlsx,The target is tilted.,117,61,5,7,0,1,1,1,0,0,0,0,0,0,0,0,1,3,4,117,space,4.312021600000094,None,0,1,0.7603685000000269,None,space,2.5495958999999857,None,0,0,0,0,,,,,7,5,61,6,195.64579730000003,,,,,,,,,,,,,,,,,,,,,195.6304139,195.64579730000003,196.1293422,196.13400509999997,196.15236689999995,196.92881120000004,,,,,196.92898960000002,196.9448757,197.14508390000003,197.12878469999998,196.15236689999995,,,,,,,,0,1,0.7603685000000269,None,,,,,,,,892,22,M,R,2026-02-25_11h04.37.889,VisualSearch_2526_3,,2025.2.4,2026-02-25 11h04.38.394919 +0100,
tilted.xlsx,The target is tilted.,117,62,6,7,0,0,0,0,0,0,0,0,0,0,0,0,1,1,1,117,space,4.312021600000094,None,0,1,0.6900259000000233,None,space,2.5495958999999857,None,0,0,0,0,,,,,7,6,62,7,197.14508390000003,,,,,,,,,,,,,,,,,,,,,197.12949660000004,197.14508390000003,197.62862029999997,197.63327800000002,197.64955569999995,198.34548359999997,,,,,198.34567689999994,198.36063209999998,198.56089299999996,198.544941,197.64955569999995,,,,,,,,0,1,0.6900259000000233,None,,,,,,,,892,22,M,R,2026-02-25_11h04.37.889,VisualSearch_2526_3,,2025.2.4,2026-02-25 11h04.38.394919 +0100,
tilted.xlsx,The target is tilted.,117,63,7,7,0,1,1,1,1,1,1,1,1,1,1,1,1,11,12,117,space,4.312021600000094,None,0,1,2.35258239999996,None,space,2.5495958999999857,None,0,0,0,0,,,,,7,7,63,4,198.56089299999996,,,,,,,,,,,,,,,,,,,,,198.54565939999998,198.56089299999996,199.04462920000003,199.0491902,199.06471780000004,201.42764179999995,,,,,201.42788129999997,201.4426151,201.6426586,201.6268179,199.06471780000004,,,,,,,,0,1,2.35258239999996,None,,,,,,,,892,22,M,R,2026-02-25_11h04.37.889,VisualSearch_2526_3,,2025.2.4,2026-02-25 11h04.38.394919 +0100,
tilted.xlsx,The target is tilted.,117,64,0,8,1,1,1,1,0,0,0,0,0,0,0,0,0,3,4,117,space,4.312021600000094,None,1,1,0.8949612000000116,None,space,2.5495958999999857,None,0,0,0,0,,,,,8,0,64,2,201.6426586,,,,,,,,,,,,,,,,,,,,,201.62761869999997,201.6426586,202.12665460000005,202.1311591,202.14852110000004,203.05927759999997,,,,,203.05945380000003,203.07511599999998,203.2756422,203.25939719999997,202.14852110000004,,,,,,,,1,1,0.8949612000000116,None,,,,,,,,892,22,M,R,2026-02-25_11h04.37.889,VisualSearch_2526_3,,2025.2.4,2026-02-25 11h04.38.394919 +0100,
tilted.xlsx,The target is tilted.,117,65,1,8,0,1,1,1,0,0,0,0,0,0,0,0,1,3,4,117,space,4.312021600000094,None,0,1,0.7794447999999647,None,space,2.5495958999999857,None,0,0,0,0,,,,,8,1,65,6,203.2756422,,,,,,,,,,,,,,,,,,,,,203.26012079999998,203.2756422,203.7591595,203.76376249999998,203.78153580000003,204.5753416,,,,,204.5755176,204.59112489999995,204.79175599999996,204.77540269999997,203.78153580000003,,,,,,,,0,1,0.7794447999999647,None,,,,,,,,892,22,M,R,2026-02-25_11h04.37.889,VisualSearch_2526_3,,2025.2.4,2026-02-25 11h04.38.394919 +0100,
tilted.xlsx,The target is tilted.,117,66,2,8,1,0,0,0,0,0,0,0,0,0,0,0,0,0,1,117,space,4.312021600000094,None,1,1,0.5471628999999893,None,space,2.5495958999999857,None,0,0,0,0,,,,,8,2,66,3,204.79175599999996,,,,,,,,,,,,,,,,,,,,,204.77613069999995,204.79175599999996,205.2752097,205.28000180000004,205.29571480000004,205.85751500000003,,,,,205.85761060000004,205.87419780000005,,206.0579682,205.29571480000004,,,,,,,,1,1,0.5471628999999893,None,,,,,,,,892,22,M,R,2026-02-25_11h04.37.889,VisualSearch_2526_3,,2025.2.4,2026-02-25 11h04.38.394919 +0100,
tilted.xlsx,The target is tilted.,117,67,3,8,1,1,1,1,1,1,1,1,1,1,1,1,0,11,12,117,space,4.312021600000094,None,1,1,3.900639999999953,None,space,2.5495958999999857,None,0,0,0,0,,,,,8,3,67,0,206.07427389999998,,,,,,,,,,,,,,,,,,,,,206.05870930000003,206.07427389999998,206.5578137,206.5625837,206.57401349999998,210.48935789999996,,,,,210.4895517,210.50511559999995,210.70548680000002,210.68933489999995,,,,,,,,,1,1,3.900639999999953,None,,,,,,,,892,22,M,R,2026-02-25_11h04.37.889,VisualSearch_2526_3,,2025.2.4,2026-02-25 11h04.38.394919 +0100,
tilted.xlsx,The target is tilted.,117,68,4,8,0,0,0,0,0,0,0,0,0,0,0,0,1,1,1,117,space,4.312021600000094,None,0,1,0.4606006000000207,None,space,2.5495958999999857,None,0,0,0,0,,,,,8,4,68,7,210.70548680000002,,,,,,,,,,,,,,,,,,,,,210.69005030000005,210.70548680000002,211.18929060000005,211.19379990000004,211.20489970000006,211.672818,,,,,211.67301569999995,211.68791320000003,211.88838699999997,211.87217750000002,211.20489970000006,,,,,,,,0,1,0.4606006000000207,None,,,,,,,,892,22,M,R,2026-02-25_11h04.37.889,VisualSearch_2526_3,,2025.2.4,2026-02-25 11h04.38.394919 +0100,
tilted.xlsx,The target is tilted.,117,69,5,8,0,1,1,1,1,1,1,1,0,0,0,0,1,7,8,117,space,4.312021600000094,None,0,1,3.2111035000000356,None,space,2.5495958999999857,None,0,0,0,0,,,,,8,5,69,5,211.88838699999997,,,,,,,,,,,,,,,,,,,,,211.87291549999998,211.88838699999997,212.37187649999998,212.37643449999996,212.39237319999995,215.61988640000004,,,,,215.62000999999998,215.63610000000006,,215.8202414,212.39237319999995,,,,,,,,0,1,3.2111035000000356,None,,,,,,,,892,22,M,R,2026-02-25_11h04.37.889,VisualSearch_2526_3,,2025.2.4,2026-02-25 11h04.38.394919 +0100,
tilted.xlsx,The target is tilted.,117,70,6,8,1,1,1,1,1,1,1,1,0,0,0,0,0,7,8,117,space,4.312021600000094,None,0,0,2.1641671999999517,None,space,2.5495958999999857,None,0,0,0,0,,,,,8,6,70,1,215.8366046,,,,,,,,,,,,,,,,,,,,,215.82100979999996,215.8366046,216.32022229999995,216.32472819999998,216.3416671,218.51858819999995,,,,,218.51871570000003,218.53518329999997,,218.71893820000003,216.3416671,,,,,,,,0,0,2.1641671999999517,None,,,,,,,,892,22,M,R,2026-02-25_11h04.37.889,VisualSearch_2526_3,,2025.2.4,2026-02-25 11h04.38.394919 +0100,
tilted.xlsx,The target is tilted.,117,71,7,8,0,1,1,1,1,1,1,1,1,1,1,1,1,11,12,117,space,4.312021600000094,None,0,1,2.9569668999999976,None,space,2.5495958999999857,None,0,0,0,0,,,,,8,7,71,4,218.73529610000003,,,,,,,,,,,,,,,,,,,,,218.71967870000003,218.73529610000003,219.21874130000003,219.22336589999998,219.2408173,222.20106090000002,,,,,222.20125640000003,222.21648500000003,222.41693840000005,222.40079760000003,219.2408173,,,,,,,,0,1,2.9569668999999976,None,,,,,,,,892,22,M,R,2026-02-25_11h04.37.889,VisualSearch_2526_3,,2025.2.4,2026-02-25 11h04.38.394919 +0100,
tilted.xlsx,The target is tilted.,117,72,0,9,1,1,1,1,1,1,1,1,0,0,0,0,0,7,8,117,space,4.312021600000094,None,1,1,1.4256222999999864,None,space,2.5495958999999857,None,0,0,0,0,,,,,9,0,72,1,222.41693840000005,,,,,,,,,,,,,,,,,,,,,222.40152550000005,222.41693840000005,222.90056819999995,222.90501410000002,222.9217036,224.3505566,,,,,224.35078620000002,224.36549290000005,224.56566539999994,224.549753,222.9217036,,,,,,,,1,1,1.4256222999999864,None,,,,,,,,892,22,M,R,2026-02-25_11h04.37.889,VisualSearch_2526_3,,2025.2.4,2026-02-25 11h04.38.394919 +0100,
tilted.xlsx,The target is tilted.,117,73,1,9,1,1,1,1,0,0,0,0,0,0,0,0,0,3,4,117,space,4.312021600000094,None,1,1,1.00478099999998,None,space,2.5495958999999857,None,0,0,0,0,,,,,9,1,73,2,224.56566539999994,,,,,,,,,,,,,,,,,,,,,224.55048810000005,224.56566539999994,225.04955410000002,225.05401759999995,225.07098889999997,226.08275330000004,,,,,226.08296610000002,226.0980399,226.29848919999995,226.2822023,225.07098889999997,,,,,,,,1,1,1.00478099999998,None,,,,,,,,892,22,M,R,2026-02-25_11h04.37.889,VisualSearch_2526_3,,2025.2.4,2026-02-25 11h04.38.394919 +0100,
tilted.xlsx,The target is tilted.,117,74,2,9,0,1,1,1,1,1,1,1,0,0,0,0,1,7,8,117,space,4.312021600000094,None,0,1,1.7347302000000582,None,space,2.5495958999999857,None,0,0,0,0,,,,,9,2,74,5,226.29848919999995,,,,,,,,,,,,,,,,,,,,,226.28291479999996,226.29848919999995,226.78220650000003,226.78671029999998,226.80523489999996,228.5484732,,,,,228.54866600000003,228.56327850000002,228.76397959999997,228.74791330000005,226.80523489999996,,,,,,,,0,1,1.7347302000000582,None,,,,,,,,892,22,M,R,2026-02-25_11h04.37.889,VisualSearch_2526_3,,2025.2.4,2026-02-25 11h04.38.394919 +0100,
tilted.xlsx,The target is tilted.,117,75,3,9,1,0,0,0,0,0,0,0,0,0,0,0,0,0,1,117,space,4.312021600000094,None,1,1,0.5644906999999648,None,space,2.5495958999999857,None,0,0,0,0,,,,,9,3,75,3,228.76397959999997,,,,,,,,,,,,,,,,,,,,,228.74861280000005,228.76397959999997,229.24728070000003,229.25185409999995,229.26822449999997,229.8475327,,,,,229.84773170000005,229.86288430000002,230.0630473,230.047285,229.26822449999997,,,,,,,,1,1,0.5644906999999648,None,,,,,,,,892,22,M,R,2026-02-25_11h04.37.889,VisualSearch_2526_3,,2025.2.4,2026-02-25 11h04.38.394919 +0100,
tilted.xlsx,The target is tilted.,117,76,4,9,0,1,1,1,0,0,0,0,0,0,0,0,1,3,4,117,space,4.312021600000094,None,0,1,0.8677993000000015,None,space,2.5495958999999857,None,0,0,0,0,,,,,9,4,76,6,230.0630473,,,,,,,,,,,,,,,,,,,,,230.0480973,230.0630473,230.5467069,230.55141790000005,230.5626297,231.44648310000002,,,,,231.44665499999996,231.46218350000004,231.66259749999995,231.6468072,230.5626297,,,,,,,,0,1,0.8677993000000015,None,,,,,,,,892,22,M,R,2026-02-25_11h04.37.889,VisualSearch_2526_3,,2025.2.4,2026-02-25 11h04.38.394919 +0100,
tilted.xlsx,The target is tilted.,117,77,5,9,0,1,1,1,1,1,1,1,1,1,1,1,1,11,12,117,space,4.312021600000094,None,0,1,2.817348700000025,None,space,2.5495958999999857,None,0,0,0,0,,,,,9,5,77,4,231.66259749999995,,,,,,,,,,,,,,,,,,,,,231.64751650000005,231.66259749999995,232.14636770000004,232.15144769999995,232.1678038,234.9951009,,,,,234.99523439999996,235.01036580000005,235.21114790000001,235.19496070000002,232.1678038,,,,,,,,0,1,2.817348700000025,None,,,,,,,,892,22,M,R,2026-02-25_11h04.37.889,VisualSearch_2526_3,,2025.2.4,2026-02-25 11h04.38.394919 +0100,
tilted.xlsx,The target is tilted.,117,78,6,9,0,0,0,0,0,0,0,0,0,0,0,0,1,1,1,117,space,4.312021600000094,None,0,1,0.5531045999999833,None,space,2.5495958999999857,None,0,0,0,0,,,,,9,6,78,7,235.21114790000001,,,,,,,,,,,,,,,,,,,,,235.19566629999997,235.21114790000001,235.69463570000005,235.69914659999995,235.7151596,236.27823179999996,,,,,236.27842039999996,236.2934292,236.49378249999995,236.47774879999997,235.7151596,,,,,,,,0,1,0.5531045999999833,None,,,,,,,,892,22,M,R,2026-02-25_11h04.37.889,VisualSearch_2526_3,,2025.2.4,2026-02-25 11h04.38.394919 +0100,
tilted.xlsx,The target is tilted.,117,79,7,9,1,1,1,1,1,1,1,1,1,1,1,1,0,11,12,117,space,4.312021600000094,None,0,0,2.3712931000000026,None,space,2.5495958999999857,None,0,0,0,0,,,,,9,7,79,0,236.49378249999995,,,,,,,,,,,,,,,,,,,,,236.47846830000003,236.49378249999995,236.97749769999996,236.98203909999995,236.9933681,239.37704380000002,,,,,239.3772378,239.39201830000002,239.5924331,239.5763151,236.9933681,,,,,,,,0,0,2.3712931000000026,None,,,,,,,,892,22,M,R,2026-02-25_11h04.37.889,VisualSearch_2526_3,,2025.2.4,2026-02-25 11h04.38.394919 +0100,
tilted.xlsx,The target is tilted.,117,80,0,10,1,1,1,1,1,1,1,1,0,0,0,0,0,7,8,117,space,4.312021600000094,None,1,1,1.5484193999999434,None,space,2.5495958999999857,None,0,0,0,0,,,,,10,0,80,1,239.5924331,,,,,,,,,,,,,,,,,,,,,239.5770169,239.5924331,240.07595270000002,240.08050960000003,240.09729760000005,241.6586463,,,,,241.6588822,241.67420470000002,241.87430319999999,241.85834160000002,240.09729760000005,,,,,,,,1,1,1.5484193999999434,None,,,,,,,,892,22,M,R,2026-02-25_11h04.37.889,VisualSearch_2526_3,,2025.2.4,2026-02-25 11h04.38.394919 +0100,
tilted.xlsx,The target is tilted.,117,81,1,10,0,1,1,1,0,0,0,0,0,0,0,0,1,3,4,117,space,4.312021600000094,None,0,1,0.7294092999999293,None,space,2.5495958999999857,None,0,0,0,0,,,,,10,1,81,6,241.87430319999999,,,,,,,,,,,,,,,,,,,,,241.85905400000001,241.87430319999999,242.3583761,242.36282670000003,242.3794765,243.12465139999995,,,,,243.12487769999996,243.14020630000005,243.34058979999998,243.3245667,242.3794765,,,,,,,,0,1,0.7294092999999293,None,,,,,,,,892,22,M,R,2026-02-25_11h04.37.889,VisualSearch_2526_3,,2025.2.4,2026-02-25 11h04.38.394919 +0100,
tilted.xlsx,The target is tilted.,117,82,2,10,1,0,0,0,0,0,0,0,0,0,0,0,0,0,1,117,space,4.312021600000094,None,1,1,0.6040138999999272,None,space,2.5495958999999857,None,0,0,0,0,,,,,10,2,82,3,243.34058979999998,,,,,,,,,,,,,,,,,,,,,243.32530250000002,243.34058979999998,243.82450970000002,243.8291805,243.84744869999997,244.4579311,,,,,244.4581435,244.47303839999995,244.6734742,244.65729950000002,243.84744869999997,,,,,,,,1,1,0.6040138999999272,None,,,,,,,,892,22,M,R,2026-02-25_11h04.37.889,VisualSearch_2526_3,,2025.2.4,2026-02-25 11h04.38.394919 +0100,
tilted.xlsx,The target is tilted.,117,83,3,10,0,0,0,0,0,0,0,0,0,0,0,0,1,1,1,117,space,4.312021600000094,None,0,1,0.5552582000000257,None,space,2.5495958999999857,None,0,0,0,0,,,,,10,3,83,7,244.6734742,,,,,,,,,,,,,,,,,,,,,244.658099,244.6734742,245.15711050000004,245.16158870000004,245.17949469999996,245.74021670000002,,,,,245.74035070000002,245.75551640000003,245.95625500000006,245.9397255,245.17949469999996,,,,,,,,0,1,0.5552582000000257,None,,,,,,,,892,22,M,R,2026-02-25_11h04.37.889,VisualSearch_2526_3,,2025.2.4,2026-02-25 11h04.38.394919 +0100,
tilted.xlsx,The target is tilted.,117,84,4,10,1,1,1,1,0,0,0,0,0,0,0,0,0,3,4,117,space,4.312021600000094,None,1,1,0.6621758,None,space,2.5495958999999857,None,0,0,0,0,,,,,10,4,84,2,245.95625500000006,,,,,,,,,,,,,,,,,,,,,245.9404545,245.95625500000006,246.43974849999995,246.4442378,246.46023290000005,247.13938480000002,,,,,247.1394712,247.15531550000003,247.35556640000004,247.33931689999997,246.46023290000005,,,,,,,,1,1,0.6621758,None,,,,,,,,892,22,M,R,2026-02-25_11h04.37.889,VisualSearch_2526_3,,2025.2.4,2026-02-25 11h04.38.394919 +0100,
tilted.xlsx,The target is tilted.,117,85,5,10,0,1,1,1,1,1,1,1,0,0,0,0,1,7,8,117,space,4.312021600000094,None,0,1,2.059465699999919,None,space,2.5495958999999857,None,0,0,0,0,,,,,10,5,85,5,247.35556640000004,,,,,,,,,,,,,,,,,,,,,247.34004549999997,247.35556640000004,247.83920290000003,247.84371710000005,247.85904870000002,249.92183650000004,,,,,249.9220305,249.9376562,250.13769649999995,250.12171350000006,247.85904870000002,,,,,,,,0,1,2.059465699999919,None,,,,,,,,892,22,M,R,2026-02-25_11h04.37.889,VisualSearch_2526_3,,2025.2.4,2026-02-25 11h04.38.394919 +0100,
tilted.xlsx,The target is tilted.,117,86,6,10,0,1,1,1,1,1,1,1,1,1,1,1,1,11,12,117,space,4.312021600000094,None,0,1,3.5347320000000764,None,space,2.5495958999999857,None,0,0,0,0,,,,,10,6,86,4,250.13769649999995,,,,,,,,,,,,,,,,,,,,,250.1225008,250.13769649999995,250.62122179999994,250.62570110000001,250.6430017,254.18662270000004,,,,,254.18678279999995,254.20239119999997,254.40227979999997,254.38607909999996,250.6430017,,,,,,,,0,1,3.5347320000000764,None,,,,,,,,892,22,M,R,2026-02-25_11h04.37.889,VisualSearch_2526_3,,2025.2.4,2026-02-25 11h04.38.394919 +0100,
tilted.xlsx,The target is tilted.,117,87,7,10,1,1,1,1,1,1,1,1,1,1,1,1,0,11,12,117,space,4.312021600000094,None,0,0,2.2785936999999876,None,space,2.5495958999999857,None,0,0,0,0,,,,,10,7,87,0,254.40227979999997,,,,,,,,,,,,,,,,,,,,,254.38677889999997,254.40227979999997,254.88598409999997,254.89061919999995,254.9016378,257.18549499999995,,,,,257.1856881,257.2009991,257.40106249999997,257.3847829,254.9016378,,,,,,,,0,0,2.2785936999999876,None,,,,,,,,892,22,M,R,2026-02-25_11h04.37.889,VisualSearch_2526_3,,2025.2.4,2026-02-25 11h04.38.394919 +0100,
tilted.xlsx,The target is tilted.,117,88,0,11,1,1,1,1,0,0,0,0,0,0,0,0,0,3,4,117,space,4.312021600000094,None,1,1,1.0045443999999861,None,space,2.5495958999999857,None,0,0,0,0,,,,,11,0,88,2,257.40106249999997,,,,,,,,,,,,,,,,,,,,,257.3855171,257.40106249999997,257.88466200000005,257.88921189999996,257.9075394,258.9177863,,,,,258.91797870000005,258.93352960000004,259.1335255,259.11737389999996,257.9075394,,,,,,,,1,1,1.0045443999999861,None,,,,,,,,892,22,M,R,2026-02-25_11h04.37.889,VisualSearch_2526_3,,2025.2.4,2026-02-25 11h04.38.394919 +0100,
tilted.xlsx,The target is tilted.,117,89,1,11,1,0,0,0,0,0,0,0,0,0,0,0,0,0,1,117,space,4.312021600000094,None,1,1,0.8134459000000334,None,space,2.5495958999999857,None,0,0,0,0,,,,,11,1,89,3,259.1335255,,,,,,,,,,,,,,,,,,,,,259.1182152,259.1335255,259.6171121,259.62157909999996,259.6393494,260.46738889999995,,,,,260.467582,260.4828596,260.68257489999996,260.6665882,259.6393494,,,,,,,,1,1,0.8134459000000334,None,,,,,,,,892,22,M,R,2026-02-25_11h04.37.889,VisualSearch_2526_3,,2025.2.4,2026-02-25 11h04.38.394919 +0100,
tilted.xlsx,The target is tilted.,117,90,2,11,1,1,1,1,1,1,1,1,1,1,1,1,0,11,12,117,space,4.312021600000094,None,1,1,2.4815090000000737,None,space,2.5495958999999857,None,0,0,0,0,,,,,11,2,90,0,260.68257489999996,,,,,,,,,,,,,,,,,,,,,260.6673257,260.68257489999996,261.1664101,261.170876,261.1879238,263.68244990000005,,,,,263.6826456,263.6980237,263.8981708,263.8821812,261.1879238,,,,,,,,1,1,2.4815090000000737,None,,,,,,,,892,22,M,R,2026-02-25_11h04.37.889,VisualSearch_2526_3,,2025.2.4,2026-02-25 11h04.38.394919 +0100,
tilted.xlsx,The target is tilted.,117,91,3,11,0,1,1,1,0,0,0,0,0,0,0,0,1,3,4,117,space,4.312021600000094,None,0,1,0.8608696000000009,None,space,2.5495958999999857,None,0,0,0,0,,,,,11,3,91,6,263.8981708,,,,,,,,,,,,,,,,,,,,,263.8829815,263.8981708,264.3816309,264.3861839,264.4011246,265.26529419999997,,,,,265.26552130000005,265.2806706,265.48069280000004,265.46448999999996,264.4011246,,,,,,,,0,1,0.8608696000000009,None,,,,,,,,892,22,M,R,2026-02-25_11h04.37.889,VisualSearch_2526_3,,2025.2.4,2026-02-25 11h04.38.394919 +0100,
tilted.xlsx,The target is tilted.,117,92,4,11,0,1,1,1,1,1,1,1,0,0,0,0,1,7,8,117,space,4.312021600000094,None,0,1,2.1331927999999607,None,space,2.5495958999999857,None,0,0,0,0,,,,,11,4,92,5,265.48069280000004,,,,,,,,,,,,,,,,,,,,,265.4652152,265.48069280000004,265.9639373,265.96842730000003,265.98688219999997,268.1303047,,,,,268.13047630000005,268.14608439999995,268.34607289999997,268.32982830000003,265.98688219999997,,,,,,,,0,1,2.1331927999999607,None,,,,,,,,892,22,M,R,2026-02-25_11h04.37.889,VisualSearch_2526_3,,2025.2.4,2026-02-25 11h04.38.394919 +0100,
tilted.xlsx,The target is tilted.,117,93,5,11,0,1,1,1,1,1,1,1,1,1,1,1,1,11,12,117,space,4.312021600000094,None,0,1,2.3091157999999723,None,space,2.5495958999999857,None,0,0,0,0,,,,,11,5,93,4,268.34607289999997,,,,,,,,,,,,,,,,,,,,,268.33056020000004,268.34607289999997,268.8296855,268.8341315,268.85201989999996,271.16246520000004,,,,,271.16265599999997,271.1779477,271.37801,271.36186810000004,268.85201989999996,,,,,,,,0,1,2.3091157999999723,None,,,,,,,,892,22,M,R,2026-02-25_11h04.37.889,VisualSearch_2526_3,,2025.2.4,2026-02-25 11h04.38.394919 +0100,
tilted.xlsx,The target is tilted.,117,94,6,11,0,0,0,0,0,0,0,0,0,0,0,0,1,1,1,117,space,4.312021600000094,None,0,1,0.8554206999999678,None,space,2.5495958999999857,None,0,0,0,0,,,,,11,6,94,7,271.37801,,,,,,,,,,,,,,,,,,,,,271.36259729999995,271.37801,271.8615374,271.8660188,271.8819767,272.7440586,,,,,272.7441361,272.76041680000003,272.96062870000003,272.94439580000005,271.8819767,,,,,,,,0,1,0.8554206999999678,None,,,,,,,,892,22,M,R,2026-02-25_11h04.37.889,VisualSearch_2526_3,,2025.2.4,2026-02-25 11h04.38.394919 +0100,
tilted.xlsx,The target is tilted.,117,95,7,11,1,1,1,1,1,1,1,1,0,0,0,0,0,7,8,117,space,4.312021600000094,None,0,0,2.954856100000029,None,space,2.5495958999999857,None,0,0,0,0,,,,,11,7,95,1,272.96062870000003,,,,,,,,,,,,,,,,,,,,,272.9451222,272.96062870000003,273.44423229999995,273.448715,273.46470109999996,276.42689310000003,,,,,276.4271278,276.44224499999996,276.6418804,276.6261211,273.46470109999996,,,,,,,,0,0,2.954856100000029,None,,,,,,,,892,22,M,R,2026-02-25_11h04.37.889,VisualSearch_2526_3,,2025.2.4,2026-02-25 11h04.38.394919 +0100,
tilted.xlsx,The target is tilted.,117,96,0,12,0,1,1,1,1,1,1,1,1,1,1,1,1,11,12,117,space,4.312021600000094,None,0,1,3.424801300000013,None,space,2.5495958999999857,None,0,0,0,0,,,,,12,0,96,4,276.6418804,,,,,,,,,,,,,,,,,,,,,276.62682970000003,276.6418804,277.12594809999996,277.1303898,277.1473112,280.5740832,,,,,280.57417069999997,280.5899971,280.79044339999996,280.7741598,277.1473112,,,,,,,,0,1,3.424801300000013,None,,,,,,,,892,22,M,R,2026-02-25_11h04.37.889,VisualSearch_2526_3,,2025.2.4,2026-02-25 11h04.38.394919 +0100,
tilted.xlsx,The target is tilted.,117,97,1,12,1,1,1,1,1,1,1,1,1,1,1,1,0,11,12,117,space,4.312021600000094,None,1,1,1.9349851000000626,None,space,2.5495958999999857,None,0,0,0,0,,,,,12,1,97,0,280.79044339999996,,,,,,,,,,,,,,,,,,,,,280.77490939999996,280.79044339999996,281.2738951,281.27840849999995,281.29497319999996,283.23995560000003,,,,,283.24009290000004,283.25581639999996,283.45586579999997,283.43958399999997,281.29497319999996,,,,,,,,1,1,1.9349851000000626,None,,,,,,,,892,22,M,R,2026-02-25_11h04.37.889,VisualSearch_2526_3,,2025.2.4,2026-02-25 11h04.38.394919 +0100,
tilted.xlsx,The target is tilted.,117,98,2,12,0,0,0,0,0,0,0,0,0,0,0,0,1,1,1,117,space,4.312021600000094,None,0,1,0.47346939999999904,None,space,2.5495958999999857,None,0,0,0,0,,,,,12,2,98,7,283.45586579999997,,,,,,,,,,,,,,,,,,,,,283.4403264,283.45586579999997,283.93937800000003,283.9438815,283.96042480000006,284.4397931,,,,,284.43998180000006,284.455242,284.6553212,284.6391674,283.96042480000006,,,,,,,,0,1,0.47346939999999904,None,,,,,,,,892,22,M,R,2026-02-25_11h04.37.889,VisualSearch_2526_3,,2025.2.4,2026-02-25 11h04.38.394919 +0100,
tilted.xlsx,The target is tilted.,117,99,3,12,0,1,1,1,1,1,1,1,0,0,0,0,1,7,8,117,space,4.312021600000094,None,0,1,2.4664887000000135,None,space,2.5495958999999857,None,0,0,0,0,,,,,12,3,99,5,284.6553212,,,,,,,,,,,,,,,,,,,,,284.6398643,284.6553212,285.13874910000004,285.14323290000004,285.1608986,287.63678359999994,,,,,287.6368545,287.6531096,287.85301860000004,287.8365821,285.1608986,,,,,,,,0,1,2.4664887000000135,None,,,,,,,,892,22,M,R,2026-02-25_11h04.37.889,VisualSearch_2526_3,,2025.2.4,2026-02-25 11h04.38.394919 +0100,
tilted.xlsx,The target is tilted.,117,100,4,12,1,0,0,0,0,0,0,0,0,0,0,0,0,0,1,117,space,4.312021600000094,None,1,1,0.8316595000000007,None,space,2.5495958999999857,None,0,0,0,0,,,,,12,4,100,3,287.85301860000004,,,,,,,,,,,,,,,,,,,,,287.8368898,287.85301860000004,288.33708449999995,288.3427679,288.35996580000005,289.2043103,,,,,289.20450330000006,289.2199948,289.4195274,289.40375989999995,,,,,,,,,1,1,0.8316595000000007,None,,,,,,,,892,22,M,R,2026-02-25_11h04.37.889,VisualSearch_2526_3,,2025.2.4,2026-02-25 11h04.38.394919 +0100,
tilted.xlsx,The target is tilted.,117,101,5,12,1,1,1,1,0,0,0,0,0,0,0,0,0,3,4,117,space,4.312021600000094,None,1,1,0.8347883000000138,None,space,2.5495958999999857,None,0,0,0,0,,,,,12,5,101,2,289.4195274,,,,,,,,,,,,,,,,,,,,,289.4045675,289.4195274,289.90343340000004,289.90855039999997,289.92403750000005,290.77025779999997,,,,,290.77045269999996,290.785538,290.98565099999996,290.9694118,289.92403750000005,,,,,,,,1,1,0.8347883000000138,None,,,,,,,,892,22,M,R,2026-02-25_11h04.37.889,VisualSearch_2526_3,,2025.2.4,2026-02-25 11h04.38.394919 +0100,
tilted.xlsx,The target is tilted.,117,102,6,12,1,1,1,1,1,1,1,1,0,0,0,0,0,7,8,117,space,4.312021600000094,None,1,1,0.7723729000000503,None,space,2.5495958999999857,None,0,0,0,0,,,,,12,6,102,1,290.98565099999996,,,,,,,,,,,,,,,,,,,,,290.97014320000005,290.98565099999996,291.46938409999996,291.47385859999997,291.49143649999996,292.2696184,,,,,292.2698157,292.2850601,292.484966,292.4688913,291.49143649999996,,,,,,,,1,1,0.7723729000000503,None,,,,,,,,892,22,M,R,2026-02-25_11h04.37.889,VisualSearch_2526_3,,2025.2.4,2026-02-25 11h04.38.394919 +0100,
tilted.xlsx,The target is tilted.,117,103,7,12,0,1,1,1,0,0,0,0,0,0,0,0,1,3,4,117,space,4.312021600000094,None,0,1,0.7309943000000203,None,space,2.5495958999999857,None,0,0,0,0,,,,,12,7,103,6,292.484966,,,,,,,,,,,,,,,,,,,,,292.46961739999995,292.484966,292.9686468,292.9731911,292.9905307,293.7351463,,,,,293.73528839999994,293.7510301,293.95118909999997,293.93509819999997,292.9905307,,,,,,,,0,1,0.7309943000000203,None,,,,,,,,892,22,M,R,2026-02-25_11h04.37.889,VisualSearch_2526_3,,2025.2.4,2026-02-25 11h04.38.394919 +0100,
tilted.xlsx,The target is tilted.,117,104,0,13,1,1,1,1,1,1,1,1,1,1,1,1,0,11,12,117,space,4.312021600000094,None,0,0,3.5366138999999066,None,space,2.5495958999999857,None,0,0,0,0,,,,,13,0,104,0,293.95118909999997,,,,,,,,,,,,,,,,,,,,,293.9358902,293.95118909999997,294.4346726,294.43913339999995,294.45559360000004,298.0003365,,,,,298.0005308,298.01579519999996,298.21579859999997,298.1998231,294.45559360000004,,,,,,,,0,0,3.5366138999999066,None,,,,,,,,892,22,M,R,2026-02-25_11h04.37.889,VisualSearch_2526_3,,2025.2.4,2026-02-25 11h04.38.394919 +0100,
tilted.xlsx,The target is tilted.,117,105,1,13,0,0,0,0,0,0,0,0,0,0,0,0,1,1,1,117,space,4.312021600000094,None,0,1,0.740146999999979,None,space,2.5495958999999857,None,0,0,0,0,,,,,13,1,105,7,298.21579859999997,,,,,,,,,,,,,,,,,,,,,298.2006169,298.21579859999997,298.6995009,298.70397790000004,298.72009560000004,299.46619769999995,,,,,299.4663981,299.4817262,299.68179439999994,299.6653775,298.72009560000004,,,,,,,,0,1,0.740146999999979,None,,,,,,,,892,22,M,R,2026-02-25_11h04.37.889,VisualSearch_2526_3,,2025.2.4,2026-02-25 11h04.38.394919 +0100,
tilted.xlsx,The target is tilted.,117,106,2,13,1,0,0,0,0,0,0,0,0,0,0,0,0,0,1,117,space,4.312021600000094,None,1,1,0.5442323999999417,None,space,2.5495958999999857,None,0,0,0,0,,,,,13,2,106,3,299.68179439999994,,,,,,,,,,,,,,,,,,,,,299.6660832,299.68179439999994,300.16548939999996,300.170068,300.1880453,300.74828709999997,,,,,300.74838109999996,300.7642564,300.96452780000004,300.9484135,300.1880453,,,,,,,,1,1,0.5442323999999417,None,,,,,,,,892,22,M,R,2026-02-25_11h04.37.889,VisualSearch_2526_3,,2025.2.4,2026-02-25 11h04.38.394919 +0100,
tilted.xlsx,The target is tilted.,117,107,3,13,0,1,1,1,1,1,1,1,1,1,1,1,1,11,12,117,space,4.312021600000094,None,0,1,3.177195099999949,None,space,2.5495958999999857,None,0,0,0,0,,,,,13,3,107,4,300.96452780000004,,,,,,,,,,,,,,,,,,,,,300.9491381,300.96452780000004,301.44817049999995,301.4527087,301.4695917,304.6631394,,,,,304.6632211,304.67928930000005,304.8794388,304.86318270000004,301.4695917,,,,,,,,0,1,3.177195099999949,None,,,,,,,,892,22,M,R,2026-02-25_11h04.37.889,VisualSearch_2526_3,,2025.2.4,2026-02-25 11h04.38.394919 +0100,
tilted.xlsx,The target is tilted.,117,108,4,13,1,1,1,1,1,1,1,1,0,0,0,0,0,7,8,117,space,4.312021600000094,None,1,1,1.0476950999999417,None,space,2.5495958999999857,None,0,0,0,0,,,,,13,4,108,1,304.8794388,,,,,,,,,,,,,,,,,,,,,304.86390129999995,304.8794388,305.36291429999994,305.36744610000005,305.38322389999996,306.44639270000005,,,,,306.4465884,306.46174829999995,306.661657,306.64573359999997,305.38322389999996,,,,,,,,1,1,1.0476950999999417,None,,,,,,,,892,22,M,R,2026-02-25_11h04.37.889,VisualSearch_2526_3,,2025.2.4,2026-02-25 11h04.38.394919 +0100,
tilted.xlsx,The target is tilted.,117,109,5,13,0,1,1,1,0,0,0,0,0,0,0,0,1,3,4,117,space,4.312021600000094,None,0,1,0.694653100000096,None,space,2.5495958999999857,None,0,0,0,0,,,,,13,5,109,6,306.661657,,,,,,,,,,,,,,,,,,,,,306.6464747,306.661657,307.14549769999996,307.15006559999995,307.16723950000005,307.8790094,,,,,307.87919899999997,307.89431920000004,308.09455160000005,308.07856460000005,307.16723950000005,,,,,,,,0,1,0.694653100000096,None,,,,,,,,892,22,M,R,2026-02-25_11h04.37.889,VisualSearch_2526_3,,2025.2.4,2026-02-25 11h04.38.394919 +0100,
tilted.xlsx,The target is tilted.,117,110,6,13,0,1,1,1,1,1,1,1,0,0,0,0,1,7,8,117,space,4.312021600000094,None,0,1,1.7671450000000277,None,space,2.5495958999999857,None,0,0,0,0,,,,,13,6,110,5,308.09455160000005,,,,,,,,,,,,,,,,,,,,,308.07939680000004,308.09455160000005,308.577816,308.5822813,308.5969992,310.37783809999996,,,,,310.3780154,310.39324150000004,310.59296930000005,310.5766265,308.5969992,,,,,,,,0,1,1.7671450000000277,None,,,,,,,,892,22,M,R,2026-02-25_11h04.37.889,VisualSearch_2526_3,,2025.2.4,2026-02-25 11h04.38.394919 +0100,
tilted.xlsx,The target is tilted.,117,111,7,13,1,1,1,1,0,0,0,0,0,0,0,0,0,3,4,117,space,4.312021600000094,None,1,1,1.274151399999937,None,space,2.5495958999999857,None,0,0,0,0,,,,,13,7,111,2,310.59296930000005,,,,,,,,,,,,,,,,,,,,,310.5769686,310.59296930000005,311.07684129999996,311.081541,311.09976630000006,312.37704699999995,,,,,312.3772205,312.39247609999995,312.59243619999995,312.5764726,311.09976630000006,,,,,,,,1,1,1.274151399999937,None,,,,,,,,892,22,M,R,2026-02-25_11h04.37.889,VisualSearch_2526_3,,2025.2.4,2026-02-25 11h04.38.394919 +0100,
tilted.xlsx,The target is tilted.,117,112,0,14,1,1,1,1,1,1,1,1,1,1,1,1,0,11,12,117,space,4.312021600000094,None,0,0,2.536461299999928,None,space,2.5495958999999857,None,0,0,0,0,,,,,14,0,112,0,312.59243619999995,,,,,,,,,,,,,,,,,,,,,312.57719870000005,312.59243619999995,313.07619539999996,313.0806917,313.096492,315.64181240000005,,,,,315.64194669999995,315.6577513,315.85753239999997,315.8415186,313.096492,,,,,,,,0,0,2.536461299999928,None,,,,,,,,892,22,M,R,2026-02-25_11h04.37.889,VisualSearch_2526_3,,2025.2.4,2026-02-25 11h04.38.394919 +0100,
tilted.xlsx,The target is tilted.,117,113,1,14,1,1,1,1,1,1,1,1,0,0,0,0,0,7,8,117,space,4.312021600000094,None,1,1,1.8167002999999795,None,space,2.5495958999999857,None,0,0,0,0,,,,,14,1,113,1,315.85753239999997,,,,,,,,,,,,,,,,,,,,,315.8422272,315.85753239999997,316.34148530000004,316.34593670000004,316.36251359999994,318.19038379999995,,,,,318.19046749999995,318.2062349,318.4065776,318.39012909999997,316.36251359999994,,,,,,,,1,1,1.8167002999999795,None,,,,,,,,892,22,M,R,2026-02-25_11h04.37.889,VisualSearch_2526_3,,2025.2.4,2026-02-25 11h04.38.394919 +0100,
tilted.xlsx,The target is tilted.,117,114,2,14,1,0,0,0,0,0,0,0,0,0,0,0,0,0,1,117,space,4.312021600000094,None,1,1,0.7446694999999863,None,space,2.5495958999999857,None,0,0,0,0,,,,,14,2,114,3,318.4065776,,,,,,,,,,,,,,,,,,,,,318.3908666,318.4065776,318.89006889999996,318.89452689999996,318.91305709999995,319.67335219999995,,,,,319.67352400000004,319.6892957,319.88921960000005,319.8729905,318.91305709999995,,,,,,,,1,1,0.7446694999999863,None,,,,,,,,892,22,M,R,2026-02-25_11h04.37.889,VisualSearch_2526_3,,2025.2.4,2026-02-25 11h04.38.394919 +0100,
tilted.xlsx,The target is tilted.,117,115,3,14,1,1,1,1,0,0,0,0,0,0,0,0,0,3,4,117,space,4.312021600000094,None,1,1,0.8211850999999797,None,space,2.5495958999999857,None,0,0,0,0,,,,,14,3,115,2,319.88921960000005,,,,,,,,,,,,,,,,,,,,,319.8737198,319.88921960000005,320.37293179999995,320.37802309999995,320.39418420000004,321.22286899999995,,,,,321.2230578,321.2387003,321.43859039999995,321.4221434,320.39418420000004,,,,,,,,1,1,0.8211850999999797,None,,,,,,,,892,22,M,R,2026-02-25_11h04.37.889,VisualSearch_2526_3,,2025.2.4,2026-02-25 11h04.38.394919 +0100,
tilted.xlsx,The target is tilted.,117,116,4,14,0,1,1,1,1,1,1,1,1,1,1,1,1,11,12,117,space,4.312021600000094,None,0,1,2.9263504000000466,None,space,2.5495958999999857,None,0,0,0,0,,,,,14,4,116,4,321.43859039999995,,,,,,,,,,,,,,,,,,,,,321.42286809999996,321.43859039999995,321.9221804,321.926738,321.9422168,324.87158280000006,,,,,324.87179519999995,324.8869158,325.08662719999995,325.0706308,321.9422168,,,,,,,,0,1,2.9263504000000466,None,,,,,,,,892,22,M,R,2026-02-25_11h04.37.889,VisualSearch_2526_3,,2025.2.4,2026-02-25 11h04.38.394919 +0100,
tilted.xlsx,The target is tilted.,117,117,5,14,0,1,1,1,1,1,1,1,0,0,0,0,1,7,8,117,space,4.312021600000094,None,0,1,1.8428609000000051,None,space,2.5495958999999857,None,0,0,0,0,,,,,14,5,117,5,325.08662719999995,,,,,,,,,,,,,,,,,,,,,325.07136909999997,325.08662719999995,325.57066310000005,325.57516180000005,325.5918143,327.4367724,,,,,327.43694519999997,327.4523716,327.6523786,327.6362736,325.5918143,,,,,,,,0,1,1.8428609000000051,None,,,,,,,,892,22,M,R,2026-02-25_11h04.37.889,VisualSearch_2526_3,,2025.2.4,2026-02-25 11h04.38.394919 +0100,
tilted.xlsx,The target is tilted.,117,118,6,14,0,1,1,1,0,0,0,0,0,0,0,0,1,3,4,117,space,4.312021600000094,None,0,1,0.9128941999999824,None,space,2.5495958999999857,None,0,0,0,0,,,,,14,6,118,6,327.6523786,,,,,,,,,,,,,,,,,,,,,327.6370399,327.6523786,328.13602249999997,328.1405343,328.15919469999994,329.08594389999996,,,,,329.0861159,329.1016366,329.30175380000003,329.2854182,328.15919469999994,,,,,,,,0,1,0.9128941999999824,None,,,,,,,,892,22,M,R,2026-02-25_11h04.37.889,VisualSearch_2526_3,,2025.2.4,2026-02-25 11h04.38.394919 +0100,
tilted.xlsx,The target is tilted.,117,119,7,14,0,0,0,0,0,0,0,0,0,0,0,0,1,1,1,117,space,4.312021600000094,None,0,1,0.5339203999999427,None,space,2.5495958999999857,None,0,0,0,0,,,,,14,7,119,7,329.30175380000003,,,,,,,,,,,,,,,,,,,,,329.286239,329.30175380000003,329.7852746,329.7903324,329.8057222,330.3510255,,,,,330.35112349999997,330.367611,,330.5514098,329.8057222,,,,,,,,0,1,0.5339203999999427,None,,,,,,,,892,22,M,R,2026-02-25_11h04.37.889,VisualSearch_2526_3,,2025.2.4,2026-02-25 11h04.38.394919 +0100,
tilted.xlsx,The target is tilted.,117,0,0,0,,,,,,,,,,,,,,,,,space,4.312021600000094,None,,,,,space,2.5495958999999857,None,0,0,0,0,,,,,,,,,,,,,,,,,,,,,,,,,,,,,,,,,,,,,,,,,,,,,,,,,,,,,,,,,,,,,,,892,22,M,R,2026-02-25_11h04.37.889,VisualSearch_2526_3,,2025.2.4,2026-02-25 11h04.38.394919 +0100,
vertical.xlsx,The target is tilted.,135,0,0,0,1,1,1,1,0,0,0,0,0,0,0,0,0,3,4,135,space,5.496243600000071,None,1,1,0.7089131999999836,None,,,,0,1,1,1,0,0,0,2,,,,,336.13221869999995,,,,,,,,,,,,,,,330.5834452,330.5834452,330.5834452,space,5.496243600000071,None,336.1282672,336.13221869999995,336.5985624,336.60313399999995,336.62024399999996,337.3326055,1,1,0.7089131999999836,None,337.3327766,337.34783660000005,337.547966,337.53184899999997,,,,,,,,,,,,,,,,,,,,892,22,M,R,2026-02-25_11h04.37.889,VisualSearch_2526_3,,2025.2.4,2026-02-25 11h04.38.394919 +0100,
vertical.xlsx,The target is tilted.,135,1,1,0,0,1,1,1,0,0,0,0,0,0,0,0,1,3,4,135,space,5.496243600000071,None,0,1,0.899837600000069,None,,,,0,1,1,1,0,1,1,6,,,,,337.547966,,,,,,,,,,,,,,,,,,,,,337.5325256,337.547966,338.0315091,338.0359889,338.0536628,338.9649247,0,1,0.899837600000069,None,338.96511139999996,338.980493,339.1805987,339.1645065,338.0536628,,,,,,,,,,,,,,,,,,,892,22,M,R,2026-02-25_11h04.37.889,VisualSearch_2526_3,,2025.2.4,2026-02-25 11h04.38.394919 +0100,
vertical.xlsx,The target is tilted.,135,2,2,0,0,1,1,1,1,1,1,1,1,1,1,1,1,11,12,135,space,5.496243600000071,None,0,1,2.020736100000022,None,,,,0,1,1,1,0,2,2,4,,,,,339.1805987,,,,,,,,,,,,,,,,,,,,,339.16526980000003,339.1805987,339.66409980000003,339.66869610000003,339.6845694,341.7136242,0,1,2.020736100000022,None,341.7138129,341.7292063,341.92929819999995,341.9129682,339.6845694,,,,,,,,,,,,,,,,,,,892,22,M,R,2026-02-25_11h04.37.889,VisualSearch_2526_3,,2025.2.4,2026-02-25 11h04.38.394919 +0100,
vertical.xlsx,The target is tilted.,135,3,3,0,1,1,1,1,1,1,1,1,1,1,1,1,0,11,12,135,space,5.496243600000071,None,1,1,0.6805259999999862,None,,,,0,1,1,1,0,3,3,0,,,,,341.92929819999995,,,,,,,,,,,,,,,,,,,,,341.9136261,341.92929819999995,342.41272619999995,342.41751669999996,342.43250279999995,343.1298276,1,1,0.6805259999999862,None,343.1300188,343.14526120000005,343.3452925,343.329024,342.43250279999995,,,,,,,,,,,,,,,,,,,892,22,M,R,2026-02-25_11h04.37.889,VisualSearch_2526_3,,2025.2.4,2026-02-25 11h04.38.394919 +0100,
vertical.xlsx,The target is tilted.,135,4,4,0,0,0,0,0,0,0,0,0,0,0,0,0,1,1,1,135,space,5.496243600000071,None,0,1,0.5018969999999854,None,,,,0,1,1,1,0,4,4,7,,,,,343.3452925,,,,,,,,,,,,,,,,,,,,,343.3296938,343.3452925,343.8288698,343.833389,343.85200280000004,344.36260990000005,0,1,0.5018969999999854,None,344.362799,344.3780385,344.5780684,344.56190519999996,343.85200280000004,,,,,,,,,,,,,,,,,,,892,22,M,R,2026-02-25_11h04.37.889,VisualSearch_2526_3,,2025.2.4,2026-02-25 11h04.38.394919 +0100,
vertical.xlsx,The target is tilted.,135,5,5,0,1,1,1,1,1,1,1,1,0,0,0,0,0,7,8,135,space,5.496243600000071,None,1,1,0.6065206000000671,None,,,,0,1,1,1,0,5,5,1,,,,,344.5780684,,,,,,,,,,,,,,,,,,,,,344.56258490000005,344.5780684,345.061328,345.0658247,345.0838186,345.6951457,1,1,0.6065206000000671,None,345.6953307,345.7107466,345.9108205,345.8946432,345.0838186,,,,,,,,,,,,,,,,,,,892,22,M,R,2026-02-25_11h04.37.889,VisualSearch_2526_3,,2025.2.4,2026-02-25 11h04.38.394919 +0100,
vertical.xlsx,The target is tilted.,135,6,6,0,1,0,0,0,0,0,0,0,0,0,0,0,0,0,1,135,space,5.496243600000071,None,1,1,0.6460197000000107,None,,,,0,1,1,1,0,6,6,3,,,,,345.9108205,,,,,,,,,,,,,,,,,,,,,345.89529000000005,345.9108205,346.3943395,346.39883910000003,346.41652750000003,347.0780281,1,1,0.6460197000000107,None,347.078213,347.09354510000003,347.29335360000005,347.27696579999997,346.41652750000003,,,,,,,,,,,,,,,,,,,892,22,M,R,2026-02-25_11h04.37.889,VisualSearch_2526_3,,2025.2.4,2026-02-25 11h04.38.394919 +0100,
vertical.xlsx,The target is tilted.,135,7,7,0,0,1,1,1,1,1,1,1,0,0,0,0,1,7,8,135,space,5.496243600000071,None,0,1,0.9238871000000017,None,,,,0,1,1,1,0,7,7,5,,,,,347.29335360000005,,,,,,,,,,,,,,,,,,,,,347.2776371,347.29335360000005,347.77713300000005,347.7816017,347.79977870000005,348.7269407,0,1,0.9238871000000017,None,348.7271296,348.7425349,348.94209980000005,348.9256709,347.79977870000005,,,,,,,,,,,,,,,,,,,892,22,M,R,2026-02-25_11h04.37.889,VisualSearch_2526_3,,2025.2.4,2026-02-25 11h04.38.394919 +0100,
vertical.xlsx,The target is tilted.,135,0,0,0,0,1,1,1,1,1,1,1,0,0,0,0,1,7,8,135,space,5.496243600000071,None,0,1,1.2892942000000858,None,space,1.2972272000000657,None,0,1,1,1,,,,,0,0,0,5,350.2722426,,,,,,,,,,,,,,,,,,,,,350.26785070000005,350.2722426,350.7588843,350.7634851,350.7804493,352.07545319999997,,,,,352.0756245,352.0913732,352.2908396,352.27492040000004,,348.92888330000005,348.94209980000005,348.94209980000005,350.24271439999995,space,1.2972272000000657,None,0,1,1.2892942000000858,None,,,,,,,,892,22,M,R,2026-02-25_11h04.37.889,VisualSearch_2526_3,,2025.2.4,2026-02-25 11h04.38.394919 +0100,
vertical.xlsx,The target is tilted.,135,1,1,0,1,1,1,1,1,1,1,1,1,1,1,1,0,11,12,135,space,5.496243600000071,None,1,1,0.6940266999999949,None,space,1.2972272000000657,None,0,1,1,1,,,,,0,1,1,0,352.2908396,,,,,,,,,,,,,,,,,,,,,352.2756233,352.2908396,352.77490450000005,352.77943519999997,352.7957404,353.4914679,,,,,353.49164140000005,353.50739280000005,353.70708950000005,353.6912545,352.7957404,,,,,,,,1,1,0.6940266999999949,None,,,,,,,,892,22,M,R,2026-02-25_11h04.37.889,VisualSearch_2526_3,,2025.2.4,2026-02-25 11h04.38.394919 +0100,
vertical.xlsx,The target is tilted.,135,2,2,0,1,1,1,1,0,0,0,0,0,0,0,0,0,3,4,135,space,5.496243600000071,None,1,1,0.8457143000000542,None,space,1.2972272000000657,None,0,1,1,1,,,,,0,2,2,2,353.70708950000005,,,,,,,,,,,,,,,,,,,,,353.69204030000003,353.70708950000005,354.19077689999995,354.195828,354.211994,355.07413699999995,,,,,355.07431199999996,355.0897261,355.28992229999994,355.27368820000004,354.211994,,,,,,,,1,1,0.8457143000000542,None,,,,,,,,892,22,M,R,2026-02-25_11h04.37.889,VisualSearch_2526_3,,2025.2.4,2026-02-25 11h04.38.394919 +0100,
vertical.xlsx,The target is tilted.,135,3,3,0,1,0,0,0,0,0,0,0,0,0,0,0,0,0,1,135,space,5.496243600000071,None,1,1,0.42532219999998233,None,space,1.2972272000000657,None,0,1,1,1,,,,,0,3,3,3,355.28992229999994,,,,,,,,,,,,,,,,,,,,,355.27448660000005,355.28992229999994,355.7734815,355.7780371,355.79406400000005,356.2235442,,,,,356.2237354,356.239411,356.4391302,356.4230311,355.79406400000005,,,,,,,,1,1,0.42532219999998233,None,,,,,,,,892,22,M,R,2026-02-25_11h04.37.889,VisualSearch_2526_3,,2025.2.4,2026-02-25 11h04.38.394919 +0100,
vertical.xlsx,The target is tilted.,135,4,4,0,1,1,1,1,1,1,1,1,0,0,0,0,0,7,8,135,space,5.496243600000071,None,1,1,0.6493689999999788,None,space,1.2972272000000657,None,0,1,1,1,,,,,0,4,4,1,356.4391302,,,,,,,,,,,,,,,,,,,,,356.4237418,356.4391302,356.9229574,356.9273111,356.9390531,357.58941500000003,,,,,357.5895881,357.6049858,357.80497820000005,357.7892223,356.9390531,,,,,,,,1,1,0.6493689999999788,None,,,,,,,,892,22,M,R,2026-02-25_11h04.37.889,VisualSearch_2526_3,,2025.2.4,2026-02-25 11h04.38.394919 +0100,
vertical.xlsx,The target is tilted.,135,5,5,0,0,0,0,0,0,0,0,0,0,0,0,0,1,1,1,135,space,5.496243600000071,None,0,1,0.5112801000000218,None,space,1.2972272000000657,None,0,1,1,1,,,,,0,5,5,7,357.80497820000005,,,,,,,,,,,,,,,,,,,,,357.78993349999996,357.80497820000005,358.2891969,358.29434130000004,358.31189300000005,358.8393268,,,,,358.8395176,358.85479169999996,359.05469600000004,359.0383432,358.31189300000005,,,,,,,,0,1,0.5112801000000218,None,,,,,,,,892,22,M,R,2026-02-25_11h04.37.889,VisualSearch_2526_3,,2025.2.4,2026-02-25 11h04.38.394919 +0100,
vertical.xlsx,The target is tilted.,135,6,6,0,0,1,1,1,1,1,1,1,1,1,1,1,1,11,12,135,space,5.496243600000071,None,0,1,1.2369390000000067,None,space,1.2972272000000657,None,0,1,1,1,,,,,0,6,6,4,359.05469600000004,,,,,,,,,,,,,,,,,,,,,359.0390714,359.05469600000004,359.53850850000003,359.54299749999996,359.5595459,360.80506579999997,,,,,360.80525909999994,360.820513,361.02063369999996,361.00444849999997,359.5595459,,,,,,,,0,1,1.2369390000000067,None,,,,,,,,892,22,M,R,2026-02-25_11h04.37.889,VisualSearch_2526_3,,2025.2.4,2026-02-25 11h04.38.394919 +0100,
vertical.xlsx,The target is tilted.,135,7,7,0,0,1,1,1,0,0,0,0,0,0,0,0,1,3,4,135,space,5.496243600000071,None,0,1,0.6536522000000105,None,space,1.2972272000000657,None,0,1,1,1,,,,,0,7,7,6,361.02063369999996,,,,,,,,,,,,,,,,,,,,,361.00514869999995,361.02063369999996,361.5040838,361.50866770000005,361.52508009999997,362.1870139,,,,,362.18715369999995,362.20263769999997,362.4032569,362.38730780000003,361.52508009999997,,,,,,,,0,1,0.6536522000000105,None,,,,,,,,892,22,M,R,2026-02-25_11h04.37.889,VisualSearch_2526_3,,2025.2.4,2026-02-25 11h04.38.394919 +0100,
vertical.xlsx,The target is tilted.,135,8,0,1,1,1,1,1,1,1,1,1,1,1,1,1,0,11,12,135,space,5.496243600000071,None,1,1,0.5255769000000328,None,space,1.2972272000000657,None,0,1,1,1,,,,,1,0,8,0,362.4032569,,,,,,,,,,,,,,,,,,,,,362.38810309999997,362.4032569,362.88690799999995,362.8914824,362.9090552,363.4371595,,,,,363.43735200000003,363.45266030000005,363.65256539999996,363.6364975,362.9090552,,,,,,,,1,1,0.5255769000000328,None,,,,,,,,892,22,M,R,2026-02-25_11h04.37.889,VisualSearch_2526_3,,2025.2.4,2026-02-25 11h04.38.394919 +0100,
vertical.xlsx,The target is tilted.,135,9,1,1,1,1,1,1,1,1,1,1,0,0,0,0,0,7,8,135,space,5.496243600000071,None,1,1,1.3045042999999623,None,space,1.2972272000000657,None,0,1,1,1,,,,,1,1,9,1,363.65256539999996,,,,,,,,,,,,,,,,,,,,,363.63730480000004,363.65256539999996,364.13634950000005,364.1407951,364.1577006,365.4691167,,,,,365.469253,365.48494960000005,365.68509470000004,365.66894479999996,364.1577006,,,,,,,,1,1,1.3045042999999623,None,,,,,,,,892,22,M,R,2026-02-25_11h04.37.889,VisualSearch_2526_3,,2025.2.4,2026-02-25 11h04.38.394919 +0100,
vertical.xlsx,The target is tilted.,135,10,2,1,0,1,1,1,0,0,0,0,0,0,0,0,1,3,4,135,space,5.496243600000071,None,0,1,0.5508892999999944,None,space,1.2972272000000657,None,0,1,1,1,,,,,1,2,10,6,365.68509470000004,,,,,,,,,,,,,,,,,,,,,365.6696865,365.68509470000004,366.16874600000006,366.17321890000005,366.18972440000005,366.75225709999995,,,,,366.75242990000004,366.7676024,366.96789550000005,366.9517654,366.18972440000005,,,,,,,,0,1,0.5508892999999944,None,,,,,,,,892,22,M,R,2026-02-25_11h04.37.889,VisualSearch_2526_3,,2025.2.4,2026-02-25 11h04.38.394919 +0100,
vertical.xlsx,The target is tilted.,135,11,3,1,1,1,1,1,0,0,0,0,0,0,0,0,0,3,4,135,space,5.496243600000071,None,1,1,0.6008559999999079,None,space,1.2972272000000657,None,0,1,1,1,,,,,1,3,11,2,366.96789550000005,,,,,,,,,,,,,,,,,,,,,366.9525473,366.96789550000005,367.4512102,367.455747,367.47248479999996,368.08496030000003,,,,,368.0851751,368.1006012,368.30074850000005,368.28436680000004,367.47248479999996,,,,,,,,1,1,0.6008559999999079,None,,,,,,,,892,22,M,R,2026-02-25_11h04.37.889,VisualSearch_2526_3,,2025.2.4,2026-02-25 11h04.38.394919 +0100,
vertical.xlsx,The target is tilted.,135,12,4,1,1,0,0,0,0,0,0,0,0,0,0,0,0,0,1,135,space,5.496243600000071,None,1,1,0.4372423999999455,None,space,1.2972272000000657,None,0,1,1,1,,,,,1,4,12,3,368.30074850000005,,,,,,,,,,,,,,,,,,,,,368.2850972,368.30074850000005,368.7841386,368.78868339999997,368.80649659999995,369.2509182,,,,,369.25107579999997,369.2667645,369.46647529999996,369.45067989999995,368.80649659999995,,,,,,,,1,1,0.4372423999999455,None,,,,,,,,892,22,M,R,2026-02-25_11h04.37.889,VisualSearch_2526_3,,2025.2.4,2026-02-25 11h04.38.394919 +0100,
vertical.xlsx,The target is tilted.,135,13,5,1,0,1,1,1,1,1,1,1,0,0,0,0,1,7,8,135,space,5.496243600000071,None,0,1,1.4032596999999214,None,space,1.2972272000000657,None,0,1,1,1,,,,,1,5,13,5,369.46647529999996,,,,,,,,,,,,,,,,,,,,,369.45137980000004,369.46647529999996,369.95044889999997,369.95491259999994,369.9715745,371.38345319999996,,,,,371.383647,371.3992455,371.59855560000005,371.5825619,369.9715745,,,,,,,,0,1,1.4032596999999214,None,,,,,,,,892,22,M,R,2026-02-25_11h04.37.889,VisualSearch_2526_3,,2025.2.4,2026-02-25 11h04.38.394919 +0100,
vertical.xlsx,The target is tilted.,135,14,6,1,0,1,1,1,1,1,1,1,1,1,1,1,1,11,12,135,space,5.496243600000071,None,0,1,1.6646805000000313,None,space,1.2972272000000657,None,0,1,1,1,,,,,1,6,14,4,371.59855560000005,,,,,,,,,,,,,,,,,,,,,371.58328259999996,371.59855560000005,372.0824142,372.08691940000006,372.10351779999996,373.7825031,,,,,373.7827128,373.7977975,373.99805449999997,373.98126149999996,372.10351779999996,,,,,,,,0,1,1.6646805000000313,None,,,,,,,,892,22,M,R,2026-02-25_11h04.37.889,VisualSearch_2526_3,,2025.2.4,2026-02-25 11h04.38.394919 +0100,
vertical.xlsx,The target is tilted.,135,15,7,1,0,0,0,0,0,0,0,0,0,0,0,0,1,1,1,135,space,5.496243600000071,None,0,1,0.498291199999926,None,space,1.2972272000000657,None,0,1,1,1,,,,,1,7,15,7,373.99805449999997,,,,,,,,,,,,,,,,,,,,,373.9819767,373.99805449999997,374.48180979999995,374.48664740000004,374.50274790000003,375.0145652,,,,,375.01466589999995,375.03064629999994,375.23077909999995,375.2145498,374.50274790000003,,,,,,,,0,1,0.498291199999926,None,,,,,,,,892,22,M,R,2026-02-25_11h04.37.889,VisualSearch_2526_3,,2025.2.4,2026-02-25 11h04.38.394919 +0100,
vertical.xlsx,The target is tilted.,135,16,0,2,0,0,0,0,0,0,0,0,0,0,0,0,1,1,1,135,space,5.496243600000071,None,0,1,0.374598399999968,None,space,1.2972272000000657,None,0,1,1,1,,,,,2,0,16,7,375.23077909999995,,,,,,,,,,,,,,,,,,,,,375.21528249999994,375.23077909999995,375.71445630000005,375.7189721,375.73045179999997,376.11480930000005,,,,,376.11499860000004,376.1302802,376.3303134,376.3140154,375.73045179999997,,,,,,,,0,1,0.374598399999968,None,,,,,,,,892,22,M,R,2026-02-25_11h04.37.889,VisualSearch_2526_3,,2025.2.4,2026-02-25 11h04.38.394919 +0100,
vertical.xlsx,The target is tilted.,135,17,1,2,1,1,1,1,0,0,0,0,0,0,0,0,0,3,4,135,space,5.496243600000071,None,1,1,0.4399640999999974,None,space,1.2972272000000657,None,0,1,1,1,,,,,2,1,17,2,376.3303134,,,,,,,,,,,,,,,,,,,,,376.314741,376.3303134,376.8135493,376.81801640000003,376.834283,377.2806676,,,,,377.28084120000005,377.2964564,377.49646429999996,377.48027790000003,376.834283,,,,,,,,1,1,0.4399640999999974,None,,,,,,,,892,22,M,R,2026-02-25_11h04.37.889,VisualSearch_2526_3,,2025.2.4,2026-02-25 11h04.38.394919 +0100,
vertical.xlsx,The target is tilted.,135,18,2,2,0,1,1,1,0,0,0,0,0,0,0,0,1,3,4,135,space,5.496243600000071,None,0,1,0.5973400999999967,None,space,1.2972272000000657,None,0,1,1,1,,,,,2,2,18,6,377.49646429999996,,,,,,,,,,,,,,,,,,,,,377.48100750000003,377.49646429999996,377.97995160000005,377.98444789999996,378.0008061,378.6134916,,,,,378.6136867,378.62915769999995,378.8291874,378.81283499999995,378.0008061,,,,,,,,0,1,0.5973400999999967,None,,,,,,,,892,22,M,R,2026-02-25_11h04.37.889,VisualSearch_2526_3,,2025.2.4,2026-02-25 11h04.38.394919 +0100,
vertical.xlsx,The target is tilted.,135,19,3,2,1,1,1,1,1,1,1,1,1,1,1,1,0,11,12,135,space,5.496243600000071,None,1,1,0.9723217999999179,None,space,1.2972272000000657,None,0,1,1,1,,,,,2,3,19,0,378.8291874,,,,,,,,,,,,,,,,,,,,,378.81355900000005,378.8291874,379.3127266,379.31726760000004,379.3334625,380.31261670000004,,,,,380.3128068,380.32835850000004,380.5282569,380.5120978,379.3334625,,,,,,,,1,1,0.9723217999999179,None,,,,,,,,892,22,M,R,2026-02-25_11h04.37.889,VisualSearch_2526_3,,2025.2.4,2026-02-25 11h04.38.394919 +0100,
vertical.xlsx,The target is tilted.,135,20,4,2,0,1,1,1,1,1,1,1,0,0,0,0,1,7,8,135,space,5.496243600000071,None,0,1,1.369781099999841,None,space,1.2972272000000657,None,0,1,1,1,,,,,2,4,20,5,380.5282569,,,,,,,,,,,,,,,,,,,,,380.5128592,380.5282569,381.01218819999997,381.01673960000005,381.0335596,382.4115601,,,,,382.4117749999999,382.4274228999999,382.6273953000001,382.6112772,381.0335596,,,,,,,,0,1,1.369781099999841,None,,,,,,,,892,22,M,R,2026-02-25_11h04.37.889,VisualSearch_2526_3,,2025.2.4,2026-02-25 11h04.38.394919 +0100,
vertical.xlsx,The target is tilted.,135,21,5,2,1,1,1,1,1,1,1,1,0,0,0,0,0,7,8,135,space,5.496243600000071,None,1,1,0.6212456999999176,None,space,1.2972272000000657,None,0,1,1,1,,,,,2,5,21,1,382.6273953000001,,,,,,,,,,,,,,,,,,,,,382.6119976000001,382.6273953000001,383.1111327,383.11558479999997,383.1325085,383.7611323,,,,,383.76132240000004,383.7768063,383.97682169999996,383.96081289999995,383.1325085,,,,,,,,1,1,0.6212456999999176,None,,,,,,,,892,22,M,R,2026-02-25_11h04.37.889,VisualSearch_2526_3,,2025.2.4,2026-02-25 11h04.38.394919 +0100,
vertical.xlsx,The target is tilted.,135,22,6,2,0,1,1,1,1,1,1,1,1,1,1,1,1,11,12,135,space,5.496243600000071,None,0,1,1.8539775000001555,None,space,1.2972272000000657,None,0,1,1,1,,,,,2,6,22,4,383.97682169999996,,,,,,,,,,,,,,,,,,,,,383.9615755000001,383.97682169999996,384.4605164999999,384.46499200000005,384.48156359999996,386.3433076,,,,,386.34349869999994,386.3589321999999,386.5585774,386.542464,384.48156359999996,,,,,,,,0,1,1.8539775000001555,None,,,,,,,,892,22,M,R,2026-02-25_11h04.37.889,VisualSearch_2526_3,,2025.2.4,2026-02-25 11h04.38.394919 +0100,
vertical.xlsx,The target is tilted.,135,23,7,2,1,0,0,0,0,0,0,0,0,0,0,0,0,0,1,135,space,5.496243600000071,None,1,1,0.36394529999984115,None,space,1.2972272000000657,None,0,1,1,1,,,,,2,7,23,3,386.5585774,,,,,,,,,,,,,,,,,,,,,386.54322119999995,386.5585774,387.0422632000001,387.0467817,387.0641924,387.44258019999995,,,,,387.4427701999999,387.4584162,387.6584431,387.64220710000006,387.0641924,,,,,,,,1,1,0.36394529999984115,None,,,,,,,,892,22,M,R,2026-02-25_11h04.37.889,VisualSearch_2526_3,,2025.2.4,2026-02-25 11h04.38.394919 +0100,
vertical.xlsx,The target is tilted.,135,24,0,3,0,0,0,0,0,0,0,0,0,0,0,0,1,1,1,135,space,5.496243600000071,None,0,1,0.5643944999999349,None,space,1.2972272000000657,None,0,1,1,1,,,,,3,0,24,7,387.6584431,,,,,,,,,,,,,,,,,,,,,387.6429236,387.6584431,388.1421844,388.1466918,388.16497360000005,388.7423021000001,,,,,388.74247419999995,388.75787260000004,388.9578734999999,388.9417308999999,388.16497360000005,,,,,,,,0,1,0.5643944999999349,None,,,,,,,,892,22,M,R,2026-02-25_11h04.37.889,VisualSearch_2526_3,,2025.2.4,2026-02-25 11h04.38.394919 +0100,
vertical.xlsx,The target is tilted.,135,25,1,3,0,1,1,1,1,1,1,1,1,1,1,1,1,11,12,135,space,5.496243600000071,None,0,1,1.3195690000000013,None,space,1.2972272000000657,None,0,1,1,1,,,,,3,1,25,4,388.9578734999999,,,,,,,,,,,,,,,,,,,,,388.9424588999999,388.9578734999999,389.4413998000001,389.4458825999999,389.46344609999994,390.7910366,,,,,390.791192,390.8069638999999,391.0067838000001,390.99040019999995,389.46344609999994,,,,,,,,0,1,1.3195690000000013,None,,,,,,,,892,22,M,R,2026-02-25_11h04.37.889,VisualSearch_2526_3,,2025.2.4,2026-02-25 11h04.38.394919 +0100,
vertical.xlsx,The target is tilted.,135,26,2,3,1,0,0,0,0,0,0,0,0,0,0,0,0,0,1,135,space,5.496243600000071,None,1,1,0.36674379999999474,None,space,1.2972272000000657,None,0,1,1,1,,,,,3,2,26,3,391.0067838000001,,,,,,,,,,,,,,,,,,,,,390.9911102,391.0067838000001,391.49040780000007,391.4949568999999,391.5119816,391.8907932000001,,,,,391.8909858999999,391.9065021,392.10633040000005,392.089967,391.5119816,,,,,,,,1,1,0.36674379999999474,None,,,,,,,,892,22,M,R,2026-02-25_11h04.37.889,VisualSearch_2526_3,,2025.2.4,2026-02-25 11h04.38.394919 +0100,
vertical.xlsx,The target is tilted.,135,27,3,3,1,1,1,1,1,1,1,1,1,1,1,1,0,11,12,135,space,5.496243600000071,None,1,1,0.8885513000000174,None,space,1.2972272000000657,None,0,1,1,1,,,,,3,3,27,0,392.10633040000005,,,,,,,,,,,,,,,,,,,,,392.0906993,392.10633040000005,392.5901424,392.59461380000005,392.6115011999999,393.50632570000005,,,,,393.5064532,393.52236359999995,393.7223696,393.706243,392.6115011999999,,,,,,,,1,1,0.8885513000000174,None,,,,,,,,892,22,M,R,2026-02-25_11h04.37.889,VisualSearch_2526_3,,2025.2.4,2026-02-25 11h04.38.394919 +0100,
vertical.xlsx,The target is tilted.,135,28,4,3,0,1,1,1,1,1,1,1,0,0,0,0,1,7,8,135,space,5.496243600000071,None,0,1,1.1197454000000562,None,space,1.2972272000000657,None,0,1,1,1,,,,,3,4,28,5,393.7223696,,,,,,,,,,,,,,,,,,,,,393.7069451000001,393.7223696,394.20618479999996,394.21094170000003,394.2265742999999,395.3560103000001,,,,,395.3562023999999,395.37160359999996,395.5715360999999,395.5550855,394.2265742999999,,,,,,,,0,1,1.1197454000000562,None,,,,,,,,892,22,M,R,2026-02-25_11h04.37.889,VisualSearch_2526_3,,2025.2.4,2026-02-25 11h04.38.394919 +0100,
vertical.xlsx,The target is tilted.,135,29,5,3,0,1,1,1,0,0,0,0,0,0,0,0,1,3,4,135,space,5.496243600000071,None,0,1,0.6901792999999543,None,space,1.2972272000000657,None,0,1,1,1,,,,,3,5,29,6,395.5715360999999,,,,,,,,,,,,,,,,,,,,,395.5558181,395.5715360999999,396.0551773000001,396.05961149999996,396.07574850000003,396.7715979000001,,,,,396.77173099999993,396.7874909000001,396.98755689999996,396.9714083,396.07574850000003,,,,,,,,0,1,0.6901792999999543,None,,,,,,,,892,22,M,R,2026-02-25_11h04.37.889,VisualSearch_2526_3,,2025.2.4,2026-02-25 11h04.38.394919 +0100,
vertical.xlsx,The target is tilted.,135,30,6,3,1,1,1,1,1,1,1,1,0,0,0,0,0,7,8,135,space,5.496243600000071,None,1,1,0.733587800000123,None,space,1.2972272000000657,None,0,1,1,1,,,,,3,6,30,1,396.98755689999996,,,,,,,,,,,,,,,,,,,,,396.9721120999999,396.98755689999996,397.4712722999999,397.4757398999999,397.4925376,398.2380502,,,,,398.2382397,398.2536289000001,398.4534714,398.4373763,397.4925376,,,,,,,,1,1,0.733587800000123,None,,,,,,,,892,22,M,R,2026-02-25_11h04.37.889,VisualSearch_2526_3,,2025.2.4,2026-02-25 11h04.38.394919 +0100,
vertical.xlsx,The target is tilted.,135,31,7,3,1,1,1,1,0,0,0,0,0,0,0,0,0,3,4,135,space,5.496243600000071,None,1,1,0.5806499000000258,None,space,1.2972272000000657,None,0,1,1,1,,,,,3,7,31,2,398.4534714,,,,,,,,,,,,,,,,,,,,,398.4381738000001,398.4534714,398.9371801000001,398.9416399999999,398.9596212,399.55398479999997,,,,,399.5541850999999,399.5696234999999,399.7695253999999,399.7533308999999,398.9596212,,,,,,,,1,1,0.5806499000000258,None,,,,,,,,892,22,M,R,2026-02-25_11h04.37.889,VisualSearch_2526_3,,2025.2.4,2026-02-25 11h04.38.394919 +0100,
vertical.xlsx,The target is tilted.,135,32,0,4,1,0,0,0,0,0,0,0,0,0,0,0,0,0,1,135,space,5.496243600000071,None,1,1,0.3734196000000338,None,space,1.2972272000000657,None,0,1,1,1,,,,,4,0,32,3,399.7695253999999,,,,,,,,,,,,,,,,,,,,,399.75405620000004,399.7695253999999,400.2531014,400.25766740000006,400.27618100000007,400.6533780000001,,,,,400.65356959999997,400.6691789,400.86905680000007,400.85282689999997,400.27618100000007,,,,,,,,1,1,0.3734196000000338,None,,,,,,,,892,22,M,R,2026-02-25_11h04.37.889,VisualSearch_2526_3,,2025.2.4,2026-02-25 11h04.38.394919 +0100,
vertical.xlsx,The target is tilted.,135,33,1,4,1,1,1,1,1,1,1,1,0,0,0,0,0,7,8,135,space,5.496243600000071,None,0,0,1.1551194999999552,None,space,1.2972272000000657,None,0,1,1,1,,,,,4,1,33,1,400.86905680000007,,,,,,,,,,,,,,,,,,,,,400.853565,400.86905680000007,401.3527137,401.35720019999997,401.3734834999999,402.5359135,,,,,402.53608769999994,402.55162039999993,402.7516405,402.7351173999999,401.3734834999999,,,,,,,,0,0,1.1551194999999552,None,,,,,,,,892,22,M,R,2026-02-25_11h04.37.889,VisualSearch_2526_3,,2025.2.4,2026-02-25 11h04.38.394919 +0100,
vertical.xlsx,The target is tilted.,135,34,2,4,1,1,1,1,1,1,1,1,1,1,1,1,0,11,12,135,space,5.496243600000071,None,0,0,1.5661296999999195,None,space,1.2972272000000657,None,0,1,1,1,,,,,4,2,34,0,402.7516405,,,,,,,,,,,,,,,,,,,,,402.73584859999994,402.7516405,403.23521429999994,403.23978079999995,403.2563653000001,404.8350610000001,,,,,404.83525309999993,404.8505062999999,405.0503201,405.0341913000001,403.2563653000001,,,,,,,,0,0,1.5661296999999195,None,,,,,,,,892,22,M,R,2026-02-25_11h04.37.889,VisualSearch_2526_3,,2025.2.4,2026-02-25 11h04.38.394919 +0100,
vertical.xlsx,The target is tilted.,135,35,3,4,0,1,1,1,1,1,1,1,1,1,1,1,1,11,12,135,space,5.496243600000071,None,0,1,2.010976199999959,None,space,1.2972272000000657,None,0,1,1,1,,,,,4,3,35,4,405.0503201,,,,,,,,,,,,,,,,,,,,,405.03488430000004,405.0503201,405.53419999999994,405.5386248000001,405.5546134,407.5663152999999,,,,,407.5664112999999,407.5824243999999,407.782505,407.76643709999996,405.5546134,,,,,,,,0,1,2.010976199999959,None,,,,,,,,892,22,M,R,2026-02-25_11h04.37.889,VisualSearch_2526_3,,2025.2.4,2026-02-25 11h04.38.394919 +0100,
vertical.xlsx,The target is tilted.,135,36,4,4,1,1,1,1,0,0,0,0,0,0,0,0,0,3,4,135,space,5.496243600000071,None,1,1,0.5635075000000143,None,space,1.2972272000000657,None,0,1,1,1,,,,,4,4,36,2,407.782505,,,,,,,,,,,,,,,,,,,,,407.7672337,407.782505,408.26637259999995,408.27109959999996,408.28820239999993,408.8670633999999,,,,,408.8672726000001,408.8820119999999,409.0817899,409.06601409999996,408.28820239999993,,,,,,,,1,1,0.5635075000000143,None,,,,,,,,892,22,M,R,2026-02-25_11h04.37.889,VisualSearch_2526_3,,2025.2.4,2026-02-25 11h04.38.394919 +0100,
vertical.xlsx,The target is tilted.,135,37,5,4,0,1,1,1,0,0,0,0,0,0,0,0,1,3,4,135,space,5.496243600000071,None,0,1,0.6723434000000452,None,space,1.2972272000000657,None,0,1,1,1,,,,,4,5,37,6,409.0817899,,,,,,,,,,,,,,,,,,,,,409.0667036000001,409.0817899,409.5656341,409.5702511999999,409.5868478000001,410.26592029999995,,,,,410.2661122999999,410.28156550000006,410.4814901000001,410.46527419999995,409.5868478000001,,,,,,,,0,1,0.6723434000000452,None,,,,,,,,892,22,M,R,2026-02-25_11h04.37.889,VisualSearch_2526_3,,2025.2.4,2026-02-25 11h04.38.394919 +0100,
vertical.xlsx,The target is tilted.,135,38,6,4,0,0,0,0,0,0,0,0,0,0,0,0,1,1,1,135,space,5.496243600000071,None,0,1,0.5665888000000905,None,space,1.2972272000000657,None,0,1,1,1,,,,,4,6,38,7,410.4814901000001,,,,,,,,,,,,,,,,,,,,,410.46600090000004,410.4814901000001,410.9650573,410.96953240000005,410.9852281,411.5653582000001,,,,,411.5655493999999,411.58094399999993,411.78083230000004,411.7646466,410.9852281,,,,,,,,0,1,0.5665888000000905,None,,,,,,,,892,22,M,R,2026-02-25_11h04.37.889,VisualSearch_2526_3,,2025.2.4,2026-02-25 11h04.38.394919 +0100,
vertical.xlsx,The target is tilted.,135,39,7,4,0,1,1,1,1,1,1,1,0,0,0,0,1,7,8,135,space,5.496243600000071,None,0,1,0.9614639000001262,None,space,1.2972272000000657,None,0,1,1,1,,,,,4,7,39,5,411.78083230000004,,,,,,,,,,,,,,,,,,,,,411.7653782000001,411.78083230000004,412.26442069999996,412.26956729999995,412.28534219999995,413.26451009999994,,,,,413.2647250000001,413.2800607999999,413.48008919999995,413.4638334,412.28534219999995,,,,,,,,0,1,0.9614639000001262,None,,,,,,,,892,22,M,R,2026-02-25_11h04.37.889,VisualSearch_2526_3,,2025.2.4,2026-02-25 11h04.38.394919 +0100,
vertical.xlsx,The target is tilted.,135,40,0,5,0,1,1,1,1,1,1,1,1,1,1,1,1,11,12,135,space,5.496243600000071,None,0,1,1.6100862999999208,None,space,1.2972272000000657,None,0,1,1,1,,,,,5,0,40,4,413.48008919999995,,,,,,,,,,,,,,,,,,,,,413.4645587000001,413.48008919999995,413.963355,413.96789520000004,413.98413229999994,415.59684159999995,,,,,415.59703509999997,415.6120053000001,415.8120646000001,415.79632359999994,413.98413229999994,,,,,,,,0,1,1.6100862999999208,None,,,,,,,,892,22,M,R,2026-02-25_11h04.37.889,VisualSearch_2526_3,,2025.2.4,2026-02-25 11h04.38.394919 +0100,
