file_name,block_instructions,target_example,thisN,thisTrialN,thisRepN,target_presence,opacity_1,opacity_2,opacity_3,opacity_4,opacity_5,opacity_6,opacity_7,opacity_8,opacity_9,opacity_10,opacity_11,opacity_12,n_distract,n_items,target_ori,key_resp_4.keys,key_resp_4.rt,key_resp_4.duration,key_resp.keys,key_resp.corr,key_resp.rt,key_resp.duration,key_resp_5.keys,key_resp_5.rt,key_resp_5.duration,blocks.thisRepN,blocks.thisTrialN,blocks.thisN,blocks.thisIndex,practice_trials.thisRepN,practice_trials.thisTrialN,practice_trials.thisN,practice_trials.thisIndex,trials.thisRepN,trials.thisTrialN,trials.thisN,trials.thisIndex,thisRow.t,notes,Welcome.started,WelcomeText.started,key_resp_2.started,Welcome.stopped,key_resp_2.keys,key_resp_2.rt,key_resp_2.duration,InformedConsent.started,text_4.started,InformedConsent.stopped,key_resp_6.keys,key_resp_6.rt,key_resp_6.duration,key_resp_4.started,example_target.started,text_3.started,blocks.key_resp_4.keys,blocks.key_resp_4.rt,blocks.key_resp_4.duration,FixCross.started,fixCross.started,FixCross.stopped,Stimulus.started,key_resp.started,Stimulus.stopped,practice_trials.key_resp.keys,practice_trials.key_resp.corr,practice_trials.key_resp.rt,practice_trials.key_resp.duration,BlankScreen.started,text.started,text.stopped,BlankScreen.stopped,fixCross.stopped,ExperimentStart.started,text_2.started,key_resp_5.started,ExperimentStart.stopped,blocks.key_resp_5.keys,blocks.key_resp_5.rt,blocks.key_resp_5.duration,trials.key_resp.keys,trials.key_resp.corr,trials.key_resp.rt,trials.key_resp.duration,Thanks.started,ThankYou.started,key_resp_3.started,Thanks.stopped,key_resp_3.keys,key_resp_3.rt,key_resp_3.duration,participant,leeftijd,gender,links/rechtshandig,date,expName,expVersion,psychopyVersion,expStart,
,,,,,,,,,,,,,,,,,,,,,,,,,,,,,,,,,,,,,,,,,,,,,,0.020714900000029957,0.03089429999999993,0.03089429999999993,45.58089309999991,space,45.52944610000009,None,,,,,,,,,,,,,,,,,,,,,,,,,,,,,,,,,,,,,,,,,,,,,,893,24,M,L,2026-02-25_11h15.50.538,VisualSearch_2526_3,,2025.2.4,2026-02-25 11h15.50.737137 +0100,
,,,,,,,,,,,,,,,,,,,,,,,,,,,,,,,,,,,,,,,,,,,,,,,,,,,,,45.58104049999997,45.58991519999995,50.76413789999992,y,5.169366800000034,None,,,,,,,,,,,,,,,,,,,,,,,,,,,,,,,,,,,,,,,,893,24,M,L,2026-02-25_11h15.50.538,VisualSearch_2526_3,,2025.2.4,2026-02-25 11h15.50.737137 +0100,
vertical.xlsx,The target is tilted.,135,0,0,0,0,0,0,0,0,0,0,0,0,0,0,0,1,1,1,135,space,6.845724400000108,None,0,1,1.989281599999913,None,,,,0,0,0,1,0,0,0,7,,,,,57.689571200000046,,,,,,,,,,,,,,,50.80882900000006,50.80882900000006,50.80882900000006,space,6.845724400000108,None,57.68406989999994,57.689571200000046,58.17679029999999,58.181581599999845,58.19696490000001,60.19319459999997,0,1,1.989281599999913,None,60.19337780000001,60.208781499999986,60.4087563999999,60.39287749999994,,,,,,,,,,,,,,,,,,,,893,24,M,L,2026-02-25_11h15.50.538,VisualSearch_2526_3,,2025.2.4,2026-02-25 11h15.50.737137 +0100,
vertical.xlsx,The target is tilted.,135,1,1,0,1,1,1,1,1,1,1,1,0,0,0,0,0,7,8,135,space,6.845724400000108,None,1,1,1.3068650000000162,None,,,,0,0,0,1,0,1,1,1,,,,,60.4087563999999,,,,,,,,,,,,,,,,,,,,,60.39364269999987,60.4087563999999,60.892454199999975,60.89721429999986,60.90855439999996,62.22553259999995,1,1,1.3068650000000162,None,62.225718299999926,62.24083309999992,62.441217800000004,62.42512339999985,60.90855439999996,,,,,,,,,,,,,,,,,,,893,24,M,L,2026-02-25_11h15.50.538,VisualSearch_2526_3,,2025.2.4,2026-02-25 11h15.50.737137 +0100,
vertical.xlsx,The target is tilted.,135,2,2,0,1,0,0,0,0,0,0,0,0,0,0,0,0,0,1,135,space,6.845724400000108,None,1,1,0.553208899999845,None,,,,0,0,0,1,0,2,2,3,,,,,62.441217800000004,,,,,,,,,,,,,,,,,,,,,62.42583259999992,62.441217800000004,62.92480120000005,62.929412100000036,62.94719299999997,63.508263599999964,1,1,0.553208899999845,None,63.5084296,63.52351010000007,63.723923199999945,63.70778610000002,62.94719299999997,,,,,,,,,,,,,,,,,,,893,24,M,L,2026-02-25_11h15.50.538,VisualSearch_2526_3,,2025.2.4,2026-02-25 11h15.50.737137 +0100,
vertical.xlsx,The target is tilted.,135,3,3,0,0,1,1,1,1,1,1,1,1,1,1,1,1,11,12,135,space,6.845724400000108,None,0,1,1.9875464000001557,None,,,,0,0,0,1,0,3,3,4,,,,,63.723923199999945,,,,,,,,,,,,,,,,,,,,,63.708484,63.723923199999945,64.20746329999997,64.21224129999996,64.22363989999985,66.22395830000005,0,1,1.9875464000001557,None,66.22414490000006,66.23899770000003,66.43928989999995,66.42327619999992,64.22363989999985,,,,,,,,,,,,,,,,,,,893,24,M,L,2026-02-25_11h15.50.538,VisualSearch_2526_3,,2025.2.4,2026-02-25 11h15.50.737137 +0100,
vertical.xlsx,The target is tilted.,135,4,4,0,1,1,1,1,0,0,0,0,0,0,0,0,0,3,4,135,space,6.845724400000108,None,1,1,0.9246098999999504,None,,,,0,0,0,1,0,4,4,2,,,,,66.43928989999995,,,,,,,,,,,,,,,,,,,,,66.42393739999989,66.43928989999995,66.92299079999998,66.9277302999999,66.94432669999992,67.87284169999998,1,1,0.9246098999999504,None,67.87302849999992,67.88827609999998,68.0888129,68.07255970000006,66.94432669999992,,,,,,,,,,,,,,,,,,,893,24,M,L,2026-02-25_11h15.50.538,VisualSearch_2526_3,,2025.2.4,2026-02-25 11h15.50.737137 +0100,
vertical.xlsx,The target is tilted.,135,5,5,0,1,1,1,1,1,1,1,1,1,1,1,1,0,11,12,135,space,6.845724400000108,None,1,1,0.6933625000001484,None,,,,0,0,0,1,0,5,5,0,,,,,68.0888129,,,,,,,,,,,,,,,,,,,,,68.0731965,68.0888129,68.57229770000004,68.57701069999985,68.59269419999987,69.28933549999988,1,1,0.6933625000001484,None,69.2895590999999,69.30450989999986,69.50469769999995,69.48858949999999,68.59269419999987,,,,,,,,,,,,,,,,,,,893,24,M,L,2026-02-25_11h15.50.538,VisualSearch_2526_3,,2025.2.4,2026-02-25 11h15.50.737137 +0100,
vertical.xlsx,The target is tilted.,135,6,6,0,0,1,1,1,1,1,1,1,0,0,0,0,1,7,8,135,space,6.845724400000108,None,0,1,1.6391301999999541,None,,,,0,0,0,1,0,6,6,5,,,,,69.50469769999995,,,,,,,,,,,,,,,,,,,,,69.48922879999986,69.50469769999995,69.98823440000001,69.99290399999995,70.00864999999999,71.65467960000001,0,1,1.6391301999999541,None,71.65484739999988,71.6698695,71.86990190000006,71.85415669999998,70.00864999999999,,,,,,,,,,,,,,,,,,,893,24,M,L,2026-02-25_11h15.50.538,VisualSearch_2526_3,,2025.2.4,2026-02-25 11h15.50.737137 +0100,
vertical.xlsx,The target is tilted.,135,7,7,0,0,1,1,1,0,0,0,0,0,0,0,0,1,3,4,135,space,6.845724400000108,None,0,1,0.8898119000000406,None,,,,0,0,0,1,0,7,7,6,,,,,71.86990190000006,,,,,,,,,,,,,,,,,,,,,71.85481449999997,71.86990190000006,72.35351609999998,72.35827479999989,72.3764091999999,73.27009499999986,0,1,0.8898119000000406,None,73.27026069999988,73.28577610000002,73.48625879999986,73.46975810000004,72.3764091999999,,,,,,,,,,,,,,,,,,,893,24,M,L,2026-02-25_11h15.50.538,VisualSearch_2526_3,,2025.2.4,2026-02-25 11h15.50.737137 +0100,
vertical.xlsx,The target is tilted.,135,0,0,0,1,0,0,0,0,0,0,0,0,0,0,0,0,0,1,135,space,6.845724400000108,None,1,1,0.9064794000000802,None,space,2.739525100000037,None,0,0,0,1,,,,,0,0,0,3,76.25912589999984,,,,,,,,,,,,,,,,,,,,,76.25529510000001,76.25912589999984,76.75171249999994,76.75639290000004,76.77255259999993,77.68516180000006,,,,,77.68534109999996,77.70051579999995,77.90067469999985,77.8844904,,73.47656439999992,73.48625879999986,73.48625879999986,76.23528379999993,space,2.739525100000037,None,1,1,0.9064794000000802,None,,,,,,,,893,24,M,L,2026-02-25_11h15.50.538,VisualSearch_2526_3,,2025.2.4,2026-02-25 11h15.50.737137 +0100,
vertical.xlsx,The target is tilted.,135,1,1,0,0,1,1,1,0,0,0,0,0,0,0,0,1,3,4,135,space,6.845724400000108,None,0,1,1.2207821000001786,None,space,2.739525100000037,None,0,0,0,1,,,,,0,1,1,6,77.90067469999985,,,,,,,,,,,,,,,,,,,,,77.88518699999986,77.90067469999985,78.38398439999992,78.38877600000001,78.40605619999997,79.63453419999996,,,,,79.63473090000002,79.64952259999995,79.84987320000005,79.83383159999994,78.40605619999997,,,,,,,,0,1,1.2207821000001786,None,,,,,,,,893,24,M,L,2026-02-25_11h15.50.538,VisualSearch_2526_3,,2025.2.4,2026-02-25 11h15.50.737137 +0100,
vertical.xlsx,The target is tilted.,135,2,2,0,0,0,0,0,0,0,0,0,0,0,0,0,1,1,1,135,space,6.845724400000108,None,0,1,0.6961300000000392,None,space,2.739525100000037,None,0,0,0,1,,,,,0,2,2,7,79.84987320000005,,,,,,,,,,,,,,,,,,,,,79.83456920000003,79.84987320000005,80.33372069999996,80.33809769999993,80.34960320000005,81.05018759999984,,,,,81.05038519999994,81.06554849999998,81.26607250000006,81.24954120000007,80.34960320000005,,,,,,,,0,1,0.6961300000000392,None,,,,,,,,893,24,M,L,2026-02-25_11h15.50.538,VisualSearch_2526_3,,2025.2.4,2026-02-25 11h15.50.737137 +0100,
vertical.xlsx,The target is tilted.,135,3,3,0,1,1,1,1,0,0,0,0,0,0,0,0,0,3,4,135,space,6.845724400000108,None,1,1,0.7754692999999406,None,space,2.739525100000037,None,0,0,0,1,,,,,0,3,3,2,81.26607250000006,,,,,,,,,,,,,,,,,,,,,81.250272,81.26607250000006,81.74951629999987,81.75417010000001,81.77153950000002,82.5499969,,,,,82.5502128999999,82.5649386,82.76517439999998,82.74929999999995,81.77153950000002,,,,,,,,1,1,0.7754692999999406,None,,,,,,,,893,24,M,L,2026-02-25_11h15.50.538,VisualSearch_2526_3,,2025.2.4,2026-02-25 11h15.50.737137 +0100,
vertical.xlsx,The target is tilted.,135,4,4,0,1,1,1,1,1,1,1,1,0,0,0,0,0,7,8,135,space,6.845724400000108,None,1,1,0.907948099999885,None,space,2.739525100000037,None,0,0,0,1,,,,,0,4,4,1,82.76517439999998,,,,,,,,,,,,,,,,,,,,,82.7500035999999,82.76517439999998,83.24860169999988,83.25101700000005,83.26493140000002,84.18241489999991,,,,,84.18261209999991,84.19750829999998,84.39795430000004,84.38169889999995,83.26493140000002,,,,,,,,1,1,0.907948099999885,None,,,,,,,,893,24,M,L,2026-02-25_11h15.50.538,VisualSearch_2526_3,,2025.2.4,2026-02-25 11h15.50.737137 +0100,
vertical.xlsx,The target is tilted.,135,5,5,0,0,1,1,1,1,1,1,1,1,1,1,1,1,11,12,135,space,6.845724400000108,None,0,1,1.5788417999999638,None,space,2.739525100000037,None,0,0,0,1,,,,,0,5,5,4,84.39795430000004,,,,,,,,,,,,,,,,,,,,,84.38242579999996,84.39795430000004,84.88151319999997,84.88614459999985,84.90214639999999,86.49747019999995,,,,,86.49769979999996,86.51312340000004,86.71353999999997,86.6974768,84.90214639999999,,,,,,,,0,1,1.5788417999999638,None,,,,,,,,893,24,M,L,2026-02-25_11h15.50.538,VisualSearch_2526_3,,2025.2.4,2026-02-25 11h15.50.737137 +0100,
vertical.xlsx,The target is tilted.,135,6,6,0,0,1,1,1,1,1,1,1,0,0,0,0,1,7,8,135,space,6.845724400000108,None,0,1,2.3383113999998386,None,space,2.739525100000037,None,0,0,0,1,,,,,0,6,6,5,86.71353999999997,,,,,,,,,,,,,,,,,,,,,86.6982023999999,86.71353999999997,87.19718779999994,87.20188250000001,87.21650679999993,89.56342810000001,,,,,89.56367699999987,89.57836900000007,89.77892079999992,89.76275259999989,87.21650679999993,,,,,,,,0,1,2.3383113999998386,None,,,,,,,,893,24,M,L,2026-02-25_11h15.50.538,VisualSearch_2526_3,,2025.2.4,2026-02-25 11h15.50.737137 +0100,
vertical.xlsx,The target is tilted.,135,7,7,0,1,1,1,1,1,1,1,1,1,1,1,1,0,11,12,135,space,6.845724400000108,None,1,1,1.0024149999999281,None,space,2.739525100000037,None,0,0,0,1,,,,,0,7,7,0,89.77892079999992,,,,,,,,,,,,,,,,,,,,,89.76346130000002,89.77892079999992,90.26209539999991,90.2651128,90.2780017,91.2953465999999,,,,,91.29554839999992,91.31089629999997,91.51129790000005,91.49524139999994,90.2780017,,,,,,,,1,1,1.0024149999999281,None,,,,,,,,893,24,M,L,2026-02-25_11h15.50.538,VisualSearch_2526_3,,2025.2.4,2026-02-25 11h15.50.737137 +0100,
vertical.xlsx,The target is tilted.,135,8,0,1,1,1,1,1,0,0,0,0,0,0,0,0,0,3,4,135,space,6.845724400000108,None,1,1,0.6245822000000771,None,space,2.739525100000037,None,0,0,0,1,,,,,1,0,8,2,91.51129790000005,,,,,,,,,,,,,,,,,,,,,91.49604709999994,91.51129790000005,91.99499539999988,91.99964750000004,92.01705629999992,92.64495439999996,,,,,92.64515140000003,92.66033219999986,92.86066329999994,92.84467760000007,92.01705629999992,,,,,,,,1,1,0.6245822000000771,None,,,,,,,,893,24,M,L,2026-02-25_11h15.50.538,VisualSearch_2526_3,,2025.2.4,2026-02-25 11h15.50.737137 +0100,
vertical.xlsx,The target is tilted.,135,9,1,1,0,1,1,1,1,1,1,1,0,0,0,0,1,7,8,135,space,6.845724400000108,None,0,1,1.8934831999999915,None,space,2.739525100000037,None,0,0,0,1,,,,,1,1,9,5,92.86066329999994,,,,,,,,,,,,,,,,,,,,,92.84544609999989,92.86066329999994,93.34440889999996,93.34903829999985,93.36380089999989,95.26047229999995,,,,,95.26065289999997,95.27561739999987,95.47632139999996,95.45971880000002,93.36380089999989,,,,,,,,0,1,1.8934831999999915,None,,,,,,,,893,24,M,L,2026-02-25_11h15.50.538,VisualSearch_2526_3,,2025.2.4,2026-02-25 11h15.50.737137 +0100,
vertical.xlsx,The target is tilted.,135,10,2,1,1,1,1,1,1,1,1,1,1,1,1,1,0,11,12,135,space,6.845724400000108,None,1,1,1.009628899999825,None,space,2.739525100000037,None,0,0,0,1,,,,,1,2,10,0,95.47632139999996,,,,,,,,,,,,,,,,,,,,,95.46044529999995,95.47632139999996,95.95953379999992,95.96432179999988,95.98093459999996,96.9930405,,,,,96.99321839999993,97.00830099999985,97.20878279999988,97.19270879999999,95.98093459999996,,,,,,,,1,1,1.009628899999825,None,,,,,,,,893,24,M,L,2026-02-25_11h15.50.538,VisualSearch_2526_3,,2025.2.4,2026-02-25 11h15.50.737137 +0100,
vertical.xlsx,The target is tilted.,135,11,3,1,0,1,1,1,0,0,0,0,0,0,0,0,1,3,4,135,space,6.845724400000108,None,0,1,0.7170310999999856,None,space,2.739525100000037,None,0,0,0,1,,,,,1,3,11,6,97.20878279999988,,,,,,,,,,,,,,,,,,,,,97.19342499999993,97.20878279999988,97.69241940000006,97.69715709999991,97.71290279999994,98.44255120000003,,,,,98.44274889999997,98.45770169999992,98.65775819999999,98.64194120000002,97.71290279999994,,,,,,,,0,1,0.7170310999999856,None,,,,,,,,893,24,M,L,2026-02-25_11h15.50.538,VisualSearch_2526_3,,2025.2.4,2026-02-25 11h15.50.737137 +0100,
vertical.xlsx,The target is tilted.,135,12,4,1,1,0,0,0,0,0,0,0,0,0,0,0,0,0,1,135,space,6.845724400000108,None,1,1,0.7505716999999095,None,space,2.739525100000037,None,0,0,0,1,,,,,1,4,12,3,98.65775819999999,,,,,,,,,,,,,,,,,,,,,98.6426821,98.65775819999999,99.14169820000006,99.14645870000004,99.16156299999989,99.9245684,,,,,99.92476809999994,99.94032760000005,100.1408469999999,100.12457799999993,99.16156299999989,,,,,,,,1,1,0.7505716999999095,None,,,,,,,,893,24,M,L,2026-02-25_11h15.50.538,VisualSearch_2526_3,,2025.2.4,2026-02-25 11h15.50.737137 +0100,
vertical.xlsx,The target is tilted.,135,13,5,1,0,1,1,1,1,1,1,1,1,1,1,1,1,11,12,135,space,6.845724400000108,None,0,1,2.2156018000000586,None,space,2.739525100000037,None,0,0,0,1,,,,,1,5,13,4,100.1408469999999,,,,,,,,,,,,,,,,,,,,,100.12531250000006,100.1408469999999,100.6244256,100.6290512999999,100.64587749999987,102.87324369999988,,,,,102.87345129999994,102.88903089999985,103.08908429999997,103.07328839999991,100.64587749999987,,,,,,,,0,1,2.2156018000000586,None,,,,,,,,893,24,M,L,2026-02-25_11h15.50.538,VisualSearch_2526_3,,2025.2.4,2026-02-25 11h15.50.737137 +0100,
vertical.xlsx,The target is tilted.,135,14,6,1,0,0,0,0,0,0,0,0,0,0,0,0,1,1,1,135,space,6.845724400000108,None,0,1,1.3441406000001734,None,space,2.739525100000037,None,0,0,0,1,,,,,1,6,14,7,103.08908429999997,,,,,,,,,,,,,,,,,,,,,103.07401559999994,103.08908429999997,103.57307249999985,103.57770959999993,103.59332459999996,104.93968960000007,,,,,104.93988889999991,104.95476429999985,105.15515679999999,105.13892409999994,103.59332459999996,,,,,,,,0,1,1.3441406000001734,None,,,,,,,,893,24,M,L,2026-02-25_11h15.50.538,VisualSearch_2526_3,,2025.2.4,2026-02-25 11h15.50.737137 +0100,
vertical.xlsx,The target is tilted.,135,15,7,1,1,1,1,1,1,1,1,1,0,0,0,0,0,7,8,135,space,6.845724400000108,None,1,1,0.7357617000000118,None,space,2.739525100000037,None,0,0,0,1,,,,,1,7,15,1,105.15515679999999,,,,,,,,,,,,,,,,,,,,,105.13964080000005,105.15515679999999,105.63886639999987,105.64352069999995,105.66031520000001,106.40559729999995,,,,,106.40586669999993,106.42071929999997,106.62081680000006,106.60511229999997,105.66031520000001,,,,,,,,1,1,0.7357617000000118,None,,,,,,,,893,24,M,L,2026-02-25_11h15.50.538,VisualSearch_2526_3,,2025.2.4,2026-02-25 11h15.50.737137 +0100,
vertical.xlsx,The target is tilted.,135,16,0,2,0,1,1,1,0,0,0,0,0,0,0,0,1,3,4,135,space,6.845724400000108,None,0,1,1.448200100000122,None,space,2.739525100000037,None,0,0,0,1,,,,,2,0,16,6,106.62081680000006,,,,,,,,,,,,,,,,,,,,,106.60583099999985,106.62081680000006,107.10489689999986,107.10960239999986,107.12075589999995,108.57128859999989,,,,,108.57149009999989,108.58639040000003,108.78675010000006,108.77059439999994,107.12075589999995,,,,,,,,0,1,1.448200100000122,None,,,,,,,,893,24,M,L,2026-02-25_11h15.50.538,VisualSearch_2526_3,,2025.2.4,2026-02-25 11h15.50.737137 +0100,
vertical.xlsx,The target is tilted.,135,17,1,2,1,1,1,1,1,1,1,1,0,0,0,0,0,7,8,135,space,6.845724400000108,None,1,1,0.8897778999998991,None,space,2.739525100000037,None,0,0,0,1,,,,,2,1,17,1,108.78675010000006,,,,,,,,,,,,,,,,,,,,,108.77134469999987,108.78675010000006,109.27034479999998,109.27501740000002,109.29389309999988,110.18707089999998,,,,,110.18726849999985,110.20238889999996,110.40241829999991,110.38627599999995,109.29389309999988,,,,,,,,1,1,0.8897778999998991,None,,,,,,,,893,24,M,L,2026-02-25_11h15.50.538,VisualSearch_2526_3,,2025.2.4,2026-02-25 11h15.50.737137 +0100,
vertical.xlsx,The target is tilted.,135,18,2,2,0,1,1,1,1,1,1,1,0,0,0,0,1,7,8,135,space,6.845724400000108,None,0,1,1.2598178000000644,None,space,2.739525100000037,None,0,0,0,1,,,,,2,2,18,5,110.40241829999991,,,,,,,,,,,,,,,,,,,,,110.38682249999988,110.40241829999991,110.88650800000005,110.89112899999986,110.90843249999989,112.16965819999996,,,,,112.16987670000003,112.18480869999985,112.38525019999997,112.36899719999997,110.90843249999989,,,,,,,,0,1,1.2598178000000644,None,,,,,,,,893,24,M,L,2026-02-25_11h15.50.538,VisualSearch_2526_3,,2025.2.4,2026-02-25 11h15.50.737137 +0100,
vertical.xlsx,The target is tilted.,135,19,3,2,0,1,1,1,1,1,1,1,1,1,1,1,1,11,12,135,space,6.845724400000108,None,0,1,1.73616949999996,None,space,2.739525100000037,None,0,0,0,1,,,,,2,3,19,4,112.38525019999997,,,,,,,,,,,,,,,,,,,,,112.36973420000004,112.38525019999997,112.86902809999992,112.87372219999997,112.89061939999988,114.63522979999993,,,,,114.63542549999988,114.65030860000002,114.85037379999994,114.8347581999999,112.89061939999988,,,,,,,,0,1,1.73616949999996,None,,,,,,,,893,24,M,L,2026-02-25_11h15.50.538,VisualSearch_2526_3,,2025.2.4,2026-02-25 11h15.50.737137 +0100,
vertical.xlsx,The target is tilted.,135,20,4,2,1,0,0,0,0,0,0,0,0,0,0,0,0,0,1,135,space,6.845724400000108,None,1,1,0.5400366999999733,None,space,2.739525100000037,None,0,0,0,1,,,,,2,4,20,3,114.85037379999994,,,,,,,,,,,,,,,,,,,,,114.83553009999991,114.85037379999994,115.33440689999998,115.33901059999994,115.35588540000003,115.9013058999999,,,,,115.90150059999996,115.91639910000004,116.11686609999992,116.1006218,115.35588540000003,,,,,,,,1,1,0.5400366999999733,None,,,,,,,,893,24,M,L,2026-02-25_11h15.50.538,VisualSearch_2526_3,,2025.2.4,2026-02-25 11h15.50.737137 +0100,
vertical.xlsx,The target is tilted.,135,21,5,2,0,0,0,0,0,0,0,0,0,0,0,0,1,1,1,135,space,6.845724400000108,None,0,1,0.5908690000001116,None,space,2.739525100000037,None,0,0,0,1,,,,,2,5,21,7,116.11686609999992,,,,,,,,,,,,,,,,,,,,,116.10135960000002,116.11686609999992,116.60032789999991,116.60561159999997,116.62172779999992,117.21708130000002,,,,,117.21727959999998,117.23247379999998,117.43262479999999,117.41686959999993,116.62172779999992,,,,,,,,0,1,0.5908690000001116,None,,,,,,,,893,24,M,L,2026-02-25_11h15.50.538,VisualSearch_2526_3,,2025.2.4,2026-02-25 11h15.50.737137 +0100,
vertical.xlsx,The target is tilted.,135,22,6,2,1,1,1,1,0,0,0,0,0,0,0,0,0,3,4,135,space,6.845724400000108,None,1,1,0.9907241999999314,None,space,2.739525100000037,None,0,0,0,1,,,,,2,6,22,2,117.43262479999999,,,,,,,,,,,,,,,,,,,,,117.41756959999998,117.43262479999999,117.91644829999996,117.9210794999999,117.93683349999992,118.93263809999985,,,,,118.93280449999997,118.94829230000005,119.14881139999989,119.13258969999993,117.93683349999992,,,,,,,,1,1,0.9907241999999314,None,,,,,,,,893,24,M,L,2026-02-25_11h15.50.538,VisualSearch_2526_3,,2025.2.4,2026-02-25 11h15.50.737137 +0100,
vertical.xlsx,The target is tilted.,135,23,7,2,1,1,1,1,1,1,1,1,1,1,1,1,0,11,12,135,space,6.845724400000108,None,1,1,0.7161433000001125,None,space,2.739525100000037,None,0,0,0,1,,,,,2,7,23,0,119.14881139999989,,,,,,,,,,,,,,,,,,,,,119.13334659999987,119.14881139999989,119.63251420000006,119.63720489999992,119.65374069999984,120.38258589999987,,,,,120.38278719999994,120.39763859999994,120.59776199999988,120.58190969999987,119.65374069999984,,,,,,,,1,1,0.7161433000001125,None,,,,,,,,893,24,M,L,2026-02-25_11h15.50.538,VisualSearch_2526_3,,2025.2.4,2026-02-25 11h15.50.737137 +0100,
vertical.xlsx,The target is tilted.,135,24,0,3,0,1,1,1,1,1,1,1,1,1,1,1,1,11,12,135,space,6.845724400000108,None,0,1,1.2925391999999647,None,space,2.739525100000037,None,0,0,0,1,,,,,3,0,24,4,120.59776199999988,,,,,,,,,,,,,,,,,,,,,120.58262620000005,120.59776199999988,121.08180160000006,121.08653159999994,121.09777940000004,122.39787950000004,,,,,122.39802729999997,122.41334660000007,122.61389059999988,122.5977949999999,121.09777940000004,,,,,,,,0,1,1.2925391999999647,None,,,,,,,,893,24,M,L,2026-02-25_11h15.50.538,VisualSearch_2526_3,,2025.2.4,2026-02-25 11h15.50.737137 +0100,
vertical.xlsx,The target is tilted.,135,25,1,3,0,1,1,1,0,0,0,0,0,0,0,0,1,3,4,135,space,6.845724400000108,None,0,1,0.7902010000000246,None,space,2.739525100000037,None,0,0,0,1,,,,,3,1,25,6,122.61389059999988,,,,,,,,,,,,,,,,,,,,,122.5985189999999,122.61389059999988,123.09746459999997,123.10209759999998,123.11908240000002,123.91411049999988,,,,,123.91430629999991,123.92943519999994,124.12969169999997,124.1136790999999,123.11908240000002,,,,,,,,0,1,0.7902010000000246,None,,,,,,,,893,24,M,L,2026-02-25_11h15.50.538,VisualSearch_2526_3,,2025.2.4,2026-02-25 11h15.50.737137 +0100,
vertical.xlsx,The target is tilted.,135,26,2,3,1,0,0,0,0,0,0,0,0,0,0,0,0,0,1,135,space,6.845724400000108,None,1,1,0.5350651999999627,None,space,2.739525100000037,None,0,0,0,1,,,,,3,2,26,3,124.12969169999997,,,,,,,,,,,,,,,,,,,,,124.11444039999992,124.12969169999997,124.61352529999999,124.61818389999985,124.6360439,125.18025239999997,,,,,125.1804451999999,125.19554689999995,125.39588549999985,125.37929050000002,124.6360439,,,,,,,,1,1,0.5350651999999627,None,,,,,,,,893,24,M,L,2026-02-25_11h15.50.538,VisualSearch_2526_3,,2025.2.4,2026-02-25 11h15.50.737137 +0100,
vertical.xlsx,The target is tilted.,135,27,3,3,1,1,1,1,1,1,1,1,1,1,1,1,0,11,12,135,space,6.845724400000108,None,1,1,1.166251500000044,None,space,2.739525100000037,None,0,0,0,1,,,,,3,3,27,0,125.39588549999985,,,,,,,,,,,,,,,,,,,,,125.37999079999986,125.39588549999985,125.87952739999992,125.88415839999993,125.90061530000003,127.07962109999994,,,,,127.07981840000002,127.09465049999994,127.29515219999985,127.27914169999985,125.90061530000003,,,,,,,,1,1,1.166251500000044,None,,,,,,,,893,24,M,L,2026-02-25_11h15.50.538,VisualSearch_2526_3,,2025.2.4,2026-02-25 11h15.50.737137 +0100,
vertical.xlsx,The target is tilted.,135,28,4,3,0,1,1,1,1,1,1,1,0,0,0,0,1,7,8,135,space,6.845724400000108,None,0,1,1.5519010000000435,None,space,2.739525100000037,None,0,0,0,1,,,,,3,4,28,5,127.29515219999985,,,,,,,,,,,,,,,,,,,,,127.27993319999996,127.29515219999985,127.77881980000006,127.78343900000004,127.80051950000006,129.36164759999997,,,,,129.36184329999992,129.37690299999986,129.57704579999995,129.56118319999996,127.80051950000006,,,,,,,,0,1,1.5519010000000435,None,,,,,,,,893,24,M,L,2026-02-25_11h15.50.538,VisualSearch_2526_3,,2025.2.4,2026-02-25 11h15.50.737137 +0100,
vertical.xlsx,The target is tilted.,135,29,5,3,1,1,1,1,1,1,1,1,0,0,0,0,0,7,8,135,space,6.845724400000108,None,0,0,1.7534582000000682,None,space,2.739525100000037,None,0,0,0,1,,,,,3,5,29,1,129.57704579999995,,,,,,,,,,,,,,,,,,,,,129.56199489999995,129.57704579999995,130.06050749999986,130.06366849999995,130.0769734999999,131.8429882999999,,,,,131.8431000999999,131.85895719999985,,132.04323290000002,130.0769734999999,,,,,,,,0,0,1.7534582000000682,None,,,,,,,,893,24,M,L,2026-02-25_11h15.50.538,VisualSearch_2526_3,,2025.2.4,2026-02-25 11h15.50.737137 +0100,
vertical.xlsx,The target is tilted.,135,30,6,3,1,1,1,1,0,0,0,0,0,0,0,0,0,3,4,135,space,6.845724400000108,None,1,1,0.8377431000001252,None,space,2.739525100000037,None,0,0,0,1,,,,,3,6,30,2,132.0593068999999,,,,,,,,,,,,,,,,,,,,,132.04397189999986,132.0593068999999,132.54315610000003,132.54780159999996,132.56210269999997,133.40955129999998,,,,,133.4096892,133.42492489999995,133.62556459999996,133.60942239999986,132.56210269999997,,,,,,,,1,1,0.8377431000001252,None,,,,,,,,893,24,M,L,2026-02-25_11h15.50.538,VisualSearch_2526_3,,2025.2.4,2026-02-25 11h15.50.737137 +0100,
vertical.xlsx,The target is tilted.,135,31,7,3,0,0,0,0,0,0,0,0,0,0,0,0,1,1,1,135,space,6.845724400000108,None,0,1,0.7973954999999933,None,space,2.739525100000037,None,0,0,0,1,,,,,3,7,31,7,133.62556459999996,,,,,,,,,,,,,,,,,,,,,133.61013579999985,133.62556459999996,134.10889040000006,134.11353209999993,134.12877690000005,134.94206450000001,,,,,134.94228899999985,134.95769829999995,135.15825470000004,135.14196379999998,134.12877690000005,,,,,,,,0,1,0.7973954999999933,None,,,,,,,,893,24,M,L,2026-02-25_11h15.50.538,VisualSearch_2526_3,,2025.2.4,2026-02-25 11h15.50.737137 +0100,
vertical.xlsx,The target is tilted.,135,32,0,4,0,1,1,1,1,1,1,1,1,1,1,1,1,11,12,135,space,6.845724400000108,None,0,1,2.668799300000046,None,space,2.739525100000037,None,0,0,0,1,,,,,4,0,32,4,135.15825470000004,,,,,,,,,,,,,,,,,,,,,135.1426965999999,135.15825470000004,135.64180280000005,135.6464466,135.6648396999999,138.34110699999997,,,,,138.34132799999998,138.35602659999995,138.55673209999986,138.54039239999997,135.6648396999999,,,,,,,,0,1,2.668799300000046,None,,,,,,,,893,24,M,L,2026-02-25_11h15.50.538,VisualSearch_2526_3,,2025.2.4,2026-02-25 11h15.50.737137 +0100,
vertical.xlsx,The target is tilted.,135,33,1,4,1,1,1,1,0,0,0,0,0,0,0,0,0,3,4,135,space,6.845724400000108,None,1,1,0.5508963999998286,None,space,2.739525100000037,None,0,0,0,1,,,,,4,1,33,2,138.55673209999986,,,,,,,,,,,,,,,,,,,,,138.54112439999994,138.55673209999986,139.04014269999993,139.04488300000003,139.0620801,139.6234336,,,,,139.6235709,139.63872539999988,139.83902599999988,139.82328280000002,139.0620801,,,,,,,,1,1,0.5508963999998286,None,,,,,,,,893,24,M,L,2026-02-25_11h15.50.538,VisualSearch_2526_3,,2025.2.4,2026-02-25 11h15.50.737137 +0100,
vertical.xlsx,The target is tilted.,135,34,2,4,1,0,0,0,0,0,0,0,0,0,0,0,0,0,1,135,space,6.845724400000108,None,1,1,0.5799279000000297,None,space,2.739525100000037,None,0,0,0,1,,,,,4,2,34,3,139.83902599999988,,,,,,,,,,,,,,,,,,,,,139.82400989999996,139.83902599999988,140.32281739999985,140.32740009999998,140.34344639999995,140.939214,,,,,140.9393915999999,140.9549801999999,141.1554956,141.13924309999993,140.34344639999995,,,,,,,,1,1,0.5799279000000297,None,,,,,,,,893,24,M,L,2026-02-25_11h15.50.538,VisualSearch_2526_3,,2025.2.4,2026-02-25 11h15.50.737137 +0100,
vertical.xlsx,The target is tilted.,135,35,3,4,0,1,1,1,1,1,1,1,0,0,0,0,1,7,8,135,space,6.845724400000108,None,0,1,1.7828632999999172,None,space,2.739525100000037,None,0,0,0,1,,,,,4,3,35,5,141.1554956,,,,,,,,,,,,,,,,,,,,,141.13997489999997,141.1554956,141.63878679999993,141.64341420000005,141.66043100000002,143.45557199999985,,,,,143.45577230000004,143.47056610000004,143.67092809999986,143.65480779999984,141.66043100000002,,,,,,,,0,1,1.7828632999999172,None,,,,,,,,893,24,M,L,2026-02-25_11h15.50.538,VisualSearch_2526_3,,2025.2.4,2026-02-25 11h15.50.737137 +0100,
vertical.xlsx,The target is tilted.,135,36,4,4,0,0,0,0,0,0,0,0,0,0,0,0,1,1,1,135,space,6.845724400000108,None,0,1,0.7149341000001641,None,space,2.739525100000037,None,0,0,0,1,,,,,4,4,36,7,143.67092809999986,,,,,,,,,,,,,,,,,,,,,143.6555464999999,143.67092809999986,144.15466109999988,144.15926009999998,144.1772587999999,144.90486869999995,,,,,144.90506630000004,144.91989339999986,145.12026319999995,145.10418570000002,144.1772587999999,,,,,,,,0,1,0.7149341000001641,None,,,,,,,,893,24,M,L,2026-02-25_11h15.50.538,VisualSearch_2526_3,,2025.2.4,2026-02-25 11h15.50.737137 +0100,
vertical.xlsx,The target is tilted.,135,37,5,4,1,1,1,1,1,1,1,1,1,1,1,1,0,11,12,135,space,6.845724400000108,None,1,1,0.49546600000007857,None,space,2.739525100000037,None,0,0,0,1,,,,,4,5,37,0,145.12026319999995,,,,,,,,,,,,,,,,,,,,,145.10496809999995,145.12026319999995,145.60397239999998,145.6086206,145.62538960000006,146.13692379999998,,,,,146.13712329999998,146.15260639999997,146.35313129999986,146.33688819999998,145.62538960000006,,,,,,,,1,1,0.49546600000007857,None,,,,,,,,893,24,M,L,2026-02-25_11h15.50.538,VisualSearch_2526_3,,2025.2.4,2026-02-25 11h15.50.737137 +0100,
vertical.xlsx,The target is tilted.,135,38,6,4,0,1,1,1,0,0,0,0,0,0,0,0,1,3,4,135,space,6.845724400000108,None,0,1,0.7803016000000298,None,space,2.739525100000037,None,0,0,0,1,,,,,4,6,38,6,146.35313129999986,,,,,,,,,,,,,,,,,,,,,146.3376252999999,146.35313129999986,146.83629240000005,146.84101599999985,146.8581514,147.65281370000002,,,,,147.65299000000005,147.66858090000005,147.8685871,147.85291159999997,146.8581514,,,,,,,,0,1,0.7803016000000298,None,,,,,,,,893,24,M,L,2026-02-25_11h15.50.538,VisualSearch_2526_3,,2025.2.4,2026-02-25 11h15.50.737137 +0100,
vertical.xlsx,The target is tilted.,135,39,7,4,1,1,1,1,1,1,1,1,0,0,0,0,0,7,8,135,space,6.845724400000108,None,1,1,0.8814066999998431,None,space,2.739525100000037,None,0,0,0,1,,,,,4,7,39,1,147.8685871,,,,,,,,,,,,,,,,,,,,,147.85360859999992,147.8685871,148.35269849999986,148.35733890000006,148.3756644,149.2690336999999,,,,,149.26917249999997,149.28449309999996,149.48507559999985,149.46896530000004,148.3756644,,,,,,,,1,1,0.8814066999998431,None,,,,,,,,893,24,M,L,2026-02-25_11h15.50.538,VisualSearch_2526_3,,2025.2.4,2026-02-25 11h15.50.737137 +0100,
vertical.xlsx,The target is tilted.,135,40,0,5,1,0,0,0,0,0,0,0,0,0,0,0,0,0,1,135,space,6.845724400000108,None,1,1,0.5576688999999533,None,space,2.739525100000037,None,0,0,0,1,,,,,5,0,40,3,149.48507559999985,,,,,,,,,,,,,,,,,,,,,149.46968849999985,149.48507559999985,149.96875099999988,149.97333819999994,149.9846637999999,150.55205219999993,,,,,150.55224709999993,150.5672912,150.76766709999993,150.75124030000006,149.9846637999999,,,,,,,,1,1,0.5576688999999533,None,,,,,,,,893,24,M,L,2026-02-25_11h15.50.538,VisualSearch_2526_3,,2025.2.4,2026-02-25 11h15.50.737137 +0100,
vertical.xlsx,The target is tilted.,135,41,1,5,0,1,1,1,0,0,0,0,0,0,0,0,1,3,4,135,space,6.845724400000108,None,0,1,0.8744420000000446,None,space,2.739525100000037,None,0,0,0,1,,,,,5,1,41,6,150.76766709999993,,,,,,,,,,,,,,,,,,,,,150.75195480000002,150.76766709999993,151.25092399999994,151.25346909999985,151.26707020000003,152.1515018,,,,,152.151701,152.1665536999999,152.36705029999985,152.35058379999987,151.26707020000003,,,,,,,,0,1,0.8744420000000446,None,,,,,,,,893,24,M,L,2026-02-25_11h15.50.538,VisualSearch_2526_3,,2025.2.4,2026-02-25 11h15.50.737137 +0100,
vertical.xlsx,The target is tilted.,135,42,2,5,0,1,1,1,1,1,1,1,0,0,0,0,1,7,8,135,space,6.845724400000108,None,0,1,1.963786700000128,None,space,2.739525100000037,None,0,0,0,1,,,,,5,2,42,5,152.36705029999985,,,,,,,,,,,,,,,,,,,,,152.35131239999987,152.36705029999985,152.85061070000006,152.8552459,152.87123829999996,154.8497557999999,,,,,154.84997019999992,154.86535600000002,155.06580250000002,155.04941859999985,152.87123829999996,,,,,,,,0,1,1.963786700000128,None,,,,,,,,893,24,M,L,2026-02-25_11h15.50.538,VisualSearch_2526_3,,2025.2.4,2026-02-25 11h15.50.737137 +0100,
vertical.xlsx,The target is tilted.,135,43,3,5,0,1,1,1,1,1,1,1,1,1,1,1,1,11,12,135,space,6.845724400000108,None,0,1,2.220396800000117,None,space,2.739525100000037,None,0,0,0,1,,,,,5,3,43,4,155.06580250000002,,,,,,,,,,,,,,,,,,,,,155.05014000000006,155.06580250000002,155.5495547999999,155.5542043999999,155.57099599999992,157.79912969999987,,,,,157.79933729999993,157.8140573999999,158.01451410000004,157.99839769999994,155.57099599999992,,,,,,,,0,1,2.220396800000117,None,,,,,,,,893,24,M,L,2026-02-25_11h15.50.538,VisualSearch_2526_3,,2025.2.4,2026-02-25 11h15.50.737137 +0100,
vertical.xlsx,The target is tilted.,135,44,4,5,1,1,1,1,0,0,0,0,0,0,0,0,0,3,4,135,space,6.845724400000108,None,1,1,0.6395829000000504,None,space,2.739525100000037,None,0,0,0,1,,,,,5,4,44,2,158.01451410000004,,,,,,,,,,,,,,,,,,,,,157.99910599999998,158.01451410000004,158.4981765,158.50279150000006,158.51937799999996,159.16494039999998,,,,,159.1651339,159.18010189999995,159.3803883999999,159.36437569999998,158.51937799999996,,,,,,,,1,1,0.6395829000000504,None,,,,,,,,893,24,M,L,2026-02-25_11h15.50.538,VisualSearch_2526_3,,2025.2.4,2026-02-25 11h15.50.737137 +0100,
vertical.xlsx,The target is tilted.,135,45,5,5,0,0,0,0,0,0,0,0,0,0,0,0,1,1,1,135,space,6.845724400000108,None,0,1,2.4148285999999644,None,space,2.739525100000037,None,0,0,0,1,,,,,5,5,45,7,159.3803883999999,,,,,,,,,,,,,,,,,,,,,159.36509389999992,159.3803883999999,159.8641356999999,159.86889589999987,159.88368029999992,162.3128486999999,,,,,162.3130274,162.32840339999984,162.52899909999996,162.51284469999996,159.88368029999992,,,,,,,,0,1,2.4148285999999644,None,,,,,,,,893,24,M,L,2026-02-25_11h15.50.538,VisualSearch_2526_3,,2025.2.4,2026-02-25 11h15.50.737137 +0100,
vertical.xlsx,The target is tilted.,135,46,6,5,1,1,1,1,1,1,1,1,0,0,0,0,0,7,8,135,space,6.845724400000108,None,1,1,0.7341456999999991,None,space,2.739525100000037,None,0,0,0,1,,,,,5,6,46,1,162.52899909999996,,,,,,,,,,,,,,,,,,,,,162.51355349999994,162.52899909999996,163.01273579999997,163.01742799999988,163.03291979999995,163.77904379999995,,,,,163.77925949999985,163.79465159999995,163.99515070000007,163.97895949999997,163.03291979999995,,,,,,,,1,1,0.7341456999999991,None,,,,,,,,893,24,M,L,2026-02-25_11h15.50.538,VisualSearch_2526_3,,2025.2.4,2026-02-25 11h15.50.737137 +0100,
vertical.xlsx,The target is tilted.,135,47,7,5,1,1,1,1,1,1,1,1,1,1,1,1,0,11,12,135,space,6.845724400000108,None,1,1,1.161800699999958,None,space,2.739525100000037,None,0,0,0,1,,,,,5,7,47,0,163.99515070000007,,,,,,,,,,,,,,,,,,,,,163.97969139999987,163.99515070000007,164.47880340000006,164.48347949999993,164.5005031999999,165.6779987,,,,,165.67822939999996,165.6937433999999,165.8943087,165.87818270000002,164.5005031999999,,,,,,,,1,1,1.161800699999958,None,,,,,,,,893,24,M,L,2026-02-25_11h15.50.538,VisualSearch_2526_3,,2025.2.4,2026-02-25 11h15.50.737137 +0100,
vertical.xlsx,The target is tilted.,135,48,0,6,0,1,1,1,1,1,1,1,1,1,1,1,1,11,12,135,space,6.845724400000108,None,0,1,2.0580426000001353,None,space,2.739525100000037,None,0,0,0,1,,,,,6,0,48,4,165.8943087,,,,,,,,,,,,,,,,,,,,,165.8788864999999,165.8943087,166.3779368999999,166.38254239999992,166.39895019999994,168.46045349999986,,,,,168.46065279999993,168.47583209999993,168.67613660000006,168.65999539999984,166.39895019999994,,,,,,,,0,1,2.0580426000001353,None,,,,,,,,893,24,M,L,2026-02-25_11h15.50.538,VisualSearch_2526_3,,2025.2.4,2026-02-25 11h15.50.737137 +0100,
vertical.xlsx,The target is tilted.,135,49,1,6,0,1,1,1,0,0,0,0,0,0,0,0,1,3,4,135,space,6.845724400000108,None,0,1,1.2598952999999256,None,space,2.739525100000037,None,0,0,0,1,,,,,6,1,49,6,168.67613660000006,,,,,,,,,,,,,,,,,,,,,168.66071009999996,168.67613660000006,169.15958249999994,169.16428410000003,169.18090699999993,170.44283730000006,,,,,170.44299920000003,170.45831449999991,170.65877939999996,170.64242999999988,169.18090699999993,,,,,,,,0,1,1.2598952999999256,None,,,,,,,,893,24,M,L,2026-02-25_11h15.50.538,VisualSearch_2526_3,,2025.2.4,2026-02-25 11h15.50.737137 +0100,
vertical.xlsx,The target is tilted.,135,50,2,6,0,0,0,0,0,0,0,0,0,0,0,0,1,1,1,135,space,6.845724400000108,None,0,1,0.6026945000000978,None,space,2.739525100000037,None,0,0,0,1,,,,,6,2,50,7,170.65877939999996,,,,,,,,,,,,,,,,,,,,,170.64315039999997,170.65877939999996,171.14237869999988,171.14704669999992,171.15827749999994,171.77521669999987,,,,,171.7759535,171.7909534999999,171.9912723,171.97536889999992,171.15827749999994,,,,,,,,0,1,0.6026945000000978,None,,,,,,,,893,24,M,L,2026-02-25_11h15.50.538,VisualSearch_2526_3,,2025.2.4,2026-02-25 11h15.50.737137 +0100,
vertical.xlsx,The target is tilted.,135,51,3,6,1,1,1,1,0,0,0,0,0,0,0,0,0,3,4,135,space,6.845724400000108,None,1,1,0.4840767999999116,None,space,2.739525100000037,None,0,0,0,1,,,,,6,3,51,2,171.9912723,,,,,,,,,,,,,,,,,,,,,171.97612000000004,171.9912723,172.47510220000004,172.47968379999998,172.49450419999994,172.99144520000004,,,,,172.99168050000003,173.0070779,173.20750249999992,173.1913187,172.49450419999994,,,,,,,,1,1,0.4840767999999116,None,,,,,,,,893,24,M,L,2026-02-25_11h15.50.538,VisualSearch_2526_3,,2025.2.4,2026-02-25 11h15.50.737137 +0100,
vertical.xlsx,The target is tilted.,135,52,4,6,1,1,1,1,1,1,1,1,1,1,1,1,0,11,12,135,space,6.845724400000108,None,1,1,0.7831936999998561,None,space,2.739525100000037,None,0,0,0,1,,,,,6,4,52,0,173.20750249999992,,,,,,,,,,,,,,,,,,,,,173.19203790000006,173.20750249999992,173.69113029999994,173.69588380000005,173.71416479999993,174.5079361999999,,,,,174.50819520000005,174.52308010000002,174.72316879999994,174.70741440000006,173.71416479999993,,,,,,,,1,1,0.7831936999998561,None,,,,,,,,893,24,M,L,2026-02-25_11h15.50.538,VisualSearch_2526_3,,2025.2.4,2026-02-25 11h15.50.737137 +0100,
vertical.xlsx,The target is tilted.,135,53,5,6,1,1,1,1,1,1,1,1,0,0,0,0,0,7,8,135,space,6.845724400000108,None,1,1,0.6603575999999975,None,space,2.739525100000037,None,0,0,0,1,,,,,6,5,53,1,174.72316879999994,,,,,,,,,,,,,,,,,,,,,174.70814539999992,174.72316879999994,175.2072662999999,175.2119995999999,175.22314600000004,175.8907013999999,,,,,175.89089599999988,175.90580920000002,176.10623669999995,176.08988079999995,175.22314600000004,,,,,,,,1,1,0.6603575999999975,None,,,,,,,,893,24,M,L,2026-02-25_11h15.50.538,VisualSearch_2526_3,,2025.2.4,2026-02-25 11h15.50.737137 +0100,
vertical.xlsx,The target is tilted.,135,54,6,6,0,1,1,1,1,1,1,1,0,0,0,0,1,7,8,135,space,6.845724400000108,None,0,1,1.6700711999999385,None,space,2.739525100000037,None,0,0,0,1,,,,,6,6,54,5,176.10623669999995,,,,,,,,,,,,,,,,,,,,,176.09060490000002,176.10623669999995,176.58950920000007,176.59409800000003,176.60897369999998,178.28959529999997,,,,,178.28977020000002,178.30470679999985,178.5046946,178.4889094,176.60897369999998,,,,,,,,0,1,1.6700711999999385,None,,,,,,,,893,24,M,L,2026-02-25_11h15.50.538,VisualSearch_2526_3,,2025.2.4,2026-02-25 11h15.50.737137 +0100,
vertical.xlsx,The target is tilted.,135,55,7,6,1,0,0,0,0,0,0,0,0,0,0,0,0,0,1,135,space,6.845724400000108,None,1,1,0.5781850999999278,None,space,2.739525100000037,None,0,0,0,1,,,,,6,7,55,3,178.5046946,,,,,,,,,,,,,,,,,,,,,178.48962849999998,178.5046946,178.98896749999994,178.99358200000006,179.01010029999998,179.605008,,,,,179.60519610000006,179.62074310000003,179.82118229999992,179.80517940000004,179.01010029999998,,,,,,,,1,1,0.5781850999999278,None,,,,,,,,893,24,M,L,2026-02-25_11h15.50.538,VisualSearch_2526_3,,2025.2.4,2026-02-25 11h15.50.737137 +0100,
vertical.xlsx,The target is tilted.,135,56,0,7,1,0,0,0,0,0,0,0,0,0,0,0,0,0,1,135,space,6.845724400000108,None,1,1,0.46558550000008836,None,space,2.739525100000037,None,0,0,0,1,,,,,7,0,56,3,179.82118229999992,,,,,,,,,,,,,,,,,,,,,179.80592260000003,179.82118229999992,180.3049478999999,180.3095323,180.3259900999999,180.804124,,,,,180.80425999999989,180.8201810999999,181.0207312,181.0045138999999,180.3259900999999,,,,,,,,1,1,0.46558550000008836,None,,,,,,,,893,24,M,L,2026-02-25_11h15.50.538,VisualSearch_2526_3,,2025.2.4,2026-02-25 11h15.50.737137 +0100,
vertical.xlsx,The target is tilted.,135,57,1,7,0,1,1,1,0,0,0,0,0,0,0,0,1,3,4,135,space,6.845724400000108,None,0,1,0.9145293999999922,None,space,2.739525100000037,None,0,0,0,1,,,,,7,1,57,6,181.0207312,,,,,,,,,,,,,,,,,,,,,181.00524199999995,181.0207312,181.50432669999987,181.50894549999998,181.52555770000004,182.4536447999999,,,,,182.45388060000005,182.46941889999994,182.66977610000004,182.6537042,181.52555770000004,,,,,,,,0,1,0.9145293999999922,None,,,,,,,,893,24,M,L,2026-02-25_11h15.50.538,VisualSearch_2526_3,,2025.2.4,2026-02-25 11h15.50.737137 +0100,
vertical.xlsx,The target is tilted.,135,58,2,7,0,0,0,0,0,0,0,0,0,0,0,0,1,1,1,135,space,6.845724400000108,None,0,1,0.9056838999999854,None,space,2.739525100000037,None,0,0,0,1,,,,,7,2,58,7,182.66977610000004,,,,,,,,,,,,,,,,,,,,,182.65443660000005,182.66977610000004,183.1535781,183.1581945999999,183.17342559999997,184.08707979999986,,,,,184.08728040000005,184.10208650000004,184.30254409999998,184.28653409999993,183.17342559999997,,,,,,,,0,1,0.9056838999999854,None,,,,,,,,893,24,M,L,2026-02-25_11h15.50.538,VisualSearch_2526_3,,2025.2.4,2026-02-25 11h15.50.737137 +0100,
vertical.xlsx,The target is tilted.,135,59,3,7,0,1,1,1,1,1,1,1,1,1,1,1,1,11,12,135,space,6.845724400000108,None,0,1,2.322905600000013,None,space,2.739525100000037,None,0,0,0,1,,,,,7,3,59,4,184.30254409999998,,,,,,,,,,,,,,,,,,,,,184.28727209999988,184.30254409999998,184.78622700000005,184.79099999999994,184.80763120000006,187.13560189999998,,,,,187.13579979999986,187.15066079999997,187.35084570000004,187.33501260000003,184.80763120000006,,,,,,,,0,1,2.322905600000013,None,,,,,,,,893,24,M,L,2026-02-25_11h15.50.538,VisualSearch_2526_3,,2025.2.4,2026-02-25 11h15.50.737137 +0100,
vertical.xlsx,The target is tilted.,135,60,4,7,1,1,1,1,1,1,1,1,1,1,1,1,0,11,12,135,space,6.845724400000108,None,1,1,0.7520646000000397,None,space,2.739525100000037,None,0,0,0,1,,,,,7,4,60,0,187.35084570000004,,,,,,,,,,,,,,,,,,,,,187.3357363,187.35084570000004,187.83462829999985,187.8392953,187.85467319999998,188.6183254,,,,,188.61854549999998,188.63330309999992,188.8338185,188.8177349,187.85467319999998,,,,,,,,1,1,0.7520646000000397,None,,,,,,,,893,24,M,L,2026-02-25_11h15.50.538,VisualSearch_2526_3,,2025.2.4,2026-02-25 11h15.50.737137 +0100,
vertical.xlsx,The target is tilted.,135,61,5,7,1,1,1,1,1,1,1,1,0,0,0,0,0,7,8,135,space,6.845724400000108,None,1,1,0.9013241000000107,None,space,2.739525100000037,None,0,0,0,1,,,,,7,5,61,1,188.8338185,,,,,,,,,,,,,,,,,,,,,188.81843849999996,188.8338185,189.31697429999986,189.32160380000005,189.3354609999999,190.24986639999997,,,,,190.24998419999997,190.26584279999997,190.46638940000003,190.45009319999986,189.3354609999999,,,,,,,,1,1,0.9013241000000107,None,,,,,,,,893,24,M,L,2026-02-25_11h15.50.538,VisualSearch_2526_3,,2025.2.4,2026-02-25 11h15.50.737137 +0100,
vertical.xlsx,The target is tilted.,135,62,6,7,1,1,1,1,0,0,0,0,0,0,0,0,0,3,4,135,space,6.845724400000108,None,1,1,0.7074473000000125,None,space,2.739525100000037,None,0,0,0,1,,,,,7,6,62,2,190.46638940000003,,,,,,,,,,,,,,,,,,,,,190.45082609999986,190.46638940000003,190.94970719999992,190.95437549999997,190.96594770000002,191.68361660000005,,,,,191.68381320000003,191.69865189999996,191.89865799999984,191.8828274,190.96594770000002,,,,,,,,1,1,0.7074473000000125,None,,,,,,,,893,24,M,L,2026-02-25_11h15.50.538,VisualSearch_2526_3,,2025.2.4,2026-02-25 11h15.50.737137 +0100,
vertical.xlsx,The target is tilted.,135,63,7,7,0,1,1,1,1,1,1,1,0,0,0,0,1,7,8,135,space,6.845724400000108,None,0,1,1.666325200000074,None,space,2.739525100000037,None,0,0,0,1,,,,,7,7,63,5,191.89865799999984,,,,,,,,,,,,,,,,,,,,,191.8835474,191.89865799999984,192.38258969999993,192.38739340000006,192.39862599999992,194.08172049999985,,,,,194.08189560000005,194.09750839999992,194.29799509999998,194.28179109999996,192.39862599999992,,,,,,,,0,1,1.666325200000074,None,,,,,,,,893,24,M,L,2026-02-25_11h15.50.538,VisualSearch_2526_3,,2025.2.4,2026-02-25 11h15.50.737137 +0100,
vertical.xlsx,The target is tilted.,135,64,0,8,1,1,1,1,0,0,0,0,0,0,0,0,0,3,4,135,space,6.845724400000108,None,1,1,0.6930288000000928,None,space,2.739525100000037,None,0,0,0,1,,,,,8,0,64,2,194.29799509999998,,,,,,,,,,,,,,,,,,,,,194.28253519999998,194.29799509999998,194.7816874,194.78635429999986,194.80214350000006,195.49810739999998,,,,,195.49824509999985,195.5135499999999,195.7138877,195.69757379999987,194.80214350000006,,,,,,,,1,1,0.6930288000000928,None,,,,,,,,893,24,M,L,2026-02-25_11h15.50.538,VisualSearch_2526_3,,2025.2.4,2026-02-25 11h15.50.737137 +0100,
vertical.xlsx,The target is tilted.,135,65,1,8,1,0,0,0,0,0,0,0,0,0,0,0,0,0,1,135,space,6.845724400000108,None,1,1,0.48813590000008844,None,space,2.739525100000037,None,0,0,0,1,,,,,8,1,65,3,195.7138877,,,,,,,,,,,,,,,,,,,,,195.6982817999999,195.7138877,196.19766179999988,196.20230419999984,196.22070209999993,196.71458710000002,,,,,196.71478690000004,196.72966759999986,196.93003499999986,196.9139886999999,196.22070209999993,,,,,,,,1,1,0.48813590000008844,None,,,,,,,,893,24,M,L,2026-02-25_11h15.50.538,VisualSearch_2526_3,,2025.2.4,2026-02-25 11h15.50.737137 +0100,
vertical.xlsx,The target is tilted.,135,66,2,8,1,1,1,1,1,1,1,1,0,0,0,0,0,7,8,135,space,6.845724400000108,None,1,1,0.8477987999999641,None,space,2.739525100000037,None,0,0,0,1,,,,,8,2,66,1,196.93003499999986,,,,,,,,,,,,,,,,,,,,,196.9147585999999,196.93003499999986,197.4137771999999,197.41838830000006,197.4336899,198.29650449999986,,,,,198.29667949999998,198.31225670000003,198.51231089999987,198.49660470000003,197.4336899,,,,,,,,1,1,0.8477987999999641,None,,,,,,,,893,24,M,L,2026-02-25_11h15.50.538,VisualSearch_2526_3,,2025.2.4,2026-02-25 11h15.50.737137 +0100,
vertical.xlsx,The target is tilted.,135,67,3,8,0,1,1,1,0,0,0,0,0,0,0,0,1,3,4,135,space,6.845724400000108,None,0,1,1.3498721000000842,None,space,2.739525100000037,None,0,0,0,1,,,,,8,3,67,6,198.51231089999987,,,,,,,,,,,,,,,,,,,,,198.49730309999995,198.51231089999987,198.9963353999999,199.0009528999999,199.0175726,200.3796691,,,,,200.37987199999998,200.39468450000004,200.59503629999995,200.57888409999987,199.0175726,,,,,,,,0,1,1.3498721000000842,None,,,,,,,,893,24,M,L,2026-02-25_11h15.50.538,VisualSearch_2526_3,,2025.2.4,2026-02-25 11h15.50.737137 +0100,
vertical.xlsx,The target is tilted.,135,68,4,8,0,1,1,1,1,1,1,1,0,0,0,0,1,7,8,135,space,6.845724400000108,None,0,1,1.8660440999999537,None,space,2.739525100000037,None,0,0,0,1,,,,,8,4,68,5,200.59503629999995,,,,,,,,,,,,,,,,,,,,,200.57962329999987,200.59503629999995,201.078753,201.08331550000003,201.09932979999985,202.977351,,,,,202.97749010000007,202.9934384999999,203.19399150000004,203.1777399,201.09932979999985,,,,,,,,0,1,1.8660440999999537,None,,,,,,,,893,24,M,L,2026-02-25_11h15.50.538,VisualSearch_2526_3,,2025.2.4,2026-02-25 11h15.50.737137 +0100,
vertical.xlsx,The target is tilted.,135,69,5,8,1,1,1,1,1,1,1,1,1,1,1,1,0,11,12,135,space,6.845724400000108,None,1,1,0.6743168000000423,None,space,2.739525100000037,None,0,0,0,1,,,,,8,5,69,0,203.19399150000004,,,,,,,,,,,,,,,,,,,,,203.17848030000005,203.19399150000004,203.67764349999993,203.682237,203.70042579999995,204.37796189999995,,,,,204.37817070000006,204.3928343,204.59334450000006,204.57722420000005,203.70042579999995,,,,,,,,1,1,0.6743168000000423,None,,,,,,,,893,24,M,L,2026-02-25_11h15.50.538,VisualSearch_2526_3,,2025.2.4,2026-02-25 11h15.50.737137 +0100,
vertical.xlsx,The target is tilted.,135,70,6,8,0,1,1,1,1,1,1,1,1,1,1,1,1,11,12,135,space,6.845724400000108,None,0,1,2.3685928999998396,None,space,2.739525100000037,None,0,0,0,1,,,,,8,6,70,4,204.59334450000006,,,,,,,,,,,,,,,,,,,,,204.57791729999985,204.59334450000006,205.07700369999998,205.08156080000003,205.09848280000006,207.47651509999992,,,,,207.47674970000003,207.49146129999986,207.69185330000005,207.6758029,205.09848280000006,,,,,,,,0,1,2.3685928999998396,None,,,,,,,,893,24,M,L,2026-02-25_11h15.50.538,VisualSearch_2526_3,,2025.2.4,2026-02-25 11h15.50.737137 +0100,
vertical.xlsx,The target is tilted.,135,71,7,8,0,0,0,0,0,0,0,0,0,0,0,0,1,1,1,135,space,6.845724400000108,None,0,1,0.7715482999999494,None,space,2.739525100000037,None,0,0,0,1,,,,,8,7,71,7,207.69185330000005,,,,,,,,,,,,,,,,,,,,,207.6765258999999,207.69185330000005,208.17552849999993,208.1800928,208.19714929999986,208.9753498,,,,,208.97550609999985,208.99074109999992,209.19125429999985,209.1749683999999,208.19714929999986,,,,,,,,0,1,0.7715482999999494,None,,,,,,,,893,24,M,L,2026-02-25_11h15.50.538,VisualSearch_2526_3,,2025.2.4,2026-02-25 11h15.50.737137 +0100,
vertical.xlsx,The target is tilted.,135,72,0,9,1,1,1,1,0,0,0,0,0,0,0,0,0,3,4,135,space,6.845724400000108,None,1,1,0.5311486999999033,None,space,2.739525100000037,None,0,0,0,1,,,,,9,0,72,2,209.19125429999985,,,,,,,,,,,,,,,,,,,,,209.1756800999999,209.19125429999985,209.67490229999999,209.67948550000006,209.69706900000006,210.24127969999995,,,,,210.24141209999993,210.25682660000007,210.45731669999986,210.44102859999998,209.69706900000006,,,,,,,,1,1,0.5311486999999033,None,,,,,,,,893,24,M,L,2026-02-25_11h15.50.538,VisualSearch_2526_3,,2025.2.4,2026-02-25 11h15.50.737137 +0100,
vertical.xlsx,The target is tilted.,135,73,1,9,1,0,0,0,0,0,0,0,0,0,0,0,0,0,1,135,space,6.845724400000108,None,1,1,0.38933399999996254,None,space,2.739525100000037,None,0,0,0,1,,,,,9,1,73,3,210.45731669999986,,,,,,,,,,,,,,,,,,,,,210.44179129999998,210.45731669999986,210.9408186999999,210.94557480000003,210.9624202,211.35792790000005,,,,,211.3581182999999,211.37303629999997,211.57345629999986,211.55739760000006,210.9624202,,,,,,,,1,1,0.38933399999996254,None,,,,,,,,893,24,M,L,2026-02-25_11h15.50.538,VisualSearch_2526_3,,2025.2.4,2026-02-25 11h15.50.737137 +0100,
vertical.xlsx,The target is tilted.,135,74,2,9,0,1,1,1,0,0,0,0,0,0,0,0,1,3,4,135,space,6.845724400000108,None,0,1,0.7725842999998349,None,space,2.739525100000037,None,0,0,0,1,,,,,9,2,74,6,211.57345629999986,,,,,,,,,,,,,,,,,,,,,211.5580955999999,211.57345629999986,212.05716329999996,212.06172790000005,212.07759199999987,212.8567708999999,,,,,212.8569169,212.87229419999994,213.07272309999985,213.05635519999987,212.07759199999987,,,,,,,,0,1,0.7725842999998349,None,,,,,,,,893,24,M,L,2026-02-25_11h15.50.538,VisualSearch_2526_3,,2025.2.4,2026-02-25 11h15.50.737137 +0100,
vertical.xlsx,The target is tilted.,135,75,3,9,0,1,1,1,1,1,1,1,0,0,0,0,1,7,8,135,space,6.845724400000108,None,0,1,1.8482248000000254,None,space,2.739525100000037,None,0,0,0,1,,,,,9,3,75,5,213.07272309999985,,,,,,,,,,,,,,,,,,,,,213.05712029999995,213.07272309999985,213.55652959999998,213.5610701999999,213.57768220000003,215.4387675999999,,,,,215.43896610000002,215.45440899999994,215.65483300000005,215.63880189999986,213.57768220000003,,,,,,,,0,1,1.8482248000000254,None,,,,,,,,893,24,M,L,2026-02-25_11h15.50.538,VisualSearch_2526_3,,2025.2.4,2026-02-25 11h15.50.737137 +0100,
vertical.xlsx,The target is tilted.,135,76,4,9,0,1,1,1,1,1,1,1,1,1,1,1,1,11,12,135,space,6.845724400000108,None,0,1,1.695258400000057,None,space,2.739525100000037,None,0,0,0,1,,,,,9,4,76,4,215.65483300000005,,,,,,,,,,,,,,,,,,,,,215.63950290000002,215.65483300000005,216.13820579999992,216.14273759999992,216.15844189999984,217.85508149999987,,,,,217.8552734,217.87005879999992,218.07045719999996,218.05439419999993,216.15844189999984,,,,,,,,0,1,1.695258400000057,None,,,,,,,,893,24,M,L,2026-02-25_11h15.50.538,VisualSearch_2526_3,,2025.2.4,2026-02-25 11h15.50.737137 +0100,
vertical.xlsx,The target is tilted.,135,77,5,9,0,0,0,0,0,0,0,0,0,0,0,0,1,1,1,135,space,6.845724400000108,None,0,1,0.6736298999999235,None,space,2.739525100000037,None,0,0,0,1,,,,,9,5,77,7,218.07045719999996,,,,,,,,,,,,,,,,,,,,,218.0551028,218.07045719999996,218.56989950000002,218.57158460000005,218.58658509999987,219.27076579999994,,,,,219.2709559,219.2860928,219.48665119999987,219.47016050000002,,,,,,,,,0,1,0.6736298999999235,None,,,,,,,,893,24,M,L,2026-02-25_11h15.50.538,VisualSearch_2526_3,,2025.2.4,2026-02-25 11h15.50.737137 +0100,
vertical.xlsx,The target is tilted.,135,78,6,9,1,1,1,1,1,1,1,1,1,1,1,1,0,11,12,135,space,6.845724400000108,None,1,1,0.9983927999999196,None,space,2.739525100000037,None,0,0,0,1,,,,,9,6,78,0,219.48665119999987,,,,,,,,,,,,,,,,,,,,,219.470869,219.48665119999987,219.97008019999998,219.97466379999992,219.98956909999993,221.00283049999985,,,,,221.00300319999997,221.0185844,221.21890229999985,221.2028381,219.98956909999993,,,,,,,,1,1,0.9983927999999196,None,,,,,,,,893,24,M,L,2026-02-25_11h15.50.538,VisualSearch_2526_3,,2025.2.4,2026-02-25 11h15.50.737137 +0100,
vertical.xlsx,The target is tilted.,135,79,7,9,1,1,1,1,1,1,1,1,0,0,0,0,0,7,8,135,space,6.845724400000108,None,1,1,0.8989854999999807,None,space,2.739525100000037,None,0,0,0,1,,,,,9,7,79,1,221.21890229999985,,,,,,,,,,,,,,,,,,,,,221.2035882,221.21890229999985,221.7026839,221.70723350000003,221.72306149999986,222.63538949999997,,,,,222.63556930000004,222.65115549999996,222.85169099999985,222.83551379999994,221.72306149999986,,,,,,,,1,1,0.8989854999999807,None,,,,,,,,893,24,M,L,2026-02-25_11h15.50.538,VisualSearch_2526_3,,2025.2.4,2026-02-25 11h15.50.737137 +0100,
vertical.xlsx,The target is tilted.,135,80,0,10,0,0,0,0,0,0,0,0,0,0,0,0,1,1,1,135,space,6.845724400000108,None,0,1,0.8648915999999645,None,space,2.739525100000037,None,0,0,0,1,,,,,10,0,80,7,222.85169099999985,,,,,,,,,,,,,,,,,,,,,222.8362525,222.85169099999985,223.3359284999999,223.34047179999993,223.35779049999996,224.23544089999996,,,,,224.2356296999999,224.2505025999999,224.45084350000002,224.4342661999999,223.35779049999996,,,,,,,,0,1,0.8648915999999645,None,,,,,,,,893,24,M,L,2026-02-25_11h15.50.538,VisualSearch_2526_3,,2025.2.4,2026-02-25 11h15.50.737137 +0100,
vertical.xlsx,The target is tilted.,135,81,1,10,1,0,0,0,0,0,0,0,0,0,0,0,0,0,1,135,space,6.845724400000108,None,1,1,0.5436744000000999,None,space,2.739525100000037,None,0,0,0,1,,,,,10,1,81,3,224.45084350000002,,,,,,,,,,,,,,,,,,,,,224.4349623999999,224.45084350000002,224.9342317999999,224.93886610000004,224.95517359999985,225.50149069999998,,,,,225.5016791999999,225.51654110000004,225.716944,225.7007747,224.95517359999985,,,,,,,,1,1,0.5436744000000999,None,,,,,,,,893,24,M,L,2026-02-25_11h15.50.538,VisualSearch_2526_3,,2025.2.4,2026-02-25 11h15.50.737137 +0100,
vertical.xlsx,The target is tilted.,135,82,2,10,1,1,1,1,0,0,0,0,0,0,0,0,0,3,4,135,space,6.845724400000108,None,1,1,0.6471140999999534,None,space,2.739525100000037,None,0,0,0,1,,,,,10,2,82,2,225.716944,,,,,,,,,,,,,,,,,,,,,225.7015234999999,225.716944,226.20055479999996,226.20517399999994,226.22019079999995,226.88349479999988,,,,,226.8837466,226.89925930000004,227.09962359999986,227.08351199999993,226.22019079999995,,,,,,,,1,1,0.6471140999999534,None,,,,,,,,893,24,M,L,2026-02-25_11h15.50.538,VisualSearch_2526_3,,2025.2.4,2026-02-25 11h15.50.737137 +0100,
vertical.xlsx,The target is tilted.,135,83,3,10,0,1,1,1,1,1,1,1,0,0,0,0,1,7,8,135,space,6.845724400000108,None,0,1,1.4576434000000518,None,space,2.739525100000037,None,0,0,0,1,,,,,10,3,83,5,227.09962359999986,,,,,,,,,,,,,,,,,,,,,227.08424509999986,227.09962359999986,227.58336289999988,227.58786809999992,227.6046291,229.06621289999998,,,,,229.06641100000002,229.08204550000005,229.28200459999994,229.26591830000007,227.6046291,,,,,,,,0,1,1.4576434000000518,None,,,,,,,,893,24,M,L,2026-02-25_11h15.50.538,VisualSearch_2526_3,,2025.2.4,2026-02-25 11h15.50.737137 +0100,
vertical.xlsx,The target is tilted.,135,84,4,10,0,1,1,1,1,1,1,1,1,1,1,1,1,11,12,135,space,6.845724400000108,None,0,1,1.9206762000001163,None,space,2.739525100000037,None,0,0,0,1,,,,,10,4,84,4,229.28200459999994,,,,,,,,,,,,,,,,,,,,,229.2666431,229.28200459999994,229.76578870000003,229.77040669999997,229.78716020000002,231.71520829999986,,,,,231.71539970000003,231.73088929999994,231.93080989999999,231.9149806999999,229.78716020000002,,,,,,,,0,1,1.9206762000001163,None,,,,,,,,893,24,M,L,2026-02-25_11h15.50.538,VisualSearch_2526_3,,2025.2.4,2026-02-25 11h15.50.737137 +0100,
vertical.xlsx,The target is tilted.,135,85,5,10,1,1,1,1,1,1,1,1,1,1,1,1,0,11,12,135,space,6.845724400000108,None,1,1,0.5221120000001065,None,space,2.739525100000037,None,0,0,0,1,,,,,10,5,85,0,231.93080989999999,,,,,,,,,,,,,,,,,,,,,231.91565909999986,231.93080989999999,232.41448479999985,232.4191601,232.43535380000003,232.96464990000004,,,,,232.9648201,232.9802990999999,233.18021150000004,233.1641841999999,232.43535380000003,,,,,,,,1,1,0.5221120000001065,None,,,,,,,,893,24,M,L,2026-02-25_11h15.50.538,VisualSearch_2526_3,,2025.2.4,2026-02-25 11h15.50.737137 +0100,
vertical.xlsx,The target is tilted.,135,86,6,10,0,1,1,1,0,0,0,0,0,0,0,0,1,3,4,135,space,6.845724400000108,None,0,1,0.807220099999995,None,space,2.739525100000037,None,0,0,0,1,,,,,10,6,86,6,233.18021150000004,,,,,,,,,,,,,,,,,,,,,233.16488409999988,233.18021150000004,233.66381589999992,233.66860999999994,233.68523729999993,234.4970558,,,,,234.49724539999988,234.51292119999994,234.7128462999999,234.69677439999987,233.68523729999993,,,,,,,,0,1,0.807220099999995,None,,,,,,,,893,24,M,L,2026-02-25_11h15.50.538,VisualSearch_2526_3,,2025.2.4,2026-02-25 11h15.50.737137 +0100,
vertical.xlsx,The target is tilted.,135,87,7,10,1,1,1,1,1,1,1,1,0,0,0,0,0,7,8,135,space,6.845724400000108,None,1,1,0.7888886999999158,None,space,2.739525100000037,None,0,0,0,1,,,,,10,7,87,1,234.7128462999999,,,,,,,,,,,,,,,,,,,,,234.69749750000005,234.7128462999999,235.19665529999997,235.20118819999993,235.21783890000006,236.01332750000006,,,,,236.01351929999987,236.02897639999992,236.22896679999985,236.21287510000002,235.21783890000006,,,,,,,,1,1,0.7888886999999158,None,,,,,,,,893,24,M,L,2026-02-25_11h15.50.538,VisualSearch_2526_3,,2025.2.4,2026-02-25 11h15.50.737137 +0100,
vertical.xlsx,The target is tilted.,135,88,0,11,0,0,0,0,0,0,0,0,0,0,0,0,1,1,1,135,space,6.845724400000108,None,0,1,0.7079150000001846,None,space,2.739525100000037,None,0,0,0,1,,,,,11,0,88,7,236.22896679999985,,,,,,,,,,,,,,,,,,,,,236.21358009999994,236.22896679999985,236.7121127999999,236.7166835999999,236.7340924,237.44498019999992,,,,,237.44506179999985,237.46112549999998,,237.64520079999988,236.7340924,,,,,,,,0,1,0.7079150000001846,None,,,,,,,,893,24,M,L,2026-02-25_11h15.50.538,VisualSearch_2526_3,,2025.2.4,2026-02-25 11h15.50.737137 +0100,
vertical.xlsx,The target is tilted.,135,89,1,11,1,1,1,1,1,1,1,1,1,1,1,1,0,11,12,135,space,6.845724400000108,None,1,1,0.640251600000056,None,space,2.739525100000037,None,0,0,0,1,,,,,11,1,89,0,237.6615764999999,,,,,,,,,,,,,,,,,,,,,237.64591859999996,237.6615764999999,238.14530769999988,238.14980509999987,238.16731619999996,238.8118895,,,,,238.81208229999993,238.8276464999999,239.02760549999994,239.01147790000005,238.16731619999996,,,,,,,,1,1,0.640251600000056,None,,,,,,,,893,24,M,L,2026-02-25_11h15.50.538,VisualSearch_2526_3,,2025.2.4,2026-02-25 11h15.50.737137 +0100,
vertical.xlsx,The target is tilted.,135,90,2,11,1,1,1,1,0,0,0,0,0,0,0,0,0,3,4,135,space,6.845724400000108,None,1,1,0.7674013000000741,None,space,2.739525100000037,None,0,0,0,1,,,,,11,2,90,2,239.02760549999994,,,,,,,,,,,,,,,,,,,,,239.01222869999992,239.02760549999994,239.51120730000002,239.51591129999997,239.53256369999986,240.31102199999987,,,,,240.3111793999999,240.3269585999999,240.52641670000003,240.51021649999984,239.53256369999986,,,,,,,,1,1,0.7674013000000741,None,,,,,,,,893,24,M,L,2026-02-25_11h15.50.538,VisualSearch_2526_3,,2025.2.4,2026-02-25 11h15.50.737137 +0100,
vertical.xlsx,The target is tilted.,135,91,3,11,1,0,0,0,0,0,0,0,0,0,0,0,0,0,1,135,space,6.845724400000108,None,1,1,0.6160297000001265,None,space,2.739525100000037,None,0,0,0,1,,,,,11,3,91,3,240.52641670000003,,,,,,,,,,,,,,,,,,,,,240.51087619999998,240.52641670000003,241.01049179999995,241.01515819999986,241.0311443999999,241.6606930999999,,,,,241.66088339999988,241.67648609999992,241.87639479999984,241.86021770000002,241.0311443999999,,,,,,,,1,1,0.6160297000001265,None,,,,,,,,893,24,M,L,2026-02-25_11h15.50.538,VisualSearch_2526_3,,2025.2.4,2026-02-25 11h15.50.737137 +0100,
vertical.xlsx,The target is tilted.,135,92,4,11,0,1,1,1,1,1,1,1,1,1,1,1,1,11,12,135,space,6.845724400000108,None,0,1,2.1772800999999617,None,space,2.739525100000037,None,0,0,0,1,,,,,11,4,92,4,241.87639479999984,,,,,,,,,,,,,,,,,,,,,241.8609151999999,241.87639479999984,242.35966259999987,242.36416609999992,242.38237819999995,244.57607559999997,,,,,244.5762494999999,244.5916511999999,244.7916083,244.77549369999997,242.38237819999995,,,,,,,,0,1,2.1772800999999617,None,,,,,,,,893,24,M,L,2026-02-25_11h15.50.538,VisualSearch_2526_3,,2025.2.4,2026-02-25 11h15.50.737137 +0100,
vertical.xlsx,The target is tilted.,135,93,5,11,0,1,1,1,0,0,0,0,0,0,0,0,1,3,4,135,space,6.845724400000108,None,0,1,1.2381874000000153,None,space,2.739525100000037,None,0,0,0,1,,,,,11,5,93,6,244.7916083,,,,,,,,,,,,,,,,,,,,,244.77623799999992,244.7916083,245.27544349999994,245.27995280000005,245.29687799999988,246.5418952,,,,,246.54208749999998,246.55739229999995,246.7575193,246.74125830000003,245.29687799999988,,,,,,,,0,1,1.2381874000000153,None,,,,,,,,893,24,M,L,2026-02-25_11h15.50.538,VisualSearch_2526_3,,2025.2.4,2026-02-25 11h15.50.737137 +0100,
vertical.xlsx,The target is tilted.,135,94,6,11,0,1,1,1,1,1,1,1,0,0,0,0,1,7,8,135,space,6.845724400000108,None,0,1,0.8417598999999427,None,space,2.739525100000037,None,0,0,0,1,,,,,11,6,94,5,246.7575193,,,,,,,,,,,,,,,,,,,,,246.74199299999987,246.7575193,247.24071179999987,247.24381689999996,247.25686419999988,248.10754180000004,,,,,248.10773599999993,248.1229902,248.3234657999999,248.30728780000004,247.25686419999988,,,,,,,,0,1,0.8417598999999427,None,,,,,,,,893,24,M,L,2026-02-25_11h15.50.538,VisualSearch_2526_3,,2025.2.4,2026-02-25 11h15.50.737137 +0100,
vertical.xlsx,The target is tilted.,135,95,7,11,1,1,1,1,1,1,1,1,0,0,0,0,0,7,8,135,space,6.845724400000108,None,1,1,0.6288409999999658,None,space,2.739525100000037,None,0,0,0,1,,,,,11,7,95,1,248.3234657999999,,,,,,,,,,,,,,,,,,,,,248.30799049999996,248.3234657999999,248.80610520000005,248.8083383999999,248.82268249999993,249.45731819999992,,,,,249.4575092,249.47280290000003,249.6728111,249.6566338,248.82268249999993,,,,,,,,1,1,0.6288409999999658,None,,,,,,,,893,24,M,L,2026-02-25_11h15.50.538,VisualSearch_2526_3,,2025.2.4,2026-02-25 11h15.50.737137 +0100,
vertical.xlsx,The target is tilted.,135,96,0,12,1,1,1,1,1,1,1,1,1,1,1,1,0,11,12,135,space,6.845724400000108,None,1,1,1.0753263999999945,None,space,2.739525100000037,None,0,0,0,1,,,,,12,0,96,0,249.6728111,,,,,,,,,,,,,,,,,,,,,249.65737190000004,249.6728111,250.15651830000002,250.16100129999995,250.17777320000005,251.2563204999999,,,,,251.2565136999999,251.27193519999992,251.47168740000006,251.4559987,250.17777320000005,,,,,,,,1,1,1.0753263999999945,None,,,,,,,,893,24,M,L,2026-02-25_11h15.50.538,VisualSearch_2526_3,,2025.2.4,2026-02-25 11h15.50.737137 +0100,
vertical.xlsx,The target is tilted.,135,97,1,12,0,0,0,0,0,0,0,0,0,0,0,0,1,1,1,135,space,6.845724400000108,None,0,1,0.9276064000000588,None,space,2.739525100000037,None,0,0,0,1,,,,,12,1,97,7,251.47168740000006,,,,,,,,,,,,,,,,,,,,,251.45669569999995,251.47168740000006,251.95570120000002,251.96019550000005,251.97655599999985,252.90483530000006,,,,,252.90491610000004,252.92096160000006,253.1211441999999,253.10510339999996,251.97655599999985,,,,,,,,0,1,0.9276064000000588,None,,,,,,,,893,24,M,L,2026-02-25_11h15.50.538,VisualSearch_2526_3,,2025.2.4,2026-02-25 11h15.50.737137 +0100,
vertical.xlsx,The target is tilted.,135,98,2,12,1,0,0,0,0,0,0,0,0,0,0,0,0,0,1,135,space,6.845724400000108,None,1,1,0.4352305000002161,None,space,2.739525100000037,None,0,0,0,1,,,,,12,2,98,3,253.1211441999999,,,,,,,,,,,,,,,,,,,,,253.10589299999992,253.1211441999999,253.6045704999999,253.60911680000004,253.62548560000005,254.07139860000007,,,,,254.07157189999998,254.08734890000005,254.28737709999996,254.27111450000007,253.62548560000005,,,,,,,,1,1,0.4352305000002161,None,,,,,,,,893,24,M,L,2026-02-25_11h15.50.538,VisualSearch_2526_3,,2025.2.4,2026-02-25 11h15.50.737137 +0100,
vertical.xlsx,The target is tilted.,135,99,3,12,1,1,1,1,0,0,0,0,0,0,0,0,0,3,4,135,space,6.845724400000108,None,1,1,0.5841751000000386,None,space,2.739525100000037,None,0,0,0,1,,,,,12,3,99,2,254.28737709999996,,,,,,,,,,,,,,,,,,,,,254.27183679999985,254.28737709999996,254.77091410000003,254.77551640000001,254.7905498,255.3879637,,,,,255.38816599999996,255.40348159999985,255.60349580000002,255.587354,254.7905498,,,,,,,,1,1,0.5841751000000386,None,,,,,,,,893,24,M,L,2026-02-25_11h15.50.538,VisualSearch_2526_3,,2025.2.4,2026-02-25 11h15.50.737137 +0100,
vertical.xlsx,The target is tilted.,135,100,4,12,1,1,1,1,1,1,1,1,0,0,0,0,0,7,8,135,space,6.845724400000108,None,1,1,0.7085881000000427,None,space,2.739525100000037,None,0,0,0,1,,,,,12,4,100,1,255.60349580000002,,,,,,,,,,,,,,,,,,,,,255.58805269999993,255.60349580000002,256.0870803999999,256.09159009999985,256.1091139,256.82037249999985,,,,,256.82056190000003,256.83585530000005,257.0361361999999,257.0196223999999,256.1091139,,,,,,,,1,1,0.7085881000000427,None,,,,,,,,893,24,M,L,2026-02-25_11h15.50.538,VisualSearch_2526_3,,2025.2.4,2026-02-25 11h15.50.737137 +0100,
vertical.xlsx,The target is tilted.,135,101,5,12,0,1,1,1,1,1,1,1,1,1,1,1,1,11,12,135,space,6.845724400000108,None,0,1,1.429108000000042,None,space,2.739525100000037,None,0,0,0,1,,,,,12,5,101,4,257.0361361999999,,,,,,,,,,,,,,,,,,,,,257.0203222,257.0361361999999,257.51947670000004,257.52401050000003,257.54035550000003,258.98555540000007,,,,,258.9856393,259.0016312999999,259.2016902999999,259.18530020000003,257.54035550000003,,,,,,,,0,1,1.429108000000042,None,,,,,,,,893,24,M,L,2026-02-25_11h15.50.538,VisualSearch_2526_3,,2025.2.4,2026-02-25 11h15.50.737137 +0100,
vertical.xlsx,The target is tilted.,135,102,6,12,0,1,1,1,0,0,0,0,0,0,0,0,1,3,4,135,space,6.845724400000108,None,0,1,0.6013439000000744,None,space,2.739525100000037,None,0,0,0,1,,,,,12,6,102,6,259.2016902999999,,,,,,,,,,,,,,,,,,,,,259.1860073,259.2016902999999,259.6854289999999,259.68997079999986,259.70105969999986,260.31905489999986,,,,,260.3192675,260.3345096999999,260.5340899999999,260.51849459999994,259.70105969999986,,,,,,,,0,1,0.6013439000000744,None,,,,,,,,893,24,M,L,2026-02-25_11h15.50.538,VisualSearch_2526_3,,2025.2.4,2026-02-25 11h15.50.737137 +0100,
vertical.xlsx,The target is tilted.,135,103,7,12,0,1,1,1,1,1,1,1,0,0,0,0,1,7,8,135,space,6.845724400000108,None,0,1,1.1494568000000527,None,space,2.739525100000037,None,0,0,0,1,,,,,12,7,103,5,260.5340899999999,,,,,,,,,,,,,,,,,,,,,260.51919640000006,260.5340899999999,261.01812259999997,261.02271159999987,261.03911730000004,262.20137980000004,,,,,262.20157300000005,262.2165894,262.41661,262.4007552999999,261.03911730000004,,,,,,,,0,1,1.1494568000000527,None,,,,,,,,893,24,M,L,2026-02-25_11h15.50.538,VisualSearch_2526_3,,2025.2.4,2026-02-25 11h15.50.737137 +0100,
vertical.xlsx,The target is tilted.,135,104,0,13,1,1,1,1,1,1,1,1,0,0,0,0,0,7,8,135,space,6.845724400000108,None,1,1,1.1123695999999654,None,space,2.739525100000037,None,0,0,0,1,,,,,13,0,104,1,262.41661,,,,,,,,,,,,,,,,,,,,,262.4014715999999,262.41661,262.90052509999987,262.90505489999987,262.92147879999993,264.0502578999999,,,,,264.05039369999986,264.06613089999996,264.2660183999999,264.2493577,262.92147879999993,,,,,,,,1,1,1.1123695999999654,None,,,,,,,,893,24,M,L,2026-02-25_11h15.50.538,VisualSearch_2526_3,,2025.2.4,2026-02-25 11h15.50.737137 +0100,
vertical.xlsx,The target is tilted.,135,105,1,13,1,0,0,0,0,0,0,0,0,0,0,0,0,0,1,135,space,6.845724400000108,None,1,1,0.5766124000001582,None,space,2.739525100000037,None,0,0,0,1,,,,,13,1,105,3,264.2660183999999,,,,,,,,,,,,,,,,,,,,,264.24982839999984,264.2660183999999,264.7497361999999,264.7549973,264.7728459,265.3659407,,,,,265.3660275,265.38202750000005,265.5822805999999,265.56629569999996,264.7728459,,,,,,,,1,1,0.5766124000001582,None,,,,,,,,893,24,M,L,2026-02-25_11h15.50.538,VisualSearch_2526_3,,2025.2.4,2026-02-25 11h15.50.737137 +0100,
vertical.xlsx,The target is tilted.,135,106,2,13,0,1,1,1,0,0,0,0,0,0,0,0,1,3,4,135,space,6.845724400000108,None,0,1,0.6598311000000194,None,space,2.739525100000037,None,0,0,0,1,,,,,13,2,106,6,265.5822805999999,,,,,,,,,,,,,,,,,,,,,265.56708779999985,265.5822805999999,266.06586319999997,266.0704452,266.0877957,266.74948359999985,,,,,266.74967130000005,266.7648153,266.96492539999986,266.94889109999986,266.0877957,,,,,,,,0,1,0.6598311000000194,None,,,,,,,,893,24,M,L,2026-02-25_11h15.50.538,VisualSearch_2526_3,,2025.2.4,2026-02-25 11h15.50.737137 +0100,
vertical.xlsx,The target is tilted.,135,107,3,13,0,0,0,0,0,0,0,0,0,0,0,0,1,1,1,135,space,6.845724400000108,None,0,1,0.6125827999999274,None,space,2.739525100000037,None,0,0,0,1,,,,,13,3,107,7,266.96492539999986,,,,,,,,,,,,,,,,,,,,,266.94959240000003,266.96492539999986,267.44857019999995,267.4530906,267.4693502,268.0988393,,,,,268.0990316,268.1143313,268.3143828,268.2981720999999,267.4693502,,,,,,,,0,1,0.6125827999999274,None,,,,,,,,893,24,M,L,2026-02-25_11h15.50.538,VisualSearch_2526_3,,2025.2.4,2026-02-25 11h15.50.737137 +0100,
vertical.xlsx,The target is tilted.,135,108,4,13,0,1,1,1,1,1,1,1,1,1,1,1,1,11,12,135,space,6.845724400000108,None,0,1,2.440678299999945,None,space,2.739525100000037,None,0,0,0,1,,,,,13,4,108,4,268.3143828,,,,,,,,,,,,,,,,,,,,,268.2989169,268.3143828,268.7980273999999,268.80252429999996,268.8188106,271.2631435999999,,,,,271.26326100000006,271.27946900000006,271.4791763999999,271.462843,268.8188106,,,,,,,,0,1,2.440678299999945,None,,,,,,,,893,24,M,L,2026-02-25_11h15.50.538,VisualSearch_2526_3,,2025.2.4,2026-02-25 11h15.50.737137 +0100,
vertical.xlsx,The target is tilted.,135,109,5,13,1,1,1,1,0,0,0,0,0,0,0,0,0,3,4,135,space,6.845724400000108,None,1,1,0.5272647000001598,None,space,2.739525100000037,None,0,0,0,1,,,,,13,5,109,2,271.4791763999999,,,,,,,,,,,,,,,,,,,,,271.4635536999999,271.4791763999999,271.96319070000004,271.9677073999999,271.9827891,272.51284209999994,,,,,272.51292969999986,272.5287317,272.72895859999994,272.71276999999986,271.9827891,,,,,,,,1,1,0.5272647000001598,None,,,,,,,,893,24,M,L,2026-02-25_11h15.50.538,VisualSearch_2526_3,,2025.2.4,2026-02-25 11h15.50.737137 +0100,
vertical.xlsx,The target is tilted.,135,110,6,13,1,1,1,1,1,1,1,1,1,1,1,1,0,11,12,135,space,6.845724400000108,None,1,1,1.0348908999999367,None,space,2.739525100000037,None,0,0,0,1,,,,,13,6,110,0,272.72895859999994,,,,,,,,,,,,,,,,,,,,,272.71350059999986,272.72895859999994,273.2125569,273.21713139999997,273.2285468,274.27952289999985,,,,,274.2797155999999,274.29480379999995,274.4947462,274.4787219,273.2285468,,,,,,,,1,1,1.0348908999999367,None,,,,,,,,893,24,M,L,2026-02-25_11h15.50.538,VisualSearch_2526_3,,2025.2.4,2026-02-25 11h15.50.737137 +0100,
vertical.xlsx,The target is tilted.,135,111,7,13,0,1,1,1,1,1,1,1,0,0,0,0,1,7,8,135,space,6.845724400000108,None,0,1,1.648116200000004,None,space,2.739525100000037,None,0,0,0,1,,,,,13,7,111,5,274.4947462,,,,,,,,,,,,,,,,,,,,,274.4794227,274.4947462,274.9784339,274.9830394999999,274.99919049999994,276.66109489999985,,,,,276.66128249999997,276.6771177999999,276.8770835,276.8609363999999,274.99919049999994,,,,,,,,0,1,1.648116200000004,None,,,,,,,,893,24,M,L,2026-02-25_11h15.50.538,VisualSearch_2526_3,,2025.2.4,2026-02-25 11h15.50.737137 +0100,
vertical.xlsx,The target is tilted.,135,112,0,14,1,0,0,0,0,0,0,0,0,0,0,0,0,0,1,135,space,6.845724400000108,None,1,1,0.571926699999949,None,space,2.739525100000037,None,0,0,0,1,,,,,14,0,112,3,276.8770835,,,,,,,,,,,,,,,,,,,,,276.86166320000007,276.8770835,277.36059479999994,277.36512059999995,277.38293499999986,277.96064980000006,,,,,277.96084040000005,277.97643949999997,278.1765094,278.16023799999994,277.38293499999986,,,,,,,,1,1,0.571926699999949,None,,,,,,,,893,24,M,L,2026-02-25_11h15.50.538,VisualSearch_2526_3,,2025.2.4,2026-02-25 11h15.50.737137 +0100,
vertical.xlsx,The target is tilted.,135,113,1,14,0,1,1,1,1,1,1,1,1,1,1,1,1,11,12,135,space,6.845724400000108,None,0,1,2.091846399999895,None,space,2.739525100000037,None,0,0,0,1,,,,,14,1,113,4,278.1765094,,,,,,,,,,,,,,,,,,,,,278.16100159999996,278.1765094,278.6598704999999,278.6645111999999,278.68092980000006,280.776124,,,,,280.77631559999986,280.79173689999993,280.9917891,280.97561659999997,278.68092980000006,,,,,,,,0,1,2.091846399999895,None,,,,,,,,893,24,M,L,2026-02-25_11h15.50.538,VisualSearch_2526_3,,2025.2.4,2026-02-25 11h15.50.737137 +0100,
vertical.xlsx,The target is tilted.,135,114,2,14,1,1,1,1,0,0,0,0,0,0,0,0,0,3,4,135,space,6.845724400000108,None,1,1,0.6504053999999542,None,space,2.739525100000037,None,0,0,0,1,,,,,14,2,114,2,280.9917891,,,,,,,,,,,,,,,,,,,,,280.97639849999996,280.9917891,281.4754433999999,281.4799991,281.4975729999999,282.15891369999986,,,,,282.159085,282.1748376999999,282.3741763999999,282.35812409999994,281.4975729999999,,,,,,,,1,1,0.6504053999999542,None,,,,,,,,893,24,M,L,2026-02-25_11h15.50.538,VisualSearch_2526_3,,2025.2.4,2026-02-25 11h15.50.737137 +0100,
vertical.xlsx,The target is tilted.,135,115,3,14,0,1,1,1,1,1,1,1,0,0,0,0,1,7,8,135,space,6.845724400000108,None,0,1,3.0214478000000327,None,space,2.739525100000037,None,0,0,0,1,,,,,14,3,115,5,282.3741763999999,,,,,,,,,,,,,,,,,,,,,282.3588516,282.3741763999999,282.8583128999999,282.8628414,282.87917859999993,285.9074097,,,,,285.9076052999999,285.9225735,286.1228237999999,286.10665530000006,282.87917859999993,,,,,,,,0,1,3.0214478000000327,None,,,,,,,,893,24,M,L,2026-02-25_11h15.50.538,VisualSearch_2526_3,,2025.2.4,2026-02-25 11h15.50.737137 +0100,
vertical.xlsx,The target is tilted.,135,116,4,14,1,1,1,1,1,1,1,1,0,0,0,0,0,7,8,135,space,6.845724400000108,None,1,1,0.5812502000001132,None,space,2.739525100000037,None,0,0,0,1,,,,,14,4,116,1,286.1228237999999,,,,,,,,,,,,,,,,,,,,,286.10737689999996,286.1228237999999,286.606669,286.6112765999999,286.6224606999999,287.20699360000003,,,,,287.2072048,287.22224959999994,287.4223672999999,287.40634810000006,286.6224606999999,,,,,,,,1,1,0.5812502000001132,None,,,,,,,,893,24,M,L,2026-02-25_11h15.50.538,VisualSearch_2526_3,,2025.2.4,2026-02-25 11h15.50.737137 +0100,
vertical.xlsx,The target is tilted.,135,117,5,14,0,1,1,1,0,0,0,0,0,0,0,0,1,3,4,135,space,6.845724400000108,None,0,1,0.7450068999999075,None,space,2.739525100000037,None,0,0,0,1,,,,,14,5,117,6,287.4223672999999,,,,,,,,,,,,,,,,,,,,,287.4071621999999,287.4223672999999,287.9059172,287.91051429999993,287.92786939999996,288.68949969999994,,,,,288.68969259999994,288.70505609999987,288.90491069999985,288.8888064999999,287.92786939999996,,,,,,,,0,1,0.7450068999999075,None,,,,,,,,893,24,M,L,2026-02-25_11h15.50.538,VisualSearch_2526_3,,2025.2.4,2026-02-25 11h15.50.737137 +0100,
vertical.xlsx,The target is tilted.,135,118,6,14,1,1,1,1,1,1,1,1,1,1,1,1,0,11,12,135,space,6.845724400000108,None,1,1,0.8927835000001778,None,space,2.739525100000037,None,0,0,0,1,,,,,14,6,118,0,288.90491069999985,,,,,,,,,,,,,,,,,,,,,288.8895321,288.90491069999985,289.3886017,289.39311569999995,289.4101226999999,290.30453149999994,,,,,290.3046147,290.3204782,290.52074649999986,290.5046708,289.4101226999999,,,,,,,,1,1,0.8927835000001778,None,,,,,,,,893,24,M,L,2026-02-25_11h15.50.538,VisualSearch_2526_3,,2025.2.4,2026-02-25 11h15.50.737137 +0100,
vertical.xlsx,The target is tilted.,135,119,7,14,0,0,0,0,0,0,0,0,0,0,0,0,1,1,1,135,space,6.845724400000108,None,0,1,0.8846538999998756,None,space,2.739525100000037,None,0,0,0,1,,,,,14,7,119,7,290.52074649999986,,,,,,,,,,,,,,,,,,,,,290.5054287999999,290.52074649999986,291.0046167999999,291.00916830000006,291.0273302999999,291.92131900000004,,,,,291.9215064,291.93684239999993,292.1534059999999,292.12067120000006,291.0273302999999,,,,,,,,0,1,0.8846538999998756,None,,,,,,,,893,24,M,L,2026-02-25_11h15.50.538,VisualSearch_2526_3,,2025.2.4,2026-02-25 11h15.50.737137 +0100,
vertical.xlsx,The target is tilted.,135,0,0,0,,,,,,,,,,,,,,,,,space,6.845724400000108,None,,,,,space,2.739525100000037,None,0,0,0,1,,,,,,,,,,,,,,,,,,,,,,,,,,,,,,,,,,,,,,,,,,,,,,,,,,,,,,,,,,,,,,,893,24,M,L,2026-02-25_11h15.50.538,VisualSearch_2526_3,,2025.2.4,2026-02-25 11h15.50.737137 +0100,
tilted.xlsx,The target is tilted.,117,0,0,0,1,1,1,1,0,0,0,0,0,0,0,0,0,3,4,117,space,4.02261610000005,None,1,1,1.408851200000072,None,,,,0,1,1,0,0,0,0,2,,,,,296.2160065999999,,,,,,,,,,,,,,,292.1534059999999,292.1534059999999,292.1534059999999,space,4.02261610000005,None,296.2119052999999,296.2160065999999,296.70170919999987,296.7063163999999,296.7228273999999,298.1349817999999,1,1,1.408851200000072,None,298.1351743,298.1506686,298.3506479,298.334464,,,,,,,,,,,,,,,,,,,,893,24,M,L,2026-02-25_11h15.50.538,VisualSearch_2526_3,,2025.2.4,2026-02-25 11h15.50.737137 +0100,
tilted.xlsx,The target is tilted.,117,1,1,0,1,1,1,1,1,1,1,1,0,0,0,0,0,7,8,117,space,4.02261610000005,None,1,1,0.7458659999999782,None,,,,0,1,1,0,0,1,1,1,,,,,298.3506479,,,,,,,,,,,,,,,,,,,,,298.3351522999999,298.3506479,298.83395930000006,298.8385085,298.8537134999999,299.6010415999999,1,1,0.7458659999999782,None,299.601226,299.61675049999985,299.81662819999997,299.80038549999995,298.8537134999999,,,,,,,,,,,,,,,,,,,893,24,M,L,2026-02-25_11h15.50.538,VisualSearch_2526_3,,2025.2.4,2026-02-25 11h15.50.737137 +0100,
tilted.xlsx,The target is tilted.,117,2,2,0,0,1,1,1,0,0,0,0,0,0,0,0,1,3,4,117,space,4.02261610000005,None,0,1,1.3843915999998444,None,,,,0,1,1,0,0,2,2,6,,,,,299.81662819999997,,,,,,,,,,,,,,,,,,,,,299.80104929999993,299.81662819999997,300.30018070000006,300.3047985999999,300.32124109999995,301.71643500000005,0,1,1.3843915999998444,None,301.71659009999985,301.73237270000004,301.93228339999996,301.9165381999999,300.32124109999995,,,,,,,,,,,,,,,,,,,893,24,M,L,2026-02-25_11h15.50.538,VisualSearch_2526_3,,2025.2.4,2026-02-25 11h15.50.737137 +0100,
tilted.xlsx,The target is tilted.,117,3,3,0,0,0,0,0,0,0,0,0,0,0,0,0,1,1,1,117,space,4.02261610000005,None,0,1,0.9106468999998469,None,,,,0,1,1,0,0,3,3,7,,,,,301.93228339999996,,,,,,,,,,,,,,,,,,,,,301.9171813999999,301.93228339999996,302.41610059999994,302.4207048999999,302.4372521,303.3494106999999,0,1,0.9106468999998469,None,303.34959449999997,303.3651585,303.56495689999997,303.54890950000004,302.4372521,,,,,,,,,,,,,,,,,,,893,24,M,L,2026-02-25_11h15.50.538,VisualSearch_2526_3,,2025.2.4,2026-02-25 11h15.50.737137 +0100,
tilted.xlsx,The target is tilted.,117,4,4,0,0,1,1,1,1,1,1,1,1,1,1,1,1,11,12,117,space,4.02261610000005,None,0,1,2.2178200000000743,None,,,,0,1,1,0,0,4,4,4,,,,,303.56495689999997,,,,,,,,,,,,,,,,,,,,,303.5495549,303.56495689999997,304.0486764,304.0534344,304.0698972,306.2977128,0,1,2.2178200000000743,None,306.29786349999995,306.31358769999997,306.51358159999995,306.4974144999999,304.0698972,,,,,,,,,,,,,,,,,,,893,24,M,L,2026-02-25_11h15.50.538,VisualSearch_2526_3,,2025.2.4,2026-02-25 11h15.50.737137 +0100,
tilted.xlsx,The target is tilted.,117,5,5,0,0,1,1,1,1,1,1,1,0,0,0,0,1,7,8,117,space,4.02261610000005,None,1,0,0.8343169999998281,None,,,,0,1,1,0,0,5,5,5,,,,,306.51358159999995,,,,,,,,,,,,,,,,,,,,,306.49809059999984,306.51358159999995,306.9973405999999,307.0018250999999,307.0132569,307.8633623999999,1,0,0.8343169999998281,None,307.8634428999999,307.8793083999999,308.0794263999999,308.06344509999985,307.0132569,,,,,,,,,,,,,,,,,,,893,24,M,L,2026-02-25_11h15.50.538,VisualSearch_2526_3,,2025.2.4,2026-02-25 11h15.50.737137 +0100,
tilted.xlsx,The target is tilted.,117,6,6,0,1,0,0,0,0,0,0,0,0,0,0,0,0,0,1,117,space,4.02261610000005,None,1,1,1.148717300000044,None,,,,0,1,1,0,0,6,6,3,,,,,308.0794263999999,,,,,,,,,,,,,,,,,,,,,308.0641349,308.0794263999999,308.5631080999999,308.56765010000004,308.58537150000006,309.74652420000007,1,1,1.148717300000044,None,309.7467320999999,309.7620514,309.96185190000006,309.94549430000006,308.58537150000006,,,,,,,,,,,,,,,,,,,893,24,M,L,2026-02-25_11h15.50.538,VisualSearch_2526_3,,2025.2.4,2026-02-25 11h15.50.737137 +0100,
tilted.xlsx,The target is tilted.,117,7,7,0,1,1,1,1,1,1,1,1,1,1,1,1,0,11,12,117,space,4.02261610000005,None,1,1,3.907104899999922,None,,,,0,1,1,0,0,7,7,0,,,,,309.96185190000006,,,,,,,,,,,,,,,,,,,,,309.9461512999999,309.96185190000006,310.4457640999999,310.4503422,310.46669139999995,314.37750759999994,1,1,3.907104899999922,None,314.3776946999999,314.3933399,314.5933178999999,314.5772485,310.46669139999995,,,,,,,,,,,,,,,,,,,893,24,M,L,2026-02-25_11h15.50.538,VisualSearch_2526_3,,2025.2.4,2026-02-25 11h15.50.737137 +0100,
tilted.xlsx,The target is tilted.,117,0,0,0,0,1,1,1,1,1,1,1,0,0,0,0,1,7,8,117,space,4.02261610000005,None,0,1,4.50455490000013,None,space,2.3631845999998404,None,0,1,1,0,,,,,0,0,0,5,316.9907960999999,,,,,,,,,,,,,,,,,,,,,316.9864230999999,316.9907960999999,317.4756560999999,317.48027839999986,317.49755819999996,322.00675780000006,,,,,322.00685810000004,322.02302770000006,322.2230500999999,322.2070369999999,,314.5849458,314.5933178999999,314.5933178999999,316.9594374999999,space,2.3631845999998404,None,0,1,4.50455490000013,None,,,,,,,,893,24,M,L,2026-02-25_11h15.50.538,VisualSearch_2526_3,,2025.2.4,2026-02-25 11h15.50.737137 +0100,
tilted.xlsx,The target is tilted.,117,1,1,0,1,0,0,0,0,0,0,0,0,0,0,0,0,0,1,117,space,4.02261610000005,None,1,1,0.6431147999999212,None,space,2.3631845999998404,None,0,1,1,0,,,,,0,1,1,3,322.2230500999999,,,,,,,,,,,,,,,,,,,,,322.20778870000004,322.2230500999999,322.70686780000005,322.71138829999995,322.72283790000006,323.3736948999999,,,,,323.37388639999995,323.38893400000006,323.5889852,323.57314099999985,322.72283790000006,,,,,,,,1,1,0.6431147999999212,None,,,,,,,,893,24,M,L,2026-02-25_11h15.50.538,VisualSearch_2526_3,,2025.2.4,2026-02-25 11h15.50.737137 +0100,
tilted.xlsx,The target is tilted.,117,2,2,0,1,1,1,1,1,1,1,1,0,0,0,0,0,7,8,117,space,4.02261610000005,None,1,1,1.7616696999998567,None,space,2.3631845999998404,None,0,1,1,0,,,,,0,2,2,1,323.5889852,,,,,,,,,,,,,,,,,,,,,323.57397479999986,323.5889852,324.0728342,324.0773231999999,324.08875769999986,325.85579919999986,,,,,325.85598979999986,325.8713912999999,326.0713911999999,326.05524259999993,324.08875769999986,,,,,,,,1,1,1.7616696999998567,None,,,,,,,,893,24,M,L,2026-02-25_11h15.50.538,VisualSearch_2526_3,,2025.2.4,2026-02-25 11h15.50.737137 +0100,
tilted.xlsx,The target is tilted.,117,3,3,0,0,0,0,0,0,0,0,0,0,0,0,0,1,1,1,117,space,4.02261610000005,None,0,1,0.7128927000001113,None,space,2.3631845999998404,None,0,1,1,0,,,,,0,3,3,7,326.0713911999999,,,,,,,,,,,,,,,,,,,,,326.0559681,326.0713911999999,326.55502809999984,326.5595252999999,326.5755741999999,327.3049882,,,,,327.305165,327.32083139999986,327.52063,327.5046193999999,326.5755741999999,,,,,,,,0,1,0.7128927000001113,None,,,,,,,,893,24,M,L,2026-02-25_11h15.50.538,VisualSearch_2526_3,,2025.2.4,2026-02-25 11h15.50.737137 +0100,
tilted.xlsx,The target is tilted.,117,4,4,0,1,1,1,1,1,1,1,1,1,1,1,1,0,11,12,117,space,4.02261610000005,None,1,1,1.0413974999999027,None,space,2.3631845999998404,None,0,1,1,0,,,,,0,4,4,0,327.52063,,,,,,,,,,,,,,,,,,,,,327.50538489999985,327.52063,328.00444960000004,328.0089596999999,328.02639729999987,329.0710922999999,,,,,329.0712848999999,329.0866037999999,329.28662080000004,329.27033600000004,328.02639729999987,,,,,,,,1,1,1.0413974999999027,None,,,,,,,,893,24,M,L,2026-02-25_11h15.50.538,VisualSearch_2526_3,,2025.2.4,2026-02-25 11h15.50.737137 +0100,
tilted.xlsx,The target is tilted.,117,5,5,0,0,1,1,1,1,1,1,1,1,1,1,1,1,11,12,117,space,4.02261610000005,None,0,1,2.0472193000000516,None,space,2.3631845999998404,None,0,1,1,0,,,,,0,5,5,4,329.28662080000004,,,,,,,,,,,,,,,,,,,,,329.27105949999986,329.28662080000004,329.77010399999995,329.77463509999984,329.78804360000004,331.8365073,,,,,331.8366980999999,331.85196799999994,332.05204149999986,332.03592950000007,329.78804360000004,,,,,,,,0,1,2.0472193000000516,None,,,,,,,,893,24,M,L,2026-02-25_11h15.50.538,VisualSearch_2526_3,,2025.2.4,2026-02-25 11h15.50.737137 +0100,
tilted.xlsx,The target is tilted.,117,6,6,0,0,1,1,1,0,0,0,0,0,0,0,0,1,3,4,117,space,4.02261610000005,None,0,1,0.8233313999999154,None,space,2.3631845999998404,None,0,1,1,0,,,,,0,6,6,6,332.05204149999986,,,,,,,,,,,,,,,,,,,,,332.0367005999999,332.05204149999986,332.5357308,332.54023529999995,332.5581061999999,333.3855381999999,,,,,333.3857318999999,333.4012439999999,333.6011968999999,333.58495300000004,332.5581061999999,,,,,,,,0,1,0.8233313999999154,None,,,,,,,,893,24,M,L,2026-02-25_11h15.50.538,VisualSearch_2526_3,,2025.2.4,2026-02-25 11h15.50.737137 +0100,
tilted.xlsx,The target is tilted.,117,7,7,0,1,1,1,1,0,0,0,0,0,0,0,0,0,3,4,117,space,4.02261610000005,None,1,1,0.8419976000000133,None,space,2.3631845999998404,None,0,1,1,0,,,,,0,7,7,2,333.6011968999999,,,,,,,,,,,,,,,,,,,,,333.58565840000006,333.6011968999999,334.08504530000005,334.08952109999996,334.1069144999999,334.95154639999987,,,,,334.9517415,334.96710400000006,335.16709190000006,335.1510722999999,334.1069144999999,,,,,,,,1,1,0.8419976000000133,None,,,,,,,,893,24,M,L,2026-02-25_11h15.50.538,VisualSearch_2526_3,,2025.2.4,2026-02-25 11h15.50.737137 +0100,
tilted.xlsx,The target is tilted.,117,8,0,1,1,0,0,0,0,0,0,0,0,0,0,0,0,0,1,117,space,4.02261610000005,None,1,1,0.5749329000000216,None,space,2.3631845999998404,None,0,1,1,0,,,,,1,0,8,3,335.16709190000006,,,,,,,,,,,,,,,,,,,,,335.15181289999987,335.16709190000006,335.6508088999999,335.6553280999999,335.67411049999987,336.25048029999994,,,,,336.2506071,336.26667040000007,336.46666690000006,336.4502522,335.67411049999987,,,,,,,,1,1,0.5749329000000216,None,,,,,,,,893,24,M,L,2026-02-25_11h15.50.538,VisualSearch_2526_3,,2025.2.4,2026-02-25 11h15.50.737137 +0100,
tilted.xlsx,The target is tilted.,117,9,1,1,0,1,1,1,0,0,0,0,0,0,0,0,1,3,4,117,space,4.02261610000005,None,0,1,1.9639965999999731,None,space,2.3631845999998404,None,0,1,1,0,,,,,1,1,9,6,336.46666690000006,,,,,,,,,,,,,,,,,,,,,336.4509940999999,336.46666690000006,336.9501129,336.95455130000005,336.9661670999999,338.9334575999999,,,,,338.93366279999987,338.9485382999999,339.1487597,339.1326179,336.9661670999999,,,,,,,,0,1,1.9639965999999731,None,,,,,,,,893,24,M,L,2026-02-25_11h15.50.538,VisualSearch_2526_3,,2025.2.4,2026-02-25 11h15.50.737137 +0100,
tilted.xlsx,The target is tilted.,117,10,2,1,1,1,1,1,1,1,1,1,0,0,0,0,0,7,8,117,space,4.02261610000005,None,0,0,1.7055642999998781,None,space,2.3631845999998404,None,0,1,1,0,,,,,1,2,10,1,339.1487597,,,,,,,,,,,,,,,,,,,,,339.13335289999986,339.1487597,339.63242939999986,339.6369376,339.64842269999986,341.3655647999999,,,,,341.36587499999996,341.38085019999994,341.58098389999986,341.56488379999996,339.64842269999986,,,,,,,,0,0,1.7055642999998781,None,,,,,,,,893,24,M,L,2026-02-25_11h15.50.538,VisualSearch_2526_3,,2025.2.4,2026-02-25 11h15.50.737137 +0100,
tilted.xlsx,The target is tilted.,117,11,3,1,1,1,1,1,1,1,1,1,1,1,1,1,0,11,12,117,space,4.02261610000005,None,0,0,2.1623712000000523,None,space,2.3631845999998404,None,0,1,1,0,,,,,1,3,11,0,341.58098389999986,,,,,,,,,,,,,,,,,,,,,341.5655852,341.58098389999986,342.06466380000006,342.06922599999984,342.0859203,344.26388309999993,,,,,344.2640784,344.2793363999999,344.47967040000003,344.4635444999999,342.0859203,,,,,,,,0,0,2.1623712000000523,None,,,,,,,,893,24,M,L,2026-02-25_11h15.50.538,VisualSearch_2526_3,,2025.2.4,2026-02-25 11h15.50.737137 +0100,
tilted.xlsx,The target is tilted.,117,12,4,1,0,1,1,1,1,1,1,1,1,1,1,1,1,11,12,117,space,4.02261610000005,None,0,1,1.3418083000001388,None,space,2.3631845999998404,None,0,1,1,0,,,,,1,4,12,4,344.47967040000003,,,,,,,,,,,,,,,,,,,,,344.46426270000006,344.47967040000003,344.9632417999999,344.96787500000005,344.98474869999995,346.32979239999986,,,,,346.32998169999996,346.34543239999994,346.5454090999999,346.52912719999995,344.98474869999995,,,,,,,,0,1,1.3418083000001388,None,,,,,,,,893,24,M,L,2026-02-25_11h15.50.538,VisualSearch_2526_3,,2025.2.4,2026-02-25 11h15.50.737137 +0100,
tilted.xlsx,The target is tilted.,117,13,5,1,1,1,1,1,0,0,0,0,0,0,0,0,0,3,4,117,space,4.02261610000005,None,1,1,0.8498768000001746,None,space,2.3631845999998404,None,0,1,1,0,,,,,1,5,13,2,346.5454090999999,,,,,,,,,,,,,,,,,,,,,346.5298593,346.5454090999999,347.02903459999993,347.0335241999999,347.05043439999986,347.9125208999999,,,,,347.91271159999997,347.92772850000006,348.12763159999986,348.1118936999999,347.05043439999986,,,,,,,,1,1,0.8498768000001746,None,,,,,,,,893,24,M,L,2026-02-25_11h15.50.538,VisualSearch_2526_3,,2025.2.4,2026-02-25 11h15.50.737137 +0100,
tilted.xlsx,The target is tilted.,117,14,6,1,0,0,0,0,0,0,0,0,0,0,0,0,1,1,1,117,space,4.02261610000005,None,0,1,0.5451602999999068,None,space,2.3631845999998404,None,0,1,1,0,,,,,1,6,14,7,348.12763159999986,,,,,,,,,,,,,,,,,,,,,348.1126116999999,348.12763159999986,348.6116869,348.6162569999999,348.62733649999996,349.17863510000006,,,,,349.1788225999999,349.1942087,349.3941626999999,349.3780850999999,348.62733649999996,,,,,,,,0,1,0.5451602999999068,None,,,,,,,,893,24,M,L,2026-02-25_11h15.50.538,VisualSearch_2526_3,,2025.2.4,2026-02-25 11h15.50.737137 +0100,
tilted.xlsx,The target is tilted.,117,15,7,1,0,1,1,1,1,1,1,1,0,0,0,0,1,7,8,117,space,4.02261610000005,None,0,1,1.5735873000000993,None,space,2.3631845999998404,None,0,1,1,0,,,,,1,7,15,5,349.3941626999999,,,,,,,,,,,,,,,,,,,,,349.378784,349.3941626999999,349.87728859999993,349.88063999999986,349.89477050000005,351.4773883999999,,,,,351.4775605,351.49316999999996,351.69309939999994,351.67705909999995,349.89477050000005,,,,,,,,0,1,1.5735873000000993,None,,,,,,,,893,24,M,L,2026-02-25_11h15.50.538,VisualSearch_2526_3,,2025.2.4,2026-02-25 11h15.50.737137 +0100,
tilted.xlsx,The target is tilted.,117,16,0,2,1,1,1,1,0,0,0,0,0,0,0,0,0,3,4,117,space,4.02261610000005,None,1,1,0.8161732999999458,None,space,2.3631845999998404,None,0,1,1,0,,,,,2,0,16,2,351.69309939999994,,,,,,,,,,,,,,,,,,,,,351.6777763,351.69309939999994,352.17679929999986,352.1812858999999,352.19814429999997,353.02694440000005,,,,,353.02713829999993,353.04238280000004,353.2419972,353.22621920000006,352.19814429999997,,,,,,,,1,1,0.8161732999999458,None,,,,,,,,893,24,M,L,2026-02-25_11h15.50.538,VisualSearch_2526_3,,2025.2.4,2026-02-25 11h15.50.737137 +0100,
tilted.xlsx,The target is tilted.,117,17,1,2,0,1,1,1,1,1,1,1,0,0,0,0,1,7,8,117,space,4.02261610000005,None,0,1,1.7892707000000883,None,space,2.3631845999998404,None,0,1,1,0,,,,,2,1,17,5,353.2419972,,,,,,,,,,,,,,,,,,,,,353.2269458999999,353.2419972,353.7260222,353.73065329999986,353.74766209999984,355.5424106999999,,,,,355.54262389999985,355.55797099999995,355.75797209999996,355.7417111,353.74766209999984,,,,,,,,0,1,1.7892707000000883,None,,,,,,,,893,24,M,L,2026-02-25_11h15.50.538,VisualSearch_2526_3,,2025.2.4,2026-02-25 11h15.50.737137 +0100,
tilted.xlsx,The target is tilted.,117,18,2,2,0,0,0,0,0,0,0,0,0,0,0,0,1,1,1,117,space,4.02261610000005,None,0,1,0.666973999999982,None,space,2.3631845999998404,None,0,1,1,0,,,,,2,2,18,7,355.75797209999996,,,,,,,,,,,,,,,,,,,,,355.7424701,355.75797209999996,356.24150540000005,356.24616889999993,356.263005,356.94167319999997,,,,,356.9418639999999,356.95721789999993,357.1572429,357.1410621,356.263005,,,,,,,,0,1,0.666973999999982,None,,,,,,,,893,24,M,L,2026-02-25_11h15.50.538,VisualSearch_2526_3,,2025.2.4,2026-02-25 11h15.50.737137 +0100,
tilted.xlsx,The target is tilted.,117,19,3,2,1,1,1,1,1,1,1,1,1,1,1,1,0,11,12,117,space,4.02261610000005,None,0,0,2.21306340000001,None,space,2.3631845999998404,None,0,1,1,0,,,,,2,3,19,0,357.1572429,,,,,,,,,,,,,,,,,,,,,357.14182129999995,357.1572429,357.6408543,357.64540880000004,357.66108540000005,359.88990450000006,,,,,359.8900778,359.90591599999993,360.10589349999987,360.08951030000003,357.66108540000005,,,,,,,,0,0,2.21306340000001,None,,,,,,,,893,24,M,L,2026-02-25_11h15.50.538,VisualSearch_2526_3,,2025.2.4,2026-02-25 11h15.50.737137 +0100,
tilted.xlsx,The target is tilted.,117,20,4,2,0,1,1,1,0,0,0,0,0,0,0,0,1,3,4,117,space,4.02261610000005,None,0,1,0.6740353000000141,None,space,2.3631845999998404,None,0,1,1,0,,,,,2,4,20,6,360.10589349999987,,,,,,,,,,,,,,,,,,,,,360.09022959999993,360.10589349999987,360.5894535,360.59397190000004,360.61045409999997,361.28998439999987,,,,,361.29018399999995,361.30500929999994,361.5051443,361.48926489999985,360.61045409999997,,,,,,,,0,1,0.6740353000000141,None,,,,,,,,893,24,M,L,2026-02-25_11h15.50.538,VisualSearch_2526_3,,2025.2.4,2026-02-25 11h15.50.737137 +0100,
tilted.xlsx,The target is tilted.,117,21,5,2,0,1,1,1,1,1,1,1,1,1,1,1,1,11,12,117,space,4.02261610000005,None,1,0,0.9478435999999419,None,space,2.3631845999998404,None,0,1,1,0,,,,,2,5,21,4,361.5051443,,,,,,,,,,,,,,,,,,,,,361.48996339999985,361.5051443,361.9890401,361.99353129999986,362.01001159999987,362.97213409999995,,,,,362.9723085999999,362.9879257,363.1878259,363.17168979999997,362.01001159999987,,,,,,,,1,0,0.9478435999999419,None,,,,,,,,893,24,M,L,2026-02-25_11h15.50.538,VisualSearch_2526_3,,2025.2.4,2026-02-25 11h15.50.737137 +0100,
tilted.xlsx,The target is tilted.,117,22,6,2,1,0,0,0,0,0,0,0,0,0,0,0,0,0,1,117,space,4.02261610000005,None,0,0,0.5414292000000387,None,space,2.3631845999998404,None,0,1,1,0,,,,,2,6,22,3,363.1878259,,,,,,,,,,,,,,,,,,,,,363.17246339999997,363.1878259,363.67146290000005,363.6759812,363.6918713,364.23830799999996,,,,,364.2384993999999,364.2539268999999,364.45383909999987,364.4376602,363.6918713,,,,,,,,0,0,0.5414292000000387,None,,,,,,,,893,24,M,L,2026-02-25_11h15.50.538,VisualSearch_2526_3,,2025.2.4,2026-02-25 11h15.50.737137 +0100,
tilted.xlsx,The target is tilted.,117,23,7,2,1,1,1,1,1,1,1,1,0,0,0,0,0,7,8,117,space,4.02261610000005,None,1,1,0.7172891000000163,None,space,2.3631845999998404,None,0,1,1,0,,,,,2,7,23,1,364.45383909999987,,,,,,,,,,,,,,,,,,,,,364.43840039999986,364.45383909999987,364.9374243,364.94248219999986,364.95870089999994,365.6879417,,,,,365.68815730000006,365.70329489999995,365.90337769999996,365.88732579999987,364.95870089999994,,,,,,,,1,1,0.7172891000000163,None,,,,,,,,893,24,M,L,2026-02-25_11h15.50.538,VisualSearch_2526_3,,2025.2.4,2026-02-25 11h15.50.737137 +0100,
tilted.xlsx,The target is tilted.,117,24,0,3,1,1,1,1,1,1,1,1,0,0,0,0,0,7,8,117,space,4.02261610000005,None,0,0,1.5049925999999232,None,space,2.3631845999998404,None,0,1,1,0,,,,,3,0,24,1,365.90337769999996,,,,,,,,,,,,,,,,,,,,,365.88814619999994,365.90337769999996,366.38691889999996,366.3919323,366.40572210000005,367.9200469,,,,,367.92023819999986,367.93557139999984,368.1355816,368.1193530999999,366.40572210000005,,,,,,,,0,0,1.5049925999999232,None,,,,,,,,893,24,M,L,2026-02-25_11h15.50.538,VisualSearch_2526_3,,2025.2.4,2026-02-25 11h15.50.737137 +0100,
tilted.xlsx,The target is tilted.,117,25,1,3,0,1,1,1,1,1,1,1,0,0,0,0,1,7,8,117,space,4.02261610000005,None,0,1,1.637332600000036,None,space,2.3631845999998404,None,0,1,1,0,,,,,3,1,25,5,368.1355816,,,,,,,,,,,,,,,,,,,,,368.12010609999993,368.1355816,368.6193688999999,368.6238615,368.6402902,370.28548,,,,,370.2856721999999,370.3011471,370.50118269999984,370.4854089999999,368.6402902,,,,,,,,0,1,1.637332600000036,None,,,,,,,,893,24,M,L,2026-02-25_11h15.50.538,VisualSearch_2526_3,,2025.2.4,2026-02-25 11h15.50.737137 +0100,
tilted.xlsx,The target is tilted.,117,26,2,3,0,0,0,0,0,0,0,0,0,0,0,0,1,1,1,117,space,4.02261610000005,None,0,1,0.535927700000002,None,space,2.3631845999998404,None,0,1,1,0,,,,,3,2,26,7,370.50118269999984,,,,,,,,,,,,,,,,,,,,,370.48608149999995,370.50118269999984,370.98492710000005,370.9894712,371.00871989999996,371.55177060000005,,,,,371.55196120000005,371.56730019999986,371.76721109999994,371.7510680999999,371.00871989999996,,,,,,,,0,1,0.535927700000002,None,,,,,,,,893,24,M,L,2026-02-25_11h15.50.538,VisualSearch_2526_3,,2025.2.4,2026-02-25 11h15.50.737137 +0100,
tilted.xlsx,The target is tilted.,117,27,3,3,1,1,1,1,1,1,1,1,1,1,1,1,0,11,12,117,space,4.02261610000005,None,0,0,1.8151182999999946,None,space,2.3631845999998404,None,0,1,1,0,,,,,3,3,27,0,371.76721109999994,,,,,,,,,,,,,,,,,,,,,371.751798,371.76721109999994,372.2508731999999,372.25550339999995,372.2669842999999,374.08447809999984,,,,,374.08468100000005,374.099193,374.2993306999999,374.2832022,372.2669842999999,,,,,,,,0,0,1.8151182999999946,None,,,,,,,,893,24,M,L,2026-02-25_11h15.50.538,VisualSearch_2526_3,,2025.2.4,2026-02-25 11h15.50.737137 +0100,
tilted.xlsx,The target is tilted.,117,28,4,3,1,0,0,0,0,0,0,0,0,0,0,0,0,0,1,117,space,4.02261610000005,None,1,1,0.7017651999999543,None,space,2.3631845999998404,None,0,1,1,0,,,,,3,4,28,3,374.2993306999999,,,,,,,,,,,,,,,,,,,,,374.28391239999996,374.2993306999999,374.7831804,374.78770659999986,374.80449640000006,375.51642949999996,,,,,375.5166059999999,375.53220910000005,375.73169059999987,375.71603919999984,374.80449640000006,,,,,,,,1,1,0.7017651999999543,None,,,,,,,,893,24,M,L,2026-02-25_11h15.50.538,VisualSearch_2526_3,,2025.2.4,2026-02-25 11h15.50.737137 +0100,
tilted.xlsx,The target is tilted.,117,29,5,3,1,1,1,1,0,0,0,0,0,0,0,0,0,3,4,117,space,4.02261610000005,None,1,1,0.5924626000000899,None,space,2.3631845999998404,None,0,1,1,0,,,,,3,5,29,2,375.73169059999987,,,,,,,,,,,,,,,,,,,,,375.7167761999999,375.73169059999987,376.2157766,376.2205176,376.2370627999999,376.83330950000004,,,,,376.83349799999996,376.84809829999995,377.0482761999999,377.03203570000005,376.2370627999999,,,,,,,,1,1,0.5924626000000899,None,,,,,,,,893,24,M,L,2026-02-25_11h15.50.538,VisualSearch_2526_3,,2025.2.4,2026-02-25 11h15.50.737137 +0100,
tilted.xlsx,The target is tilted.,117,30,6,3,0,1,1,1,1,1,1,1,1,1,1,1,1,11,12,117,space,4.02261610000005,None,0,1,2.043236900000011,None,space,2.3631845999998404,None,0,1,1,0,,,,,3,6,30,4,377.0482761999999,,,,,,,,,,,,,,,,,,,,,377.0328474999999,377.0482761999999,377.53176439999993,377.5368361999999,377.55181949999997,379.59825380000007,,,,,379.59848539999984,379.61372030000007,379.8130882999999,379.7975162,377.55181949999997,,,,,,,,0,1,2.043236900000011,None,,,,,,,,893,24,M,L,2026-02-25_11h15.50.538,VisualSearch_2526_3,,2025.2.4,2026-02-25 11h15.50.737137 +0100,
tilted.xlsx,The target is tilted.,117,31,7,3,0,1,1,1,0,0,0,0,0,0,0,0,1,3,4,117,space,4.02261610000005,None,0,1,1.3282220000000962,None,space,2.3631845999998404,None,0,1,1,0,,,,,3,7,31,6,379.8130882999999,,,,,,,,,,,,,,,,,,,,,379.7982385999999,379.8130882999999,380.29728239999986,380.3018182999999,380.31820419999985,381.66382509999994,,,,,381.6640407,381.67907319999995,381.87901480000005,381.8626354999999,380.31820419999985,,,,,,,,0,1,1.3282220000000962,None,,,,,,,,893,24,M,L,2026-02-25_11h15.50.538,VisualSearch_2526_3,,2025.2.4,2026-02-25 11h15.50.737137 +0100,
tilted.xlsx,The target is tilted.,117,32,0,4,0,1,1,1,0,0,0,0,0,0,0,0,1,3,4,117,space,4.02261610000005,None,0,1,3.8532517000001008,None,space,2.3631845999998404,None,0,1,1,0,,,,,4,0,32,6,381.87901480000005,,,,,,,,,,,,,,,,,,,,,381.86334650000003,381.87901480000005,382.3630493999999,382.3678622,382.3860990999999,386.2446852999999,,,,,386.2448611,386.2605162,386.46055609999985,386.44415809999987,382.3860990999999,,,,,,,,0,1,3.8532517000001008,None,,,,,,,,893,24,M,L,2026-02-25_11h15.50.538,VisualSearch_2526_3,,2025.2.4,2026-02-25 11h15.50.737137 +0100,
tilted.xlsx,The target is tilted.,117,33,1,4,1,1,1,1,0,0,0,0,0,0,0,0,0,3,4,117,space,4.02261610000005,None,0,0,0.8920616000000336,None,space,2.3631845999998404,None,0,1,1,0,,,,,4,1,33,2,386.46055609999985,,,,,,,,,,,,,,,,,,,,,386.4448852999999,386.46055609999985,386.94432529999995,386.9489719999999,386.96011669999984,387.860995,,,,,387.86119399999984,387.87625030000004,388.07652459999986,388.06025750000003,386.96011669999984,,,,,,,,0,0,0.8920616000000336,None,,,,,,,,893,24,M,L,2026-02-25_11h15.50.538,VisualSearch_2526_3,,2025.2.4,2026-02-25 11h15.50.737137 +0100,
tilted.xlsx,The target is tilted.,117,34,2,4,0,0,0,0,0,0,0,0,0,0,0,0,1,1,1,117,space,4.02261610000005,None,0,1,0.7367478000001029,None,space,2.3631845999998404,None,0,1,1,0,,,,,4,2,34,7,388.07652459999986,,,,,,,,,,,,,,,,,,,,,388.06096819999993,388.07652459999986,388.55987789999995,388.5644115,388.58269270000005,389.32702700000004,,,,,389.32721889999993,389.3425216999999,389.54255220000005,389.5263720999999,388.58269270000005,,,,,,,,0,1,0.7367478000001029,None,,,,,,,,893,24,M,L,2026-02-25_11h15.50.538,VisualSearch_2526_3,,2025.2.4,2026-02-25 11h15.50.737137 +0100,
tilted.xlsx,The target is tilted.,117,35,3,4,1,1,1,1,1,1,1,1,1,1,1,1,0,11,12,117,space,4.02261610000005,None,1,1,1.3664128000000346,None,space,2.3631845999998404,None,0,1,1,0,,,,,4,3,35,0,389.54255220000005,,,,,,,,,,,,,,,,,,,,,389.52710179999985,389.54255220000005,390.0257254999999,390.03030160000003,390.0464838999999,391.42595830000005,,,,,391.42613959999994,391.44167289999996,391.6412929999999,391.62552519999986,390.0464838999999,,,,,,,,1,1,1.3664128000000346,None,,,,,,,,893,24,M,L,2026-02-25_11h15.50.538,VisualSearch_2526_3,,2025.2.4,2026-02-25 11h15.50.737137 +0100,
