file_name,block_instructions,target_example,thisN,thisTrialN,thisRepN,target_presence,opacity_1,opacity_2,opacity_3,opacity_4,opacity_5,opacity_6,opacity_7,opacity_8,opacity_9,opacity_10,opacity_11,opacity_12,n_distract,n_items,target_ori,key_resp_4.keys,key_resp_4.rt,key_resp_4.duration,key_resp.keys,key_resp.corr,key_resp.rt,key_resp.duration,key_resp_5.keys,key_resp_5.rt,key_resp_5.duration,blocks.thisRepN,blocks.thisTrialN,blocks.thisN,blocks.thisIndex,practice_trials.thisRepN,practice_trials.thisTrialN,practice_trials.thisN,practice_trials.thisIndex,trials.thisRepN,trials.thisTrialN,trials.thisN,trials.thisIndex,thisRow.t,notes,Welcome.started,WelcomeText.started,key_resp_2.started,Welcome.stopped,key_resp_2.keys,key_resp_2.rt,key_resp_2.duration,InformedConsent.started,text_4.started,InformedConsent.stopped,key_resp_6.keys,key_resp_6.rt,key_resp_6.duration,key_resp_4.started,example_target.started,text_3.started,blocks.key_resp_4.keys,blocks.key_resp_4.rt,blocks.key_resp_4.duration,FixCross.started,fixCross.started,FixCross.stopped,Stimulus.started,key_resp.started,Stimulus.stopped,practice_trials.key_resp.keys,practice_trials.key_resp.corr,practice_trials.key_resp.rt,practice_trials.key_resp.duration,BlankScreen.started,text.started,text.stopped,BlankScreen.stopped,fixCross.stopped,ExperimentStart.started,text_2.started,key_resp_5.started,ExperimentStart.stopped,blocks.key_resp_5.keys,blocks.key_resp_5.rt,blocks.key_resp_5.duration,trials.key_resp.keys,trials.key_resp.corr,trials.key_resp.rt,trials.key_resp.duration,Thanks.started,ThankYou.started,key_resp_3.started,Thanks.stopped,key_resp_3.keys,key_resp_3.rt,key_resp_3.duration,participant,leeftijd,gender,links/rechtshandig,date,expName,expVersion,psychopyVersion,expStart,
,,,,,,,,,,,,,,,,,,,,,,,,,,,,,,,,,,,,,,,,,,,,,,0.024758600000041042,0.036312800000132484,0.036312800000132484,31.089442100000042,space,31.032118499999797,None,,,,,,,,,,,,,,,,,,,,,,,,,,,,,,,,,,,,,,,,,,,,,,894,20,V,R,2026-02-25_11h27.45.228,VisualSearch_2526_3,,2025.2.4,2026-02-25 11h27.45.430167 +0100,
,,,,,,,,,,,,,,,,,,,,,,,,,,,,,,,,,,,,,,,,,,,,,,,,,,,,,31.089505300000155,31.094917300000134,34.35890180000001,y,3.2571978000000854,None,,,,,,,,,,,,,,,,,,,,,,,,,,,,,,,,,,,,,,,,894,20,V,R,2026-02-25_11h27.45.228,VisualSearch_2526_3,,2025.2.4,2026-02-25 11h27.45.430167 +0100,
tilted.xlsx,The target is tilted.,117,0,0,0,1,1,1,1,1,1,1,1,1,1,1,1,0,11,12,117,space,4.542502199999944,None,1,1,2.955496199999743,None,,,,0,0,0,0,0,0,0,0,,,,,38.983931600000005,,,,,,,,,,,,,,,34.402495300000055,34.402495300000055,34.402495300000055,space,4.542502199999944,None,38.978381200000285,38.983931600000005,39.47204429999988,39.47691770000006,39.49308649999989,42.45483110000009,1,1,2.955496199999743,None,42.45503250000024,42.47048430000018,42.67037719999985,42.65428989999987,,,,,,,,,,,,,,,,,,,,894,20,V,R,2026-02-25_11h27.45.228,VisualSearch_2526_3,,2025.2.4,2026-02-25 11h27.45.430167 +0100,
tilted.xlsx,The target is tilted.,117,1,1,0,0,1,1,1,1,1,1,1,1,1,1,1,1,11,12,117,space,4.542502199999944,None,1,0,2.9716749999997774,None,,,,0,0,0,0,0,1,1,4,,,,,42.67037719999985,,,,,,,,,,,,,,,,,,,,,42.65502930000025,42.67037719999985,43.15397959999996,43.158596100000295,43.176488700000164,46.15255970000021,1,0,2.9716749999997774,None,46.15274400000021,46.16861619999986,46.36845160000007,46.352505000000065,43.176488700000164,,,,,,,,,,,,,,,,,,,894,20,V,R,2026-02-25_11h27.45.228,VisualSearch_2526_3,,2025.2.4,2026-02-25 11h27.45.430167 +0100,
tilted.xlsx,The target is tilted.,117,2,2,0,0,1,1,1,1,1,1,1,0,0,0,0,1,7,8,117,space,4.542502199999944,None,0,1,2.545559400000002,None,,,,0,0,0,0,0,2,2,5,,,,,46.36845160000007,,,,,,,,,,,,,,,,,,,,,46.35315250000008,46.36845160000007,46.85202400000003,46.856715900000154,46.87365810000006,49.43440369999985,0,1,2.545559400000002,None,49.43463840000027,49.44996379999998,49.650643700000046,49.63434639999991,46.87365810000006,,,,,,,,,,,,,,,,,,,894,20,V,R,2026-02-25_11h27.45.228,VisualSearch_2526_3,,2025.2.4,2026-02-25 11h27.45.430167 +0100,
tilted.xlsx,The target is tilted.,117,3,3,0,0,0,0,0,0,0,0,0,0,0,0,0,1,1,1,117,space,4.542502199999944,None,0,1,2.467512700000043,None,,,,0,0,0,0,0,3,3,7,,,,,49.650643700000046,,,,,,,,,,,,,,,,,,,,,49.635009800000034,49.650643700000046,50.13371740000025,50.13838989999999,50.154178099999854,52.63329510000017,0,1,2.467512700000043,None,52.63346969999998,52.64853930000004,52.84902729999999,52.83259819999989,50.154178099999854,,,,,,,,,,,,,,,,,,,894,20,V,R,2026-02-25_11h27.45.228,VisualSearch_2526_3,,2025.2.4,2026-02-25 11h27.45.430167 +0100,
tilted.xlsx,The target is tilted.,117,4,4,0,1,0,0,0,0,0,0,0,0,0,0,0,0,0,1,117,space,4.542502199999944,None,1,1,1.1763478000002578,None,,,,0,0,0,0,0,4,4,3,,,,,52.84902729999999,,,,,,,,,,,,,,,,,,,,,52.83328510000024,52.84902729999999,53.33259060000023,53.33726550000006,53.34863329999985,54.53263029999994,1,1,1.1763478000002578,None,54.532821699999886,54.547720900000286,54.74778880000008,54.73185470000021,53.34863329999985,,,,,,,,,,,,,,,,,,,894,20,V,R,2026-02-25_11h27.45.228,VisualSearch_2526_3,,2025.2.4,2026-02-25 11h27.45.430167 +0100,
tilted.xlsx,The target is tilted.,117,5,5,0,1,1,1,1,0,0,0,0,0,0,0,0,0,3,4,117,space,4.542502199999944,None,1,1,1.275904999999966,None,,,,0,0,0,0,0,5,5,2,,,,,54.74778880000008,,,,,,,,,,,,,,,,,,,,,54.73253510000018,54.74778880000008,55.231516500000225,55.23621900000012,55.25132640000015,56.531113400000095,1,1,1.275904999999966,None,56.53117750000024,56.54660850000005,56.74715900000024,56.73119810000003,55.25132640000015,,,,,,,,,,,,,,,,,,,894,20,V,R,2026-02-25_11h27.45.228,VisualSearch_2526_3,,2025.2.4,2026-02-25 11h27.45.430167 +0100,
tilted.xlsx,The target is tilted.,117,6,6,0,1,1,1,1,1,1,1,1,0,0,0,0,0,7,8,117,space,4.542502199999944,None,1,1,0.7290815000001203,None,,,,0,0,0,0,0,6,6,1,,,,,56.74715900000024,,,,,,,,,,,,,,,,,,,,,56.73184770000012,56.74715900000024,57.230888899999854,57.23561790000008,57.251816499999904,57.99716650000005,1,1,0.7290815000001203,None,57.99741640000025,58.01278060000027,58.21323080000025,58.196706100000256,57.251816499999904,,,,,,,,,,,,,,,,,,,894,20,V,R,2026-02-25_11h27.45.228,VisualSearch_2526_3,,2025.2.4,2026-02-25 11h27.45.430167 +0100,
tilted.xlsx,The target is tilted.,117,7,7,0,0,1,1,1,0,0,0,0,0,0,0,0,1,3,4,117,space,4.542502199999944,None,0,1,1.0078885000002629,None,,,,0,0,0,0,0,7,7,6,,,,,58.21323080000025,,,,,,,,,,,,,,,,,,,,,58.19738310000025,58.21323080000025,58.69687829999998,58.70152230000008,58.719161600000234,59.73031040000001,0,1,1.0078885000002629,None,59.73050320000016,59.745395000000144,59.945702499999925,59.92967190000013,58.719161600000234,,,,,,,,,,,,,,,,,,,894,20,V,R,2026-02-25_11h27.45.228,VisualSearch_2526_3,,2025.2.4,2026-02-25 11h27.45.430167 +0100,
tilted.xlsx,The target is tilted.,117,0,0,0,1,1,1,1,1,1,1,1,1,1,1,1,0,11,12,117,space,4.542502199999944,None,1,1,3.949438099999952,None,space,2.377783299999919,None,0,0,0,0,,,,,0,0,0,0,62.35995149999985,,,,,,,,,,,,,,,,,,,,,62.35586160000025,62.35995149999985,62.84479239999996,62.84957970000028,62.86498869999991,66.82712449999985,,,,,66.8273302,66.8421380000002,67.04243900000006,67.02621969999996,,59.93656020000003,59.945702499999925,59.945702499999925,62.32888470000012,space,2.377783299999919,None,1,1,3.949438099999952,None,,,,,,,,894,20,V,R,2026-02-25_11h27.45.228,VisualSearch_2526_3,,2025.2.4,2026-02-25 11h27.45.430167 +0100,
tilted.xlsx,The target is tilted.,117,1,1,0,0,0,0,0,0,0,0,0,0,0,0,0,1,1,1,117,space,4.542502199999944,None,0,1,0.8385192000000643,None,space,2.377783299999919,None,0,0,0,0,,,,,0,1,1,7,67.04243900000006,,,,,,,,,,,,,,,,,,,,,67.02714010000022,67.04243900000006,67.52615100000025,67.52987619999999,67.54220640000017,68.3929700000001,,,,,68.39317469999992,68.40814060000025,68.60834009999985,68.59235039999999,67.54220640000017,,,,,,,,0,1,0.8385192000000643,None,,,,,,,,894,20,V,R,2026-02-25_11h27.45.228,VisualSearch_2526_3,,2025.2.4,2026-02-25 11h27.45.430167 +0100,
tilted.xlsx,The target is tilted.,117,2,2,0,0,1,1,1,1,1,1,1,0,0,0,0,1,7,8,117,space,4.542502199999944,None,1,0,1.13467589999982,None,space,2.377783299999919,None,0,0,0,0,,,,,0,2,2,5,68.60834009999985,,,,,,,,,,,,,,,,,,,,,68.59310600000003,68.60834009999985,69.09206909999989,69.09672030000024,69.1119798000002,70.25861779999991,,,,,70.25882250000018,70.27394789999994,70.47380989999988,70.45823600000017,69.1119798000002,,,,,,,,1,0,1.13467589999982,None,,,,,,,,894,20,V,R,2026-02-25_11h27.45.228,VisualSearch_2526_3,,2025.2.4,2026-02-25 11h27.45.430167 +0100,
tilted.xlsx,The target is tilted.,117,3,3,0,0,1,1,1,0,0,0,0,0,0,0,0,1,3,4,117,space,4.542502199999944,None,0,1,1.0559239999997772,None,space,2.377783299999919,None,0,0,0,0,,,,,0,3,3,6,70.47380989999988,,,,,,,,,,,,,,,,,,,,,70.45898390000025,70.47380989999988,70.95795939999994,70.96260899999993,70.97937900000011,72.04111769999986,,,,,72.0413175000001,72.05647740000018,72.25665400000003,72.24031339999988,70.97937900000011,,,,,,,,0,1,1.0559239999997772,None,,,,,,,,894,20,V,R,2026-02-25_11h27.45.228,VisualSearch_2526_3,,2025.2.4,2026-02-25 11h27.45.430167 +0100,
tilted.xlsx,The target is tilted.,117,4,4,0,1,1,1,1,1,1,1,1,0,0,0,0,0,7,8,117,space,4.542502199999944,None,1,1,1.4316016999996464,None,space,2.377783299999919,None,0,0,0,0,,,,,0,4,4,1,72.25665400000003,,,,,,,,,,,,,,,,,,,,,72.24106189999998,72.25665400000003,72.74059250000005,72.7452209999999,72.76174449999985,74.20594349999988,,,,,74.20608310000011,74.22205129999998,,74.40622860000008,72.76174449999985,,,,,,,,1,1,1.4316016999996464,None,,,,,,,,894,20,V,R,2026-02-25_11h27.45.228,VisualSearch_2526_3,,2025.2.4,2026-02-25 11h27.45.430167 +0100,
tilted.xlsx,The target is tilted.,117,5,5,0,1,1,1,1,0,0,0,0,0,0,0,0,0,3,4,117,space,4.542502199999944,None,0,0,1.1461083999997754,None,space,2.377783299999919,None,0,0,0,0,,,,,0,5,5,2,74.4225555999999,,,,,,,,,,,,,,,,,,,,,74.40700470000024,74.4225555999999,74.90621140000007,74.9109146000003,74.92743619999987,76.08895880000023,,,,,76.08918779999999,76.10452839999994,76.30498860000012,76.28889910000021,74.92743619999987,,,,,,,,0,0,1.1461083999997754,None,,,,,,,,894,20,V,R,2026-02-25_11h27.45.228,VisualSearch_2526_3,,2025.2.4,2026-02-25 11h27.45.430167 +0100,
tilted.xlsx,The target is tilted.,117,6,6,0,1,0,0,0,0,0,0,0,0,0,0,0,0,0,1,117,space,4.542502199999944,None,0,0,1.2938208000000486,None,space,2.377783299999919,None,0,0,0,0,,,,,0,6,6,3,76.30498860000012,,,,,,,,,,,,,,,,,,,,,76.28965240000002,76.30498860000012,76.7886433000001,76.79330000000004,76.81011439999997,78.10525530000018,,,,,78.105456,78.12040450000018,78.32043540000018,78.30456620000018,76.81011439999997,,,,,,,,0,0,1.2938208000000486,None,,,,,,,,894,20,V,R,2026-02-25_11h27.45.228,VisualSearch_2526_3,,2025.2.4,2026-02-25 11h27.45.430167 +0100,
tilted.xlsx,The target is tilted.,117,7,7,0,0,1,1,1,1,1,1,1,1,1,1,1,1,11,12,117,space,4.542502199999944,None,1,0,1.182546800000182,None,space,2.377783299999919,None,0,0,0,0,,,,,0,7,7,4,78.32043540000018,,,,,,,,,,,,,,,,,,,,,78.30536099999995,78.32043540000018,78.80446510000024,78.80930850000027,78.82468189999986,80.02048320000017,,,,,80.02070090000029,80.03610660000027,80.23657299999991,80.22058579999998,78.82468189999986,,,,,,,,1,0,1.182546800000182,None,,,,,,,,894,20,V,R,2026-02-25_11h27.45.228,VisualSearch_2526_3,,2025.2.4,2026-02-25 11h27.45.430167 +0100,
tilted.xlsx,The target is tilted.,117,8,0,1,1,1,1,1,1,1,1,1,1,1,1,1,0,11,12,117,space,4.542502199999944,None,1,1,0.9897470999999314,None,space,2.377783299999919,None,0,0,0,0,,,,,1,0,8,0,80.23657299999991,,,,,,,,,,,,,,,,,,,,,80.22134340000025,80.23657299999991,80.7203219999999,80.72490799999991,80.74148960000025,81.73637140000005,,,,,81.73660429999995,81.75202109999987,81.95239860000015,81.93641030000003,80.74148960000025,,,,,,,,1,1,0.9897470999999314,None,,,,,,,,894,20,V,R,2026-02-25_11h27.45.228,VisualSearch_2526_3,,2025.2.4,2026-02-25 11h27.45.430167 +0100,
tilted.xlsx,The target is tilted.,117,9,1,1,0,0,0,0,0,0,0,0,0,0,0,0,1,1,1,117,space,4.542502199999944,None,0,1,0.8365986000003431,None,space,2.377783299999919,None,0,0,0,0,,,,,1,1,9,7,81.95239860000015,,,,,,,,,,,,,,,,,,,,,81.93713580000008,81.95239860000015,82.43616510000015,82.44082439999988,82.53743730000019,83.3856518,,,,,83.38581099999988,83.40122150000002,83.60169040000005,83.58559489999993,82.53743730000019,,,,,,,,0,1,0.8365986000003431,None,,,,,,,,894,20,V,R,2026-02-25_11h27.45.228,VisualSearch_2526_3,,2025.2.4,2026-02-25 11h27.45.430167 +0100,
tilted.xlsx,The target is tilted.,117,10,2,1,0,1,1,1,1,1,1,1,0,0,0,0,1,7,8,117,space,4.542502199999944,None,1,0,0.7696172000000843,None,space,2.377783299999919,None,0,0,0,0,,,,,1,2,10,5,83.60169040000005,,,,,,,,,,,,,,,,,,,,,83.58631429999991,83.60169040000005,84.08504930000004,84.08977260000006,84.10628969999993,84.88560170000005,,,,,84.8858130000001,84.90065419999996,85.10068539999997,85.08457640000029,84.10628969999993,,,,,,,,1,0,0.7696172000000843,None,,,,,,,,894,20,V,R,2026-02-25_11h27.45.228,VisualSearch_2526_3,,2025.2.4,2026-02-25 11h27.45.430167 +0100,
tilted.xlsx,The target is tilted.,117,11,3,1,1,1,1,1,0,0,0,0,0,0,0,0,0,3,4,117,space,4.542502199999944,None,0,0,2.278165100000024,None,space,2.377783299999919,None,0,0,0,0,,,,,1,3,11,2,85.10068539999997,,,,,,,,,,,,,,,,,,,,,85.0853153999999,85.10068539999997,85.58447799999999,85.58926709999992,85.60461210000017,87.90017220000004,,,,,87.90036759999998,87.91600140000014,88.11638190000008,88.10027830000013,85.60461210000017,,,,,,,,0,0,2.278165100000024,None,,,,,,,,894,20,V,R,2026-02-25_11h27.45.228,VisualSearch_2526_3,,2025.2.4,2026-02-25 11h27.45.430167 +0100,
tilted.xlsx,The target is tilted.,117,12,4,1,0,1,1,1,0,0,0,0,0,0,0,0,1,3,4,117,space,4.542502199999944,None,0,1,1.361289399999805,None,space,2.377783299999919,None,0,0,0,0,,,,,1,4,12,6,88.11638190000008,,,,,,,,,,,,,,,,,,,,,88.10101880000025,88.11638190000008,88.60004830000003,88.60474880000015,88.62306409999997,89.99908890000029,,,,,89.99927330000014,90.01490080000008,90.2154280000002,90.1991860999999,88.62306409999997,,,,,,,,0,1,1.361289399999805,None,,,,,,,,894,20,V,R,2026-02-25_11h27.45.228,VisualSearch_2526_3,,2025.2.4,2026-02-25 11h27.45.430167 +0100,
tilted.xlsx,The target is tilted.,117,13,5,1,1,0,0,0,0,0,0,0,0,0,0,0,0,0,1,117,space,4.542502199999944,None,1,1,4.817130100000213,None,space,2.377783299999919,None,0,0,0,0,,,,,1,5,13,3,90.2154280000002,,,,,,,,,,,,,,,,,,,,,90.19993640000007,90.2154280000002,90.69892400000003,90.70356229999993,90.72044110000002,95.54654210000012,,,,,95.54663340000002,95.56216890000019,95.76283769999986,95.74676090000025,90.72044110000002,,,,,,,,1,1,4.817130100000213,None,,,,,,,,894,20,V,R,2026-02-25_11h27.45.228,VisualSearch_2526_3,,2025.2.4,2026-02-25 11h27.45.430167 +0100,
tilted.xlsx,The target is tilted.,117,14,6,1,1,1,1,1,1,1,1,1,0,0,0,0,0,7,8,117,space,4.542502199999944,None,1,1,2.802301400000033,None,space,2.377783299999919,None,0,0,0,0,,,,,1,6,14,1,95.76283769999986,,,,,,,,,,,,,,,,,,,,,95.74747869999987,95.76283769999986,96.24657890000003,96.25122369999985,96.26606229999993,99.07893119999994,,,,,99.07911480000007,99.09413470000004,99.29462690000014,99.27852159999998,96.26606229999993,,,,,,,,1,1,2.802301400000033,None,,,,,,,,894,20,V,R,2026-02-25_11h27.45.228,VisualSearch_2526_3,,2025.2.4,2026-02-25 11h27.45.430167 +0100,
tilted.xlsx,The target is tilted.,117,15,7,1,0,1,1,1,1,1,1,1,1,1,1,1,1,11,12,117,space,4.542502199999944,None,1,0,1.0787414000001263,None,space,2.377783299999919,None,0,0,0,0,,,,,1,7,15,4,99.29462690000014,,,,,,,,,,,,,,,,,,,,,99.27924300000018,99.29462690000014,99.77829459999998,99.78286839999987,99.80013789999998,100.89422440000021,,,,,100.89444750000007,100.90997670000002,101.11027220000028,101.09404040000004,99.80013789999998,,,,,,,,1,0,1.0787414000001263,None,,,,,,,,894,20,V,R,2026-02-25_11h27.45.228,VisualSearch_2526_3,,2025.2.4,2026-02-25 11h27.45.430167 +0100,
tilted.xlsx,The target is tilted.,117,16,0,2,1,0,0,0,0,0,0,0,0,0,0,0,0,0,1,117,space,4.542502199999944,None,1,1,1.7732390000001033,None,space,2.377783299999919,None,0,0,0,0,,,,,2,0,16,3,101.11027220000028,,,,,,,,,,,,,,,,,,,,,101.09475850000013,101.11027220000028,101.59402389999991,101.59864739999989,101.61693279999986,103.3934554,,,,,103.39365759999987,103.4088862000001,103.60915249999994,103.59284090000006,101.61693279999986,,,,,,,,1,1,1.7732390000001033,None,,,,,,,,894,20,V,R,2026-02-25_11h27.45.228,VisualSearch_2526_3,,2025.2.4,2026-02-25 11h27.45.430167 +0100,
tilted.xlsx,The target is tilted.,117,17,1,2,1,1,1,1,1,1,1,1,0,0,0,0,0,7,8,117,space,4.542502199999944,None,1,1,5.357711999999992,None,space,2.377783299999919,None,0,0,0,0,,,,,2,1,17,1,103.60915249999994,,,,,,,,,,,,,,,,,,,,,103.59340170000019,103.60915249999994,104.09231699999987,104.0966334000002,104.1105285000001,109.47348140000008,,,,,109.47358140000028,109.48915659999989,109.68990670000017,109.6733885000001,104.1105285000001,,,,,,,,1,1,5.357711999999992,None,,,,,,,,894,20,V,R,2026-02-25_11h27.45.228,VisualSearch_2526_3,,2025.2.4,2026-02-25 11h27.45.430167 +0100,
tilted.xlsx,The target is tilted.,117,18,2,2,0,1,1,1,1,1,1,1,0,0,0,0,1,7,8,117,space,4.542502199999944,None,1,0,2.1760514999996303,None,space,2.377783299999919,None,0,0,0,0,,,,,2,2,18,5,109.68990670000017,,,,,,,,,,,,,,,,,,,,,109.67416530000014,109.68990670000017,110.17350139999985,110.17811099999994,110.19466699999998,112.37264579999987,,,,,112.37282549999986,112.38813860000005,112.58841670000015,112.57214610000005,110.19466699999998,,,,,,,,1,0,2.1760514999996303,None,,,,,,,,894,20,V,R,2026-02-25_11h27.45.228,VisualSearch_2526_3,,2025.2.4,2026-02-25 11h27.45.430167 +0100,
tilted.xlsx,The target is tilted.,117,19,3,2,1,1,1,1,0,0,0,0,0,0,0,0,0,3,4,117,space,4.542502199999944,None,1,1,1.8107604999995601,None,space,2.377783299999919,None,0,0,0,0,,,,,2,3,19,2,112.58841670000015,,,,,,,,,,,,,,,,,,,,,112.5727416000002,112.58841670000015,113.07207500000027,113.0767357000002,113.09450160000029,114.92122690000019,,,,,114.92143929999997,114.93688279999992,115.1373903000001,115.1211166999999,113.09450160000029,,,,,,,,1,1,1.8107604999995601,None,,,,,,,,894,20,V,R,2026-02-25_11h27.45.228,VisualSearch_2526_3,,2025.2.4,2026-02-25 11h27.45.430167 +0100,
tilted.xlsx,The target is tilted.,117,20,4,2,0,1,1,1,0,0,0,0,0,0,0,0,1,3,4,117,space,4.542502199999944,None,0,1,0.8695400999999947,None,space,2.377783299999919,None,0,0,0,0,,,,,2,4,20,6,115.1373903000001,,,,,,,,,,,,,,,,,,,,,115.12186099999985,115.1373903000001,115.62111990000017,115.6257605000003,115.64321769999992,116.52058730000022,,,,,116.5208098999999,116.53598930000021,116.7366598000001,116.72060450000004,115.64321769999992,,,,,,,,0,1,0.8695400999999947,None,,,,,,,,894,20,V,R,2026-02-25_11h27.45.228,VisualSearch_2526_3,,2025.2.4,2026-02-25 11h27.45.430167 +0100,
tilted.xlsx,The target is tilted.,117,21,5,2,0,1,1,1,1,1,1,1,1,1,1,1,1,11,12,117,space,4.542502199999944,None,1,0,2.3865130000003774,None,space,2.377783299999919,None,0,0,0,0,,,,,2,5,21,4,116.7366598000001,,,,,,,,,,,,,,,,,,,,,116.72134870000014,116.7366598000001,117.22036690000027,117.22492190000025,117.24170200000003,119.63656530000003,,,,,119.63679200000001,119.65148320000003,119.85184600000025,119.83572600000002,117.24170200000003,,,,,,,,1,0,2.3865130000003774,None,,,,,,,,894,20,V,R,2026-02-25_11h27.45.228,VisualSearch_2526_3,,2025.2.4,2026-02-25 11h27.45.430167 +0100,
tilted.xlsx,The target is tilted.,117,22,6,2,1,1,1,1,1,1,1,1,1,1,1,1,0,11,12,117,space,4.542502199999944,None,1,1,0.9813524000001053,None,space,2.377783299999919,None,0,0,0,0,,,,,2,6,22,0,119.85184600000025,,,,,,,,,,,,,,,,,,,,,119.8364755,119.85184600000025,120.33562460000007,120.34020710000027,120.3572716000001,121.35127570000009,,,,,121.3514161999999,121.36758699999996,121.56771980000008,121.55093499999998,120.3572716000001,,,,,,,,1,1,0.9813524000001053,None,,,,,,,,894,20,V,R,2026-02-25_11h27.45.228,VisualSearch_2526_3,,2025.2.4,2026-02-25 11h27.45.430167 +0100,
tilted.xlsx,The target is tilted.,117,23,7,2,0,0,0,0,0,0,0,0,0,0,0,0,1,1,1,117,space,4.542502199999944,None,0,1,0.6366499999999178,None,space,2.377783299999919,None,0,0,0,0,,,,,2,7,23,7,121.56771980000008,,,,,,,,,,,,,,,,,,,,,121.55139859999986,121.56771980000008,122.05114609999987,122.05573840000011,122.0711017000001,122.71838460000004,,,,,122.71858499999985,122.73339319999991,122.93386889999988,122.91771110000013,122.0711017000001,,,,,,,,0,1,0.6366499999999178,None,,,,,,,,894,20,V,R,2026-02-25_11h27.45.228,VisualSearch_2526_3,,2025.2.4,2026-02-25 11h27.45.430167 +0100,
tilted.xlsx,The target is tilted.,117,24,0,3,0,1,1,1,0,0,0,0,0,0,0,0,1,3,4,117,space,4.542502199999944,None,0,1,0.8984255000000303,None,space,2.377783299999919,None,0,0,0,0,,,,,3,0,24,6,122.93386889999988,,,,,,,,,,,,,,,,,,,,,122.91842900000006,122.93386889999988,123.41716180000026,123.42179620000002,123.43940010000028,124.35022869999989,,,,,124.35045000000014,124.3659669000001,124.56630710000013,124.55031949999989,123.43940010000028,,,,,,,,0,1,0.8984255000000303,None,,,,,,,,894,20,V,R,2026-02-25_11h27.45.228,VisualSearch_2526_3,,2025.2.4,2026-02-25 11h27.45.430167 +0100,
tilted.xlsx,The target is tilted.,117,25,1,3,1,1,1,1,0,0,0,0,0,0,0,0,0,3,4,117,space,4.542502199999944,None,1,1,0.5702409000000443,None,space,2.377783299999919,None,0,0,0,0,,,,,3,1,25,2,124.56630710000013,,,,,,,,,,,,,,,,,,,,,124.55104570000026,124.56630710000013,125.05006060000028,125.05464430000006,125.07130029999985,125.65040000000022,,,,,125.65060199999994,125.66538100000002,125.86586469999997,125.84977760000015,125.07130029999985,,,,,,,,1,1,0.5702409000000443,None,,,,,,,,894,20,V,R,2026-02-25_11h27.45.228,VisualSearch_2526_3,,2025.2.4,2026-02-25 11h27.45.430167 +0100,
tilted.xlsx,The target is tilted.,117,26,2,3,1,1,1,1,1,1,1,1,1,1,1,1,0,11,12,117,space,4.542502199999944,None,1,1,1.3709337000000232,None,space,2.377783299999919,None,0,0,0,0,,,,,3,2,26,0,125.86586469999997,,,,,,,,,,,,,,,,,,,,,125.85052340000016,125.86586469999997,126.34956660000012,126.35484560000009,126.37126009999997,127.74941240000021,,,,,127.7496177999999,127.7644616,127.96494469999993,127.94862190000026,126.37126009999997,,,,,,,,1,1,1.3709337000000232,None,,,,,,,,894,20,V,R,2026-02-25_11h27.45.228,VisualSearch_2526_3,,2025.2.4,2026-02-25 11h27.45.430167 +0100,
tilted.xlsx,The target is tilted.,117,27,3,3,0,1,1,1,1,1,1,1,0,0,0,0,1,7,8,117,space,4.542502199999944,None,0,1,2.097565100000338,None,space,2.377783299999919,None,0,0,0,0,,,,,3,3,27,5,127.96494469999993,,,,,,,,,,,,,,,,,,,,,127.9493629000001,127.96494469999993,128.4484344,128.4530712000003,128.46901709999997,130.57998329999987,,,,,130.58010059999992,130.59682810000027,,130.78063910000014,128.46901709999997,,,,,,,,0,1,2.097565100000338,None,,,,,,,,894,20,V,R,2026-02-25_11h27.45.228,VisualSearch_2526_3,,2025.2.4,2026-02-25 11h27.45.430167 +0100,
tilted.xlsx,The target is tilted.,117,28,4,3,0,1,1,1,1,1,1,1,1,1,1,1,1,11,12,117,space,4.542502199999944,None,0,1,2.5413441000000603,None,space,2.377783299999919,None,0,0,0,0,,,,,3,4,28,4,130.7969942000002,,,,,,,,,,,,,,,,,,,,,130.78140550000012,130.7969942000002,131.2802251999999,131.28487840000003,131.30073229999994,133.8461189000002,,,,,133.84630500000026,133.8615784000001,134.0616834,134.0456018000002,131.30073229999994,,,,,,,,0,1,2.5413441000000603,None,,,,,,,,894,20,V,R,2026-02-25_11h27.45.228,VisualSearch_2526_3,,2025.2.4,2026-02-25 11h27.45.430167 +0100,
tilted.xlsx,The target is tilted.,117,29,5,3,1,1,1,1,1,1,1,1,0,0,0,0,0,7,8,117,space,4.542502199999944,None,1,1,2.5069407000000865,None,space,2.377783299999919,None,0,0,0,0,,,,,3,5,29,1,134.0616834,,,,,,,,,,,,,,,,,,,,,134.04648150000025,134.0616834,134.54585729999985,134.550567,134.56567139999993,137.07820379999998,,,,,137.07837140000015,137.09355879999998,137.29399110000008,137.2778565000001,134.56567139999993,,,,,,,,1,1,2.5069407000000865,None,,,,,,,,894,20,V,R,2026-02-25_11h27.45.228,VisualSearch_2526_3,,2025.2.4,2026-02-25 11h27.45.430167 +0100,
tilted.xlsx,The target is tilted.,117,30,6,3,1,0,0,0,0,0,0,0,0,0,0,0,0,0,1,117,space,4.542502199999944,None,1,1,0.8956676000002517,None,space,2.377783299999919,None,0,0,0,0,,,,,3,6,30,3,137.29399110000008,,,,,,,,,,,,,,,,,,,,,137.2786496000001,137.29399110000008,137.77763100000016,137.78218440000023,137.79909780000003,138.7104439000002,,,,,138.71068360000004,138.72604269999988,138.92606360000013,138.9100979000002,137.79909780000003,,,,,,,,1,1,0.8956676000002517,None,,,,,,,,894,20,V,R,2026-02-25_11h27.45.228,VisualSearch_2526_3,,2025.2.4,2026-02-25 11h27.45.430167 +0100,
tilted.xlsx,The target is tilted.,117,31,7,3,0,0,0,0,0,0,0,0,0,0,0,0,1,1,1,117,space,4.542502199999944,None,0,1,0.6601854999998977,None,space,2.377783299999919,None,0,0,0,0,,,,,3,7,31,7,138.92606360000013,,,,,,,,,,,,,,,,,,,,,138.91085050000015,138.92606360000013,139.41029159999994,139.4148947000001,139.42996770000013,140.09350229999995,,,,,140.09371110000006,140.10881829999994,140.30930939999985,140.2930543,139.42996770000013,,,,,,,,0,1,0.6601854999998977,None,,,,,,,,894,20,V,R,2026-02-25_11h27.45.228,VisualSearch_2526_3,,2025.2.4,2026-02-25 11h27.45.430167 +0100,
tilted.xlsx,The target is tilted.,117,32,0,4,0,1,1,1,0,0,0,0,0,0,0,0,1,3,4,117,space,4.542502199999944,None,0,1,1.2667011999997158,None,space,2.377783299999919,None,0,0,0,0,,,,,4,0,32,6,140.30930939999985,,,,,,,,,,,,,,,,,,,,,140.29380659999993,140.30930939999985,140.79258230000028,140.79719360000013,140.81369530000006,142.0923475000002,,,,,142.0925063000002,142.1078672000001,142.3084120000001,142.2920919999999,140.81369530000006,,,,,,,,0,1,1.2667011999997158,None,,,,,,,,894,20,V,R,2026-02-25_11h27.45.228,VisualSearch_2526_3,,2025.2.4,2026-02-25 11h27.45.430167 +0100,
tilted.xlsx,The target is tilted.,117,33,1,4,1,1,1,1,1,1,1,1,1,1,1,1,0,11,12,117,space,4.542502199999944,None,1,1,2.070123500000136,None,space,2.377783299999919,None,0,0,0,0,,,,,4,1,33,0,142.3084120000001,,,,,,,,,,,,,,,,,,,,,142.2928357000003,142.3084120000001,142.79185770000026,142.79654860000005,142.81261199999994,144.89173830000004,,,,,144.89195619999987,144.90662380000026,145.10712450000005,145.09103440000013,142.81261199999994,,,,,,,,1,1,2.070123500000136,None,,,,,,,,894,20,V,R,2026-02-25_11h27.45.228,VisualSearch_2526_3,,2025.2.4,2026-02-25 11h27.45.430167 +0100,
tilted.xlsx,The target is tilted.,117,34,2,4,0,0,0,0,0,0,0,0,0,0,0,0,1,1,1,117,space,4.542502199999944,None,0,1,0.5701303999999254,None,space,2.377783299999919,None,0,0,0,0,,,,,4,2,34,7,145.10712450000005,,,,,,,,,,,,,,,,,,,,,145.09176020000018,145.10712450000005,145.59046850000027,145.59509760000014,145.6113095000003,146.19115769999985,,,,,146.19137620000015,146.2060656000001,146.40651129999992,146.39026330000002,145.6113095000003,,,,,,,,0,1,0.5701303999999254,None,,,,,,,,894,20,V,R,2026-02-25_11h27.45.228,VisualSearch_2526_3,,2025.2.4,2026-02-25 11h27.45.430167 +0100,
tilted.xlsx,The target is tilted.,117,35,3,4,0,1,1,1,1,1,1,1,1,1,1,1,1,11,12,117,space,4.542502199999944,None,0,1,3.1461075000001983,None,space,2.377783299999919,None,0,0,0,0,,,,,4,3,35,4,146.40651129999992,,,,,,,,,,,,,,,,,,,,,146.3910126000003,146.40651129999992,146.89021810000008,146.89525130000015,146.90611990000002,150.05570250000005,,,,,150.0559085000002,150.07097980000003,150.27128190000008,150.25470900000005,146.90611990000002,,,,,,,,0,1,3.1461075000001983,None,,,,,,,,894,20,V,R,2026-02-25_11h27.45.228,VisualSearch_2526_3,,2025.2.4,2026-02-25 11h27.45.430167 +0100,
tilted.xlsx,The target is tilted.,117,36,4,4,1,1,1,1,1,1,1,1,0,0,0,0,0,7,8,117,space,4.542502199999944,None,1,1,0.7875207000001865,None,space,2.377783299999919,None,0,0,0,0,,,,,4,4,36,1,150.27128190000008,,,,,,,,,,,,,,,,,,,,,150.2554292000002,150.27128190000008,150.75506770000015,150.7597920999999,150.7751535,151.5719077000001,,,,,151.57225570000014,151.58694739999987,151.78740810000022,151.77114189999998,150.7751535,,,,,,,,1,1,0.7875207000001865,None,,,,,,,,894,20,V,R,2026-02-25_11h27.45.228,VisualSearch_2526_3,,2025.2.4,2026-02-25 11h27.45.430167 +0100,
tilted.xlsx,The target is tilted.,117,37,5,4,1,0,0,0,0,0,0,0,0,0,0,0,0,0,1,117,space,4.542502199999944,None,1,1,0.6643175000003794,None,space,2.377783299999919,None,0,0,0,0,,,,,4,5,37,3,151.78740810000022,,,,,,,,,,,,,,,,,,,,,151.77189680000015,151.78740810000022,152.27104350000013,152.27570900000023,152.28862760000015,152.95401190000007,,,,,152.95420070000023,152.9696948000003,153.1702154000002,153.15385859999992,152.28862760000015,,,,,,,,1,1,0.6643175000003794,None,,,,,,,,894,20,V,R,2026-02-25_11h27.45.228,VisualSearch_2526_3,,2025.2.4,2026-02-25 11h27.45.430167 +0100,
tilted.xlsx,The target is tilted.,117,38,6,4,0,1,1,1,1,1,1,1,0,0,0,0,1,7,8,117,space,4.542502199999944,None,1,0,1.4852712000001702,None,space,2.377783299999919,None,0,0,0,0,,,,,4,6,38,5,153.1702154000002,,,,,,,,,,,,,,,,,,,,,153.15461449999998,153.1702154000002,153.65363520000005,153.6584746000001,153.67566229999989,155.17032790000007,,,,,155.17053510000028,155.18533420000017,155.3856446000002,155.36956540000006,153.67566229999989,,,,,,,,1,0,1.4852712000001702,None,,,,,,,,894,20,V,R,2026-02-25_11h27.45.228,VisualSearch_2526_3,,2025.2.4,2026-02-25 11h27.45.430167 +0100,
tilted.xlsx,The target is tilted.,117,39,7,4,1,1,1,1,0,0,0,0,0,0,0,0,0,3,4,117,space,4.542502199999944,None,1,1,0.6544174000000567,None,space,2.377783299999919,None,0,0,0,0,,,,,4,7,39,2,155.3856446000002,,,,,,,,,,,,,,,,,,,,,155.37031890000003,155.3856446000002,155.8694922000002,155.8740467,155.88928199999987,156.55294260000005,,,,,156.5531486000002,156.56799539999997,156.76849629999992,156.7522021000002,155.88928199999987,,,,,,,,1,1,0.6544174000000567,None,,,,,,,,894,20,V,R,2026-02-25_11h27.45.228,VisualSearch_2526_3,,2025.2.4,2026-02-25 11h27.45.430167 +0100,
tilted.xlsx,The target is tilted.,117,40,0,5,1,0,0,0,0,0,0,0,0,0,0,0,0,0,1,117,space,4.542502199999944,None,1,1,0.695579700000053,None,space,2.377783299999919,None,0,0,0,0,,,,,5,0,40,3,156.76849629999992,,,,,,,,,,,,,,,,,,,,,156.7529588,156.76849629999992,157.2519574999999,157.25664819999997,157.27361410000026,157.98497659999998,,,,,157.98517460000016,158.00064640000005,158.20078200000012,158.1850867999999,157.27361410000026,,,,,,,,1,1,0.695579700000053,None,,,,,,,,894,20,V,R,2026-02-25_11h27.45.228,VisualSearch_2526_3,,2025.2.4,2026-02-25 11h27.45.430167 +0100,
tilted.xlsx,The target is tilted.,117,41,1,5,0,0,0,0,0,0,0,0,0,0,0,0,1,1,1,117,space,4.542502199999944,None,0,1,0.5990570999997544,None,space,2.377783299999919,None,0,0,0,0,,,,,5,1,41,7,158.20078200000012,,,,,,,,,,,,,,,,,,,,,158.18590749999998,158.20078200000012,158.6842051000001,158.6889461000003,158.70054510000023,159.30170539999995,,,,,159.30191089999994,159.31670989999998,159.5172715000001,159.50115140000003,158.70054510000023,,,,,,,,0,1,0.5990570999997544,None,,,,,,,,894,20,V,R,2026-02-25_11h27.45.228,VisualSearch_2526_3,,2025.2.4,2026-02-25 11h27.45.430167 +0100,
tilted.xlsx,The target is tilted.,117,42,2,5,0,1,1,1,0,0,0,0,0,0,0,0,1,3,4,117,space,4.542502199999944,None,0,1,1.5430037000000993,None,space,2.377783299999919,None,0,0,0,0,,,,,5,2,42,6,159.5172715000001,,,,,,,,,,,,,,,,,,,,,159.50186970000027,159.5172715000001,160.00083640000025,160.00537670000017,160.02109459999997,161.56735409999987,,,,,161.56756070000006,161.58237059999988,161.78284069999995,161.76678629999992,160.02109459999997,,,,,,,,0,1,1.5430037000000993,None,,,,,,,,894,20,V,R,2026-02-25_11h27.45.228,VisualSearch_2526_3,,2025.2.4,2026-02-25 11h27.45.430167 +0100,
tilted.xlsx,The target is tilted.,117,43,3,5,1,1,1,1,0,0,0,0,0,0,0,0,0,3,4,117,space,4.542502199999944,None,1,1,0.7612165999998979,None,space,2.377783299999919,None,0,0,0,0,,,,,5,3,43,2,161.78284069999995,,,,,,,,,,,,,,,,,,,,,161.7675084,161.78284069999995,162.2661284000003,162.27084820000005,162.28760380000017,163.06567569999993,,,,,163.06582679999997,163.08213360000013,163.28215550000027,163.26603050000017,162.28760380000017,,,,,,,,1,1,0.7612165999998979,None,,,,,,,,894,20,V,R,2026-02-25_11h27.45.228,VisualSearch_2526_3,,2025.2.4,2026-02-25 11h27.45.430167 +0100,
tilted.xlsx,The target is tilted.,117,44,4,5,1,1,1,1,1,1,1,1,0,0,0,0,0,7,8,117,space,4.542502199999944,None,1,1,1.3092825000003359,None,space,2.377783299999919,None,0,0,0,0,,,,,5,4,44,1,163.28215550000027,,,,,,,,,,,,,,,,,,,,,163.26675950000003,163.28215550000027,163.76588270000025,163.7705357000002,163.78693660000022,165.09871260000023,,,,,165.09885510000026,165.11406899999997,165.31448220000016,165.2983268999999,163.78693660000022,,,,,,,,1,1,1.3092825000003359,None,,,,,,,,894,20,V,R,2026-02-25_11h27.45.228,VisualSearch_2526_3,,2025.2.4,2026-02-25 11h27.45.430167 +0100,
tilted.xlsx,The target is tilted.,117,45,5,5,1,1,1,1,1,1,1,1,1,1,1,1,0,11,12,117,space,4.542502199999944,None,1,1,1.3109768000003896,None,space,2.377783299999919,None,0,0,0,0,,,,,5,5,45,0,165.31448220000016,,,,,,,,,,,,,,,,,,,,,165.29907620000017,165.31448220000016,165.7982801999999,165.8029337999999,165.81574710000018,167.13126799999986,,,,,167.1314705000002,167.14654649999989,167.3470061999999,167.3309243000001,165.81574710000018,,,,,,,,1,1,1.3109768000003896,None,,,,,,,,894,20,V,R,2026-02-25_11h27.45.228,VisualSearch_2526_3,,2025.2.4,2026-02-25 11h27.45.430167 +0100,
tilted.xlsx,The target is tilted.,117,46,6,5,0,1,1,1,1,1,1,1,0,0,0,0,1,7,8,117,space,4.542502199999944,None,0,1,1.8807151000000886,None,space,2.377783299999919,None,0,0,0,0,,,,,5,6,46,5,167.3470061999999,,,,,,,,,,,,,,,,,,,,,167.33164120000015,167.3470061999999,167.83030910000002,167.83490689999985,167.85118230000012,169.74617160000003,,,,,169.7463666000001,169.7619585,169.96241750000013,169.94637410000018,167.85118230000012,,,,,,,,0,1,1.8807151000000886,None,,,,,,,,894,20,V,R,2026-02-25_11h27.45.228,VisualSearch_2526_3,,2025.2.4,2026-02-25 11h27.45.430167 +0100,
tilted.xlsx,The target is tilted.,117,47,7,5,0,1,1,1,1,1,1,1,1,1,1,1,1,11,12,117,space,4.542502199999944,None,1,0,4.1028934000000845,None,space,2.377783299999919,None,0,0,0,0,,,,,5,7,47,4,169.96241750000013,,,,,,,,,,,,,,,,,,,,,169.9471031999999,169.96241750000013,170.4461262000002,170.45067050000011,170.46853510000005,174.57772929999987,,,,,174.57793670000024,174.59316319999994,174.7934944000001,174.77744710000002,170.46853510000005,,,,,,,,1,0,4.1028934000000845,None,,,,,,,,894,20,V,R,2026-02-25_11h27.45.228,VisualSearch_2526_3,,2025.2.4,2026-02-25 11h27.45.430167 +0100,
tilted.xlsx,The target is tilted.,117,48,0,6,0,1,1,1,0,0,0,0,0,0,0,0,1,3,4,117,space,4.542502199999944,None,0,1,1.112422499999866,None,space,2.377783299999919,None,0,0,0,0,,,,,6,0,48,6,174.7934944000001,,,,,,,,,,,,,,,,,,,,,174.77825370000005,174.7934944000001,175.2761496999999,175.27783470000008,175.29253010000025,176.41027420000023,,,,,176.4104831000002,176.42560449999996,176.62614700000017,176.60969649999993,175.29253010000025,,,,,,,,0,1,1.112422499999866,None,,,,,,,,894,20,V,R,2026-02-25_11h27.45.228,VisualSearch_2526_3,,2025.2.4,2026-02-25 11h27.45.430167 +0100,
tilted.xlsx,The target is tilted.,117,49,1,6,0,1,1,1,1,1,1,1,0,0,0,0,1,7,8,117,space,4.542502199999944,None,1,0,2.0989761000000726,None,space,2.377783299999919,None,0,0,0,0,,,,,6,1,49,5,176.62614700000017,,,,,,,,,,,,,,,,,,,,,176.61045609999996,176.62614700000017,177.10992779999992,177.11464219999993,177.13105380000002,179.24219879999987,,,,,179.2424185000002,179.25764529999992,179.4581326,179.4418594000001,177.13105380000002,,,,,,,,1,0,2.0989761000000726,None,,,,,,,,894,20,V,R,2026-02-25_11h27.45.228,VisualSearch_2526_3,,2025.2.4,2026-02-25 11h27.45.430167 +0100,
tilted.xlsx,The target is tilted.,117,50,2,6,1,1,1,1,0,0,0,0,0,0,0,0,0,3,4,117,space,4.542502199999944,None,1,1,0.8650881999997182,None,space,2.377783299999919,None,0,0,0,0,,,,,6,2,50,2,179.4581326,,,,,,,,,,,,,,,,,,,,,179.44261110000002,179.4581326,179.9414491,179.94603470000015,179.96401590000028,180.84126840000022,,,,,180.84148759999994,180.85678639999992,181.05745180000008,181.04120220000027,179.96401590000028,,,,,,,,1,1,0.8650881999997182,None,,,,,,,,894,20,V,R,2026-02-25_11h27.45.228,VisualSearch_2526_3,,2025.2.4,2026-02-25 11h27.45.430167 +0100,
tilted.xlsx,The target is tilted.,117,51,3,6,1,0,0,0,0,0,0,0,0,0,0,0,0,0,1,117,space,4.542502199999944,None,1,1,0.6240672999997514,None,space,2.377783299999919,None,0,0,0,0,,,,,6,3,51,3,181.05745180000008,,,,,,,,,,,,,,,,,,,,,181.0419875,181.05745180000008,181.5411145999999,181.54563299999995,181.5628162999999,182.19113459999994,,,,,182.1914478000001,182.2063052000001,182.40677440000013,182.39033660000018,181.5628162999999,,,,,,,,1,1,0.6240672999997514,None,,,,,,,,894,20,V,R,2026-02-25_11h27.45.228,VisualSearch_2526_3,,2025.2.4,2026-02-25 11h27.45.430167 +0100,
tilted.xlsx,The target is tilted.,117,52,4,6,1,1,1,1,1,1,1,1,1,1,1,1,0,11,12,117,space,4.542502199999944,None,1,1,2.9941893999998683,None,space,2.377783299999919,None,0,0,0,0,,,,,6,4,52,0,182.40677440000013,,,,,,,,,,,,,,,,,,,,,182.3910873000002,182.40677440000013,182.89016079999988,182.89477520000014,182.91118329999995,185.92165420000015,,,,,185.92176600000016,185.93803550000007,,186.12193899999988,182.91118329999995,,,,,,,,1,1,2.9941893999998683,None,,,,,,,,894,20,V,R,2026-02-25_11h27.45.228,VisualSearch_2526_3,,2025.2.4,2026-02-25 11h27.45.430167 +0100,
tilted.xlsx,The target is tilted.,117,53,5,6,0,1,1,1,1,1,1,1,1,1,1,1,1,11,12,117,space,4.542502199999944,None,0,1,2.4491533000000345,None,space,2.377783299999919,None,0,0,0,0,,,,,6,5,53,4,186.13848100000018,,,,,,,,,,,,,,,,,,,,,186.12273019999998,186.13848100000018,186.62179500000025,186.62649910000005,186.64188020000006,189.10420950000002,,,,,189.10445189999996,189.11983729999997,189.32023330000015,189.30419600000027,186.64188020000006,,,,,,,,0,1,2.4491533000000345,None,,,,,,,,894,20,V,R,2026-02-25_11h27.45.228,VisualSearch_2526_3,,2025.2.4,2026-02-25 11h27.45.430167 +0100,
tilted.xlsx,The target is tilted.,117,54,6,6,1,1,1,1,1,1,1,1,0,0,0,0,0,7,8,117,space,4.542502199999944,None,1,1,1.813977999999679,None,space,2.377783299999919,None,0,0,0,0,,,,,6,6,54,1,189.32023330000015,,,,,,,,,,,,,,,,,,,,,189.3049166000003,189.32023330000015,189.8040381000003,189.80880120000006,189.82592360000012,191.65309460000003,,,,,191.65331870000023,191.6686769999999,191.86901590000002,191.85288259999993,189.82592360000012,,,,,,,,1,1,1.813977999999679,None,,,,,,,,894,20,V,R,2026-02-25_11h27.45.228,VisualSearch_2526_3,,2025.2.4,2026-02-25 11h27.45.430167 +0100,
tilted.xlsx,The target is tilted.,117,55,7,6,0,0,0,0,0,0,0,0,0,0,0,0,1,1,1,117,space,4.542502199999944,None,0,1,0.8441262000001188,None,space,2.377783299999919,None,0,0,0,0,,,,,6,7,55,7,191.86901590000002,,,,,,,,,,,,,,,,,,,,,191.85363900000016,191.86901590000002,192.35276219999992,192.35740650000002,192.3738937999999,193.2195174000001,,,,,193.21971469999994,193.2345671999999,193.4351782000001,193.41900340000007,192.3738937999999,,,,,,,,0,1,0.8441262000001188,None,,,,,,,,894,20,V,R,2026-02-25_11h27.45.228,VisualSearch_2526_3,,2025.2.4,2026-02-25 11h27.45.430167 +0100,
tilted.xlsx,The target is tilted.,117,56,0,7,0,1,1,1,1,1,1,1,0,0,0,0,1,7,8,117,space,4.542502199999944,None,0,1,5.0988281999998435,None,space,2.377783299999919,None,0,0,0,0,,,,,7,0,56,5,193.4351782000001,,,,,,,,,,,,,,,,,,,,,193.41974330000016,193.4351782000001,193.91877520000003,193.92330770000012,193.94018870000014,199.05033359999993,,,,,199.05053870000006,199.06538250000017,199.26581090000013,199.2496434000002,193.94018870000014,,,,,,,,0,1,5.0988281999998435,None,,,,,,,,894,20,V,R,2026-02-25_11h27.45.228,VisualSearch_2526_3,,2025.2.4,2026-02-25 11h27.45.430167 +0100,
tilted.xlsx,The target is tilted.,117,57,1,7,0,0,0,0,0,0,0,0,0,0,0,0,1,1,1,117,space,4.542502199999944,None,0,1,0.5430406000000403,None,space,2.377783299999919,None,0,0,0,0,,,,,7,1,57,7,199.26581090000013,,,,,,,,,,,,,,,,,,,,,199.25037540000017,199.26581090000013,199.7495174000003,199.75432690000002,199.77072900000007,200.31569969999987,,,,,200.31591660000026,200.33140609999987,200.53153769999994,200.5157144000002,199.77072900000007,,,,,,,,0,1,0.5430406000000403,None,,,,,,,,894,20,V,R,2026-02-25_11h27.45.228,VisualSearch_2526_3,,2025.2.4,2026-02-25 11h27.45.430167 +0100,
tilted.xlsx,The target is tilted.,117,58,2,7,0,1,1,1,0,0,0,0,0,0,0,0,1,3,4,117,space,4.542502199999944,None,0,1,1.7926108999999997,None,space,2.377783299999919,None,0,0,0,0,,,,,7,2,58,6,200.53153769999994,,,,,,,,,,,,,,,,,,,,,200.51653640000018,200.53153769999994,201.01557609999986,201.0201365999999,201.03699269999993,202.8318173,,,,,202.8320252000001,202.84699729999988,203.04747120000025,203.03113899999994,201.03699269999993,,,,,,,,0,1,1.7926108999999997,None,,,,,,,,894,20,V,R,2026-02-25_11h27.45.228,VisualSearch_2526_3,,2025.2.4,2026-02-25 11h27.45.430167 +0100,
tilted.xlsx,The target is tilted.,117,59,3,7,0,1,1,1,1,1,1,1,1,1,1,1,1,11,12,117,space,4.542502199999944,None,0,1,4.079574699999739,None,space,2.377783299999919,None,0,0,0,0,,,,,7,3,59,4,203.04747120000025,,,,,,,,,,,,,,,,,,,,,203.031886,203.04747120000025,203.5304821000002,203.53213000000028,203.54697180000016,207.6297849,,,,,207.6299904,207.64481090000004,207.8452660999999,207.82916750000027,203.54697180000016,,,,,,,,0,1,4.079574699999739,None,,,,,,,,894,20,V,R,2026-02-25_11h27.45.228,VisualSearch_2526_3,,2025.2.4,2026-02-25 11h27.45.430167 +0100,
tilted.xlsx,The target is tilted.,117,60,4,7,1,1,1,1,1,1,1,1,0,0,0,0,0,7,8,117,space,4.542502199999944,None,1,1,1.2210915999999088,None,space,2.377783299999919,None,0,0,0,0,,,,,7,4,60,1,207.8452660999999,,,,,,,,,,,,,,,,,,,,,207.82988839999985,207.8452660999999,208.32893160000026,208.33345500000019,208.34992910000005,209.57817060000002,,,,,209.57827930000008,209.59369200000015,209.79439789999992,209.7782866,208.34992910000005,,,,,,,,1,1,1.2210915999999088,None,,,,,,,,894,20,V,R,2026-02-25_11h27.45.228,VisualSearch_2526_3,,2025.2.4,2026-02-25 11h27.45.430167 +0100,
tilted.xlsx,The target is tilted.,117,61,5,7,1,0,0,0,0,0,0,0,0,0,0,0,0,0,1,117,space,4.542502199999944,None,1,1,0.6054805000003398,None,space,2.377783299999919,None,0,0,0,0,,,,,7,5,61,3,209.79439789999992,,,,,,,,,,,,,,,,,,,,,209.77901780000025,209.79439789999992,210.27787590000003,210.2834461,210.2997726000001,210.91148450000014,,,,,210.91166799999996,210.92663890000017,211.12703910000005,211.11063639999998,210.2997726000001,,,,,,,,1,1,0.6054805000003398,None,,,,,,,,894,20,V,R,2026-02-25_11h27.45.228,VisualSearch_2526_3,,2025.2.4,2026-02-25 11h27.45.430167 +0100,
tilted.xlsx,The target is tilted.,117,62,6,7,1,1,1,1,1,1,1,1,1,1,1,1,0,11,12,117,space,4.542502199999944,None,0,0,3.7888261999996757,None,space,2.377783299999919,None,0,0,0,0,,,,,7,6,62,0,211.12703910000005,,,,,,,,,,,,,,,,,,,,,211.1113544000002,211.12703910000005,211.61088670000004,211.61552189999998,211.63192559999993,215.42589520000024,,,,,215.42610190000028,215.44125180000015,215.64158939999993,215.62520370000016,211.63192559999993,,,,,,,,0,0,3.7888261999996757,None,,,,,,,,894,20,V,R,2026-02-25_11h27.45.228,VisualSearch_2526_3,,2025.2.4,2026-02-25 11h27.45.430167 +0100,
tilted.xlsx,The target is tilted.,117,63,7,7,1,1,1,1,0,0,0,0,0,0,0,0,0,3,4,117,space,4.542502199999944,None,1,1,1.0713184000001092,None,space,2.377783299999919,None,0,0,0,0,,,,,7,7,63,2,215.64158939999993,,,,,,,,,,,,,,,,,,,,,215.62597160000018,215.64158939999993,216.12502719999998,216.1296046,216.14487590000022,217.2254330000003,,,,,217.22563710000009,217.24043910000023,217.44070250000027,217.42434830000025,216.14487590000022,,,,,,,,1,1,1.0713184000001092,None,,,,,,,,894,20,V,R,2026-02-25_11h27.45.228,VisualSearch_2526_3,,2025.2.4,2026-02-25 11h27.45.430167 +0100,
tilted.xlsx,The target is tilted.,117,64,0,8,0,1,1,1,1,1,1,1,1,1,1,1,1,11,12,117,space,4.542502199999944,None,0,1,3.870401000000129,None,space,2.377783299999919,None,0,0,0,0,,,,,8,0,64,4,217.44070250000027,,,,,,,,,,,,,,,,,,,,,217.42511949999994,217.44070250000027,217.92450699999995,217.9290638,217.94408739999994,221.8232805,,,,,221.82348449999995,221.83832259999986,222.03884140000014,222.0224912000001,217.94408739999994,,,,,,,,0,1,3.870401000000129,None,,,,,,,,894,20,V,R,2026-02-25_11h27.45.228,VisualSearch_2526_3,,2025.2.4,2026-02-25 11h27.45.430167 +0100,
tilted.xlsx,The target is tilted.,117,65,1,8,0,0,0,0,0,0,0,0,0,0,0,0,1,1,1,117,space,4.542502199999944,None,0,1,0.5594155999997383,None,space,2.377783299999919,None,0,0,0,0,,,,,8,1,65,7,222.03884140000014,,,,,,,,,,,,,,,,,,,,,222.0232278000001,222.03884140000014,222.52234629999998,222.52707470000018,222.54316210000002,223.10586639999997,,,,,223.1060703999999,223.12108220000005,223.3213892000001,223.3054727000001,222.54316210000002,,,,,,,,0,1,0.5594155999997383,None,,,,,,,,894,20,V,R,2026-02-25_11h27.45.228,VisualSearch_2526_3,,2025.2.4,2026-02-25 11h27.45.430167 +0100,
tilted.xlsx,The target is tilted.,117,66,2,8,0,1,1,1,0,0,0,0,0,0,0,0,1,3,4,117,space,4.542502199999944,None,0,1,1.3415265999997246,None,space,2.377783299999919,None,0,0,0,0,,,,,8,2,66,6,223.3213892000001,,,,,,,,,,,,,,,,,,,,,223.30619030000003,223.3213892000001,223.80471980000016,223.80929530000026,223.82430360000012,225.17122270000004,,,,,225.17138649999993,225.18685040000014,225.3873117999999,225.37120440000012,223.82430360000012,,,,,,,,0,1,1.3415265999997246,None,,,,,,,,894,20,V,R,2026-02-25_11h27.45.228,VisualSearch_2526_3,,2025.2.4,2026-02-25 11h27.45.430167 +0100,
tilted.xlsx,The target is tilted.,117,67,3,8,1,1,1,1,1,1,1,1,1,1,1,1,0,11,12,117,space,4.542502199999944,None,1,1,2.3150920999996742,None,space,2.377783299999919,None,0,0,0,0,,,,,8,3,67,0,225.3873117999999,,,,,,,,,,,,,,,,,,,,,225.3719324000001,225.3873117999999,225.87100759999998,225.87555559999987,225.8888227,228.21977130000028,,,,,228.2200049999999,228.23538919999987,228.43590789999985,228.41983830000004,225.8888227,,,,,,,,1,1,2.3150920999996742,None,,,,,,,,894,20,V,R,2026-02-25_11h27.45.228,VisualSearch_2526_3,,2025.2.4,2026-02-25 11h27.45.430167 +0100,
tilted.xlsx,The target is tilted.,117,68,4,8,1,1,1,1,1,1,1,1,0,0,0,0,0,7,8,117,space,4.542502199999944,None,1,1,2.7887283000000025,None,space,2.377783299999919,None,0,0,0,0,,,,,8,4,68,1,228.43590789999985,,,,,,,,,,,,,,,,,,,,,228.42058100000008,228.43590789999985,228.91907960000003,228.92364049999992,228.93927850000023,231.73544300000026,,,,,231.7356483000001,231.75048390000006,231.95091019999995,231.93450400000006,228.93927850000023,,,,,,,,1,1,2.7887283000000025,None,,,,,,,,894,20,V,R,2026-02-25_11h27.45.228,VisualSearch_2526_3,,2025.2.4,2026-02-25 11h27.45.430167 +0100,
tilted.xlsx,The target is tilted.,117,69,5,8,1,1,1,1,0,0,0,0,0,0,0,0,0,3,4,117,space,4.542502199999944,None,1,1,1.1934074999999211,None,space,2.377783299999919,None,0,0,0,0,,,,,8,5,69,2,231.95091019999995,,,,,,,,,,,,,,,,,,,,,231.9352561000003,231.95091019999995,232.43454529999985,232.43924249999986,232.4543744,233.65100319999988,,,,,233.65119879999997,233.66631540000003,233.86674760000028,233.85024640000006,232.4543744,,,,,,,,1,1,1.1934074999999211,None,,,,,,,,894,20,V,R,2026-02-25_11h27.45.228,VisualSearch_2526_3,,2025.2.4,2026-02-25 11h27.45.430167 +0100,
tilted.xlsx,The target is tilted.,117,70,6,8,0,1,1,1,1,1,1,1,0,0,0,0,1,7,8,117,space,4.542502199999944,None,1,0,2.8941015000000334,None,space,2.377783299999919,None,0,0,0,0,,,,,8,6,70,5,233.86674760000028,,,,,,,,,,,,,,,,,,,,,233.85099700000023,233.86674760000028,234.35050400000023,234.3553142000003,234.37178370000015,237.28155979999997,,,,,237.2816564000002,237.2983084,,237.48196870000015,234.37178370000015,,,,,,,,1,0,2.8941015000000334,None,,,,,,,,894,20,V,R,2026-02-25_11h27.45.228,VisualSearch_2526_3,,2025.2.4,2026-02-25 11h27.45.430167 +0100,
tilted.xlsx,The target is tilted.,117,71,7,8,1,0,0,0,0,0,0,0,0,0,0,0,0,0,1,117,space,4.542502199999944,None,1,1,0.6540113999999448,None,space,2.377783299999919,None,0,0,0,0,,,,,8,7,71,3,237.49848840000027,,,,,,,,,,,,,,,,,,,,,237.4827428000001,237.49848840000027,237.98170510000023,237.98626739999986,238.002608,238.66538800000012,,,,,238.66556700000024,238.6806941000002,238.88100439999994,238.8647558,238.002608,,,,,,,,1,1,0.6540113999999448,None,,,,,,,,894,20,V,R,2026-02-25_11h27.45.228,VisualSearch_2526_3,,2025.2.4,2026-02-25 11h27.45.430167 +0100,
tilted.xlsx,The target is tilted.,117,72,0,9,1,1,1,1,1,1,1,1,1,1,1,1,0,11,12,117,space,4.542502199999944,None,1,1,1.433789700000034,None,space,2.377783299999919,None,0,0,0,0,,,,,9,0,72,0,238.88100439999994,,,,,,,,,,,,,,,,,,,,,238.86546599999997,238.88100439999994,239.36474220000014,239.3693399000001,239.38045179999995,240.8301730999999,,,,,240.83030320000012,240.84687689999987,241.04645540000024,241.0305810000002,239.38045179999995,,,,,,,,1,1,1.433789700000034,None,,,,,,,,894,20,V,R,2026-02-25_11h27.45.228,VisualSearch_2526_3,,2025.2.4,2026-02-25 11h27.45.430167 +0100,
tilted.xlsx,The target is tilted.,117,73,1,9,0,1,1,1,1,1,1,1,1,1,1,1,1,11,12,117,space,4.542502199999944,None,0,1,3.8076528000001417,None,space,2.377783299999919,None,0,0,0,0,,,,,9,1,73,4,241.04645540000024,,,,,,,,,,,,,,,,,,,,,241.03134939999995,241.04645540000024,241.53033519999985,241.53484030000004,241.54918789999988,245.36242879999986,,,,,245.36260879999986,245.3775702999999,245.57812130000025,245.56161140000017,241.54918789999988,,,,,,,,0,1,3.8076528000001417,None,,,,,,,,894,20,V,R,2026-02-25_11h27.45.228,VisualSearch_2526_3,,2025.2.4,2026-02-25 11h27.45.430167 +0100,
tilted.xlsx,The target is tilted.,117,74,2,9,1,1,1,1,1,1,1,1,0,0,0,0,0,7,8,117,space,4.542502199999944,None,1,1,2.1227466000000277,None,space,2.377783299999919,None,0,0,0,0,,,,,9,2,74,1,245.57812130000025,,,,,,,,,,,,,,,,,,,,,245.56221840000012,245.57812130000025,246.0613823000001,246.06594719999998,246.0821908999999,248.21112760000028,,,,,248.2113237000001,248.22632240000007,248.42678820000015,248.4105406000001,246.0821908999999,,,,,,,,1,1,2.1227466000000277,None,,,,,,,,894,20,V,R,2026-02-25_11h27.45.228,VisualSearch_2526_3,,2025.2.4,2026-02-25 11h27.45.430167 +0100,
tilted.xlsx,The target is tilted.,117,75,3,9,0,0,0,0,0,0,0,0,0,0,0,0,1,1,1,117,space,4.542502199999944,None,0,1,0.5984088000000156,None,space,2.377783299999919,None,0,0,0,0,,,,,9,3,75,7,248.42678820000015,,,,,,,,,,,,,,,,,,,,,248.4112831,248.42678820000015,248.9103504000002,248.91488700000014,248.93134380000015,249.5433977,,,,,249.5436274000001,249.55899120000026,249.75941829999988,249.74291990000006,248.93134380000015,,,,,,,,0,1,0.5984088000000156,None,,,,,,,,894,20,V,R,2026-02-25_11h27.45.228,VisualSearch_2526_3,,2025.2.4,2026-02-25 11h27.45.430167 +0100,
tilted.xlsx,The target is tilted.,117,76,4,9,0,1,1,1,0,0,0,0,0,0,0,0,1,3,4,117,space,4.542502199999944,None,0,1,1.3010326999997233,None,space,2.377783299999919,None,0,0,0,0,,,,,9,4,76,6,249.75941829999988,,,,,,,,,,,,,,,,,,,,,249.74364900000023,249.75941829999988,250.24311880000027,250.24764410000012,250.2633441999999,251.57651370000008,,,,,251.5767097999999,251.5914647000002,251.79190690000019,251.77571620000003,250.2633441999999,,,,,,,,0,1,1.3010326999997233,None,,,,,,,,894,20,V,R,2026-02-25_11h27.45.228,VisualSearch_2526_3,,2025.2.4,2026-02-25 11h27.45.430167 +0100,
tilted.xlsx,The target is tilted.,117,77,5,9,1,1,1,1,0,0,0,0,0,0,0,0,0,3,4,117,space,4.542502199999944,None,1,1,0.9091198999999506,None,space,2.377783299999919,None,0,0,0,0,,,,,9,5,77,2,251.79190690000019,,,,,,,,,,,,,,,,,,,,,251.77655879999998,251.79190690000019,252.27551479999988,252.2800281000002,252.29682500000013,253.2091754999999,,,,,253.20938630000023,253.22407240000007,253.42413880000026,253.40806959999986,252.29682500000013,,,,,,,,1,1,0.9091198999999506,None,,,,,,,,894,20,V,R,2026-02-25_11h27.45.228,VisualSearch_2526_3,,2025.2.4,2026-02-25 11h27.45.430167 +0100,
tilted.xlsx,The target is tilted.,117,78,6,9,0,1,1,1,1,1,1,1,0,0,0,0,1,7,8,117,space,4.542502199999944,None,0,1,2.7576914999999644,None,space,2.377783299999919,None,0,0,0,0,,,,,9,6,78,5,253.42413880000026,,,,,,,,,,,,,,,,,,,,,253.4087906000002,253.42413880000026,253.90810440000018,253.91268839999998,253.92783160000022,256.6907017000001,,,,,256.6909137,256.70584299999996,256.9062368000002,256.8901997999999,253.92783160000022,,,,,,,,0,1,2.7576914999999644,None,,,,,,,,894,20,V,R,2026-02-25_11h27.45.228,VisualSearch_2526_3,,2025.2.4,2026-02-25 11h27.45.430167 +0100,
tilted.xlsx,The target is tilted.,117,79,7,9,1,0,0,0,0,0,0,0,0,0,0,0,0,0,1,117,space,4.542502199999944,None,1,1,0.606208499999866,None,space,2.377783299999919,None,0,0,0,0,,,,,9,7,79,3,256.9062368000002,,,,,,,,,,,,,,,,,,,,,256.8909163999999,256.9062368000002,257.3899503,257.39445720000026,257.4097930999999,258.0235312000002,,,,,258.0237288000001,258.03854239999987,258.2389891999999,258.2227260000002,257.4097930999999,,,,,,,,1,1,0.606208499999866,None,,,,,,,,894,20,V,R,2026-02-25_11h27.45.228,VisualSearch_2526_3,,2025.2.4,2026-02-25 11h27.45.430167 +0100,
tilted.xlsx,The target is tilted.,117,80,0,10,1,1,1,1,0,0,0,0,0,0,0,0,0,3,4,117,space,4.542502199999944,None,1,1,0.7846403000003193,None,space,2.377783299999919,None,0,0,0,0,,,,,10,0,80,2,258.2389891999999,,,,,,,,,,,,,,,,,,,,,258.2234826000001,258.2389891999999,258.7227110000001,258.7272469000002,258.74483320000013,259.5395406,,,,,259.5397418,259.5545179000003,259.7549497000002,259.73883880000017,258.74483320000013,,,,,,,,1,1,0.7846403000003193,None,,,,,,,,894,20,V,R,2026-02-25_11h27.45.228,VisualSearch_2526_3,,2025.2.4,2026-02-25 11h27.45.430167 +0100,
tilted.xlsx,The target is tilted.,117,81,1,10,0,0,0,0,0,0,0,0,0,0,0,0,1,1,1,117,space,4.542502199999944,None,0,1,0.8321729999997842,None,space,2.377783299999919,None,0,0,0,0,,,,,10,1,81,7,259.7549497000002,,,,,,,,,,,,,,,,,,,,,259.7395558999999,259.7549497000002,260.2386899999999,260.2431717000002,260.2589682,261.1048469,,,,,261.1050710000002,261.1204359999999,261.32069220000017,261.30468270000006,260.2589682,,,,,,,,0,1,0.8321729999997842,None,,,,,,,,894,20,V,R,2026-02-25_11h27.45.228,VisualSearch_2526_3,,2025.2.4,2026-02-25 11h27.45.430167 +0100,
tilted.xlsx,The target is tilted.,117,82,2,10,1,1,1,1,1,1,1,1,0,0,0,0,0,7,8,117,space,4.542502199999944,None,1,1,1.7736424999998235,None,space,2.377783299999919,None,0,0,0,0,,,,,10,2,82,1,261.32069220000017,,,,,,,,,,,,,,,,,,,,,261.3054614,261.32069220000017,261.8045364000002,261.8091538000001,261.82444980000014,263.60434610000016,,,,,263.60506910000026,263.61936900000023,263.81982870000024,263.80373140000006,261.82444980000014,,,,,,,,1,1,1.7736424999998235,None,,,,,,,,894,20,V,R,2026-02-25_11h27.45.228,VisualSearch_2526_3,,2025.2.4,2026-02-25 11h27.45.430167 +0100,
tilted.xlsx,The target is tilted.,117,83,3,10,1,1,1,1,1,1,1,1,1,1,1,1,0,11,12,117,space,4.542502199999944,None,1,1,2.1837608000000728,None,space,2.377783299999919,None,0,0,0,0,,,,,10,3,83,0,263.81982870000024,,,,,,,,,,,,,,,,,,,,,263.80445540000005,263.81982870000024,264.30346780000013,264.3079613000002,264.32351889999995,266.5197049000001,,,,,266.5199161000003,266.5346256999999,266.7346878000001,266.7189636999999,264.32351889999995,,,,,,,,1,1,2.1837608000000728,None,,,,,,,,894,20,V,R,2026-02-25_11h27.45.228,VisualSearch_2526_3,,2025.2.4,2026-02-25 11h27.45.430167 +0100,
tilted.xlsx,The target is tilted.,117,84,4,10,0,1,1,1,1,1,1,1,1,1,1,1,1,11,12,117,space,4.542502199999944,None,0,1,2.6562536000001273,None,space,2.377783299999919,None,0,0,0,0,,,,,10,4,84,4,266.7346878000001,,,,,,,,,,,,,,,,,,,,,266.71970780000015,266.7346878000001,267.2187839999999,267.22326150000004,267.2398375,269.9014924999999,,,,,269.9016975000002,269.91691890000016,270.11679200000003,270.10095000000024,267.2398375,,,,,,,,0,1,2.6562536000001273,None,,,,,,,,894,20,V,R,2026-02-25_11h27.45.228,VisualSearch_2526_3,,2025.2.4,2026-02-25 11h27.45.430167 +0100,
tilted.xlsx,The target is tilted.,117,85,5,10,1,0,0,0,0,0,0,0,0,0,0,0,0,0,1,117,space,4.542502199999944,None,1,1,0.6934195999997428,None,space,2.377783299999919,None,0,0,0,0,,,,,10,5,85,3,270.11679200000003,,,,,,,,,,,,,,,,,,,,,270.1016913000001,270.11679200000003,270.60063160000004,270.60517129999994,270.62093900000013,271.31744349999985,,,,,271.31762030000004,271.33292670000014,271.5328228999999,271.51662409999994,270.62093900000013,,,,,,,,1,1,0.6934195999997428,None,,,,,,,,894,20,V,R,2026-02-25_11h27.45.228,VisualSearch_2526_3,,2025.2.4,2026-02-25 11h27.45.430167 +0100,
tilted.xlsx,The target is tilted.,117,86,6,10,0,1,1,1,0,0,0,0,0,0,0,0,1,3,4,117,space,4.542502199999944,None,0,1,1.2103678000003129,None,space,2.377783299999919,None,0,0,0,0,,,,,10,6,86,6,271.5328228999999,,,,,,,,,,,,,,,,,,,,,271.5173456,271.5328228999999,272.0166759000001,272.0212661000003,272.0325759,273.2498578000002,,,,,273.2500514999999,273.2653651000003,273.4653879,273.4491393999999,272.0325759,,,,,,,,0,1,1.2103678000003129,None,,,,,,,,894,20,V,R,2026-02-25_11h27.45.228,VisualSearch_2526_3,,2025.2.4,2026-02-25 11h27.45.430167 +0100,
tilted.xlsx,The target is tilted.,117,87,7,10,0,1,1,1,1,1,1,1,0,0,0,0,1,7,8,117,space,4.542502199999944,None,0,1,2.344930100000056,None,space,2.377783299999919,None,0,0,0,0,,,,,10,7,87,5,273.4653879,,,,,,,,,,,,,,,,,,,,,273.44987700000024,273.4653879,273.9490254,273.95354840000005,273.9702405999999,276.33181450000006,,,,,276.3320117999999,276.3473569999999,276.54738440000006,276.53106920000005,273.9702405999999,,,,,,,,0,1,2.344930100000056,None,,,,,,,,894,20,V,R,2026-02-25_11h27.45.228,VisualSearch_2526_3,,2025.2.4,2026-02-25 11h27.45.430167 +0100,
tilted.xlsx,The target is tilted.,117,88,0,11,1,0,0,0,0,0,0,0,0,0,0,0,0,0,1,117,space,4.542502199999944,None,1,1,0.5744856999999683,None,space,2.377783299999919,None,0,0,0,0,,,,,11,0,88,3,276.54738440000006,,,,,,,,,,,,,,,,,,,,,276.5318116000001,276.54738440000006,277.03102220000005,277.0355532000001,277.05337829999985,277.6310559000001,,,,,277.6312531000001,277.64677140000026,277.84633540000027,277.83045160000006,277.05337829999985,,,,,,,,1,1,0.5744856999999683,None,,,,,,,,894,20,V,R,2026-02-25_11h27.45.228,VisualSearch_2526_3,,2025.2.4,2026-02-25 11h27.45.430167 +0100,
tilted.xlsx,The target is tilted.,117,89,1,11,1,1,1,1,0,0,0,0,0,0,0,0,0,3,4,117,space,4.542502199999944,None,1,1,0.821876599999996,None,space,2.377783299999919,None,0,0,0,0,,,,,11,1,89,2,277.84633540000027,,,,,,,,,,,,,,,,,,,,,277.83117700000025,277.84633540000027,278.33043109999994,278.3348957999999,278.3463743,279.1798661999999,,,,,279.17994729999987,279.1956977000002,279.3960499000002,279.38001800000006,278.3463743,,,,,,,,1,1,0.821876599999996,None,,,,,,,,894,20,V,R,2026-02-25_11h27.45.228,VisualSearch_2526_3,,2025.2.4,2026-02-25 11h27.45.430167 +0100,
tilted.xlsx,The target is tilted.,117,90,2,11,0,1,1,1,0,0,0,0,0,0,0,0,1,3,4,117,space,4.542502199999944,None,0,1,0.9781044999999722,None,space,2.377783299999919,None,0,0,0,0,,,,,11,2,90,6,279.3960499000002,,,,,,,,,,,,,,,,,,,,,279.38073099999997,279.3960499000002,279.87976060000005,279.8842768000002,279.90208910000024,280.89639060000013,,,,,280.89659030000007,280.9119346,281.11183940000024,281.0953409000001,279.90208910000024,,,,,,,,0,1,0.9781044999999722,None,,,,,,,,894,20,V,R,2026-02-25_11h27.45.228,VisualSearch_2526_3,,2025.2.4,2026-02-25 11h27.45.430167 +0100,
tilted.xlsx,The target is tilted.,117,91,3,11,0,1,1,1,1,1,1,1,0,0,0,0,1,7,8,117,space,4.542502199999944,None,1,0,1.2466110999998818,None,space,2.377783299999919,None,0,0,0,0,,,,,11,3,91,5,281.11183940000024,,,,,,,,,,,,,,,,,,,,,281.09616900000015,281.11183940000024,281.59539800000016,281.59992290000014,281.6147807,282.8785375,,,,,282.87873730000024,282.89436439999986,283.0939000000001,283.07819159999985,281.6147807,,,,,,,,1,0,1.2466110999998818,None,,,,,,,,894,20,V,R,2026-02-25_11h27.45.228,VisualSearch_2526_3,,2025.2.4,2026-02-25 11h27.45.430167 +0100,
tilted.xlsx,The target is tilted.,117,92,4,11,1,1,1,1,1,1,1,1,0,0,0,0,0,7,8,117,space,4.542502199999944,None,1,1,0.6584093999999823,None,space,2.377783299999919,None,0,0,0,0,,,,,11,4,92,1,283.0939000000001,,,,,,,,,,,,,,,,,,,,,283.07898009999985,283.0939000000001,283.5780706000003,283.58321880000017,283.59811049999985,284.2612326000001,,,,,284.2614289999999,284.2769876,284.47712430000024,284.4609889999999,283.59811049999985,,,,,,,,1,1,0.6584093999999823,None,,,,,,,,894,20,V,R,2026-02-25_11h27.45.228,VisualSearch_2526_3,,2025.2.4,2026-02-25 11h27.45.430167 +0100,
tilted.xlsx,The target is tilted.,117,93,5,11,0,0,0,0,0,0,0,0,0,0,0,0,1,1,1,117,space,4.542502199999944,None,0,1,0.4995444999999563,None,space,2.377783299999919,None,0,0,0,0,,,,,11,5,93,7,284.47712430000024,,,,,,,,,,,,,,,,,,,,,284.46172330000013,284.47712430000024,284.96079480000003,284.96525480000014,284.9830419000002,285.4943289999999,,,,,285.49452640000004,285.5097811000003,285.70993139999996,285.6937091000002,284.9830419000002,,,,,,,,0,1,0.4995444999999563,None,,,,,,,,894,20,V,R,2026-02-25_11h27.45.228,VisualSearch_2526_3,,2025.2.4,2026-02-25 11h27.45.430167 +0100,
tilted.xlsx,The target is tilted.,117,94,6,11,1,1,1,1,1,1,1,1,1,1,1,1,0,11,12,117,space,4.542502199999944,None,1,1,0.9353008000002774,None,space,2.377783299999919,None,0,0,0,0,,,,,11,6,94,0,285.70993139999996,,,,,,,,,,,,,,,,,,,,,285.69461049999995,285.70993139999996,286.1934705000001,286.19809340000006,286.2129892999999,287.1602215999999,,,,,287.1604195000002,287.1753968999999,287.37575889999994,287.35962619999987,286.2129892999999,,,,,,,,1,1,0.9353008000002774,None,,,,,,,,894,20,V,R,2026-02-25_11h27.45.228,VisualSearch_2526_3,,2025.2.4,2026-02-25 11h27.45.430167 +0100,
tilted.xlsx,The target is tilted.,117,95,7,11,0,1,1,1,1,1,1,1,1,1,1,1,1,11,12,117,space,4.542502199999944,None,0,1,3.425476599999911,None,space,2.377783299999919,None,0,0,0,0,,,,,11,7,95,4,287.37575889999994,,,,,,,,,,,,,,,,,,,,,287.3603410000003,287.37575889999994,287.8594421,287.8639389000002,287.87912960000017,291.30737010000007,,,,,291.30747320000023,291.3234794000002,291.52384940000024,291.5077988999999,287.87912960000017,,,,,,,,0,1,3.425476599999911,None,,,,,,,,894,20,V,R,2026-02-25_11h27.45.228,VisualSearch_2526_3,,2025.2.4,2026-02-25 11h27.45.430167 +0100,
tilted.xlsx,The target is tilted.,117,96,0,12,1,0,0,0,0,0,0,0,0,0,0,0,0,0,1,117,space,4.542502199999944,None,1,1,0.5671273000002657,None,space,2.377783299999919,None,0,0,0,0,,,,,12,0,96,3,291.52384940000024,,,,,,,,,,,,,,,,,,,,,291.5086447000001,291.52384940000024,292.0074897000002,292.01200140000014,292.02942259999986,292.6078113000001,,,,,292.60801270000024,292.62327530000016,292.8232633,292.8071299999999,292.02942259999986,,,,,,,,1,1,0.5671273000002657,None,,,,,,,,894,20,V,R,2026-02-25_11h27.45.228,VisualSearch_2526_3,,2025.2.4,2026-02-25 11h27.45.430167 +0100,
tilted.xlsx,The target is tilted.,117,97,1,12,1,1,1,1,1,1,1,1,0,0,0,0,0,7,8,117,space,4.542502199999944,None,1,1,2.0081288000001223,None,space,2.377783299999919,None,0,0,0,0,,,,,12,1,97,1,292.8232633,,,,,,,,,,,,,,,,,,,,,292.8078476000003,292.8232633,293.3065828000001,293.3111273000002,293.3272738000003,295.3389552000001,,,,,295.3390864999999,295.35535559999994,295.555396,295.5391753000001,293.3272738000003,,,,,,,,1,1,2.0081288000001223,None,,,,,,,,894,20,V,R,2026-02-25_11h27.45.228,VisualSearch_2526_3,,2025.2.4,2026-02-25 11h27.45.430167 +0100,
tilted.xlsx,The target is tilted.,117,98,2,12,1,1,1,1,1,1,1,1,1,1,1,1,0,11,12,117,space,4.542502199999944,None,1,1,2.008726300000035,None,space,2.377783299999919,None,0,0,0,0,,,,,12,2,98,0,295.555396,,,,,,,,,,,,,,,,,,,,,295.5399291000001,295.555396,296.0390783999999,296.04357289999984,296.0598416999999,298.0717941999999,,,,,298.0719961000002,298.0874532,298.28741520000017,298.27112980000015,296.0598416999999,,,,,,,,1,1,2.008726300000035,None,,,,,,,,894,20,V,R,2026-02-25_11h27.45.228,VisualSearch_2526_3,,2025.2.4,2026-02-25 11h27.45.430167 +0100,
tilted.xlsx,The target is tilted.,117,99,3,12,1,1,1,1,0,0,0,0,0,0,0,0,0,3,4,117,space,4.542502199999944,None,1,1,0.6816963999999643,None,space,2.377783299999919,None,0,0,0,0,,,,,12,3,99,2,298.28741520000017,,,,,,,,,,,,,,,,,,,,,298.27186589999997,298.28741520000017,298.77116450000017,298.77565430000027,298.79118870000025,299.4878911000003,,,,,299.4880734000001,299.50351350000005,299.70347000000015,299.6874212,298.79118870000025,,,,,,,,1,1,0.6816963999999643,None,,,,,,,,894,20,V,R,2026-02-25_11h27.45.228,VisualSearch_2526_3,,2025.2.4,2026-02-25 11h27.45.430167 +0100,
tilted.xlsx,The target is tilted.,117,100,4,12,0,0,0,0,0,0,0,0,0,0,0,0,1,1,1,117,space,4.542502199999944,None,0,1,0.4971403999998074,None,space,2.377783299999919,None,0,0,0,0,,,,,12,4,100,7,299.70347000000015,,,,,,,,,,,,,,,,,,,,,299.68813410000007,299.70347000000015,300.18719110000006,300.1916815000002,300.20841700000005,300.72059390000027,,,,,300.7207767000002,300.7362467999999,300.9363252999999,300.9202029999999,300.20841700000005,,,,,,,,0,1,0.4971403999998074,None,,,,,,,,894,20,V,R,2026-02-25_11h27.45.228,VisualSearch_2526_3,,2025.2.4,2026-02-25 11h27.45.430167 +0100,
tilted.xlsx,The target is tilted.,117,101,5,12,0,1,1,1,0,0,0,0,0,0,0,0,1,3,4,117,space,4.542502199999944,None,0,1,1.2968055999999706,None,space,2.377783299999919,None,0,0,0,0,,,,,12,5,101,6,300.9363252999999,,,,,,,,,,,,,,,,,,,,,300.9209582000001,300.9363252999999,301.4198563000002,301.42438849999985,301.44079590000024,302.7526537000001,,,,,302.7528018999999,302.76864,302.9686557000002,302.95243080000023,301.44079590000024,,,,,,,,0,1,1.2968055999999706,None,,,,,,,,894,20,V,R,2026-02-25_11h27.45.228,VisualSearch_2526_3,,2025.2.4,2026-02-25 11h27.45.430167 +0100,
tilted.xlsx,The target is tilted.,117,102,6,12,0,1,1,1,1,1,1,1,0,0,0,0,1,7,8,117,space,4.542502199999944,None,0,1,2.610019100000045,None,space,2.377783299999919,None,0,0,0,0,,,,,12,6,102,5,302.9686557000002,,,,,,,,,,,,,,,,,,,,,302.9531849000002,302.9686557000002,303.4523999999999,303.4574187999999,303.4733721,306.0849307000001,,,,,306.08512700000006,306.1003956000002,306.3006310000003,306.28433670000027,303.4733721,,,,,,,,0,1,2.610019100000045,None,,,,,,,,894,20,V,R,2026-02-25_11h27.45.228,VisualSearch_2526_3,,2025.2.4,2026-02-25 11h27.45.430167 +0100,
tilted.xlsx,The target is tilted.,117,103,7,12,0,1,1,1,1,1,1,1,1,1,1,1,1,11,12,117,space,4.542502199999944,None,0,1,3.8675460999997995,None,space,2.377783299999919,None,0,0,0,0,,,,,12,7,103,4,306.3006310000003,,,,,,,,,,,,,,,,,,,,,306.28505389999987,306.3006310000003,306.78405080000016,306.7886135000001,306.8055191000001,310.6824669,,,,,310.6826717000001,310.69838490000006,310.8982377,310.8821378,306.8055191000001,,,,,,,,0,1,3.8675460999997995,None,,,,,,,,894,20,V,R,2026-02-25_11h27.45.228,VisualSearch_2526_3,,2025.2.4,2026-02-25 11h27.45.430167 +0100,
tilted.xlsx,The target is tilted.,117,104,0,13,1,0,0,0,0,0,0,0,0,0,0,0,0,0,1,117,space,4.542502199999944,None,1,1,0.559091399999943,None,space,2.377783299999919,None,0,0,0,0,,,,,13,0,104,3,310.8982377,,,,,,,,,,,,,,,,,,,,,310.8828489,310.8982377,311.3818681999999,311.38642749999985,311.39802350000014,311.96574429999987,,,,,311.96597859999997,311.9811980000002,312.18075939999994,312.1650038999999,311.39802350000014,,,,,,,,1,1,0.559091399999943,None,,,,,,,,894,20,V,R,2026-02-25_11h27.45.228,VisualSearch_2526_3,,2025.2.4,2026-02-25 11h27.45.430167 +0100,
tilted.xlsx,The target is tilted.,117,105,1,13,1,1,1,1,0,0,0,0,0,0,0,0,0,3,4,117,space,4.542502199999944,None,1,1,1.0033940000002985,None,space,2.377783299999919,None,0,0,0,0,,,,,13,1,105,2,312.18075939999994,,,,,,,,,,,,,,,,,,,,,312.165745,312.18075939999994,312.6647737999999,312.6692544,312.6854971,313.69770300000005,,,,,313.6978234999999,313.7132798,313.9136946000001,313.8974449,312.6854971,,,,,,,,1,1,1.0033940000002985,None,,,,,,,,894,20,V,R,2026-02-25_11h27.45.228,VisualSearch_2526_3,,2025.2.4,2026-02-25 11h27.45.430167 +0100,
tilted.xlsx,The target is tilted.,117,106,2,13,1,1,1,1,1,1,1,1,0,0,0,0,0,7,8,117,space,4.542502199999944,None,1,1,3.296100000000024,None,space,2.377783299999919,None,0,0,0,0,,,,,13,2,106,1,313.9136946000001,,,,,,,,,,,,,,,,,,,,,313.8981973000002,313.9136946000001,314.39726780000024,314.4017765000001,314.4179234999999,317.7296973,,,,,317.7299006999999,317.7452074,317.9451759000001,317.92894869999986,314.4179234999999,,,,,,,,1,1,3.296100000000024,None,,,,,,,,894,20,V,R,2026-02-25_11h27.45.228,VisualSearch_2526_3,,2025.2.4,2026-02-25 11h27.45.430167 +0100,
tilted.xlsx,The target is tilted.,117,107,3,13,1,1,1,1,1,1,1,1,1,1,1,1,0,11,12,117,space,4.542502199999944,None,1,1,2.999089399999775,None,space,2.377783299999919,None,0,0,0,0,,,,,13,3,107,0,317.9451759000001,,,,,,,,,,,,,,,,,,,,,317.92969560000006,317.9451759000001,318.42892940000024,318.4340967999999,318.45030610000026,321.46131919999993,,,,,321.4615147000002,321.4768151999999,321.67643310000017,321.6605655999999,318.45030610000026,,,,,,,,1,1,2.999089399999775,None,,,,,,,,894,20,V,R,2026-02-25_11h27.45.228,VisualSearch_2526_3,,2025.2.4,2026-02-25 11h27.45.430167 +0100,
tilted.xlsx,The target is tilted.,117,108,4,13,0,1,1,1,1,1,1,1,1,1,1,1,1,11,12,117,space,4.542502199999944,None,0,1,5.405479100000321,None,space,2.377783299999919,None,0,0,0,0,,,,,13,4,108,4,321.67643310000017,,,,,,,,,,,,,,,,,,,,,321.6612923,321.67643310000017,322.16039520000027,322.16477450000025,322.1764519999999,327.591674,,,,,327.5918760000002,327.6073834000001,327.80699930000014,327.79109649999987,322.1764519999999,,,,,,,,0,1,5.405479100000321,None,,,,,,,,894,20,V,R,2026-02-25_11h27.45.228,VisualSearch_2526_3,,2025.2.4,2026-02-25 11h27.45.430167 +0100,
tilted.xlsx,The target is tilted.,117,109,5,13,0,0,0,0,0,0,0,0,0,0,0,0,1,1,1,117,space,4.542502199999944,None,0,1,0.609909400000106,None,space,2.377783299999919,None,0,0,0,0,,,,,13,5,109,7,327.80699930000014,,,,,,,,,,,,,,,,,,,,,327.79184640000017,327.80699930000014,328.2911853000003,328.29571770000007,328.31192080000005,328.9247052000003,,,,,328.92491440000026,328.9399228,329.1401324000001,329.1239455000002,328.31192080000005,,,,,,,,0,1,0.609909400000106,None,,,,,,,,894,20,V,R,2026-02-25_11h27.45.228,VisualSearch_2526_3,,2025.2.4,2026-02-25 11h27.45.430167 +0100,
tilted.xlsx,The target is tilted.,117,110,6,13,0,1,1,1,1,1,1,1,0,0,0,0,1,7,8,117,space,4.542502199999944,None,1,0,2.8893808000002537,None,space,2.377783299999919,None,0,0,0,0,,,,,13,6,110,5,329.1401324000001,,,,,,,,,,,,,,,,,,,,,329.1247014000003,329.1401324000001,329.62366240000006,329.6288261000002,329.6442926000002,332.53937310000015,,,,,332.5395581,332.55506330000003,332.754987,332.73827110000025,329.6442926000002,,,,,,,,1,0,2.8893808000002537,None,,,,,,,,894,20,V,R,2026-02-25_11h27.45.228,VisualSearch_2526_3,,2025.2.4,2026-02-25 11h27.45.430167 +0100,
tilted.xlsx,The target is tilted.,117,111,7,13,0,1,1,1,0,0,0,0,0,0,0,0,1,3,4,117,space,4.542502199999944,None,0,1,1.2917805000001863,None,space,2.377783299999919,None,0,0,0,0,,,,,13,7,111,6,332.754987,,,,,,,,,,,,,,,,,,,,,332.7389194,332.754987,333.2384116999999,333.2430041,333.26005229999987,334.5551363000002,,,,,334.5553560999999,334.5706656,334.77061979999985,334.7545791,333.26005229999987,,,,,,,,0,1,1.2917805000001863,None,,,,,,,,894,20,V,R,2026-02-25_11h27.45.228,VisualSearch_2526_3,,2025.2.4,2026-02-25 11h27.45.430167 +0100,
tilted.xlsx,The target is tilted.,117,112,0,14,0,1,1,1,1,1,1,1,0,0,0,0,1,7,8,117,space,4.542502199999944,None,1,0,1.859795700000177,None,space,2.377783299999919,None,0,0,0,0,,,,,14,0,112,5,334.77061979999985,,,,,,,,,,,,,,,,,,,,,334.75531079999996,334.77061979999985,335.25460929999986,335.25907470000016,335.2742654000001,337.137348,,,,,337.1375467999999,337.15302510000015,337.3530373000001,337.33688860000007,335.2742654000001,,,,,,,,1,0,1.859795700000177,None,,,,,,,,894,20,V,R,2026-02-25_11h27.45.228,VisualSearch_2526_3,,2025.2.4,2026-02-25 11h27.45.430167 +0100,
tilted.xlsx,The target is tilted.,117,113,1,14,1,0,0,0,0,0,0,0,0,0,0,0,0,0,1,117,space,4.542502199999944,None,1,1,0.6153607000001102,None,space,2.377783299999919,None,0,0,0,0,,,,,14,1,113,3,337.3530373000001,,,,,,,,,,,,,,,,,,,,,337.3376080999999,337.3530373000001,337.83667790000004,337.84117919999994,337.8526637000002,338.47016240000016,,,,,338.4703416,338.48587939999993,338.6856272000002,338.66971190000027,337.8526637000002,,,,,,,,1,1,0.6153607000001102,None,,,,,,,,894,20,V,R,2026-02-25_11h27.45.228,VisualSearch_2526_3,,2025.2.4,2026-02-25 11h27.45.430167 +0100,
tilted.xlsx,The target is tilted.,117,114,2,14,0,1,1,1,0,0,0,0,0,0,0,0,1,3,4,117,space,4.542502199999944,None,0,1,1.3004155999997238,None,space,2.377783299999919,None,0,0,0,0,,,,,14,2,114,6,338.6856272000002,,,,,,,,,,,,,,,,,,,,,338.670433,338.6856272000002,339.16934289999995,339.1739490000002,339.192804,340.50252160000014,,,,,340.5027192,340.5181994000002,340.71788040000024,340.701945,339.192804,,,,,,,,0,1,1.3004155999997238,None,,,,,,,,894,20,V,R,2026-02-25_11h27.45.228,VisualSearch_2526_3,,2025.2.4,2026-02-25 11h27.45.430167 +0100,
tilted.xlsx,The target is tilted.,117,115,3,14,1,1,1,1,1,1,1,1,0,0,0,0,0,7,8,117,space,4.542502199999944,None,1,1,1.5050870000000032,None,space,2.377783299999919,None,0,0,0,0,,,,,14,3,115,1,340.71788040000024,,,,,,,,,,,,,,,,,,,,,340.70269110000004,340.71788040000024,341.2014724000003,341.2060425000002,341.2223421000001,342.7350285,,,,,342.7352364999999,342.75054160000013,342.95054619999996,342.93433130000017,341.2223421000001,,,,,,,,1,1,1.5050870000000032,None,,,,,,,,894,20,V,R,2026-02-25_11h27.45.228,VisualSearch_2526_3,,2025.2.4,2026-02-25 11h27.45.430167 +0100,
tilted.xlsx,The target is tilted.,117,116,4,14,1,1,1,1,0,0,0,0,0,0,0,0,0,3,4,117,space,4.542502199999944,None,1,1,0.7275165999999444,None,space,2.377783299999919,None,0,0,0,0,,,,,14,4,116,2,342.95054619999996,,,,,,,,,,,,,,,,,,,,,342.9350538000001,342.95054619999996,343.43407550000006,343.4390925,343.45006390000003,344.18406900000014,,,,,344.1842500999999,344.19977300000005,344.3997264000002,344.3836847,343.45006390000003,,,,,,,,1,1,0.7275165999999444,None,,,,,,,,894,20,V,R,2026-02-25_11h27.45.228,VisualSearch_2526_3,,2025.2.4,2026-02-25 11h27.45.430167 +0100,
tilted.xlsx,The target is tilted.,117,117,5,14,0,1,1,1,1,1,1,1,1,1,1,1,1,11,12,117,space,4.542502199999944,None,0,1,2.463389399999869,None,space,2.377783299999919,None,0,0,0,0,,,,,14,5,117,4,344.3997264000002,,,,,,,,,,,,,,,,,,,,,344.3843967999999,344.3997264000002,344.88345570000024,344.88813099999993,344.8996201000002,347.36638210000024,,,,,347.36660929999994,347.38167929999986,347.5816130999999,347.56559029999994,344.8996201000002,,,,,,,,0,1,2.463389399999869,None,,,,,,,,894,20,V,R,2026-02-25_11h27.45.228,VisualSearch_2526_3,,2025.2.4,2026-02-25 11h27.45.430167 +0100,
tilted.xlsx,The target is tilted.,117,118,6,14,0,0,0,0,0,0,0,0,0,0,0,0,1,1,1,117,space,4.542502199999944,None,0,1,0.4998763000003237,None,space,2.377783299999919,None,0,0,0,0,,,,,14,6,118,7,347.5816130999999,,,,,,,,,,,,,,,,,,,,,347.5663068000001,347.5816130999999,348.0654188000001,348.06991429999994,348.08659390000025,348.5989772999999,,,,,348.59917530000007,348.6145438000001,348.81448810000006,348.79840609999997,348.08659390000025,,,,,,,,0,1,0.4998763000003237,None,,,,,,,,894,20,V,R,2026-02-25_11h27.45.228,VisualSearch_2526_3,,2025.2.4,2026-02-25 11h27.45.430167 +0100,
tilted.xlsx,The target is tilted.,117,119,7,14,1,1,1,1,1,1,1,1,1,1,1,1,0,11,12,117,space,4.542502199999944,None,1,1,1.1608866999999918,None,space,2.377783299999919,None,0,0,0,0,,,,,14,7,119,0,348.81448810000006,,,,,,,,,,,,,,,,,,,,,348.7991608,348.81448810000006,349.2979686000001,349.30255009999996,349.3184825000001,350.4813580000002,,,,,350.4815366999999,350.4970270000001,350.7115475000003,350.68089699999996,349.3184825000001,,,,,,,,1,1,1.1608866999999918,None,,,,,,,,894,20,V,R,2026-02-25_11h27.45.228,VisualSearch_2526_3,,2025.2.4,2026-02-25 11h27.45.430167 +0100,
tilted.xlsx,The target is tilted.,117,0,0,0,,,,,,,,,,,,,,,,,space,4.542502199999944,None,,,,,space,2.377783299999919,None,0,0,0,0,,,,,,,,,,,,,,,,,,,,,,,,,,,,,,,,,,,,,,,,,,,,,,,,,,,,,,,,,,,,,,,894,20,V,R,2026-02-25_11h27.45.228,VisualSearch_2526_3,,2025.2.4,2026-02-25 11h27.45.430167 +0100,
vertical.xlsx,The target is tilted.,135,0,0,0,1,0,0,0,0,0,0,0,0,0,0,0,0,0,1,135,space,4.106810100000075,None,1,1,1.0969747999997708,None,,,,0,1,1,1,0,0,0,3,,,,,354.86027149999995,,,,,,,,,,,,,,,350.7115475000003,350.7115475000003,350.7115475000003,space,4.106810100000075,None,354.8560906,354.86027149999995,355.34514349999995,355.3498817000002,355.3647042,356.4779458999999,1,1,1.0969747999997708,None,356.4780379000001,356.4939651000002,356.69369740000025,356.67811749999987,,,,,,,,,,,,,,,,,,,,894,20,V,R,2026-02-25_11h27.45.228,VisualSearch_2526_3,,2025.2.4,2026-02-25 11h27.45.430167 +0100,
vertical.xlsx,The target is tilted.,135,1,1,0,0,0,0,0,0,0,0,0,0,0,0,0,1,1,1,135,space,4.106810100000075,None,0,1,0.46801670000013473,None,,,,0,1,1,1,0,1,1,7,,,,,356.69369740000025,,,,,,,,,,,,,,,,,,,,,356.67879229999994,356.69369740000025,357.17794579999986,357.1825405000002,357.20026280000025,357.67817979999995,0,1,0.46801670000013473,None,357.67837780000013,357.6936981000001,357.89334759999997,357.8776184999999,357.20026280000025,,,,,,,,,,,,,,,,,,,894,20,V,R,2026-02-25_11h27.45.228,VisualSearch_2526_3,,2025.2.4,2026-02-25 11h27.45.430167 +0100,
vertical.xlsx,The target is tilted.,135,2,2,0,1,1,1,1,0,0,0,0,0,0,0,0,0,3,4,135,space,4.106810100000075,None,1,1,0.5686745000002702,None,,,,0,1,1,1,0,2,2,2,,,,,357.89334759999997,,,,,,,,,,,,,,,,,,,,,357.87828939999986,357.89334759999997,358.37733390000017,358.38210300000014,358.3995230000003,358.97748049999996,1,1,0.5686745000002702,None,358.9777095000002,358.9928821000001,359.1931111000001,359.1769594,358.3995230000003,,,,,,,,,,,,,,,,,,,894,20,V,R,2026-02-25_11h27.45.228,VisualSearch_2526_3,,2025.2.4,2026-02-25 11h27.45.430167 +0100,
vertical.xlsx,The target is tilted.,135,3,3,0,0,1,1,1,0,0,0,0,0,0,0,0,1,3,4,135,space,4.106810100000075,None,0,1,0.8043996000001243,None,,,,0,1,1,1,0,3,3,6,,,,,359.1931111000001,,,,,,,,,,,,,,,,,,,,,359.17765110000005,359.1931111000001,359.6768053000003,359.6813414999999,359.6988223000001,360.51023710000004,0,1,0.8043996000001243,None,360.51042540000003,360.5254692000001,360.7257886,360.70956880000017,359.6988223000001,,,,,,,,,,,,,,,,,,,894,20,V,R,2026-02-25_11h27.45.228,VisualSearch_2526_3,,2025.2.4,2026-02-25 11h27.45.430167 +0100,
vertical.xlsx,The target is tilted.,135,4,4,0,0,1,1,1,1,1,1,1,0,0,0,0,1,7,8,135,space,4.106810100000075,None,0,1,1.1299291999998786,None,,,,0,1,1,1,0,4,4,5,,,,,360.7257886,,,,,,,,,,,,,,,,,,,,,360.7102510000002,360.7257886,361.2092989,361.2138344000002,361.2291895000001,362.3761019000001,0,1,1.1299291999998786,None,362.37629070000025,362.3914984999999,362.59142099999985,362.5754875,361.2291895000001,,,,,,,,,,,,,,,,,,,894,20,V,R,2026-02-25_11h27.45.228,VisualSearch_2526_3,,2025.2.4,2026-02-25 11h27.45.430167 +0100,
vertical.xlsx,The target is tilted.,135,5,5,0,0,1,1,1,1,1,1,1,1,1,1,1,1,11,12,135,space,4.106810100000075,None,0,1,1.905234500000006,None,,,,0,1,1,1,0,5,5,4,,,,,362.59142099999985,,,,,,,,,,,,,,,,,,,,,362.5762175000002,362.59142099999985,363.07525250000003,363.0797632000001,363.0912098000001,365.00831029999995,0,1,1.905234500000006,None,365.0085289000001,365.02368219999994,365.22367370000006,365.20763520000014,363.0912098000001,,,,,,,,,,,,,,,,,,,894,20,V,R,2026-02-25_11h27.45.228,VisualSearch_2526_3,,2025.2.4,2026-02-25 11h27.45.430167 +0100,
vertical.xlsx,The target is tilted.,135,6,6,0,1,1,1,1,1,1,1,1,1,1,1,1,0,11,12,135,space,4.106810100000075,None,1,1,0.9620105999997577,None,,,,0,1,1,1,0,6,6,0,,,,,365.22367370000006,,,,,,,,,,,,,,,,,,,,,365.2082925000002,365.22367370000006,365.7074073000001,365.71196050000003,365.72934980000014,366.7074559,1,1,0.9620105999997577,None,366.70764399999985,366.7228269,366.92290160000016,366.90634350000005,365.72934980000014,,,,,,,,,,,,,,,,,,,894,20,V,R,2026-02-25_11h27.45.228,VisualSearch_2526_3,,2025.2.4,2026-02-25 11h27.45.430167 +0100,
vertical.xlsx,The target is tilted.,135,7,7,0,1,1,1,1,1,1,1,1,0,0,0,0,0,7,8,135,space,4.106810100000075,None,1,1,0.5957980999996835,None,,,,0,1,1,1,0,7,7,1,,,,,366.92290160000016,,,,,,,,,,,,,,,,,,,,,366.90703400000007,366.92290160000016,367.4066061000001,367.4111891,367.42894690000026,368.04000800000017,1,1,0.5957980999996835,None,368.0401739000001,368.0555572999999,368.2556903000002,368.2395690999999,367.42894690000026,,,,,,,,,,,,,,,,,,,894,20,V,R,2026-02-25_11h27.45.228,VisualSearch_2526_3,,2025.2.4,2026-02-25 11h27.45.430167 +0100,
vertical.xlsx,The target is tilted.,135,0,0,0,1,0,0,0,0,0,0,0,0,0,0,0,0,0,1,135,space,4.106810100000075,None,1,1,0.38015390000009575,None,space,0.8476501000000098,None,0,1,1,1,,,,,0,0,0,3,369.1379672999999,,,,,,,,,,,,,,,,,,,,,369.1338097999999,369.1379672999999,369.6218884000002,369.62658190000025,369.64262729999996,370.03939079999986,,,,,370.0396097999999,370.05471409999996,370.2546384,370.2386841,,368.2464330999999,368.2556903000002,368.2556903000002,369.1062193,space,0.8476501000000098,None,1,1,0.38015390000009575,None,,,,,,,,894,20,V,R,2026-02-25_11h27.45.228,VisualSearch_2526_3,,2025.2.4,2026-02-25 11h27.45.430167 +0100,
vertical.xlsx,The target is tilted.,135,1,1,0,0,1,1,1,0,0,0,0,0,0,0,0,1,3,4,135,space,4.106810100000075,None,0,1,0.6710244999999304,None,space,0.8476501000000098,None,0,1,1,1,,,,,0,1,1,6,370.2546384,,,,,,,,,,,,,,,,,,,,,370.2393930999999,370.2546384,370.7383258000002,370.7428845000002,370.75983150000025,371.43820200000005,,,,,371.4383795000001,371.45418429999995,371.65403549999996,371.6379651,370.75983150000025,,,,,,,,0,1,0.6710244999999304,None,,,,,,,,894,20,V,R,2026-02-25_11h27.45.228,VisualSearch_2526_3,,2025.2.4,2026-02-25 11h27.45.430167 +0100,
vertical.xlsx,The target is tilted.,135,2,2,0,1,1,1,1,1,1,1,1,0,0,0,0,0,7,8,135,space,4.106810100000075,None,1,1,0.6120261999999457,None,space,0.8476501000000098,None,0,1,1,1,,,,,0,2,2,1,371.65403549999996,,,,,,,,,,,,,,,,,,,,,371.6387766,371.65403549999996,372.1377442999999,372.1422358000002,372.1594441,372.7878449000002,,,,,372.78804349999996,372.80347830000005,373.0035171000002,372.9874304000002,372.1594441,,,,,,,,1,1,0.6120261999999457,None,,,,,,,,894,20,V,R,2026-02-25_11h27.45.228,VisualSearch_2526_3,,2025.2.4,2026-02-25 11h27.45.430167 +0100,
vertical.xlsx,The target is tilted.,135,3,3,0,1,1,1,1,0,0,0,0,0,0,0,0,0,3,4,135,space,4.106810100000075,None,1,1,0.5844343999997363,None,space,0.8476501000000098,None,0,1,1,1,,,,,0,3,3,2,373.0035171000002,,,,,,,,,,,,,,,,,,,,,372.9882441000002,373.0035171000002,373.48707750000017,373.49157919999993,373.50801209999986,374.1041004000001,,,,,374.10429690000024,374.11956190000024,374.3196003999999,374.3034978000003,373.50801209999986,,,,,,,,1,1,0.5844343999997363,None,,,,,,,,894,20,V,R,2026-02-25_11h27.45.228,VisualSearch_2526_3,,2025.2.4,2026-02-25 11h27.45.430167 +0100,
vertical.xlsx,The target is tilted.,135,4,4,0,0,1,1,1,1,1,1,1,1,1,1,1,1,11,12,135,space,4.106810100000075,None,0,1,1.5683450000001358,None,space,0.8476501000000098,None,0,1,1,1,,,,,0,4,4,4,374.3196003999999,,,,,,,,,,,,,,,,,,,,,374.30422780000004,374.3196003999999,374.80316960000005,374.80768850000027,374.8246295000001,376.4029926999999,,,,,376.4031916000001,376.4185054000002,376.61855489999994,376.60228570000004,374.8246295000001,,,,,,,,0,1,1.5683450000001358,None,,,,,,,,894,20,V,R,2026-02-25_11h27.45.228,VisualSearch_2526_3,,2025.2.4,2026-02-25 11h27.45.430167 +0100,
vertical.xlsx,The target is tilted.,135,5,5,0,0,0,0,0,0,0,0,0,0,0,0,0,1,1,1,135,space,4.106810100000075,None,0,1,0.41625349999958416,None,space,0.8476501000000098,None,0,1,1,1,,,,,0,5,5,7,376.61855489999994,,,,,,,,,,,,,,,,,,,,,376.60302639999986,376.61855489999994,377.1021376000001,377.1066311000002,377.1236617000002,377.55250309999997,,,,,377.5527018,377.5680875999999,377.7676933,377.75153539999997,377.1236617000002,,,,,,,,0,1,0.41625349999958416,None,,,,,,,,894,20,V,R,2026-02-25_11h27.45.228,VisualSearch_2526_3,,2025.2.4,2026-02-25 11h27.45.430167 +0100,
vertical.xlsx,The target is tilted.,135,6,6,0,0,1,1,1,1,1,1,1,0,0,0,0,1,7,8,135,space,4.106810100000075,None,0,1,1.2765574999998535,None,space,0.8476501000000098,None,0,1,1,1,,,,,0,6,6,5,377.7676933,,,,,,,,,,,,,,,,,,,,,377.7522609,377.7676933,378.2512976999999,378.25584090000007,378.27447910000024,379.5671675000001,,,,,379.5672694000002,379.5834335000002,,379.76743550000015,378.27447910000024,,,,,,,,0,1,1.2765574999998535,None,,,,,,,,894,20,V,R,2026-02-25_11h27.45.228,VisualSearch_2526_3,,2025.2.4,2026-02-25 11h27.45.430167 +0100,
vertical.xlsx,The target is tilted.,135,7,7,0,1,1,1,1,1,1,1,1,1,1,1,1,0,11,12,135,space,4.106810100000075,None,1,1,1.1709861999997884,None,space,0.8476501000000098,None,0,1,1,1,,,,,0,7,7,0,379.7837244,,,,,,,,,,,,,,,,,,,,,379.76827149999986,379.7837244,380.26738309999996,380.272467,380.28963769999996,381.4673309000002,,,,,381.4675356,381.48293160000026,381.6823584000001,381.66694310000025,380.28963769999996,,,,,,,,1,1,1.1709861999997884,None,,,,,,,,894,20,V,R,2026-02-25_11h27.45.228,VisualSearch_2526_3,,2025.2.4,2026-02-25 11h27.45.430167 +0100,
vertical.xlsx,The target is tilted.,135,8,0,1,1,1,1,1,1,1,1,1,0,0,0,0,0,7,8,135,space,4.106810100000075,None,1,1,0.8931379000000561,None,space,0.8476501000000098,None,0,1,1,1,,,,,1,0,8,1,381.6823584000001,,,,,,,,,,,,,,,,,,,,,381.6677526000001,381.6823584000001,382.16555829999993,382.16765180000016,382.1819307000003,383.0833396999999,,,,,383.0835348000003,383.09886930000016,383.2983660000002,383.2824714000001,382.1819307000003,,,,,,,,1,1,0.8931379000000561,None,,,,,,,,894,20,V,R,2026-02-25_11h27.45.228,VisualSearch_2526_3,,2025.2.4,2026-02-25 11h27.45.430167 +0100,
vertical.xlsx,The target is tilted.,135,9,1,1,0,1,1,1,0,0,0,0,0,0,0,0,1,3,4,135,space,4.106810100000075,None,0,1,0.8181805000003806,None,space,0.8476501000000098,None,0,1,1,1,,,,,1,1,9,6,383.2983660000002,,,,,,,,,,,,,,,,,,,,,383.28367200000025,383.2983660000002,383.7825031,383.7876880000001,383.80571239999995,384.6325841999999,,,,,384.6327767999999,384.64809249999985,384.8480115,384.8319641999999,383.80571239999995,,,,,,,,0,1,0.8181805000003806,None,,,,,,,,894,20,V,R,2026-02-25_11h27.45.228,VisualSearch_2526_3,,2025.2.4,2026-02-25 11h27.45.430167 +0100,
vertical.xlsx,The target is tilted.,135,10,2,1,1,1,1,1,0,0,0,0,0,0,0,0,0,3,4,135,space,4.106810100000075,None,1,1,0.5175739000001158,None,space,0.8476501000000098,None,0,1,1,1,,,,,1,2,10,2,384.8480115,,,,,,,,,,,,,,,,,,,,,384.83268310000017,384.8480115,385.3314170000001,385.3359379000001,385.34763910000015,385.8817425,,,,,385.8819384000001,385.8975863000003,386.0975513000001,386.08110820000024,385.34763910000015,,,,,,,,1,1,0.5175739000001158,None,,,,,,,,894,20,V,R,2026-02-25_11h27.45.228,VisualSearch_2526_3,,2025.2.4,2026-02-25 11h27.45.430167 +0100,
vertical.xlsx,The target is tilted.,135,11,3,1,0,1,1,1,1,1,1,1,0,0,0,0,1,7,8,135,space,4.106810100000075,None,0,1,1.0651638999997886,None,space,0.8476501000000098,None,0,1,1,1,,,,,1,3,11,5,386.0975513000001,,,,,,,,,,,,,,,,,,,,,386.08181880000006,386.0975513000001,386.5808153999999,386.58535240000015,386.6016280000001,387.68106869999997,,,,,387.6812631,387.69678020000015,387.89686000000006,387.88078640000026,386.6016280000001,,,,,,,,0,1,1.0651638999997886,None,,,,,,,,894,20,V,R,2026-02-25_11h27.45.228,VisualSearch_2526_3,,2025.2.4,2026-02-25 11h27.45.430167 +0100,
vertical.xlsx,The target is tilted.,135,12,4,1,0,0,0,0,0,0,0,0,0,0,0,0,1,1,1,135,space,4.106810100000075,None,0,1,0.36411760000009963,None,space,0.8476501000000098,None,0,1,1,1,,,,,1,4,12,7,387.89686000000006,,,,,,,,,,,,,,,,,,,,,387.88159010000004,387.89686000000006,388.38040130000013,388.38492410000003,388.4013391000001,388.7805638000002,,,,,388.7807687000002,388.79584480000017,388.9962763000001,388.98015899999996,388.4013391000001,,,,,,,,0,1,0.36411760000009963,None,,,,,,,,894,20,V,R,2026-02-25_11h27.45.228,VisualSearch_2526_3,,2025.2.4,2026-02-25 11h27.45.430167 +0100,
vertical.xlsx,The target is tilted.,135,13,5,1,1,1,1,1,1,1,1,1,1,1,1,1,0,11,12,135,space,4.106810100000075,None,1,1,0.8443434000000707,None,space,0.8476501000000098,None,0,1,1,1,,,,,1,5,13,0,388.9962763000001,,,,,,,,,,,,,,,,,,,,,388.98086579999995,388.9962763000001,389.47986779999997,389.48496309999996,389.50034500000015,390.34661949999986,,,,,390.34681620000015,390.36200759999997,390.5620366999999,390.5455623999999,389.50034500000015,,,,,,,,1,1,0.8443434000000707,None,,,,,,,,894,20,V,R,2026-02-25_11h27.45.228,VisualSearch_2526_3,,2025.2.4,2026-02-25 11h27.45.430167 +0100,
vertical.xlsx,The target is tilted.,135,14,6,1,1,0,0,0,0,0,0,0,0,0,0,0,0,0,1,135,space,4.106810100000075,None,1,1,0.3828401999999187,None,space,0.8476501000000098,None,0,1,1,1,,,,,1,6,14,3,390.5620366999999,,,,,,,,,,,,,,,,,,,,,390.5462906999999,390.5620366999999,391.04570850000005,391.05034980000005,391.06857749999995,391.46230930000024,,,,,391.4624449999999,391.4783063000002,391.6783197000002,391.6622812000003,391.06857749999995,,,,,,,,1,1,0.3828401999999187,None,,,,,,,,894,20,V,R,2026-02-25_11h27.45.228,VisualSearch_2526_3,,2025.2.4,2026-02-25 11h27.45.430167 +0100,
vertical.xlsx,The target is tilted.,135,15,7,1,0,1,1,1,1,1,1,1,1,1,1,1,1,11,12,135,space,4.106810100000075,None,0,1,2.235377800000151,None,space,0.8476501000000098,None,0,1,1,1,,,,,1,7,15,4,391.6783197000002,,,,,,,,,,,,,,,,,,,,,391.66301670000007,391.6783197000002,392.16188160000024,392.16646689999993,392.18287480000004,394.4282249999999,,,,,394.42841870000007,394.4436588000001,394.6436495999999,394.62744810000027,392.18287480000004,,,,,,,,0,1,2.235377800000151,None,,,,,,,,894,20,V,R,2026-02-25_11h27.45.228,VisualSearch_2526_3,,2025.2.4,2026-02-25 11h27.45.430167 +0100,
vertical.xlsx,The target is tilted.,135,16,0,2,1,0,0,0,0,0,0,0,0,0,0,0,0,0,1,135,space,4.106810100000075,None,1,1,0.46339499999976397,None,space,0.8476501000000098,None,0,1,1,1,,,,,2,0,16,3,394.6436495999999,,,,,,,,,,,,,,,,,,,,,394.6281967000002,394.6436495999999,395.1272838000002,395.13192319999985,395.1492144000001,395.62735240000006,,,,,395.62751379999986,395.6429891999999,395.84302120000007,395.82717620000017,395.1492144000001,,,,,,,,1,1,0.46339499999976397,None,,,,,,,,894,20,V,R,2026-02-25_11h27.45.228,VisualSearch_2526_3,,2025.2.4,2026-02-25 11h27.45.430167 +0100,
vertical.xlsx,The target is tilted.,135,17,1,2,0,1,1,1,1,1,1,1,0,0,0,0,1,7,8,135,space,4.106810100000075,None,0,1,1.1543151000000762,None,space,0.8476501000000098,None,0,1,1,1,,,,,2,1,17,5,395.84302120000007,,,,,,,,,,,,,,,,,,,,,395.8279808,395.84302120000007,396.3268138000001,396.3313998000001,396.3460762000002,397.5101006000002,,,,,397.51029429999994,397.52514940000015,397.72529610000015,397.70943869999996,396.3460762000002,,,,,,,,0,1,1.1543151000000762,None,,,,,,,,894,20,V,R,2026-02-25_11h27.45.228,VisualSearch_2526_3,,2025.2.4,2026-02-25 11h27.45.430167 +0100,
vertical.xlsx,The target is tilted.,135,18,2,2,1,1,1,1,1,1,1,1,0,0,0,0,0,7,8,135,space,4.106810100000075,None,1,1,1.0234504999998535,None,space,0.8476501000000098,None,0,1,1,1,,,,,2,2,18,1,397.72529610000015,,,,,,,,,,,,,,,,,,,,,397.71015620000003,397.72529610000015,398.2091861000001,398.2137187999999,398.22919609999985,399.2592814000002,,,,,399.25947440000004,399.2748299000002,399.47481519999997,399.45848839999985,398.22919609999985,,,,,,,,1,1,1.0234504999998535,None,,,,,,,,894,20,V,R,2026-02-25_11h27.45.228,VisualSearch_2526_3,,2025.2.4,2026-02-25 11h27.45.430167 +0100,
vertical.xlsx,The target is tilted.,135,19,3,2,1,1,1,1,1,1,1,1,1,1,1,1,0,11,12,135,space,4.106810100000075,None,1,1,0.7104656999999861,None,space,0.8476501000000098,None,0,1,1,1,,,,,2,3,19,0,399.47481519999997,,,,,,,,,,,,,,,,,,,,,399.4592365000001,399.47481519999997,399.95843530000025,399.962996,399.9801021999999,400.6917968,,,,,400.6919909999999,400.7074696000002,400.90753500000005,400.8913041000003,399.9801021999999,,,,,,,,1,1,0.7104656999999861,None,,,,,,,,894,20,V,R,2026-02-25_11h27.45.228,VisualSearch_2526_3,,2025.2.4,2026-02-25 11h27.45.430167 +0100,
vertical.xlsx,The target is tilted.,135,20,4,2,0,1,1,1,0,0,0,0,0,0,0,0,1,3,4,135,space,4.106810100000075,None,0,1,0.7831062999998721,None,space,0.8476501000000098,None,0,1,1,1,,,,,2,4,20,6,400.90753500000005,,,,,,,,,,,,,,,,,,,,,400.8920725999999,400.90753500000005,401.3910851000003,401.3956131000002,401.41189340000005,402.2075019000001,,,,,402.20764110000005,402.22339940000006,402.42311989999985,402.40739050000025,401.41189340000005,,,,,,,,0,1,0.7831062999998721,None,,,,,,,,894,20,V,R,2026-02-25_11h27.45.228,VisualSearch_2526_3,,2025.2.4,2026-02-25 11h27.45.430167 +0100,
vertical.xlsx,The target is tilted.,135,21,5,2,0,0,0,0,0,0,0,0,0,0,0,0,1,1,1,135,space,4.106810100000075,None,0,1,0.4994799000000967,None,space,0.8476501000000098,None,0,1,1,1,,,,,2,5,21,7,402.42311989999985,,,,,,,,,,,,,,,,,,,,,402.4081033,402.42311989999985,402.90708819999986,402.91158659999996,402.9291106000003,403.4407579000001,,,,,403.4409727,403.4561602000001,403.65613580000013,403.6401527999999,402.9291106000003,,,,,,,,0,1,0.4994799000000967,None,,,,,,,,894,20,V,R,2026-02-25_11h27.45.228,VisualSearch_2526_3,,2025.2.4,2026-02-25 11h27.45.430167 +0100,
vertical.xlsx,The target is tilted.,135,22,6,2,1,1,1,1,0,0,0,0,0,0,0,0,0,3,4,135,space,4.106810100000075,None,1,1,0.5018271999997523,None,space,0.8476501000000098,None,0,1,1,1,,,,,2,6,22,2,403.65613580000013,,,,,,,,,,,,,,,,,,,,,403.6408892000002,403.65613580000013,404.1395079000001,404.14404949999994,404.16042300000004,404.6729750000002,,,,,404.6731130999999,404.6888836999999,404.8888308000003,404.8725615999999,404.16042300000004,,,,,,,,1,1,0.5018271999997523,None,,,,,,,,894,20,V,R,2026-02-25_11h27.45.228,VisualSearch_2526_3,,2025.2.4,2026-02-25 11h27.45.430167 +0100,
vertical.xlsx,The target is tilted.,135,23,7,2,0,1,1,1,1,1,1,1,1,1,1,1,1,11,12,135,space,4.106810100000075,None,0,1,1.7913579999999456,None,space,0.8476501000000098,None,0,1,1,1,,,,,2,7,23,4,404.8888308000003,,,,,,,,,,,,,,,,,,,,,404.87333139999987,404.8888308000003,405.37252850000027,405.37709169999994,405.39306869999996,407.1885841999999,,,,,407.18876079999995,407.2045538,407.4045203000003,407.3884638000002,405.39306869999996,,,,,,,,0,1,1.7913579999999456,None,,,,,,,,894,20,V,R,2026-02-25_11h27.45.228,VisualSearch_2526_3,,2025.2.4,2026-02-25 11h27.45.430167 +0100,
vertical.xlsx,The target is tilted.,135,24,0,3,0,1,1,1,0,0,0,0,0,0,0,0,1,3,4,135,space,4.106810100000075,None,0,1,0.8976277000001573,None,space,0.8476501000000098,None,0,1,1,1,,,,,3,0,24,6,407.4045203000003,,,,,,,,,,,,,,,,,,,,,407.38920440000015,407.4045203000003,407.88823560000014,407.8927255000001,407.91072659999986,408.8216622000002,,,,,408.8218572000003,408.8371218,409.03688720000014,409.0205671000001,407.91072659999986,,,,,,,,0,1,0.8976277000001573,None,,,,,,,,894,20,V,R,2026-02-25_11h27.45.228,VisualSearch_2526_3,,2025.2.4,2026-02-25 11h27.45.430167 +0100,
vertical.xlsx,The target is tilted.,135,25,1,3,1,1,1,1,1,1,1,1,1,1,1,1,0,11,12,135,space,4.106810100000075,None,1,1,0.6355376000001343,None,space,0.8476501000000098,None,0,1,1,1,,,,,3,1,25,0,409.03688720000014,,,,,,,,,,,,,,,,,,,,,409.0212990000002,409.03688720000014,409.5208309000002,409.5253645,409.54184250000003,410.1877632000003,,,,,410.18799319999994,410.20323380000013,410.40315380000015,410.38702739999985,409.54184250000003,,,,,,,,1,1,0.6355376000001343,None,,,,,,,,894,20,V,R,2026-02-25_11h27.45.228,VisualSearch_2526_3,,2025.2.4,2026-02-25 11h27.45.430167 +0100,
vertical.xlsx,The target is tilted.,135,26,2,3,1,1,1,1,0,0,0,0,0,0,0,0,0,3,4,135,space,4.106810100000075,None,1,1,0.5183896000003188,None,space,0.8476501000000098,None,0,1,1,1,,,,,3,2,26,2,410.40315380000015,,,,,,,,,,,,,,,,,,,,,410.3877362999999,410.40315380000015,410.8867757999999,410.8912837999999,410.9074032000001,411.4369202999999,,,,,411.4371143000001,411.4523028000001,411.65244860000007,411.6363073,410.9074032000001,,,,,,,,1,1,0.5183896000003188,None,,,,,,,,894,20,V,R,2026-02-25_11h27.45.228,VisualSearch_2526_3,,2025.2.4,2026-02-25 11h27.45.430167 +0100,
vertical.xlsx,The target is tilted.,135,27,3,3,1,0,0,0,0,0,0,0,0,0,0,0,0,0,1,135,space,4.106810100000075,None,1,1,0.41412910000008196,None,space,0.8476501000000098,None,0,1,1,1,,,,,3,3,27,3,411.65244860000007,,,,,,,,,,,,,,,,,,,,,411.6370708000002,411.65244860000007,412.1358925000002,412.1405121,412.1583450999999,412.58585300000027,,,,,412.5859585999999,412.60171830000013,412.8019935,412.78587249999987,412.1583450999999,,,,,,,,1,1,0.41412910000008196,None,,,,,,,,894,20,V,R,2026-02-25_11h27.45.228,VisualSearch_2526_3,,2025.2.4,2026-02-25 11h27.45.430167 +0100,
vertical.xlsx,The target is tilted.,135,28,4,3,1,1,1,1,1,1,1,1,0,0,0,0,0,7,8,135,space,4.106810100000075,None,1,1,0.6928668000000471,None,space,0.8476501000000098,None,0,1,1,1,,,,,3,4,28,1,412.8019935,,,,,,,,,,,,,,,,,,,,,412.78662080000026,412.8019935,413.28565349999985,413.29019500000027,413.3079626000001,414.0023899,,,,,414.0025833000002,414.0177397,414.2179758,414.2018337000002,413.3079626000001,,,,,,,,1,1,0.6928668000000471,None,,,,,,,,894,20,V,R,2026-02-25_11h27.45.228,VisualSearch_2526_3,,2025.2.4,2026-02-25 11h27.45.430167 +0100,
vertical.xlsx,The target is tilted.,135,29,5,3,0,0,0,0,0,0,0,0,0,0,0,0,1,1,1,135,space,4.106810100000075,None,0,1,0.5296552999998312,None,space,0.8476501000000098,None,0,1,1,1,,,,,3,5,29,7,414.2179758,,,,,,,,,,,,,,,,,,,,,414.20296440000016,414.2179758,414.70145370000023,414.7060707000003,414.7230523999999,415.2687662999999,,,,,415.2689633000002,415.2841097000003,415.4842288000002,415.46778240000026,414.7230523999999,,,,,,,,0,1,0.5296552999998312,None,,,,,,,,894,20,V,R,2026-02-25_11h27.45.228,VisualSearch_2526_3,,2025.2.4,2026-02-25 11h27.45.430167 +0100,
vertical.xlsx,The target is tilted.,135,30,6,3,0,1,1,1,1,1,1,1,0,0,0,0,1,7,8,135,space,4.106810100000075,None,0,1,1.3881920000003447,None,space,0.8476501000000098,None,0,1,1,1,,,,,3,6,30,5,415.4842288000002,,,,,,,,,,,,,,,,,,,,,415.468568,415.4842288000002,415.967261,415.97282139999993,415.98951580000016,417.38436000000024,,,,,417.3845583,417.3999163000001,417.5997321000002,417.58365879999997,415.98951580000016,,,,,,,,0,1,1.3881920000003447,None,,,,,,,,894,20,V,R,2026-02-25_11h27.45.228,VisualSearch_2526_3,,2025.2.4,2026-02-25 11h27.45.430167 +0100,
vertical.xlsx,The target is tilted.,135,31,7,3,0,1,1,1,1,1,1,1,1,1,1,1,1,11,12,135,space,4.106810100000075,None,0,1,1.324321300000065,None,space,0.8476501000000098,None,0,1,1,1,,,,,3,7,31,4,417.5997321000002,,,,,,,,,,,,,,,,,,,,,417.58440129999985,417.5997321000002,418.0833854,418.08853909999993,418.10327519999987,419.4334775,,,,,419.433671,419.4489476000001,419.64888840000026,419.6327291,418.10327519999987,,,,,,,,0,1,1.324321300000065,None,,,,,,,,894,20,V,R,2026-02-25_11h27.45.228,VisualSearch_2526_3,,2025.2.4,2026-02-25 11h27.45.430167 +0100,
vertical.xlsx,The target is tilted.,135,32,0,4,1,1,1,1,1,1,1,1,0,0,0,0,0,7,8,135,space,4.106810100000075,None,1,1,0.7489362000001165,None,space,0.8476501000000098,None,0,1,1,1,,,,,4,0,32,1,419.64888840000026,,,,,,,,,,,,,,,,,,,,,419.6334712999999,419.64888840000026,420.1325188000003,420.13707450000015,420.1547432,420.9161136,,,,,420.91631059999986,420.9313402,421.13107909999985,421.11469809999994,420.1547432,,,,,,,,1,1,0.7489362000001165,None,,,,,,,,894,20,V,R,2026-02-25_11h27.45.228,VisualSearch_2526_3,,2025.2.4,2026-02-25 11h27.45.430167 +0100,
vertical.xlsx,The target is tilted.,135,33,1,4,0,1,1,1,1,1,1,1,0,0,0,0,1,7,8,135,space,4.106810100000075,None,0,1,0.6973652000001493,None,space,0.8476501000000098,None,0,1,1,1,,,,,4,1,33,5,421.13107909999985,,,,,,,,,,,,,,,,,,,,,421.11522260000015,421.13107909999985,421.6150762,421.62031520000005,421.63612080000007,422.34887950000007,,,,,422.34907720000024,422.3642666000003,422.56435190000025,422.5483010999999,421.63612080000007,,,,,,,,0,1,0.6973652000001493,None,,,,,,,,894,20,V,R,2026-02-25_11h27.45.228,VisualSearch_2526_3,,2025.2.4,2026-02-25 11h27.45.430167 +0100,
vertical.xlsx,The target is tilted.,135,34,2,4,1,1,1,1,1,1,1,1,1,1,1,1,0,11,12,135,space,4.106810100000075,None,1,1,0.6413610999998127,None,space,0.8476501000000098,None,0,1,1,1,,,,,4,2,34,0,422.56435190000025,,,,,,,,,,,,,,,,,,,,,422.5490588,422.56435190000025,423.0481035,423.0529689000002,423.06924060000006,423.71450340000024,,,,,423.7146932000003,423.73050590000025,423.9305141000002,423.91440620000026,423.06924060000006,,,,,,,,1,1,0.6413610999998127,None,,,,,,,,894,20,V,R,2026-02-25_11h27.45.228,VisualSearch_2526_3,,2025.2.4,2026-02-25 11h27.45.430167 +0100,
