file_name,block_instructions,target_example,thisN,thisTrialN,thisRepN,target_presence,opacity_1,opacity_2,opacity_3,opacity_4,opacity_5,opacity_6,opacity_7,opacity_8,opacity_9,opacity_10,opacity_11,opacity_12,n_distract,n_items,target_ori,key_resp_4.keys,key_resp_4.rt,key_resp_4.duration,key_resp.keys,key_resp.corr,key_resp.rt,key_resp.duration,key_resp_5.keys,key_resp_5.rt,key_resp_5.duration,blocks.thisRepN,blocks.thisTrialN,blocks.thisN,blocks.thisIndex,practice_trials.thisRepN,practice_trials.thisTrialN,practice_trials.thisN,practice_trials.thisIndex,trials.thisRepN,trials.thisTrialN,trials.thisN,trials.thisIndex,thisRow.t,notes,Welcome.started,WelcomeText.started,key_resp_2.started,Welcome.stopped,key_resp_2.keys,key_resp_2.rt,key_resp_2.duration,InformedConsent.started,text_4.started,InformedConsent.stopped,key_resp_6.keys,key_resp_6.rt,key_resp_6.duration,key_resp_4.started,example_target.started,text_3.started,blocks.key_resp_4.keys,blocks.key_resp_4.rt,blocks.key_resp_4.duration,FixCross.started,fixCross.started,FixCross.stopped,Stimulus.started,key_resp.started,Stimulus.stopped,practice_trials.key_resp.keys,practice_trials.key_resp.corr,practice_trials.key_resp.rt,practice_trials.key_resp.duration,BlankScreen.started,text.started,text.stopped,BlankScreen.stopped,fixCross.stopped,ExperimentStart.started,text_2.started,key_resp_5.started,ExperimentStart.stopped,blocks.key_resp_5.keys,blocks.key_resp_5.rt,blocks.key_resp_5.duration,trials.key_resp.keys,trials.key_resp.corr,trials.key_resp.rt,trials.key_resp.duration,Thanks.started,ThankYou.started,key_resp_3.started,Thanks.stopped,key_resp_3.keys,key_resp_3.rt,key_resp_3.duration,participant,leeftijd,gender,links/rechtshandig,date,expName,expVersion,psychopyVersion,expStart,
,,,,,,,,,,,,,,,,,,,,,,,,,,,,,,,,,,,,,,,,,,,,,,0.020927799999753915,0.031734899999719346,0.031734899999719346,43.11459769999965,space,43.058736299999964,None,,,,,,,,,,,,,,,,,,,,,,,,,,,,,,,,,,,,,,,,,,,,,,895,22,M,L,2026-02-25_11h39.52.353,VisualSearch_2526_3,,2025.2.4,2026-02-25 11h39.52.549381 +0100,
,,,,,,,,,,,,,,,,,,,,,,,,,,,,,,,,,,,,,,,,,,,,,,,,,,,,,43.11465609999959,43.12019519999967,47.73246629999994,y,4.605092300000251,None,,,,,,,,,,,,,,,,,,,,,,,,,,,,,,,,,,,,,,,,895,22,M,L,2026-02-25_11h39.52.353,VisualSearch_2526_3,,2025.2.4,2026-02-25 11h39.52.549381 +0100,
vertical.xlsx,The target is tilted.,135,0,0,0,1,1,1,1,1,1,1,1,0,0,0,0,0,7,8,135,space,7.5791644999999335,None,1,1,3.209748799999943,None,,,,0,0,0,1,0,0,0,1,,,,,55.386926199999834,,,,,,,,,,,,,,,47.766937499999585,47.766937499999585,47.766937499999585,space,7.5791644999999335,None,55.38232169999992,55.386926199999834,55.87778639999988,55.88262139999961,55.89718149999999,59.10988499999985,1,1,3.209748799999943,None,59.11008379999976,59.12550549999969,59.32599679999976,59.30976319999991,,,,,,,,,,,,,,,,,,,,895,22,M,L,2026-02-25_11h39.52.353,VisualSearch_2526_3,,2025.2.4,2026-02-25 11h39.52.549381 +0100,
vertical.xlsx,The target is tilted.,135,1,1,0,0,1,1,1,0,0,0,0,0,0,0,0,1,3,4,135,space,7.5791644999999335,None,0,1,2.276002099999914,None,,,,0,0,0,1,0,1,1,6,,,,,59.32599679999976,,,,,,,,,,,,,,,,,,,,,59.31047109999963,59.32599679999976,59.80952529999968,59.814224999999624,59.82810019999988,62.10904159999973,0,1,2.276002099999914,None,62.10925099999986,62.12454079999998,62.32462239999995,62.30812389999983,59.82810019999988,,,,,,,,,,,,,,,,,,,895,22,M,L,2026-02-25_11h39.52.353,VisualSearch_2526_3,,2025.2.4,2026-02-25 11h39.52.549381 +0100,
vertical.xlsx,The target is tilted.,135,2,2,0,0,1,1,1,1,1,1,1,0,0,0,0,1,7,8,135,space,7.5791644999999335,None,0,1,1.800018899999941,None,,,,0,0,0,1,0,2,2,5,,,,,62.32462239999995,,,,,,,,,,,,,,,,,,,,,62.30880249999973,62.32462239999995,62.808265499999834,62.81290799999988,62.828077499999836,64.64101059999984,0,1,1.800018899999941,None,64.6411678999998,64.6563629999996,64.85675449999962,64.84059669999988,62.828077499999836,,,,,,,,,,,,,,,,,,,895,22,M,L,2026-02-25_11h39.52.353,VisualSearch_2526_3,,2025.2.4,2026-02-25 11h39.52.549381 +0100,
vertical.xlsx,The target is tilted.,135,3,3,0,0,1,1,1,1,1,1,1,1,1,1,1,1,11,12,135,space,7.5791644999999335,None,0,1,5.12825120000025,None,,,,0,0,0,1,0,3,3,4,,,,,64.85675449999962,,,,,,,,,,,,,,,,,,,,,64.84131849999994,64.85675449999962,65.34008619999986,65.3447640999998,65.35935049999989,70.50458909999998,0,1,5.12825120000025,None,70.5047614,70.52033110000002,70.72076509999988,70.70456639999975,65.35935049999989,,,,,,,,,,,,,,,,,,,895,22,M,L,2026-02-25_11h39.52.353,VisualSearch_2526_3,,2025.2.4,2026-02-25 11h39.52.549381 +0100,
vertical.xlsx,The target is tilted.,135,4,4,0,1,1,1,1,1,1,1,1,1,1,1,1,0,11,12,135,space,7.5791644999999335,None,1,1,3.0397336000000905,None,,,,0,0,0,1,0,4,4,0,,,,,70.72076509999988,,,,,,,,,,,,,,,,,,,,,70.70526889999974,70.72076509999988,71.20438189999959,71.20920129999968,71.22389299999986,74.26992039999959,1,1,3.0397336000000905,None,74.2701118,74.28517079999983,74.48571089999996,74.46949629999972,71.22389299999986,,,,,,,,,,,,,,,,,,,895,22,M,L,2026-02-25_11h39.52.353,VisualSearch_2526_3,,2025.2.4,2026-02-25 11h39.52.549381 +0100,
vertical.xlsx,The target is tilted.,135,5,5,0,1,1,1,1,0,0,0,0,0,0,0,0,0,3,4,135,space,7.5791644999999335,None,1,1,1.7959474999997838,None,,,,0,0,0,1,0,5,5,2,,,,,74.48571089999996,,,,,,,,,,,,,,,,,,,,,74.47017539999979,74.48571089999996,74.96922359999962,74.97394789999998,74.98788509999986,76.7858325999996,1,1,1.7959474999997838,None,76.7860241999997,76.8008617999999,77.00121579999995,76.98505989999967,74.98788509999986,,,,,,,,,,,,,,,,,,,895,22,M,L,2026-02-25_11h39.52.353,VisualSearch_2526_3,,2025.2.4,2026-02-25 11h39.52.549381 +0100,
vertical.xlsx,The target is tilted.,135,6,6,0,0,0,0,0,0,0,0,0,0,0,0,0,1,1,1,135,space,7.5791644999999335,None,0,1,1.1332594000000427,None,,,,0,0,0,1,0,6,6,7,,,,,77.00121579999995,,,,,,,,,,,,,,,,,,,,,76.98575709999977,77.00121579999995,77.48473869999998,77.4894492999997,77.50565619999998,78.65088149999974,0,1,1.1332594000000427,None,78.6509802999999,78.66648859999987,78.8670662999998,78.85064759999977,77.50565619999998,,,,,,,,,,,,,,,,,,,895,22,M,L,2026-02-25_11h39.52.353,VisualSearch_2526_3,,2025.2.4,2026-02-25 11h39.52.549381 +0100,
vertical.xlsx,The target is tilted.,135,7,7,0,1,0,0,0,0,0,0,0,0,0,0,0,0,0,1,135,space,7.5791644999999335,None,1,1,0.9609087999997428,None,,,,0,0,0,1,0,7,7,3,,,,,78.8670662999998,,,,,,,,,,,,,,,,,,,,,78.85134999999991,78.8670662999998,79.35068460000002,79.35546109999996,79.37018999999964,80.33481149999989,1,1,0.9609087999997428,None,80.33500539999977,80.34925999999996,80.5493064999996,80.53355039999997,79.37018999999964,,,,,,,,,,,,,,,,,,,895,22,M,L,2026-02-25_11h39.52.353,VisualSearch_2526_3,,2025.2.4,2026-02-25 11h39.52.549381 +0100,
vertical.xlsx,The target is tilted.,135,0,0,0,0,1,1,1,1,1,1,1,1,1,1,1,1,11,12,135,space,7.5791644999999335,None,0,1,3.2981659000001855,None,space,1.8145473999998103,None,0,0,0,1,,,,,0,0,0,4,82.39443329999995,,,,,,,,,,,,,,,,,,,,,82.39062159999958,82.39443329999995,82.88220879999972,82.88704529999995,82.90072149999969,86.21372409999958,,,,,86.21388239999987,86.22980779999989,86.43011969999998,86.41367199999968,,80.54051589999972,80.5493064999996,80.5493064999996,82.36610729999984,space,1.8145473999998103,None,0,1,3.2981659000001855,None,,,,,,,,895,22,M,L,2026-02-25_11h39.52.353,VisualSearch_2526_3,,2025.2.4,2026-02-25 11h39.52.549381 +0100,
vertical.xlsx,The target is tilted.,135,1,1,0,1,1,1,1,1,1,1,1,0,0,0,0,0,7,8,135,space,7.5791644999999335,None,1,1,1.1558302999997068,None,space,1.8145473999998103,None,0,0,0,1,,,,,0,1,1,1,86.43011969999998,,,,,,,,,,,,,,,,,,,,,86.41400279999971,86.43011969999998,86.91397849999976,86.91877029999978,86.93393789999982,88.09728619999987,,,,,88.09749069999998,88.11222249999992,88.31278809999958,88.29667870000003,86.93393789999982,,,,,,,,1,1,1.1558302999997068,None,,,,,,,,895,22,M,L,2026-02-25_11h39.52.353,VisualSearch_2526_3,,2025.2.4,2026-02-25 11h39.52.549381 +0100,
vertical.xlsx,The target is tilted.,135,2,2,0,0,1,1,1,0,0,0,0,0,0,0,0,1,3,4,135,space,7.5791644999999335,None,0,1,1.064925900000162,None,space,1.8145473999998103,None,0,0,0,1,,,,,0,2,2,6,88.31278809999958,,,,,,,,,,,,,,,,,,,,,88.29741749999994,88.31278809999958,88.79646129999992,88.80112509999981,88.81681079999998,89.8953561999997,,,,,89.8954861999996,89.91191489999983,,90.09564769999997,88.81681079999998,,,,,,,,0,1,1.064925900000162,None,,,,,,,,895,22,M,L,2026-02-25_11h39.52.353,VisualSearch_2526_3,,2025.2.4,2026-02-25 11h39.52.549381 +0100,
vertical.xlsx,The target is tilted.,135,3,3,0,1,1,1,1,0,0,0,0,0,0,0,0,0,3,4,135,space,7.5791644999999335,None,1,1,0.8517759999999726,None,space,1.8145473999998103,None,0,0,0,1,,,,,0,3,3,2,90.11192189999974,,,,,,,,,,,,,,,,,,,,,90.09641019999981,90.11192189999974,90.59553599999981,90.60023059999958,90.61412399999972,91.47833089999995,,,,,91.47849829999996,91.49419539999963,91.69456929999978,91.6782960999999,90.61412399999972,,,,,,,,1,1,0.8517759999999726,None,,,,,,,,895,22,M,L,2026-02-25_11h39.52.353,VisualSearch_2526_3,,2025.2.4,2026-02-25 11h39.52.549381 +0100,
vertical.xlsx,The target is tilted.,135,4,4,0,0,0,0,0,0,0,0,0,0,0,0,0,1,1,1,135,space,7.5791644999999335,None,0,1,0.6877612000002955,None,space,1.8145473999998103,None,0,0,0,1,,,,,0,4,4,7,91.69456929999978,,,,,,,,,,,,,,,,,,,,,91.67906889999995,91.69456929999978,92.17818390000002,92.18287039999996,92.198531,92.89520589999984,,,,,92.89541009999994,92.9101284999997,93.1106264,93.09451529999978,92.198531,,,,,,,,0,1,0.6877612000002955,None,,,,,,,,895,22,M,L,2026-02-25_11h39.52.353,VisualSearch_2526_3,,2025.2.4,2026-02-25 11h39.52.549381 +0100,
vertical.xlsx,The target is tilted.,135,5,5,0,1,1,1,1,1,1,1,1,1,1,1,1,0,11,12,135,space,7.5791644999999335,None,1,1,1.438705800000207,None,space,1.8145473999998103,None,0,0,0,1,,,,,0,5,5,0,93.1106264,,,,,,,,,,,,,,,,,,,,,93.0952812999999,93.1106264,93.59434599999986,93.5988811999996,93.61645199999975,95.06018779999977,,,,,95.06038419999959,95.07585129999961,95.27637119999963,95.26013479999983,93.61645199999975,,,,,,,,1,1,1.438705800000207,None,,,,,,,,895,22,M,L,2026-02-25_11h39.52.353,VisualSearch_2526_3,,2025.2.4,2026-02-25 11h39.52.549381 +0100,
vertical.xlsx,The target is tilted.,135,6,6,0,1,0,0,0,0,0,0,0,0,0,0,0,0,0,1,135,space,7.5791644999999335,None,1,1,0.7933059000001776,None,space,1.8145473999998103,None,0,0,0,1,,,,,0,6,6,3,95.27637119999963,,,,,,,,,,,,,,,,,,,,,95.26089849999971,95.27637119999963,95.75968990000001,95.76441049999994,95.7789687999998,96.57629539999971,,,,,96.57647329999963,96.59175929999992,96.79230439999992,96.77610839999988,95.7789687999998,,,,,,,,1,1,0.7933059000001776,None,,,,,,,,895,22,M,L,2026-02-25_11h39.52.353,VisualSearch_2526_3,,2025.2.4,2026-02-25 11h39.52.549381 +0100,
vertical.xlsx,The target is tilted.,135,7,7,0,0,1,1,1,1,1,1,1,0,0,0,0,1,7,8,135,space,7.5791644999999335,None,0,1,2.8506305999999313,None,space,1.8145473999998103,None,0,0,0,1,,,,,0,7,7,5,96.79230439999992,,,,,,,,,,,,,,,,,,,,,96.77687109999988,96.79230439999992,97.2756016999997,97.28041249999978,97.29640089999975,100.15837299999976,,,,,100.15853059999972,100.17340939999985,100.3740201999999,100.3578548999999,97.29640089999975,,,,,,,,0,1,2.8506305999999313,None,,,,,,,,895,22,M,L,2026-02-25_11h39.52.353,VisualSearch_2526_3,,2025.2.4,2026-02-25 11h39.52.549381 +0100,
vertical.xlsx,The target is tilted.,135,8,0,1,0,1,1,1,1,1,1,1,0,0,0,0,1,7,8,135,space,7.5791644999999335,None,0,1,1.281990400000268,None,space,1.8145473999998103,None,0,0,0,1,,,,,1,0,8,5,100.3740201999999,,,,,,,,,,,,,,,,,,,,,100.35860349999984,100.3740201999999,100.8576036999998,100.86230069999965,100.87810139999965,102.17361679999976,,,,,102.17383789999985,102.18925309999986,102.38970609999978,102.3731485999997,100.87810139999965,,,,,,,,0,1,1.281990400000268,None,,,,,,,,895,22,M,L,2026-02-25_11h39.52.353,VisualSearch_2526_3,,2025.2.4,2026-02-25 11h39.52.549381 +0100,
vertical.xlsx,The target is tilted.,135,9,1,1,0,1,1,1,1,1,1,1,1,1,1,1,1,11,12,135,space,7.5791644999999335,None,0,1,2.4717869000000974,None,space,1.8145473999998103,None,0,0,0,1,,,,,1,1,9,4,102.38970609999978,,,,,,,,,,,,,,,,,,,,,102.37395900000001,102.38970609999978,102.87364769999976,102.87855599999966,102.89384399999972,105.3731429999998,,,,,105.37334639999972,105.38769119999961,105.5878972999999,105.57217319999972,102.89384399999972,,,,,,,,0,1,2.4717869000000974,None,,,,,,,,895,22,M,L,2026-02-25_11h39.52.353,VisualSearch_2526_3,,2025.2.4,2026-02-25 11h39.52.549381 +0100,
vertical.xlsx,The target is tilted.,135,10,2,1,1,0,0,0,0,0,0,0,0,0,0,0,0,0,1,135,space,7.5791644999999335,None,1,1,0.7723197000000255,None,space,1.8145473999998103,None,0,0,0,1,,,,,1,2,10,3,105.5878972999999,,,,,,,,,,,,,,,,,,,,,105.57290299999977,105.5878972999999,106.0718394999999,106.07659969999986,106.0899915,106.8713316999997,,,,,106.87142049999966,106.88692289999972,107.08742979999988,107.0714309,106.0899915,,,,,,,,1,1,0.7723197000000255,None,,,,,,,,895,22,M,L,2026-02-25_11h39.52.353,VisualSearch_2526_3,,2025.2.4,2026-02-25 11h39.52.549381 +0100,
vertical.xlsx,The target is tilted.,135,11,3,1,1,1,1,1,1,1,1,1,0,0,0,0,0,7,8,135,space,7.5791644999999335,None,1,1,1.2662341000000197,None,space,1.8145473999998103,None,0,0,0,1,,,,,1,3,11,1,107.08742979999988,,,,,,,,,,,,,,,,,,,,,107.07218990000001,107.08742979999988,107.5712438999999,107.57600669999965,107.58973429999969,108.8699314999999,,,,,108.87003909999976,108.88663169999973,109.08659679999982,109.07022569999981,107.58973429999969,,,,,,,,1,1,1.2662341000000197,None,,,,,,,,895,22,M,L,2026-02-25_11h39.52.353,VisualSearch_2526_3,,2025.2.4,2026-02-25 11h39.52.549381 +0100,
vertical.xlsx,The target is tilted.,135,12,4,1,1,1,1,1,0,0,0,0,0,0,0,0,0,3,4,135,space,7.5791644999999335,None,1,1,1.0042014000000563,None,space,1.8145473999998103,None,0,0,0,1,,,,,1,4,12,2,109.08659679999982,,,,,,,,,,,,,,,,,,,,,109.07098299999961,109.08659679999982,109.57011019999982,109.57481499999994,109.58950449999975,110.60324839999976,,,,,110.60338539999975,110.61871599999995,110.81916939999974,110.80301699999973,109.58950449999975,,,,,,,,1,1,1.0042014000000563,None,,,,,,,,895,22,M,L,2026-02-25_11h39.52.353,VisualSearch_2526_3,,2025.2.4,2026-02-25 11h39.52.549381 +0100,
vertical.xlsx,The target is tilted.,135,13,5,1,0,1,1,1,0,0,0,0,0,0,0,0,1,3,4,135,space,7.5791644999999335,None,0,1,0.9014742999997907,None,space,1.8145473999998103,None,0,0,0,1,,,,,1,5,13,6,110.81916939999974,,,,,,,,,,,,,,,,,,,,,110.8038474,110.81916939999974,111.30276370000001,111.30746869999984,111.32135779999999,112.23531729999968,,,,,112.23545960000001,112.25136039999961,112.4518051,112.43540229999962,111.32135779999999,,,,,,,,0,1,0.9014742999997907,None,,,,,,,,895,22,M,L,2026-02-25_11h39.52.353,VisualSearch_2526_3,,2025.2.4,2026-02-25 11h39.52.549381 +0100,
vertical.xlsx,The target is tilted.,135,14,6,1,1,1,1,1,1,1,1,1,1,1,1,1,0,11,12,135,space,7.5791644999999335,None,1,1,0.8697181000002274,None,space,1.8145473999998103,None,0,0,0,1,,,,,1,6,14,0,112.4518051,,,,,,,,,,,,,,,,,,,,,112.4359728999998,112.4518051,112.93509670000003,112.93953179999971,112.9513606999999,113.83529449999969,,,,,113.83550289999994,113.85062629999993,114.05106739999974,114.03489509999963,112.9513606999999,,,,,,,,1,1,0.8697181000002274,None,,,,,,,,895,22,M,L,2026-02-25_11h39.52.353,VisualSearch_2526_3,,2025.2.4,2026-02-25 11h39.52.549381 +0100,
vertical.xlsx,The target is tilted.,135,15,7,1,0,0,0,0,0,0,0,0,0,0,0,0,1,1,1,135,space,7.5791644999999335,None,0,1,0.6691898999997647,None,space,1.8145473999998103,None,0,0,0,1,,,,,1,7,15,7,114.05106739999974,,,,,,,,,,,,,,,,,,,,,114.03568779999978,114.05106739999974,114.53474849999975,114.53944609999962,114.55408360000001,115.23430869999993,,,,,115.23451720000003,115.24998069999992,115.45031819999986,115.43401859999994,114.55408360000001,,,,,,,,0,1,0.6691898999997647,None,,,,,,,,895,22,M,L,2026-02-25_11h39.52.353,VisualSearch_2526_3,,2025.2.4,2026-02-25 11h39.52.549381 +0100,
vertical.xlsx,The target is tilted.,135,16,0,2,1,1,1,1,0,0,0,0,0,0,0,0,0,3,4,135,space,7.5791644999999335,None,1,1,1.353490100000272,None,space,1.8145473999998103,None,0,0,0,1,,,,,2,0,16,2,115.45031819999986,,,,,,,,,,,,,,,,,,,,,115.43439669999998,115.45031819999986,115.93413539999983,115.9389698,115.9534735999996,117.31704049999962,,,,,117.31719249999969,117.33242199999995,117.53270359999988,117.51658099999986,115.9534735999996,,,,,,,,1,1,1.353490100000272,None,,,,,,,,895,22,M,L,2026-02-25_11h39.52.353,VisualSearch_2526_3,,2025.2.4,2026-02-25 11h39.52.549381 +0100,
vertical.xlsx,The target is tilted.,135,17,1,2,1,0,0,0,0,0,0,0,0,0,0,0,0,0,1,135,space,7.5791644999999335,None,1,1,0.8764794999997321,None,space,1.8145473999998103,None,0,0,0,1,,,,,2,1,17,3,117.53270359999988,,,,,,,,,,,,,,,,,,,,,117.51731519999976,117.53270359999988,118.01634189999959,118.02103259999967,118.03678009999976,118.9164323,,,,,118.91663010000002,118.93168089999972,119.13201379999964,119.11600299999964,118.03678009999976,,,,,,,,1,1,0.8764794999997321,None,,,,,,,,895,22,M,L,2026-02-25_11h39.52.353,VisualSearch_2526_3,,2025.2.4,2026-02-25 11h39.52.549381 +0100,
vertical.xlsx,The target is tilted.,135,18,2,2,1,1,1,1,1,1,1,1,1,1,1,1,0,11,12,135,space,7.5791644999999335,None,0,0,2.1290994999999384,None,space,1.8145473999998103,None,0,0,0,1,,,,,2,2,18,0,119.13201379999964,,,,,,,,,,,,,,,,,,,,,119.11673149999979,119.13201379999964,119.61577769999985,119.62047629999961,119.63617599999998,121.7813498999999,,,,,121.7815585999997,121.79699959999971,121.99758639999982,121.98130199999969,119.63617599999998,,,,,,,,0,0,2.1290994999999384,None,,,,,,,,895,22,M,L,2026-02-25_11h39.52.353,VisualSearch_2526_3,,2025.2.4,2026-02-25 11h39.52.549381 +0100,
vertical.xlsx,The target is tilted.,135,19,3,2,0,1,1,1,0,0,0,0,0,0,0,0,1,3,4,135,space,7.5791644999999335,None,0,1,0.6114846999998917,None,space,1.8145473999998103,None,0,0,0,1,,,,,2,3,19,6,121.99758639999982,,,,,,,,,,,,,,,,,,,,,121.98206399999981,121.99758639999982,122.48103069999979,122.48581749999994,122.5021343999997,123.1148675999998,,,,,123.11510689999977,123.12971729999981,123.33024479999995,123.3140755999998,122.5021343999997,,,,,,,,0,1,0.6114846999998917,None,,,,,,,,895,22,M,L,2026-02-25_11h39.52.353,VisualSearch_2526_3,,2025.2.4,2026-02-25 11h39.52.549381 +0100,
vertical.xlsx,The target is tilted.,135,20,4,2,1,1,1,1,1,1,1,1,0,0,0,0,0,7,8,135,space,7.5791644999999335,None,1,1,0.8933029999998325,None,space,1.8145473999998103,None,0,0,0,1,,,,,2,4,20,1,123.33024479999995,,,,,,,,,,,,,,,,,,,,,123.3149027999998,123.33024479999995,123.81385099999989,123.81857569999966,123.83233559999962,124.73011569999971,,,,,124.73027649999995,124.74567699999989,124.94611399999985,124.92989219999981,123.83233559999962,,,,,,,,1,1,0.8933029999998325,None,,,,,,,,895,22,M,L,2026-02-25_11h39.52.353,VisualSearch_2526_3,,2025.2.4,2026-02-25 11h39.52.549381 +0100,
vertical.xlsx,The target is tilted.,135,21,5,2,0,0,0,0,0,0,0,0,0,0,0,0,1,1,1,135,space,7.5791644999999335,None,0,1,0.747584800000368,None,space,1.8145473999998103,None,0,0,0,1,,,,,2,5,21,7,124.94611399999985,,,,,,,,,,,,,,,,,,,,,124.9306403999999,124.94611399999985,125.42940669999962,125.4321261,125.44574130000001,126.19632069999989,,,,,126.1964581999996,126.21172049999996,126.4121255,126.39604289999988,125.44574130000001,,,,,,,,0,1,0.747584800000368,None,,,,,,,,895,22,M,L,2026-02-25_11h39.52.353,VisualSearch_2526_3,,2025.2.4,2026-02-25 11h39.52.549381 +0100,
vertical.xlsx,The target is tilted.,135,22,6,2,0,1,1,1,1,1,1,1,0,0,0,0,1,7,8,135,space,7.5791644999999335,None,0,1,2.20020199999999,None,space,1.8145473999998103,None,0,0,0,1,,,,,2,6,22,5,126.4121255,,,,,,,,,,,,,,,,,,,,,126.3967760999999,126.4121255,126.8958147999997,126.90049209999961,126.91619629999968,129.12811269999975,,,,,129.12821669999994,129.1435373999998,129.3437240999997,129.32811730000003,126.91619629999968,,,,,,,,0,1,2.20020199999999,None,,,,,,,,895,22,M,L,2026-02-25_11h39.52.353,VisualSearch_2526_3,,2025.2.4,2026-02-25 11h39.52.549381 +0100,
vertical.xlsx,The target is tilted.,135,23,7,2,0,1,1,1,1,1,1,1,1,1,1,1,1,11,12,135,space,7.5791644999999335,None,0,1,1.8294549000002007,None,space,1.8145473999998103,None,0,0,0,1,,,,,2,7,23,4,129.3437240999997,,,,,,,,,,,,,,,,,,,,,129.32884839999997,129.3437240999997,129.82764719999977,129.83231249999972,129.84701099999984,131.69300459999977,,,,,131.6931373999996,131.70953059999965,131.90954029999966,131.89333719999968,129.84701099999984,,,,,,,,0,1,1.8294549000002007,None,,,,,,,,895,22,M,L,2026-02-25_11h39.52.353,VisualSearch_2526_3,,2025.2.4,2026-02-25 11h39.52.549381 +0100,
vertical.xlsx,The target is tilted.,135,24,0,3,0,1,1,1,1,1,1,1,1,1,1,1,1,11,12,135,space,7.5791644999999335,None,0,1,2.1796736000001147,None,space,1.8145473999998103,None,0,0,0,1,,,,,3,0,24,4,131.90954029999966,,,,,,,,,,,,,,,,,,,,,131.8941864999997,131.90954029999966,132.39342969999961,132.39816329999985,132.41348929999958,134.60872729999983,,,,,134.60891019999963,134.62450109999963,134.82482419999997,134.8087191999998,132.41348929999958,,,,,,,,0,1,2.1796736000001147,None,,,,,,,,895,22,M,L,2026-02-25_11h39.52.353,VisualSearch_2526_3,,2025.2.4,2026-02-25 11h39.52.549381 +0100,
vertical.xlsx,The target is tilted.,135,25,1,3,0,0,0,0,0,0,0,0,0,0,0,0,1,1,1,135,space,7.5791644999999335,None,0,1,0.5565387000001465,None,space,1.8145473999998103,None,0,0,0,1,,,,,3,1,25,7,134.82482419999997,,,,,,,,,,,,,,,,,,,,,134.8094788999997,134.82482419999997,135.30838969999968,135.3129673999997,135.32464179999988,135.89174269999967,,,,,135.89188299999978,135.90721089999988,136.10755649999965,136.09151249999968,135.32464179999988,,,,,,,,0,1,0.5565387000001465,None,,,,,,,,895,22,M,L,2026-02-25_11h39.52.353,VisualSearch_2526_3,,2025.2.4,2026-02-25 11h39.52.549381 +0100,
vertical.xlsx,The target is tilted.,135,26,2,3,0,1,1,1,0,0,0,0,0,0,0,0,1,3,4,135,space,7.5791644999999335,None,0,1,0.7978092999996989,None,space,1.8145473999998103,None,0,0,0,1,,,,,3,2,26,6,136.10755649999965,,,,,,,,,,,,,,,,,,,,,136.09225319999996,136.10755649999965,136.5912605999997,136.59594279999965,136.60976119999987,137.42348249999986,,,,,137.4236163999999,137.4402639,,137.62381349999987,136.60976119999987,,,,,,,,0,1,0.7978092999996989,None,,,,,,,,895,22,M,L,2026-02-25_11h39.52.353,VisualSearch_2526_3,,2025.2.4,2026-02-25 11h39.52.549381 +0100,
vertical.xlsx,The target is tilted.,135,27,3,3,0,1,1,1,1,1,1,1,0,0,0,0,1,7,8,135,space,7.5791644999999335,None,0,1,1.5192839000001186,None,space,1.8145473999998103,None,0,0,0,1,,,,,3,3,27,5,137.64030619999994,,,,,,,,,,,,,,,,,,,,,137.6246882999999,137.64030619999994,138.12372789999972,138.1283140999999,138.13943819999986,139.67280319999963,,,,,139.67295669999976,139.68888629999992,139.88902519999965,139.8732258,,,,,,,,,0,1,1.5192839000001186,None,,,,,,,,895,22,M,L,2026-02-25_11h39.52.353,VisualSearch_2526_3,,2025.2.4,2026-02-25 11h39.52.549381 +0100,
vertical.xlsx,The target is tilted.,135,28,4,3,1,1,1,1,0,0,0,0,0,0,0,0,0,3,4,135,space,7.5791644999999335,None,0,0,1.2738741999996819,None,space,1.8145473999998103,None,0,0,0,1,,,,,3,4,28,2,139.88902519999965,,,,,,,,,,,,,,,,,,,,,139.8740502999999,139.88902519999965,140.3730029999997,140.3777258,140.39332990000003,141.67267019999963,,,,,141.6728492999996,141.68795339999997,141.8881864,141.8721959999998,140.39332990000003,,,,,,,,0,0,1.2738741999996819,None,,,,,,,,895,22,M,L,2026-02-25_11h39.52.353,VisualSearch_2526_3,,2025.2.4,2026-02-25 11h39.52.549381 +0100,
vertical.xlsx,The target is tilted.,135,29,5,3,1,1,1,1,1,1,1,1,0,0,0,0,0,7,8,135,space,7.5791644999999335,None,1,1,2.238839999999982,None,space,1.8145473999998103,None,0,0,0,1,,,,,3,5,29,1,141.8881864,,,,,,,,,,,,,,,,,,,,,141.87297149999995,141.8881864,142.37208039999996,142.37679469999966,142.3923765999998,144.6381953,,,,,144.6383965,144.65328789999967,144.8537749999996,144.83767519999992,142.3923765999998,,,,,,,,1,1,2.238839999999982,None,,,,,,,,895,22,M,L,2026-02-25_11h39.52.353,VisualSearch_2526_3,,2025.2.4,2026-02-25 11h39.52.549381 +0100,
vertical.xlsx,The target is tilted.,135,30,6,3,1,0,0,0,0,0,0,0,0,0,0,0,0,0,1,135,space,7.5791644999999335,None,1,1,0.6226211999996849,None,space,1.8145473999998103,None,0,0,0,1,,,,,3,6,30,3,144.8537749999996,,,,,,,,,,,,,,,,,,,,,144.83839689999968,144.8537749999996,145.33749699999998,145.3420483,145.35346629999958,145.9876492999997,,,,,145.98785019999968,146.0026957,146.20311599999968,146.18688969999994,145.35346629999958,,,,,,,,1,1,0.6226211999996849,None,,,,,,,,895,22,M,L,2026-02-25_11h39.52.353,VisualSearch_2526_3,,2025.2.4,2026-02-25 11h39.52.549381 +0100,
vertical.xlsx,The target is tilted.,135,31,7,3,1,1,1,1,1,1,1,1,1,1,1,1,0,11,12,135,space,7.5791644999999335,None,1,1,2.417517599999883,None,space,1.8145473999998103,None,0,0,0,1,,,,,3,7,31,0,146.20311599999968,,,,,,,,,,,,,,,,,,,,,146.18764639999972,146.20311599999968,146.6868245999999,146.69145200000003,146.70669989999988,149.1364934999997,,,,,149.13673579999977,149.15119479999976,149.35177759999988,149.33566129999963,146.70669989999988,,,,,,,,1,1,2.417517599999883,None,,,,,,,,895,22,M,L,2026-02-25_11h39.52.353,VisualSearch_2526_3,,2025.2.4,2026-02-25 11h39.52.549381 +0100,
vertical.xlsx,The target is tilted.,135,32,0,4,1,1,1,1,1,1,1,1,0,0,0,0,0,7,8,135,space,7.5791644999999335,None,1,1,1.4529231999999865,None,space,1.8145473999998103,None,0,0,0,1,,,,,4,0,32,1,149.35177759999988,,,,,,,,,,,,,,,,,,,,,149.3363632999999,149.35177759999988,149.83540079999966,149.84017409999979,149.8536627999997,151.31869639999968,,,,,151.31894479999983,151.3336793999997,151.5340296999998,151.51795319999974,149.8536627999997,,,,,,,,1,1,1.4529231999999865,None,,,,,,,,895,22,M,L,2026-02-25_11h39.52.353,VisualSearch_2526_3,,2025.2.4,2026-02-25 11h39.52.549381 +0100,
vertical.xlsx,The target is tilted.,135,33,1,4,1,1,1,1,1,1,1,1,1,1,1,1,0,11,12,135,space,7.5791644999999335,None,1,1,1.1622201000000132,None,space,1.8145473999998103,None,0,0,0,1,,,,,4,1,33,0,151.5340296999998,,,,,,,,,,,,,,,,,,,,,151.51870959999997,151.5340296999998,152.01774469999964,152.02246309999964,152.0378879,153.21706799999993,,,,,153.21728319999966,153.2327581999998,153.43298829999958,153.41662610000003,152.0378879,,,,,,,,1,1,1.1622201000000132,None,,,,,,,,895,22,M,L,2026-02-25_11h39.52.353,VisualSearch_2526_3,,2025.2.4,2026-02-25 11h39.52.549381 +0100,
vertical.xlsx,The target is tilted.,135,34,2,4,0,1,1,1,1,1,1,1,0,0,0,0,1,7,8,135,space,7.5791644999999335,None,0,1,3.178614699999798,None,space,1.8145473999998103,None,0,0,0,1,,,,,4,2,34,5,153.43298829999958,,,,,,,,,,,,,,,,,,,,,153.41696860000002,153.43298829999958,153.91684269999996,153.92150569999967,153.9341761999999,157.1165664,,,,,157.11678669999992,157.13098199999968,157.33120169999984,157.31530239999984,153.9341761999999,,,,,,,,0,1,3.178614699999798,None,,,,,,,,895,22,M,L,2026-02-25_11h39.52.353,VisualSearch_2526_3,,2025.2.4,2026-02-25 11h39.52.549381 +0100,
vertical.xlsx,The target is tilted.,135,35,3,4,0,0,0,0,0,0,0,0,0,0,0,0,1,1,1,135,space,7.5791644999999335,None,0,1,0.6253391999998712,None,space,1.8145473999998103,None,0,0,0,1,,,,,4,3,35,7,157.33120169999984,,,,,,,,,,,,,,,,,,,,,157.3160524,157.33120169999984,157.81509229999983,157.8198967999997,157.83597949999967,158.46425249999993,,,,,158.46435119999978,158.4801180999998,158.6807458999997,158.66460099999995,157.83597949999967,,,,,,,,0,1,0.6253391999998712,None,,,,,,,,895,22,M,L,2026-02-25_11h39.52.353,VisualSearch_2526_3,,2025.2.4,2026-02-25 11h39.52.549381 +0100,
vertical.xlsx,The target is tilted.,135,36,4,4,0,1,1,1,1,1,1,1,1,1,1,1,1,11,12,135,space,7.5791644999999335,None,0,1,2.311991599999601,None,space,1.8145473999998103,None,0,0,0,1,,,,,4,4,36,4,158.6807458999997,,,,,,,,,,,,,,,,,,,,,158.6653710999999,158.6807458999997,159.16437869999982,159.16795860000002,159.1804728999996,161.49683619999996,,,,,161.49701819999973,161.5123212999997,161.7127419999997,161.69662459999972,159.1804728999996,,,,,,,,0,1,2.311991599999601,None,,,,,,,,895,22,M,L,2026-02-25_11h39.52.353,VisualSearch_2526_3,,2025.2.4,2026-02-25 11h39.52.549381 +0100,
vertical.xlsx,The target is tilted.,135,37,5,4,1,1,1,1,0,0,0,0,0,0,0,0,0,3,4,135,space,7.5791644999999335,None,1,1,0.8664426000000276,None,space,1.8145473999998103,None,0,0,0,1,,,,,4,5,37,2,161.7127419999997,,,,,,,,,,,,,,,,,,,,,161.6973721999998,161.7127419999997,162.19635059999973,162.2011066,162.21684819999973,163.0960774,,,,,163.0962784999997,163.11156409999967,163.3119425,163.2958411999998,162.21684819999973,,,,,,,,1,1,0.8664426000000276,None,,,,,,,,895,22,M,L,2026-02-25_11h39.52.353,VisualSearch_2526_3,,2025.2.4,2026-02-25 11h39.52.549381 +0100,
vertical.xlsx,The target is tilted.,135,38,6,4,0,1,1,1,0,0,0,0,0,0,0,0,1,3,4,135,space,7.5791644999999335,None,0,1,0.9914079999998648,None,space,1.8145473999998103,None,0,0,0,1,,,,,4,6,38,6,163.3119425,,,,,,,,,,,,,,,,,,,,,163.2966007,163.3119425,163.79524059999994,163.7999117999998,163.8141741999998,164.8122269999999,,,,,164.81240549999984,164.82747579999977,165.0276560999996,165.01167579999992,163.8141741999998,,,,,,,,0,1,0.9914079999998648,None,,,,,,,,895,22,M,L,2026-02-25_11h39.52.353,VisualSearch_2526_3,,2025.2.4,2026-02-25 11h39.52.549381 +0100,
vertical.xlsx,The target is tilted.,135,39,7,4,1,0,0,0,0,0,0,0,0,0,0,0,0,0,1,135,space,7.5791644999999335,None,1,1,0.7872999000001073,None,space,1.8145473999998103,None,0,0,0,1,,,,,4,7,39,3,165.0276560999996,,,,,,,,,,,,,,,,,,,,,165.0124297999996,165.0276560999996,165.51153039999963,165.51633399999992,165.53278079999973,166.32843269999967,,,,,166.32863409999982,166.3434674,166.54383559999997,166.5277213999998,165.53278079999973,,,,,,,,1,1,0.7872999000001073,None,,,,,,,,895,22,M,L,2026-02-25_11h39.52.353,VisualSearch_2526_3,,2025.2.4,2026-02-25 11h39.52.549381 +0100,
vertical.xlsx,The target is tilted.,135,40,0,5,0,1,1,1,1,1,1,1,1,1,1,1,1,11,12,135,space,7.5791644999999335,None,0,1,3.4047583999999915,None,space,1.8145473999998103,None,0,0,0,1,,,,,5,0,40,4,166.54383559999997,,,,,,,,,,,,,,,,,,,,,166.5285087999996,166.54383559999997,167.02753069999972,167.03220379999993,167.04349430000002,170.4595965999997,,,,,170.45977839999978,170.4749643,170.67532059999985,170.65903229999958,167.04349430000002,,,,,,,,0,1,3.4047583999999915,None,,,,,,,,895,22,M,L,2026-02-25_11h39.52.353,VisualSearch_2526_3,,2025.2.4,2026-02-25 11h39.52.549381 +0100,
vertical.xlsx,The target is tilted.,135,41,1,5,1,1,1,1,1,1,1,1,0,0,0,0,0,7,8,135,space,7.5791644999999335,None,1,1,1.3222112000003108,None,space,1.8145473999998103,None,0,0,0,1,,,,,5,1,41,1,170.67532059999985,,,,,,,,,,,,,,,,,,,,,170.65979219999963,170.67532059999985,171.1589388999996,171.1637292999999,171.17844989999958,172.50830529999985,,,,,172.50846019999972,172.52395009999964,172.72397899999987,172.7081008,171.17844989999958,,,,,,,,1,1,1.3222112000003108,None,,,,,,,,895,22,M,L,2026-02-25_11h39.52.353,VisualSearch_2526_3,,2025.2.4,2026-02-25 11h39.52.549381 +0100,
vertical.xlsx,The target is tilted.,135,42,2,5,1,0,0,0,0,0,0,0,0,0,0,0,0,0,1,135,space,7.5791644999999335,None,1,1,0.6055774999999812,None,space,1.8145473999998103,None,0,0,0,1,,,,,5,2,42,3,172.72397899999987,,,,,,,,,,,,,,,,,,,,,172.70886149999978,172.72397899999987,173.20819819999997,173.21290969999973,173.22845159999997,173.84092029999965,,,,,173.8410128999999,173.8565122,174.05710979999958,174.04090749999978,173.22845159999997,,,,,,,,1,1,0.6055774999999812,None,,,,,,,,895,22,M,L,2026-02-25_11h39.52.353,VisualSearch_2526_3,,2025.2.4,2026-02-25 11h39.52.549381 +0100,
vertical.xlsx,The target is tilted.,135,43,3,5,0,1,1,1,1,1,1,1,0,0,0,0,1,7,8,135,space,7.5791644999999335,None,0,1,2.7658430999999837,None,space,1.8145473999998103,None,0,0,0,1,,,,,5,3,43,5,174.05710979999958,,,,,,,,,,,,,,,,,,,,,174.04166609999993,174.05710979999958,174.54074479999963,174.54545519999965,174.56182679999984,177.33968939999977,,,,,177.3398585,177.35511259999976,177.55566339999996,177.53930149999997,174.56182679999984,,,,,,,,0,1,2.7658430999999837,None,,,,,,,,895,22,M,L,2026-02-25_11h39.52.353,VisualSearch_2526_3,,2025.2.4,2026-02-25 11h39.52.549381 +0100,
vertical.xlsx,The target is tilted.,135,44,4,5,1,1,1,1,0,0,0,0,0,0,0,0,0,3,4,135,space,7.5791644999999335,None,1,1,0.7454136999999719,None,space,1.8145473999998103,None,0,0,0,1,,,,,5,4,44,2,177.55566339999996,,,,,,,,,,,,,,,,,,,,,177.5400394999997,177.55566339999996,178.0390153999997,178.04372639999974,178.0584759999997,178.80569979999973,,,,,178.80588249999983,178.82112179999967,179.0216207999997,179.0053399999997,178.0584759999997,,,,,,,,1,1,0.7454136999999719,None,,,,,,,,895,22,M,L,2026-02-25_11h39.52.353,VisualSearch_2526_3,,2025.2.4,2026-02-25 11h39.52.549381 +0100,
vertical.xlsx,The target is tilted.,135,45,5,5,0,0,0,0,0,0,0,0,0,0,0,0,1,1,1,135,space,7.5791644999999335,None,0,1,0.6960785000001124,None,space,1.8145473999998103,None,0,0,0,1,,,,,5,5,45,7,179.0216207999997,,,,,,,,,,,,,,,,,,,,,179.00606249999964,179.0216207999997,179.50530200000003,179.50994139999966,179.52124779999986,180.2217968,,,,,180.22201039999982,180.23713099999986,180.43762259999994,180.42135459999963,179.52124779999986,,,,,,,,0,1,0.6960785000001124,None,,,,,,,,895,22,M,L,2026-02-25_11h39.52.353,VisualSearch_2526_3,,2025.2.4,2026-02-25 11h39.52.549381 +0100,
vertical.xlsx,The target is tilted.,135,46,6,5,1,1,1,1,1,1,1,1,1,1,1,1,0,11,12,135,space,7.5791644999999335,None,1,1,2.54384409999966,None,space,1.8145473999998103,None,0,0,0,1,,,,,5,6,46,0,180.43762259999994,,,,,,,,,,,,,,,,,,,,,180.42209269999967,180.43762259999994,180.92119169999978,180.92588739999974,180.93945919999987,183.48650839999982,,,,,183.4866665999998,183.50230220000003,183.70240879999983,183.6864013999998,180.93945919999987,,,,,,,,1,1,2.54384409999966,None,,,,,,,,895,22,M,L,2026-02-25_11h39.52.353,VisualSearch_2526_3,,2025.2.4,2026-02-25 11h39.52.549381 +0100,
vertical.xlsx,The target is tilted.,135,47,7,5,0,1,1,1,0,0,0,0,0,0,0,0,1,3,4,135,space,7.5791644999999335,None,0,1,0.7610349999999926,None,space,1.8145473999998103,None,0,0,0,1,,,,,5,7,47,6,183.70240879999983,,,,,,,,,,,,,,,,,,,,,183.68712609999966,183.70240879999983,184.18642229999978,184.19109409999965,184.20617429999993,184.96987469999976,,,,,184.97009659999958,184.98482309999963,185.18549109999958,185.16913299999987,184.20617429999993,,,,,,,,0,1,0.7610349999999926,None,,,,,,,,895,22,M,L,2026-02-25_11h39.52.353,VisualSearch_2526_3,,2025.2.4,2026-02-25 11h39.52.549381 +0100,
vertical.xlsx,The target is tilted.,135,48,0,6,0,1,1,1,1,1,1,1,0,0,0,0,1,7,8,135,space,7.5791644999999335,None,0,1,1.946836600000097,None,space,1.8145473999998103,None,0,0,0,1,,,,,6,0,48,5,185.18549109999958,,,,,,,,,,,,,,,,,,,,,185.16985009999962,185.18549109999958,185.66887689999976,185.67355439999983,185.68840899999987,187.65126029999965,,,,,187.6514413,187.66705239999965,187.86757609999995,187.85135049999963,185.68840899999987,,,,,,,,0,1,1.946836600000097,None,,,,,,,,895,22,M,L,2026-02-25_11h39.52.353,VisualSearch_2526_3,,2025.2.4,2026-02-25 11h39.52.549381 +0100,
vertical.xlsx,The target is tilted.,135,49,1,6,0,1,1,1,0,0,0,0,0,0,0,0,1,3,4,135,space,7.5791644999999335,None,0,1,0.7601755000000594,None,space,1.8145473999998103,None,0,0,0,1,,,,,6,1,49,6,187.86757609999995,,,,,,,,,,,,,,,,,,,,,187.85210209999968,187.86757609999995,188.3511795999998,188.35593549999976,188.37239639999962,189.13449519999995,,,,,189.1346569999996,189.14970539999968,189.35021039999992,189.3340463999998,188.37239639999962,,,,,,,,0,1,0.7601755000000594,None,,,,,,,,895,22,M,L,2026-02-25_11h39.52.353,VisualSearch_2526_3,,2025.2.4,2026-02-25 11h39.52.549381 +0100,
vertical.xlsx,The target is tilted.,135,50,2,6,0,0,0,0,0,0,0,0,0,0,0,0,1,1,1,135,space,7.5791644999999335,None,0,1,0.5219983000001776,None,space,1.8145473999998103,None,0,0,0,1,,,,,6,2,50,7,189.35021039999992,,,,,,,,,,,,,,,,,,,,,189.33484329999965,189.35021039999992,189.8338607999999,189.83861129999968,189.8536353999998,190.3841720999999,,,,,190.38437209999984,190.39914359999966,190.59953819999964,190.58315619999985,189.8536353999998,,,,,,,,0,1,0.5219983000001776,None,,,,,,,,895,22,M,L,2026-02-25_11h39.52.353,VisualSearch_2526_3,,2025.2.4,2026-02-25 11h39.52.549381 +0100,
vertical.xlsx,The target is tilted.,135,51,3,6,1,1,1,1,0,0,0,0,0,0,0,0,0,3,4,135,space,7.5791644999999335,None,1,1,0.728075600000011,None,space,1.8145473999998103,None,0,0,0,1,,,,,6,3,51,2,190.59953819999964,,,,,,,,,,,,,,,,,,,,,190.58391329999995,190.59953819999964,191.08327009999994,191.08801670000003,191.10344069999974,191.83339239999987,,,,,191.8335860999996,191.84839899999997,192.04885749999994,192.03283769999962,191.10344069999974,,,,,,,,1,1,0.728075600000011,None,,,,,,,,895,22,M,L,2026-02-25_11h39.52.353,VisualSearch_2526_3,,2025.2.4,2026-02-25 11h39.52.549381 +0100,
vertical.xlsx,The target is tilted.,135,52,4,6,1,0,0,0,0,0,0,0,0,0,0,0,0,0,1,135,space,7.5791644999999335,None,1,1,0.542628700000023,None,space,1.8145473999998103,None,0,0,0,1,,,,,6,4,52,3,192.04885749999994,,,,,,,,,,,,,,,,,,,,,192.03360109999994,192.04885749999994,192.53257339999982,192.53728359999968,192.55242369999996,193.09875039999997,,,,,193.09889039999962,193.11444139999958,193.31505519999973,193.29858429999967,192.55242369999996,,,,,,,,1,1,0.542628700000023,None,,,,,,,,895,22,M,L,2026-02-25_11h39.52.353,VisualSearch_2526_3,,2025.2.4,2026-02-25 11h39.52.549381 +0100,
vertical.xlsx,The target is tilted.,135,53,5,6,0,1,1,1,1,1,1,1,1,1,1,1,1,11,12,135,space,7.5791644999999335,None,0,1,4.152745500000037,None,space,1.8145473999998103,None,0,0,0,1,,,,,6,5,53,4,193.31505519999973,,,,,,,,,,,,,,,,,,,,,193.2993704999999,193.31505519999973,193.79832269999997,193.8029260999997,193.8176540999998,197.98035299999992,,,,,197.98052069999994,197.99577499999987,198.1961065999999,198.17993079999997,193.8176540999998,,,,,,,,0,1,4.152745500000037,None,,,,,,,,895,22,M,L,2026-02-25_11h39.52.353,VisualSearch_2526_3,,2025.2.4,2026-02-25 11h39.52.549381 +0100,
vertical.xlsx,The target is tilted.,135,54,6,6,1,1,1,1,1,1,1,1,0,0,0,0,0,7,8,135,space,7.5791644999999335,None,1,1,1.0502477,None,space,1.8145473999998103,None,0,0,0,1,,,,,6,6,54,1,198.1961065999999,,,,,,,,,,,,,,,,,,,,,198.18071559999998,198.1961065999999,198.67976199999976,198.6844718999996,198.69883679999975,199.7621896999999,,,,,199.76232759999994,199.77824999999984,199.97842949999995,199.96256389999962,198.69883679999975,,,,,,,,1,1,1.0502477,None,,,,,,,,895,22,M,L,2026-02-25_11h39.52.353,VisualSearch_2526_3,,2025.2.4,2026-02-25 11h39.52.549381 +0100,
vertical.xlsx,The target is tilted.,135,55,7,6,1,1,1,1,1,1,1,1,1,1,1,1,0,11,12,135,space,7.5791644999999335,None,0,0,3.2989474000000882,None,space,1.8145473999998103,None,0,0,0,1,,,,,6,7,55,0,199.97842949999995,,,,,,,,,,,,,,,,,,,,,199.9633629,199.97842949999995,200.46230849999984,200.46699919999992,200.48252639999964,203.79362979999996,,,,,203.79376860000002,203.8096118999997,,203.99387239999987,200.48252639999964,,,,,,,,0,0,3.2989474000000882,None,,,,,,,,895,22,M,L,2026-02-25_11h39.52.353,VisualSearch_2526_3,,2025.2.4,2026-02-25 11h39.52.549381 +0100,
vertical.xlsx,The target is tilted.,135,56,0,7,1,1,1,1,1,1,1,1,0,0,0,0,0,7,8,135,space,7.5791644999999335,None,1,1,0.6645602999997209,None,space,1.8145473999998103,None,0,0,0,1,,,,,7,0,56,1,204.01013160000002,,,,,,,,,,,,,,,,,,,,,203.99467069999992,204.01013160000002,204.49384689999988,204.4986027,204.51306399999976,205.19339109999964,,,,,205.19361019999997,205.20905139999968,205.4094885999998,205.39337299999988,204.51306399999976,,,,,,,,1,1,0.6645602999997209,None,,,,,,,,895,22,M,L,2026-02-25_11h39.52.353,VisualSearch_2526_3,,2025.2.4,2026-02-25 11h39.52.549381 +0100,
vertical.xlsx,The target is tilted.,135,57,1,7,0,1,1,1,1,1,1,1,1,1,1,1,1,11,12,135,space,7.5791644999999335,None,0,1,1.934758299999885,None,space,1.8145473999998103,None,0,0,0,1,,,,,7,1,57,4,205.4094885999998,,,,,,,,,,,,,,,,,,,,,205.3942050999999,205.4094885999998,205.89314879999984,205.89785759999995,205.91300479999973,207.85848309999983,,,,,207.85856160000003,207.87442499999997,208.07504119999976,208.0585271,205.91300479999973,,,,,,,,0,1,1.934758299999885,None,,,,,,,,895,22,M,L,2026-02-25_11h39.52.353,VisualSearch_2526_3,,2025.2.4,2026-02-25 11h39.52.549381 +0100,
vertical.xlsx,The target is tilted.,135,58,2,7,1,1,1,1,0,0,0,0,0,0,0,0,0,3,4,135,space,7.5791644999999335,None,1,1,0.5016356000000997,None,space,1.8145473999998103,None,0,0,0,1,,,,,7,2,58,2,208.07504119999976,,,,,,,,,,,,,,,,,,,,,208.05929070000002,208.07504119999976,208.55819549999978,208.56279219999988,208.5779981999999,209.0919546,,,,,209.09215429999995,209.10729719999972,209.3076434999998,209.29161889999978,208.5779981999999,,,,,,,,1,1,0.5016356000000997,None,,,,,,,,895,22,M,L,2026-02-25_11h39.52.353,VisualSearch_2526_3,,2025.2.4,2026-02-25 11h39.52.549381 +0100,
vertical.xlsx,The target is tilted.,135,59,3,7,1,1,1,1,1,1,1,1,1,1,1,1,0,11,12,135,space,7.5791644999999335,None,1,1,1.539837499999976,None,space,1.8145473999998103,None,0,0,0,1,,,,,7,3,59,0,209.3076434999998,,,,,,,,,,,,,,,,,,,,,209.2923982999996,209.3076434999998,209.79139369999984,209.79609279999977,209.81218790000003,211.35740869999972,,,,,211.35755659999995,211.37283409999964,211.57336259999965,211.5569435999996,209.81218790000003,,,,,,,,1,1,1.539837499999976,None,,,,,,,,895,22,M,L,2026-02-25_11h39.52.353,VisualSearch_2526_3,,2025.2.4,2026-02-25 11h39.52.549381 +0100,
vertical.xlsx,The target is tilted.,135,60,4,7,0,1,1,1,1,1,1,1,0,0,0,0,1,7,8,135,space,7.5791644999999335,None,0,1,2.013601000000108,None,space,1.8145473999998103,None,0,0,0,1,,,,,7,4,60,5,211.57336259999965,,,,,,,,,,,,,,,,,,,,,211.55766719999974,211.57336259999965,212.05706359999976,212.06177979999984,212.07718099999965,214.10556769999994,,,,,214.10568769999963,214.1220959999996,,214.30588139999963,212.07718099999965,,,,,,,,0,1,2.013601000000108,None,,,,,,,,895,22,M,L,2026-02-25_11h39.52.353,VisualSearch_2526_3,,2025.2.4,2026-02-25 11h39.52.549381 +0100,
vertical.xlsx,The target is tilted.,135,61,5,7,0,0,0,0,0,0,0,0,0,0,0,0,1,1,1,135,space,7.5791644999999335,None,0,1,0.5955045999999129,None,space,1.8145473999998103,None,0,0,0,1,,,,,7,5,61,7,214.32215659999974,,,,,,,,,,,,,,,,,,,,,214.3066378999997,214.32215659999974,214.80578399999968,214.81041419999974,214.82483539999976,215.42241209999975,,,,,215.42261019999978,215.43773859999965,215.63818649999985,215.62186099999963,214.82483539999976,,,,,,,,0,1,0.5955045999999129,None,,,,,,,,895,22,M,L,2026-02-25_11h39.52.353,VisualSearch_2526_3,,2025.2.4,2026-02-25 11h39.52.549381 +0100,
vertical.xlsx,The target is tilted.,135,62,6,7,0,1,1,1,0,0,0,0,0,0,0,0,1,3,4,135,space,7.5791644999999335,None,0,1,0.6104919000003974,None,space,1.8145473999998103,None,0,0,0,1,,,,,7,6,62,6,215.63818649999985,,,,,,,,,,,,,,,,,,,,,215.62257639999962,215.63818649999985,216.12181169999985,216.1265272999999,216.14168019999988,216.75518859999966,,,,,216.75536620000003,216.77052579999963,216.9709112999999,216.9544847999996,216.14168019999988,,,,,,,,0,1,0.6104919000003974,None,,,,,,,,895,22,M,L,2026-02-25_11h39.52.353,VisualSearch_2526_3,,2025.2.4,2026-02-25 11h39.52.549381 +0100,
vertical.xlsx,The target is tilted.,135,63,7,7,1,0,0,0,0,0,0,0,0,0,0,0,0,0,1,135,space,7.5791644999999335,None,1,1,0.6394989000000351,None,space,1.8145473999998103,None,0,0,0,1,,,,,7,7,63,3,216.9709112999999,,,,,,,,,,,,,,,,,,,,,216.95527569999967,216.9709112999999,217.45440680000002,217.45904949999976,217.47412319999967,218.1213957,,,,,218.12157479999996,218.1365298999999,218.3370544999998,218.32079169999997,217.47412319999967,,,,,,,,1,1,0.6394989000000351,None,,,,,,,,895,22,M,L,2026-02-25_11h39.52.353,VisualSearch_2526_3,,2025.2.4,2026-02-25 11h39.52.549381 +0100,
vertical.xlsx,The target is tilted.,135,64,0,8,1,1,1,1,1,1,1,1,0,0,0,0,0,7,8,135,space,7.5791644999999335,None,1,1,1.4634838000001764,None,space,1.8145473999998103,None,0,0,0,1,,,,,8,0,64,1,218.3370544999998,,,,,,,,,,,,,,,,,,,,,218.32153319999998,218.3370544999998,218.82058979999965,218.8252196999997,218.8417869,220.3203254,,,,,220.32050479999998,220.33556120000003,220.53604059999998,220.5197162999998,218.8417869,,,,,,,,1,1,1.4634838000001764,None,,,,,,,,895,22,M,L,2026-02-25_11h39.52.353,VisualSearch_2526_3,,2025.2.4,2026-02-25 11h39.52.549381 +0100,
vertical.xlsx,The target is tilted.,135,65,1,8,0,1,1,1,1,1,1,1,0,0,0,0,1,7,8,135,space,7.5791644999999335,None,0,1,1.7958940000003167,None,space,1.8145473999998103,None,0,0,0,1,,,,,8,1,65,5,220.53604059999998,,,,,,,,,,,,,,,,,,,,,220.52045809999981,220.53604059999998,221.01957989999983,221.02431479999996,221.03995529999975,222.85211789999994,,,,,222.8523464,222.86777029999985,223.06780899999967,223.05209259999992,221.03995529999975,,,,,,,,0,1,1.7958940000003167,None,,,,,,,,895,22,M,L,2026-02-25_11h39.52.353,VisualSearch_2526_3,,2025.2.4,2026-02-25 11h39.52.549381 +0100,
vertical.xlsx,The target is tilted.,135,66,2,8,1,1,1,1,0,0,0,0,0,0,0,0,0,3,4,135,space,7.5791644999999335,None,0,0,0.8980007000000114,None,space,1.8145473999998103,None,0,0,0,1,,,,,8,2,66,2,223.06780899999967,,,,,,,,,,,,,,,,,,,,,223.05281560000003,223.06780899999967,223.55182179999974,223.5565013999999,223.5716680999999,224.4845164999997,,,,,224.4846938999999,224.50033949999988,224.70042779999994,224.6847375999996,223.5716680999999,,,,,,,,0,0,0.8980007000000114,None,,,,,,,,895,22,M,L,2026-02-25_11h39.52.353,VisualSearch_2526_3,,2025.2.4,2026-02-25 11h39.52.549381 +0100,
vertical.xlsx,The target is tilted.,135,67,3,8,0,0,0,0,0,0,0,0,0,0,0,0,1,1,1,135,space,7.5791644999999335,None,0,1,0.509161700000277,None,space,1.8145473999998103,None,0,0,0,1,,,,,8,3,67,7,224.70042779999994,,,,,,,,,,,,,,,,,,,,,224.68547790000002,224.70042779999994,225.18444549999958,225.18910179999966,225.20260039999994,225.71795529999963,,,,,225.7181541,225.73310989999982,225.9333445999996,225.91712389999975,225.20260039999994,,,,,,,,0,1,0.509161700000277,None,,,,,,,,895,22,M,L,2026-02-25_11h39.52.353,VisualSearch_2526_3,,2025.2.4,2026-02-25 11h39.52.549381 +0100,
vertical.xlsx,The target is tilted.,135,68,4,8,1,1,1,1,1,1,1,1,1,1,1,1,0,11,12,135,space,7.5791644999999335,None,1,1,1.4606425000001764,None,space,1.8145473999998103,None,0,0,0,1,,,,,8,4,68,0,225.9333445999996,,,,,,,,,,,,,,,,,,,,,225.91785140000002,225.9333445999996,226.41720689999966,226.42160729999978,226.43274729999985,227.9004528999999,,,,,227.90065129999994,227.91547939999964,228.1158929999997,228.09960709999996,226.43274729999985,,,,,,,,1,1,1.4606425000001764,None,,,,,,,,895,22,M,L,2026-02-25_11h39.52.353,VisualSearch_2526_3,,2025.2.4,2026-02-25 11h39.52.549381 +0100,
vertical.xlsx,The target is tilted.,135,69,5,8,1,0,0,0,0,0,0,0,0,0,0,0,0,0,1,135,space,7.5791644999999335,None,1,1,0.5695894999998927,None,space,1.8145473999998103,None,0,0,0,1,,,,,8,5,69,3,228.1158929999997,,,,,,,,,,,,,,,,,,,,,228.10034129999985,228.1158929999997,228.59949369999958,228.6040721999998,228.6199349999997,229.19923609999978,,,,,229.1994279999999,229.21481789999962,229.41535889999977,229.3990048999999,228.6199349999997,,,,,,,,1,1,0.5695894999998927,None,,,,,,,,895,22,M,L,2026-02-25_11h39.52.353,VisualSearch_2526_3,,2025.2.4,2026-02-25 11h39.52.549381 +0100,
vertical.xlsx,The target is tilted.,135,70,6,8,0,1,1,1,1,1,1,1,1,1,1,1,1,11,12,135,space,7.5791644999999335,None,0,1,4.960118099999818,None,space,1.8145473999998103,None,0,0,0,1,,,,,8,6,70,4,229.41535889999977,,,,,,,,,,,,,,,,,,,,,229.39977399999998,229.41535889999977,229.89885149999964,229.90329329999986,229.91497459999982,234.88047639999968,,,,,234.88068889999977,234.89551819999997,235.0960997999996,235.0798946,229.91497459999982,,,,,,,,0,1,4.960118099999818,None,,,,,,,,895,22,M,L,2026-02-25_11h39.52.353,VisualSearch_2526_3,,2025.2.4,2026-02-25 11h39.52.549381 +0100,
vertical.xlsx,The target is tilted.,135,71,7,8,0,1,1,1,0,0,0,0,0,0,0,0,1,3,4,135,space,7.5791644999999335,None,0,1,1.1780433999997513,None,space,1.8145473999998103,None,0,0,0,1,,,,,8,7,71,6,235.0960997999996,,,,,,,,,,,,,,,,,,,,,235.08066289999988,235.0960997999996,235.5796674999997,235.58415809999997,235.59575339999992,236.7796527999999,,,,,236.77984949999973,236.79474949999985,236.9951970999996,236.97892779999984,235.59575339999992,,,,,,,,0,1,1.1780433999997513,None,,,,,,,,895,22,M,L,2026-02-25_11h39.52.353,VisualSearch_2526_3,,2025.2.4,2026-02-25 11h39.52.549381 +0100,
vertical.xlsx,The target is tilted.,135,72,0,9,1,1,1,1,0,0,0,0,0,0,0,0,0,3,4,135,space,7.5791644999999335,None,1,1,1.1084473000000798,None,space,1.8145473999998103,None,0,0,0,1,,,,,9,0,72,2,236.9951970999996,,,,,,,,,,,,,,,,,,,,,236.97966419999966,236.9951970999996,237.4785036999997,237.48302609999973,237.49791319999986,238.61125419999962,,,,,238.61135990000002,238.6272130999996,238.82776029999968,238.81152619999966,237.49791319999986,,,,,,,,1,1,1.1084473000000798,None,,,,,,,,895,22,M,L,2026-02-25_11h39.52.353,VisualSearch_2526_3,,2025.2.4,2026-02-25 11h39.52.549381 +0100,
vertical.xlsx,The target is tilted.,135,73,1,9,0,1,1,1,1,1,1,1,1,1,1,1,1,11,12,135,space,7.5791644999999335,None,0,1,1.9957522999998218,None,space,1.8145473999998103,None,0,0,0,1,,,,,9,1,73,4,238.82776029999968,,,,,,,,,,,,,,,,,,,,,238.81230479999977,238.82776029999968,239.3111686999996,239.31580499999973,239.33151899999984,241.34333089999973,,,,,241.3434675999997,241.3593208999996,241.5594375999999,241.54356419999976,239.33151899999984,,,,,,,,0,1,1.9957522999998218,None,,,,,,,,895,22,M,L,2026-02-25_11h39.52.353,VisualSearch_2526_3,,2025.2.4,2026-02-25 11h39.52.549381 +0100,
vertical.xlsx,The target is tilted.,135,74,2,9,0,1,1,1,1,1,1,1,0,0,0,0,1,7,8,135,space,7.5791644999999335,None,0,1,1.9435783999997511,None,space,1.8145473999998103,None,0,0,0,1,,,,,9,2,74,5,241.5594375999999,,,,,,,,,,,,,,,,,,,,,241.54436959999975,241.5594375999999,242.04344889999993,242.04813279999962,242.06366529999968,244.00953889999982,,,,,244.00973199999999,244.0247718999999,244.22518789999958,244.20877669999982,242.06366529999968,,,,,,,,0,1,1.9435783999997511,None,,,,,,,,895,22,M,L,2026-02-25_11h39.52.353,VisualSearch_2526_3,,2025.2.4,2026-02-25 11h39.52.549381 +0100,
vertical.xlsx,The target is tilted.,135,75,3,9,0,0,0,0,0,0,0,0,0,0,0,0,1,1,1,135,space,7.5791644999999335,None,0,1,0.5963833000000704,None,space,1.8145473999998103,None,0,0,0,1,,,,,9,3,75,7,244.22518789999958,,,,,,,,,,,,,,,,,,,,,244.20952149999994,244.22518789999958,244.7085517999999,244.71320259999993,244.72809199999983,245.32586059999994,,,,,245.3260350999999,245.34091249999983,245.54132570000002,245.5252906999999,244.72809199999983,,,,,,,,0,1,0.5963833000000704,None,,,,,,,,895,22,M,L,2026-02-25_11h39.52.353,VisualSearch_2526_3,,2025.2.4,2026-02-25 11h39.52.549381 +0100,
vertical.xlsx,The target is tilted.,135,76,4,9,1,1,1,1,1,1,1,1,1,1,1,1,0,11,12,135,space,7.5791644999999335,None,1,1,2.1454616000000897,None,space,1.8145473999998103,None,0,0,0,1,,,,,9,4,76,0,245.54132570000002,,,,,,,,,,,,,,,,,,,,,245.52602609999985,245.54132570000002,246.0248064999996,246.02941429999964,246.04411149999987,248.1906242,,,,,248.19079939999983,248.20623429999978,248.40624449999996,248.39016839999977,246.04411149999987,,,,,,,,1,1,2.1454616000000897,None,,,,,,,,895,22,M,L,2026-02-25_11h39.52.353,VisualSearch_2526_3,,2025.2.4,2026-02-25 11h39.52.549381 +0100,
vertical.xlsx,The target is tilted.,135,77,5,9,1,0,0,0,0,0,0,0,0,0,0,0,0,0,1,135,space,7.5791644999999335,None,1,1,0.7611311999999089,None,space,1.8145473999998103,None,0,0,0,1,,,,,9,5,77,3,248.40624449999996,,,,,,,,,,,,,,,,,,,,,248.3909153999998,248.40624449999996,248.8902604,248.89485319999994,248.90637639999977,249.673906,,,,,249.6741038,249.68885060000002,249.8892811999999,249.87313949999998,248.90637639999977,,,,,,,,1,1,0.7611311999999089,None,,,,,,,,895,22,M,L,2026-02-25_11h39.52.353,VisualSearch_2526_3,,2025.2.4,2026-02-25 11h39.52.549381 +0100,
vertical.xlsx,The target is tilted.,135,78,6,9,0,1,1,1,0,0,0,0,0,0,0,0,1,3,4,135,space,7.5791644999999335,None,0,1,0.8138936999998805,None,space,1.8145473999998103,None,0,0,0,1,,,,,9,6,78,6,249.8892811999999,,,,,,,,,,,,,,,,,,,,,249.87389889999986,249.8892811999999,250.37288739999985,250.3775197,250.39268169999968,251.22238679999964,,,,,251.22256119999975,251.23818669999991,251.43825329999981,251.42246929999965,250.39268169999968,,,,,,,,0,1,0.8138936999998805,None,,,,,,,,895,22,M,L,2026-02-25_11h39.52.353,VisualSearch_2526_3,,2025.2.4,2026-02-25 11h39.52.549381 +0100,
vertical.xlsx,The target is tilted.,135,79,7,9,1,1,1,1,1,1,1,1,0,0,0,0,0,7,8,135,space,7.5791644999999335,None,0,0,1.2734956999997848,None,space,1.8145473999998103,None,0,0,0,1,,,,,9,7,79,1,251.43825329999981,,,,,,,,,,,,,,,,,,,,,251.42324389999976,251.43825329999981,251.9222553999998,251.92695809999987,251.9428995999997,253.22216769999977,,,,,253.2228702999996,253.23721529999966,253.43776519999983,253.4215353999998,251.9428995999997,,,,,,,,0,0,1.2734956999997848,None,,,,,,,,895,22,M,L,2026-02-25_11h39.52.353,VisualSearch_2526_3,,2025.2.4,2026-02-25 11h39.52.549381 +0100,
vertical.xlsx,The target is tilted.,135,80,0,10,0,1,1,1,1,1,1,1,1,1,1,1,1,11,12,135,space,7.5791644999999335,None,0,1,2.667172500000106,None,space,1.8145473999998103,None,0,0,0,1,,,,,10,0,80,4,253.43776519999983,,,,,,,,,,,,,,,,,,,,,253.4223124,253.43776519999983,253.92104849999987,253.92572559999962,253.94070169999986,256.6204281,,,,,256.6205895999997,256.63568099999975,256.8359720999997,256.8196017999999,253.94070169999986,,,,,,,,0,1,2.667172500000106,None,,,,,,,,895,22,M,L,2026-02-25_11h39.52.353,VisualSearch_2526_3,,2025.2.4,2026-02-25 11h39.52.549381 +0100,
vertical.xlsx,The target is tilted.,135,81,1,10,1,0,0,0,0,0,0,0,0,0,0,0,0,0,1,135,space,7.5791644999999335,None,1,1,0.5674533000001247,None,space,1.8145473999998103,None,0,0,0,1,,,,,10,1,81,3,256.8359720999997,,,,,,,,,,,,,,,,,,,,,256.82033699999965,256.8359720999997,257.31974059999993,257.324423,257.33940589999975,257.9189842999999,,,,,257.9191099999998,257.93514419999974,258.13522139999986,258.11935049999965,257.33940589999975,,,,,,,,1,1,0.5674533000001247,None,,,,,,,,895,22,M,L,2026-02-25_11h39.52.353,VisualSearch_2526_3,,2025.2.4,2026-02-25 11h39.52.549381 +0100,
vertical.xlsx,The target is tilted.,135,82,2,10,0,0,0,0,0,0,0,0,0,0,0,0,1,1,1,135,space,7.5791644999999335,None,0,1,0.7699846999998954,None,space,1.8145473999998103,None,0,0,0,1,,,,,10,2,82,7,258.13522139999986,,,,,,,,,,,,,,,,,,,,,258.1201249999999,258.13522139999986,258.6191090999996,258.62429159999965,258.64090739999983,259.4194835999997,,,,,259.4196766,259.4344775999998,259.63488819999975,259.6184003999997,258.64090739999983,,,,,,,,0,1,0.7699846999998954,None,,,,,,,,895,22,M,L,2026-02-25_11h39.52.353,VisualSearch_2526_3,,2025.2.4,2026-02-25 11h39.52.549381 +0100,
vertical.xlsx,The target is tilted.,135,83,3,10,1,1,1,1,1,1,1,1,1,1,1,1,0,11,12,135,space,7.5791644999999335,None,1,1,1.1631250000000364,None,space,1.8145473999998103,None,0,0,0,1,,,,,10,3,83,0,259.63488819999975,,,,,,,,,,,,,,,,,,,,,259.61914369999977,259.63488819999975,260.1182706999998,260.1229688999997,260.13788369999975,261.31792159999986,,,,,261.3181419999996,261.3335275999998,261.53400969999984,261.51743579999993,260.13788369999975,,,,,,,,1,1,1.1631250000000364,None,,,,,,,,895,22,M,L,2026-02-25_11h39.52.353,VisualSearch_2526_3,,2025.2.4,2026-02-25 11h39.52.549381 +0100,
vertical.xlsx,The target is tilted.,135,84,4,10,0,1,1,1,0,0,0,0,0,0,0,0,1,3,4,135,space,7.5791644999999335,None,0,1,0.9244443999996292,None,space,1.8145473999998103,None,0,0,0,1,,,,,10,4,84,6,261.53400969999984,,,,,,,,,,,,,,,,,,,,,261.5181785,261.53400969999984,262.0176984,262.0221886999998,262.0372619999998,262.9675119999997,,,,,262.96772059999967,262.983291,263.1833563,263.1671626999996,262.0372619999998,,,,,,,,0,1,0.9244443999996292,None,,,,,,,,895,22,M,L,2026-02-25_11h39.52.353,VisualSearch_2526_3,,2025.2.4,2026-02-25 11h39.52.549381 +0100,
vertical.xlsx,The target is tilted.,135,85,5,10,0,1,1,1,1,1,1,1,0,0,0,0,1,7,8,135,space,7.5791644999999335,None,0,1,2.1373609000002034,None,space,1.8145473999998103,None,0,0,0,1,,,,,10,5,85,5,263.1833563,,,,,,,,,,,,,,,,,,,,,263.1679076999999,263.1833563,263.6669093999999,263.6716795999996,263.6864993999998,265.8324590999996,,,,,265.8325648,265.8485631999997,266.0484915999996,266.03248399999984,263.6864993999998,,,,,,,,0,1,2.1373609000002034,None,,,,,,,,895,22,M,L,2026-02-25_11h39.52.353,VisualSearch_2526_3,,2025.2.4,2026-02-25 11h39.52.549381 +0100,
vertical.xlsx,The target is tilted.,135,86,6,10,1,1,1,1,0,0,0,0,0,0,0,0,0,3,4,135,space,7.5791644999999335,None,1,1,0.6108475999999428,None,space,1.8145473999998103,None,0,0,0,1,,,,,10,6,86,2,266.0484915999996,,,,,,,,,,,,,,,,,,,,,266.03324369999973,266.0484915999996,266.53220650000003,266.53695359999983,266.5515883999997,267.16548269999976,,,,,267.1656444,267.1813024999997,267.3813637999997,267.36519009999984,266.5515883999997,,,,,,,,1,1,0.6108475999999428,None,,,,,,,,895,22,M,L,2026-02-25_11h39.52.353,VisualSearch_2526_3,,2025.2.4,2026-02-25 11h39.52.549381 +0100,
vertical.xlsx,The target is tilted.,135,87,7,10,1,1,1,1,1,1,1,1,0,0,0,0,0,7,8,135,space,7.5791644999999335,None,1,1,0.9800244000002749,None,space,1.8145473999998103,None,0,0,0,1,,,,,10,7,87,1,267.3813637999997,,,,,,,,,,,,,,,,,,,,,267.3659293999999,267.3813637999997,267.8650597999999,267.8695693999998,267.8845624999999,268.8810513999997,,,,,268.88114879999966,268.8968345999997,269.09736780000003,269.0810742999997,267.8845624999999,,,,,,,,1,1,0.9800244000002749,None,,,,,,,,895,22,M,L,2026-02-25_11h39.52.353,VisualSearch_2526_3,,2025.2.4,2026-02-25 11h39.52.549381 +0100,
vertical.xlsx,The target is tilted.,135,88,0,11,0,1,1,1,0,0,0,0,0,0,0,0,1,3,4,135,space,7.5791644999999335,None,0,1,1.225829900000008,None,space,1.8145473999998103,None,0,0,0,1,,,,,11,0,88,6,269.09736780000003,,,,,,,,,,,,,,,,,,,,,269.081858,269.09736780000003,269.58082669999976,269.5854599999998,269.5999419,270.8307913999997,,,,,270.8310194999999,270.8464350999998,271.04641409999977,271.03020339999966,269.5999419,,,,,,,,0,1,1.225829900000008,None,,,,,,,,895,22,M,L,2026-02-25_11h39.52.353,VisualSearch_2526_3,,2025.2.4,2026-02-25 11h39.52.549381 +0100,
vertical.xlsx,The target is tilted.,135,89,1,11,0,1,1,1,1,1,1,1,1,1,1,1,1,11,12,135,space,7.5791644999999335,None,0,1,2.2309516999998777,None,space,1.8145473999998103,None,0,0,0,1,,,,,11,1,89,4,271.04641409999977,,,,,,,,,,,,,,,,,,,,,271.03098249999994,271.04641409999977,271.5299213999997,271.53448419999995,271.5476768999997,273.79525639999974,,,,,273.7953373,273.8115886999999,274.0117459999997,273.9955286999998,271.5476768999997,,,,,,,,0,1,2.2309516999998777,None,,,,,,,,895,22,M,L,2026-02-25_11h39.52.353,VisualSearch_2526_3,,2025.2.4,2026-02-25 11h39.52.549381 +0100,
vertical.xlsx,The target is tilted.,135,90,2,11,1,0,0,0,0,0,0,0,0,0,0,0,0,0,1,135,space,7.5791644999999335,None,1,1,0.7350961000001917,None,space,1.8145473999998103,None,0,0,0,1,,,,,11,2,90,3,274.0117459999997,,,,,,,,,,,,,,,,,,,,,273.99628029999985,274.0117459999997,274.49475299999995,274.4992610999998,274.51470549999976,275.26225989999966,,,,,275.2624532,275.2774156999999,275.47776499999964,275.46151489999966,274.51470549999976,,,,,,,,1,1,0.7350961000001917,None,,,,,,,,895,22,M,L,2026-02-25_11h39.52.353,VisualSearch_2526_3,,2025.2.4,2026-02-25 11h39.52.549381 +0100,
vertical.xlsx,The target is tilted.,135,91,3,11,0,1,1,1,1,1,1,1,0,0,0,0,1,7,8,135,space,7.5791644999999335,None,0,1,3.45811969999977,None,space,1.8145473999998103,None,0,0,0,1,,,,,11,3,91,5,275.47776499999964,,,,,,,,,,,,,,,,,,,,,275.4622867999997,275.47776499999964,275.9612989999996,275.9656409999998,275.9774120999996,279.4431829,,,,,279.4433200999997,279.4587925999999,279.6590434999998,279.6429622999999,275.9774120999996,,,,,,,,0,1,3.45811969999977,None,,,,,,,,895,22,M,L,2026-02-25_11h39.52.353,VisualSearch_2526_3,,2025.2.4,2026-02-25 11h39.52.549381 +0100,
vertical.xlsx,The target is tilted.,135,92,4,11,1,1,1,1,1,1,1,1,0,0,0,0,0,7,8,135,space,7.5791644999999335,None,0,0,1.6606477000000268,None,space,1.8145473999998103,None,0,0,0,1,,,,,11,4,92,1,279.6590434999998,,,,,,,,,,,,,,,,,,,,,279.64375359999985,279.6590434999998,280.1427033,280.14727509999966,280.16185879999966,281.82571469999993,,,,,281.8259221999997,281.8413889999997,282.0412974999999,282.02485409999963,280.16185879999966,,,,,,,,0,0,1.6606477000000268,None,,,,,,,,895,22,M,L,2026-02-25_11h39.52.353,VisualSearch_2526_3,,2025.2.4,2026-02-25 11h39.52.549381 +0100,
vertical.xlsx,The target is tilted.,135,93,5,11,0,0,0,0,0,0,0,0,0,0,0,0,1,1,1,135,space,7.5791644999999335,None,0,1,0.7491172999998525,None,space,1.8145473999998103,None,0,0,0,1,,,,,11,5,93,7,282.0412974999999,,,,,,,,,,,,,,,,,,,,,282.0256098,282.0412974999999,282.5251103999999,282.5297905999996,282.5442283999996,283.30885209999997,,,,,283.3090447999998,283.32410249999975,283.5240709999998,283.5078564999999,282.5442283999996,,,,,,,,0,1,0.7491172999998525,None,,,,,,,,895,22,M,L,2026-02-25_11h39.52.353,VisualSearch_2526_3,,2025.2.4,2026-02-25 11h39.52.549381 +0100,
vertical.xlsx,The target is tilted.,135,94,6,11,1,1,1,1,1,1,1,1,1,1,1,1,0,11,12,135,space,7.5791644999999335,None,1,1,0.7355016999999862,None,space,1.8145473999998103,None,0,0,0,1,,,,,11,6,94,0,283.5240709999998,,,,,,,,,,,,,,,,,,,,,283.5085697999998,283.5240709999998,284.00770239999974,284.0122374999996,284.02741779999997,284.77373229999966,,,,,284.7739324999998,284.7898989,284.9899032999997,284.97380939999994,284.02741779999997,,,,,,,,1,1,0.7355016999999862,None,,,,,,,,895,22,M,L,2026-02-25_11h39.52.353,VisualSearch_2526_3,,2025.2.4,2026-02-25 11h39.52.549381 +0100,
vertical.xlsx,The target is tilted.,135,95,7,11,1,1,1,1,0,0,0,0,0,0,0,0,0,3,4,135,space,7.5791644999999335,None,1,1,0.5798504999997931,None,space,1.8145473999998103,None,0,0,0,1,,,,,11,7,95,2,284.9899032999997,,,,,,,,,,,,,,,,,,,,,284.9745694999997,284.9899032999997,285.4736429999998,285.47824969999965,285.49324039999965,286.0904937,,,,,286.090686,286.10612649999985,286.30617829999983,286.2898772999997,285.49324039999965,,,,,,,,1,1,0.5798504999997931,None,,,,,,,,895,22,M,L,2026-02-25_11h39.52.353,VisualSearch_2526_3,,2025.2.4,2026-02-25 11h39.52.549381 +0100,
vertical.xlsx,The target is tilted.,135,96,0,12,1,1,1,1,0,0,0,0,0,0,0,0,0,3,4,135,space,7.5791644999999335,None,1,1,0.8304291999997986,None,space,1.8145473999998103,None,0,0,0,1,,,,,12,0,96,2,286.30617829999983,,,,,,,,,,,,,,,,,,,,,286.2906349,286.30617829999983,286.7897261999997,286.7942346,286.8094980999999,287.6567054999996,,,,,287.6569040999998,287.67203599999993,287.8716787999997,287.8562350999996,286.8094980999999,,,,,,,,1,1,0.8304291999997986,None,,,,,,,,895,22,M,L,2026-02-25_11h39.52.353,VisualSearch_2526_3,,2025.2.4,2026-02-25 11h39.52.549381 +0100,
vertical.xlsx,The target is tilted.,135,97,1,12,1,0,0,0,0,0,0,0,0,0,0,0,0,0,1,135,space,7.5791644999999335,None,1,1,0.549585499999921,None,space,1.8145473999998103,None,0,0,0,1,,,,,12,1,97,3,287.8716787999997,,,,,,,,,,,,,,,,,,,,,287.8569140999998,287.8716787999997,288.35542559999976,288.3600687999997,288.3771184999996,288.9390188999996,,,,,288.9392356999997,288.9547705,289.1547320999998,289.1382759999997,288.3771184999996,,,,,,,,1,1,0.549585499999921,None,,,,,,,,895,22,M,L,2026-02-25_11h39.52.353,VisualSearch_2526_3,,2025.2.4,2026-02-25 11h39.52.549381 +0100,
vertical.xlsx,The target is tilted.,135,98,2,12,0,1,1,1,0,0,0,0,0,0,0,0,1,3,4,135,space,7.5791644999999335,None,0,1,1.6135016000002906,None,space,1.8145473999998103,None,0,0,0,1,,,,,12,2,98,6,289.1547320999998,,,,,,,,,,,,,,,,,,,,,289.1390471999998,289.1547320999998,289.6383751999997,289.64286449999963,289.65448279999964,291.2712398999997,,,,,291.27143469999965,291.2871166,291.487067,291.4705807,289.65448279999964,,,,,,,,0,1,1.6135016000002906,None,,,,,,,,895,22,M,L,2026-02-25_11h39.52.353,VisualSearch_2526_3,,2025.2.4,2026-02-25 11h39.52.549381 +0100,
vertical.xlsx,The target is tilted.,135,99,3,12,0,1,1,1,1,1,1,1,0,0,0,0,1,7,8,135,space,7.5791644999999335,None,0,1,1.6591608000003362,None,space,1.8145473999998103,None,0,0,0,1,,,,,12,3,99,5,291.487067,,,,,,,,,,,,,,,,,,,,,291.4713099999999,291.487067,291.97069809999994,291.9755015999999,291.9911248999997,293.6534324999998,,,,,293.65360929999997,293.66929279999977,293.8692411999996,293.8531227999997,291.9911248999997,,,,,,,,0,1,1.6591608000003362,None,,,,,,,,895,22,M,L,2026-02-25_11h39.52.353,VisualSearch_2526_3,,2025.2.4,2026-02-25 11h39.52.549381 +0100,
vertical.xlsx,The target is tilted.,135,100,4,12,1,1,1,1,1,1,1,1,0,0,0,0,0,7,8,135,space,7.5791644999999335,None,1,1,0.8324458000001869,None,space,1.8145473999998103,None,0,0,0,1,,,,,12,4,100,1,293.8692411999996,,,,,,,,,,,,,,,,,,,,,293.85387079999964,293.8692411999996,294.35300529999995,294.3576111999996,294.3726224999996,295.2196636999997,,,,,295.21986049999987,295.2353840999999,295.4353206999999,295.41898909999964,294.3726224999996,,,,,,,,1,1,0.8324458000001869,None,,,,,,,,895,22,M,L,2026-02-25_11h39.52.353,VisualSearch_2526_3,,2025.2.4,2026-02-25 11h39.52.549381 +0100,
vertical.xlsx,The target is tilted.,135,101,5,12,1,1,1,1,1,1,1,1,1,1,1,1,0,11,12,135,space,7.5791644999999335,None,1,1,1.8533425000000534,None,space,1.8145473999998103,None,0,0,0,1,,,,,12,5,101,0,295.4353206999999,,,,,,,,,,,,,,,,,,,,,295.4197286999997,295.4353206999999,295.9187757999998,295.9233402,295.9394379999999,297.8015370999997,,,,,297.80167379999966,297.8176017999999,298.0174794999998,298.0012909999996,295.9394379999999,,,,,,,,1,1,1.8533425000000534,None,,,,,,,,895,22,M,L,2026-02-25_11h39.52.353,VisualSearch_2526_3,,2025.2.4,2026-02-25 11h39.52.549381 +0100,
vertical.xlsx,The target is tilted.,135,102,6,12,0,1,1,1,1,1,1,1,1,1,1,1,1,11,12,135,space,7.5791644999999335,None,0,1,4.518631599999935,None,space,1.8145473999998103,None,0,0,0,1,,,,,12,6,102,4,298.0174794999998,,,,,,,,,,,,,,,,,,,,,298.0020459999996,298.0174794999998,298.50099039999986,298.50560099999984,298.51947679999967,303.04843589999973,,,,,303.04851069999995,303.0644705999998,303.26516909999964,303.24877609999976,298.51947679999967,,,,,,,,0,1,4.518631599999935,None,,,,,,,,895,22,M,L,2026-02-25_11h39.52.353,VisualSearch_2526_3,,2025.2.4,2026-02-25 11h39.52.549381 +0100,
vertical.xlsx,The target is tilted.,135,103,7,12,0,0,0,0,0,0,0,0,0,0,0,0,1,1,1,135,space,7.5791644999999335,None,0,1,0.7610196999999062,None,space,1.8145473999998103,None,0,0,0,1,,,,,12,7,103,7,303.26516909999964,,,,,,,,,,,,,,,,,,,,,303.2496136,303.26516909999964,303.74850259999994,303.75373279999985,303.7686765999997,304.5322852999998,,,,,304.53248399999984,304.54780589999973,304.7478116999996,304.7317558,303.7686765999997,,,,,,,,0,1,0.7610196999999062,None,,,,,,,,895,22,M,L,2026-02-25_11h39.52.353,VisualSearch_2526_3,,2025.2.4,2026-02-25 11h39.52.549381 +0100,
vertical.xlsx,The target is tilted.,135,104,0,13,0,1,1,1,0,0,0,0,0,0,0,0,1,3,4,135,space,7.5791644999999335,None,0,1,1.3393310000001293,None,space,1.8145473999998103,None,0,0,0,1,,,,,13,0,104,6,304.7478116999996,,,,,,,,,,,,,,,,,,,,,304.7325627,304.7478116999996,305.23040709999987,305.2322670999997,305.2467932999998,306.5977092999997,,,,,306.5979072,306.61356529999966,306.8135361999998,306.7974899999999,305.2467932999998,,,,,,,,0,1,1.3393310000001293,None,,,,,,,,895,22,M,L,2026-02-25_11h39.52.353,VisualSearch_2526_3,,2025.2.4,2026-02-25 11h39.52.549381 +0100,
vertical.xlsx,The target is tilted.,135,105,1,13,1,1,1,1,1,1,1,1,1,1,1,1,0,11,12,135,space,7.5791644999999335,None,0,0,1.7919005999997353,None,space,1.8145473999998103,None,0,0,0,1,,,,,13,1,105,0,306.8135361999998,,,,,,,,,,,,,,,,,,,,,306.7983204999996,306.8135361999998,307.2965022999997,307.30109539999967,307.3134877999996,309.1132825999998,,,,,309.11350019999963,309.1288381999998,309.3288924999997,309.3127792,307.3134877999996,,,,,,,,0,0,1.7919005999997353,None,,,,,,,,895,22,M,L,2026-02-25_11h39.52.353,VisualSearch_2526_3,,2025.2.4,2026-02-25 11h39.52.549381 +0100,
vertical.xlsx,The target is tilted.,135,106,2,13,0,1,1,1,1,1,1,1,0,0,0,0,1,7,8,135,space,7.5791644999999335,None,0,1,1.532000600000174,None,space,1.8145473999998103,None,0,0,0,1,,,,,13,2,106,5,309.3288924999997,,,,,,,,,,,,,,,,,,,,,309.3136064,309.3288924999997,309.81258909999997,309.817082,309.8286432,311.3624955,,,,,311.36269089999996,311.3774318999999,311.5777490999999,311.5617570999998,309.8286432,,,,,,,,0,1,1.532000600000174,None,,,,,,,,895,22,M,L,2026-02-25_11h39.52.353,VisualSearch_2526_3,,2025.2.4,2026-02-25 11h39.52.549381 +0100,
vertical.xlsx,The target is tilted.,135,107,3,13,0,1,1,1,1,1,1,1,1,1,1,1,1,11,12,135,space,7.5791644999999335,None,0,1,2.3472477000000254,None,space,1.8145473999998103,None,0,0,0,1,,,,,13,3,107,4,311.5777490999999,,,,,,,,,,,,,,,,,,,,,311.56252779999977,311.5777490999999,312.0612275999997,312.06584889999976,312.0802064999998,314.4436805999999,,,,,314.4437619999999,314.4597249999997,314.6598635999999,314.6438154999996,312.0802064999998,,,,,,,,0,1,2.3472477000000254,None,,,,,,,,895,22,M,L,2026-02-25_11h39.52.353,VisualSearch_2526_3,,2025.2.4,2026-02-25 11h39.52.549381 +0100,
vertical.xlsx,The target is tilted.,135,108,4,13,1,1,1,1,1,1,1,1,0,0,0,0,0,7,8,135,space,7.5791644999999335,None,1,1,0.5972008999997342,None,space,1.8145473999998103,None,0,0,0,1,,,,,13,4,108,1,314.6598635999999,,,,,,,,,,,,,,,,,,,,,314.64471109999977,314.6598635999999,315.1432215,315.1478181999996,315.1633671999998,315.7759879,,,,,315.77607069999976,315.79191089999995,315.9921664999997,315.9762578,315.1633671999998,,,,,,,,1,1,0.5972008999997342,None,,,,,,,,895,22,M,L,2026-02-25_11h39.52.353,VisualSearch_2526_3,,2025.2.4,2026-02-25 11h39.52.549381 +0100,
vertical.xlsx,The target is tilted.,135,109,5,13,1,1,1,1,0,0,0,0,0,0,0,0,0,3,4,135,space,7.5791644999999335,None,1,1,0.6770054000003256,None,space,1.8145473999998103,None,0,0,0,1,,,,,13,5,109,2,315.9921664999997,,,,,,,,,,,,,,,,,,,,,315.97698509999964,315.9921664999997,316.47625549999975,316.4808323999996,316.4965979999997,317.1759442999996,,,,,317.17611689999967,317.1916996,317.39198469999974,317.3760035,316.4965979999997,,,,,,,,1,1,0.6770054000003256,None,,,,,,,,895,22,M,L,2026-02-25_11h39.52.353,VisualSearch_2526_3,,2025.2.4,2026-02-25 11h39.52.549381 +0100,
vertical.xlsx,The target is tilted.,135,110,6,13,0,0,0,0,0,0,0,0,0,0,0,0,1,1,1,135,space,7.5791644999999335,None,0,1,0.6445317000002433,None,space,1.8145473999998103,None,0,0,0,1,,,,,13,6,110,7,317.39198469999974,,,,,,,,,,,,,,,,,,,,,317.3768097999996,317.39198469999974,317.8755355999997,317.8800888999999,317.8949597999999,318.54272489999994,,,,,318.54292609999993,318.5579628999999,318.7576758,318.7418768999996,317.8949597999999,,,,,,,,0,1,0.6445317000002433,None,,,,,,,,895,22,M,L,2026-02-25_11h39.52.353,VisualSearch_2526_3,,2025.2.4,2026-02-25 11h39.52.549381 +0100,
vertical.xlsx,The target is tilted.,135,111,7,13,1,0,0,0,0,0,0,0,0,0,0,0,0,0,1,135,space,7.5791644999999335,None,1,1,0.5157054000001153,None,space,1.8145473999998103,None,0,0,0,1,,,,,13,7,111,3,318.7576758,,,,,,,,,,,,,,,,,,,,,318.7426284999997,318.7576758,319.2412995999998,319.2460305999998,319.2618811999996,319.7913398999999,,,,,319.7914791999997,319.8071818999997,320.0075095999996,319.9914117999997,319.2618811999996,,,,,,,,1,1,0.5157054000001153,None,,,,,,,,895,22,M,L,2026-02-25_11h39.52.353,VisualSearch_2526_3,,2025.2.4,2026-02-25 11h39.52.549381 +0100,
vertical.xlsx,The target is tilted.,135,112,0,14,1,1,1,1,1,1,1,1,1,1,1,1,0,11,12,135,space,7.5791644999999335,None,1,1,1.1969757000001664,None,space,1.8145473999998103,None,0,0,0,1,,,,,14,0,112,0,320.0075095999996,,,,,,,,,,,,,,,,,,,,,319.9921145999997,320.0075095999996,320.4910321999996,320.49549439999964,320.50707859999966,321.70731469999964,,,,,321.707492,321.72336429999996,321.92326609999964,321.90714839999964,320.50707859999966,,,,,,,,1,1,1.1969757000001664,None,,,,,,,,895,22,M,L,2026-02-25_11h39.52.353,VisualSearch_2526_3,,2025.2.4,2026-02-25 11h39.52.549381 +0100,
vertical.xlsx,The target is tilted.,135,113,1,14,1,1,1,1,0,0,0,0,0,0,0,0,0,3,4,135,space,7.5791644999999335,None,1,1,1.2142268000002332,None,space,1.8145473999998103,None,0,0,0,1,,,,,14,1,113,2,321.92326609999964,,,,,,,,,,,,,,,,,,,,,321.9078897999998,321.92326609999964,322.4067335,322.4113023,322.4238332,323.6401649999998,,,,,323.6403610999996,323.6558355999996,323.85575359999984,323.83946719999994,322.4238332,,,,,,,,1,1,1.2142268000002332,None,,,,,,,,895,22,M,L,2026-02-25_11h39.52.353,VisualSearch_2526_3,,2025.2.4,2026-02-25 11h39.52.549381 +0100,
vertical.xlsx,The target is tilted.,135,114,2,14,1,0,0,0,0,0,0,0,0,0,0,0,0,0,1,135,space,7.5791644999999335,None,1,1,0.4611978999996609,None,space,1.8145473999998103,None,0,0,0,1,,,,,14,2,114,3,323.85575359999984,,,,,,,,,,,,,,,,,,,,,323.84022189999996,323.85575359999984,324.33928709999964,324.34384409999984,324.3554730999999,324.8231099999998,,,,,324.8233017999996,324.8385263,325.0385154999999,325.0223751999997,324.3554730999999,,,,,,,,1,1,0.4611978999996609,None,,,,,,,,895,22,M,L,2026-02-25_11h39.52.353,VisualSearch_2526_3,,2025.2.4,2026-02-25 11h39.52.549381 +0100,
vertical.xlsx,The target is tilted.,135,115,3,14,0,1,1,1,0,0,0,0,0,0,0,0,1,3,4,135,space,7.5791644999999335,None,0,1,1.163536799999747,None,space,1.8145473999998103,None,0,0,0,1,,,,,14,3,115,6,325.0385154999999,,,,,,,,,,,,,,,,,,,,,325.0231114999997,325.0385154999999,325.522113,325.5268065,325.54002169999967,326.70554189999984,,,,,326.7057393,326.7210427,326.9209579999997,326.90482189999966,325.54002169999967,,,,,,,,0,1,1.163536799999747,None,,,,,,,,895,22,M,L,2026-02-25_11h39.52.353,VisualSearch_2526_3,,2025.2.4,2026-02-25 11h39.52.549381 +0100,
vertical.xlsx,The target is tilted.,135,116,4,14,0,1,1,1,1,1,1,1,0,0,0,0,1,7,8,135,space,7.5791644999999335,None,0,1,2.185478399999738,None,space,1.8145473999998103,None,0,0,0,1,,,,,14,4,116,5,326.9209579999997,,,,,,,,,,,,,,,,,,,,,326.9055871999999,326.9209579999997,327.4045484999997,327.4064619999999,327.4203124999999,329.62073250000003,,,,,329.6209323999997,329.6362630999997,329.8362153999997,329.82011169999987,327.4203124999999,,,,,,,,0,1,2.185478399999738,None,,,,,,,,895,22,M,L,2026-02-25_11h39.52.353,VisualSearch_2526_3,,2025.2.4,2026-02-25 11h39.52.549381 +0100,
vertical.xlsx,The target is tilted.,135,117,5,14,1,1,1,1,1,1,1,1,0,0,0,0,0,7,8,135,space,7.5791644999999335,None,0,0,1.3859344000002238,None,space,1.8145473999998103,None,0,0,0,1,,,,,14,5,117,1,329.8362153999997,,,,,,,,,,,,,,,,,,,,,329.82083409999996,329.8362153999997,330.3198733999998,330.3249361999997,330.33885139999984,331.7365898999997,,,,,331.73678459999974,331.7517544999996,331.9519670999998,331.9357872999999,330.33885139999984,,,,,,,,0,0,1.3859344000002238,None,,,,,,,,895,22,M,L,2026-02-25_11h39.52.353,VisualSearch_2526_3,,2025.2.4,2026-02-25 11h39.52.549381 +0100,
vertical.xlsx,The target is tilted.,135,118,6,14,0,1,1,1,1,1,1,1,1,1,1,1,1,11,12,135,space,7.5791644999999335,None,0,1,2.7272100000000137,None,space,1.8145473999998103,None,0,0,0,1,,,,,14,6,118,4,331.9519670999998,,,,,,,,,,,,,,,,,,,,,331.93654119999974,331.9519670999998,332.4356587999996,332.44026259999964,332.4558727999997,335.18404919999966,,,,,335.1841849999996,335.20039499999984,335.4004659999996,335.38437239999985,332.4558727999997,,,,,,,,0,1,2.7272100000000137,None,,,,,,,,895,22,M,L,2026-02-25_11h39.52.353,VisualSearch_2526_3,,2025.2.4,2026-02-25 11h39.52.549381 +0100,
vertical.xlsx,The target is tilted.,135,119,7,14,0,0,0,0,0,0,0,0,0,0,0,0,1,1,1,135,space,7.5791644999999335,None,0,1,0.5493988999996873,None,space,1.8145473999998103,None,0,0,0,1,,,,,14,7,119,7,335.4004659999996,,,,,,,,,,,,,,,,,,,,,335.385135,335.4004659999996,335.8841521999998,335.88879039999983,335.9015492999997,336.46731969999973,,,,,336.46745599999986,336.4832855999998,336.6959230999996,336.6670455999997,335.9015492999997,,,,,,,,0,1,0.5493988999996873,None,,,,,,,,895,22,M,L,2026-02-25_11h39.52.353,VisualSearch_2526_3,,2025.2.4,2026-02-25 11h39.52.549381 +0100,
vertical.xlsx,The target is tilted.,135,0,0,0,,,,,,,,,,,,,,,,,space,7.5791644999999335,None,,,,,space,1.8145473999998103,None,0,0,0,1,,,,,,,,,,,,,,,,,,,,,,,,,,,,,,,,,,,,,,,,,,,,,,,,,,,,,,,,,,,,,,,895,22,M,L,2026-02-25_11h39.52.353,VisualSearch_2526_3,,2025.2.4,2026-02-25 11h39.52.549381 +0100,
tilted.xlsx,The target is tilted.,117,0,0,0,1,1,1,1,1,1,1,1,1,1,1,1,0,11,12,117,space,3.743442999999843,None,1,1,5.546065399999861,None,,,,0,1,1,0,0,0,0,0,,,,,340.47448929999973,,,,,,,,,,,,,,,336.6959230999996,336.6959230999996,336.6959230999996,space,3.743442999999843,None,340.4705590999997,340.47448929999973,340.96492999999964,340.96969379999973,340.98479199999974,346.5466016999999,1,1,5.546065399999861,None,346.5468498,346.5616356999999,346.76190959999985,346.7457026999996,,,,,,,,,,,,,,,,,,,,895,22,M,L,2026-02-25_11h39.52.353,VisualSearch_2526_3,,2025.2.4,2026-02-25 11h39.52.549381 +0100,
tilted.xlsx,The target is tilted.,117,1,1,0,1,1,1,1,1,1,1,1,0,0,0,0,0,7,8,117,space,3.743442999999843,None,1,1,1.1915479999997842,None,,,,0,1,1,0,0,1,1,1,,,,,346.76190959999985,,,,,,,,,,,,,,,,,,,,,346.74638149999964,346.76190959999985,347.24560789999987,347.2492622,347.2616542999999,348.46204149999994,1,1,1.1915479999997842,None,348.46223899999995,348.4774620999997,348.67780939999966,348.6615385,347.2616542999999,,,,,,,,,,,,,,,,,,,895,22,M,L,2026-02-25_11h39.52.353,VisualSearch_2526_3,,2025.2.4,2026-02-25 11h39.52.549381 +0100,
tilted.xlsx,The target is tilted.,117,2,2,0,0,1,1,1,1,1,1,1,1,1,1,1,1,11,12,117,space,3.743442999999843,None,1,0,4.188337900000079,None,,,,0,1,1,0,0,2,2,4,,,,,348.67780939999966,,,,,,,,,,,,,,,,,,,,,348.6622250999999,348.67780939999966,349.1613776999998,349.16604229999984,349.18146609999985,353.37609429999975,1,0,4.188337900000079,None,353.37627329999987,353.3921562999999,353.592263,353.57603979999976,349.18146609999985,,,,,,,,,,,,,,,,,,,895,22,M,L,2026-02-25_11h39.52.353,VisualSearch_2526_3,,2025.2.4,2026-02-25 11h39.52.549381 +0100,
tilted.xlsx,The target is tilted.,117,3,3,0,1,0,0,0,0,0,0,0,0,0,0,0,0,0,1,117,space,3.743442999999843,None,0,0,3.8395070999999916,None,,,,0,1,1,0,0,3,3,3,,,,,353.592263,,,,,,,,,,,,,,,,,,,,,353.57675259999996,353.592263,354.07561369999985,354.0804896999998,354.0939561,357.9413023999996,0,0,3.8395070999999916,None,357.9414935,357.95654879999984,358.15681449999965,358.14058499999965,354.0939561,,,,,,,,,,,,,,,,,,,895,22,M,L,2026-02-25_11h39.52.353,VisualSearch_2526_3,,2025.2.4,2026-02-25 11h39.52.549381 +0100,
tilted.xlsx,The target is tilted.,117,4,4,0,1,1,1,1,0,0,0,0,0,0,0,0,0,3,4,117,space,3.743442999999843,None,1,1,2.7406440999998267,None,,,,0,1,1,0,0,4,4,2,,,,,358.15681449999965,,,,,,,,,,,,,,,,,,,,,358.14128759999994,358.15681449999965,358.6403478999996,358.6449537999997,358.66032799999994,361.40613719999965,1,1,2.7406440999998267,None,361.4063443,361.42179469999974,361.62153709999984,361.6056706999998,358.66032799999994,,,,,,,,,,,,,,,,,,,895,22,M,L,2026-02-25_11h39.52.353,VisualSearch_2526_3,,2025.2.4,2026-02-25 11h39.52.549381 +0100,
tilted.xlsx,The target is tilted.,117,5,5,0,0,1,1,1,0,0,0,0,0,0,0,0,1,3,4,117,space,3.743442999999843,None,0,1,3.086851300000035,None,,,,0,1,1,0,0,5,5,6,,,,,361.62153709999984,,,,,,,,,,,,,,,,,,,,,361.60634779999964,361.62153709999984,362.10548359999984,362.1100357,362.12572969999974,365.2213219999999,0,1,3.086851300000035,None,365.22151289999965,365.2364511999999,365.4364562999999,365.42061449999983,362.12572969999974,,,,,,,,,,,,,,,,,,,895,22,M,L,2026-02-25_11h39.52.353,VisualSearch_2526_3,,2025.2.4,2026-02-25 11h39.52.549381 +0100,
tilted.xlsx,The target is tilted.,117,6,6,0,0,1,1,1,1,1,1,1,0,0,0,0,1,7,8,117,space,3.743442999999843,None,1,0,3.3870570999997653,None,,,,0,1,1,0,0,6,6,5,,,,,365.4364562999999,,,,,,,,,,,,,,,,,,,,,365.4213867999997,365.4364562999999,365.92034239999975,365.92507179999984,365.9409341999999,369.3355051999997,1,0,3.3870570999997653,None,369.3356389999999,369.3515389999998,369.55154489999995,369.5351228999998,365.9409341999999,,,,,,,,,,,,,,,,,,,895,22,M,L,2026-02-25_11h39.52.353,VisualSearch_2526_3,,2025.2.4,2026-02-25 11h39.52.549381 +0100,
tilted.xlsx,The target is tilted.,117,7,7,0,0,0,0,0,0,0,0,0,0,0,0,0,1,1,1,117,space,3.743442999999843,None,0,1,1.4519948999995904,None,,,,0,1,1,0,0,7,7,7,,,,,369.55154489999995,,,,,,,,,,,,,,,,,,,,,369.5358062,369.55154489999995,370.0353445999999,370.0399647999998,370.05564749999985,371.51788829999987,0,1,1.4519948999995904,None,371.51806209999995,371.5338746999996,371.73376499999995,371.71777269999984,370.05564749999985,,,,,,,,,,,,,,,,,,,895,22,M,L,2026-02-25_11h39.52.353,VisualSearch_2526_3,,2025.2.4,2026-02-25 11h39.52.549381 +0100,
tilted.xlsx,The target is tilted.,117,0,0,0,0,1,1,1,1,1,1,1,1,1,1,1,1,11,12,117,space,3.743442999999843,None,1,0,7.9109997999998996,None,space,3.4914318999999523,None,0,1,1,0,,,,,0,0,0,4,375.2613630999999,,,,,,,,,,,,,,,,,,,,,375.2575211999997,375.2613630999999,375.7489971,375.7537086999996,375.7684602999998,383.6963037999999,,,,,383.6965065999998,383.7117500999998,383.9117256999998,383.89562899999964,,371.72348459999967,371.73376499999995,371.73376499999995,375.2331955999998,space,3.4914318999999523,None,1,0,7.9109997999998996,None,,,,,,,,895,22,M,L,2026-02-25_11h39.52.353,VisualSearch_2526_3,,2025.2.4,2026-02-25 11h39.52.549381 +0100,
tilted.xlsx,The target is tilted.,117,1,1,0,0,0,0,0,0,0,0,0,0,0,0,0,1,1,1,117,space,3.743442999999843,None,0,1,1.0171060000002399,None,space,3.4914318999999523,None,0,1,1,0,,,,,0,1,1,7,383.9117256999998,,,,,,,,,,,,,,,,,,,,,383.8963564999999,383.9117256999998,384.39534509999976,384.4000738999998,384.41131289999976,385.4455017,,,,,385.4456952999999,385.4610054999998,385.6609592,385.64484319999974,384.41131289999976,,,,,,,,0,1,1.0171060000002399,None,,,,,,,,895,22,M,L,2026-02-25_11h39.52.353,VisualSearch_2526_3,,2025.2.4,2026-02-25 11h39.52.549381 +0100,
tilted.xlsx,The target is tilted.,117,2,2,0,0,1,1,1,0,0,0,0,0,0,0,0,1,3,4,117,space,3.743442999999843,None,0,1,2.0887918000003083,None,space,3.4914318999999523,None,0,1,1,0,,,,,0,2,2,6,385.6609592,,,,,,,,,,,,,,,,,,,,,385.64557669999976,385.6609592,386.1447019999996,386.1492519999997,386.16580589999967,388.2602039999997,,,,,388.26037829999996,388.2760060999999,388.4763561999998,388.4600773999996,386.16580589999967,,,,,,,,0,1,2.0887918000003083,None,,,,,,,,895,22,M,L,2026-02-25_11h39.52.353,VisualSearch_2526_3,,2025.2.4,2026-02-25 11h39.52.549381 +0100,
tilted.xlsx,The target is tilted.,117,3,3,0,1,0,0,0,0,0,0,0,0,0,0,0,0,0,1,117,space,3.743442999999843,None,1,1,3.2449016999999003,None,space,3.4914318999999523,None,0,1,1,0,,,,,0,3,3,3,388.4763561999998,,,,,,,,,,,,,,,,,,,,,388.46081849999973,388.4763561999998,388.95986449999964,388.9645412,388.9792438999998,392.2255673999998,,,,,392.22577,392.24122669999997,392.4408573999999,392.4244798,388.9792438999998,,,,,,,,1,1,3.2449016999999003,None,,,,,,,,895,22,M,L,2026-02-25_11h39.52.353,VisualSearch_2526_3,,2025.2.4,2026-02-25 11h39.52.549381 +0100,
tilted.xlsx,The target is tilted.,117,4,4,0,1,1,1,1,1,1,1,1,0,0,0,0,0,7,8,117,space,3.743442999999843,None,1,1,1.7452688999997008,None,space,3.4914318999999523,None,0,1,1,0,,,,,0,4,4,1,392.4408573999999,,,,,,,,,,,,,,,,,,,,,392.42485209999995,392.4408573999999,392.9249368999999,392.9294410999996,392.9403924999997,394.6911809999997,,,,,394.69137649999993,394.7067205999997,394.90640159999975,394.89072699999997,392.9403924999997,,,,,,,,1,1,1.7452688999997008,None,,,,,,,,895,22,M,L,2026-02-25_11h39.52.353,VisualSearch_2526_3,,2025.2.4,2026-02-25 11h39.52.549381 +0100,
tilted.xlsx,The target is tilted.,117,5,5,0,1,1,1,1,1,1,1,1,1,1,1,1,0,11,12,117,space,3.743442999999843,None,1,1,7.981742899999972,None,space,3.4914318999999523,None,0,1,1,0,,,,,0,5,5,0,394.90640159999975,,,,,,,,,,,,,,,,,,,,,394.8914222999997,394.90640159999975,395.3903266999996,395.39493049999965,395.40984839999965,403.4033325999999,,,,,403.40351889999965,403.41935509999985,403.6193863999997,403.60338349999984,395.40984839999965,,,,,,,,1,1,7.981742899999972,None,,,,,,,,895,22,M,L,2026-02-25_11h39.52.353,VisualSearch_2526_3,,2025.2.4,2026-02-25 11h39.52.549381 +0100,
tilted.xlsx,The target is tilted.,117,6,6,0,1,1,1,1,0,0,0,0,0,0,0,0,0,3,4,117,space,3.743442999999843,None,0,0,5.991747200000191,None,space,3.4914318999999523,None,0,1,1,0,,,,,0,6,6,2,403.6193863999997,,,,,,,,,,,,,,,,,,,,,403.6042914999998,403.6193863999997,404.10306679999985,404.10762769999974,404.12257039999986,410.1175865,,,,,410.11778149999964,410.1330574999997,410.3330982999996,410.3166501999999,404.12257039999986,,,,,,,,0,0,5.991747200000191,None,,,,,,,,895,22,M,L,2026-02-25_11h39.52.353,VisualSearch_2526_3,,2025.2.4,2026-02-25 11h39.52.549381 +0100,
tilted.xlsx,The target is tilted.,117,7,7,0,0,1,1,1,1,1,1,1,0,0,0,0,1,7,8,117,space,3.743442999999843,None,0,1,8.298772000000099,None,space,3.4914318999999523,None,0,1,1,0,,,,,0,7,7,5,410.3330982999996,,,,,,,,,,,,,,,,,,,,,410.3172169999998,410.3330982999996,410.81664249999994,410.8212311999996,410.8364649,419.1465060999999,,,,,419.14670369999976,419.1623706999999,419.3622476999999,419.34625879999976,410.8364649,,,,,,,,0,1,8.298772000000099,None,,,,,,,,895,22,M,L,2026-02-25_11h39.52.353,VisualSearch_2526_3,,2025.2.4,2026-02-25 11h39.52.549381 +0100,
tilted.xlsx,The target is tilted.,117,8,0,1,1,0,0,0,0,0,0,0,0,0,0,0,0,0,1,117,space,3.743442999999843,None,0,0,0.7695975999999973,None,space,3.4914318999999523,None,0,1,1,0,,,,,1,0,8,3,419.3622476999999,,,,,,,,,,,,,,,,,,,,,419.34695999999985,419.3622476999999,419.84595899999977,419.850547,419.8662353999998,420.64682649999986,,,,,420.64701509999986,420.66131799999994,420.8613766999997,420.8453244999996,419.8662353999998,,,,,,,,0,0,0.7695975999999973,None,,,,,,,,895,22,M,L,2026-02-25_11h39.52.353,VisualSearch_2526_3,,2025.2.4,2026-02-25 11h39.52.549381 +0100,
tilted.xlsx,The target is tilted.,117,9,1,1,0,1,1,1,1,1,1,1,1,1,1,1,1,11,12,117,space,3.743442999999843,None,1,0,3.0448483000000124,None,space,3.4914318999999523,None,0,1,1,0,,,,,1,1,9,4,420.8613766999997,,,,,,,,,,,,,,,,,,,,,420.8460516,420.8613766999997,421.34524079999983,421.35005839999985,421.3662513999998,424.4274124999997,,,,,424.4275607999998,424.4433558999999,424.6429016999996,424.6270528,421.3662513999998,,,,,,,,1,0,3.0448483000000124,None,,,,,,,,895,22,M,L,2026-02-25_11h39.52.353,VisualSearch_2526_3,,2025.2.4,2026-02-25 11h39.52.549381 +0100,
tilted.xlsx,The target is tilted.,117,10,2,1,1,1,1,1,1,1,1,1,1,1,1,1,0,11,12,117,space,3.743442999999843,None,1,1,1.194289900000058,None,space,3.4914318999999523,None,0,1,1,0,,,,,1,2,10,0,424.6429016999996,,,,,,,,,,,,,,,,,,,,,424.6278133999999,424.6429016999996,425.1268908999996,425.13143139999966,425.14657869999974,426.34312899999986,,,,,426.34326269999974,426.35898099999986,426.55891619999966,426.54394999999977,425.14657869999974,,,,,,,,1,1,1.194289900000058,None,,,,,,,,895,22,M,L,2026-02-25_11h39.52.353,VisualSearch_2526_3,,2025.2.4,2026-02-25 11h39.52.549381 +0100,
tilted.xlsx,The target is tilted.,117,11,3,1,0,1,1,1,0,0,0,0,0,0,0,0,1,3,4,117,space,3.743442999999843,None,0,1,1.2872510000001967,None,space,3.4914318999999523,None,0,1,1,0,,,,,1,3,11,6,426.55891619999966,,,,,,,,,,,,,,,,,,,,,426.5447500999999,426.55891619999966,427.04275039999993,427.0471978999999,427.05864399999973,428.35930559999997,,,,,428.3595,428.37475059999997,428.5748761,428.5583654999996,427.05864399999973,,,,,,,,0,1,1.2872510000001967,None,,,,,,,,895,22,M,L,2026-02-25_11h39.52.353,VisualSearch_2526_3,,2025.2.4,2026-02-25 11h39.52.549381 +0100,
tilted.xlsx,The target is tilted.,117,12,4,1,1,1,1,1,0,0,0,0,0,0,0,0,0,3,4,117,space,3.743442999999843,None,0,0,1.8967911000004278,None,space,3.4914318999999523,None,0,1,1,0,,,,,1,4,12,2,428.5748761,,,,,,,,,,,,,,,,,,,,,428.5590751,428.5748761,429.0582875,429.0629377999999,429.07800599999973,430.9908928,,,,,430.9911130999999,431.0068626999996,431.207003,431.19074219999993,429.07800599999973,,,,,,,,0,0,1.8967911000004278,None,,,,,,,,895,22,M,L,2026-02-25_11h39.52.353,VisualSearch_2526_3,,2025.2.4,2026-02-25 11h39.52.549381 +0100,
tilted.xlsx,The target is tilted.,117,13,5,1,0,1,1,1,1,1,1,1,0,0,0,0,1,7,8,117,space,3.743442999999843,None,1,0,1.4911143999997876,None,space,3.4914318999999523,None,0,1,1,0,,,,,1,5,13,5,431.207003,,,,,,,,,,,,,,,,,,,,,431.19150939999963,431.207003,431.6905087,431.6950952999996,431.71048249999967,433.2070114999997,,,,,433.20719499999996,433.22246029999997,433.4225558999997,433.4060024999999,431.71048249999967,,,,,,,,1,0,1.4911143999997876,None,,,,,,,,895,22,M,L,2026-02-25_11h39.52.353,VisualSearch_2526_3,,2025.2.4,2026-02-25 11h39.52.549381 +0100,
tilted.xlsx,The target is tilted.,117,14,6,1,1,1,1,1,1,1,1,1,0,0,0,0,0,7,8,117,space,3.743442999999843,None,1,1,0.723023000000012,None,space,3.4914318999999523,None,0,1,1,0,,,,,1,6,14,1,433.4225558999997,,,,,,,,,,,,,,,,,,,,,433.40672829999994,433.4225558999997,433.90624069999967,433.9108791999997,433.92643819999967,434.6564132999997,,,,,434.6566054,434.6716670999999,434.8715610999998,434.8556905999999,433.92643819999967,,,,,,,,1,1,0.723023000000012,None,,,,,,,,895,22,M,L,2026-02-25_11h39.52.353,VisualSearch_2526_3,,2025.2.4,2026-02-25 11h39.52.549381 +0100,
tilted.xlsx,The target is tilted.,117,15,7,1,0,0,0,0,0,0,0,0,0,0,0,0,1,1,1,117,space,3.743442999999843,None,1,0,0.6336504000000787,None,space,3.4914318999999523,None,0,1,1,0,,,,,1,7,15,7,434.8715610999998,,,,,,,,,,,,,,,,,,,,,434.8564371999996,434.8715610999998,435.35555239999985,435.36020459999963,435.37523269999974,436.02233849999993,,,,,436.0225164999997,436.0378939999996,436.2377918999996,436.22181039999987,435.37523269999974,,,,,,,,1,0,0.6336504000000787,None,,,,,,,,895,22,M,L,2026-02-25_11h39.52.353,VisualSearch_2526_3,,2025.2.4,2026-02-25 11h39.52.549381 +0100,
tilted.xlsx,The target is tilted.,117,16,0,2,1,1,1,1,1,1,1,1,0,0,0,0,0,7,8,117,space,3.743442999999843,None,0,0,0.3502548999999817,None,space,3.4914318999999523,None,0,1,1,0,,,,,2,0,16,1,436.2377918999996,,,,,,,,,,,,,,,,,,,,,436.2225609999996,436.2377918999996,436.7214257999999,436.72617569999966,436.74221239999997,437.10458759999983,,,,,437.10468779999974,437.1205493999996,437.3203825999999,437.3042989999999,436.74221239999997,,,,,,,,0,0,0.3502548999999817,None,,,,,,,,895,22,M,L,2026-02-25_11h39.52.353,VisualSearch_2526_3,,2025.2.4,2026-02-25 11h39.52.549381 +0100,
tilted.xlsx,The target is tilted.,117,17,1,2,0,1,1,1,1,1,1,1,0,0,0,0,1,7,8,117,space,3.743442999999843,None,1,0,0.6410240000000158,None,space,3.4914318999999523,None,0,1,1,0,,,,,2,1,17,5,437.3203825999999,,,,,,,,,,,,,,,,,,,,,437.3050785999999,437.3203825999999,437.80438989999993,437.8090588,437.8236333,438.4712373999996,,,,,438.47148479999987,438.48653609999974,438.6868664999997,438.67062369999985,437.8236333,,,,,,,,1,0,0.6410240000000158,None,,,,,,,,895,22,M,L,2026-02-25_11h39.52.353,VisualSearch_2526_3,,2025.2.4,2026-02-25 11h39.52.549381 +0100,
tilted.xlsx,The target is tilted.,117,18,2,2,1,1,1,1,1,1,1,1,1,1,1,1,0,11,12,117,space,3.743442999999843,None,0,0,3.262497500000336,None,space,3.4914318999999523,None,0,1,1,0,,,,,2,2,18,0,438.6868664999997,,,,,,,,,,,,,,,,,,,,,438.6713854999998,438.6868664999997,439.1700879,439.1745784,439.1886704999997,442.4525742999999,,,,,442.45271239999965,442.4680765999997,442.6682326,442.65213029999995,439.1886704999997,,,,,,,,0,0,3.262497500000336,None,,,,,,,,895,22,M,L,2026-02-25_11h39.52.353,VisualSearch_2526_3,,2025.2.4,2026-02-25 11h39.52.549381 +0100,
tilted.xlsx,The target is tilted.,117,19,3,2,0,1,1,1,1,1,1,1,1,1,1,1,1,11,12,117,space,3.743442999999843,None,1,0,0.8379406999997627,None,space,3.4914318999999523,None,0,1,1,0,,,,,2,3,19,4,442.6682326,,,,,,,,,,,,,,,,,,,,,442.6528669999998,442.6682326,443.1519718999998,443.1566183,443.17180599999983,444.01836219999996,,,,,444.01850799999966,444.0343157999996,444.2340422999996,444.2183222999997,443.17180599999983,,,,,,,,1,0,0.8379406999997627,None,,,,,,,,895,22,M,L,2026-02-25_11h39.52.353,VisualSearch_2526_3,,2025.2.4,2026-02-25 11h39.52.549381 +0100,
tilted.xlsx,The target is tilted.,117,20,4,2,1,0,0,0,0,0,0,0,0,0,0,0,0,0,1,117,space,3.743442999999843,None,1,1,1.012395799999922,None,space,3.4914318999999523,None,0,1,1,0,,,,,2,4,20,3,444.2340422999996,,,,,,,,,,,,,,,,,,,,,444.21910309999976,444.2340422999996,444.7180894999997,444.7226916999998,444.7383869999999,445.7673711999996,,,,,445.7674496999998,445.78340249999974,445.98319379999975,445.9670253999998,444.7383869999999,,,,,,,,1,1,1.012395799999922,None,,,,,,,,895,22,M,L,2026-02-25_11h39.52.353,VisualSearch_2526_3,,2025.2.4,2026-02-25 11h39.52.549381 +0100,
tilted.xlsx,The target is tilted.,117,21,5,2,0,1,1,1,0,0,0,0,0,0,0,0,1,3,4,117,space,3.743442999999843,None,1,0,1.1796281000001727,None,space,3.4914318999999523,None,0,1,1,0,,,,,2,5,21,6,445.98319379999975,,,,,,,,,,,,,,,,,,,,,445.9678466999999,445.98319379999975,446.46722269999964,446.4718291999998,446.4889513999997,447.68328599999995,,,,,447.68344209999987,447.6992274999998,447.8992350999997,447.8831565999999,446.4889513999997,,,,,,,,1,0,1.1796281000001727,None,,,,,,,,895,22,M,L,2026-02-25_11h39.52.353,VisualSearch_2526_3,,2025.2.4,2026-02-25 11h39.52.549381 +0100,
tilted.xlsx,The target is tilted.,117,22,6,2,0,0,0,0,0,0,0,0,0,0,0,0,1,1,1,117,space,3.743442999999843,None,0,1,0.653856899999937,None,space,3.4914318999999523,None,0,1,1,0,,,,,2,6,22,7,447.8992350999997,,,,,,,,,,,,,,,,,,,,,447.8839776,447.8992350999997,448.3825561999997,448.3871019999997,448.4005565999996,449.0657134999997,,,,,449.0658040999997,449.0814854,449.2820448999996,449.2658518999997,448.4005565999996,,,,,,,,0,1,0.653856899999937,None,,,,,,,,895,22,M,L,2026-02-25_11h39.52.353,VisualSearch_2526_3,,2025.2.4,2026-02-25 11h39.52.549381 +0100,
tilted.xlsx,The target is tilted.,117,23,7,2,1,1,1,1,0,0,0,0,0,0,0,0,0,3,4,117,space,3.743442999999843,None,1,1,1.6620062999995753,None,space,3.4914318999999523,None,0,1,1,0,,,,,2,7,23,2,449.2820448999996,,,,,,,,,,,,,,,,,,,,,449.2666147,449.2820448999996,449.7655842999998,449.77020539999967,449.7858268,451.4653010999996,,,,,451.46547629999986,451.48095609999973,451.68076219999966,451.6647707999996,449.7858268,,,,,,,,1,1,1.6620062999995753,None,,,,,,,,895,22,M,L,2026-02-25_11h39.52.353,VisualSearch_2526_3,,2025.2.4,2026-02-25 11h39.52.549381 +0100,
tilted.xlsx,The target is tilted.,117,24,0,3,1,1,1,1,0,0,0,0,0,0,0,0,0,3,4,117,space,3.743442999999843,None,1,1,0.992140500000005,None,space,3.4914318999999523,None,0,1,1,0,,,,,3,0,24,2,451.68076219999966,,,,,,,,,,,,,,,,,,,,,451.66562499999964,451.68076219999966,452.164264,452.16883579999967,452.18343879999975,453.1810711999997,,,,,453.18124569999964,453.1966874,453.3968571999999,453.3806116999999,452.18343879999975,,,,,,,,1,1,0.992140500000005,None,,,,,,,,895,22,M,L,2026-02-25_11h39.52.353,VisualSearch_2526_3,,2025.2.4,2026-02-25 11h39.52.549381 +0100,
tilted.xlsx,The target is tilted.,117,25,1,3,1,0,0,0,0,0,0,0,0,0,0,0,0,0,1,117,space,3.743442999999843,None,1,1,0.6514156999996885,None,space,3.4914318999999523,None,0,1,1,0,,,,,3,1,25,3,453.3968571999999,,,,,,,,,,,,,,,,,,,,,453.3814017999998,453.3968571999999,453.8804372999998,453.8851288999999,453.90112899999986,454.5640733,,,,,454.56426669999973,454.57921599999963,454.7794995999998,454.76330199999984,453.90112899999986,,,,,,,,1,1,0.6514156999996885,None,,,,,,,,895,22,M,L,2026-02-25_11h39.52.353,VisualSearch_2526_3,,2025.2.4,2026-02-25 11h39.52.549381 +0100,
tilted.xlsx,The target is tilted.,117,26,2,3,0,1,1,1,1,1,1,1,1,1,1,1,1,11,12,117,space,3.743442999999843,None,1,0,1.5522679999999127,None,space,3.4914318999999523,None,0,1,1,0,,,,,3,2,26,4,454.7794995999998,,,,,,,,,,,,,,,,,,,,,454.7640492999999,454.7794995999998,455.26317629999994,455.26783559999967,455.28307129999985,456.84639679999964,,,,,456.8465901999998,456.8615625999996,457.0618539999996,457.04564359999995,455.28307129999985,,,,,,,,1,0,1.5522679999999127,None,,,,,,,,895,22,M,L,2026-02-25_11h39.52.353,VisualSearch_2526_3,,2025.2.4,2026-02-25 11h39.52.549381 +0100,
tilted.xlsx,The target is tilted.,117,27,3,3,1,1,1,1,1,1,1,1,0,0,0,0,0,7,8,117,space,3.743442999999843,None,1,1,0.6542597000002388,None,space,3.4914318999999523,None,0,1,1,0,,,,,3,3,27,1,457.0618539999996,,,,,,,,,,,,,,,,,,,,,457.04639819999966,457.0618539999996,457.5454024999999,457.5500014999998,457.5651243999996,458.22863449999977,,,,,458.22882979999986,458.2444409,458.4443518999997,458.42859329999965,457.5651243999996,,,,,,,,1,1,0.6542597000002388,None,,,,,,,,895,22,M,L,2026-02-25_11h39.52.353,VisualSearch_2526_3,,2025.2.4,2026-02-25 11h39.52.549381 +0100,
tilted.xlsx,The target is tilted.,117,28,4,3,0,1,1,1,0,0,0,0,0,0,0,0,1,3,4,117,space,3.743442999999843,None,0,1,0.6148017000000436,None,space,3.4914318999999523,None,0,1,1,0,,,,,3,4,28,6,458.4443518999997,,,,,,,,,,,,,,,,,,,,,458.42933779999976,458.4443518999997,458.92830749999985,458.93283919999976,458.9468824999999,459.57853529999966,,,,,459.57872869999983,459.5938033999996,459.79395509999995,459.77765679999993,458.9468824999999,,,,,,,,0,1,0.6148017000000436,None,,,,,,,,895,22,M,L,2026-02-25_11h39.52.353,VisualSearch_2526_3,,2025.2.4,2026-02-25 11h39.52.549381 +0100,
tilted.xlsx,The target is tilted.,117,29,5,3,0,1,1,1,1,1,1,1,0,0,0,0,1,7,8,117,space,3.743442999999843,None,1,0,1.4249448000000484,None,space,3.4914318999999523,None,0,1,1,0,,,,,3,5,29,5,459.79395509999995,,,,,,,,,,,,,,,,,,,,,459.77842919999966,459.79395509999995,460.2775711999998,460.2822073999996,460.29731139999967,461.7274066,,,,,461.7276002999997,461.7429438999998,461.9428770999998,461.92672029999994,460.29731139999967,,,,,,,,1,0,1.4249448000000484,None,,,,,,,,895,22,M,L,2026-02-25_11h39.52.353,VisualSearch_2526_3,,2025.2.4,2026-02-25 11h39.52.549381 +0100,
tilted.xlsx,The target is tilted.,117,30,6,3,0,0,0,0,0,0,0,0,0,0,0,0,1,1,1,117,space,3.743442999999843,None,0,1,1.4587145000000419,None,space,3.4914318999999523,None,0,1,1,0,,,,,3,6,30,7,461.9428770999998,,,,,,,,,,,,,,,,,,,,,461.92748359999996,461.9428770999998,462.42633179999984,462.4309586999998,462.4465538999998,463.90927169999986,,,,,463.9094458999998,463.9253018999998,464.12525349999987,464.10895299999993,462.4465538999998,,,,,,,,0,1,1.4587145000000419,None,,,,,,,,895,22,M,L,2026-02-25_11h39.52.353,VisualSearch_2526_3,,2025.2.4,2026-02-25 11h39.52.549381 +0100,
tilted.xlsx,The target is tilted.,117,31,7,3,1,1,1,1,1,1,1,1,1,1,1,1,0,11,12,117,space,3.743442999999843,None,1,1,0.6760724000000664,None,space,3.4914318999999523,None,0,1,1,0,,,,,3,7,31,0,464.12525349999987,,,,,,,,,,,,,,,,,,,,,464.10972919999995,464.12525349999987,464.60892239999976,464.6134843,464.6281664999997,465.3090153999997,,,,,465.30971359999967,465.32479409999996,465.52468629999976,465.5082199999997,464.6281664999997,,,,,,,,1,1,0.6760724000000664,None,,,,,,,,895,22,M,L,2026-02-25_11h39.52.353,VisualSearch_2526_3,,2025.2.4,2026-02-25 11h39.52.549381 +0100,
tilted.xlsx,The target is tilted.,117,32,0,4,1,1,1,1,1,1,1,1,1,1,1,1,0,11,12,117,space,3.743442999999843,None,1,1,1.1102954000002683,None,space,3.4914318999999523,None,0,1,1,0,,,,,4,0,32,0,465.52468629999976,,,,,,,,,,,,,,,,,,,,,465.5089435,465.52468629999976,466.0082021999997,466.01277009999967,466.02844419999974,467.1417526,,,,,467.1419474999998,467.15704129999995,467.3571801999997,467.34092829999963,466.02844419999974,,,,,,,,1,1,1.1102954000002683,None,,,,,,,,895,22,M,L,2026-02-25_11h39.52.353,VisualSearch_2526_3,,2025.2.4,2026-02-25 11h39.52.549381 +0100,
tilted.xlsx,The target is tilted.,117,33,1,4,1,1,1,1,0,0,0,0,0,0,0,0,0,3,4,117,space,3.743442999999843,None,1,1,1.4004727000001367,None,space,3.4914318999999523,None,0,1,1,0,,,,,4,1,33,2,467.3571801999997,,,,,,,,,,,,,,,,,,,,,467.34168469999986,467.3571801999997,467.8407342999999,467.8453242999999,467.8588894999998,469.2734277999998,,,,,469.2735899999998,469.2893688999998,469.4893976999997,469.4732504999997,467.8588894999998,,,,,,,,1,1,1.4004727000001367,None,,,,,,,,895,22,M,L,2026-02-25_11h39.52.353,VisualSearch_2526_3,,2025.2.4,2026-02-25 11h39.52.549381 +0100,
tilted.xlsx,The target is tilted.,117,34,2,4,1,0,0,0,0,0,0,0,0,0,0,0,0,0,1,117,space,3.743442999999843,None,1,1,0.4983934000001682,None,space,3.4914318999999523,None,0,1,1,0,,,,,4,2,34,3,469.4893976999997,,,,,,,,,,,,,,,,,,,,,469.47405389999994,469.4893976999997,469.9730715999999,469.9776603,469.9927853999998,470.5065491999999,,,,,470.5067239,470.52227019999964,470.72225549999985,470.7061638,469.9927853999998,,,,,,,,1,1,0.4983934000001682,None,,,,,,,,895,22,M,L,2026-02-25_11h39.52.353,VisualSearch_2526_3,,2025.2.4,2026-02-25 11h39.52.549381 +0100,
