file_name,block_instructions,target_example,thisN,thisTrialN,thisRepN,target_presence,opacity_1,opacity_2,opacity_3,opacity_4,opacity_5,opacity_6,opacity_7,opacity_8,opacity_9,opacity_10,opacity_11,opacity_12,n_distract,n_items,target_ori,key_resp_4.keys,key_resp_4.rt,key_resp_4.duration,key_resp.keys,key_resp.corr,key_resp.rt,key_resp.duration,key_resp_5.keys,key_resp_5.rt,key_resp_5.duration,blocks.thisRepN,blocks.thisTrialN,blocks.thisN,blocks.thisIndex,practice_trials.thisRepN,practice_trials.thisTrialN,practice_trials.thisN,practice_trials.thisIndex,trials.thisRepN,trials.thisTrialN,trials.thisN,trials.thisIndex,thisRow.t,notes,Welcome.started,WelcomeText.started,key_resp_2.started,Welcome.stopped,key_resp_2.keys,key_resp_2.rt,key_resp_2.duration,InformedConsent.started,text_4.started,InformedConsent.stopped,key_resp_6.keys,key_resp_6.rt,key_resp_6.duration,key_resp_4.started,example_target.started,text_3.started,blocks.key_resp_4.keys,blocks.key_resp_4.rt,blocks.key_resp_4.duration,FixCross.started,fixCross.started,FixCross.stopped,Stimulus.started,key_resp.started,Stimulus.stopped,practice_trials.key_resp.keys,practice_trials.key_resp.corr,practice_trials.key_resp.rt,practice_trials.key_resp.duration,BlankScreen.started,text.started,text.stopped,BlankScreen.stopped,fixCross.stopped,ExperimentStart.started,text_2.started,key_resp_5.started,ExperimentStart.stopped,blocks.key_resp_5.keys,blocks.key_resp_5.rt,blocks.key_resp_5.duration,trials.key_resp.keys,trials.key_resp.corr,trials.key_resp.rt,trials.key_resp.duration,Thanks.started,ThankYou.started,key_resp_3.started,Thanks.stopped,key_resp_3.keys,key_resp_3.rt,key_resp_3.duration,participant,leeftijd,gender,links/rechtshandig,date,expName,expVersion,psychopyVersion,expStart,
,,,,,,,,,,,,,,,,,,,,,,,,,,,,,,,,,,,,,,,,,,,,,,0.018629199999850243,0.029722299999775714,0.029722299999775714,51.02401579999969,space,50.96626419999984,None,,,,,,,,,,,,,,,,,,,,,,,,,,,,,,,,,,,,,,,,,,,,,,896,22,M,R,2026-02-25_11h51.18.107,VisualSearch_2526_3,,2025.2.4,2026-02-25 11h51.18.304255 +0100,
,,,,,,,,,,,,,,,,,,,,,,,,,,,,,,,,,,,,,,,,,,,,,,,,,,,,,51.02407189999985,51.02913139999964,75.21802079999998,y,24.185032500000034,None,,,,,,,,,,,,,,,,,,,,,,,,,,,,,,,,,,,,,,,,896,22,M,R,2026-02-25_11h51.18.107,VisualSearch_2526_3,,2025.2.4,2026-02-25 11h51.18.304255 +0100,
vertical.xlsx,The target is tilted.,135,0,0,0,0,0,0,0,0,0,0,0,0,0,0,0,1,1,1,135,space,12.112967799999751,None,0,1,0.6668504999997822,None,,,,0,0,0,1,0,0,0,7,,,,,87.40437369999972,,,,,,,,,,,,,,,75.25545059999968,75.25545059999968,75.25545059999968,space,12.112967799999751,None,87.3994788,87.40437369999972,87.89432469999974,87.89949799999977,87.91521839999996,88.59480189999977,0,1,0.6668504999997822,None,88.5950072999999,88.6104065999998,88.81037789999982,88.79402389999996,,,,,,,,,,,,,,,,,,,,896,22,M,R,2026-02-25_11h51.18.107,VisualSearch_2526_3,,2025.2.4,2026-02-25 11h51.18.304255 +0100,
vertical.xlsx,The target is tilted.,135,1,1,0,1,1,1,1,1,1,1,1,0,0,0,0,0,7,8,135,space,12.112967799999751,None,1,1,0.9080241000001479,None,,,,0,0,0,1,0,1,1,1,,,,,88.81037789999982,,,,,,,,,,,,,,,,,,,,,88.79471429999967,88.81037789999982,89.29391059999989,89.2987664999996,89.31500319999986,90.22749479999993,1,1,0.9080241000001479,None,90.22775409999986,90.24278149999964,90.4424853999999,90.4263689999998,89.31500319999986,,,,,,,,,,,,,,,,,,,896,22,M,R,2026-02-25_11h51.18.107,VisualSearch_2526_3,,2025.2.4,2026-02-25 11h51.18.304255 +0100,
vertical.xlsx,The target is tilted.,135,2,2,0,0,1,1,1,1,1,1,1,0,0,0,0,1,7,8,135,space,12.112967799999751,None,0,1,1.742925600000035,None,,,,0,0,0,1,0,2,2,5,,,,,90.4424853999999,,,,,,,,,,,,,,,,,,,,,90.42704299999968,90.4424853999999,90.92651369999976,90.93154909999976,90.94613289999961,92.69198549999965,0,1,1.742925600000035,None,92.69209449999971,92.7078878999996,92.90836769999987,92.89218169999958,90.94613289999961,,,,,,,,,,,,,,,,,,,896,22,M,R,2026-02-25_11h51.18.107,VisualSearch_2526_3,,2025.2.4,2026-02-25 11h51.18.304255 +0100,
vertical.xlsx,The target is tilted.,135,3,3,0,0,1,1,1,0,0,0,0,0,0,0,0,1,3,4,135,space,12.112967799999751,None,0,1,0.79460569999992,None,,,,0,0,0,1,0,3,3,6,,,,,92.90836769999987,,,,,,,,,,,,,,,,,,,,,92.89289389999976,92.90836769999987,93.39169119999997,93.3965532999996,93.41088459999992,94.20821259999957,0,1,0.79460569999992,None,94.20832889999974,94.22389429999976,94.42438759999959,94.40819539999984,93.41088459999992,,,,,,,,,,,,,,,,,,,896,22,M,R,2026-02-25_11h51.18.107,VisualSearch_2526_3,,2025.2.4,2026-02-25 11h51.18.304255 +0100,
vertical.xlsx,The target is tilted.,135,4,4,0,1,1,1,1,1,1,1,1,1,1,1,1,0,11,12,135,space,12.112967799999751,None,1,1,0.7552109999996901,None,,,,0,0,0,1,0,4,4,0,,,,,94.42438759999959,,,,,,,,,,,,,,,,,,,,,94.40887589999966,94.42438759999959,94.90808509999988,94.91292349999958,94.92817389999982,95.6916242999996,1,1,0.7552109999996901,None,95.69181679999974,95.70661409999957,95.90641269999969,95.89105709999967,94.92817389999982,,,,,,,,,,,,,,,,,,,896,22,M,R,2026-02-25_11h51.18.107,VisualSearch_2526_3,,2025.2.4,2026-02-25 11h51.18.304255 +0100,
vertical.xlsx,The target is tilted.,135,5,5,0,1,0,0,0,0,0,0,0,0,0,0,0,0,0,1,135,space,12.112967799999751,None,1,1,0.4732733000000735,None,,,,0,0,0,1,0,5,5,3,,,,,95.90641269999969,,,,,,,,,,,,,,,,,,,,,95.89169059999995,95.90641269999969,96.39083019999998,96.39572299999963,96.41085729999986,96.89016349999974,1,1,0.4732733000000735,None,96.89030059999959,96.9059656999998,97.10640079999985,97.09045359999982,96.41085729999986,,,,,,,,,,,,,,,,,,,896,22,M,R,2026-02-25_11h51.18.107,VisualSearch_2526_3,,2025.2.4,2026-02-25 11h51.18.304255 +0100,
vertical.xlsx,The target is tilted.,135,6,6,0,1,1,1,1,0,0,0,0,0,0,0,0,0,3,4,135,space,12.112967799999751,None,1,1,0.6572092999999768,None,,,,0,0,0,1,0,6,6,2,,,,,97.10640079999985,,,,,,,,,,,,,,,,,,,,,97.09111289999964,97.10640079999985,97.59020069999997,97.59495369999968,97.6061608,98.2736147999999,1,1,0.6572092999999768,None,98.2737861999999,98.28873999999996,98.4892433,98.47301099999959,97.6061608,,,,,,,,,,,,,,,,,,,896,22,M,R,2026-02-25_11h51.18.107,VisualSearch_2526_3,,2025.2.4,2026-02-25 11h51.18.304255 +0100,
vertical.xlsx,The target is tilted.,135,7,7,0,0,1,1,1,1,1,1,1,1,1,1,1,1,11,12,135,space,12.112967799999751,None,0,1,1.1040069000000585,None,,,,0,0,0,1,0,7,7,4,,,,,98.4892433,,,,,,,,,,,,,,,,,,,,,98.47370609999962,98.4892433,98.97278169999981,98.97773899999993,98.99237459999995,100.1063707999997,0,1,1.1040069000000585,None,100.10657979999996,100.12126409999973,100.32146349999994,100.30547869999964,98.99237459999995,,,,,,,,,,,,,,,,,,,896,22,M,R,2026-02-25_11h51.18.107,VisualSearch_2526_3,,2025.2.4,2026-02-25 11h51.18.304255 +0100,
vertical.xlsx,The target is tilted.,135,0,0,0,1,1,1,1,1,1,1,1,1,1,1,1,0,11,12,135,space,12.112967799999751,None,1,1,0.7800841000002947,None,space,3.8149656000000505,None,0,0,0,1,,,,,0,0,0,0,104.16589259999955,,,,,,,,,,,,,,,,,,,,,104.16207809999969,104.16589259999955,104.65296669999998,104.65767579999965,104.66984269999966,105.45354199999974,,,,,105.45376329999999,105.46878689999994,105.66929589999972,105.65307029999985,,100.31237369999963,100.32146349999994,100.32146349999994,104.13747619999958,space,3.8149656000000505,None,1,1,0.7800841000002947,None,,,,,,,,896,22,M,R,2026-02-25_11h51.18.107,VisualSearch_2526_3,,2025.2.4,2026-02-25 11h51.18.304255 +0100,
vertical.xlsx,The target is tilted.,135,1,1,0,1,1,1,1,1,1,1,1,0,0,0,0,0,7,8,135,space,12.112967799999751,None,1,1,1.5066861000000245,None,space,3.8149656000000505,None,0,0,0,1,,,,,0,1,1,1,105.66929589999972,,,,,,,,,,,,,,,,,,,,,105.65381559999969,105.66929589999972,106.15279269999974,106.15765009999996,106.1740461999998,107.68601919999992,,,,,107.6862228,107.70109639999964,107.90143759999955,107.88546929999984,106.1740461999998,,,,,,,,1,1,1.5066861000000245,None,,,,,,,,896,22,M,R,2026-02-25_11h51.18.107,VisualSearch_2526_3,,2025.2.4,2026-02-25 11h51.18.304255 +0100,
vertical.xlsx,The target is tilted.,135,2,2,0,0,0,0,0,0,0,0,0,0,0,0,0,1,1,1,135,space,12.112967799999751,None,0,1,0.7642553999999109,None,space,3.8149656000000505,None,0,0,0,1,,,,,0,2,2,7,107.90143759999955,,,,,,,,,,,,,,,,,,,,,107.8861895,107.90143759999955,108.3852651999996,108.39024719999998,108.40483269999959,109.18444779999982,,,,,109.18460549999963,109.20041979999996,109.40054529999998,109.38477069999999,108.40483269999959,,,,,,,,0,1,0.7642553999999109,None,,,,,,,,896,22,M,R,2026-02-25_11h51.18.107,VisualSearch_2526_3,,2025.2.4,2026-02-25 11h51.18.304255 +0100,
vertical.xlsx,The target is tilted.,135,3,3,0,0,1,1,1,0,0,0,0,0,0,0,0,1,3,4,135,space,12.112967799999751,None,0,1,1.1674537999997483,None,space,3.8149656000000505,None,0,0,0,1,,,,,0,3,3,6,109.40054529999998,,,,,,,,,,,,,,,,,,,,,109.3855236999998,109.40054529999998,109.8845709999996,109.88964959999976,109.90470469999991,111.08393589999969,,,,,111.08417029999964,111.09947179999972,111.30017229999976,111.2838641999997,109.90470469999991,,,,,,,,0,1,1.1674537999997483,None,,,,,,,,896,22,M,R,2026-02-25_11h51.18.107,VisualSearch_2526_3,,2025.2.4,2026-02-25 11h51.18.304255 +0100,
vertical.xlsx,The target is tilted.,135,4,4,0,0,1,1,1,1,1,1,1,1,1,1,1,1,11,12,135,space,12.112967799999751,None,0,1,1.9827298999998675,None,space,3.8149656000000505,None,0,0,0,1,,,,,0,4,4,4,111.30017229999976,,,,,,,,,,,,,,,,,,,,,111.28463909999982,111.30017229999976,111.78359319999981,111.78851259999965,111.80430269999988,113.79980449999994,,,,,113.80000879999989,113.81499369999983,114.01542949999975,113.99899499999992,111.80430269999988,,,,,,,,0,1,1.9827298999998675,None,,,,,,,,896,22,M,R,2026-02-25_11h51.18.107,VisualSearch_2526_3,,2025.2.4,2026-02-25 11h51.18.304255 +0100,
vertical.xlsx,The target is tilted.,135,5,5,0,1,1,1,1,0,0,0,0,0,0,0,0,0,3,4,135,space,12.112967799999751,None,1,1,0.5483045999999376,None,space,3.8149656000000505,None,0,0,0,1,,,,,0,5,5,2,114.01542949999975,,,,,,,,,,,,,,,,,,,,,113.9997355999999,114.01542949999975,114.49907979999989,114.5040227999998,114.51776199999995,115.08202709999978,,,,,115.08223849999968,115.09761489999983,115.29817159999993,115.28198319999956,114.51776199999995,,,,,,,,1,1,0.5483045999999376,None,,,,,,,,896,22,M,R,2026-02-25_11h51.18.107,VisualSearch_2526_3,,2025.2.4,2026-02-25 11h51.18.304255 +0100,
vertical.xlsx,The target is tilted.,135,6,6,0,1,0,0,0,0,0,0,0,0,0,0,0,0,0,1,135,space,12.112967799999751,None,1,1,0.5768797000000632,None,space,3.8149656000000505,None,0,0,0,1,,,,,0,6,6,3,115.29817159999993,,,,,,,,,,,,,,,,,,,,,115.2827212999996,115.29817159999993,115.78183729999955,115.78671169999961,115.8015848,116.38187599999992,,,,,116.38207859999966,116.39713789999996,116.59759539999959,116.58113739999999,115.8015848,,,,,,,,1,1,0.5768797000000632,None,,,,,,,,896,22,M,R,2026-02-25_11h51.18.107,VisualSearch_2526_3,,2025.2.4,2026-02-25 11h51.18.304255 +0100,
vertical.xlsx,The target is tilted.,135,7,7,0,0,1,1,1,1,1,1,1,0,0,0,0,1,7,8,135,space,12.112967799999751,None,0,1,2.1350211999997555,None,space,3.8149656000000505,None,0,0,0,1,,,,,0,7,7,5,116.59759539999959,,,,,,,,,,,,,,,,,,,,,116.58189939999966,116.59759539999959,117.08116259999997,117.08606099999997,117.09729769999967,119.24654249999958,,,,,119.24668399999973,119.26247489999969,119.46280579999984,119.44642739999972,117.09729769999967,,,,,,,,0,1,2.1350211999997555,None,,,,,,,,896,22,M,R,2026-02-25_11h51.18.107,VisualSearch_2526_3,,2025.2.4,2026-02-25 11h51.18.304255 +0100,
vertical.xlsx,The target is tilted.,135,8,0,1,0,1,1,1,0,0,0,0,0,0,0,0,1,3,4,135,space,12.112967799999751,None,0,1,0.8762448999996195,None,space,3.8149656000000505,None,0,0,0,1,,,,,1,0,8,6,119.46280579999984,,,,,,,,,,,,,,,,,,,,,119.44716839999955,119.46280579999984,119.94666419999976,119.9515266999997,119.96645519999993,120.84672709999995,,,,,120.84690609999961,120.86178169999994,121.06217709999964,121.04607629999964,119.96645519999993,,,,,,,,0,1,0.8762448999996195,None,,,,,,,,896,22,M,R,2026-02-25_11h51.18.107,VisualSearch_2526_3,,2025.2.4,2026-02-25 11h51.18.304255 +0100,
vertical.xlsx,The target is tilted.,135,9,1,1,0,1,1,1,1,1,1,1,1,1,1,1,1,11,12,135,space,12.112967799999751,None,0,1,2.7285526000000573,None,space,3.8149656000000505,None,0,0,0,1,,,,,1,1,9,4,121.06217709999964,,,,,,,,,,,,,,,,,,,,,121.04690719999962,121.06217709999964,121.54610209999964,121.55140449999999,121.56633499999998,124.31098359999987,,,,,124.31113499999992,124.32688459999963,124.52734239999972,124.51086939999959,121.56633499999998,,,,,,,,0,1,2.7285526000000573,None,,,,,,,,896,22,M,R,2026-02-25_11h51.18.107,VisualSearch_2526_3,,2025.2.4,2026-02-25 11h51.18.304255 +0100,
vertical.xlsx,The target is tilted.,135,10,2,1,1,1,1,1,1,1,1,1,1,1,1,1,0,11,12,135,space,12.112967799999751,None,1,1,0.9474132000000282,None,space,3.8149656000000505,None,0,0,0,1,,,,,1,2,10,0,124.52734239999972,,,,,,,,,,,,,,,,,,,,,124.51162909999994,124.52734239999972,125.01115359999994,125.0160877999997,125.0311643,125.99366959999998,,,,,125.99387649999971,126.00940559999981,126.20996119999973,126.19374639999978,125.0311643,,,,,,,,1,1,0.9474132000000282,None,,,,,,,,896,22,M,R,2026-02-25_11h51.18.107,VisualSearch_2526_3,,2025.2.4,2026-02-25 11h51.18.304255 +0100,
vertical.xlsx,The target is tilted.,135,11,3,1,0,1,1,1,1,1,1,1,0,0,0,0,1,7,8,135,space,12.112967799999751,None,0,1,1.245053999999982,None,space,3.8149656000000505,None,0,0,0,1,,,,,1,3,11,5,126.20996119999973,,,,,,,,,,,,,,,,,,,,,126.19448269999975,126.20996119999973,126.6931628999996,126.69605179999962,126.70908809999992,127.96017659999961,,,,,127.96038449999969,127.97532209999963,128.1757279999997,128.15981779999993,126.70908809999992,,,,,,,,0,1,1.245053999999982,None,,,,,,,,896,22,M,R,2026-02-25_11h51.18.107,VisualSearch_2526_3,,2025.2.4,2026-02-25 11h51.18.304255 +0100,
vertical.xlsx,The target is tilted.,135,12,4,1,0,0,0,0,0,0,0,0,0,0,0,0,1,1,1,135,space,12.112967799999751,None,0,1,1.299793000000136,None,space,3.8149656000000505,None,0,0,0,1,,,,,1,4,12,7,128.1757279999997,,,,,,,,,,,,,,,,,,,,,128.16050749999977,128.1757279999997,128.65889609999977,128.66119569999955,128.67526259999977,129.99124139999958,,,,,129.9913373999998,130.00798159999977,,130.19160219999958,128.67526259999977,,,,,,,,0,1,1.299793000000136,None,,,,,,,,896,22,M,R,2026-02-25_11h51.18.107,VisualSearch_2526_3,,2025.2.4,2026-02-25 11h51.18.304255 +0100,
vertical.xlsx,The target is tilted.,135,13,5,1,1,1,1,1,0,0,0,0,0,0,0,0,0,3,4,135,space,12.112967799999751,None,1,1,0.6294738999999936,None,space,3.8149656000000505,None,0,0,0,1,,,,,1,5,13,2,130.20807929999955,,,,,,,,,,,,,,,,,,,,,130.1924082999999,130.20807929999955,130.69144129999995,130.69637869999997,130.71130709999989,131.3585476999997,,,,,131.35875069999975,131.373603,131.5741234999996,131.5580877999996,130.71130709999989,,,,,,,,1,1,0.6294738999999936,None,,,,,,,,896,22,M,R,2026-02-25_11h51.18.107,VisualSearch_2526_3,,2025.2.4,2026-02-25 11h51.18.304255 +0100,
vertical.xlsx,The target is tilted.,135,14,6,1,1,0,0,0,0,0,0,0,0,0,0,0,0,0,1,135,space,12.112967799999751,None,1,1,0.6371613999999681,None,space,3.8149656000000505,None,0,0,0,1,,,,,1,6,14,3,131.5741234999996,,,,,,,,,,,,,,,,,,,,,131.55880229999957,131.5741234999996,132.05780769999956,132.06267519999983,132.07844999999998,132.72466179999992,,,,,132.72487709999996,132.7396617999998,132.9403156999997,132.9240490999996,132.07844999999998,,,,,,,,1,1,0.6371613999999681,None,,,,,,,,896,22,M,R,2026-02-25_11h51.18.107,VisualSearch_2526_3,,2025.2.4,2026-02-25 11h51.18.304255 +0100,
vertical.xlsx,The target is tilted.,135,15,7,1,1,1,1,1,1,1,1,1,0,0,0,0,0,7,8,135,space,12.112967799999751,None,0,0,5.25273449999986,None,space,3.8149656000000505,None,0,0,0,1,,,,,1,7,15,1,132.9403156999997,,,,,,,,,,,,,,,,,,,,,132.9247935999997,132.9403156999997,133.42382419999967,133.42867579999984,133.44390369999974,138.70524129999967,,,,,138.70538719999968,138.72023969999964,138.92047599999978,138.90459089999968,133.44390369999974,,,,,,,,0,0,5.25273449999986,None,,,,,,,,896,22,M,R,2026-02-25_11h51.18.107,VisualSearch_2526_3,,2025.2.4,2026-02-25 11h51.18.304255 +0100,
vertical.xlsx,The target is tilted.,135,16,0,2,0,1,1,1,1,1,1,1,1,1,1,1,1,11,12,135,space,12.112967799999751,None,0,1,4.988719200000105,None,space,3.8149656000000505,None,0,0,0,1,,,,,2,0,16,4,138.92047599999978,,,,,,,,,,,,,,,,,,,,,138.90535169999976,138.92047599999978,139.40427169999975,139.40930419999995,139.42402559999982,144.4193505999997,,,,,144.41955859999962,144.43442689999983,144.6348393999997,144.61876689999963,139.42402559999982,,,,,,,,0,1,4.988719200000105,None,,,,,,,,896,22,M,R,2026-02-25_11h51.18.107,VisualSearch_2526_3,,2025.2.4,2026-02-25 11h51.18.304255 +0100,
vertical.xlsx,The target is tilted.,135,17,1,2,0,1,1,1,1,1,1,1,0,0,0,0,1,7,8,135,space,12.112967799999751,None,0,1,1.5411355999999614,None,space,3.8149656000000505,None,0,0,0,1,,,,,2,1,17,5,144.6348393999997,,,,,,,,,,,,,,,,,,,,,144.61949219999997,144.6348393999997,145.11844089999977,145.12332049999986,145.1396751999996,146.6845403999996,,,,,146.6847217999998,146.70011289999957,146.90049439999984,146.8840527999996,145.1396751999996,,,,,,,,0,1,1.5411355999999614,None,,,,,,,,896,22,M,R,2026-02-25_11h51.18.107,VisualSearch_2526_3,,2025.2.4,2026-02-25 11h51.18.304255 +0100,
vertical.xlsx,The target is tilted.,135,18,2,2,0,0,0,0,0,0,0,0,0,0,0,0,1,1,1,135,space,12.112967799999751,None,0,1,0.5554635000003145,None,space,3.8149656000000505,None,0,0,0,1,,,,,2,2,18,7,146.90049439999984,,,,,,,,,,,,,,,,,,,,,146.8848039999998,146.90049439999984,147.38435469999968,147.3896682999998,147.40419679999968,147.9678270999998,,,,,147.96805529999983,147.9827909999999,148.18321339999966,148.16709589999982,147.40419679999968,,,,,,,,0,1,0.5554635000003145,None,,,,,,,,896,22,M,R,2026-02-25_11h51.18.107,VisualSearch_2526_3,,2025.2.4,2026-02-25 11h51.18.304255 +0100,
vertical.xlsx,The target is tilted.,135,19,3,2,1,1,1,1,0,0,0,0,0,0,0,0,0,3,4,135,space,12.112967799999751,None,1,1,0.6676956000001155,None,space,3.8149656000000505,None,0,0,0,1,,,,,2,3,19,2,148.18321339999966,,,,,,,,,,,,,,,,,,,,,148.16794199999958,148.18321339999966,148.66646519999995,148.66859109999996,148.68280579999964,149.36645759999965,,,,,149.36665709999988,149.3821879999996,149.5825431999997,149.56646139999975,148.68280579999964,,,,,,,,1,1,0.6676956000001155,None,,,,,,,,896,22,M,R,2026-02-25_11h51.18.107,VisualSearch_2526_3,,2025.2.4,2026-02-25 11h51.18.304255 +0100,
vertical.xlsx,The target is tilted.,135,20,4,2,1,1,1,1,1,1,1,1,1,1,1,1,0,11,12,135,space,12.112967799999751,None,1,1,0.7101520999999593,None,space,3.8149656000000505,None,0,0,0,1,,,,,2,4,20,0,149.5825431999997,,,,,,,,,,,,,,,,,,,,,149.56721649999963,149.5825431999997,150.06624769999962,150.0712721,150.08633829999962,150.79946439999958,,,,,150.79960539999956,150.81489539999984,151.01528229999985,150.99922929999957,150.08633829999962,,,,,,,,1,1,0.7101520999999593,None,,,,,,,,896,22,M,R,2026-02-25_11h51.18.107,VisualSearch_2526_3,,2025.2.4,2026-02-25 11h51.18.304255 +0100,
vertical.xlsx,The target is tilted.,135,21,5,2,1,1,1,1,1,1,1,1,0,0,0,0,0,7,8,135,space,12.112967799999751,None,1,1,0.8141458000000057,None,space,3.8149656000000505,None,0,0,0,1,,,,,2,5,21,1,151.01528229999985,,,,,,,,,,,,,,,,,,,,,150.99995789999957,151.01528229999985,151.49855349999962,151.5033228999996,151.51495999999997,152.3323065999998,,,,,152.33248719999983,152.34743229999958,152.54747369999995,152.5313444999997,151.51495999999997,,,,,,,,1,1,0.8141458000000057,None,,,,,,,,896,22,M,R,2026-02-25_11h51.18.107,VisualSearch_2526_3,,2025.2.4,2026-02-25 11h51.18.304255 +0100,
vertical.xlsx,The target is tilted.,135,22,6,2,0,1,1,1,0,0,0,0,0,0,0,0,1,3,4,135,space,12.112967799999751,None,0,1,1.0203566999998657,None,space,3.8149656000000505,None,0,0,0,1,,,,,2,6,22,6,152.54747369999995,,,,,,,,,,,,,,,,,,,,,152.53223359999993,152.54747369999995,153.0311984,153.03604889999997,153.05117589999963,154.0810706999996,,,,,154.08123209999985,154.09664289999955,154.29720099999986,154.2809761999997,153.05117589999963,,,,,,,,0,1,1.0203566999998657,None,,,,,,,,896,22,M,R,2026-02-25_11h51.18.107,VisualSearch_2526_3,,2025.2.4,2026-02-25 11h51.18.304255 +0100,
vertical.xlsx,The target is tilted.,135,23,7,2,1,0,0,0,0,0,0,0,0,0,0,0,0,0,1,135,space,12.112967799999751,None,1,1,0.5723990999999842,None,space,3.8149656000000505,None,0,0,0,1,,,,,2,7,23,3,154.29720099999986,,,,,,,,,,,,,,,,,,,,,154.2817041999997,154.29720099999986,154.78079579999985,154.7856681999997,154.8003918999998,155.38034039999957,,,,,155.38047879999976,155.39600659999996,155.59658539999964,155.58032049999974,154.8003918999998,,,,,,,,1,1,0.5723990999999842,None,,,,,,,,896,22,M,R,2026-02-25_11h51.18.107,VisualSearch_2526_3,,2025.2.4,2026-02-25 11h51.18.304255 +0100,
vertical.xlsx,The target is tilted.,135,24,0,3,0,1,1,1,0,0,0,0,0,0,0,0,1,3,4,135,space,12.112967799999751,None,0,1,1.1362724000000526,None,space,3.8149656000000505,None,0,0,0,1,,,,,3,0,24,6,155.59658539999964,,,,,,,,,,,,,,,,,,,,,155.5810551999998,155.59658539999964,156.0802123999997,156.08511359999966,156.1007080999998,157.2470131,,,,,157.24725709999984,157.26192319999973,157.46229209999956,157.44630519999964,156.1007080999998,,,,,,,,0,1,1.1362724000000526,None,,,,,,,,896,22,M,R,2026-02-25_11h51.18.107,VisualSearch_2526_3,,2025.2.4,2026-02-25 11h51.18.304255 +0100,
vertical.xlsx,The target is tilted.,135,25,1,3,1,1,1,1,1,1,1,1,0,0,0,0,0,7,8,135,space,12.112967799999751,None,1,1,0.667614400000275,None,space,3.8149656000000505,None,0,0,0,1,,,,,3,1,25,1,157.46229209999956,,,,,,,,,,,,,,,,,,,,,157.4470283999999,157.46229209999956,157.9460807999999,157.95103299999982,157.96658939999998,158.6454804,,,,,158.64556879999964,158.66099239999994,158.8616608999996,158.8456443,157.96658939999998,,,,,,,,1,1,0.667614400000275,None,,,,,,,,896,22,M,R,2026-02-25_11h51.18.107,VisualSearch_2526_3,,2025.2.4,2026-02-25 11h51.18.304255 +0100,
vertical.xlsx,The target is tilted.,135,26,2,3,1,1,1,1,0,0,0,0,0,0,0,0,0,3,4,135,space,12.112967799999751,None,1,1,0.9636884999999893,None,space,3.8149656000000505,None,0,0,0,1,,,,,3,2,26,2,158.8616608999996,,,,,,,,,,,,,,,,,,,,,158.84645599999976,158.8616608999996,159.3452871999998,159.35015589999966,159.36345729999994,160.3280135,,,,,160.3281119999997,160.34371859999965,160.5443019999998,160.52812849999964,159.36345729999994,,,,,,,,1,1,0.9636884999999893,None,,,,,,,,896,22,M,R,2026-02-25_11h51.18.107,VisualSearch_2526_3,,2025.2.4,2026-02-25 11h51.18.304255 +0100,
vertical.xlsx,The target is tilted.,135,27,3,3,0,0,0,0,0,0,0,0,0,0,0,0,1,1,1,135,space,12.112967799999751,None,0,1,1.2557259999998678,None,space,3.8149656000000505,None,0,0,0,1,,,,,3,3,27,7,160.5443019999998,,,,,,,,,,,,,,,,,,,,,160.5288799,160.5443019999998,161.02692109999998,161.02869329999976,161.04351629999974,162.3107361999996,,,,,162.31094209999992,162.32618429999957,162.52673079999977,162.51076319999993,161.04351629999974,,,,,,,,0,1,1.2557259999998678,None,,,,,,,,896,22,M,R,2026-02-25_11h51.18.107,VisualSearch_2526_3,,2025.2.4,2026-02-25 11h51.18.304255 +0100,
vertical.xlsx,The target is tilted.,135,28,4,3,0,1,1,1,1,1,1,1,0,0,0,0,1,7,8,135,space,12.112967799999751,None,0,1,1.6832205999999132,None,space,3.8149656000000505,None,0,0,0,1,,,,,3,4,28,5,162.52673079999977,,,,,,,,,,,,,,,,,,,,,162.51152029999957,162.52673079999977,163.01057149999997,163.01591139999982,163.03188599999976,164.72694329999968,,,,,164.72718179999993,164.74186689999988,164.9422185999997,164.9261666999996,163.03188599999976,,,,,,,,0,1,1.6832205999999132,None,,,,,,,,896,22,M,R,2026-02-25_11h51.18.107,VisualSearch_2526_3,,2025.2.4,2026-02-25 11h51.18.304255 +0100,
vertical.xlsx,The target is tilted.,135,29,5,3,1,1,1,1,1,1,1,1,1,1,1,1,0,11,12,135,space,12.112967799999751,None,1,1,0.5807617000000391,None,space,3.8149656000000505,None,0,0,0,1,,,,,3,5,29,0,164.9422185999997,,,,,,,,,,,,,,,,,,,,,164.92691379999997,164.9422185999997,165.42597469999964,165.4308947999998,165.44622459999982,166.0414523999998,,,,,166.0415799999996,166.0581890999997,,166.2419507999998,165.44622459999982,,,,,,,,1,1,0.5807617000000391,None,,,,,,,,896,22,M,R,2026-02-25_11h51.18.107,VisualSearch_2526_3,,2025.2.4,2026-02-25 11h51.18.304255 +0100,
vertical.xlsx,The target is tilted.,135,30,6,3,0,1,1,1,1,1,1,1,1,1,1,1,1,11,12,135,space,12.112967799999751,None,0,1,1.4782725000000028,None,space,3.8149656000000505,None,0,0,0,1,,,,,3,6,30,4,166.2584142999999,,,,,,,,,,,,,,,,,,,,,166.2426777999999,166.2584142999999,166.74173169999995,166.74652749999996,166.75806779999994,168.24171849999993,,,,,168.24192549999998,168.25693159999992,168.45737899999995,168.44108499999993,,,,,,,,,0,1,1.4782725000000028,None,,,,,,,,896,22,M,R,2026-02-25_11h51.18.107,VisualSearch_2526_3,,2025.2.4,2026-02-25 11h51.18.304255 +0100,
vertical.xlsx,The target is tilted.,135,31,7,3,1,0,0,0,0,0,0,0,0,0,0,0,0,0,1,135,space,12.112967799999751,None,1,1,0.6052945000001273,None,space,3.8149656000000505,None,0,0,0,1,,,,,3,7,31,3,168.45737899999995,,,,,,,,,,,,,,,,,,,,,168.4418367999997,168.45737899999995,168.94084189999967,168.94572459999972,168.96209169999975,169.57449289999977,,,,,169.57467859999997,169.58965509999962,169.79010759999983,169.77392359999976,168.96209169999975,,,,,,,,1,1,0.6052945000001273,None,,,,,,,,896,22,M,R,2026-02-25_11h51.18.107,VisualSearch_2526_3,,2025.2.4,2026-02-25 11h51.18.304255 +0100,
vertical.xlsx,The target is tilted.,135,32,0,4,1,0,0,0,0,0,0,0,0,0,0,0,0,0,1,135,space,12.112967799999751,None,1,1,0.7165687000001526,None,space,3.8149656000000505,None,0,0,0,1,,,,,4,0,32,3,169.79010759999983,,,,,,,,,,,,,,,,,,,,,169.77467629999956,169.79010759999983,170.27344409999978,170.2784302,170.29475189999994,171.02325409999958,,,,,171.0234773999996,171.0390080999996,171.23948389999987,171.2232899999999,170.29475189999994,,,,,,,,1,1,0.7165687000001526,None,,,,,,,,896,22,M,R,2026-02-25_11h51.18.107,VisualSearch_2526_3,,2025.2.4,2026-02-25 11h51.18.304255 +0100,
vertical.xlsx,The target is tilted.,135,33,1,4,0,1,1,1,0,0,0,0,0,0,0,0,1,3,4,135,space,12.112967799999751,None,0,1,0.9639428000000407,None,space,3.8149656000000505,None,0,0,0,1,,,,,4,1,33,6,171.23948389999987,,,,,,,,,,,,,,,,,,,,,171.2240324999998,171.23948389999987,171.7230400999997,171.72792409999965,171.7419762999998,172.72236459999976,,,,,172.7225298999997,172.73868349999975,172.9387127,172.92246459999978,171.7419762999998,,,,,,,,0,1,0.9639428000000407,None,,,,,,,,896,22,M,R,2026-02-25_11h51.18.107,VisualSearch_2526_3,,2025.2.4,2026-02-25 11h51.18.304255 +0100,
vertical.xlsx,The target is tilted.,135,34,2,4,1,1,1,1,1,1,1,1,0,0,0,0,0,7,8,135,space,12.112967799999751,None,1,1,0.6617738999998437,None,space,3.8149656000000505,None,0,0,0,1,,,,,4,2,34,1,172.9387127,,,,,,,,,,,,,,,,,,,,,172.92322079999985,172.9387127,173.42199949999986,173.42696019999994,173.44115639999973,174.10510739999972,,,,,174.10520319999978,174.12073539999983,174.32117019999987,174.30493069999966,173.44115639999973,,,,,,,,1,1,0.6617738999998437,None,,,,,,,,896,22,M,R,2026-02-25_11h51.18.107,VisualSearch_2526_3,,2025.2.4,2026-02-25 11h51.18.304255 +0100,
vertical.xlsx,The target is tilted.,135,35,3,4,1,1,1,1,1,1,1,1,1,1,1,1,0,11,12,135,space,12.112967799999751,None,1,1,0.9059224000002359,None,space,3.8149656000000505,None,0,0,0,1,,,,,4,3,35,0,174.32117019999987,,,,,,,,,,,,,,,,,,,,,174.30575899999985,174.32117019999987,174.80496049999965,174.8097630999996,174.8208854999998,175.73849569999993,,,,,175.73867969999992,175.75350309999976,175.9535775999998,175.9379004999996,174.8208854999998,,,,,,,,1,1,0.9059224000002359,None,,,,,,,,896,22,M,R,2026-02-25_11h51.18.107,VisualSearch_2526_3,,2025.2.4,2026-02-25 11h51.18.304255 +0100,
vertical.xlsx,The target is tilted.,135,36,4,4,0,0,0,0,0,0,0,0,0,0,0,0,1,1,1,135,space,12.112967799999751,None,0,1,0.779977499999859,None,space,3.8149656000000505,None,0,0,0,1,,,,,4,4,36,7,175.9535775999998,,,,,,,,,,,,,,,,,,,,,175.9386454999999,175.9535775999998,176.4375986,176.4424694999998,176.45639429999983,177.25375259999964,,,,,177.25396059999957,177.26946539999972,177.4700002999998,177.4537435999996,176.45639429999983,,,,,,,,0,1,0.779977499999859,None,,,,,,,,896,22,M,R,2026-02-25_11h51.18.107,VisualSearch_2526_3,,2025.2.4,2026-02-25 11h51.18.304255 +0100,
vertical.xlsx,The target is tilted.,135,37,5,4,1,1,1,1,0,0,0,0,0,0,0,0,0,3,4,135,space,12.112967799999751,None,1,1,1.5908438999999817,None,space,3.8149656000000505,None,0,0,0,1,,,,,4,5,37,2,177.4700002999998,,,,,,,,,,,,,,,,,,,,,177.45447839999997,177.4700002999998,177.95347729999958,177.95848099999967,177.97489489999998,179.56929139999966,,,,,179.56944339999973,179.58501929999966,179.7855585999996,179.76938999999993,177.97489489999998,,,,,,,,1,1,1.5908438999999817,None,,,,,,,,896,22,M,R,2026-02-25_11h51.18.107,VisualSearch_2526_3,,2025.2.4,2026-02-25 11h51.18.304255 +0100,
vertical.xlsx,The target is tilted.,135,38,6,4,0,1,1,1,1,1,1,1,1,1,1,1,1,11,12,135,space,12.112967799999751,None,0,1,4.5218761000000995,None,space,3.8149656000000505,None,0,0,0,1,,,,,4,6,38,4,179.7855585999996,,,,,,,,,,,,,,,,,,,,,179.77012549999972,179.7855585999996,180.2692807999997,180.27414739999995,180.2897125999998,184.8174651999998,,,,,184.8176509,184.83268429999998,185.03312529999994,185.01700119999987,180.2897125999998,,,,,,,,0,1,4.5218761000000995,None,,,,,,,,896,22,M,R,2026-02-25_11h51.18.107,VisualSearch_2526_3,,2025.2.4,2026-02-25 11h51.18.304255 +0100,
vertical.xlsx,The target is tilted.,135,39,7,4,0,1,1,1,1,1,1,1,0,0,0,0,1,7,8,135,space,12.112967799999751,None,0,1,3.212840800000322,None,space,3.8149656000000505,None,0,0,0,1,,,,,4,7,39,5,185.03312529999994,,,,,,,,,,,,,,,,,,,,,185.01777939999965,185.03312529999994,185.51691439999968,185.5216548999997,185.5328483999997,188.7488747999996,,,,,188.74907949999988,188.76428929999975,188.96477959999993,188.9485163999998,185.5328483999997,,,,,,,,0,1,3.212840800000322,None,,,,,,,,896,22,M,R,2026-02-25_11h51.18.107,VisualSearch_2526_3,,2025.2.4,2026-02-25 11h51.18.304255 +0100,
vertical.xlsx,The target is tilted.,135,40,0,5,0,0,0,0,0,0,0,0,0,0,0,0,1,1,1,135,space,12.112967799999751,None,0,1,0.5304182999998375,None,space,3.8149656000000505,None,0,0,0,1,,,,,5,0,40,7,188.96477959999993,,,,,,,,,,,,,,,,,,,,,188.9493298999996,188.96477959999993,189.44837919999964,189.45321869999998,189.4663859999996,189.99817229999962,,,,,189.99831429999995,190.0134493999999,190.21411399999988,190.1979965999999,189.4663859999996,,,,,,,,0,1,0.5304182999998375,None,,,,,,,,896,22,M,R,2026-02-25_11h51.18.107,VisualSearch_2526_3,,2025.2.4,2026-02-25 11h51.18.304255 +0100,
vertical.xlsx,The target is tilted.,135,41,1,5,1,0,0,0,0,0,0,0,0,0,0,0,0,0,1,135,space,12.112967799999751,None,1,1,0.9646996999999828,None,space,3.8149656000000505,None,0,0,0,1,,,,,5,1,41,3,190.21411399999988,,,,,,,,,,,,,,,,,,,,,190.19873429999961,190.21411399999988,190.6978283999997,190.70305789999975,190.71878229999993,191.69739029999982,,,,,191.6975226999998,191.71285599999965,191.91257749999977,191.89641489999985,190.71878229999993,,,,,,,,1,1,0.9646996999999828,None,,,,,,,,896,22,M,R,2026-02-25_11h51.18.107,VisualSearch_2526_3,,2025.2.4,2026-02-25 11h51.18.304255 +0100,
vertical.xlsx,The target is tilted.,135,42,2,5,1,1,1,1,1,1,1,1,0,0,0,0,0,7,8,135,space,12.112967799999751,None,1,1,1.9648062000001119,None,space,3.8149656000000505,None,0,0,0,1,,,,,5,2,42,1,191.91257749999977,,,,,,,,,,,,,,,,,,,,,191.89685719999989,191.91257749999977,192.3970443999997,192.40170689999968,192.41277489999993,194.37960369999973,,,,,194.37974449999956,194.39508999999998,194.5954254999997,194.5793805999997,192.41277489999993,,,,,,,,1,1,1.9648062000001119,None,,,,,,,,896,22,M,R,2026-02-25_11h51.18.107,VisualSearch_2526_3,,2025.2.4,2026-02-25 11h51.18.304255 +0100,
vertical.xlsx,The target is tilted.,135,43,3,5,0,1,1,1,1,1,1,1,1,1,1,1,1,11,12,135,space,12.112967799999751,None,0,1,1.6478723999998692,None,space,3.8149656000000505,None,0,0,0,1,,,,,5,3,43,4,194.5954254999997,,,,,,,,,,,,,,,,,,,,,194.5801047,194.5954254999997,195.07904499999995,195.08399139999983,195.09932619999972,196.76125459999957,,,,,196.7613996,196.77724389999958,196.9777041999996,196.96123199999965,195.09932619999972,,,,,,,,0,1,1.6478723999998692,None,,,,,,,,896,22,M,R,2026-02-25_11h51.18.107,VisualSearch_2526_3,,2025.2.4,2026-02-25 11h51.18.304255 +0100,
vertical.xlsx,The target is tilted.,135,44,4,5,0,1,1,1,0,0,0,0,0,0,0,0,1,3,4,135,space,12.112967799999751,None,0,1,0.8036465000000135,None,space,3.8149656000000505,None,0,0,0,1,,,,,5,4,44,6,196.9777041999996,,,,,,,,,,,,,,,,,,,,,196.96196069999996,196.9777041999996,197.46121819999962,197.46611299999995,197.4773227999999,198.29424039999958,,,,,198.29440319999958,198.3102841,198.51000859999976,198.49390319999975,197.4773227999999,,,,,,,,0,1,0.8036465000000135,None,,,,,,,,896,22,M,R,2026-02-25_11h51.18.107,VisualSearch_2526_3,,2025.2.4,2026-02-25 11h51.18.304255 +0100,
vertical.xlsx,The target is tilted.,135,45,5,5,1,1,1,1,1,1,1,1,1,1,1,1,0,11,12,135,space,12.112967799999751,None,1,1,1.3714423000001261,None,space,3.8149656000000505,None,0,0,0,1,,,,,5,5,45,0,198.51000859999976,,,,,,,,,,,,,,,,,,,,,198.49463799999967,198.51000859999976,198.99295779999966,198.9946516,199.00941329999978,200.3930092999999,,,,,200.39316149999968,200.4089902999999,200.60925129999987,200.5932687999998,199.00941329999978,,,,,,,,1,1,1.3714423000001261,None,,,,,,,,896,22,M,R,2026-02-25_11h51.18.107,VisualSearch_2526_3,,2025.2.4,2026-02-25 11h51.18.304255 +0100,
vertical.xlsx,The target is tilted.,135,46,6,5,1,1,1,1,0,0,0,0,0,0,0,0,0,3,4,135,space,12.112967799999751,None,1,1,0.5845425000002251,None,space,3.8149656000000505,None,0,0,0,1,,,,,5,6,46,2,200.60925129999987,,,,,,,,,,,,,,,,,,,,,200.5940241999997,200.60925129999987,201.09322519999978,201.0987768,201.1160474999997,201.70966249999992,,,,,201.70987399999967,201.72506219999968,201.9256605999999,201.90960479999967,201.1160474999997,,,,,,,,1,1,0.5845425000002251,None,,,,,,,,896,22,M,R,2026-02-25_11h51.18.107,VisualSearch_2526_3,,2025.2.4,2026-02-25 11h51.18.304255 +0100,
vertical.xlsx,The target is tilted.,135,47,7,5,0,1,1,1,1,1,1,1,0,0,0,0,1,7,8,135,space,12.112967799999751,None,0,1,1.653626400000121,None,space,3.8149656000000505,None,0,0,0,1,,,,,5,7,47,5,201.9256605999999,,,,,,,,,,,,,,,,,,,,,201.91042019999986,201.9256605999999,202.40943249999964,202.41504239999995,202.43047019999995,204.09171579999975,,,,,204.09186569999974,204.10718759999963,204.30740709999964,204.2913384999997,202.43047019999995,,,,,,,,0,1,1.653626400000121,None,,,,,,,,896,22,M,R,2026-02-25_11h51.18.107,VisualSearch_2526_3,,2025.2.4,2026-02-25 11h51.18.304255 +0100,
vertical.xlsx,The target is tilted.,135,48,0,6,0,1,1,1,1,1,1,1,1,1,1,1,1,11,12,135,space,12.112967799999751,None,0,1,1.5952186999998048,None,space,3.8149656000000505,None,0,0,0,1,,,,,6,0,48,4,204.30740709999964,,,,,,,,,,,,,,,,,,,,,204.2920623,204.30740709999964,204.79119879999962,204.79603859999997,204.8074488999996,206.40779759999987,,,,,206.40802899999971,206.42290889999958,206.6229540999998,206.60708569999997,204.8074488999996,,,,,,,,0,1,1.5952186999998048,None,,,,,,,,896,22,M,R,2026-02-25_11h51.18.107,VisualSearch_2526_3,,2025.2.4,2026-02-25 11h51.18.304255 +0100,
vertical.xlsx,The target is tilted.,135,49,1,6,1,0,0,0,0,0,0,0,0,0,0,0,0,0,1,135,space,12.112967799999751,None,1,1,0.5275385999998434,None,space,3.8149656000000505,None,0,0,0,1,,,,,6,1,49,3,206.6229540999998,,,,,,,,,,,,,,,,,,,,,206.60782609999978,206.6229540999998,207.10698759999968,207.1119107999998,207.1265096999996,207.65729619999956,,,,,207.65749989999995,207.67236049999974,207.8727514999996,207.85668099999975,207.1265096999996,,,,,,,,1,1,0.5275385999998434,None,,,,,,,,896,22,M,R,2026-02-25_11h51.18.107,VisualSearch_2526_3,,2025.2.4,2026-02-25 11h51.18.304255 +0100,
vertical.xlsx,The target is tilted.,135,50,2,6,1,1,1,1,0,0,0,0,0,0,0,0,0,3,4,135,space,12.112967799999751,None,1,1,0.5152904000001399,None,space,3.8149656000000505,None,0,0,0,1,,,,,6,2,50,2,207.8727514999996,,,,,,,,,,,,,,,,,,,,,207.85743809999985,207.8727514999996,208.35652169999958,208.36173299999973,208.3762502999998,208.90572629999997,,,,,208.90585769999961,208.92174909999994,209.12210529999993,209.10608309999998,208.3762502999998,,,,,,,,1,1,0.5152904000001399,None,,,,,,,,896,22,M,R,2026-02-25_11h51.18.107,VisualSearch_2526_3,,2025.2.4,2026-02-25 11h51.18.304255 +0100,
vertical.xlsx,The target is tilted.,135,51,3,6,0,1,1,1,0,0,0,0,0,0,0,0,1,3,4,135,space,12.112967799999751,None,0,1,0.7488750000002256,None,space,3.8149656000000505,None,0,0,0,1,,,,,6,3,51,6,209.12210529999993,,,,,,,,,,,,,,,,,,,,,209.1068237999998,209.12210529999993,209.6058820999997,209.61079919999975,209.62623879999956,210.38881289999972,,,,,210.3889508999996,210.40427489999956,210.60487349999994,210.5887203999996,209.62623879999956,,,,,,,,0,1,0.7488750000002256,None,,,,,,,,896,22,M,R,2026-02-25_11h51.18.107,VisualSearch_2526_3,,2025.2.4,2026-02-25 11h51.18.304255 +0100,
vertical.xlsx,The target is tilted.,135,52,4,6,1,1,1,1,1,1,1,1,0,0,0,0,0,7,8,135,space,12.112967799999751,None,0,0,1.700481200000013,None,space,3.8149656000000505,None,0,0,0,1,,,,,6,4,52,1,210.60487349999994,,,,,,,,,,,,,,,,,,,,,210.58947739999985,210.60487349999994,211.08855109999968,211.0933517999997,211.10867459999963,212.8216683999999,,,,,212.8218724999997,212.83661279999978,213.0371298,213.02099339999995,211.10867459999963,,,,,,,,0,0,1.700481200000013,None,,,,,,,,896,22,M,R,2026-02-25_11h51.18.107,VisualSearch_2526_3,,2025.2.4,2026-02-25 11h51.18.304255 +0100,
vertical.xlsx,The target is tilted.,135,53,5,6,0,1,1,1,1,1,1,1,0,0,0,0,1,7,8,135,space,12.112967799999751,None,0,1,2.3589946000001873,None,space,3.8149656000000505,None,0,0,0,1,,,,,6,5,53,5,213.0371298,,,,,,,,,,,,,,,,,,,,,213.0217230999997,213.0371298,213.52073869999958,213.52554799999962,213.54197729999987,215.90351009999995,,,,,215.90368949999993,215.9186605,216.11864369999967,216.10283279999976,213.54197729999987,,,,,,,,0,1,2.3589946000001873,None,,,,,,,,896,22,M,R,2026-02-25_11h51.18.107,VisualSearch_2526_3,,2025.2.4,2026-02-25 11h51.18.304255 +0100,
vertical.xlsx,The target is tilted.,135,54,6,6,1,1,1,1,1,1,1,1,1,1,1,1,0,11,12,135,space,12.112967799999751,None,1,1,1.531501500000104,None,space,3.8149656000000505,None,0,0,0,1,,,,,6,6,54,0,216.11864369999967,,,,,,,,,,,,,,,,,,,,,216.10360719999971,216.11864369999967,216.6026327999998,216.60788729999967,216.62284769999997,218.16798019999987,,,,,218.16806019999967,218.18405859999984,218.38423399999965,218.36810279999963,216.62284769999997,,,,,,,,1,1,1.531501500000104,None,,,,,,,,896,22,M,R,2026-02-25_11h51.18.107,VisualSearch_2526_3,,2025.2.4,2026-02-25 11h51.18.304255 +0100,
vertical.xlsx,The target is tilted.,135,55,7,6,0,0,0,0,0,0,0,0,0,0,0,0,1,1,1,135,space,12.112967799999751,None,0,1,0.7910210999998526,None,space,3.8149656000000505,None,0,0,0,1,,,,,6,7,55,7,218.38423399999965,,,,,,,,,,,,,,,,,,,,,218.3688328999997,218.38423399999965,218.86789229999977,218.8722555999998,218.88508239999965,219.68375379999998,,,,,219.68389249999973,219.6998851999997,219.89988889999995,219.88345159999972,218.88508239999965,,,,,,,,0,1,0.7910210999998526,None,,,,,,,,896,22,M,R,2026-02-25_11h51.18.107,VisualSearch_2526_3,,2025.2.4,2026-02-25 11h51.18.304255 +0100,
vertical.xlsx,The target is tilted.,135,56,0,7,1,1,1,1,1,1,1,1,1,1,1,1,0,11,12,135,space,12.112967799999751,None,0,0,2.071093099999871,None,space,3.8149656000000505,None,0,0,0,1,,,,,7,0,56,0,219.89988889999995,,,,,,,,,,,,,,,,,,,,,219.88374599999997,219.89988889999995,220.38406639999994,220.3895419999999,220.40605229999983,222.48338729999978,,,,,222.4836049999999,222.4988100999999,222.69947139999977,222.6829184999997,220.40605229999983,,,,,,,,0,0,2.071093099999871,None,,,,,,,,896,22,M,R,2026-02-25_11h51.18.107,VisualSearch_2526_3,,2025.2.4,2026-02-25 11h51.18.304255 +0100,
vertical.xlsx,The target is tilted.,135,57,1,7,1,0,0,0,0,0,0,0,0,0,0,0,0,0,1,135,space,12.112967799999751,None,1,1,0.6225322999998752,None,space,3.8149656000000505,None,0,0,0,1,,,,,7,1,57,3,222.69947139999977,,,,,,,,,,,,,,,,,,,,,222.68371909999996,222.69947139999977,223.18313839999973,223.1886525,223.20288759999994,223.83330009999963,,,,,223.8334987999997,223.84821009999996,224.0488559999999,224.03263369999968,223.20288759999994,,,,,,,,1,1,0.6225322999998752,None,,,,,,,,896,22,M,R,2026-02-25_11h51.18.107,VisualSearch_2526_3,,2025.2.4,2026-02-25 11h51.18.304255 +0100,
vertical.xlsx,The target is tilted.,135,58,2,7,0,1,1,1,1,1,1,1,1,1,1,1,1,11,12,135,space,12.112967799999751,None,0,1,5.4457949999996345,None,space,3.8149656000000505,None,0,0,0,1,,,,,7,2,58,4,224.0488559999999,,,,,,,,,,,,,,,,,,,,,224.0334442999997,224.0488559999999,224.53257719999965,224.53811879999967,224.55310809999992,230.01322089999985,,,,,230.0134668999999,230.02877549999994,230.22880449999957,230.21333989999994,224.55310809999992,,,,,,,,0,1,5.4457949999996345,None,,,,,,,,896,22,M,R,2026-02-25_11h51.18.107,VisualSearch_2526_3,,2025.2.4,2026-02-25 11h51.18.304255 +0100,
vertical.xlsx,The target is tilted.,135,59,3,7,1,1,1,1,1,1,1,1,0,0,0,0,0,7,8,135,space,12.112967799999751,None,1,1,0.5900544999999511,None,space,3.8149656000000505,None,0,0,0,1,,,,,7,3,59,1,230.22880449999957,,,,,,,,,,,,,,,,,,,,,230.21416259999978,230.22880449999957,230.7127360999998,230.71760339999992,230.73171579999962,231.32975209999995,,,,,231.32993169999963,231.34490559999995,231.54542319999973,231.52911659999972,230.73171579999962,,,,,,,,1,1,0.5900544999999511,None,,,,,,,,896,22,M,R,2026-02-25_11h51.18.107,VisualSearch_2526_3,,2025.2.4,2026-02-25 11h51.18.304255 +0100,
vertical.xlsx,The target is tilted.,135,60,4,7,0,0,0,0,0,0,0,0,0,0,0,0,1,1,1,135,space,12.112967799999751,None,0,1,0.5548215000003438,None,space,3.8149656000000505,None,0,0,0,1,,,,,7,4,60,7,231.54542319999973,,,,,,,,,,,,,,,,,,,,,231.52985239999998,231.54542319999973,232.02887089999967,232.03378479999992,232.04964569999993,232.6124378999998,,,,,232.61263489999965,232.62740259999964,232.8281251999997,232.81172639999977,232.04964569999993,,,,,,,,0,1,0.5548215000003438,None,,,,,,,,896,22,M,R,2026-02-25_11h51.18.107,VisualSearch_2526_3,,2025.2.4,2026-02-25 11h51.18.304255 +0100,
vertical.xlsx,The target is tilted.,135,61,5,7,0,1,1,1,1,1,1,1,0,0,0,0,1,7,8,135,space,12.112967799999751,None,0,1,1.741271300000335,None,space,3.8149656000000505,None,0,0,0,1,,,,,7,5,61,5,232.8281251999997,,,,,,,,,,,,,,,,,,,,,232.81244039999956,232.8281251999997,233.31116389999988,233.31596999999965,233.33199799999966,235.07816149999962,,,,,235.0783581999999,235.0932426999998,235.29374679999955,235.27771159999975,233.33199799999966,,,,,,,,0,1,1.741271300000335,None,,,,,,,,896,22,M,R,2026-02-25_11h51.18.107,VisualSearch_2526_3,,2025.2.4,2026-02-25 11h51.18.304255 +0100,
vertical.xlsx,The target is tilted.,135,62,6,7,1,1,1,1,0,0,0,0,0,0,0,0,0,3,4,135,space,12.112967799999751,None,1,1,0.7623656000000665,None,space,3.8149656000000505,None,0,0,0,1,,,,,7,6,62,2,235.29374679999955,,,,,,,,,,,,,,,,,,,,,235.27854669999988,235.29374679999955,235.77727809999988,235.78217889999996,235.7982652999999,236.57599889999983,,,,,236.57608859999982,236.5927270999996,,236.77658079999992,235.7982652999999,,,,,,,,1,1,0.7623656000000665,None,,,,,,,,896,22,M,R,2026-02-25_11h51.18.107,VisualSearch_2526_3,,2025.2.4,2026-02-25 11h51.18.304255 +0100,
vertical.xlsx,The target is tilted.,135,63,7,7,0,1,1,1,0,0,0,0,0,0,0,0,1,3,4,135,space,12.112967799999751,None,0,1,0.7741977999999108,None,space,3.8149656000000505,None,0,0,0,1,,,,,7,7,63,6,236.79295009999987,,,,,,,,,,,,,,,,,,,,,236.7773388999999,236.79295009999987,237.27637479999976,237.28127389999963,237.2980892999999,238.07653579999987,,,,,238.07673699999987,238.09187929999962,238.29222449999997,238.27624259999993,,,,,,,,,0,1,0.7741977999999108,None,,,,,,,,896,22,M,R,2026-02-25_11h51.18.107,VisualSearch_2526_3,,2025.2.4,2026-02-25 11h51.18.304255 +0100,
vertical.xlsx,The target is tilted.,135,64,0,8,1,1,1,1,1,1,1,1,0,0,0,0,0,7,8,135,space,12.112967799999751,None,1,1,2.027719000000161,None,space,3.8149656000000505,None,0,0,0,1,,,,,8,0,64,1,238.29222449999997,,,,,,,,,,,,,,,,,,,,,238.27693469999986,238.29222449999997,238.77588319999995,238.78072669999983,238.79546849999997,240.82528109999976,,,,,240.82549229999995,240.8407089999996,241.04065149999997,241.02477999999974,238.79546849999997,,,,,,,,1,1,2.027719000000161,None,,,,,,,,896,22,M,R,2026-02-25_11h51.18.107,VisualSearch_2526_3,,2025.2.4,2026-02-25 11h51.18.304255 +0100,
vertical.xlsx,The target is tilted.,135,65,1,8,0,0,0,0,0,0,0,0,0,0,0,0,1,1,1,135,space,12.112967799999751,None,0,1,0.6878047000000151,None,space,3.8149656000000505,None,0,0,0,1,,,,,8,1,65,7,241.04065149999997,,,,,,,,,,,,,,,,,,,,,241.02551639999956,241.04065149999997,241.5245528999999,241.52943419999974,241.54534809999996,242.24090199999955,,,,,242.2410086,242.2564083999996,242.45711089999986,242.44102359999988,241.54534809999996,,,,,,,,0,1,0.6878047000000151,None,,,,,,,,896,22,M,R,2026-02-25_11h51.18.107,VisualSearch_2526_3,,2025.2.4,2026-02-25 11h51.18.304255 +0100,
vertical.xlsx,The target is tilted.,135,66,2,8,0,1,1,1,1,1,1,1,0,0,0,0,1,7,8,135,space,12.112967799999751,None,0,1,1.2316219999997884,None,space,3.8149656000000505,None,0,0,0,1,,,,,8,2,66,5,242.45711089999986,,,,,,,,,,,,,,,,,,,,,242.4417354999996,242.45711089999986,242.9407411999996,242.9455350999997,242.96109509999997,244.2063420999998,,,,,244.20647759999974,244.2223411,244.42282749999958,244.40673719999995,242.96109509999997,,,,,,,,0,1,1.2316219999997884,None,,,,,,,,896,22,M,R,2026-02-25_11h51.18.107,VisualSearch_2526_3,,2025.2.4,2026-02-25 11h51.18.304255 +0100,
vertical.xlsx,The target is tilted.,135,67,3,8,0,1,1,1,1,1,1,1,1,1,1,1,1,11,12,135,space,12.112967799999751,None,0,1,1.4196616999997786,None,space,3.8149656000000505,None,0,0,0,1,,,,,8,3,67,4,244.42282749999958,,,,,,,,,,,,,,,,,,,,,244.40743889999976,244.42282749999958,244.90599659999998,244.9108581999999,244.92519439999978,246.35645639999984,,,,,246.35665579999977,246.37143849999984,246.57184189999998,246.55576429999974,244.92519439999978,,,,,,,,0,1,1.4196616999997786,None,,,,,,,,896,22,M,R,2026-02-25_11h51.18.107,VisualSearch_2526_3,,2025.2.4,2026-02-25 11h51.18.304255 +0100,
vertical.xlsx,The target is tilted.,135,68,4,8,1,0,0,0,0,0,0,0,0,0,0,0,0,0,1,135,space,12.112967799999751,None,1,1,0.5401034000001346,None,space,3.8149656000000505,None,0,0,0,1,,,,,8,4,68,3,246.57184189999998,,,,,,,,,,,,,,,,,,,,,246.55649829999993,246.57184189999998,247.05557129999988,247.0604102999996,247.07612809999955,247.62225929999977,,,,,247.62243329999956,247.63751579999962,247.83760699999993,247.82155559999956,247.07612809999955,,,,,,,,1,1,0.5401034000001346,None,,,,,,,,896,22,M,R,2026-02-25_11h51.18.107,VisualSearch_2526_3,,2025.2.4,2026-02-25 11h51.18.304255 +0100,
vertical.xlsx,The target is tilted.,135,69,5,8,1,1,1,1,1,1,1,1,1,1,1,1,0,11,12,135,space,12.112967799999751,None,0,0,1.073743199999626,None,space,3.8149656000000505,None,0,0,0,1,,,,,8,5,69,0,247.83760699999993,,,,,,,,,,,,,,,,,,,,,247.82235859999992,247.83760699999993,248.3213679999999,248.32665289999977,248.34124229999998,249.4216838999996,,,,,249.42189129999997,249.43662649999987,249.63716189999968,249.62102699999969,248.34124229999998,,,,,,,,0,0,1.073743199999626,None,,,,,,,,896,22,M,R,2026-02-25_11h51.18.107,VisualSearch_2526_3,,2025.2.4,2026-02-25 11h51.18.304255 +0100,
vertical.xlsx,The target is tilted.,135,70,6,8,0,1,1,1,0,0,0,0,0,0,0,0,1,3,4,135,space,12.112967799999751,None,0,1,1.411848100000043,None,space,3.8149656000000505,None,0,0,0,1,,,,,8,6,70,6,249.63716189999968,,,,,,,,,,,,,,,,,,,,,249.62174509999977,249.63716189999968,250.1208561999997,250.12564649999968,250.14085229999955,251.55393649999996,,,,,251.55414229999997,251.56907639999963,251.76949529999956,251.75334949999979,250.14085229999955,,,,,,,,0,1,1.411848100000043,None,,,,,,,,896,22,M,R,2026-02-25_11h51.18.107,VisualSearch_2526_3,,2025.2.4,2026-02-25 11h51.18.304255 +0100,
vertical.xlsx,The target is tilted.,135,71,7,8,1,1,1,1,0,0,0,0,0,0,0,0,0,3,4,135,space,12.112967799999751,None,1,1,0.5570090000001073,None,space,3.8149656000000505,None,0,0,0,1,,,,,8,7,71,2,251.76949529999956,,,,,,,,,,,,,,,,,,,,,251.7540982999999,251.76949529999956,252.2524430999997,252.25665919999983,252.27093159999959,252.8367105999996,,,,,252.83689109999978,252.8517625999998,253.0521961999998,253.03608859999986,252.27093159999959,,,,,,,,1,1,0.5570090000001073,None,,,,,,,,896,22,M,R,2026-02-25_11h51.18.107,VisualSearch_2526_3,,2025.2.4,2026-02-25 11h51.18.304255 +0100,
vertical.xlsx,The target is tilted.,135,72,0,9,1,0,0,0,0,0,0,0,0,0,0,0,0,0,1,135,space,12.112967799999751,None,0,0,0.5682523999998921,None,space,3.8149656000000505,None,0,0,0,1,,,,,9,0,72,3,253.0521961999998,,,,,,,,,,,,,,,,,,,,,253.03685629999973,253.0521961999998,253.53585179999982,253.54063469999983,253.5563259999999,254.1361950999999,,,,,254.13638899999978,254.1512002999998,254.35123779999958,254.33534029999964,253.5563259999999,,,,,,,,0,0,0.5682523999998921,None,,,,,,,,896,22,M,R,2026-02-25_11h51.18.107,VisualSearch_2526_3,,2025.2.4,2026-02-25 11h51.18.304255 +0100,
vertical.xlsx,The target is tilted.,135,73,1,9,1,1,1,1,0,0,0,0,0,0,0,0,0,3,4,135,space,12.112967799999751,None,1,1,0.8064481000001251,None,space,3.8149656000000505,None,0,0,0,1,,,,,9,1,73,2,254.35123779999958,,,,,,,,,,,,,,,,,,,,,254.33616659999961,254.35123779999958,254.83525099999997,254.8401586,254.85534659999985,255.66860119999956,,,,,255.66877689999956,255.68385379999972,255.88422589999982,255.86806549999983,254.85534659999985,,,,,,,,1,1,0.8064481000001251,None,,,,,,,,896,22,M,R,2026-02-25_11h51.18.107,VisualSearch_2526_3,,2025.2.4,2026-02-25 11h51.18.304255 +0100,
vertical.xlsx,The target is tilted.,135,74,2,9,1,1,1,1,1,1,1,1,1,1,1,1,0,11,12,135,space,12.112967799999751,None,1,1,1.061565900000005,None,space,3.8149656000000505,None,0,0,0,1,,,,,9,2,74,0,255.88422589999982,,,,,,,,,,,,,,,,,,,,,255.86879679999993,255.88422589999982,256.3675982,256.3723163999998,256.3883830999998,257.4511402999997,,,,,257.45127479999974,257.46640009999965,257.66685689999986,257.65009869999994,256.3883830999998,,,,,,,,1,1,1.061565900000005,None,,,,,,,,896,22,M,R,2026-02-25_11h51.18.107,VisualSearch_2526_3,,2025.2.4,2026-02-25 11h51.18.304255 +0100,
vertical.xlsx,The target is tilted.,135,75,3,9,0,1,1,1,1,1,1,1,0,0,0,0,1,7,8,135,space,12.112967799999751,None,0,1,2.2302019000003384,None,space,3.8149656000000505,None,0,0,0,1,,,,,9,3,75,5,257.66685689999986,,,,,,,,,,,,,,,,,,,,,257.6508084999996,257.66685689999986,258.15055379999967,258.1552869999996,258.1684475999996,260.3999210999996,,,,,260.4000959,260.4150585999996,260.61513509999986,260.59898459999977,258.1684475999996,,,,,,,,0,1,2.2302019000003384,None,,,,,,,,896,22,M,R,2026-02-25_11h51.18.107,VisualSearch_2526_3,,2025.2.4,2026-02-25 11h51.18.304255 +0100,
vertical.xlsx,The target is tilted.,135,76,4,9,0,1,1,1,0,0,0,0,0,0,0,0,1,3,4,135,space,12.112967799999751,None,0,1,0.7353337999998075,None,space,3.8149656000000505,None,0,0,0,1,,,,,9,4,76,6,260.61513509999986,,,,,,,,,,,,,,,,,,,,,260.5996948999996,260.61513509999986,261.0992070999996,261.10392209999964,261.12004909999996,261.86585749999995,,,,,261.8660339999997,261.88103029999957,262.0813960999999,262.06527259999984,261.12004909999996,,,,,,,,0,1,0.7353337999998075,None,,,,,,,,896,22,M,R,2026-02-25_11h51.18.107,VisualSearch_2526_3,,2025.2.4,2026-02-25 11h51.18.304255 +0100,
vertical.xlsx,The target is tilted.,135,77,5,9,1,1,1,1,1,1,1,1,0,0,0,0,0,7,8,135,space,12.112967799999751,None,1,1,0.6341766999998981,None,space,3.8149656000000505,None,0,0,0,1,,,,,9,5,77,1,262.0813960999999,,,,,,,,,,,,,,,,,,,,,262.0660885999996,262.0813960999999,262.5651997,262.5699774999998,262.5854783,263.23157029999993,,,,,263.2317734999997,263.2470612999996,263.44749249999995,263.4310637999997,262.5854783,,,,,,,,1,1,0.6341766999998981,None,,,,,,,,896,22,M,R,2026-02-25_11h51.18.107,VisualSearch_2526_3,,2025.2.4,2026-02-25 11h51.18.304255 +0100,
vertical.xlsx,The target is tilted.,135,78,6,9,0,1,1,1,1,1,1,1,1,1,1,1,1,11,12,135,space,12.112967799999751,None,0,1,1.6032193999999436,None,space,3.8149656000000505,None,0,0,0,1,,,,,9,6,78,4,263.44749249999995,,,,,,,,,,,,,,,,,,,,,263.4318131,263.44749249999995,263.93100339999955,263.93580199999997,263.9510449999998,265.56354839999995,,,,,265.56368539999994,265.5792133,265.7798501999996,265.763653,263.9510449999998,,,,,,,,0,1,1.6032193999999436,None,,,,,,,,896,22,M,R,2026-02-25_11h51.18.107,VisualSearch_2526_3,,2025.2.4,2026-02-25 11h51.18.304255 +0100,
vertical.xlsx,The target is tilted.,135,79,7,9,0,0,0,0,0,0,0,0,0,0,0,0,1,1,1,135,space,12.112967799999751,None,0,1,0.5533166000000165,None,space,3.8149656000000505,None,0,0,0,1,,,,,9,7,79,7,265.7798501999996,,,,,,,,,,,,,,,,,,,,,265.76439619999974,265.7798501999996,266.2634404999999,266.2682139999997,266.28474309999956,266.84636009999986,,,,,266.8464552999999,266.8619230999998,267.0623770999996,267.04642079999985,266.28474309999956,,,,,,,,0,1,0.5533166000000165,None,,,,,,,,896,22,M,R,2026-02-25_11h51.18.107,VisualSearch_2526_3,,2025.2.4,2026-02-25 11h51.18.304255 +0100,
vertical.xlsx,The target is tilted.,135,80,0,10,1,1,1,1,0,0,0,0,0,0,0,0,0,3,4,135,space,12.112967799999751,None,1,1,0.6157404999999017,None,space,3.8149656000000505,None,0,0,0,1,,,,,10,0,80,2,267.0623770999996,,,,,,,,,,,,,,,,,,,,,267.0471533,267.0623770999996,267.5460979999998,267.5507531999997,267.5676417999998,268.1959817999996,,,,,268.19617689999995,268.2114158999998,268.41191999999955,268.3957267999999,267.5676417999998,,,,,,,,1,1,0.6157404999999017,None,,,,,,,,896,22,M,R,2026-02-25_11h51.18.107,VisualSearch_2526_3,,2025.2.4,2026-02-25 11h51.18.304255 +0100,
vertical.xlsx,The target is tilted.,135,81,1,10,0,1,1,1,1,1,1,1,0,0,0,0,1,7,8,135,space,12.112967799999751,None,0,1,0.9008896999998797,None,space,3.8149656000000505,None,0,0,0,1,,,,,10,1,81,5,268.41191999999955,,,,,,,,,,,,,,,,,,,,,268.39647709999963,268.41191999999955,268.8957780999999,268.9010427999997,268.9159464999998,269.82847319999973,,,,,269.8286406999996,269.84401149999985,270.04449129999966,270.0283781999997,268.9159464999998,,,,,,,,0,1,0.9008896999998797,None,,,,,,,,896,22,M,R,2026-02-25_11h51.18.107,VisualSearch_2526_3,,2025.2.4,2026-02-25 11h51.18.304255 +0100,
vertical.xlsx,The target is tilted.,135,82,2,10,1,1,1,1,1,1,1,1,1,1,1,1,0,11,12,135,space,12.112967799999751,None,0,0,1.5350415000002613,None,space,3.8149656000000505,None,0,0,0,1,,,,,10,2,82,0,270.04449129999966,,,,,,,,,,,,,,,,,,,,,270.02914269999974,270.04449129999966,270.52814679999983,270.5329509999997,270.5491737999996,272.09473149999985,,,,,272.0949255999999,272.10966659999985,272.3102055999998,272.29385319999983,270.5491737999996,,,,,,,,0,0,1.5350415000002613,None,,,,,,,,896,22,M,R,2026-02-25_11h51.18.107,VisualSearch_2526_3,,2025.2.4,2026-02-25 11h51.18.304255 +0100,
vertical.xlsx,The target is tilted.,135,83,3,10,0,0,0,0,0,0,0,0,0,0,0,0,1,1,1,135,space,12.112967799999751,None,0,1,0.5476911999999174,None,space,3.8149656000000505,None,0,0,0,1,,,,,10,3,83,7,272.3102055999998,,,,,,,,,,,,,,,,,,,,,272.2945734,272.3102055999998,272.79371979999996,272.7985335999997,272.8123810999996,273.3768769999997,,,,,273.37707939999973,273.39246839999987,273.5929024999996,273.57676679999986,272.8123810999996,,,,,,,,0,1,0.5476911999999174,None,,,,,,,,896,22,M,R,2026-02-25_11h51.18.107,VisualSearch_2526_3,,2025.2.4,2026-02-25 11h51.18.304255 +0100,
vertical.xlsx,The target is tilted.,135,84,4,10,0,1,1,1,0,0,0,0,0,0,0,0,1,3,4,135,space,12.112967799999751,None,0,1,0.9266146999998455,None,space,3.8149656000000505,None,0,0,0,1,,,,,10,4,84,6,273.5929024999996,,,,,,,,,,,,,,,,,,,,,273.5775351999996,273.5929024999996,274.0765623999996,274.08127939999986,274.0964710999997,275.02636989999974,,,,,275.02656419999994,275.04190009999957,275.24212789999956,275.2259219999996,274.0964710999997,,,,,,,,0,1,0.9266146999998455,None,,,,,,,,896,22,M,R,2026-02-25_11h51.18.107,VisualSearch_2526_3,,2025.2.4,2026-02-25 11h51.18.304255 +0100,
vertical.xlsx,The target is tilted.,135,85,5,10,0,1,1,1,1,1,1,1,1,1,1,1,1,11,12,135,space,12.112967799999751,None,0,1,1.215348400000039,None,space,3.8149656000000505,None,0,0,0,1,,,,,10,5,85,4,275.24212789999956,,,,,,,,,,,,,,,,,,,,,275.22665709999956,275.24212789999956,275.7258149999998,275.7307128999996,275.74576009999964,276.97572869999976,,,,,276.9759230999998,276.99094069999956,277.1909381999999,277.1751113999999,275.74576009999964,,,,,,,,0,1,1.215348400000039,None,,,,,,,,896,22,M,R,2026-02-25_11h51.18.107,VisualSearch_2526_3,,2025.2.4,2026-02-25 11h51.18.304255 +0100,
vertical.xlsx,The target is tilted.,135,86,6,10,1,0,0,0,0,0,0,0,0,0,0,0,0,0,1,135,space,12.112967799999751,None,1,1,0.7880882999997993,None,space,3.8149656000000505,None,0,0,0,1,,,,,10,6,86,3,277.1909381999999,,,,,,,,,,,,,,,,,,,,,277.17590519999976,277.1909381999999,277.6750121,277.67970709999963,277.69088539999984,278.4910670999998,,,,,278.4912032999996,278.50725869999997,278.7073072999997,278.6910948999998,277.69088539999984,,,,,,,,1,1,0.7880882999997993,None,,,,,,,,896,22,M,R,2026-02-25_11h51.18.107,VisualSearch_2526_3,,2025.2.4,2026-02-25 11h51.18.304255 +0100,
vertical.xlsx,The target is tilted.,135,87,7,10,1,1,1,1,1,1,1,1,0,0,0,0,0,7,8,135,space,12.112967799999751,None,1,1,1.5935067000000345,None,space,3.8149656000000505,None,0,0,0,1,,,,,10,7,87,1,278.7073072999997,,,,,,,,,,,,,,,,,,,,,278.6918416999997,278.7073072999997,279.1910045999998,279.19577279999976,279.2108225999996,280.80755709999994,,,,,280.8077684,280.82254969999985,281.02278369999976,281.0067151999997,279.2108225999996,,,,,,,,1,1,1.5935067000000345,None,,,,,,,,896,22,M,R,2026-02-25_11h51.18.107,VisualSearch_2526_3,,2025.2.4,2026-02-25 11h51.18.304255 +0100,
vertical.xlsx,The target is tilted.,135,88,0,11,0,1,1,1,1,1,1,1,1,1,1,1,1,11,12,135,space,12.112967799999751,None,0,1,1.3039131000000452,None,space,3.8149656000000505,None,0,0,0,1,,,,,11,0,88,4,281.02278369999976,,,,,,,,,,,,,,,,,,,,,281.0075442999996,281.02278369999976,281.5061576999997,281.5110884999999,281.5247411999999,282.8397921999999,,,,,282.8399970999999,282.8554175999998,283.05523779999976,283.0390943999996,281.5247411999999,,,,,,,,0,1,1.3039131000000452,None,,,,,,,,896,22,M,R,2026-02-25_11h51.18.107,VisualSearch_2526_3,,2025.2.4,2026-02-25 11h51.18.304255 +0100,
vertical.xlsx,The target is tilted.,135,89,1,11,1,0,0,0,0,0,0,0,0,0,0,0,0,0,1,135,space,12.112967799999751,None,1,1,0.05376059999980498,None,space,3.8149656000000505,None,0,0,0,1,,,,,11,1,89,3,283.05523779999976,,,,,,,,,,,,,,,,,,,,,283.0398283999998,283.05523779999976,283.5389530999996,283.5446657999996,283.55942449999975,283.6226402999996,,,,,283.62283449999995,283.6379658999999,283.83829119999973,283.8220717999998,283.55942449999975,,,,,,,,1,1,0.05376059999980498,None,,,,,,,,896,22,M,R,2026-02-25_11h51.18.107,VisualSearch_2526_3,,2025.2.4,2026-02-25 11h51.18.304255 +0100,
vertical.xlsx,The target is tilted.,135,90,2,11,1,1,1,1,1,1,1,1,0,0,0,0,0,7,8,135,space,12.112967799999751,None,1,1,0.5555113000000347,None,space,3.8149656000000505,None,0,0,0,1,,,,,11,2,90,1,283.83829119999973,,,,,,,,,,,,,,,,,,,,,283.82281049999983,283.83829119999973,284.3215994999996,284.32636219999995,284.34176179999986,284.9049914999996,,,,,284.9051264,284.9206429999999,285.1206305999999,285.1048490999997,284.34176179999986,,,,,,,,1,1,0.5555113000000347,None,,,,,,,,896,22,M,R,2026-02-25_11h51.18.107,VisualSearch_2526_3,,2025.2.4,2026-02-25 11h51.18.304255 +0100,
vertical.xlsx,The target is tilted.,135,91,3,11,1,1,1,1,1,1,1,1,1,1,1,1,0,11,12,135,space,12.112967799999751,None,1,1,0.8158683000001474,None,space,3.8149656000000505,None,0,0,0,1,,,,,11,3,91,0,285.1206305999999,,,,,,,,,,,,,,,,,,,,,285.10564569999997,285.1206305999999,285.60448499999984,285.6092679999997,285.62271619999956,286.4542316999996,,,,,286.45438749999994,286.47024169999986,286.6701688999997,286.6536580999996,285.62271619999956,,,,,,,,1,1,0.8158683000001474,None,,,,,,,,896,22,M,R,2026-02-25_11h51.18.107,VisualSearch_2526_3,,2025.2.4,2026-02-25 11h51.18.304255 +0100,
vertical.xlsx,The target is tilted.,135,92,4,11,0,0,0,0,0,0,0,0,0,0,0,0,1,1,1,135,space,12.112967799999751,None,0,1,0.591657700000269,None,space,3.8149656000000505,None,0,0,0,1,,,,,11,4,92,7,286.6701688999997,,,,,,,,,,,,,,,,,,,,,286.6539825,286.6701688999997,287.1535736999999,287.15846699999975,287.1727443,287.7706672999998,,,,,287.7708266999998,287.78626239999994,287.98635309999963,287.9701524999996,287.1727443,,,,,,,,0,1,0.591657700000269,None,,,,,,,,896,22,M,R,2026-02-25_11h51.18.107,VisualSearch_2526_3,,2025.2.4,2026-02-25 11h51.18.304255 +0100,
vertical.xlsx,The target is tilted.,135,93,5,11,1,1,1,1,0,0,0,0,0,0,0,0,0,3,4,135,space,12.112967799999751,None,1,1,0.5134425000001102,None,space,3.8149656000000505,None,0,0,0,1,,,,,11,5,93,2,287.98635309999963,,,,,,,,,,,,,,,,,,,,,287.9709289999996,287.98635309999963,288.46966939999993,288.4744735999998,288.49030059999996,289.0198656999996,,,,,289.0200057999996,289.0357621999997,289.2357784999999,289.2193886,288.49030059999996,,,,,,,,1,1,0.5134425000001102,None,,,,,,,,896,22,M,R,2026-02-25_11h51.18.107,VisualSearch_2526_3,,2025.2.4,2026-02-25 11h51.18.304255 +0100,
vertical.xlsx,The target is tilted.,135,94,6,11,0,1,1,1,0,0,0,0,0,0,0,0,1,3,4,135,space,12.112967799999751,None,0,1,0.5117380000001504,None,space,3.8149656000000505,None,0,0,0,1,,,,,11,6,94,6,289.2357784999999,,,,,,,,,,,,,,,,,,,,,289.2201058999999,289.2357784999999,289.7194470999998,289.72422949999964,289.73979199999985,290.2527321999996,,,,,290.2529089999998,290.26852099999996,290.4685582999996,290.4523965999997,289.73979199999985,,,,,,,,0,1,0.5117380000001504,None,,,,,,,,896,22,M,R,2026-02-25_11h51.18.107,VisualSearch_2526_3,,2025.2.4,2026-02-25 11h51.18.304255 +0100,
vertical.xlsx,The target is tilted.,135,95,7,11,0,1,1,1,1,1,1,1,0,0,0,0,1,7,8,135,space,12.112967799999751,None,0,1,0.7830973000000085,None,space,3.8149656000000505,None,0,0,0,1,,,,,11,7,95,5,290.4685582999996,,,,,,,,,,,,,,,,,,,,,290.4531459,290.4685582999996,290.9521411999999,290.9568638999999,290.9682515999998,291.76832109999987,,,,,291.7684041999996,291.7843200999996,291.9844747999996,291.9683877999996,290.9682515999998,,,,,,,,0,1,0.7830973000000085,None,,,,,,,,896,22,M,R,2026-02-25_11h51.18.107,VisualSearch_2526_3,,2025.2.4,2026-02-25 11h51.18.304255 +0100,
vertical.xlsx,The target is tilted.,135,96,0,12,0,1,1,1,0,0,0,0,0,0,0,0,1,3,4,135,space,12.112967799999751,None,0,1,0.5640014999999039,None,space,3.8149656000000505,None,0,0,0,1,,,,,12,0,96,6,291.9844747999996,,,,,,,,,,,,,,,,,,,,,291.96916829999964,291.9844747999996,292.46817999999985,292.4729679999996,292.4887047999996,293.0683104999998,,,,,293.0684713999999,293.0840369999996,293.2839974999997,293.26797499999975,292.4887047999996,,,,,,,,0,1,0.5640014999999039,None,,,,,,,,896,22,M,R,2026-02-25_11h51.18.107,VisualSearch_2526_3,,2025.2.4,2026-02-25 11h51.18.304255 +0100,
vertical.xlsx,The target is tilted.,135,97,1,12,0,0,0,0,0,0,0,0,0,0,0,0,1,1,1,135,space,12.112967799999751,None,0,1,0.5814270000000761,None,space,3.8149656000000505,None,0,0,0,1,,,,,12,1,97,7,293.2839974999997,,,,,,,,,,,,,,,,,,,,,293.2687751999997,293.2839974999997,293.76762689999987,293.77244659999997,293.78704009999956,294.3845755999996,,,,,294.3847808999999,294.40001589999974,294.6000901999996,294.58381199999985,293.78704009999956,,,,,,,,0,1,0.5814270000000761,None,,,,,,,,896,22,M,R,2026-02-25_11h51.18.107,VisualSearch_2526_3,,2025.2.4,2026-02-25 11h51.18.304255 +0100,
vertical.xlsx,The target is tilted.,135,98,2,12,1,1,1,1,1,1,1,1,1,1,1,1,0,11,12,135,space,12.112967799999751,None,0,0,0.8523808999998437,None,space,3.8149656000000505,None,0,0,0,1,,,,,12,2,98,0,294.6000901999996,,,,,,,,,,,,,,,,,,,,,294.5845608999998,294.6000901999996,295.08362609999995,295.08839609999995,295.1044698999999,295.96710239999993,,,,,295.9673321999999,295.98272799999995,296.18270049999956,296.1666819999996,295.1044698999999,,,,,,,,0,0,0.8523808999998437,None,,,,,,,,896,22,M,R,2026-02-25_11h51.18.107,VisualSearch_2526_3,,2025.2.4,2026-02-25 11h51.18.304255 +0100,
vertical.xlsx,The target is tilted.,135,99,3,12,1,1,1,1,0,0,0,0,0,0,0,0,0,3,4,135,space,12.112967799999751,None,1,1,0.5927495999999337,None,space,3.8149656000000505,None,0,0,0,1,,,,,12,3,99,2,296.18270049999956,,,,,,,,,,,,,,,,,,,,,296.1675131999996,296.18270049999956,296.6662580999996,296.67111509999995,296.68657399999984,297.28218449999986,,,,,297.28229109999984,297.2986848999999,297.49867489999997,297.4825198999997,296.68657399999984,,,,,,,,1,1,0.5927495999999337,None,,,,,,,,896,22,M,R,2026-02-25_11h51.18.107,VisualSearch_2526_3,,2025.2.4,2026-02-25 11h51.18.304255 +0100,
vertical.xlsx,The target is tilted.,135,100,4,12,1,1,1,1,1,1,1,1,0,0,0,0,0,7,8,135,space,12.112967799999751,None,1,1,1.0549766000003729,None,space,3.8149656000000505,None,0,0,0,1,,,,,12,4,100,1,297.49867489999997,,,,,,,,,,,,,,,,,,,,,297.48327889999973,297.49867489999997,297.9822299999996,297.9870625999997,298.00203839999995,299.0658209999997,,,,,299.0660163999996,299.08133169999974,299.28119209999977,299.2650123999997,298.00203839999995,,,,,,,,1,1,1.0549766000003729,None,,,,,,,,896,22,M,R,2026-02-25_11h51.18.107,VisualSearch_2526_3,,2025.2.4,2026-02-25 11h51.18.304255 +0100,
vertical.xlsx,The target is tilted.,135,101,5,12,1,0,0,0,0,0,0,0,0,0,0,0,0,0,1,135,space,12.112967799999751,None,1,1,0.3854879999998957,None,space,3.8149656000000505,None,0,0,0,1,,,,,12,5,101,3,299.28119209999977,,,,,,,,,,,,,,,,,,,,,299.2657555999999,299.28119209999977,299.7648194999997,299.76972339999975,299.7849406999999,300.1812877999996,,,,,300.1814580999999,300.1972843999997,300.39744649999966,300.3810129999997,299.7849406999999,,,,,,,,1,1,0.3854879999998957,None,,,,,,,,896,22,M,R,2026-02-25_11h51.18.107,VisualSearch_2526_3,,2025.2.4,2026-02-25 11h51.18.304255 +0100,
vertical.xlsx,The target is tilted.,135,102,6,12,0,1,1,1,1,1,1,1,1,1,1,1,1,11,12,135,space,12.112967799999751,None,1,0,1.0519750000003114,None,space,3.8149656000000505,None,0,0,0,1,,,,,12,6,102,4,300.39744649999966,,,,,,,,,,,,,,,,,,,,,300.3817071999997,300.39744649999966,300.8809825999997,300.88573229999975,300.9022130999997,301.96412839999994,,,,,301.9643248999996,301.97962119999966,302.1799742999997,302.1637538,300.9022130999997,,,,,,,,1,0,1.0519750000003114,None,,,,,,,,896,22,M,R,2026-02-25_11h51.18.107,VisualSearch_2526_3,,2025.2.4,2026-02-25 11h51.18.304255 +0100,
vertical.xlsx,The target is tilted.,135,103,7,12,0,1,1,1,1,1,1,1,0,0,0,0,1,7,8,135,space,12.112967799999751,None,0,1,1.40340470000001,None,space,3.8149656000000505,None,0,0,0,1,,,,,12,7,103,5,302.1799742999997,,,,,,,,,,,,,,,,,,,,,302.1645000999997,302.1799742999997,302.66353359999994,302.66844189999983,302.6825187999998,304.0968452999996,,,,,304.09704429999965,304.1119756999997,304.3115856999998,304.2951857999997,302.6825187999998,,,,,,,,0,1,1.40340470000001,None,,,,,,,,896,22,M,R,2026-02-25_11h51.18.107,VisualSearch_2526_3,,2025.2.4,2026-02-25 11h51.18.304255 +0100,
vertical.xlsx,The target is tilted.,135,104,0,13,1,1,1,1,1,1,1,1,0,0,0,0,0,7,8,135,space,12.112967799999751,None,1,1,0.823019199999635,None,space,3.8149656000000505,None,0,0,0,1,,,,,13,0,104,1,304.3115856999998,,,,,,,,,,,,,,,,,,,,,304.29555819999996,304.3115856999998,304.7955998999996,304.80043439999963,304.8175291999996,305.64461939999956,,,,,305.64472529999966,305.6611025999996,,305.8452691999996,304.8175291999996,,,,,,,,1,1,0.823019199999635,None,,,,,,,,896,22,M,R,2026-02-25_11h51.18.107,VisualSearch_2526_3,,2025.2.4,2026-02-25 11h51.18.304255 +0100,
vertical.xlsx,The target is tilted.,135,105,1,13,1,1,1,1,0,0,0,0,0,0,0,0,0,3,4,135,space,12.112967799999751,None,0,0,0.8674950999998146,None,space,3.8149656000000505,None,0,0,0,1,,,,,13,1,105,2,305.861582,,,,,,,,,,,,,,,,,,,,,305.8462454999999,305.861582,306.34511799999973,306.3506605999996,306.3666013999996,307.24480239999957,,,,,307.24499799999967,307.2602867999999,307.4605987,307.4449046999998,,,,,,,,,0,0,0.8674950999998146,None,,,,,,,,896,22,M,R,2026-02-25_11h51.18.107,VisualSearch_2526_3,,2025.2.4,2026-02-25 11h51.18.304255 +0100,
vertical.xlsx,The target is tilted.,135,106,2,13,0,1,1,1,1,1,1,1,0,0,0,0,1,7,8,135,space,12.112967799999751,None,0,1,1.4158118000000286,None,space,3.8149656000000505,None,0,0,0,1,,,,,13,2,106,5,307.4605987,,,,,,,,,,,,,,,,,,,,,307.44569729999967,307.4605987,307.9448104999997,307.94939139999997,307.9601656,309.3777206,,,,,309.37793459999966,309.39318189999995,309.5932075999999,309.57711839999956,307.9601656,,,,,,,,0,1,1.4158118000000286,None,,,,,,,,896,22,M,R,2026-02-25_11h51.18.107,VisualSearch_2526_3,,2025.2.4,2026-02-25 11h51.18.304255 +0100,
vertical.xlsx,The target is tilted.,135,107,3,13,1,0,0,0,0,0,0,0,0,0,0,0,0,0,1,135,space,12.112967799999751,None,1,1,0.5600613000001431,None,space,3.8149656000000505,None,0,0,0,1,,,,,13,3,107,3,309.5932075999999,,,,,,,,,,,,,,,,,,,,,309.5778475999996,309.5932075999999,310.0767434999998,310.0816218,310.09668799999963,310.6601075999997,,,,,310.66030039999987,310.67564059999995,310.87597559999995,310.85982449999983,310.09668799999963,,,,,,,,1,1,0.5600613000001431,None,,,,,,,,896,22,M,R,2026-02-25_11h51.18.107,VisualSearch_2526_3,,2025.2.4,2026-02-25 11h51.18.304255 +0100,
vertical.xlsx,The target is tilted.,135,108,4,13,0,1,1,1,0,0,0,0,0,0,0,0,1,3,4,135,space,12.112967799999751,None,0,1,0.6269968000001427,None,space,3.8149656000000505,None,0,0,0,1,,,,,13,4,108,6,310.87597559999995,,,,,,,,,,,,,,,,,,,,,310.8605631999999,310.87597559999995,311.35968679999996,311.3643310999996,311.3755874999997,312.00916849999976,,,,,312.00925359999974,312.0251579999999,312.2253993999998,312.20925229999966,311.3755874999997,,,,,,,,0,1,0.6269968000001427,None,,,,,,,,896,22,M,R,2026-02-25_11h51.18.107,VisualSearch_2526_3,,2025.2.4,2026-02-25 11h51.18.304255 +0100,
vertical.xlsx,The target is tilted.,135,109,5,13,0,0,0,0,0,0,0,0,0,0,0,0,1,1,1,135,space,12.112967799999751,None,0,1,0.5166603000002397,None,space,3.8149656000000505,None,0,0,0,1,,,,,13,5,109,7,312.2253993999998,,,,,,,,,,,,,,,,,,,,,312.20997309999984,312.2253993999998,312.70897709999963,312.7137146,312.7294843999998,313.25935189999973,,,,,313.25954729999967,313.27481339999986,313.47481219999963,313.4586277999997,312.7294843999998,,,,,,,,0,1,0.5166603000002397,None,,,,,,,,896,22,M,R,2026-02-25_11h51.18.107,VisualSearch_2526_3,,2025.2.4,2026-02-25 11h51.18.304255 +0100,
vertical.xlsx,The target is tilted.,135,110,6,13,0,1,1,1,1,1,1,1,1,1,1,1,1,11,12,135,space,12.112967799999751,None,0,1,1.2279773000000205,None,space,3.8149656000000505,None,0,0,0,1,,,,,13,6,110,4,313.47481219999963,,,,,,,,,,,,,,,,,,,,,313.45935569999983,313.47481219999963,313.95851029999994,313.9632509999997,313.97680809999974,315.2079474999996,,,,,315.2081234999996,315.22338469999977,315.42385269999977,315.4077637999999,313.97680809999974,,,,,,,,0,1,1.2279773000000205,None,,,,,,,,896,22,M,R,2026-02-25_11h51.18.107,VisualSearch_2526_3,,2025.2.4,2026-02-25 11h51.18.304255 +0100,
vertical.xlsx,The target is tilted.,135,111,7,13,1,1,1,1,1,1,1,1,1,1,1,1,0,11,12,135,space,12.112967799999751,None,1,1,0.8497436000002381,None,space,3.8149656000000505,None,0,0,0,1,,,,,13,7,111,0,315.42385269999977,,,,,,,,,,,,,,,,,,,,,315.40851029999976,315.42385269999977,315.90706999999975,315.9088821999999,315.92356689999997,316.7910611999996,,,,,316.7912535999999,316.80653349999966,317.0064749999997,316.99040339999965,315.92356689999997,,,,,,,,1,1,0.8497436000002381,None,,,,,,,,896,22,M,R,2026-02-25_11h51.18.107,VisualSearch_2526_3,,2025.2.4,2026-02-25 11h51.18.304255 +0100,
vertical.xlsx,The target is tilted.,135,112,0,14,0,0,0,0,0,0,0,0,0,0,0,0,1,1,1,135,space,12.112967799999751,None,0,1,0.5860399000002872,None,space,3.8149656000000505,None,0,0,0,1,,,,,14,0,112,7,317.0064749999997,,,,,,,,,,,,,,,,,,,,,316.99112069999956,317.0064749999997,317.49009689999957,317.4948611,317.51062649999994,318.1071826999996,,,,,318.1073803999998,318.1226213,318.3220629999996,318.30586019999964,317.51062649999994,,,,,,,,0,1,0.5860399000002872,None,,,,,,,,896,22,M,R,2026-02-25_11h51.18.107,VisualSearch_2526_3,,2025.2.4,2026-02-25 11h51.18.304255 +0100,
vertical.xlsx,The target is tilted.,135,113,1,14,1,1,1,1,1,1,1,1,0,0,0,0,0,7,8,135,space,12.112967799999751,None,1,1,0.5517276000000493,None,space,3.8149656000000505,None,0,0,0,1,,,,,14,1,113,1,318.3220629999996,,,,,,,,,,,,,,,,,,,,,318.3064295999998,318.3220629999996,318.8061614999997,318.8111279,318.8245916999999,319.3899038999998,,,,,319.39009769999984,319.4054701,319.60511149999957,319.58903929999997,318.8245916999999,,,,,,,,1,1,0.5517276000000493,None,,,,,,,,896,22,M,R,2026-02-25_11h51.18.107,VisualSearch_2526_3,,2025.2.4,2026-02-25 11h51.18.304255 +0100,
vertical.xlsx,The target is tilted.,135,114,2,14,0,1,1,1,1,1,1,1,0,0,0,0,1,7,8,135,space,12.112967799999751,None,0,1,0.7953883999998652,None,space,3.8149656000000505,None,0,0,0,1,,,,,14,2,114,5,319.60511149999957,,,,,,,,,,,,,,,,,,,,,319.58987149999984,319.60511149999957,320.08919769999966,320.0945152999998,320.10986189999994,320.92159979999997,,,,,320.92168619999984,320.93786969999974,321.1379637,321.1216685999998,320.10986189999994,,,,,,,,0,1,0.7953883999998652,None,,,,,,,,896,22,M,R,2026-02-25_11h51.18.107,VisualSearch_2526_3,,2025.2.4,2026-02-25 11h51.18.304255 +0100,
vertical.xlsx,The target is tilted.,135,115,3,14,1,0,0,0,0,0,0,0,0,0,0,0,0,0,1,135,space,12.112967799999751,None,1,1,1.051189400000112,None,space,3.8149656000000505,None,0,0,0,1,,,,,14,3,115,3,321.1379637,,,,,,,,,,,,,,,,,,,,,321.1224043999996,321.1379637,321.6212483999998,321.6261099999997,321.6404067999997,322.7044120999999,,,,,322.7045733,322.72039579999955,322.92050949999975,322.90425149999965,321.6404067999997,,,,,,,,1,1,1.051189400000112,None,,,,,,,,896,22,M,R,2026-02-25_11h51.18.107,VisualSearch_2526_3,,2025.2.4,2026-02-25 11h51.18.304255 +0100,
vertical.xlsx,The target is tilted.,135,116,4,14,0,1,1,1,0,0,0,0,0,0,0,0,1,3,4,135,space,12.112967799999751,None,0,1,0.7691346999999951,None,space,3.8149656000000505,None,0,0,0,1,,,,,14,4,116,6,322.92050949999975,,,,,,,,,,,,,,,,,,,,,322.90499359999967,322.92050949999975,323.4040922999998,323.4089055999998,323.42442119999987,324.2038570999998,,,,,324.2040348999999,324.2194704999997,324.4198200999999,324.4036275999997,323.42442119999987,,,,,,,,0,1,0.7691346999999951,None,,,,,,,,896,22,M,R,2026-02-25_11h51.18.107,VisualSearch_2526_3,,2025.2.4,2026-02-25 11h51.18.304255 +0100,
vertical.xlsx,The target is tilted.,135,117,5,14,0,1,1,1,1,1,1,1,1,1,1,1,1,11,12,135,space,12.112967799999751,None,0,1,1.5355092999998305,None,space,3.8149656000000505,None,0,0,0,1,,,,,14,5,117,4,324.4198200999999,,,,,,,,,,,,,,,,,,,,,324.4043837999998,324.4198200999999,324.9034029999998,324.9081702999997,324.92209909999974,326.4687931999997,,,,,326.4688702999997,326.48508189999984,,326.66918989999976,324.92209909999974,,,,,,,,0,1,1.5355092999998305,None,,,,,,,,896,22,M,R,2026-02-25_11h51.18.107,VisualSearch_2526_3,,2025.2.4,2026-02-25 11h51.18.304255 +0100,
vertical.xlsx,The target is tilted.,135,118,6,14,1,1,1,1,0,0,0,0,0,0,0,0,0,3,4,135,space,12.112967799999751,None,1,1,0.6368847999997342,None,space,3.8149656000000505,None,0,0,0,1,,,,,14,6,118,2,326.68555929999957,,,,,,,,,,,,,,,,,,,,,326.67004899999984,326.68555929999957,327.1689057999997,327.1736635999996,327.1891174999996,327.8359597999997,,,,,327.8361461999998,327.85124179999957,328.05123189999995,328.03527829999985,327.1891174999996,,,,,,,,1,1,0.6368847999997342,None,,,,,,,,896,22,M,R,2026-02-25_11h51.18.107,VisualSearch_2526_3,,2025.2.4,2026-02-25 11h51.18.304255 +0100,
vertical.xlsx,The target is tilted.,135,119,7,14,1,1,1,1,1,1,1,1,1,1,1,1,0,11,12,135,space,12.112967799999751,None,0,0,1.8298523999997087,None,space,3.8149656000000505,None,0,0,0,1,,,,,14,7,119,0,328.05123189999995,,,,,,,,,,,,,,,,,,,,,328.0360040999999,328.05123189999995,328.5351204999997,328.54000589999987,328.5550586999998,330.4011827999998,,,,,330.40133769999966,330.4169159999997,330.62973029999966,330.60095869999986,328.5550586999998,,,,,,,,0,0,1.8298523999997087,None,,,,,,,,896,22,M,R,2026-02-25_11h51.18.107,VisualSearch_2526_3,,2025.2.4,2026-02-25 11h51.18.304255 +0100,
vertical.xlsx,The target is tilted.,135,0,0,0,,,,,,,,,,,,,,,,,space,12.112967799999751,None,,,,,space,3.8149656000000505,None,0,0,0,1,,,,,,,,,,,,,,,,,,,,,,,,,,,,,,,,,,,,,,,,,,,,,,,,,,,,,,,,,,,,,,,896,22,M,R,2026-02-25_11h51.18.107,VisualSearch_2526_3,,2025.2.4,2026-02-25 11h51.18.304255 +0100,
tilted.xlsx,The target is tilted.,117,0,0,0,0,1,1,1,0,0,0,0,0,0,0,0,1,3,4,117,space,3.367102700000032,None,0,1,0.11787050000020827,None,,,,0,1,1,0,0,0,0,6,,,,,334.0251363999996,,,,,,,,,,,,,,,330.62973029999966,330.62973029999966,330.62973029999966,space,3.367102700000032,None,334.0213755999998,334.0251363999996,334.5155282999999,334.52042589999974,334.5357071999997,334.6657049999999,0,1,0.11787050000020827,None,334.66584639999974,334.6814645999998,334.8816652999999,334.86556889999974,,,,,,,,,,,,,,,,,,,,896,22,M,R,2026-02-25_11h51.18.107,VisualSearch_2526_3,,2025.2.4,2026-02-25 11h51.18.304255 +0100,
tilted.xlsx,The target is tilted.,117,1,1,0,1,1,1,1,1,1,1,1,0,0,0,0,0,7,8,117,space,3.367102700000032,None,1,1,2.8784003000000666,None,,,,0,1,1,0,0,1,1,1,,,,,334.8816652999999,,,,,,,,,,,,,,,,,,,,,334.86626279999973,334.8816652999999,335.3653926999996,335.37019839999994,335.3860179999997,338.2813566,1,1,2.8784003000000666,None,338.28154609999956,338.2968109999997,338.49677129999964,338.4807655999998,335.3860179999997,,,,,,,,,,,,,,,,,,,896,22,M,R,2026-02-25_11h51.18.107,VisualSearch_2526_3,,2025.2.4,2026-02-25 11h51.18.304255 +0100,
tilted.xlsx,The target is tilted.,117,2,2,0,0,1,1,1,1,1,1,1,1,1,1,1,1,11,12,117,space,3.367102700000032,None,0,1,5.2468518999999105,None,,,,0,1,1,0,0,2,2,4,,,,,338.49677129999964,,,,,,,,,,,,,,,,,,,,,338.4814567999997,338.49677129999964,338.9803930999997,338.9851225999996,339.0002144,344.2607177,0,1,5.2468518999999105,None,344.26080379999985,344.27705769999966,344.4773535999998,344.46111569999994,339.0002144,,,,,,,,,,,,,,,,,,,896,22,M,R,2026-02-25_11h51.18.107,VisualSearch_2526_3,,2025.2.4,2026-02-25 11h51.18.304255 +0100,
tilted.xlsx,The target is tilted.,117,3,3,0,1,1,1,1,0,0,0,0,0,0,0,0,0,3,4,117,space,3.367102700000032,None,1,1,0.8582381000001078,None,,,,0,1,1,0,0,3,3,2,,,,,344.4773535999998,,,,,,,,,,,,,,,,,,,,,344.4617982,344.4773535999998,344.9606510999997,344.9654481999996,344.97990919999984,345.843801,1,1,0.8582381000001078,None,345.84392449999996,345.8599813999999,346.05986159999975,346.043819,344.97990919999984,,,,,,,,,,,,,,,,,,,896,22,M,R,2026-02-25_11h51.18.107,VisualSearch_2526_3,,2025.2.4,2026-02-25 11h51.18.304255 +0100,
tilted.xlsx,The target is tilted.,117,4,4,0,0,1,1,1,1,1,1,1,0,0,0,0,1,7,8,117,space,3.367102700000032,None,1,0,1.3192623999998432,None,,,,0,1,1,0,0,4,4,5,,,,,346.05986159999975,,,,,,,,,,,,,,,,,,,,,346.0444835999997,346.05986159999975,346.5435554999999,346.54838629999995,346.5636489999997,347.89282829999956,1,0,1.3192623999998432,None,347.8929436999997,347.9090136,348.10887939999975,348.0928064,346.5636489999997,,,,,,,,,,,,,,,,,,,896,22,M,R,2026-02-25_11h51.18.107,VisualSearch_2526_3,,2025.2.4,2026-02-25 11h51.18.304255 +0100,
tilted.xlsx,The target is tilted.,117,5,5,0,0,0,0,0,0,0,0,0,0,0,0,0,1,1,1,117,space,3.367102700000032,None,0,1,0.8324312999998256,None,,,,0,1,1,0,0,5,5,7,,,,,348.10887939999975,,,,,,,,,,,,,,,,,,,,,348.0934895999999,348.10887939999975,348.5926079999999,348.5974738,348.61218439999993,349.4590988,0,1,0.8324312999998256,None,349.45922919999975,349.4747983999996,349.6747062999998,349.6584823999997,348.61218439999993,,,,,,,,,,,,,,,,,,,896,22,M,R,2026-02-25_11h51.18.107,VisualSearch_2526_3,,2025.2.4,2026-02-25 11h51.18.304255 +0100,
tilted.xlsx,The target is tilted.,117,6,6,0,1,0,0,0,0,0,0,0,0,0,0,0,0,0,1,117,space,3.367102700000032,None,1,1,0.5623928999998498,None,,,,0,1,1,0,0,6,6,3,,,,,349.6747062999998,,,,,,,,,,,,,,,,,,,,,349.65890999999965,349.6747062999998,350.1585974999998,350.1634614999998,350.1774105999998,350.7422554999998,1,1,0.5623928999998498,None,350.74245589999964,350.75765009999986,350.95775209999965,350.9412585,350.1774105999998,,,,,,,,,,,,,,,,,,,896,22,M,R,2026-02-25_11h51.18.107,VisualSearch_2526_3,,2025.2.4,2026-02-25 11h51.18.304255 +0100,
tilted.xlsx,The target is tilted.,117,7,7,0,1,1,1,1,1,1,1,1,1,1,1,1,0,11,12,117,space,3.367102700000032,None,1,1,3.237348099999963,None,,,,0,1,1,0,0,7,7,0,,,,,350.95775209999965,,,,,,,,,,,,,,,,,,,,,350.9419383999998,350.95775209999965,351.44125229999963,351.4462282999998,351.4611911999996,354.7060962999999,1,1,3.237348099999963,None,354.70618779999995,354.7221787999997,354.9226569999996,354.90642019999996,351.4611911999996,,,,,,,,,,,,,,,,,,,896,22,M,R,2026-02-25_11h51.18.107,VisualSearch_2526_3,,2025.2.4,2026-02-25 11h51.18.304255 +0100,
tilted.xlsx,The target is tilted.,117,0,0,0,1,0,0,0,0,0,0,0,0,0,0,0,0,0,1,117,space,3.367102700000032,None,1,1,0.5513267000001179,None,space,1.6197782999997798,None,0,1,1,0,,,,,0,0,0,3,356.5843345999997,,,,,,,,,,,,,,,,,,,,,356.5800158999996,356.5843345999997,357.0713017999997,357.0751313999999,357.09055569999964,357.6544128999999,,,,,357.6545008999997,357.6706022999997,357.8704209999996,357.8539400999998,,354.9134079999999,354.9226569999996,354.9226569999996,356.5556561999997,space,1.6197782999997798,None,1,1,0.5513267000001179,None,,,,,,,,896,22,M,R,2026-02-25_11h51.18.107,VisualSearch_2526_3,,2025.2.4,2026-02-25 11h51.18.304255 +0100,
tilted.xlsx,The target is tilted.,117,1,1,0,0,0,0,0,0,0,0,0,0,0,0,0,1,1,1,117,space,3.367102700000032,None,0,1,1.262125400000059,None,space,1.6197782999997798,None,0,1,1,0,,,,,0,1,1,7,357.8704209999996,,,,,,,,,,,,,,,,,,,,,357.8542159999997,357.8704209999996,358.3547638,358.3602681999996,358.37616579999985,359.6548098999997,,,,,359.6550084999999,359.6699844999998,359.87049479999996,359.8544132999996,,,,,,,,,0,1,1.262125400000059,None,,,,,,,,896,22,M,R,2026-02-25_11h51.18.107,VisualSearch_2526_3,,2025.2.4,2026-02-25 11h51.18.304255 +0100,
tilted.xlsx,The target is tilted.,117,2,2,0,0,1,1,1,1,1,1,1,1,1,1,1,1,11,12,117,space,3.367102700000032,None,1,0,2.563731799999914,None,space,1.6197782999997798,None,0,1,1,0,,,,,0,2,2,4,359.87049479999996,,,,,,,,,,,,,,,,,,,,,359.8552077999998,359.87049479999996,360.3537916999999,360.35867929999995,360.3736409999997,362.9527667999996,,,,,362.9529386999998,362.9690827999998,363.16845159999957,363.1526796999997,360.3736409999997,,,,,,,,1,0,2.563731799999914,None,,,,,,,,896,22,M,R,2026-02-25_11h51.18.107,VisualSearch_2526_3,,2025.2.4,2026-02-25 11h51.18.304255 +0100,
tilted.xlsx,The target is tilted.,117,3,3,0,0,1,1,1,0,0,0,0,0,0,0,0,1,3,4,117,space,3.367102700000032,None,0,1,1.0357171999999082,None,space,1.6197782999997798,None,0,1,1,0,,,,,0,3,3,6,363.16845159999957,,,,,,,,,,,,,,,,,,,,,363.1534134999997,363.16845159999957,363.6524717999996,363.6573102999996,363.6711390999999,364.7198096999996,,,,,364.7200174999998,364.73442769999974,364.9346158999997,364.9185358,363.6711390999999,,,,,,,,0,1,1.0357171999999082,None,,,,,,,,896,22,M,R,2026-02-25_11h51.18.107,VisualSearch_2526_3,,2025.2.4,2026-02-25 11h51.18.304255 +0100,
tilted.xlsx,The target is tilted.,117,4,4,0,1,1,1,1,0,0,0,0,0,0,0,0,0,3,4,117,space,3.367102700000032,None,1,1,0.922688300000118,None,space,1.6197782999997798,None,0,1,1,0,,,,,0,4,4,2,364.9346158999997,,,,,,,,,,,,,,,,,,,,,364.91928529999996,364.9346158999997,365.41828469999973,365.42303919999995,365.4382549999996,366.3684965999996,,,,,366.3686896999998,366.3837104999998,366.58390299999974,366.56768869999996,365.4382549999996,,,,,,,,1,1,0.922688300000118,None,,,,,,,,896,22,M,R,2026-02-25_11h51.18.107,VisualSearch_2526_3,,2025.2.4,2026-02-25 11h51.18.304255 +0100,
tilted.xlsx,The target is tilted.,117,5,5,0,1,1,1,1,1,1,1,1,0,0,0,0,0,7,8,117,space,3.367102700000032,None,1,1,1.5251999000001888,None,space,1.6197782999997798,None,0,1,1,0,,,,,0,5,5,1,366.58390299999974,,,,,,,,,,,,,,,,,,,,,366.5684053,366.58390299999974,367.06765019999966,367.07237399999985,367.0860886999999,368.61721279999983,,,,,368.61737049999965,368.6328719999997,368.8328432999997,368.8168364999997,367.0860886999999,,,,,,,,1,1,1.5251999000001888,None,,,,,,,,896,22,M,R,2026-02-25_11h51.18.107,VisualSearch_2526_3,,2025.2.4,2026-02-25 11h51.18.304255 +0100,
tilted.xlsx,The target is tilted.,117,6,6,0,0,1,1,1,1,1,1,1,0,0,0,0,1,7,8,117,space,3.367102700000032,None,0,1,3.014761699999781,None,space,1.6197782999997798,None,0,1,1,0,,,,,0,6,6,5,368.8328432999997,,,,,,,,,,,,,,,,,,,,,368.81763969999975,368.8328432999997,369.31641439999976,369.32072839999955,369.33308599999964,372.3655869999998,,,,,372.3657635999998,372.3809191999999,372.58133769999995,372.56538869999986,369.33308599999964,,,,,,,,0,1,3.014761699999781,None,,,,,,,,896,22,M,R,2026-02-25_11h51.18.107,VisualSearch_2526_3,,2025.2.4,2026-02-25 11h51.18.304255 +0100,
tilted.xlsx,The target is tilted.,117,7,7,0,1,1,1,1,1,1,1,1,1,1,1,1,0,11,12,117,space,3.367102700000032,None,1,1,1.8097767999997814,None,space,1.6197782999997798,None,0,1,1,0,,,,,0,7,7,0,372.58133769999995,,,,,,,,,,,,,,,,,,,,,372.5662119999997,372.58133769999995,373.06492389999994,373.06965119999995,373.0857799999999,374.8974228999996,,,,,374.89760009999964,374.91341379999994,375.11348399999997,375.0973061999998,373.0857799999999,,,,,,,,1,1,1.8097767999997814,None,,,,,,,,896,22,M,R,2026-02-25_11h51.18.107,VisualSearch_2526_3,,2025.2.4,2026-02-25 11h51.18.304255 +0100,
tilted.xlsx,The target is tilted.,117,8,0,1,1,1,1,1,1,1,1,1,0,0,0,0,0,7,8,117,space,3.367102700000032,None,1,1,2.9693903000002138,None,space,1.6197782999997798,None,0,1,1,0,,,,,1,0,8,1,375.11348399999997,,,,,,,,,,,,,,,,,,,,,375.09808729999986,375.11348399999997,375.59708699999965,375.601909,375.61641009999994,378.5964081999996,,,,,378.59662679999974,378.6117379999996,378.8117146999998,378.79569239999955,375.61641009999994,,,,,,,,1,1,2.9693903000002138,None,,,,,,,,896,22,M,R,2026-02-25_11h51.18.107,VisualSearch_2526_3,,2025.2.4,2026-02-25 11h51.18.304255 +0100,
tilted.xlsx,The target is tilted.,117,9,1,1,0,1,1,1,1,1,1,1,1,1,1,1,1,11,12,117,space,3.367102700000032,None,0,1,8.782227199999852,None,space,1.6197782999997798,None,0,1,1,0,,,,,1,1,9,4,378.8117146999998,,,,,,,,,,,,,,,,,,,,,378.7964404999998,378.8117146999998,379.2953030999997,379.30010879999963,379.3152392999996,388.1079190999999,,,,,388.10801969999966,388.1239985999996,388.3241045,388.3079709999997,379.3152392999996,,,,,,,,0,1,8.782227199999852,None,,,,,,,,896,22,M,R,2026-02-25_11h51.18.107,VisualSearch_2526_3,,2025.2.4,2026-02-25 11h51.18.304255 +0100,
tilted.xlsx,The target is tilted.,117,10,2,1,1,1,1,1,0,0,0,0,0,0,0,0,0,3,4,117,space,3.367102700000032,None,1,1,1.4730967999998938,None,space,1.6197782999997798,None,0,1,1,0,,,,,1,2,10,2,388.3241045,,,,,,,,,,,,,,,,,,,,,388.30871309999975,388.3241045,388.8077497999998,388.8125256999997,388.82704239999975,390.3070550999996,,,,,390.3071903,390.3230712999998,390.52301339999985,390.5069011999999,388.82704239999975,,,,,,,,1,1,1.4730967999998938,None,,,,,,,,896,22,M,R,2026-02-25_11h51.18.107,VisualSearch_2526_3,,2025.2.4,2026-02-25 11h51.18.304255 +0100,
tilted.xlsx,The target is tilted.,117,11,3,1,1,1,1,1,1,1,1,1,1,1,1,1,0,11,12,117,space,3.367102700000032,None,1,1,1.5125843999999233,None,space,1.6197782999997798,None,0,1,1,0,,,,,1,3,11,0,390.52301339999985,,,,,,,,,,,,,,,,,,,,,390.50774109999975,390.52301339999985,391.0066125999997,391.01140629999963,391.0260602999997,392.5399302999999,,,,,392.5401238999998,392.5553190999999,392.75545399999965,392.73925119999967,391.0260602999997,,,,,,,,1,1,1.5125843999999233,None,,,,,,,,896,22,M,R,2026-02-25_11h51.18.107,VisualSearch_2526_3,,2025.2.4,2026-02-25 11h51.18.304255 +0100,
tilted.xlsx,The target is tilted.,117,12,4,1,1,0,0,0,0,0,0,0,0,0,0,0,0,0,1,117,space,3.367102700000032,None,1,1,1.2193377000003238,None,space,1.6197782999997798,None,0,1,1,0,,,,,1,4,12,3,392.75545399999965,,,,,,,,,,,,,,,,,,,,,392.73999349999985,392.75545399999965,393.2391184999997,393.2439204999996,393.2592328999999,394.48869179999974,,,,,394.48888339999985,394.5044359999997,394.70431819999976,394.6880164999998,393.2592328999999,,,,,,,,1,1,1.2193377000003238,None,,,,,,,,896,22,M,R,2026-02-25_11h51.18.107,VisualSearch_2526_3,,2025.2.4,2026-02-25 11h51.18.304255 +0100,
tilted.xlsx,The target is tilted.,117,13,5,1,0,1,1,1,1,1,1,1,0,0,0,0,1,7,8,117,space,3.367102700000032,None,0,1,3.8889718000000357,None,space,1.6197782999997798,None,0,1,1,0,,,,,1,5,13,5,394.70431819999976,,,,,,,,,,,,,,,,,,,,,394.6883309,394.70431819999976,395.1881540999998,395.1929227999999,395.2082650999996,399.1033686999999,,,,,399.10356219999994,399.11902199999986,399.31901359999983,399.3026404999996,395.2082650999996,,,,,,,,0,1,3.8889718000000357,None,,,,,,,,896,22,M,R,2026-02-25_11h51.18.107,VisualSearch_2526_3,,2025.2.4,2026-02-25 11h51.18.304255 +0100,
tilted.xlsx,The target is tilted.,117,14,6,1,0,0,0,0,0,0,0,0,0,0,0,0,1,1,1,117,space,3.367102700000032,None,0,1,0.7993474999998398,None,space,1.6197782999997798,None,0,1,1,0,,,,,1,6,14,7,399.31901359999983,,,,,,,,,,,,,,,,,,,,,399.30338059999985,399.31901359999983,399.8026781999997,399.8075882999997,399.8227827999999,400.6355500999998,,,,,400.6356662999997,400.65165709999974,400.8516746999999,400.83530219999966,399.8227827999999,,,,,,,,0,1,0.7993474999998398,None,,,,,,,,896,22,M,R,2026-02-25_11h51.18.107,VisualSearch_2526_3,,2025.2.4,2026-02-25 11h51.18.304255 +0100,
tilted.xlsx,The target is tilted.,117,15,7,1,0,1,1,1,0,0,0,0,0,0,0,0,1,3,4,117,space,3.367102700000032,None,0,1,1.0787997000002179,None,space,1.6197782999997798,None,0,1,1,0,,,,,1,7,15,6,400.8516746999999,,,,,,,,,,,,,,,,,,,,,400.83601599999974,400.8516746999999,401.33540459999995,401.3403149999999,401.3555287999998,402.4510378,,,,,402.45112599999993,402.4673272,402.66744229999995,402.6509917999997,401.3555287999998,,,,,,,,0,1,1.0787997000002179,None,,,,,,,,896,22,M,R,2026-02-25_11h51.18.107,VisualSearch_2526_3,,2025.2.4,2026-02-25 11h51.18.304255 +0100,
tilted.xlsx,The target is tilted.,117,16,0,2,0,1,1,1,0,0,0,0,0,0,0,0,1,3,4,117,space,3.367102700000032,None,0,1,1.3777237999997851,None,space,1.6197782999997798,None,0,1,1,0,,,,,2,0,16,6,402.66744229999995,,,,,,,,,,,,,,,,,,,,,402.6517184999998,402.66744229999995,403.1510310999997,403.1557934999996,403.17034809999996,404.5511687999997,,,,,404.55137929999955,404.5662862999998,404.7666514999996,404.75045699999964,403.17034809999996,,,,,,,,0,1,1.3777237999997851,None,,,,,,,,896,22,M,R,2026-02-25_11h51.18.107,VisualSearch_2526_3,,2025.2.4,2026-02-25 11h51.18.304255 +0100,
tilted.xlsx,The target is tilted.,117,17,1,2,1,1,1,1,1,1,1,1,0,0,0,0,0,7,8,117,space,3.367102700000032,None,0,0,2.6765489999997953,None,space,1.6197782999997798,None,0,1,1,0,,,,,2,1,17,1,404.7666514999996,,,,,,,,,,,,,,,,,,,,,404.7512050999999,404.7666514999996,405.2502012,405.2550885999999,405.27021499999955,407.9488417999996,,,,,407.9489341999997,407.96485989999974,408.16507029999957,408.1484986999999,405.27021499999955,,,,,,,,0,0,2.6765489999997953,None,,,,,,,,896,22,M,R,2026-02-25_11h51.18.107,VisualSearch_2526_3,,2025.2.4,2026-02-25 11h51.18.304255 +0100,
tilted.xlsx,The target is tilted.,117,18,2,2,1,1,1,1,0,0,0,0,0,0,0,0,0,3,4,117,space,3.367102700000032,None,1,1,1.3007766999999149,None,space,1.6197782999997798,None,0,1,1,0,,,,,2,2,18,2,408.16507029999957,,,,,,,,,,,,,,,,,,,,,408.1492475,408.16507029999957,408.6483724999998,408.6532040999996,408.6694344999996,409.9816836,,,,,409.98188009999967,409.9975894999998,410.1970481999997,410.18104349999976,408.6694344999996,,,,,,,,1,1,1.3007766999999149,None,,,,,,,,896,22,M,R,2026-02-25_11h51.18.107,VisualSearch_2526_3,,2025.2.4,2026-02-25 11h51.18.304255 +0100,
tilted.xlsx,The target is tilted.,117,19,3,2,0,0,0,0,0,0,0,0,0,0,0,0,1,1,1,117,space,3.367102700000032,None,0,1,0.9239339000000655,None,space,1.6197782999997798,None,0,1,1,0,,,,,2,3,19,7,410.1970481999997,,,,,,,,,,,,,,,,,,,,,410.1817655,410.1970481999997,410.68109239999967,410.68397419999974,410.6971303999999,411.6308190999998,,,,,411.63093949999984,411.6464652999998,411.84674929999983,411.8306070999997,410.6971303999999,,,,,,,,0,1,0.9239339000000655,None,,,,,,,,896,22,M,R,2026-02-25_11h51.18.107,VisualSearch_2526_3,,2025.2.4,2026-02-25 11h51.18.304255 +0100,
tilted.xlsx,The target is tilted.,117,20,4,2,0,1,1,1,1,1,1,1,1,1,1,1,1,11,12,117,space,3.367102700000032,None,1,0,4.159217500000068,None,space,1.6197782999997798,None,0,1,1,0,,,,,2,4,20,4,411.84674929999983,,,,,,,,,,,,,,,,,,,,,411.8313518,411.84674929999983,412.3300548999996,412.3348275999997,412.3497163999996,416.5121082999999,,,,,416.51228409999976,416.52782979999984,416.7280211999996,416.7114241999998,412.3497163999996,,,,,,,,1,0,4.159217500000068,None,,,,,,,,896,22,M,R,2026-02-25_11h51.18.107,VisualSearch_2526_3,,2025.2.4,2026-02-25 11h51.18.304255 +0100,
tilted.xlsx,The target is tilted.,117,21,5,2,1,1,1,1,1,1,1,1,1,1,1,1,0,11,12,117,space,3.367102700000032,None,1,1,1.7496001999998043,None,space,1.6197782999997798,None,0,1,1,0,,,,,2,5,21,0,416.7280211999996,,,,,,,,,,,,,,,,,,,,,416.7121674,416.7280211999996,417.2111286999998,417.2159233999996,417.2308002,418.99426379999977,,,,,418.9944280999998,419.0100815999999,419.21020309999994,419.1938743999999,417.2308002,,,,,,,,1,1,1.7496001999998043,None,,,,,,,,896,22,M,R,2026-02-25_11h51.18.107,VisualSearch_2526_3,,2025.2.4,2026-02-25 11h51.18.304255 +0100,
tilted.xlsx,The target is tilted.,117,22,6,2,0,1,1,1,1,1,1,1,0,0,0,0,1,7,8,117,space,3.367102700000032,None,1,0,1.1803790999997545,None,space,1.6197782999997798,None,0,1,1,0,,,,,2,6,22,5,419.21020309999994,,,,,,,,,,,,,,,,,,,,,419.1946504999996,419.21020309999994,419.69358159999956,419.6984854999996,419.7132018999996,420.90967569999975,,,,,420.90976409999985,420.9257719999996,421.12585579999995,421.1097338999998,419.7132018999996,,,,,,,,1,0,1.1803790999997545,None,,,,,,,,896,22,M,R,2026-02-25_11h51.18.107,VisualSearch_2526_3,,2025.2.4,2026-02-25 11h51.18.304255 +0100,
tilted.xlsx,The target is tilted.,117,23,7,2,1,0,0,0,0,0,0,0,0,0,0,0,0,0,1,117,space,3.367102700000032,None,1,1,0.9328061000001071,None,space,1.6197782999997798,None,0,1,1,0,,,,,2,7,23,3,421.12585579999995,,,,,,,,,,,,,,,,,,,,,421.11045319999994,421.12585579999995,421.60940619999974,421.6143049999996,421.6298489999999,422.57618279999997,,,,,422.5763612999999,422.5917800999996,422.79130339999983,422.7756568,421.6298489999999,,,,,,,,1,1,0.9328061000001071,None,,,,,,,,896,22,M,R,2026-02-25_11h51.18.107,VisualSearch_2526_3,,2025.2.4,2026-02-25 11h51.18.304255 +0100,
tilted.xlsx,The target is tilted.,117,24,0,3,0,1,1,1,1,1,1,1,1,1,1,1,1,11,12,117,space,3.367102700000032,None,1,0,3.108158900000035,None,space,1.6197782999997798,None,0,1,1,0,,,,,3,0,24,4,422.79130339999983,,,,,,,,,,,,,,,,,,,,,422.7764094999998,422.79130339999983,423.27545869999994,423.2801915,423.2948572999999,426.4075121999999,,,,,426.40773409999974,426.42336179999984,426.6234030999999,426.6071539999998,423.2948572999999,,,,,,,,1,0,3.108158900000035,None,,,,,,,,896,22,M,R,2026-02-25_11h51.18.107,VisualSearch_2526_3,,2025.2.4,2026-02-25 11h51.18.304255 +0100,
tilted.xlsx,The target is tilted.,117,25,1,3,0,1,1,1,1,1,1,1,0,0,0,0,1,7,8,117,space,3.367102700000032,None,0,1,5.361777300000085,None,space,1.6197782999997798,None,0,1,1,0,,,,,3,1,25,5,426.6234030999999,,,,,,,,,,,,,,,,,,,,,426.6079448999999,426.6234030999999,427.10686719999967,427.1116479999996,427.12644239999963,432.5048010999999,,,,,432.5049635999999,432.5205514999998,432.7204834999998,432.7043636999997,427.12644239999963,,,,,,,,0,1,5.361777300000085,None,,,,,,,,896,22,M,R,2026-02-25_11h51.18.107,VisualSearch_2526_3,,2025.2.4,2026-02-25 11h51.18.304255 +0100,
tilted.xlsx,The target is tilted.,117,26,2,3,0,0,0,0,0,0,0,0,0,0,0,0,1,1,1,117,space,3.367102700000032,None,0,1,0.9474267000000509,None,space,1.6197782999997798,None,0,1,1,0,,,,,3,2,26,7,432.7204834999998,,,,,,,,,,,,,,,,,,,,,432.7051147999996,432.7204834999998,433.2041783999998,433.2090122999998,433.22452239999984,434.1870721999999,,,,,434.18727539999963,434.20305899999994,434.40306299999975,434.3869946,433.22452239999984,,,,,,,,0,1,0.9474267000000509,None,,,,,,,,896,22,M,R,2026-02-25_11h51.18.107,VisualSearch_2526_3,,2025.2.4,2026-02-25 11h51.18.304255 +0100,
tilted.xlsx,The target is tilted.,117,27,3,3,1,1,1,1,1,1,1,1,0,0,0,0,0,7,8,117,space,3.367102700000032,None,1,1,0.850984900000185,None,space,1.6197782999997798,None,0,1,1,0,,,,,3,3,27,1,434.40306299999975,,,,,,,,,,,,,,,,,,,,,434.3878258,434.40306299999975,434.8870933999997,434.89249379999956,434.90743619999967,435.76948939999966,,,,,435.7696363,435.78544539999984,435.9858118999996,435.96963339999957,434.90743619999967,,,,,,,,1,1,0.850984900000185,None,,,,,,,,896,22,M,R,2026-02-25_11h51.18.107,VisualSearch_2526_3,,2025.2.4,2026-02-25 11h51.18.304255 +0100,
tilted.xlsx,The target is tilted.,117,28,4,3,1,0,0,0,0,0,0,0,0,0,0,0,0,0,1,117,space,3.367102700000032,None,1,1,0.7583646000002773,None,space,1.6197782999997798,None,0,1,1,0,,,,,3,4,28,3,435.9858118999996,,,,,,,,,,,,,,,,,,,,,435.9703528,435.9858118999996,436.46935689999964,436.47489689999975,436.49004639999976,437.2526069999999,,,,,437.2528127999999,437.2682206999998,437.46843249999984,437.4518238999999,436.49004639999976,,,,,,,,1,1,0.7583646000002773,None,,,,,,,,896,22,M,R,2026-02-25_11h51.18.107,VisualSearch_2526_3,,2025.2.4,2026-02-25 11h51.18.304255 +0100,
tilted.xlsx,The target is tilted.,117,29,5,3,1,1,1,1,1,1,1,1,1,1,1,1,0,11,12,117,space,3.367102700000032,None,1,1,3.762773500000094,None,space,1.6197782999997798,None,0,1,1,0,,,,,3,5,29,0,437.46843249999984,,,,,,,,,,,,,,,,,,,,,437.4525570999999,437.46843249999984,437.9519679,437.9567374999997,437.9726034999999,441.7505364999997,,,,,441.75072809999983,441.7660526999998,441.96635929999957,441.9503135,437.9726034999999,,,,,,,,1,1,3.762773500000094,None,,,,,,,,896,22,M,R,2026-02-25_11h51.18.107,VisualSearch_2526_3,,2025.2.4,2026-02-25 11h51.18.304255 +0100,
tilted.xlsx,The target is tilted.,117,30,6,3,0,1,1,1,0,0,0,0,0,0,0,0,1,3,4,117,space,3.367102700000032,None,0,1,4.520938000000115,None,space,1.6197782999997798,None,0,1,1,0,,,,,3,6,30,6,441.96635929999957,,,,,,,,,,,,,,,,,,,,,441.95101469999963,441.96635929999957,442.4500948,442.45490919999975,442.4699437999998,446.99853159999975,,,,,446.9987268,447.0137338999998,447.21358269999973,447.1978761999999,442.4699437999998,,,,,,,,0,1,4.520938000000115,None,,,,,,,,896,22,M,R,2026-02-25_11h51.18.107,VisualSearch_2526_3,,2025.2.4,2026-02-25 11h51.18.304255 +0100,
tilted.xlsx,The target is tilted.,117,31,7,3,1,1,1,1,0,0,0,0,0,0,0,0,0,3,4,117,space,3.367102700000032,None,1,1,0.6826925999998821,None,space,1.6197782999997798,None,0,1,1,0,,,,,3,7,31,2,447.21358269999973,,,,,,,,,,,,,,,,,,,,,447.19859979999956,447.21358269999973,447.69720119999965,447.69951299999957,447.71358929999997,448.39771429999973,,,,,448.3979224999998,448.4133419,448.61339629999975,448.5974065999999,447.71358929999997,,,,,,,,1,1,0.6826925999998821,None,,,,,,,,896,22,M,R,2026-02-25_11h51.18.107,VisualSearch_2526_3,,2025.2.4,2026-02-25 11h51.18.304255 +0100,
tilted.xlsx,The target is tilted.,117,32,0,4,0,0,0,0,0,0,0,0,0,0,0,0,1,1,1,117,space,3.367102700000032,None,0,1,0.6412669999999707,None,space,1.6197782999997798,None,0,1,1,0,,,,,4,0,32,7,448.61339629999975,,,,,,,,,,,,,,,,,,,,,448.59820969999964,448.61339629999975,449.09690309999996,449.1017474999999,449.1139264999997,449.7639700999998,,,,,449.76416169999993,449.7795354,449.9794118,449.96320879999985,449.1139264999997,,,,,,,,0,1,0.6412669999999707,None,,,,,,,,896,22,M,R,2026-02-25_11h51.18.107,VisualSearch_2526_3,,2025.2.4,2026-02-25 11h51.18.304255 +0100,
tilted.xlsx,The target is tilted.,117,33,1,4,0,1,1,1,1,1,1,1,1,1,1,1,1,11,12,117,space,3.367102700000032,None,0,1,3.5893410000003314,None,space,1.6197782999997798,None,0,1,1,0,,,,,4,1,33,4,449.9794118,,,,,,,,,,,,,,,,,,,,,449.9640296999996,449.9794118,450.46293289999994,450.4676940999998,450.48007519999965,454.07793219999985,,,,,454.0780371999999,454.09404369999993,454.2940228999996,454.27766199999996,450.48007519999965,,,,,,,,0,1,3.5893410000003314,None,,,,,,,,896,22,M,R,2026-02-25_11h51.18.107,VisualSearch_2526_3,,2025.2.4,2026-02-25 11h51.18.304255 +0100,
