file_name,block_instructions,target_example,thisN,thisTrialN,thisRepN,target_presence,opacity_1,opacity_2,opacity_3,opacity_4,opacity_5,opacity_6,opacity_7,opacity_8,opacity_9,opacity_10,opacity_11,opacity_12,n_distract,n_items,target_ori,key_resp_4.keys,key_resp_4.rt,key_resp_4.duration,key_resp.keys,key_resp.corr,key_resp.rt,key_resp.duration,key_resp_5.keys,key_resp_5.rt,key_resp_5.duration,blocks.thisRepN,blocks.thisTrialN,blocks.thisN,blocks.thisIndex,practice_trials.thisRepN,practice_trials.thisTrialN,practice_trials.thisN,practice_trials.thisIndex,trials.thisRepN,trials.thisTrialN,trials.thisN,trials.thisIndex,thisRow.t,notes,Welcome.started,WelcomeText.started,key_resp_2.started,Welcome.stopped,key_resp_2.keys,key_resp_2.rt,key_resp_2.duration,InformedConsent.started,text_4.started,InformedConsent.stopped,key_resp_6.keys,key_resp_6.rt,key_resp_6.duration,key_resp_4.started,example_target.started,text_3.started,blocks.key_resp_4.keys,blocks.key_resp_4.rt,blocks.key_resp_4.duration,FixCross.started,fixCross.started,FixCross.stopped,Stimulus.started,key_resp.started,Stimulus.stopped,practice_trials.key_resp.keys,practice_trials.key_resp.corr,practice_trials.key_resp.rt,practice_trials.key_resp.duration,BlankScreen.started,text.started,text.stopped,BlankScreen.stopped,fixCross.stopped,ExperimentStart.started,text_2.started,key_resp_5.started,ExperimentStart.stopped,blocks.key_resp_5.keys,blocks.key_resp_5.rt,blocks.key_resp_5.duration,trials.key_resp.keys,trials.key_resp.corr,trials.key_resp.rt,trials.key_resp.duration,Thanks.started,ThankYou.started,key_resp_3.started,Thanks.stopped,key_resp_3.keys,key_resp_3.rt,key_resp_3.duration,participant,leeftijd,gender,links/rechtshandig,date,expName,expVersion,psychopyVersion,expStart,
,,,,,,,,,,,,,,,,,,,,,,,,,,,,,,,,,,,,,,,,,,,,,,0.017747499999131833,0.029684099999940372,0.029684099999940372,26.549713199999132,space,26.50359430000026,None,,,,,,,,,,,,,,,,,,,,,,,,,,,,,,,,,,,,,,,,,,,,,,897,23,M,L,2026-02-25_12h03.28.177,VisualSearch_2526_3,,2025.2.4,2026-02-25 12h03.28.371805 +0100,
,,,,,,,,,,,,,,,,,,,,,,,,,,,,,,,,,,,,,,,,,,,,,,,,,,,,,26.54978459999984,26.555259099999603,30.803635699999177,y,4.237339899999824,None,,,,,,,,,,,,,,,,,,,,,,,,,,,,,,,,,,,,,,,,897,23,M,L,2026-02-25_12h03.28.177,VisualSearch_2526_3,,2025.2.4,2026-02-25 12h03.28.371805 +0100,
tilted.xlsx,The target is tilted.,117,0,0,0,0,1,1,1,1,1,1,1,1,1,1,1,1,11,12,117,space,4.158214000000044,None,0,1,3.127481099999386,None,,,,0,0,0,0,0,0,0,4,,,,,35.02556149999964,,,,,,,,,,,,,,,30.839849199999662,30.839849199999662,30.839849199999662,space,4.158214000000044,None,35.020787599999494,35.02556149999964,35.517150099999526,35.522127599999294,35.536841499999355,38.66647339999963,0,1,3.127481099999386,None,38.666669599999295,38.681723599999714,38.88161869999931,38.8654721999992,,,,,,,,,,,,,,,,,,,,897,23,M,L,2026-02-25_12h03.28.177,VisualSearch_2526_3,,2025.2.4,2026-02-25 12h03.28.371805 +0100,
tilted.xlsx,The target is tilted.,117,1,1,0,0,1,1,1,0,0,0,0,0,0,0,0,1,3,4,117,space,4.158214000000044,None,0,1,1.1111544999994294,None,,,,0,0,0,0,0,1,1,6,,,,,38.88161869999931,,,,,,,,,,,,,,,,,,,,,38.866167599999244,38.88161869999931,39.36543409999922,39.37029299999995,39.38577169999917,40.4991,0,1,1.1111544999994294,None,40.499302799999896,40.51446059999944,40.71435829999973,40.698196699999244,39.38577169999917,,,,,,,,,,,,,,,,,,,897,23,M,L,2026-02-25_12h03.28.177,VisualSearch_2526_3,,2025.2.4,2026-02-25 12h03.28.371805 +0100,
tilted.xlsx,The target is tilted.,117,2,2,0,1,1,1,1,0,0,0,0,0,0,0,0,0,3,4,117,space,4.158214000000044,None,1,1,0.7262591999997312,None,,,,0,0,0,0,0,2,2,2,,,,,40.71435829999973,,,,,,,,,,,,,,,,,,,,,40.698890599999686,40.71435829999973,41.19817779999994,41.20299289999912,41.21746429999985,41.94793709999976,1,1,0.7262591999997312,None,41.948140199999216,41.963261499999135,42.163813299999674,42.14772819999962,41.21746429999985,,,,,,,,,,,,,,,,,,,897,23,M,L,2026-02-25_12h03.28.177,VisualSearch_2526_3,,2025.2.4,2026-02-25 12h03.28.371805 +0100,
tilted.xlsx,The target is tilted.,117,3,3,0,1,1,1,1,1,1,1,1,0,0,0,0,0,7,8,117,space,4.158214000000044,None,1,1,0.9223436000002039,None,,,,0,0,0,0,0,3,3,1,,,,,42.163813299999674,,,,,,,,,,,,,,,,,,,,,42.1484090999993,42.163813299999674,42.64693079999961,42.64935349999996,42.66339879999941,43.597684799999115,1,1,0.9223436000002039,None,43.59787619999952,43.61264469999969,43.812703799999326,43.79667969999991,42.66339879999941,,,,,,,,,,,,,,,,,,,897,23,M,L,2026-02-25_12h03.28.177,VisualSearch_2526_3,,2025.2.4,2026-02-25 12h03.28.371805 +0100,
tilted.xlsx,The target is tilted.,117,4,4,0,1,0,0,0,0,0,0,0,0,0,0,0,0,0,1,117,space,4.158214000000044,None,1,1,0.551316200000656,None,,,,0,0,0,0,0,4,4,3,,,,,43.812703799999326,,,,,,,,,,,,,,,,,,,,,43.79735559999972,43.812703799999326,44.29674739999973,44.30152629999975,44.316548099999636,44.88039639999988,1,1,0.551316200000656,None,44.881367599999976,44.8953477999994,45.0958815999993,45.07965139999942,44.316548099999636,,,,,,,,,,,,,,,,,,,897,23,M,L,2026-02-25_12h03.28.177,VisualSearch_2526_3,,2025.2.4,2026-02-25 12h03.28.371805 +0100,
tilted.xlsx,The target is tilted.,117,5,5,0,1,1,1,1,1,1,1,1,1,1,1,1,0,11,12,117,space,4.158214000000044,None,0,0,2.7091747000004034,None,,,,0,0,0,0,0,5,5,0,,,,,45.0958815999993,,,,,,,,,,,,,,,,,,,,,45.08034449999923,45.0958815999993,45.57941549999941,45.58418129999973,45.599385299999994,48.31200639999952,0,0,2.7091747000004034,None,48.31220209999992,48.32718919999934,48.52765249999993,48.51156529999935,45.599385299999994,,,,,,,,,,,,,,,,,,,897,23,M,L,2026-02-25_12h03.28.177,VisualSearch_2526_3,,2025.2.4,2026-02-25 12h03.28.371805 +0100,
tilted.xlsx,The target is tilted.,117,6,6,0,0,1,1,1,1,1,1,1,0,0,0,0,1,7,8,117,space,4.158214000000044,None,0,1,3.0191162999999506,None,,,,0,0,0,0,0,6,6,5,,,,,48.52765249999993,,,,,,,,,,,,,,,,,,,,,48.51222519999919,48.52765249999993,49.0112139999992,49.01597759999913,49.03049959999953,52.06031709999934,0,1,3.0191162999999506,None,52.06048549999923,52.07544979999966,52.27594109999973,52.25975319999998,49.03049959999953,,,,,,,,,,,,,,,,,,,897,23,M,L,2026-02-25_12h03.28.177,VisualSearch_2526_3,,2025.2.4,2026-02-25 12h03.28.371805 +0100,
tilted.xlsx,The target is tilted.,117,7,7,0,0,0,0,0,0,0,0,0,0,0,0,0,1,1,1,117,space,4.158214000000044,None,0,1,0.6795984999998836,None,,,,0,0,0,0,0,7,7,7,,,,,52.27594109999973,,,,,,,,,,,,,,,,,,,,,52.260467199999766,52.27594109999973,52.759570399999575,52.76432699999987,52.78043069999967,53.475665999999364,0,1,0.6795984999998836,None,53.47583709999981,53.491465699999935,53.69135709999955,53.67587209999965,52.78043069999967,,,,,,,,,,,,,,,,,,,897,23,M,L,2026-02-25_12h03.28.177,VisualSearch_2526_3,,2025.2.4,2026-02-25 12h03.28.371805 +0100,
tilted.xlsx,The target is tilted.,117,0,0,0,0,1,1,1,1,1,1,1,0,0,0,0,1,7,8,117,space,4.158214000000044,None,0,1,3.0059688999999707,None,space,2.0925374999997075,None,0,0,0,0,,,,,0,0,0,5,55.807568499999434,,,,,,,,,,,,,,,,,,,,,55.80421519999982,55.807568499999434,56.29117489999953,56.295966799999405,56.31008399999973,59.32376319999912,,,,,59.3239853999994,59.33882369999992,59.539310099999966,59.52307449999989,56.31008399999973,53.68155769999976,53.69135709999955,53.69135709999955,55.79124889999912,space,2.0925374999997075,None,0,1,3.0059688999999707,None,,,,,,,,897,23,M,L,2026-02-25_12h03.28.177,VisualSearch_2526_3,,2025.2.4,2026-02-25 12h03.28.371805 +0100,
tilted.xlsx,The target is tilted.,117,1,1,0,1,1,1,1,0,0,0,0,0,0,0,0,0,3,4,117,space,4.158214000000044,None,1,1,0.8403868999994302,None,space,2.0925374999997075,None,0,0,0,0,,,,,0,1,1,2,59.539310099999966,,,,,,,,,,,,,,,,,,,,,59.523856999999225,59.539310099999966,60.022746699999516,60.0280503999993,60.04252719999931,60.889683199999126,,,,,60.88988309999968,60.9046443999996,61.105254799999784,61.08910559999913,60.04252719999931,,,,,,,,1,1,0.8403868999994302,None,,,,,,,,897,23,M,L,2026-02-25_12h03.28.177,VisualSearch_2526_3,,2025.2.4,2026-02-25 12h03.28.371805 +0100,
tilted.xlsx,The target is tilted.,117,2,2,0,0,1,1,1,1,1,1,1,1,1,1,1,1,11,12,117,space,4.158214000000044,None,0,1,3.425924600000144,None,space,2.0925374999997075,None,0,0,0,0,,,,,0,2,2,4,61.105254799999784,,,,,,,,,,,,,,,,,,,,,61.089863699999114,61.105254799999784,61.588933999999426,61.5936443999999,61.61100869999973,65.05348109999977,,,,,65.05362969999987,65.06947909999963,65.2699963999994,65.2537083999996,61.61100869999973,,,,,,,,0,1,3.425924600000144,None,,,,,,,,897,23,M,L,2026-02-25_12h03.28.177,VisualSearch_2526_3,,2025.2.4,2026-02-25 12h03.28.371805 +0100,
tilted.xlsx,The target is tilted.,117,3,3,0,0,0,0,0,0,0,0,0,0,0,0,0,1,1,1,117,space,4.158214000000044,None,0,1,0.5614832000001115,None,space,2.0925374999997075,None,0,0,0,0,,,,,0,3,3,7,65.2699963999994,,,,,,,,,,,,,,,,,,,,,65.2545782999996,65.2699963999994,65.75360519999958,65.75817169999937,65.76965149999978,66.33736699999918,,,,,66.3375690999992,66.3523284999992,66.55267869999989,66.53662669999994,65.76965149999978,,,,,,,,0,1,0.5614832000001115,None,,,,,,,,897,23,M,L,2026-02-25_12h03.28.177,VisualSearch_2526_3,,2025.2.4,2026-02-25 12h03.28.371805 +0100,
tilted.xlsx,The target is tilted.,117,4,4,0,1,1,1,1,1,1,1,1,0,0,0,0,0,7,8,117,space,4.158214000000044,None,1,1,2.0511194000000614,None,space,2.0925374999997075,None,0,0,0,0,,,,,0,4,4,1,66.55267869999989,,,,,,,,,,,,,,,,,,,,,66.53736029999982,66.55267869999989,67.03637249999974,67.04117429999951,67.05616049999935,69.11935849999918,,,,,69.11956099999952,69.13432229999944,69.33487139999943,69.31863909999993,67.05616049999935,,,,,,,,1,1,2.0511194000000614,None,,,,,,,,897,23,M,L,2026-02-25_12h03.28.177,VisualSearch_2526_3,,2025.2.4,2026-02-25 12h03.28.371805 +0100,
tilted.xlsx,The target is tilted.,117,5,5,0,0,1,1,1,0,0,0,0,0,0,0,0,1,3,4,117,space,4.158214000000044,None,0,1,1.2139615000005506,None,space,2.0925374999997075,None,0,0,0,0,,,,,0,5,5,6,69.33487139999943,,,,,,,,,,,,,,,,,,,,,69.31942519999939,69.33487139999943,69.81863079999948,69.82347169999957,69.83995959999993,71.06771089999984,,,,,71.06789049999952,71.08352359999935,71.28390919999947,71.26787139999942,69.83995959999993,,,,,,,,0,1,1.2139615000005506,None,,,,,,,,897,23,M,L,2026-02-25_12h03.28.177,VisualSearch_2526_3,,2025.2.4,2026-02-25 12h03.28.371805 +0100,
tilted.xlsx,The target is tilted.,117,6,6,0,1,1,1,1,1,1,1,1,1,1,1,1,0,11,12,117,space,4.158214000000044,None,1,1,1.5613054000004922,None,space,2.0925374999997075,None,0,0,0,0,,,,,0,6,6,0,71.28390919999947,,,,,,,,,,,,,,,,,,,,,71.26862119999987,71.28390919999947,71.76787969999987,71.7726490999994,71.78375259999939,73.35071769999922,,,,,73.35091679999914,73.36578559999998,73.5658641,73.55010119999952,71.78375259999939,,,,,,,,1,1,1.5613054000004922,None,,,,,,,,897,23,M,L,2026-02-25_12h03.28.177,VisualSearch_2526_3,,2025.2.4,2026-02-25 12h03.28.371805 +0100,
tilted.xlsx,The target is tilted.,117,7,7,0,1,0,0,0,0,0,0,0,0,0,0,0,0,0,1,117,space,4.158214000000044,None,1,1,0.5859173999997438,None,space,2.0925374999997075,None,0,0,0,0,,,,,0,7,7,3,73.5658641,,,,,,,,,,,,,,,,,,,,,73.55086779999965,73.5658641,74.04986279999957,74.05462719999923,74.06951759999993,74.66691789999913,,,,,74.66708239999934,74.6818100999999,74.88215149999996,74.8660917999996,74.06951759999993,,,,,,,,1,1,0.5859173999997438,None,,,,,,,,897,23,M,L,2026-02-25_12h03.28.177,VisualSearch_2526_3,,2025.2.4,2026-02-25 12h03.28.371805 +0100,
tilted.xlsx,The target is tilted.,117,8,0,1,1,1,1,1,1,1,1,1,1,1,1,1,0,11,12,117,space,4.158214000000044,None,0,0,3.030356899999788,None,space,2.0925374999997075,None,0,0,0,0,,,,,1,0,8,0,74.88215149999996,,,,,,,,,,,,,,,,,,,,,74.86685339999985,74.88215149999996,75.36602459999995,75.37082549999923,75.38632169999983,78.43113819999962,,,,,78.43137119999938,78.44679069999984,78.64702739999939,78.63015969999924,75.38632169999983,,,,,,,,0,0,3.030356899999788,None,,,,,,,,897,23,M,L,2026-02-25_12h03.28.177,VisualSearch_2526_3,,2025.2.4,2026-02-25 12h03.28.371805 +0100,
tilted.xlsx,The target is tilted.,117,9,1,1,0,1,1,1,1,1,1,1,1,1,1,1,1,11,12,117,space,4.158214000000044,None,0,1,3.3247998999995616,None,space,2.0925374999997075,None,0,0,0,0,,,,,1,1,9,4,78.64702739999939,,,,,,,,,,,,,,,,,,,,,78.63055659999918,78.64702739999939,79.13043929999913,79.13518299999942,79.15002839999943,82.47989099999995,,,,,82.48009459999957,82.49498409999978,82.69543339999927,82.6791435999994,79.15002839999943,,,,,,,,0,1,3.3247998999995616,None,,,,,,,,897,23,M,L,2026-02-25_12h03.28.177,VisualSearch_2526_3,,2025.2.4,2026-02-25 12h03.28.371805 +0100,
tilted.xlsx,The target is tilted.,117,10,2,1,0,1,1,1,1,1,1,1,0,0,0,0,1,7,8,117,space,4.158214000000044,None,0,1,2.1442815999998857,None,space,2.0925374999997075,None,0,0,0,0,,,,,1,2,10,5,82.69543339999927,,,,,,,,,,,,,,,,,,,,,82.67989709999983,82.69543339999927,83.1790745999997,83.18391929999962,83.20089429999916,85.36125509999965,,,,,85.36146309999913,85.37692799999968,85.5774466999992,85.56134349999957,83.20089429999916,,,,,,,,0,1,2.1442815999998857,None,,,,,,,,897,23,M,L,2026-02-25_12h03.28.177,VisualSearch_2526_3,,2025.2.4,2026-02-25 12h03.28.371805 +0100,
tilted.xlsx,The target is tilted.,117,11,3,1,0,1,1,1,0,0,0,0,0,0,0,0,1,3,4,117,space,4.158214000000044,None,0,1,0.9518556999992143,None,space,2.0925374999997075,None,0,0,0,0,,,,,1,3,11,6,85.5774466999992,,,,,,,,,,,,,,,,,,,,,85.56207339999946,85.5774466999992,86.06109669999933,86.06584699999985,86.08062419999987,87.04480739999963,,,,,87.04499029999988,87.05956929999957,87.26002899999912,87.24380069999916,86.08062419999987,,,,,,,,0,1,0.9518556999992143,None,,,,,,,,897,23,M,L,2026-02-25_12h03.28.177,VisualSearch_2526_3,,2025.2.4,2026-02-25 12h03.28.371805 +0100,
tilted.xlsx,The target is tilted.,117,12,4,1,1,1,1,1,1,1,1,1,0,0,0,0,0,7,8,117,space,4.158214000000044,None,1,1,1.0276796999996805,None,space,2.0925374999997075,None,0,0,0,0,,,,,1,4,12,1,87.26002899999912,,,,,,,,,,,,,,,,,,,,,87.24463149999974,87.26002899999912,87.74354789999961,87.7483257999993,87.76501589999953,88.80960129999949,,,,,88.80975999999919,88.82534149999992,89.02575679999973,89.00988619999953,87.76501589999953,,,,,,,,1,1,1.0276796999996805,None,,,,,,,,897,23,M,L,2026-02-25_12h03.28.177,VisualSearch_2526_3,,2025.2.4,2026-02-25 12h03.28.371805 +0100,
tilted.xlsx,The target is tilted.,117,13,5,1,0,0,0,0,0,0,0,0,0,0,0,0,1,1,1,117,space,4.158214000000044,None,0,1,0.7125088000002506,None,space,2.0925374999997075,None,0,0,0,0,,,,,1,5,13,7,89.02575679999973,,,,,,,,,,,,,,,,,,,,,89.01064639999913,89.02575679999973,89.50845279999976,89.51036629999999,89.52489069999956,90.24162929999966,,,,,90.2417549999991,90.25777679999919,90.45780819999982,90.44136959999923,89.52489069999956,,,,,,,,0,1,0.7125088000002506,None,,,,,,,,897,23,M,L,2026-02-25_12h03.28.177,VisualSearch_2526_3,,2025.2.4,2026-02-25 12h03.28.371805 +0100,
tilted.xlsx,The target is tilted.,117,14,6,1,1,1,1,1,0,0,0,0,0,0,0,0,0,3,4,117,space,4.158214000000044,None,1,1,1.123162300000331,None,space,2.0925374999997075,None,0,0,0,0,,,,,1,6,14,2,90.45780819999982,,,,,,,,,,,,,,,,,,,,,90.44169579999925,90.45780819999982,90.94096839999929,90.9426300999994,90.95757589999994,92.0918400999999,,,,,92.09199069999977,92.10728759999984,92.3078760999997,92.29169959999945,90.95757589999994,,,,,,,,1,1,1.123162300000331,None,,,,,,,,897,23,M,L,2026-02-25_12h03.28.177,VisualSearch_2526_3,,2025.2.4,2026-02-25 12h03.28.371805 +0100,
tilted.xlsx,The target is tilted.,117,15,7,1,1,0,0,0,0,0,0,0,0,0,0,0,0,0,1,117,space,4.158214000000044,None,1,1,0.9487166000008074,None,space,2.0925374999997075,None,0,0,0,0,,,,,1,7,15,3,92.3078760999997,,,,,,,,,,,,,,,,,,,,,92.29252219999944,92.3078760999997,92.79158579999967,92.79721169999993,92.8099461999991,93.77381529999911,,,,,93.77395089999936,93.78985379999995,93.98985969999922,93.97407969999949,92.8099461999991,,,,,,,,1,1,0.9487166000008074,None,,,,,,,,897,23,M,L,2026-02-25_12h03.28.177,VisualSearch_2526_3,,2025.2.4,2026-02-25 12h03.28.371805 +0100,
tilted.xlsx,The target is tilted.,117,16,0,2,0,0,0,0,0,0,0,0,0,0,0,0,1,1,1,117,space,4.158214000000044,None,0,1,0.6699702000005345,None,space,2.0925374999997075,None,0,0,0,0,,,,,2,0,16,7,93.98985969999922,,,,,,,,,,,,,,,,,,,,,93.97486519999984,93.98985969999922,94.47399059999952,94.47930459999952,94.49364029999924,95.17381409999962,,,,,95.17397839999921,95.1892186999994,95.38976899999943,95.37344969999958,94.49364029999924,,,,,,,,0,1,0.6699702000005345,None,,,,,,,,897,23,M,L,2026-02-25_12h03.28.177,VisualSearch_2526_3,,2025.2.4,2026-02-25 12h03.28.371805 +0100,
tilted.xlsx,The target is tilted.,117,17,1,2,1,0,0,0,0,0,0,0,0,0,0,0,0,0,1,117,space,4.158214000000044,None,1,1,0.5449290000005931,None,space,2.0925374999997075,None,0,0,0,0,,,,,2,1,17,3,95.38976899999943,,,,,,,,,,,,,,,,,,,,,95.3743685999998,95.38976899999943,95.87319599999955,95.8779573999991,95.8925077999993,96.4402427999994,,,,,96.44041969999944,96.45524489999934,96.6556273999995,96.63925869999912,95.8925077999993,,,,,,,,1,1,0.5449290000005931,None,,,,,,,,897,23,M,L,2026-02-25_12h03.28.177,VisualSearch_2526_3,,2025.2.4,2026-02-25 12h03.28.371805 +0100,
tilted.xlsx,The target is tilted.,117,18,2,2,0,1,1,1,0,0,0,0,0,0,0,0,1,3,4,117,space,4.158214000000044,None,0,1,0.7677444000000833,None,space,2.0925374999997075,None,0,0,0,0,,,,,2,2,18,6,96.6556273999995,,,,,,,,,,,,,,,,,,,,,96.64000829999986,96.6556273999995,97.13937159999932,97.14416989999972,97.15932099999918,97.9391270999995,,,,,97.93929329999992,97.95465189999959,98.15505659999963,98.13896099999965,97.15932099999918,,,,,,,,0,1,0.7677444000000833,None,,,,,,,,897,23,M,L,2026-02-25_12h03.28.177,VisualSearch_2526_3,,2025.2.4,2026-02-25 12h03.28.371805 +0100,
tilted.xlsx,The target is tilted.,117,19,3,2,1,1,1,1,0,0,0,0,0,0,0,0,0,3,4,117,space,4.158214000000044,None,1,1,0.9509305999999924,None,space,2.0925374999997075,None,0,0,0,0,,,,,2,3,19,2,98.15505659999963,,,,,,,,,,,,,,,,,,,,,98.1396737999994,98.15505659999963,98.63869609999983,98.6434535999997,98.65853529999913,99.6220358999999,,,,,99.62221239999963,99.63720699999976,99.83759009999994,99.82163579999997,98.65853529999913,,,,,,,,1,1,0.9509305999999924,None,,,,,,,,897,23,M,L,2026-02-25_12h03.28.177,VisualSearch_2526_3,,2025.2.4,2026-02-25 12h03.28.371805 +0100,
tilted.xlsx,The target is tilted.,117,20,4,2,1,1,1,1,1,1,1,1,0,0,0,0,0,7,8,117,space,4.158214000000044,None,1,1,0.793974000000162,None,space,2.0925374999997075,None,0,0,0,0,,,,,2,4,20,1,99.83759009999994,,,,,,,,,,,,,,,,,,,,,99.82240019999972,99.83759009999994,100.3214582999999,100.32672579999962,100.34142939999947,101.13766059999944,,,,,101.1377907999995,101.15317389999927,101.3536368999994,101.33733519999987,100.34142939999947,,,,,,,,1,1,0.793974000000162,None,,,,,,,,897,23,M,L,2026-02-25_12h03.28.177,VisualSearch_2526_3,,2025.2.4,2026-02-25 12h03.28.371805 +0100,
tilted.xlsx,The target is tilted.,117,21,5,2,1,1,1,1,1,1,1,1,1,1,1,1,0,11,12,117,space,4.158214000000044,None,1,1,3.6128474999995888,None,space,2.0925374999997075,None,0,0,0,0,,,,,2,5,21,0,101.3536368999994,,,,,,,,,,,,,,,,,,,,,101.33816899999965,101.3536368999994,101.83739379999952,101.84243769999921,101.85669789999974,105.48503879999953,,,,,105.48516999999993,105.50132719999965,,105.68530929999997,101.85669789999974,,,,,,,,1,1,3.6128474999995888,None,,,,,,,,897,23,M,L,2026-02-25_12h03.28.177,VisualSearch_2526_3,,2025.2.4,2026-02-25 12h03.28.371805 +0100,
tilted.xlsx,The target is tilted.,117,22,6,2,0,1,1,1,1,1,1,1,1,1,1,1,1,11,12,117,space,4.158214000000044,None,0,1,2.3640542000002824,None,space,2.0925374999997075,None,0,0,0,0,,,,,2,6,22,4,105.70149799999945,,,,,,,,,,,,,,,,,,,,,105.68608289999975,105.70149799999945,106.1850644999995,106.1897715999994,106.2056278,108.58370999999988,,,,,108.58385119999912,108.59977089999938,108.80020859999968,108.78399459999946,106.2056278,,,,,,,,0,1,2.3640542000002824,None,,,,,,,,897,23,M,L,2026-02-25_12h03.28.177,VisualSearch_2526_3,,2025.2.4,2026-02-25 12h03.28.371805 +0100,
tilted.xlsx,The target is tilted.,117,23,7,2,0,1,1,1,1,1,1,1,0,0,0,0,1,7,8,117,space,4.158214000000044,None,0,1,2.527002700000594,None,space,2.0925374999997075,None,0,0,0,0,,,,,2,7,23,5,108.80020859999968,,,,,,,,,,,,,,,,,,,,,108.78482859999986,108.80020859999968,109.28379509999922,109.28862129999925,109.30272979999972,111.83302099999946,,,,,111.83321979999982,111.84827079999923,112.04880599999979,112.03232169999956,109.30272979999972,,,,,,,,0,1,2.527002700000594,None,,,,,,,,897,23,M,L,2026-02-25_12h03.28.177,VisualSearch_2526_3,,2025.2.4,2026-02-25 12h03.28.371805 +0100,
tilted.xlsx,The target is tilted.,117,24,0,3,1,1,1,1,1,1,1,1,0,0,0,0,0,7,8,117,space,4.158214000000044,None,1,1,2.1012367000002996,None,space,2.0925374999997075,None,0,0,0,0,,,,,3,0,24,1,112.04880599999979,,,,,,,,,,,,,,,,,,,,,112.0331243999999,112.04880599999979,112.53204649999952,112.53692059999958,112.55019689999972,114.66424409999945,,,,,114.66441309999936,114.6802717999999,114.8807483999999,114.86461209999925,112.55019689999972,,,,,,,,1,1,2.1012367000002996,None,,,,,,,,897,23,M,L,2026-02-25_12h03.28.177,VisualSearch_2526_3,,2025.2.4,2026-02-25 12h03.28.371805 +0100,
tilted.xlsx,The target is tilted.,117,25,1,3,1,0,0,0,0,0,0,0,0,0,0,0,0,0,1,117,space,4.158214000000044,None,1,1,0.6182862000005116,None,space,2.0925374999997075,None,0,0,0,0,,,,,3,1,25,3,114.8807483999999,,,,,,,,,,,,,,,,,,,,,114.8654620999996,114.8807483999999,115.36437179999939,115.36914119999983,115.38367289999951,116.01398659999995,,,,,116.01419439999972,116.02967279999939,116.22994469999958,116.21414919999916,115.38367289999951,,,,,,,,1,1,0.6182862000005116,None,,,,,,,,897,23,M,L,2026-02-25_12h03.28.177,VisualSearch_2526_3,,2025.2.4,2026-02-25 12h03.28.371805 +0100,
tilted.xlsx,The target is tilted.,117,26,2,3,0,1,1,1,1,1,1,1,0,0,0,0,1,7,8,117,space,4.158214000000044,None,0,1,1.6767714999996315,None,space,2.0925374999997075,None,0,0,0,0,,,,,3,2,26,5,116.22994469999958,,,,,,,,,,,,,,,,,,,,,116.21498369999972,116.22994469999958,116.71376079999936,116.71852679999938,116.73356669999976,118.41357599999992,,,,,118.41385759999957,118.42867769999975,118.62846799999988,118.61225599999943,116.73356669999976,,,,,,,,0,1,1.6767714999996315,None,,,,,,,,897,23,M,L,2026-02-25_12h03.28.177,VisualSearch_2526_3,,2025.2.4,2026-02-25 12h03.28.371805 +0100,
tilted.xlsx,The target is tilted.,117,27,3,3,1,1,1,1,1,1,1,1,1,1,1,1,0,11,12,117,space,4.158214000000044,None,1,1,1.6056636999992406,None,space,2.0925374999997075,None,0,0,0,0,,,,,3,3,27,0,118.62846799999988,,,,,,,,,,,,,,,,,,,,,118.6127564999997,118.62846799999988,119.11279309999918,119.11736389999987,119.13496719999966,120.74577879999924,,,,,120.7459786999998,120.7609154999991,120.96146269999917,120.94523439999921,119.13496719999966,,,,,,,,1,1,1.6056636999992406,None,,,,,,,,897,23,M,L,2026-02-25_12h03.28.177,VisualSearch_2526_3,,2025.2.4,2026-02-25 12h03.28.371805 +0100,
tilted.xlsx,The target is tilted.,117,28,4,3,0,0,0,0,0,0,0,0,0,0,0,0,1,1,1,117,space,4.158214000000044,None,0,1,0.583301499999834,None,space,2.0925374999997075,None,0,0,0,0,,,,,3,4,28,7,120.96146269999917,,,,,,,,,,,,,,,,,,,,,120.94595279999976,120.96146269999917,121.44498119999935,121.44986069999959,121.46515699999964,122.06091529999958,,,,,122.06105209999987,122.07695849999982,122.27730339999925,122.26126019999992,121.46515699999964,,,,,,,,0,1,0.583301499999834,None,,,,,,,,897,23,M,L,2026-02-25_12h03.28.177,VisualSearch_2526_3,,2025.2.4,2026-02-25 12h03.28.371805 +0100,
tilted.xlsx,The target is tilted.,117,29,5,3,1,1,1,1,0,0,0,0,0,0,0,0,0,3,4,117,space,4.158214000000044,None,1,1,0.9704257000003054,None,space,2.0925374999997075,None,0,0,0,0,,,,,3,5,29,2,122.27730339999925,,,,,,,,,,,,,,,,,,,,,122.2620023999998,122.27730339999925,122.76104039999973,122.76597459999994,122.7810088999995,123.76120269999956,,,,,123.76140299999952,123.77619429999959,123.97660299999916,123.96033689999967,122.7810088999995,,,,,,,,1,1,0.9704257000003054,None,,,,,,,,897,23,M,L,2026-02-25_12h03.28.177,VisualSearch_2526_3,,2025.2.4,2026-02-25 12h03.28.371805 +0100,
tilted.xlsx,The target is tilted.,117,30,6,3,0,1,1,1,1,1,1,1,1,1,1,1,1,11,12,117,space,4.158214000000044,None,0,1,3.176683200000298,None,space,2.0925374999997075,None,0,0,0,0,,,,,3,6,30,4,123.97660299999916,,,,,,,,,,,,,,,,,,,,,123.9610974999996,123.97660299999916,124.46028589999969,124.46505699999943,124.48024879999957,127.65997209999932,,,,,127.66017499999998,127.67446869999912,127.8748330999997,127.85864769999989,124.48024879999957,,,,,,,,0,1,3.176683200000298,None,,,,,,,,897,23,M,L,2026-02-25_12h03.28.177,VisualSearch_2526_3,,2025.2.4,2026-02-25 12h03.28.371805 +0100,
tilted.xlsx,The target is tilted.,117,31,7,3,0,1,1,1,0,0,0,0,0,0,0,0,1,3,4,117,space,4.158214000000044,None,0,1,0.8695625000000291,None,space,2.0925374999997075,None,0,0,0,0,,,,,3,7,31,6,127.8748330999997,,,,,,,,,,,,,,,,,,,,,127.85941619999994,127.8748330999997,128.35854389999986,128.36315579999973,128.3745545999991,129.2578954999999,,,,,129.25807429999986,129.2736761999995,129.47381229999974,129.45796129999962,128.3745545999991,,,,,,,,0,1,0.8695625000000291,None,,,,,,,,897,23,M,L,2026-02-25_12h03.28.177,VisualSearch_2526_3,,2025.2.4,2026-02-25 12h03.28.371805 +0100,
tilted.xlsx,The target is tilted.,117,32,0,4,1,1,1,1,0,0,0,0,0,0,0,0,0,3,4,117,space,4.158214000000044,None,1,1,0.720133399999213,None,space,2.0925374999997075,None,0,0,0,0,,,,,4,0,32,2,129.47381229999974,,,,,,,,,,,,,,,,,,,,,129.4587550999995,129.47381229999974,129.95780969999942,129.96259049999935,129.9775308999997,130.70774189999975,,,,,130.70792279999932,130.7230141,130.92345009999917,130.90718189999916,129.9775308999997,,,,,,,,1,1,0.720133399999213,None,,,,,,,,897,23,M,L,2026-02-25_12h03.28.177,VisualSearch_2526_3,,2025.2.4,2026-02-25 12h03.28.371805 +0100,
tilted.xlsx,The target is tilted.,117,33,1,4,1,1,1,1,1,1,1,1,1,1,1,1,0,11,12,117,space,4.158214000000044,None,1,1,0.9795710999997027,None,space,2.0925374999997075,None,0,0,0,0,,,,,4,1,33,0,130.92345009999917,,,,,,,,,,,,,,,,,,,,,130.90793349999967,130.92345009999917,131.4071187999998,131.41200499999923,131.4267994999991,132.42314539999916,,,,,132.42332309999983,132.43893209999987,132.63929519999965,132.62295529999938,131.4267994999991,,,,,,,,1,1,0.9795710999997027,None,,,,,,,,897,23,M,L,2026-02-25_12h03.28.177,VisualSearch_2526_3,,2025.2.4,2026-02-25 12h03.28.371805 +0100,
tilted.xlsx,The target is tilted.,117,34,2,4,0,1,1,1,0,0,0,0,0,0,0,0,1,3,4,117,space,4.158214000000044,None,0,1,0.987071399999877,None,space,2.0925374999997075,None,0,0,0,0,,,,,4,2,34,6,132.63929519999965,,,,,,,,,,,,,,,,,,,,,132.6236857999993,132.63929519999965,133.12284799999998,133.1276726999995,133.14234999999917,134.13967049999974,,,,,134.1398737999998,134.15479379999942,134.35485189999963,134.33874079999987,133.14234999999917,,,,,,,,0,1,0.987071399999877,None,,,,,,,,897,23,M,L,2026-02-25_12h03.28.177,VisualSearch_2526_3,,2025.2.4,2026-02-25 12h03.28.371805 +0100,
tilted.xlsx,The target is tilted.,117,35,3,4,0,1,1,1,1,1,1,1,1,1,1,1,1,11,12,117,space,4.158214000000044,None,0,1,3.183325899999545,None,space,2.0925374999997075,None,0,0,0,0,,,,,4,3,35,4,134.35485189999963,,,,,,,,,,,,,,,,,,,,,134.33949289999964,134.35485189999963,134.83900359999916,134.84441869999955,134.85757849999936,138.05404549999912,,,,,138.0542891999994,138.0696911999994,138.27020159999938,138.25396439999986,134.85757849999936,,,,,,,,0,1,3.183325899999545,None,,,,,,,,897,23,M,L,2026-02-25_12h03.28.177,VisualSearch_2526_3,,2025.2.4,2026-02-25 12h03.28.371805 +0100,
tilted.xlsx,The target is tilted.,117,36,4,4,1,0,0,0,0,0,0,0,0,0,0,0,0,0,1,117,space,4.158214000000044,None,1,1,0.6108387000003859,None,space,2.0925374999997075,None,0,0,0,0,,,,,4,4,36,3,138.27020159999938,,,,,,,,,,,,,,,,,,,,,138.2547201999996,138.27020159999938,138.7536945999991,138.75856209999984,138.77458849999948,139.38733649999995,,,,,139.38755069999934,139.40244249999978,139.60278949999974,139.58677269999953,138.77458849999948,,,,,,,,1,1,0.6108387000003859,None,,,,,,,,897,23,M,L,2026-02-25_12h03.28.177,VisualSearch_2526_3,,2025.2.4,2026-02-25 12h03.28.371805 +0100,
tilted.xlsx,The target is tilted.,117,37,5,4,1,1,1,1,1,1,1,1,0,0,0,0,0,7,8,117,space,4.158214000000044,None,1,1,3.009864600000583,None,space,2.0925374999997075,None,0,0,0,0,,,,,4,5,37,1,139.60278949999974,,,,,,,,,,,,,,,,,,,,,139.58750079999936,139.60278949999974,140.08648359999916,140.09121869999944,140.10418799999934,143.1190558999997,,,,,143.11926389999917,143.13408479999998,143.33451089999926,143.3183941999996,140.10418799999934,,,,,,,,1,1,3.009864600000583,None,,,,,,,,897,23,M,L,2026-02-25_12h03.28.177,VisualSearch_2526_3,,2025.2.4,2026-02-25 12h03.28.371805 +0100,
tilted.xlsx,The target is tilted.,117,38,6,4,0,0,0,0,0,0,0,0,0,0,0,0,1,1,1,117,space,4.158214000000044,None,0,1,1.0254637999996703,None,space,2.0925374999997075,None,0,0,0,0,,,,,4,6,38,7,143.33451089999926,,,,,,,,,,,,,,,,,,,,,143.31920119999995,143.33451089999926,143.8177511999993,143.82254579999972,143.83691129999988,144.86824829999932,,,,,144.8684504999992,144.88328169999932,145.08375329999944,145.0676541999992,143.83691129999988,,,,,,,,0,1,1.0254637999996703,None,,,,,,,,897,23,M,L,2026-02-25_12h03.28.177,VisualSearch_2526_3,,2025.2.4,2026-02-25 12h03.28.371805 +0100,
tilted.xlsx,The target is tilted.,117,39,7,4,0,1,1,1,1,1,1,1,0,0,0,0,1,7,8,117,space,4.158214000000044,None,0,1,2.34212800000023,None,space,2.0925374999997075,None,0,0,0,0,,,,,4,7,39,5,145.08375329999944,,,,,,,,,,,,,,,,,,,,,145.06836099999964,145.08375329999944,145.56731129999935,145.5721479999993,145.58755609999935,147.93312999999944,,,,,147.93333189999976,147.9485122999995,148.14854409999953,148.13254959999995,145.58755609999935,,,,,,,,0,1,2.34212800000023,None,,,,,,,,897,23,M,L,2026-02-25_12h03.28.177,VisualSearch_2526_3,,2025.2.4,2026-02-25 12h03.28.371805 +0100,
tilted.xlsx,The target is tilted.,117,40,0,5,1,1,1,1,0,0,0,0,0,0,0,0,0,3,4,117,space,4.158214000000044,None,1,1,0.8280775000002905,None,space,2.0925374999997075,None,0,0,0,0,,,,,5,0,40,2,148.14854409999953,,,,,,,,,,,,,,,,,,,,,148.1332898999999,148.14854409999953,148.6318653999997,148.63458589999937,148.64846959999977,149.48198649999995,,,,,149.48212869999952,149.49785319999955,149.69828469999993,149.68197549999968,148.64846959999977,,,,,,,,1,1,0.8280775000002905,None,,,,,,,,897,23,M,L,2026-02-25_12h03.28.177,VisualSearch_2526_3,,2025.2.4,2026-02-25 12h03.28.371805 +0100,
tilted.xlsx,The target is tilted.,117,41,1,5,0,1,1,1,1,1,1,1,1,1,1,1,1,11,12,117,space,4.158214000000044,None,0,1,3.2971189999998387,None,space,2.0925374999997075,None,0,0,0,0,,,,,5,1,41,4,149.69828469999993,,,,,,,,,,,,,,,,,,,,,149.68273119999958,149.69828469999993,150.18199559999994,150.18682839999929,150.20245129999967,153.5133092999995,,,,,153.51345329999913,153.52933379999922,153.72986629999923,153.71358139999938,150.20245129999967,,,,,,,,0,1,3.2971189999998387,None,,,,,,,,897,23,M,L,2026-02-25_12h03.28.177,VisualSearch_2526_3,,2025.2.4,2026-02-25 12h03.28.371805 +0100,
tilted.xlsx,The target is tilted.,117,42,2,5,0,1,1,1,1,1,1,1,0,0,0,0,1,7,8,117,space,4.158214000000044,None,0,1,1.9574149999998554,None,space,2.0925374999997075,None,0,0,0,0,,,,,5,2,42,5,153.72986629999923,,,,,,,,,,,,,,,,,,,,,153.7143204999993,153.72986629999923,154.21337009999934,154.2179774999995,154.22950409999976,156.19640959999924,,,,,156.19661159999941,156.2114230999996,156.41173849999996,156.39582059999975,154.22950409999976,,,,,,,,0,1,1.9574149999998554,None,,,,,,,,897,23,M,L,2026-02-25_12h03.28.177,VisualSearch_2526_3,,2025.2.4,2026-02-25 12h03.28.371805 +0100,
tilted.xlsx,The target is tilted.,117,43,3,5,1,0,0,0,0,0,0,0,0,0,0,0,0,0,1,117,space,4.158214000000044,None,1,1,0.5776669000006223,None,space,2.0925374999997075,None,0,0,0,0,,,,,5,3,43,3,156.41173849999996,,,,,,,,,,,,,,,,,,,,,156.39656539999942,156.41173849999996,156.8954490999995,156.90034689999993,156.91508609999983,157.4959289999997,,,,,157.49614779999956,157.51071589999992,157.71119829999952,157.69519919999948,156.91508609999983,,,,,,,,1,1,0.5776669000006223,None,,,,,,,,897,23,M,L,2026-02-25_12h03.28.177,VisualSearch_2526_3,,2025.2.4,2026-02-25 12h03.28.371805 +0100,
tilted.xlsx,The target is tilted.,117,44,4,5,0,1,1,1,0,0,0,0,0,0,0,0,1,3,4,117,space,4.158214000000044,None,0,1,1.3842563999996855,None,space,2.0925374999997075,None,0,0,0,0,,,,,5,4,44,6,157.71119829999952,,,,,,,,,,,,,,,,,,,,,157.6959298999991,157.71119829999952,158.19519939999918,158.19985599999927,158.21104209999976,159.6104562999999,,,,,159.61058499999945,159.62697059999937,,159.81068219999997,158.21104209999976,,,,,,,,0,1,1.3842563999996855,None,,,,,,,,897,23,M,L,2026-02-25_12h03.28.177,VisualSearch_2526_3,,2025.2.4,2026-02-25 12h03.28.371805 +0100,
tilted.xlsx,The target is tilted.,117,45,5,5,0,0,0,0,0,0,0,0,0,0,0,0,1,1,1,117,space,4.158214000000044,None,0,1,0.659903800000393,None,space,2.0925374999997075,None,0,0,0,0,,,,,5,5,45,7,159.82705199999964,,,,,,,,,,,,,,,,,,,,,159.81146839999928,159.82705199999964,160.31076199999916,160.3154844999999,160.33130319999964,160.99410139999964,,,,,160.99428549999993,161.0090470999994,161.2096947,161.1934894999995,160.33130319999964,,,,,,,,0,1,0.659903800000393,None,,,,,,,,897,23,M,L,2026-02-25_12h03.28.177,VisualSearch_2526_3,,2025.2.4,2026-02-25 12h03.28.371805 +0100,
tilted.xlsx,The target is tilted.,117,46,6,5,1,1,1,1,1,1,1,1,0,0,0,0,0,7,8,117,space,4.158214000000044,None,1,1,1.1808876000004602,None,space,2.0925374999997075,None,0,0,0,0,,,,,5,6,46,1,161.2096947,,,,,,,,,,,,,,,,,,,,,161.19430329999977,161.2096947,161.6931408999999,161.69790119999925,161.71451939999952,162.9092015999995,,,,,162.90939459999936,162.92496819999997,163.12547929999982,163.10940189999928,161.71451939999952,,,,,,,,1,1,1.1808876000004602,None,,,,,,,,897,23,M,L,2026-02-25_12h03.28.177,VisualSearch_2526_3,,2025.2.4,2026-02-25 12h03.28.371805 +0100,
tilted.xlsx,The target is tilted.,117,47,7,5,1,1,1,1,1,1,1,1,1,1,1,1,0,11,12,117,space,4.158214000000044,None,1,1,2.3139490000003207,None,space,2.0925374999997075,None,0,0,0,0,,,,,5,7,47,0,163.12547929999982,,,,,,,,,,,,,,,,,,,,,163.1101379999991,163.12547929999982,163.60910109999986,163.6140910999993,163.62509669999963,165.94213899999977,,,,,165.94236499999988,165.9570393999993,166.15739509999912,166.14089439999952,163.62509669999963,,,,,,,,1,1,2.3139490000003207,None,,,,,,,,897,23,M,L,2026-02-25_12h03.28.177,VisualSearch_2526_3,,2025.2.4,2026-02-25 12h03.28.371805 +0100,
tilted.xlsx,The target is tilted.,117,48,0,6,0,0,0,0,0,0,0,0,0,0,0,0,1,1,1,117,space,4.158214000000044,None,0,1,0.5678224000002956,None,space,2.0925374999997075,None,0,0,0,0,,,,,6,0,48,7,166.15739509999912,,,,,,,,,,,,,,,,,,,,,166.14166149999983,166.15739509999912,166.64082979999966,166.64367979999952,166.6571419999991,167.24026019999928,,,,,167.2403893999999,167.2565072999996,167.45684119999987,167.4406517999996,166.6571419999991,,,,,,,,0,1,0.5678224000002956,None,,,,,,,,897,23,M,L,2026-02-25_12h03.28.177,VisualSearch_2526_3,,2025.2.4,2026-02-25 12h03.28.371805 +0100,
tilted.xlsx,The target is tilted.,117,49,1,6,1,0,0,0,0,0,0,0,0,0,0,0,0,0,1,117,space,4.158214000000044,None,1,1,0.47110479999992094,None,space,2.0925374999997075,None,0,0,0,0,,,,,6,1,49,3,167.45684119999987,,,,,,,,,,,,,,,,,,,,,167.44140069999958,167.45684119999987,167.94053669999994,167.94539759999952,167.96085029999995,168.44083989999945,,,,,168.44105709999985,168.45589149999978,168.65617179999936,168.63978019999922,167.96085029999995,,,,,,,,1,1,0.47110479999992094,None,,,,,,,,897,23,M,L,2026-02-25_12h03.28.177,VisualSearch_2526_3,,2025.2.4,2026-02-25 12h03.28.371805 +0100,
tilted.xlsx,The target is tilted.,117,50,2,6,1,1,1,1,1,1,1,1,0,0,0,0,0,7,8,117,space,4.158214000000044,None,1,1,0.6638696999998501,None,space,2.0925374999997075,None,0,0,0,0,,,,,6,2,50,1,168.65617179999936,,,,,,,,,,,,,,,,,,,,,168.6401855999993,168.65617179999936,169.1399253999998,169.1448075999997,169.16044769999917,169.83911219999936,,,,,169.8392518999999,169.85523469999953,,170.03935159999946,169.16044769999917,,,,,,,,1,1,0.6638696999998501,None,,,,,,,,897,23,M,L,2026-02-25_12h03.28.177,VisualSearch_2526_3,,2025.2.4,2026-02-25 12h03.28.371805 +0100,
tilted.xlsx,The target is tilted.,117,51,3,6,0,1,1,1,1,1,1,1,0,0,0,0,1,7,8,117,space,4.158214000000044,None,0,1,3.0397696999998516,None,space,2.0925374999997075,None,0,0,0,0,,,,,6,3,51,5,170.05570099999932,,,,,,,,,,,,,,,,,,,,,170.04012469999998,170.05570099999932,170.5393439999998,170.54406689999996,170.55917349999982,173.60514649999914,,,,,173.60543659999985,173.6202257999994,173.82015889999911,173.80450959999962,170.55917349999982,,,,,,,,0,1,3.0397696999998516,None,,,,,,,,897,23,M,L,2026-02-25_12h03.28.177,VisualSearch_2526_3,,2025.2.4,2026-02-25 12h03.28.371805 +0100,
tilted.xlsx,The target is tilted.,117,52,4,6,0,1,1,1,1,1,1,1,1,1,1,1,1,11,12,117,space,4.158214000000044,None,0,1,3.328300500000296,None,space,2.0925374999997075,None,0,0,0,0,,,,,6,4,52,4,173.82015889999911,,,,,,,,,,,,,,,,,,,,,173.80521679999947,173.82015889999911,174.3042573999992,174.30910799999947,174.3229068999999,177.65281259999938,,,,,177.65292919999956,177.66837789999954,177.8689061999994,177.85230559999945,174.3229068999999,,,,,,,,0,1,3.328300500000296,None,,,,,,,,897,23,M,L,2026-02-25_12h03.28.177,VisualSearch_2526_3,,2025.2.4,2026-02-25 12h03.28.371805 +0100,
tilted.xlsx,The target is tilted.,117,53,5,6,1,1,1,1,1,1,1,1,1,1,1,1,0,11,12,117,space,4.158214000000044,None,1,1,1.0058428000002095,None,space,2.0925374999997075,None,0,0,0,0,,,,,6,5,53,0,177.8689061999994,,,,,,,,,,,,,,,,,,,,,177.85307869999997,177.8689061999994,178.35209189999932,178.3569254999993,178.37282909999976,179.3850915999992,,,,,179.38521889999993,179.40091409999968,179.60142779999933,179.5851692999995,178.37282909999976,,,,,,,,1,1,1.0058428000002095,None,,,,,,,,897,23,M,L,2026-02-25_12h03.28.177,VisualSearch_2526_3,,2025.2.4,2026-02-25 12h03.28.371805 +0100,
tilted.xlsx,The target is tilted.,117,54,6,6,1,1,1,1,0,0,0,0,0,0,0,0,0,3,4,117,space,4.158214000000044,None,1,1,0.9014498000005915,None,space,2.0925374999997075,None,0,0,0,0,,,,,6,6,54,2,179.60142779999933,,,,,,,,,,,,,,,,,,,,,179.58600419999948,179.60142779999933,180.08496519999971,180.0897613999996,180.10479359999954,181.01806099999976,,,,,181.01819739999974,181.0335126,181.23393229999965,181.21768489999977,180.10479359999954,,,,,,,,1,1,0.9014498000005915,None,,,,,,,,897,23,M,L,2026-02-25_12h03.28.177,VisualSearch_2526_3,,2025.2.4,2026-02-25 12h03.28.371805 +0100,
tilted.xlsx,The target is tilted.,117,55,7,6,0,1,1,1,0,0,0,0,0,0,0,0,1,3,4,117,space,4.158214000000044,None,0,1,0.7740651000003709,None,space,2.0925374999997075,None,0,0,0,0,,,,,6,7,55,6,181.23393229999965,,,,,,,,,,,,,,,,,,,,,181.21845329999996,181.23393229999965,181.71760749999976,181.7225413999995,181.73700439999993,182.5176621999999,,,,,182.5178821999998,182.53268669999943,182.73318599999948,182.71722499999942,181.73700439999993,,,,,,,,0,1,0.7740651000003709,None,,,,,,,,897,23,M,L,2026-02-25_12h03.28.177,VisualSearch_2526_3,,2025.2.4,2026-02-25 12h03.28.371805 +0100,
tilted.xlsx,The target is tilted.,117,56,0,7,0,0,0,0,0,0,0,0,0,0,0,0,1,1,1,117,space,4.158214000000044,None,0,1,0.5711998999995558,None,space,2.0925374999997075,None,0,0,0,0,,,,,7,0,56,7,182.73318599999948,,,,,,,,,,,,,,,,,,,,,182.71795129999919,182.73318599999948,183.2169242,183.2217544999994,183.23661529999936,183.81649469999957,,,,,183.81658439999956,183.83202879999953,184.0322415999999,184.01649859999998,183.23661529999936,,,,,,,,0,1,0.5711998999995558,None,,,,,,,,897,23,M,L,2026-02-25_12h03.28.177,VisualSearch_2526_3,,2025.2.4,2026-02-25 12h03.28.371805 +0100,
tilted.xlsx,The target is tilted.,117,57,1,7,0,1,1,1,1,1,1,1,0,0,0,0,1,7,8,117,space,4.158214000000044,None,1,0,2.258993599999485,None,space,2.0925374999997075,None,0,0,0,0,,,,,7,1,57,5,184.0322415999999,,,,,,,,,,,,,,,,,,,,,184.01726189999954,184.0322415999999,184.51632699999936,184.52108559999942,184.53648539999995,186.79878849999932,,,,,186.79901289999998,186.81414049999967,187.01469949999955,186.99850919999972,184.53648539999995,,,,,,,,1,0,2.258993599999485,None,,,,,,,,897,23,M,L,2026-02-25_12h03.28.177,VisualSearch_2526_3,,2025.2.4,2026-02-25 12h03.28.371805 +0100,
tilted.xlsx,The target is tilted.,117,58,2,7,0,1,1,1,0,0,0,0,0,0,0,0,1,3,4,117,space,4.158214000000044,None,0,1,0.9580194999998639,None,space,2.0925374999997075,None,0,0,0,0,,,,,7,2,58,6,187.01469949999955,,,,,,,,,,,,,,,,,,,,,186.9993457999999,187.01469949999955,187.49837359999947,187.5030896999997,187.51868839999952,188.48116629999913,,,,,188.4813396999998,188.4968459999991,188.69709969999985,188.68110909999996,187.51868839999952,,,,,,,,0,1,0.9580194999998639,None,,,,,,,,897,23,M,L,2026-02-25_12h03.28.177,VisualSearch_2526_3,,2025.2.4,2026-02-25 12h03.28.371805 +0100,
tilted.xlsx,The target is tilted.,117,59,3,7,0,1,1,1,1,1,1,1,1,1,1,1,1,11,12,117,space,4.158214000000044,None,0,1,4.152557999999772,None,space,2.0925374999997075,None,0,0,0,0,,,,,7,3,59,4,188.69709969999985,,,,,,,,,,,,,,,,,,,,,188.68184909999945,188.69709969999985,189.18087879999985,189.18596849999994,189.1983455999998,193.36209399999916,,,,,193.36224319999928,193.37789129999965,193.5782638999999,193.5618504999993,189.1983455999998,,,,,,,,0,1,4.152557999999772,None,,,,,,,,897,23,M,L,2026-02-25_12h03.28.177,VisualSearch_2526_3,,2025.2.4,2026-02-25 12h03.28.371805 +0100,
tilted.xlsx,The target is tilted.,117,60,4,7,1,1,1,1,1,1,1,1,1,1,1,1,0,11,12,117,space,4.158214000000044,None,1,1,1.7392274000003454,None,space,2.0925374999997075,None,0,0,0,0,,,,,7,4,60,0,193.5782638999999,,,,,,,,,,,,,,,,,,,,,193.5626117999991,193.5782638999999,194.0619240999995,194.06666119999954,194.08132989999922,195.8283051999997,,,,,195.82850399999916,195.8434318999998,196.0438267999998,196.02766369999972,194.08132989999922,,,,,,,,1,1,1.7392274000003454,None,,,,,,,,897,23,M,L,2026-02-25_12h03.28.177,VisualSearch_2526_3,,2025.2.4,2026-02-25 12h03.28.371805 +0100,
tilted.xlsx,The target is tilted.,117,61,5,7,1,1,1,1,1,1,1,1,0,0,0,0,0,7,8,117,space,4.158214000000044,None,1,1,1.5311282000002393,None,space,2.0925374999997075,None,0,0,0,0,,,,,7,5,61,1,196.0438267999998,,,,,,,,,,,,,,,,,,,,,196.0285156,196.0438267999998,196.52758949999952,196.53232969999954,196.54684149999957,198.09343549999994,,,,,198.09366109999974,198.10904139999911,198.30955809999978,198.2933250999995,196.54684149999957,,,,,,,,1,1,1.5311282000002393,None,,,,,,,,897,23,M,L,2026-02-25_12h03.28.177,VisualSearch_2526_3,,2025.2.4,2026-02-25 12h03.28.371805 +0100,
tilted.xlsx,The target is tilted.,117,62,6,7,1,1,1,1,0,0,0,0,0,0,0,0,0,3,4,117,space,4.158214000000044,None,0,0,1.6108085999994728,None,space,2.0925374999997075,None,0,0,0,0,,,,,7,6,62,2,198.30955809999978,,,,,,,,,,,,,,,,,,,,,198.29411249999976,198.30955809999978,198.79310519999945,198.79793509999945,198.8125298999994,200.42568049999954,,,,,200.42581529999916,200.44127369999933,200.64141069999914,200.62546999999995,198.8125298999994,,,,,,,,0,0,1.6108085999994728,None,,,,,,,,897,23,M,L,2026-02-25_12h03.28.177,VisualSearch_2526_3,,2025.2.4,2026-02-25 12h03.28.371805 +0100,
tilted.xlsx,The target is tilted.,117,63,7,7,1,0,0,0,0,0,0,0,0,0,0,0,0,0,1,117,space,4.158214000000044,None,1,1,0.6330348000001322,None,space,2.0925374999997075,None,0,0,0,0,,,,,7,7,63,3,200.64141069999914,,,,,,,,,,,,,,,,,,,,,200.6262412999995,200.64141069999914,201.12545519999912,201.13026469999932,201.14589629999955,201.79213529999925,,,,,201.7922955999993,201.80738379999912,202.00786729999982,201.9917777999999,201.14589629999955,,,,,,,,1,1,0.6330348000001322,None,,,,,,,,897,23,M,L,2026-02-25_12h03.28.177,VisualSearch_2526_3,,2025.2.4,2026-02-25 12h03.28.371805 +0100,
tilted.xlsx,The target is tilted.,117,64,0,8,0,1,1,1,1,1,1,1,0,0,0,0,1,7,8,117,space,4.158214000000044,None,0,1,2.5892326000002868,None,space,2.0925374999997075,None,0,0,0,0,,,,,8,0,64,5,202.00786729999982,,,,,,,,,,,,,,,,,,,,,201.9925059999996,202.00786729999982,202.49110779999955,202.49581469999976,202.5112683999996,205.10699119999936,,,,,205.10712139999941,205.12253969999983,205.32275619999928,205.30648009999913,202.5112683999996,,,,,,,,0,1,2.5892326000002868,None,,,,,,,,897,23,M,L,2026-02-25_12h03.28.177,VisualSearch_2526_3,,2025.2.4,2026-02-25 12h03.28.371805 +0100,
tilted.xlsx,The target is tilted.,117,65,1,8,0,1,1,1,0,0,0,0,0,0,0,0,1,3,4,117,space,4.158214000000044,None,0,1,0.8390332999997554,None,space,2.0925374999997075,None,0,0,0,0,,,,,8,1,65,6,205.32275619999928,,,,,,,,,,,,,,,,,,,,,205.30725769999935,205.32275619999928,205.80667239999912,205.8114760999997,205.82643409999946,206.67310109999926,,,,,206.67327729999943,206.68847709999955,206.8888864999999,206.87262109999938,205.82643409999946,,,,,,,,0,1,0.8390332999997554,None,,,,,,,,897,23,M,L,2026-02-25_12h03.28.177,VisualSearch_2526_3,,2025.2.4,2026-02-25 12h03.28.371805 +0100,
tilted.xlsx,The target is tilted.,117,66,2,8,0,1,1,1,1,1,1,1,1,1,1,1,1,11,12,117,space,4.158214000000044,None,0,1,3.9608699000000342,None,space,2.0925374999997075,None,0,0,0,0,,,,,8,2,66,4,206.8888864999999,,,,,,,,,,,,,,,,,,,,,206.8733762999991,206.8888864999999,207.3722399999997,207.3769001999999,207.3886221999992,211.3545207999996,,,,,211.35472179999942,211.3695859999998,211.57018399999924,211.55392159999974,207.3886221999992,,,,,,,,0,1,3.9608699000000342,None,,,,,,,,897,23,M,L,2026-02-25_12h03.28.177,VisualSearch_2526_3,,2025.2.4,2026-02-25 12h03.28.371805 +0100,
tilted.xlsx,The target is tilted.,117,67,3,8,0,0,0,0,0,0,0,0,0,0,0,0,1,1,1,117,space,4.158214000000044,None,0,1,0.6416392999999516,None,space,2.0925374999997075,None,0,0,0,0,,,,,8,3,67,7,211.57018399999924,,,,,,,,,,,,,,,,,,,,,211.5546403999997,211.57018399999924,212.05366149999918,212.05839239999932,212.07237909999913,212.71988359999978,,,,,212.71999639999922,212.73560739999994,212.93582489999972,212.92021189999923,212.07237909999913,,,,,,,,0,1,0.6416392999999516,None,,,,,,,,897,23,M,L,2026-02-25_12h03.28.177,VisualSearch_2526_3,,2025.2.4,2026-02-25 12h03.28.371805 +0100,
tilted.xlsx,The target is tilted.,117,68,4,8,1,0,0,0,0,0,0,0,0,0,0,0,0,0,1,117,space,4.158214000000044,None,1,1,0.5913876000004166,None,space,2.0925374999997075,None,0,0,0,0,,,,,8,4,68,3,212.93582489999972,,,,,,,,,,,,,,,,,,,,,212.9209822999992,212.93582489999972,213.41986969999925,213.42465619999984,213.44038399999954,214.03672479999932,,,,,214.03692179999962,214.05179359999966,214.25222959999974,214.2357994999993,213.44038399999954,,,,,,,,1,1,0.5913876000004166,None,,,,,,,,897,23,M,L,2026-02-25_12h03.28.177,VisualSearch_2526_3,,2025.2.4,2026-02-25 12h03.28.371805 +0100,
tilted.xlsx,The target is tilted.,117,69,5,8,1,1,1,1,1,1,1,1,1,1,1,1,0,11,12,117,space,4.158214000000044,None,1,1,1.5498143000004347,None,space,2.0925374999997075,None,0,0,0,0,,,,,8,5,69,0,214.25222959999974,,,,,,,,,,,,,,,,,,,,,214.23659899999984,214.25222959999974,214.7358910999992,214.74042199999985,214.7516059999998,216.31765769999947,,,,,216.31778119999944,216.3343817999994,,216.51822379999976,214.7516059999998,,,,,,,,1,1,1.5498143000004347,None,,,,,,,,897,23,M,L,2026-02-25_12h03.28.177,VisualSearch_2526_3,,2025.2.4,2026-02-25 12h03.28.371805 +0100,
tilted.xlsx,The target is tilted.,117,70,6,8,1,1,1,1,0,0,0,0,0,0,0,0,0,3,4,117,space,4.158214000000044,None,1,1,0.6954295999994429,None,space,2.0925374999997075,None,0,0,0,0,,,,,8,6,70,2,216.53460339999947,,,,,,,,,,,,,,,,,,,,,216.5190752999997,216.53460339999947,217.0179337999998,217.02269159999923,217.0377983999997,217.73492649999935,,,,,217.73511749999943,217.7501633999991,217.95059849999961,217.93436179999935,,,,,,,,,1,1,0.6954295999994429,None,,,,,,,,897,23,M,L,2026-02-25_12h03.28.177,VisualSearch_2526_3,,2025.2.4,2026-02-25 12h03.28.371805 +0100,
tilted.xlsx,The target is tilted.,117,71,7,8,1,1,1,1,1,1,1,1,0,0,0,0,0,7,8,117,space,4.158214000000044,None,1,1,1.396878800000195,None,space,2.0925374999997075,None,0,0,0,0,,,,,8,7,71,1,217.95059849999961,,,,,,,,,,,,,,,,,,,,,217.9351299,217.95059849999961,218.4341321999991,218.4388661999992,218.45505199999934,219.86602779999976,,,,,219.8661506999997,219.88277899999957,,220.0665081999996,218.45505199999934,,,,,,,,1,1,1.396878800000195,None,,,,,,,,897,23,M,L,2026-02-25_12h03.28.177,VisualSearch_2526_3,,2025.2.4,2026-02-25 12h03.28.371805 +0100,
tilted.xlsx,The target is tilted.,117,72,0,9,0,1,1,1,1,1,1,1,0,0,0,0,1,7,8,117,space,4.158214000000044,None,0,1,2.3149505000001227,None,space,2.0925374999997075,None,0,0,0,0,,,,,9,0,72,5,220.08281019999959,,,,,,,,,,,,,,,,,,,,,220.06726759999947,220.08281019999959,220.56627899999967,220.57104569999956,220.58751959999972,222.9154638,,,,,222.9156884999993,222.93107709999913,223.13149759999942,223.1153388999992,,,,,,,,,0,1,2.3149505000001227,None,,,,,,,,897,23,M,L,2026-02-25_12h03.28.177,VisualSearch_2526_3,,2025.2.4,2026-02-25 12h03.28.371805 +0100,
tilted.xlsx,The target is tilted.,117,73,1,9,1,1,1,1,1,1,1,1,0,0,0,0,0,7,8,117,space,4.158214000000044,None,1,1,1.4144414999991568,None,space,2.0925374999997075,None,0,0,0,0,,,,,9,1,73,1,223.13149759999942,,,,,,,,,,,,,,,,,,,,,223.11614669999926,223.13149759999942,223.61440459999994,223.6159889999999,223.6310494999998,225.04831639999975,,,,,225.04849269999977,225.06348699999944,225.26358979999986,225.2476147999996,223.6310494999998,,,,,,,,1,1,1.4144414999991568,None,,,,,,,,897,23,M,L,2026-02-25_12h03.28.177,VisualSearch_2526_3,,2025.2.4,2026-02-25 12h03.28.371805 +0100,
tilted.xlsx,The target is tilted.,117,74,2,9,0,1,1,1,0,0,0,0,0,0,0,0,1,3,4,117,space,4.158214000000044,None,0,1,0.9772923000000446,None,space,2.0925374999997075,None,0,0,0,0,,,,,9,2,74,6,225.26358979999986,,,,,,,,,,,,,,,,,,,,,225.24838909999926,225.26358979999986,225.7475242999999,225.75223509999978,225.76708119999967,226.74721359999967,,,,,226.74735919999966,226.76273819999915,226.96310239999912,226.9469550999993,225.76708119999967,,,,,,,,0,1,0.9772923000000446,None,,,,,,,,897,23,M,L,2026-02-25_12h03.28.177,VisualSearch_2526_3,,2025.2.4,2026-02-25 12h03.28.371805 +0100,
tilted.xlsx,The target is tilted.,117,75,3,9,1,1,1,1,1,1,1,1,1,1,1,1,0,11,12,117,space,4.158214000000044,None,1,1,2.354556799999955,None,space,2.0925374999997075,None,0,0,0,0,,,,,9,3,75,0,226.96310239999912,,,,,,,,,,,,,,,,,,,,,226.94768619999923,226.96310239999912,227.44685589999972,227.45161089999965,227.4649705999991,229.82960399999956,,,,,229.82979929999965,229.8446411999994,230.04505469999913,230.0289389999998,227.4649705999991,,,,,,,,1,1,2.354556799999955,None,,,,,,,,897,23,M,L,2026-02-25_12h03.28.177,VisualSearch_2526_3,,2025.2.4,2026-02-25 12h03.28.371805 +0100,
tilted.xlsx,The target is tilted.,117,76,4,9,1,1,1,1,0,0,0,0,0,0,0,0,0,3,4,117,space,4.158214000000044,None,1,1,1.4083385000003545,None,space,2.0925374999997075,None,0,0,0,0,,,,,9,4,76,2,230.04505469999913,,,,,,,,,,,,,,,,,,,,,230.02970019999975,230.04505469999913,230.52837719999934,230.5330443999992,230.5473349999993,231.96198299999924,,,,,231.96217439999964,231.97682149999946,232.17742669999916,232.16124969999964,230.5473349999993,,,,,,,,1,1,1.4083385000003545,None,,,,,,,,897,23,M,L,2026-02-25_12h03.28.177,VisualSearch_2526_3,,2025.2.4,2026-02-25 12h03.28.371805 +0100,
tilted.xlsx,The target is tilted.,117,77,5,9,0,0,0,0,0,0,0,0,0,0,0,0,1,1,1,117,space,4.158214000000044,None,0,1,0.5632727000001978,None,space,2.0925374999997075,None,0,0,0,0,,,,,9,5,77,7,232.17742669999916,,,,,,,,,,,,,,,,,,,,,232.16200559999925,232.17742669999916,232.6611825,232.66589079999994,232.67897019999964,233.2446822999991,,,,,233.24489659999927,233.25977669999975,233.46016299999974,233.44395129999975,232.67897019999964,,,,,,,,0,1,0.5632727000001978,None,,,,,,,,897,23,M,L,2026-02-25_12h03.28.177,VisualSearch_2526_3,,2025.2.4,2026-02-25 12h03.28.371805 +0100,
tilted.xlsx,The target is tilted.,117,78,6,9,0,1,1,1,1,1,1,1,1,1,1,1,1,11,12,117,space,4.158214000000044,None,0,1,3.7005707999996957,None,space,2.0925374999997075,None,0,0,0,0,,,,,9,6,78,4,233.46016299999974,,,,,,,,,,,,,,,,,,,,,233.44470269999965,233.46016299999974,233.9437565999997,233.94852379999975,233.96294409999973,237.67582369999946,,,,,237.67600129999937,237.69107639999947,237.8914152999996,237.87499059999936,233.96294409999973,,,,,,,,0,1,3.7005707999996957,None,,,,,,,,897,23,M,L,2026-02-25_12h03.28.177,VisualSearch_2526_3,,2025.2.4,2026-02-25 12h03.28.371805 +0100,
tilted.xlsx,The target is tilted.,117,79,7,9,1,0,0,0,0,0,0,0,0,0,0,0,0,0,1,117,space,4.158214000000044,None,1,1,0.5635974999995597,None,space,2.0925374999997075,None,0,0,0,0,,,,,9,7,79,3,237.8914152999996,,,,,,,,,,,,,,,,,,,,,237.87581929999942,237.8914152999996,238.37510999999995,238.37982139999986,238.39560189999975,238.97466189999977,,,,,238.97483349999948,238.99048439999933,239.1908752999998,239.17470719999983,238.39560189999975,,,,,,,,1,1,0.5635974999995597,None,,,,,,,,897,23,M,L,2026-02-25_12h03.28.177,VisualSearch_2526_3,,2025.2.4,2026-02-25 12h03.28.371805 +0100,
tilted.xlsx,The target is tilted.,117,80,0,10,0,0,0,0,0,0,0,0,0,0,0,0,1,1,1,117,space,4.158214000000044,None,0,1,0.47864339999978256,None,space,2.0925374999997075,None,0,0,0,0,,,,,10,0,80,7,239.1908752999998,,,,,,,,,,,,,,,,,,,,,239.17546699999912,239.1908752999998,239.67452289999983,239.67912709999928,239.6906046999993,240.1748123999996,,,,,240.1750035999994,240.18989089999923,240.3903268999993,240.37405599999965,239.6906046999993,,,,,,,,0,1,0.47864339999978256,None,,,,,,,,897,23,M,L,2026-02-25_12h03.28.177,VisualSearch_2526_3,,2025.2.4,2026-02-25 12h03.28.371805 +0100,
tilted.xlsx,The target is tilted.,117,81,1,10,0,1,1,1,1,1,1,1,1,1,1,1,1,11,12,117,space,4.158214000000044,None,0,1,2.5693225999993956,None,space,2.0925374999997075,None,0,0,0,0,,,,,10,1,81,4,240.3903268999993,,,,,,,,,,,,,,,,,,,,,240.37481559999924,240.3903268999993,240.87365149999914,240.8783775999991,240.89286859999993,243.47261489999983,,,,,243.4727327999999,243.48841409999932,243.68882489999942,243.67266409999957,240.89286859999993,,,,,,,,0,1,2.5693225999993956,None,,,,,,,,897,23,M,L,2026-02-25_12h03.28.177,VisualSearch_2526_3,,2025.2.4,2026-02-25 12h03.28.371805 +0100,
tilted.xlsx,The target is tilted.,117,82,2,10,1,1,1,1,1,1,1,1,1,1,1,1,0,11,12,117,space,4.158214000000044,None,1,1,0.8779872999994041,None,space,2.0925374999997075,None,0,0,0,0,,,,,10,2,82,0,243.68882489999942,,,,,,,,,,,,,,,,,,,,,243.6734220999997,243.68882489999942,244.17209459999958,244.17681339999945,244.19145049999952,245.0726724999995,,,,,245.07286489999933,245.08761479999976,245.28778599999987,245.2720260999995,244.19145049999952,,,,,,,,1,1,0.8779872999994041,None,,,,,,,,897,23,M,L,2026-02-25_12h03.28.177,VisualSearch_2526_3,,2025.2.4,2026-02-25 12h03.28.371805 +0100,
tilted.xlsx,The target is tilted.,117,83,3,10,0,1,1,1,0,0,0,0,0,0,0,0,1,3,4,117,space,4.158214000000044,None,0,1,1.4108946999995169,None,space,2.0925374999997075,None,0,0,0,0,,,,,10,3,83,6,245.28778599999987,,,,,,,,,,,,,,,,,,,,,245.27276729999994,245.28778599999987,245.77187239999967,245.77649389999988,245.79250299999967,247.2049090999999,,,,,247.20511709999937,247.22009699999944,247.4204762999998,247.40429939999922,245.79250299999967,,,,,,,,0,1,1.4108946999995169,None,,,,,,,,897,23,M,L,2026-02-25_12h03.28.177,VisualSearch_2526_3,,2025.2.4,2026-02-25 12h03.28.371805 +0100,
tilted.xlsx,The target is tilted.,117,84,4,10,0,1,1,1,1,1,1,1,0,0,0,0,1,7,8,117,space,4.158214000000044,None,0,1,2.4226669999998194,None,space,2.0925374999997075,None,0,0,0,0,,,,,10,4,84,5,247.4204762999998,,,,,,,,,,,,,,,,,,,,,247.40504829999918,247.4204762999998,247.90411399999994,247.90878279999924,247.92396859999917,250.35339359999944,,,,,250.35356839999986,250.36899979999998,250.5682896999997,250.55201299999953,247.92396859999917,,,,,,,,0,1,2.4226669999998194,None,,,,,,,,897,23,M,L,2026-02-25_12h03.28.177,VisualSearch_2526_3,,2025.2.4,2026-02-25 12h03.28.371805 +0100,
tilted.xlsx,The target is tilted.,117,85,5,10,1,0,0,0,0,0,0,0,0,0,0,0,0,0,1,117,space,4.158214000000044,None,1,1,0.6436823999993067,None,space,2.0925374999997075,None,0,0,0,0,,,,,10,5,85,3,250.5682896999997,,,,,,,,,,,,,,,,,,,,,250.55230549999942,250.5682896999997,251.05237749999924,251.0571186999996,251.07289129999936,251.71946529999968,,,,,251.7195976999992,251.73501269999997,251.93503639999926,251.91910729999927,251.07289129999936,,,,,,,,1,1,0.6436823999993067,None,,,,,,,,897,23,M,L,2026-02-25_12h03.28.177,VisualSearch_2526_3,,2025.2.4,2026-02-25 12h03.28.371805 +0100,
tilted.xlsx,The target is tilted.,117,86,6,10,1,1,1,1,0,0,0,0,0,0,0,0,0,3,4,117,space,4.158214000000044,None,1,1,0.7339214000003267,None,space,2.0925374999997075,None,0,0,0,0,,,,,10,6,86,2,251.93503639999926,,,,,,,,,,,,,,,,,,,,,251.91985019999993,251.93503639999926,252.41885489999913,252.42336649999925,252.44069189999936,253.18560669999988,,,,,253.18580999999995,253.20110979999936,253.4012316999997,253.3849664999998,252.44069189999936,,,,,,,,1,1,0.7339214000003267,None,,,,,,,,897,23,M,L,2026-02-25_12h03.28.177,VisualSearch_2526_3,,2025.2.4,2026-02-25 12h03.28.371805 +0100,
tilted.xlsx,The target is tilted.,117,87,7,10,1,1,1,1,1,1,1,1,0,0,0,0,0,7,8,117,space,4.158214000000044,None,1,1,1.7486589000000095,None,space,2.0925374999997075,None,0,0,0,0,,,,,10,7,87,1,253.4012316999997,,,,,,,,,,,,,,,,,,,,,253.38579709999976,253.4012316999997,253.88475929999913,253.88945779999995,253.90400939999927,255.66773679999915,,,,,255.6679127999996,255.68286119999993,255.8832909999992,255.86720089999926,253.90400939999927,,,,,,,,1,1,1.7486589000000095,None,,,,,,,,897,23,M,L,2026-02-25_12h03.28.177,VisualSearch_2526_3,,2025.2.4,2026-02-25 12h03.28.371805 +0100,
tilted.xlsx,The target is tilted.,117,88,0,11,0,1,1,1,0,0,0,0,0,0,0,0,1,3,4,117,space,4.158214000000044,None,0,1,0.9730118999996193,None,space,2.0925374999997075,None,0,0,0,0,,,,,11,0,88,6,255.8832909999992,,,,,,,,,,,,,,,,,,,,,255.86794499999996,255.8832909999992,256.3666822999994,256.37135489999946,256.38612549999925,257.3664646999996,,,,,257.3666579999999,257.38230999999996,257.58243629999924,257.5660296999995,256.38612549999925,,,,,,,,0,1,0.9730118999996193,None,,,,,,,,897,23,M,L,2026-02-25_12h03.28.177,VisualSearch_2526_3,,2025.2.4,2026-02-25 12h03.28.371805 +0100,
tilted.xlsx,The target is tilted.,117,89,1,11,0,0,0,0,0,0,0,0,0,0,0,0,1,1,1,117,space,4.158214000000044,None,0,1,0.541951400000471,None,space,2.0925374999997075,None,0,0,0,0,,,,,11,1,89,7,257.58243629999924,,,,,,,,,,,,,,,,,,,,,257.5667831999999,257.58243629999924,258.06615239999974,258.07082659999924,258.0857978999993,258.6322791999992,,,,,258.63236059999963,258.6483983999997,258.84864519999974,258.8321926999997,258.0857978999993,,,,,,,,0,1,0.541951400000471,None,,,,,,,,897,23,M,L,2026-02-25_12h03.28.177,VisualSearch_2526_3,,2025.2.4,2026-02-25 12h03.28.371805 +0100,
tilted.xlsx,The target is tilted.,117,90,2,11,1,1,1,1,0,0,0,0,0,0,0,0,0,3,4,117,space,4.158214000000044,None,1,1,0.6264755000001969,None,space,2.0925374999997075,None,0,0,0,0,,,,,11,2,90,2,258.84864519999974,,,,,,,,,,,,,,,,,,,,,258.83297539999967,258.84864519999974,259.33198619999985,259.33667369999966,259.3527757999991,259.9833355999999,,,,,259.98350759999994,259.99803409999913,260.19807369999944,260.1818625999995,259.3527757999991,,,,,,,,1,1,0.6264755000001969,None,,,,,,,,897,23,M,L,2026-02-25_12h03.28.177,VisualSearch_2526_3,,2025.2.4,2026-02-25 12h03.28.371805 +0100,
tilted.xlsx,The target is tilted.,117,91,3,11,1,1,1,1,1,1,1,1,0,0,0,0,0,7,8,117,space,4.158214000000044,None,1,1,2.446143899999697,None,space,2.0925374999997075,None,0,0,0,0,,,,,11,3,91,1,260.19807369999944,,,,,,,,,,,,,,,,,,,,,260.1826179999998,260.19807369999944,260.6818407999999,260.68674759999976,260.7015298999995,263.1645241999995,,,,,263.1647218999997,263.1799483999994,263.3795100999996,263.3637057999995,260.7015298999995,,,,,,,,1,1,2.446143899999697,None,,,,,,,,897,23,M,L,2026-02-25_12h03.28.177,VisualSearch_2526_3,,2025.2.4,2026-02-25 12h03.28.371805 +0100,
tilted.xlsx,The target is tilted.,117,92,4,11,0,1,1,1,1,1,1,1,0,0,0,0,1,7,8,117,space,4.158214000000044,None,0,1,2.16264929999943,None,space,2.0925374999997075,None,0,0,0,0,,,,,11,4,92,5,263.3795100999996,,,,,,,,,,,,,,,,,,,,,263.3644508999996,263.3795100999996,263.86353619999954,263.8680070999999,263.87946979999924,266.04582239999945,,,,,266.0459992999995,266.0618593999998,266.2616130999995,266.2457810999995,263.87946979999924,,,,,,,,0,1,2.16264929999943,None,,,,,,,,897,23,M,L,2026-02-25_12h03.28.177,VisualSearch_2526_3,,2025.2.4,2026-02-25 12h03.28.371805 +0100,
tilted.xlsx,The target is tilted.,117,93,5,11,0,1,1,1,1,1,1,1,1,1,1,1,1,11,12,117,space,4.158214000000044,None,0,1,2.815025400000195,None,space,2.0925374999997075,None,0,0,0,0,,,,,11,5,93,4,266.2616130999995,,,,,,,,,,,,,,,,,,,,,266.24656759999925,266.2616130999995,266.74554739999985,266.7502181,266.7655791999996,269.59472489999916,,,,,269.59491909999997,269.6100011999997,269.8103623999996,269.7941889999993,266.7655791999996,,,,,,,,0,1,2.815025400000195,None,,,,,,,,897,23,M,L,2026-02-25_12h03.28.177,VisualSearch_2526_3,,2025.2.4,2026-02-25 12h03.28.371805 +0100,
tilted.xlsx,The target is tilted.,117,94,6,11,1,0,0,0,0,0,0,0,0,0,0,0,0,0,1,117,space,4.158214000000044,None,1,1,0.6752163999999539,None,space,2.0925374999997075,None,0,0,0,0,,,,,11,6,94,3,269.8103623999996,,,,,,,,,,,,,,,,,,,,,269.7950101999995,269.8103623999996,270.2939259999994,270.2986426999996,270.3129377999994,270.9937996999997,,,,,270.99403989999973,271.00965299999916,271.2096793999999,271.1934821999994,270.3129377999994,,,,,,,,1,1,0.6752163999999539,None,,,,,,,,897,23,M,L,2026-02-25_12h03.28.177,VisualSearch_2526_3,,2025.2.4,2026-02-25 12h03.28.371805 +0100,
tilted.xlsx,The target is tilted.,117,95,7,11,1,1,1,1,1,1,1,1,1,1,1,1,0,11,12,117,space,4.158214000000044,None,1,1,1.0371013000003586,None,space,2.0925374999997075,None,0,0,0,0,,,,,11,7,95,0,271.2096793999999,,,,,,,,,,,,,,,,,,,,,271.1942973999994,271.2096793999999,271.69325539999954,271.69787239999914,271.7097127999996,272.7596287999995,,,,,272.7597741999998,272.775447,272.97556219999933,272.95953499999996,271.7097127999996,,,,,,,,1,1,1.0371013000003586,None,,,,,,,,897,23,M,L,2026-02-25_12h03.28.177,VisualSearch_2526_3,,2025.2.4,2026-02-25 12h03.28.371805 +0100,
tilted.xlsx,The target is tilted.,117,96,0,12,0,1,1,1,0,0,0,0,0,0,0,0,1,3,4,117,space,4.158214000000044,None,0,1,0.7885868000003029,None,space,2.0925374999997075,None,0,0,0,0,,,,,12,0,96,6,272.97556219999933,,,,,,,,,,,,,,,,,,,,,272.96025779999945,272.97556219999933,273.4591625999992,273.4638565999994,273.4794164999994,274.2760094999994,,,,,274.27621849999923,274.2916188999998,274.4915111999999,274.4753364999997,273.4794164999994,,,,,,,,0,1,0.7885868000003029,None,,,,,,,,897,23,M,L,2026-02-25_12h03.28.177,VisualSearch_2526_3,,2025.2.4,2026-02-25 12h03.28.371805 +0100,
tilted.xlsx,The target is tilted.,117,97,1,12,1,1,1,1,1,1,1,1,0,0,0,0,0,7,8,117,space,4.158214000000044,None,1,1,2.2708681000003708,None,space,2.0925374999997075,None,0,0,0,0,,,,,12,1,97,1,274.4915111999999,,,,,,,,,,,,,,,,,,,,,274.47616109999944,274.4915111999999,274.9751082999992,274.97970579999946,274.9952276999993,277.2752434999993,,,,,277.27544769999986,277.28989439999987,277.49025399999937,277.4739576999991,274.9952276999993,,,,,,,,1,1,2.2708681000003708,None,,,,,,,,897,23,M,L,2026-02-25_12h03.28.177,VisualSearch_2526_3,,2025.2.4,2026-02-25 12h03.28.371805 +0100,
tilted.xlsx,The target is tilted.,117,98,2,12,1,1,1,1,1,1,1,1,1,1,1,1,0,11,12,117,space,4.158214000000044,None,1,1,1.5482071999995242,None,space,2.0925374999997075,None,0,0,0,0,,,,,12,2,98,0,277.49025399999937,,,,,,,,,,,,,,,,,,,,,277.47477029999936,277.49025399999937,277.97377249999954,277.9784790999993,277.99248389999957,279.5569143999992,,,,,279.5571089999994,279.5721808999997,279.7723565999995,279.7562371999993,277.99248389999957,,,,,,,,1,1,1.5482071999995242,None,,,,,,,,897,23,M,L,2026-02-25_12h03.28.177,VisualSearch_2526_3,,2025.2.4,2026-02-25 12h03.28.371805 +0100,
tilted.xlsx,The target is tilted.,117,99,3,12,0,1,1,1,1,1,1,1,0,0,0,0,1,7,8,117,space,4.158214000000044,None,0,1,2.5807002999999895,None,space,2.0925374999997075,None,0,0,0,0,,,,,12,3,99,5,279.7723565999995,,,,,,,,,,,,,,,,,,,,,279.75706439999976,279.7723565999995,280.25569499999983,280.2604335999995,280.2759260999992,282.8714689999997,,,,,282.8715585,282.8875365999993,283.08769329999996,283.0714790999991,280.2759260999992,,,,,,,,0,1,2.5807002999999895,None,,,,,,,,897,23,M,L,2026-02-25_12h03.28.177,VisualSearch_2526_3,,2025.2.4,2026-02-25 12h03.28.371805 +0100,
tilted.xlsx,The target is tilted.,117,100,4,12,0,1,1,1,1,1,1,1,1,1,1,1,1,11,12,117,space,4.158214000000044,None,0,1,3.5599990000000616,None,space,2.0925374999997075,None,0,0,0,0,,,,,12,4,100,4,283.08769329999996,,,,,,,,,,,,,,,,,,,,,283.0722397999998,283.08769329999996,283.57080269999915,283.5755371999994,283.5893178999995,287.15305269999953,,,,,287.1532299999999,287.1690065999992,287.36905059999935,287.35250109999924,283.5893178999995,,,,,,,,0,1,3.5599990000000616,None,,,,,,,,897,23,M,L,2026-02-25_12h03.28.177,VisualSearch_2526_3,,2025.2.4,2026-02-25 12h03.28.371805 +0100,
tilted.xlsx,The target is tilted.,117,101,5,12,1,0,0,0,0,0,0,0,0,0,0,0,0,0,1,117,space,4.158214000000044,None,1,1,1.0132284000001164,None,space,2.0925374999997075,None,0,0,0,0,,,,,12,5,101,3,287.36905059999935,,,,,,,,,,,,,,,,,,,,,287.3532329999998,287.36905059999935,287.85261119999996,287.8573792999996,287.8730291999991,288.90209199999936,,,,,288.9022810999995,288.9182275999992,289.11818289999974,289.1019811999995,287.8730291999991,,,,,,,,1,1,1.0132284000001164,None,,,,,,,,897,23,M,L,2026-02-25_12h03.28.177,VisualSearch_2526_3,,2025.2.4,2026-02-25 12h03.28.371805 +0100,
tilted.xlsx,The target is tilted.,117,102,6,12,0,0,0,0,0,0,0,0,0,0,0,0,1,1,1,117,space,4.158214000000044,None,0,1,0.7059749000000011,None,space,2.0925374999997075,None,0,0,0,0,,,,,12,6,102,7,289.11818289999974,,,,,,,,,,,,,,,,,,,,,289.1027482999998,289.11818289999974,289.6019762999995,289.6068089999999,289.6178261999994,290.3357851999999,,,,,290.3359912999995,290.35088109999924,290.55100029999994,290.5346815999992,289.6178261999994,,,,,,,,0,1,0.7059749000000011,None,,,,,,,,897,23,M,L,2026-02-25_12h03.28.177,VisualSearch_2526_3,,2025.2.4,2026-02-25 12h03.28.371805 +0100,
tilted.xlsx,The target is tilted.,117,103,7,12,1,1,1,1,0,0,0,0,0,0,0,0,0,3,4,117,space,4.158214000000044,None,1,1,0.965084499999648,None,space,2.0925374999997075,None,0,0,0,0,,,,,12,7,103,2,290.55100029999994,,,,,,,,,,,,,,,,,,,,,290.53542879999986,290.55100029999994,291.0344548999992,291.0392435999993,291.05531449999944,292.03456839999944,,,,,292.0347602999991,292.05020889999923,292.25019189999966,292.23388499999965,291.05531449999944,,,,,,,,1,1,0.965084499999648,None,,,,,,,,897,23,M,L,2026-02-25_12h03.28.177,VisualSearch_2526_3,,2025.2.4,2026-02-25 12h03.28.371805 +0100,
tilted.xlsx,The target is tilted.,117,104,0,13,0,1,1,1,1,1,1,1,0,0,0,0,1,7,8,117,space,4.158214000000044,None,0,1,2.4469896000000517,None,space,2.0925374999997075,None,0,0,0,0,,,,,13,0,104,5,292.25019189999966,,,,,,,,,,,,,,,,,,,,,292.2347203999998,292.25019189999966,292.73374629999944,292.7384734999996,292.7520009,295.2158864999992,,,,,295.21605069999987,295.23190259999956,295.4316553999997,295.415986,292.7520009,,,,,,,,0,1,2.4469896000000517,None,,,,,,,,897,23,M,L,2026-02-25_12h03.28.177,VisualSearch_2526_3,,2025.2.4,2026-02-25 12h03.28.371805 +0100,
tilted.xlsx,The target is tilted.,117,105,1,13,1,1,1,1,0,0,0,0,0,0,0,0,0,3,4,117,space,4.158214000000044,None,1,1,0.9547237000006135,None,space,2.0925374999997075,None,0,0,0,0,,,,,13,1,105,2,295.4316553999997,,,,,,,,,,,,,,,,,,,,,295.4166906999999,295.4316553999997,295.91567699999996,295.9203224999992,295.93529259999923,296.8990325999994,,,,,296.89920449999954,296.91469079999933,297.1145913999999,297.09852949999913,295.93529259999923,,,,,,,,1,1,0.9547237000006135,None,,,,,,,,897,23,M,L,2026-02-25_12h03.28.177,VisualSearch_2526_3,,2025.2.4,2026-02-25 12h03.28.371805 +0100,
tilted.xlsx,The target is tilted.,117,106,2,13,1,0,0,0,0,0,0,0,0,0,0,0,0,0,1,117,space,4.158214000000044,None,1,1,0.546835000000101,None,space,2.0925374999997075,None,0,0,0,0,,,,,13,2,106,3,297.1145913999999,,,,,,,,,,,,,,,,,,,,,297.09938239999974,297.1145913999999,297.59819249999964,297.6028727999992,297.61517579999963,298.1651716999995,,,,,298.1653628999993,298.1807945999999,298.38052849999985,298.3641910999995,297.61517579999963,,,,,,,,1,1,0.546835000000101,None,,,,,,,,897,23,M,L,2026-02-25_12h03.28.177,VisualSearch_2526_3,,2025.2.4,2026-02-25 12h03.28.371805 +0100,
tilted.xlsx,The target is tilted.,117,107,3,13,1,1,1,1,1,1,1,1,1,1,1,1,0,11,12,117,space,4.158214000000044,None,1,1,1.0290760999996564,None,space,2.0925374999997075,None,0,0,0,0,,,,,13,3,107,0,298.38052849999985,,,,,,,,,,,,,,,,,,,,,298.3649349999996,298.38052849999985,298.8642794999996,298.8690388999994,298.88394139999946,299.9142374999992,,,,,299.9144336999998,299.9297745999993,300.12994609999987,300.1136353999991,298.88394139999946,,,,,,,,1,1,1.0290760999996564,None,,,,,,,,897,23,M,L,2026-02-25_12h03.28.177,VisualSearch_2526_3,,2025.2.4,2026-02-25 12h03.28.371805 +0100,
tilted.xlsx,The target is tilted.,117,108,4,13,0,1,1,1,0,0,0,0,0,0,0,0,1,3,4,117,space,4.158214000000044,None,0,1,0.9458295000004,None,space,2.0925374999997075,None,0,0,0,0,,,,,13,4,108,6,300.12994609999987,,,,,,,,,,,,,,,,,,,,,300.11441639999975,300.12994609999987,300.61326089999966,300.6179128999993,300.6342780999994,301.5969948999991,,,,,301.59718749999956,301.61216889999923,301.81235559999914,301.79618329999994,300.6342780999994,,,,,,,,0,1,0.9458295000004,None,,,,,,,,897,23,M,L,2026-02-25_12h03.28.177,VisualSearch_2526_3,,2025.2.4,2026-02-25 12h03.28.371805 +0100,
tilted.xlsx,The target is tilted.,117,109,5,13,0,0,0,0,0,0,0,0,0,0,0,0,1,1,1,117,space,4.158214000000044,None,0,1,0.5565847999996549,None,space,2.0925374999997075,None,0,0,0,0,,,,,13,5,109,7,301.81235559999914,,,,,,,,,,,,,,,,,,,,,301.7969639999992,301.81235559999914,302.2961074999994,302.3014996999991,302.3166148999999,302.8796653999998,,,,,302.8798657999996,302.8951729999999,303.0948477999991,303.0790569999999,302.3166148999999,,,,,,,,0,1,0.5565847999996549,None,,,,,,,,897,23,M,L,2026-02-25_12h03.28.177,VisualSearch_2526_3,,2025.2.4,2026-02-25 12h03.28.371805 +0100,
tilted.xlsx,The target is tilted.,117,110,6,13,0,1,1,1,1,1,1,1,1,1,1,1,1,11,12,117,space,4.158214000000044,None,0,1,2.767886899999212,None,space,2.0925374999997075,None,0,0,0,0,,,,,13,6,110,4,303.0948477999991,,,,,,,,,,,,,,,,,,,,,303.07981389999986,303.0948477999991,303.57885989999977,303.58362079999915,303.5985946999999,306.37800739999966,,,,,306.37818889999926,306.3935329999995,306.5935757999996,306.5776214999996,303.5985946999999,,,,,,,,0,1,2.767886899999212,None,,,,,,,,897,23,M,L,2026-02-25_12h03.28.177,VisualSearch_2526_3,,2025.2.4,2026-02-25 12h03.28.371805 +0100,
tilted.xlsx,The target is tilted.,117,111,7,13,1,1,1,1,1,1,1,1,0,0,0,0,0,7,8,117,space,4.158214000000044,None,1,1,1.3773666000006415,None,space,2.0925374999997075,None,0,0,0,0,,,,,13,7,111,1,306.5935757999996,,,,,,,,,,,,,,,,,,,,,306.57854769999994,306.5935757999996,307.07713819999935,307.08189669999956,307.0968739,308.4772422999995,,,,,308.4774501999991,308.4927095999992,308.69239839999955,308.6765627999994,307.0968739,,,,,,,,1,1,1.3773666000006415,None,,,,,,,,897,23,M,L,2026-02-25_12h03.28.177,VisualSearch_2526_3,,2025.2.4,2026-02-25 12h03.28.371805 +0100,
tilted.xlsx,The target is tilted.,117,112,0,14,1,0,0,0,0,0,0,0,0,0,0,0,0,0,1,117,space,4.158214000000044,None,1,1,0.5719034000003376,None,space,2.0925374999997075,None,0,0,0,0,,,,,14,0,112,3,308.69239839999955,,,,,,,,,,,,,,,,,,,,,308.6772884999991,308.69239839999955,309.17633729999943,309.1811070999993,309.1966692999995,309.7766251999992,,,,,309.7768152999997,309.79215809999914,309.9917040999999,309.97588949999954,309.1966692999995,,,,,,,,1,1,0.5719034000003376,None,,,,,,,,897,23,M,L,2026-02-25_12h03.28.177,VisualSearch_2526_3,,2025.2.4,2026-02-25 12h03.28.371805 +0100,
tilted.xlsx,The target is tilted.,117,113,1,14,0,0,0,0,0,0,0,0,0,0,0,0,1,1,1,117,space,4.158214000000044,None,0,1,0.5433756000002177,None,space,2.0925374999997075,None,0,0,0,0,,,,,14,1,113,7,309.9917040999999,,,,,,,,,,,,,,,,,,,,,309.9766506999995,309.9917040999999,310.47567959999924,310.4805418999995,310.4961007999991,311.04269489999933,,,,,311.04288709999946,311.05786289999924,311.25806159999956,311.2419427999994,310.4961007999991,,,,,,,,0,1,0.5433756000002177,None,,,,,,,,897,23,M,L,2026-02-25_12h03.28.177,VisualSearch_2526_3,,2025.2.4,2026-02-25 12h03.28.371805 +0100,
tilted.xlsx,The target is tilted.,117,114,2,14,1,1,1,1,1,1,1,1,0,0,0,0,0,7,8,117,space,4.158214000000044,None,0,0,3.1469484999997803,None,space,2.0925374999997075,None,0,0,0,0,,,,,14,2,114,1,311.25806159999956,,,,,,,,,,,,,,,,,,,,,311.2427141999997,311.25806159999956,311.7416543999998,311.74634739999965,311.7613105999999,314.9237514999995,,,,,314.92390129999967,314.9397201999991,315.1395793999991,315.12340909999966,311.7613105999999,,,,,,,,0,0,3.1469484999997803,None,,,,,,,,897,23,M,L,2026-02-25_12h03.28.177,VisualSearch_2526_3,,2025.2.4,2026-02-25 12h03.28.371805 +0100,
tilted.xlsx,The target is tilted.,117,115,3,14,0,1,1,1,1,1,1,1,1,1,1,1,1,11,12,117,space,4.158214000000044,None,0,1,4.243819299999814,None,space,2.0925374999997075,None,0,0,0,0,,,,,14,3,115,4,315.1395793999991,,,,,,,,,,,,,,,,,,,,,315.12416309999935,315.1395793999991,315.6233278999998,315.6280547999995,315.64350059999924,319.8886817999992,,,,,319.8888993999999,319.9039024999993,320.1040725999992,320.0880875999992,315.64350059999924,,,,,,,,0,1,4.243819299999814,None,,,,,,,,897,23,M,L,2026-02-25_12h03.28.177,VisualSearch_2526_3,,2025.2.4,2026-02-25 12h03.28.371805 +0100,
tilted.xlsx,The target is tilted.,117,116,4,14,1,1,1,1,1,1,1,1,1,1,1,1,0,11,12,117,space,4.158214000000044,None,1,1,1.866468199999872,None,space,2.0925374999997075,None,0,0,0,0,,,,,14,4,116,0,320.1040725999992,,,,,,,,,,,,,,,,,,,,,320.0888026999992,320.1040725999992,320.58777909999935,320.59255459999986,320.60813059999964,322.4868704999999,,,,,322.4870302999998,322.50285669999994,322.7027930999993,322.68677899999966,320.60813059999964,,,,,,,,1,1,1.866468199999872,None,,,,,,,,897,23,M,L,2026-02-25_12h03.28.177,VisualSearch_2526_3,,2025.2.4,2026-02-25 12h03.28.371805 +0100,
tilted.xlsx,The target is tilted.,117,117,5,14,1,1,1,1,0,0,0,0,0,0,0,0,0,3,4,117,space,4.158214000000044,None,1,1,0.6967846999996254,None,space,2.0925374999997075,None,0,0,0,0,,,,,14,5,117,2,322.7027930999993,,,,,,,,,,,,,,,,,,,,,322.68763949999993,322.7027930999993,323.18658569999934,323.19128289999935,323.2067376999994,323.9197527999995,,,,,323.91988989999936,323.93566329999976,324.13565349999953,324.1196375999998,323.2067376999994,,,,,,,,1,1,0.6967846999996254,None,,,,,,,,897,23,M,L,2026-02-25_12h03.28.177,VisualSearch_2526_3,,2025.2.4,2026-02-25 12h03.28.371805 +0100,
tilted.xlsx,The target is tilted.,117,118,6,14,0,1,1,1,1,1,1,1,0,0,0,0,1,7,8,117,space,4.158214000000044,None,0,1,2.0433666999997513,None,space,2.0925374999997075,None,0,0,0,0,,,,,14,6,118,5,324.13565349999953,,,,,,,,,,,,,,,,,,,,,324.1203579999992,324.13565349999953,324.6189278999991,324.62076119999983,324.6352348999999,326.6853603999998,,,,,326.6855356999995,326.7011073999993,326.9010879999996,326.88487539999915,324.6352348999999,,,,,,,,0,1,2.0433666999997513,None,,,,,,,,897,23,M,L,2026-02-25_12h03.28.177,VisualSearch_2526_3,,2025.2.4,2026-02-25 12h03.28.371805 +0100,
tilted.xlsx,The target is tilted.,117,119,7,14,0,1,1,1,0,0,0,0,0,0,0,0,1,3,4,117,space,4.158214000000044,None,0,1,0.9087304999993648,None,space,2.0925374999997075,None,0,0,0,0,,,,,14,7,119,6,326.9010879999996,,,,,,,,,,,,,,,,,,,,,326.88571909999973,326.9010879999996,327.38468529999955,327.3893969999999,327.4055735999991,328.31758739999987,,,,,328.3177915999995,328.33355689999917,328.5354039999993,328.5175013999997,327.4055735999991,,,,,,,,0,1,0.9087304999993648,None,,,,,,,,897,23,M,L,2026-02-25_12h03.28.177,VisualSearch_2526_3,,2025.2.4,2026-02-25 12h03.28.371805 +0100,
tilted.xlsx,The target is tilted.,117,0,0,0,,,,,,,,,,,,,,,,,space,4.158214000000044,None,,,,,space,2.0925374999997075,None,0,0,0,0,,,,,,,,,,,,,,,,,,,,,,,,,,,,,,,,,,,,,,,,,,,,,,,,,,,,,,,,,,,,,,,897,23,M,L,2026-02-25_12h03.28.177,VisualSearch_2526_3,,2025.2.4,2026-02-25 12h03.28.371805 +0100,
vertical.xlsx,The target is tilted.,135,0,0,0,1,1,1,1,0,0,0,0,0,0,0,0,0,3,4,135,space,3.8713815999999497,None,1,1,0.4449641999999585,None,,,,0,1,1,1,0,0,0,2,,,,,332.4422444999991,,,,,,,,,,,,,,,328.5354039999993,328.5354039999993,328.5354039999993,space,3.8713815999999497,None,332.4383431999995,332.4422444999991,332.9318414999998,332.93676999999934,332.95234699999946,333.39865109999937,1,1,0.4449641999999585,None,333.39878599999975,333.4145243999992,333.6145902999997,333.59888389999924,,,,,,,,,,,,,,,,,,,,897,23,M,L,2026-02-25_12h03.28.177,VisualSearch_2526_3,,2025.2.4,2026-02-25 12h03.28.371805 +0100,
vertical.xlsx,The target is tilted.,135,1,1,0,0,1,1,1,1,1,1,1,0,0,0,0,1,7,8,135,space,3.8713815999999497,None,0,1,1.0695949000000837,None,,,,0,1,1,1,0,1,1,5,,,,,333.6145902999997,,,,,,,,,,,,,,,,,,,,,333.59954449999987,333.6145902999997,334.09833079999953,334.1031794999999,334.1192142,335.19794569999976,0,1,1.0695949000000837,None,335.1980737999993,335.21380839999983,335.4138039999998,335.3973200999999,334.1192142,,,,,,,,,,,,,,,,,,,897,23,M,L,2026-02-25_12h03.28.177,VisualSearch_2526_3,,2025.2.4,2026-02-25 12h03.28.371805 +0100,
vertical.xlsx,The target is tilted.,135,2,2,0,0,1,1,1,1,1,1,1,1,1,1,1,1,11,12,135,space,3.8713815999999497,None,0,1,1.2038777999996455,None,,,,0,1,1,1,0,2,2,4,,,,,335.4138039999998,,,,,,,,,,,,,,,,,,,,,335.39799309999944,335.4138039999998,335.89752489999955,335.90215909999915,335.91771919999974,337.1303865,0,1,1.2038777999996455,None,337.13050609999937,337.14563159999943,337.3461493999994,337.3301027999996,335.91771919999974,,,,,,,,,,,,,,,,,,,897,23,M,L,2026-02-25_12h03.28.177,VisualSearch_2526_3,,2025.2.4,2026-02-25 12h03.28.371805 +0100,
vertical.xlsx,The target is tilted.,135,3,3,0,1,1,1,1,1,1,1,1,1,1,1,1,0,11,12,135,space,3.8713815999999497,None,1,1,0.8784040000000459,None,,,,0,1,1,1,0,3,3,0,,,,,337.3461493999994,,,,,,,,,,,,,,,,,,,,,337.3308043999996,337.3461493999994,337.82993369999986,337.83468809999977,337.8506336999999,338.74623729999985,1,1,0.8784040000000459,None,338.7464038999997,338.76213199999984,338.96223719999944,338.94610639999974,337.8506336999999,,,,,,,,,,,,,,,,,,,897,23,M,L,2026-02-25_12h03.28.177,VisualSearch_2526_3,,2025.2.4,2026-02-25 12h03.28.371805 +0100,
vertical.xlsx,The target is tilted.,135,4,4,0,1,1,1,1,1,1,1,1,0,0,0,0,0,7,8,135,space,3.8713815999999497,None,1,1,0.6174694999999701,None,,,,0,1,1,1,0,4,4,1,,,,,338.96223719999944,,,,,,,,,,,,,,,,,,,,,338.9468766,338.96223719999944,339.4458717999996,339.4505276,339.46583909999936,340.09572389999994,1,1,0.6174694999999701,None,340.09585459999926,340.1114293999999,340.31143689999953,340.2951568999997,339.46583909999936,,,,,,,,,,,,,,,,,,,897,23,M,L,2026-02-25_12h03.28.177,VisualSearch_2526_3,,2025.2.4,2026-02-25 12h03.28.371805 +0100,
vertical.xlsx,The target is tilted.,135,5,5,0,0,0,0,0,0,0,0,0,0,0,0,0,1,1,1,135,space,3.8713815999999497,None,0,1,0.5357789000008779,None,,,,0,1,1,1,0,5,5,7,,,,,340.31143689999953,,,,,,,,,,,,,,,,,,,,,340.2959035999993,340.31143689999953,340.7952009999999,340.7998820999992,340.8157573999997,341.3622575999998,0,1,0.5357789000008779,None,341.3624422999992,341.3773784999994,341.5776423999996,341.56144889999996,340.8157573999997,,,,,,,,,,,,,,,,,,,897,23,M,L,2026-02-25_12h03.28.177,VisualSearch_2526_3,,2025.2.4,2026-02-25 12h03.28.371805 +0100,
vertical.xlsx,The target is tilted.,135,6,6,0,0,1,1,1,0,0,0,0,0,0,0,0,1,3,4,135,space,3.8713815999999497,None,0,1,0.736931899999945,None,,,,0,1,1,1,0,6,6,6,,,,,341.5776423999996,,,,,,,,,,,,,,,,,,,,,341.5621317999994,341.5776423999996,342.0614229999992,342.06623039999977,342.08112549999987,342.8282217999995,0,1,0.736931899999945,None,342.82840619999934,342.84337909999977,343.0436069999996,343.0272481999991,342.08112549999987,,,,,,,,,,,,,,,,,,,897,23,M,L,2026-02-25_12h03.28.177,VisualSearch_2526_3,,2025.2.4,2026-02-25 12h03.28.371805 +0100,
vertical.xlsx,The target is tilted.,135,7,7,0,1,0,0,0,0,0,0,0,0,0,0,0,0,0,1,135,space,3.8713815999999497,None,1,1,0.489861000000019,None,,,,0,1,1,1,0,7,7,3,,,,,343.0436069999996,,,,,,,,,,,,,,,,,,,,,343.02792339999996,343.0436069999996,343.5273824999995,343.5320826999996,343.54660479999984,344.0441805999999,1,1,0.489861000000019,None,344.0443501999998,344.05994739999915,344.2597367999997,344.24362739999924,343.54660479999984,,,,,,,,,,,,,,,,,,,897,23,M,L,2026-02-25_12h03.28.177,VisualSearch_2526_3,,2025.2.4,2026-02-25 12h03.28.371805 +0100,
vertical.xlsx,The target is tilted.,135,0,0,0,1,1,1,1,0,0,0,0,0,0,0,0,0,3,4,135,space,3.8713815999999497,None,1,1,0.702323499999693,None,space,1.2658473000001322,None,0,1,1,1,,,,,0,0,0,2,345.5460308999991,,,,,,,,,,,,,,,,,,,,,345.54233699999986,345.5460308999991,346.04254089999995,346.04731019999963,346.0621175999995,346.77654689999963,,,,,346.7767710999997,346.7916375999994,346.991446,346.9757686999992,,344.25052459999915,344.2597367999997,344.2597367999997,345.5267839999997,space,1.2658473000001322,None,1,1,0.702323499999693,None,,,,,,,,897,23,M,L,2026-02-25_12h03.28.177,VisualSearch_2526_3,,2025.2.4,2026-02-25 12h03.28.371805 +0100,
vertical.xlsx,The target is tilted.,135,1,1,0,0,1,1,1,0,0,0,0,0,0,0,0,1,3,4,135,space,3.8713815999999497,None,0,1,0.6047753000002558,None,space,1.2658473000001322,None,0,1,1,1,,,,,0,1,1,6,346.991446,,,,,,,,,,,,,,,,,,,,,346.97660649999943,346.991446,347.4755430999994,347.4802162999995,347.49606049999966,348.10841119999986,,,,,348.1084923999997,348.1244138999991,348.3246070999994,348.30854049999925,347.49606049999966,,,,,,,,0,1,0.6047753000002558,None,,,,,,,,897,23,M,L,2026-02-25_12h03.28.177,VisualSearch_2526_3,,2025.2.4,2026-02-25 12h03.28.371805 +0100,
vertical.xlsx,The target is tilted.,135,2,2,0,1,1,1,1,1,1,1,1,1,1,1,1,0,11,12,135,space,3.8713815999999497,None,1,1,0.572259400000803,None,space,1.2658473000001322,None,0,1,1,1,,,,,0,2,2,0,348.3246070999994,,,,,,,,,,,,,,,,,,,,,348.3093666999994,348.3246070999994,348.8081760999994,348.81287839999914,348.8296971999998,349.4077473999996,,,,,349.4078378999993,349.42382349999934,349.6240683999995,349.6078693999998,348.8296971999998,,,,,,,,1,1,0.572259400000803,None,,,,,,,,897,23,M,L,2026-02-25_12h03.28.177,VisualSearch_2526_3,,2025.2.4,2026-02-25 12h03.28.371805 +0100,
vertical.xlsx,The target is tilted.,135,3,3,0,0,1,1,1,1,1,1,1,1,1,1,1,1,11,12,135,space,3.8713815999999497,None,0,1,1.4235616000005393,None,space,1.2658473000001322,None,0,1,1,1,,,,,0,3,3,4,349.6240683999995,,,,,,,,,,,,,,,,,,,,,349.6086121999997,349.6240683999995,350.1077222999993,350.1124340999995,350.1268134999991,351.55757769999946,,,,,351.55777189999935,351.57299879999937,351.77273799999966,351.7569848999992,350.1268134999991,,,,,,,,0,1,1.4235616000005393,None,,,,,,,,897,23,M,L,2026-02-25_12h03.28.177,VisualSearch_2526_3,,2025.2.4,2026-02-25 12h03.28.371805 +0100,
vertical.xlsx,The target is tilted.,135,4,4,0,0,1,1,1,1,1,1,1,0,0,0,0,1,7,8,135,space,3.8713815999999497,None,0,1,1.3604420000001483,None,space,1.2658473000001322,None,0,1,1,1,,,,,0,4,4,5,351.77273799999966,,,,,,,,,,,,,,,,,,,,,351.7578087999991,351.77273799999966,352.2565636999998,352.2612301999998,352.27621629999976,353.6396244999996,,,,,353.63974339999913,353.6553905999999,353.85551489999943,353.83890809999957,352.27621629999976,,,,,,,,0,1,1.3604420000001483,None,,,,,,,,897,23,M,L,2026-02-25_12h03.28.177,VisualSearch_2526_3,,2025.2.4,2026-02-25 12h03.28.371805 +0100,
vertical.xlsx,The target is tilted.,135,5,5,0,1,0,0,0,0,0,0,0,0,0,0,0,0,0,1,135,space,3.8713815999999497,None,1,1,0.3618451999991521,None,space,1.2658473000001322,None,0,1,1,1,,,,,0,5,5,3,353.85551489999943,,,,,,,,,,,,,,,,,,,,,353.83965179999996,353.85551489999943,354.3389520999999,354.34359249999943,354.3594286999996,354.7394483999997,,,,,354.7396426999994,354.7550093,354.95486979999987,354.9387537999992,354.3594286999996,,,,,,,,1,1,0.3618451999991521,None,,,,,,,,897,23,M,L,2026-02-25_12h03.28.177,VisualSearch_2526_3,,2025.2.4,2026-02-25 12h03.28.371805 +0100,
vertical.xlsx,The target is tilted.,135,6,6,0,1,1,1,1,1,1,1,1,0,0,0,0,0,7,8,135,space,3.8713815999999497,None,0,0,0.9187412000001132,None,space,1.2658473000001322,None,0,1,1,1,,,,,0,6,6,1,354.95486979999987,,,,,,,,,,,,,,,,,,,,,354.9395990999992,354.95486979999987,355.43864759999997,355.44328659999974,355.45830639999986,356.3883874999992,,,,,356.38853299999937,356.40392279999924,356.6042153999997,356.58808319999935,355.45830639999986,,,,,,,,0,0,0.9187412000001132,None,,,,,,,,897,23,M,L,2026-02-25_12h03.28.177,VisualSearch_2526_3,,2025.2.4,2026-02-25 12h03.28.371805 +0100,
vertical.xlsx,The target is tilted.,135,7,7,0,0,0,0,0,0,0,0,0,0,0,0,0,1,1,1,135,space,3.8713815999999497,None,0,1,0.4775601999999708,None,space,1.2658473000001322,None,0,1,1,1,,,,,0,7,7,7,356.6042153999997,,,,,,,,,,,,,,,,,,,,,356.5889043999996,356.6042153999997,357.0878088999998,357.0925058999992,357.10747059999994,357.5882697999996,,,,,357.58855239999957,357.6036469999999,357.80363879999913,357.7874936999997,357.10747059999994,,,,,,,,0,1,0.4775601999999708,None,,,,,,,,897,23,M,L,2026-02-25_12h03.28.177,VisualSearch_2526_3,,2025.2.4,2026-02-25 12h03.28.371805 +0100,
vertical.xlsx,The target is tilted.,135,8,0,1,0,1,1,1,1,1,1,1,1,1,1,1,1,11,12,135,space,3.8713815999999497,None,0,1,1.689189400000032,None,space,1.2658473000001322,None,0,1,1,1,,,,,1,0,8,4,357.80363879999913,,,,,,,,,,,,,,,,,,,,,357.78836499999943,357.80363879999913,358.2872473999996,358.2917932999999,358.30332819999967,360.0031590999997,,,,,360.00332289999915,360.0192249999991,360.2189991999994,360.20284289999927,358.30332819999967,,,,,,,,0,1,1.689189400000032,None,,,,,,,,897,23,M,L,2026-02-25_12h03.28.177,VisualSearch_2526_3,,2025.2.4,2026-02-25 12h03.28.371805 +0100,
vertical.xlsx,The target is tilted.,135,9,1,1,1,1,1,1,1,1,1,1,0,0,0,0,0,7,8,135,space,3.8713815999999497,None,1,1,0.5305077000002711,None,space,1.2658473000001322,None,0,1,1,1,,,,,1,1,9,1,360.2189991999994,,,,,,,,,,,,,,,,,,,,,360.20365239999956,360.2189991999994,360.70269519999965,360.7074599999996,360.7225439999993,361.2698298999994,,,,,361.2700236999999,361.2853706999995,361.4853114999996,361.4691137,360.7225439999993,,,,,,,,1,1,0.5305077000002711,None,,,,,,,,897,23,M,L,2026-02-25_12h03.28.177,VisualSearch_2526_3,,2025.2.4,2026-02-25 12h03.28.371805 +0100,
vertical.xlsx,The target is tilted.,135,10,2,1,1,1,1,1,1,1,1,1,1,1,1,1,0,11,12,135,space,3.8713815999999497,None,1,1,0.9451441000001068,None,space,1.2658473000001322,None,0,1,1,1,,,,,1,2,10,0,361.4853114999996,,,,,,,,,,,,,,,,,,,,,361.46988389999933,361.4853114999996,361.96905889999925,361.9738084999999,361.9896159,362.9513688999996,,,,,362.95144789999995,362.96741739999925,,363.15157719999934,361.9896159,,,,,,,,1,1,0.9451441000001068,None,,,,,,,,897,23,M,L,2026-02-25_12h03.28.177,VisualSearch_2526_3,,2025.2.4,2026-02-25 12h03.28.371805 +0100,
vertical.xlsx,The target is tilted.,135,11,3,1,0,1,1,1,0,0,0,0,0,0,0,0,1,3,4,135,space,3.8713815999999497,None,0,1,0.5823929000007411,None,space,1.2658473000001322,None,0,1,1,1,,,,,1,3,11,6,363.16795189999993,,,,,,,,,,,,,,,,,,,,,363.1523567999993,363.16795189999993,363.6512901999995,363.6551357999997,363.6695942999995,364.2676684999997,,,,,364.2678139999998,364.2839206999997,364.4836192999992,364.46778019999965,363.6695942999995,,,,,,,,0,1,0.5823929000007411,None,,,,,,,,897,23,M,L,2026-02-25_12h03.28.177,VisualSearch_2526_3,,2025.2.4,2026-02-25 12h03.28.371805 +0100,
vertical.xlsx,The target is tilted.,135,12,4,1,0,0,0,0,0,0,0,0,0,0,0,0,1,1,1,135,space,3.8713815999999497,None,0,1,0.5486928999998781,None,space,1.2658473000001322,None,0,1,1,1,,,,,1,4,12,7,364.4836192999992,,,,,,,,,,,,,,,,,,,,,364.46858469999916,364.4836192999992,364.9674495999998,364.9721379999992,364.98653339999964,365.5510201999996,,,,,365.55119489999925,365.56675669999913,365.7667388,365.75060699999995,364.98653339999964,,,,,,,,0,1,0.5486928999998781,None,,,,,,,,897,23,M,L,2026-02-25_12h03.28.177,VisualSearch_2526_3,,2025.2.4,2026-02-25 12h03.28.371805 +0100,
vertical.xlsx,The target is tilted.,135,13,5,1,0,1,1,1,1,1,1,1,0,0,0,0,1,7,8,135,space,3.8713815999999497,None,0,1,1.3612403000006452,None,space,1.2658473000001322,None,0,1,1,1,,,,,1,5,13,5,365.7667388,,,,,,,,,,,,,,,,,,,,,365.75133579999965,365.7667388,366.2503790999999,366.2550105999999,366.26992769999924,367.63347039999917,,,,,367.6336745999997,367.6489787999999,367.8491220999995,367.83284299999923,366.26992769999924,,,,,,,,0,1,1.3612403000006452,None,,,,,,,,897,23,M,L,2026-02-25_12h03.28.177,VisualSearch_2526_3,,2025.2.4,2026-02-25 12h03.28.371805 +0100,
vertical.xlsx,The target is tilted.,135,14,6,1,1,0,0,0,0,0,0,0,0,0,0,0,0,0,1,135,space,3.8713815999999497,None,1,1,0.6391861000001882,None,space,1.2658473000001322,None,0,1,1,1,,,,,1,6,14,3,367.8491220999995,,,,,,,,,,,,,,,,,,,,,367.8335896999997,367.8491220999995,368.3326965999995,368.3373454999992,368.35243639999953,368.9989051999992,,,,,368.9989792999995,369.01476319999983,369.21510839999974,369.19891689999986,368.35243639999953,,,,,,,,1,1,0.6391861000001882,None,,,,,,,,897,23,M,L,2026-02-25_12h03.28.177,VisualSearch_2526_3,,2025.2.4,2026-02-25 12h03.28.371805 +0100,
vertical.xlsx,The target is tilted.,135,15,7,1,1,1,1,1,0,0,0,0,0,0,0,0,0,3,4,135,space,3.8713815999999497,None,1,1,0.8265714999997726,None,space,1.2658473000001322,None,0,1,1,1,,,,,1,7,15,2,369.21510839999974,,,,,,,,,,,,,,,,,,,,,369.1996668999991,369.21510839999974,369.69874719999916,369.7034989999993,369.71843249999984,370.54822049999984,,,,,370.54837729999963,370.5641743999995,370.7644017999992,370.7482418999998,369.71843249999984,,,,,,,,1,1,0.8265714999997726,None,,,,,,,,897,23,M,L,2026-02-25_12h03.28.177,VisualSearch_2526_3,,2025.2.4,2026-02-25 12h03.28.371805 +0100,
vertical.xlsx,The target is tilted.,135,16,0,2,0,1,1,1,0,0,0,0,0,0,0,0,1,3,4,135,space,3.8713815999999497,None,0,1,0.6908171000004586,None,space,1.2658473000001322,None,0,1,1,1,,,,,2,0,16,6,370.7644017999992,,,,,,,,,,,,,,,,,,,,,370.7489788999992,370.7644017999992,371.24779169999965,371.25243019999925,371.2660823999995,371.9649466999999,,,,,371.9651408,371.9804461999993,372.1804207999994,372.16324729999997,371.2660823999995,,,,,,,,0,1,0.6908171000004586,None,,,,,,,,897,23,M,L,2026-02-25_12h03.28.177,VisualSearch_2526_3,,2025.2.4,2026-02-25 12h03.28.371805 +0100,
vertical.xlsx,The target is tilted.,135,17,1,2,0,1,1,1,1,1,1,1,1,1,1,1,1,11,12,135,space,3.8713815999999497,None,0,1,1.1983263000001898,None,space,1.2658473000001322,None,0,1,1,1,,,,,2,1,17,4,372.1804207999994,,,,,,,,,,,,,,,,,,,,,372.1634865999995,372.1804207999994,372.66405809999924,372.66875099999925,372.68340159999934,373.89717779999955,,,,,373.8973729999998,373.91297309999936,374.11285599999974,374.0968176999995,372.68340159999934,,,,,,,,0,1,1.1983263000001898,None,,,,,,,,897,23,M,L,2026-02-25_12h03.28.177,VisualSearch_2526_3,,2025.2.4,2026-02-25 12h03.28.371805 +0100,
vertical.xlsx,The target is tilted.,135,18,2,2,1,1,1,1,1,1,1,1,1,1,1,1,0,11,12,135,space,3.8713815999999497,None,1,1,0.7366606000005049,None,space,1.2658473000001322,None,0,1,1,1,,,,,2,2,18,0,374.11285599999974,,,,,,,,,,,,,,,,,,,,,374.0975454999998,374.11285599999974,374.59671779999917,374.6017340999997,374.6145282999996,375.3631803999997,,,,,375.36335339999914,375.37893619999977,375.57874979999997,375.56231919999937,374.6145282999996,,,,,,,,1,1,0.7366606000005049,None,,,,,,,,897,23,M,L,2026-02-25_12h03.28.177,VisualSearch_2526_3,,2025.2.4,2026-02-25 12h03.28.371805 +0100,
vertical.xlsx,The target is tilted.,135,19,3,2,1,1,1,1,0,0,0,0,0,0,0,0,0,3,4,135,space,3.8713815999999497,None,1,1,0.5445654999994076,None,space,1.2658473000001322,None,0,1,1,1,,,,,2,3,19,2,375.57874979999997,,,,,,,,,,,,,,,,,,,,,375.56312629999957,375.57874979999997,376.0622405999993,376.06694009999956,376.0819006999991,376.62959619999947,,,,,376.62978569999996,376.6446094999992,376.84481119999964,376.8284004999996,376.0819006999991,,,,,,,,1,1,0.5445654999994076,None,,,,,,,,897,23,M,L,2026-02-25_12h03.28.177,VisualSearch_2526_3,,2025.2.4,2026-02-25 12h03.28.371805 +0100,
vertical.xlsx,The target is tilted.,135,20,4,2,1,0,0,0,0,0,0,0,0,0,0,0,0,0,1,135,space,3.8713815999999497,None,1,1,0.44418020000011893,None,space,1.2658473000001322,None,0,1,1,1,,,,,2,4,20,3,376.84481119999964,,,,,,,,,,,,,,,,,,,,,376.82916699999987,376.84481119999964,377.32831759999954,377.3328526999994,377.34465999999975,377.7957689999994,,,,,377.7959626999991,377.8110582999998,378.01110939999944,377.9949674999998,377.34465999999975,,,,,,,,1,1,0.44418020000011893,None,,,,,,,,897,23,M,L,2026-02-25_12h03.28.177,VisualSearch_2526_3,,2025.2.4,2026-02-25 12h03.28.371805 +0100,
vertical.xlsx,The target is tilted.,135,21,5,2,0,0,0,0,0,0,0,0,0,0,0,0,1,1,1,135,space,3.8713815999999497,None,0,1,0.5651888000002145,None,space,1.2658473000001322,None,0,1,1,1,,,,,2,5,21,7,378.01110939999944,,,,,,,,,,,,,,,,,,,,,377.9957302999992,378.01110939999944,378.49477339999976,378.4994579999993,378.5144397999993,379.0950542999999,,,,,379.0952619999998,379.1105768999996,379.3104850999998,379.2942764999998,378.5144397999993,,,,,,,,0,1,0.5651888000002145,None,,,,,,,,897,23,M,L,2026-02-25_12h03.28.177,VisualSearch_2526_3,,2025.2.4,2026-02-25 12h03.28.371805 +0100,
vertical.xlsx,The target is tilted.,135,22,6,2,0,1,1,1,1,1,1,1,0,0,0,0,1,7,8,135,space,3.8713815999999497,None,0,1,1.7526200999991488,None,space,1.2658473000001322,None,0,1,1,1,,,,,2,6,22,5,379.3104850999998,,,,,,,,,,,,,,,,,,,,,379.29506459999993,379.3104850999998,379.7942807999998,379.7989850999993,379.8133283999996,381.57686699999977,,,,,381.57700269999987,381.5923983999992,381.7927261999994,381.77684789999967,379.8133283999996,,,,,,,,0,1,1.7526200999991488,None,,,,,,,,897,23,M,L,2026-02-25_12h03.28.177,VisualSearch_2526_3,,2025.2.4,2026-02-25 12h03.28.371805 +0100,
vertical.xlsx,The target is tilted.,135,23,7,2,1,1,1,1,1,1,1,1,0,0,0,0,0,7,8,135,space,3.8713815999999497,None,1,1,1.1286417000001165,None,space,1.2658473000001322,None,0,1,1,1,,,,,2,7,23,1,381.7927261999994,,,,,,,,,,,,,,,,,,,,,381.7776767999994,381.7927261999994,382.27649159999964,382.28102449999915,382.29235589999917,383.42641099999946,,,,,383.42660309999974,383.4416621999999,383.64154639999924,383.6257767999996,382.29235589999917,,,,,,,,1,1,1.1286417000001165,None,,,,,,,,897,23,M,L,2026-02-25_12h03.28.177,VisualSearch_2526_3,,2025.2.4,2026-02-25 12h03.28.371805 +0100,
vertical.xlsx,The target is tilted.,135,24,0,3,1,1,1,1,0,0,0,0,0,0,0,0,0,3,4,135,space,3.8713815999999497,None,1,1,0.7464269000001877,None,space,1.2658473000001322,None,0,1,1,1,,,,,3,0,24,2,383.64154639999924,,,,,,,,,,,,,,,,,,,,,383.6265539999995,383.64154639999924,384.12560009999925,384.1303231999991,384.1439733999996,384.8920860999997,,,,,384.89227799999935,384.90793979999944,385.1079826999994,385.0918858999994,384.1439733999996,,,,,,,,1,1,0.7464269000001877,None,,,,,,,,897,23,M,L,2026-02-25_12h03.28.177,VisualSearch_2526_3,,2025.2.4,2026-02-25 12h03.28.371805 +0100,
vertical.xlsx,The target is tilted.,135,25,1,3,0,1,1,1,1,1,1,1,1,1,1,1,1,11,12,135,space,3.8713815999999497,None,0,1,3.713638600000195,None,space,1.2658473000001322,None,0,1,1,1,,,,,3,1,25,4,385.1079826999994,,,,,,,,,,,,,,,,,,,,,385.0926593999993,385.1079826999994,385.5914791999994,385.59628709999924,385.6089661999995,389.34029909999936,,,,,389.3405125999998,389.35581809999985,389.5559502999995,389.5397460999993,385.6089661999995,,,,,,,,0,1,3.713638600000195,None,,,,,,,,897,23,M,L,2026-02-25_12h03.28.177,VisualSearch_2526_3,,2025.2.4,2026-02-25 12h03.28.371805 +0100,
vertical.xlsx,The target is tilted.,135,26,2,3,1,1,1,1,1,1,1,1,0,0,0,0,0,7,8,135,space,3.8713815999999497,None,1,1,0.6536882000000332,None,space,1.2658473000001322,None,0,1,1,1,,,,,3,2,26,1,389.5559502999995,,,,,,,,,,,,,,,,,,,,,389.5405075999997,389.5559502999995,390.03939919999993,390.04401659999985,390.0603386999992,390.7220275999998,,,,,390.72213959999954,390.73803659999976,390.93826399999944,390.9221983999996,390.0603386999992,,,,,,,,1,1,0.6536882000000332,None,,,,,,,,897,23,M,L,2026-02-25_12h03.28.177,VisualSearch_2526_3,,2025.2.4,2026-02-25 12h03.28.371805 +0100,
vertical.xlsx,The target is tilted.,135,27,3,3,0,1,1,1,0,0,0,0,0,0,0,0,1,3,4,135,space,3.8713815999999497,None,0,1,0.7437218999994002,None,space,1.2658473000001322,None,0,1,1,1,,,,,3,3,27,6,390.93826399999944,,,,,,,,,,,,,,,,,,,,,390.9229203999994,390.93826399999944,391.42194049999944,391.4266779999998,391.4427932999997,392.18805879999945,,,,,392.18819299999996,392.20416679999926,392.40422899999976,392.3883369999994,391.4427932999997,,,,,,,,0,1,0.7437218999994002,None,,,,,,,,897,23,M,L,2026-02-25_12h03.28.177,VisualSearch_2526_3,,2025.2.4,2026-02-25 12h03.28.371805 +0100,
vertical.xlsx,The target is tilted.,135,28,4,3,0,0,0,0,0,0,0,0,0,0,0,0,1,1,1,135,space,3.8713815999999497,None,0,1,0.42035959999975603,None,space,1.2658473000001322,None,0,1,1,1,,,,,3,4,28,7,392.40422899999976,,,,,,,,,,,,,,,,,,,,,392.38907949999975,392.40422899999976,392.88823559999946,392.8928317,392.90420059999997,393.33848919999946,,,,,393.3386630999994,393.3538050999996,393.55406869999933,393.53794149999976,392.90420059999997,,,,,,,,0,1,0.42035959999975603,None,,,,,,,,897,23,M,L,2026-02-25_12h03.28.177,VisualSearch_2526_3,,2025.2.4,2026-02-25 12h03.28.371805 +0100,
vertical.xlsx,The target is tilted.,135,29,5,3,1,1,1,1,1,1,1,1,1,1,1,1,0,11,12,135,space,3.8713815999999497,None,1,1,0.5497753999998167,None,space,1.2658473000001322,None,0,1,1,1,,,,,3,5,29,0,393.55406869999933,,,,,,,,,,,,,,,,,,,,,393.5387183999992,393.55406869999933,394.03775849999965,394.04238409999925,394.05691809999917,394.6206141999992,,,,,394.6206857999996,394.63670379999985,394.8368802999994,394.82067929999994,394.05691809999917,,,,,,,,1,1,0.5497753999998167,None,,,,,,,,897,23,M,L,2026-02-25_12h03.28.177,VisualSearch_2526_3,,2025.2.4,2026-02-25 12h03.28.371805 +0100,
vertical.xlsx,The target is tilted.,135,30,6,3,0,1,1,1,1,1,1,1,0,0,0,0,1,7,8,135,space,3.8713815999999497,None,0,1,1.7379209999999148,None,space,1.2658473000001322,None,0,1,1,1,,,,,3,6,30,5,394.8368802999994,,,,,,,,,,,,,,,,,,,,,394.82145579999997,394.8368802999994,395.3203423999994,395.32502809999914,395.33955999999944,397.08697699999993,,,,,397.0872324999991,397.10237419999976,397.3022624999994,397.2862052999999,395.33955999999944,,,,,,,,0,1,1.7379209999999148,None,,,,,,,,897,23,M,L,2026-02-25_12h03.28.177,VisualSearch_2526_3,,2025.2.4,2026-02-25 12h03.28.371805 +0100,
vertical.xlsx,The target is tilted.,135,31,7,3,1,0,0,0,0,0,0,0,0,0,0,0,0,0,1,135,space,3.8713815999999497,None,1,1,0.6127267000001666,None,space,1.2658473000001322,None,0,1,1,1,,,,,3,7,31,3,397.3022624999994,,,,,,,,,,,,,,,,,,,,,397.2869652999998,397.3022624999994,397.7860329999994,397.79078109999955,397.8061485999997,398.43531319999965,,,,,398.43541639999967,398.45136249999996,398.65127609999945,398.63494099999934,397.8061485999997,,,,,,,,1,1,0.6127267000001666,None,,,,,,,,897,23,M,L,2026-02-25_12h03.28.177,VisualSearch_2526_3,,2025.2.4,2026-02-25 12h03.28.371805 +0100,
vertical.xlsx,The target is tilted.,135,32,0,4,0,0,0,0,0,0,0,0,0,0,0,0,1,1,1,135,space,3.8713815999999497,None,0,1,0.5752130000000761,None,space,1.2658473000001322,None,0,1,1,1,,,,,4,0,32,7,398.65127609999945,,,,,,,,,,,,,,,,,,,,,398.6353689999996,398.65127609999945,399.1354303999997,399.14004529999966,399.1557092999992,399.7349113999999,,,,,399.7350076999992,399.75068809999993,399.9512128999995,399.9350212999998,399.1557092999992,,,,,,,,0,1,0.5752130000000761,None,,,,,,,,897,23,M,L,2026-02-25_12h03.28.177,VisualSearch_2526_3,,2025.2.4,2026-02-25 12h03.28.371805 +0100,
vertical.xlsx,The target is tilted.,135,33,1,4,0,1,1,1,1,1,1,1,0,0,0,0,1,7,8,135,space,3.8713815999999497,None,0,1,1.4529702999998335,None,space,1.2658473000001322,None,0,1,1,1,,,,,4,1,33,5,399.9512128999995,,,,,,,,,,,,,,,,,,,,,399.9358640999999,399.9512128999995,400.43480029999955,400.43948629999977,400.4554902,401.9181755999998,,,,,401.91839619999973,401.9335536999997,402.1334948999993,402.11736089999977,400.4554902,,,,,,,,0,1,1.4529702999998335,None,,,,,,,,897,23,M,L,2026-02-25_12h03.28.177,VisualSearch_2526_3,,2025.2.4,2026-02-25 12h03.28.371805 +0100,
