file_name,block_instructions,target_example,thisN,thisTrialN,thisRepN,target_presence,opacity_1,opacity_2,opacity_3,opacity_4,opacity_5,opacity_6,opacity_7,opacity_8,opacity_9,opacity_10,opacity_11,opacity_12,n_distract,n_items,target_ori,key_resp_4.keys,key_resp_4.rt,key_resp_4.duration,key_resp.keys,key_resp.corr,key_resp.rt,key_resp.duration,key_resp_5.keys,key_resp_5.rt,key_resp_5.duration,blocks.thisRepN,blocks.thisTrialN,blocks.thisN,blocks.thisIndex,practice_trials.thisRepN,practice_trials.thisTrialN,practice_trials.thisN,practice_trials.thisIndex,trials.thisRepN,trials.thisTrialN,trials.thisN,trials.thisIndex,thisRow.t,notes,Welcome.started,WelcomeText.started,key_resp_2.started,Welcome.stopped,key_resp_2.keys,key_resp_2.rt,key_resp_2.duration,InformedConsent.started,text_4.started,InformedConsent.stopped,key_resp_6.keys,key_resp_6.rt,key_resp_6.duration,key_resp_4.started,example_target.started,text_3.started,blocks.key_resp_4.keys,blocks.key_resp_4.rt,blocks.key_resp_4.duration,FixCross.started,fixCross.started,FixCross.stopped,Stimulus.started,key_resp.started,Stimulus.stopped,practice_trials.key_resp.keys,practice_trials.key_resp.corr,practice_trials.key_resp.rt,practice_trials.key_resp.duration,BlankScreen.started,text.started,text.stopped,BlankScreen.stopped,fixCross.stopped,ExperimentStart.started,text_2.started,key_resp_5.started,ExperimentStart.stopped,blocks.key_resp_5.keys,blocks.key_resp_5.rt,blocks.key_resp_5.duration,trials.key_resp.keys,trials.key_resp.corr,trials.key_resp.rt,trials.key_resp.duration,Thanks.started,ThankYou.started,key_resp_3.started,Thanks.stopped,key_resp_3.keys,key_resp_3.rt,key_resp_3.duration,participant,leeftijd,gender,links/rechtshandig,date,expName,expVersion,psychopyVersion,expStart,
,,,,,,,,,,,,,,,,,,,,,,,,,,,,,,,,,,,,,,,,,,,,,,0.027326299999913317,0.03849149999950896,0.03849149999950896,13.298516500000005,space,13.247781500000201,None,,,,,,,,,,,,,,,,,,,,,,,,,,,,,,,,,,,,,,,,,,,,,,899,20,M,R,2026-02-25_12h28.32.300,VisualSearch_2526_3,,2025.2.4,2026-02-25 12h28.32.504887 +0100,
,,,,,,,,,,,,,,,,,,,,,,,,,,,,,,,,,,,,,,,,,,,,,,,,,,,,,13.298570500000096,13.304078500000287,18.118623000000298,y,4.804610299999695,None,,,,,,,,,,,,,,,,,,,,,,,,,,,,,,,,,,,,,,,,899,20,M,R,2026-02-25_12h28.32.300,VisualSearch_2526_3,,2025.2.4,2026-02-25 12h28.32.504887 +0100,
tilted.xlsx,The target is tilted.,117,0,0,0,1,1,1,1,0,0,0,0,0,0,0,0,0,3,4,117,space,5.920727599999736,None,1,1,0.9680596999996851,None,,,,0,0,0,0,0,0,0,2,,,,,24.10900109999966,,,,,,,,,,,,,,,18.15669590000016,18.15669590000016,18.15669590000016,space,5.920727599999736,None,24.103966699999546,24.10900109999966,24.598017999999684,24.60282129999996,24.618556700000227,25.59834140000021,1,1,0.9680596999996851,None,25.598534499999914,25.61371440000039,25.813828100000137,25.797683699999652,,,,,,,,,,,,,,,,,,,,899,20,M,R,2026-02-25_12h28.32.300,VisualSearch_2526_3,,2025.2.4,2026-02-25 12h28.32.504887 +0100,
tilted.xlsx,The target is tilted.,117,1,1,0,0,0,0,0,0,0,0,0,0,0,0,0,1,1,1,117,space,5.920727599999736,None,0,1,0.6532368999996834,None,,,,0,0,0,0,0,1,1,7,,,,,25.813828100000137,,,,,,,,,,,,,,,,,,,,,25.798358000000007,25.813828100000137,26.297423799999706,26.30215799999951,26.317307399999663,26.980881899999986,0,1,0.6532368999996834,None,26.981059200000345,26.996451699999852,27.196518200000355,27.180307700000412,26.317307399999663,,,,,,,,,,,,,,,,,,,899,20,M,R,2026-02-25_12h28.32.300,VisualSearch_2526_3,,2025.2.4,2026-02-25 12h28.32.504887 +0100,
tilted.xlsx,The target is tilted.,117,2,2,0,1,1,1,1,1,1,1,1,1,1,1,1,0,11,12,117,space,5.920727599999736,None,1,1,1.31487720000041,None,,,,0,0,0,0,0,2,2,0,,,,,27.196518200000355,,,,,,,,,,,,,,,,,,,,,27.181003800000326,27.196518200000355,27.680051899999853,27.684712799999943,27.70082249999996,29.029002899999796,1,1,1.31487720000041,None,29.029136999999537,29.045108000000255,29.245611299999837,29.22935580000012,27.70082249999996,,,,,,,,,,,,,,,,,,,899,20,M,R,2026-02-25_12h28.32.300,VisualSearch_2526_3,,2025.2.4,2026-02-25 12h28.32.504887 +0100,
tilted.xlsx,The target is tilted.,117,3,3,0,0,1,1,1,1,1,1,1,1,1,1,1,1,11,12,117,space,5.920727599999736,None,0,1,3.23818940000001,None,,,,0,0,0,0,0,3,3,4,,,,,29.245611299999837,,,,,,,,,,,,,,,,,,,,,29.230034199999864,29.245611299999837,29.728781200000412,29.733387799999946,29.745421599999645,32.99462299999959,0,1,3.23818940000001,None,32.994830399999955,33.01000959999965,33.21040280000034,33.19421559999955,29.745421599999645,,,,,,,,,,,,,,,,,,,899,20,M,R,2026-02-25_12h28.32.300,VisualSearch_2526_3,,2025.2.4,2026-02-25 12h28.32.504887 +0100,
tilted.xlsx,The target is tilted.,117,4,4,0,0,1,1,1,0,0,0,0,0,0,0,0,1,3,4,117,space,5.920727599999736,None,0,1,1.0817549000003055,None,,,,0,0,0,0,0,4,4,6,,,,,33.21040280000034,,,,,,,,,,,,,,,,,,,,,33.194945299999745,33.21040280000034,33.69407030000002,33.69874710000022,33.71449889999985,34.80966739999985,0,1,1.0817549000003055,None,34.809789799999635,34.82623559999956,35.026466499999515,35.01005520000035,33.71449889999985,,,,,,,,,,,,,,,,,,,899,20,M,R,2026-02-25_12h28.32.300,VisualSearch_2526_3,,2025.2.4,2026-02-25 12h28.32.504887 +0100,
tilted.xlsx,The target is tilted.,117,5,5,0,1,0,0,0,0,0,0,0,0,0,0,0,0,0,1,117,space,5.920727599999736,None,1,1,0.8176486000002114,None,,,,0,0,0,0,0,5,5,3,,,,,35.026466499999515,,,,,,,,,,,,,,,,,,,,,35.01074609999978,35.026466499999515,35.509829999999965,35.514686299999994,35.5298057,36.35986750000029,1,1,0.8176486000002114,None,36.36012380000011,36.375132699999995,36.57560910000029,36.55936610000026,35.5298057,,,,,,,,,,,,,,,,,,,899,20,M,R,2026-02-25_12h28.32.300,VisualSearch_2526_3,,2025.2.4,2026-02-25 12h28.32.504887 +0100,
tilted.xlsx,The target is tilted.,117,6,6,0,0,1,1,1,1,1,1,1,0,0,0,0,1,7,8,117,space,5.920727599999736,None,0,1,2.258596199999374,None,,,,0,0,0,0,0,6,6,5,,,,,36.57560910000029,,,,,,,,,,,,,,,,,,,,,36.56003839999994,36.57560910000029,37.0588459999999,37.063524099999995,37.079059900000175,39.34136039999976,0,1,2.258596199999374,None,39.34151819999988,39.35710889999973,39.55760290000035,39.541417000000365,37.079059900000175,,,,,,,,,,,,,,,,,,,899,20,M,R,2026-02-25_12h28.32.300,VisualSearch_2526_3,,2025.2.4,2026-02-25 12h28.32.504887 +0100,
tilted.xlsx,The target is tilted.,117,7,7,0,1,1,1,1,1,1,1,1,0,0,0,0,0,7,8,117,space,5.920727599999736,None,0,0,2.509931300000062,None,,,,0,0,0,0,0,7,7,1,,,,,39.55760290000035,,,,,,,,,,,,,,,,,,,,,39.54212989999996,39.55760290000035,40.04114289999961,40.045945500000016,40.06110590000026,42.57376750000003,0,0,2.509931300000062,None,42.57394139999997,42.588938300000336,42.78891719999956,42.77331849999973,40.06110590000026,,,,,,,,,,,,,,,,,,,899,20,M,R,2026-02-25_12h28.32.300,VisualSearch_2526_3,,2025.2.4,2026-02-25 12h28.32.504887 +0100,
tilted.xlsx,The target is tilted.,117,0,0,0,0,1,1,1,1,1,1,1,1,1,1,1,1,11,12,117,space,5.920727599999736,None,0,1,2.957859200000712,None,space,5.067235999999866,None,0,0,0,0,,,,,0,0,0,4,47.89005879999968,,,,,,,,,,,,,,,,,,,,,47.886647999999695,47.89005879999968,48.387145200000305,48.391885,48.407082300000184,51.369830900000125,,,,,51.37003879999975,51.38493449999987,51.58540110000013,51.569115399999646,,42.78087169999981,42.78891719999956,42.78891719999956,47.87129989999994,space,5.067235999999866,None,0,1,2.957859200000712,None,,,,,,,,899,20,M,R,2026-02-25_12h28.32.300,VisualSearch_2526_3,,2025.2.4,2026-02-25 12h28.32.504887 +0100,
tilted.xlsx,The target is tilted.,117,1,1,0,1,1,1,1,0,0,0,0,0,0,0,0,0,3,4,117,space,5.920727599999736,None,1,1,0.8147516999997606,None,space,5.067235999999866,None,0,0,0,0,,,,,0,1,1,2,51.58540110000013,,,,,,,,,,,,,,,,,,,,,51.56994759999998,51.58540110000013,52.06906919999983,52.07393549999961,52.0889360000001,52.91866159999972,,,,,52.918886100000236,52.93429110000034,53.13467419999961,53.11819680000008,52.0889360000001,,,,,,,,1,1,0.8147516999997606,None,,,,,,,,899,20,M,R,2026-02-25_12h28.32.300,VisualSearch_2526_3,,2025.2.4,2026-02-25 12h28.32.504887 +0100,
tilted.xlsx,The target is tilted.,117,2,2,0,0,1,1,1,0,0,0,0,0,0,0,0,1,3,4,117,space,5.920727599999736,None,0,1,0.9420920000002297,None,space,5.067235999999866,None,0,0,0,0,,,,,0,2,2,6,53.13467419999961,,,,,,,,,,,,,,,,,,,,,53.11902579999969,53.13467419999961,53.61841980000008,53.62314020000031,53.63840849999997,54.58404489999975,,,,,54.584130500000356,54.59996239999964,54.80008420000013,54.78444579999996,53.63840849999997,,,,,,,,0,1,0.9420920000002297,None,,,,,,,,899,20,M,R,2026-02-25_12h28.32.300,VisualSearch_2526_3,,2025.2.4,2026-02-25 12h28.32.504887 +0100,
tilted.xlsx,The target is tilted.,117,3,3,0,1,1,1,1,1,1,1,1,0,0,0,0,0,7,8,117,space,5.920727599999736,None,1,1,1.2785389999999097,None,space,5.067235999999866,None,0,0,0,0,,,,,0,3,3,1,54.80008420000013,,,,,,,,,,,,,,,,,,,,,54.785227000000305,54.80008420000013,55.28419159999976,55.288844900000186,55.3003090000002,56.58404189999965,,,,,56.584222299999965,56.59932159999971,56.799700599999596,56.78341569999975,55.3003090000002,,,,,,,,1,1,1.2785389999999097,None,,,,,,,,899,20,M,R,2026-02-25_12h28.32.300,VisualSearch_2526_3,,2025.2.4,2026-02-25 12h28.32.504887 +0100,
tilted.xlsx,The target is tilted.,117,4,4,0,0,1,1,1,1,1,1,1,0,0,0,0,1,7,8,117,space,5.920727599999736,None,0,1,1.9088731000001644,None,space,5.067235999999866,None,0,0,0,0,,,,,0,4,4,5,56.799700599999596,,,,,,,,,,,,,,,,,,,,,56.784257199999956,56.799700599999596,57.28314599999976,57.287815699999555,57.30250520000027,59.21562230000018,,,,,59.215761499999644,59.2314250999998,59.4319131000002,59.41574550000041,57.30250520000027,,,,,,,,0,1,1.9088731000001644,None,,,,,,,,899,20,M,R,2026-02-25_12h28.32.300,VisualSearch_2526_3,,2025.2.4,2026-02-25 12h28.32.504887 +0100,
tilted.xlsx,The target is tilted.,117,5,5,0,0,0,0,0,0,0,0,0,0,0,0,0,1,1,1,117,space,5.920727599999736,None,0,1,0.6597913000005065,None,space,5.067235999999866,None,0,0,0,0,,,,,0,5,5,7,59.4319131000002,,,,,,,,,,,,,,,,,,,,,59.41648350000014,59.4319131000002,59.9154295999997,59.92015110000011,59.93612899999971,60.59915160000037,,,,,60.59936430000016,60.61416129999998,60.81459590000031,60.79833359999975,59.93612899999971,,,,,,,,0,1,0.6597913000005065,None,,,,,,,,899,20,M,R,2026-02-25_12h28.32.300,VisualSearch_2526_3,,2025.2.4,2026-02-25 12h28.32.504887 +0100,
tilted.xlsx,The target is tilted.,117,6,6,0,1,0,0,0,0,0,0,0,0,0,0,0,0,0,1,117,space,5.920727599999736,None,1,1,0.5923456000000442,None,space,5.067235999999866,None,0,0,0,0,,,,,0,6,6,3,60.81459590000031,,,,,,,,,,,,,,,,,,,,,60.79908390000037,60.81459590000031,61.298359499999606,61.30302010000014,61.31819309999992,61.914923199999976,,,,,61.91514780000034,61.930177600000206,62.13054860000011,62.114440999999715,61.31819309999992,,,,,,,,1,1,0.5923456000000442,None,,,,,,,,899,20,M,R,2026-02-25_12h28.32.300,VisualSearch_2526_3,,2025.2.4,2026-02-25 12h28.32.504887 +0100,
tilted.xlsx,The target is tilted.,117,7,7,0,1,1,1,1,1,1,1,1,1,1,1,1,0,11,12,117,space,5.920727599999736,None,1,1,2.0100178000002416,None,space,5.067235999999866,None,0,0,0,0,,,,,0,7,7,0,62.13054860000011,,,,,,,,,,,,,,,,,,,,,62.1152404000004,62.13054860000011,62.61427980000008,62.61895939999977,62.63526639999964,64.64717990000008,,,,,64.64737830000013,64.66225680000025,64.86274950000006,64.84658779999972,62.63526639999964,,,,,,,,1,1,2.0100178000002416,None,,,,,,,,899,20,M,R,2026-02-25_12h28.32.300,VisualSearch_2526_3,,2025.2.4,2026-02-25 12h28.32.504887 +0100,
tilted.xlsx,The target is tilted.,117,8,0,1,1,1,1,1,0,0,0,0,0,0,0,0,0,3,4,117,space,5.920727599999736,None,1,1,1.3763499999995474,None,space,5.067235999999866,None,0,0,0,0,,,,,1,0,8,2,64.86274950000006,,,,,,,,,,,,,,,,,,,,,64.84733039999992,64.86274950000006,65.3464143000001,65.35111289999986,65.36689569999999,66.74644360000002,,,,,66.74665579999964,66.76135739999972,66.96175719999974,66.9455979000004,65.36689569999999,,,,,,,,1,1,1.3763499999995474,None,,,,,,,,899,20,M,R,2026-02-25_12h28.32.300,VisualSearch_2526_3,,2025.2.4,2026-02-25 12h28.32.504887 +0100,
tilted.xlsx,The target is tilted.,117,9,1,1,0,1,1,1,1,1,1,1,1,1,1,1,1,11,12,117,space,5.920727599999736,None,0,1,2.5768347000002905,None,space,5.067235999999866,None,0,0,0,0,,,,,1,1,9,4,66.96175719999974,,,,,,,,,,,,,,,,,,,,,66.94636269999955,66.96175719999974,67.44537909999963,67.45013719999952,67.4662973000004,70.04437810000036,,,,,70.04456200000004,70.05982409999979,70.26029719999951,70.24412120000034,67.4662973000004,,,,,,,,0,1,2.5768347000002905,None,,,,,,,,899,20,M,R,2026-02-25_12h28.32.300,VisualSearch_2526_3,,2025.2.4,2026-02-25 12h28.32.504887 +0100,
tilted.xlsx,The target is tilted.,117,10,2,1,1,1,1,1,1,1,1,1,0,0,0,0,0,7,8,117,space,5.920727599999736,None,1,1,0.8661563000005117,None,space,5.067235999999866,None,0,0,0,0,,,,,1,2,10,1,70.26029719999951,,,,,,,,,,,,,,,,,,,,,70.24490799999967,70.26029719999951,70.7439161000002,70.74857549999979,70.76395450000018,71.6436391999996,,,,,71.64376799999991,71.65906949999953,71.85941019999973,71.8434328000003,70.76395450000018,,,,,,,,1,1,0.8661563000005117,None,,,,,,,,899,20,M,R,2026-02-25_12h28.32.300,VisualSearch_2526_3,,2025.2.4,2026-02-25 12h28.32.504887 +0100,
tilted.xlsx,The target is tilted.,117,11,3,1,0,0,0,0,0,0,0,0,0,0,0,0,1,1,1,117,space,5.920727599999736,None,0,1,0.5986923999998908,None,space,5.067235999999866,None,0,0,0,0,,,,,1,3,11,7,71.85941019999973,,,,,,,,,,,,,,,,,,,,,71.84423249999963,71.85941019999973,72.34280419999959,72.34744839999985,72.36287389999961,72.9762238000003,,,,,72.97643049999988,72.9918588999999,73.1921567999998,73.17620660000011,72.36287389999961,,,,,,,,0,1,0.5986923999998908,None,,,,,,,,899,20,M,R,2026-02-25_12h28.32.300,VisualSearch_2526_3,,2025.2.4,2026-02-25 12h28.32.504887 +0100,
tilted.xlsx,The target is tilted.,117,12,4,1,0,1,1,1,1,1,1,1,0,0,0,0,1,7,8,117,space,5.920727599999736,None,0,1,2.5436712999999145,None,space,5.067235999999866,None,0,0,0,0,,,,,1,4,12,5,73.1921567999998,,,,,,,,,,,,,,,,,,,,,73.17695670000012,73.1921567999998,73.67591019999963,73.68058070000006,73.69610600000033,76.24194989999978,,,,,76.24215840000033,76.25698939999984,76.45737329999974,76.44096230000014,73.69610600000033,,,,,,,,0,1,2.5436712999999145,None,,,,,,,,899,20,M,R,2026-02-25_12h28.32.300,VisualSearch_2526_3,,2025.2.4,2026-02-25 12h28.32.504887 +0100,
tilted.xlsx,The target is tilted.,117,13,5,1,1,1,1,1,1,1,1,1,1,1,1,1,0,11,12,117,space,5.920727599999736,None,1,1,1.1995109999998022,None,space,5.067235999999866,None,0,0,0,0,,,,,1,5,13,0,76.45737329999974,,,,,,,,,,,,,,,,,,,,,76.44171920000008,76.45737329999974,76.94104100000004,76.94586619999973,76.95947369999976,78.17373750000024,,,,,78.17393710000033,78.18941189999987,78.38988150000023,78.37333310000031,76.95947369999976,,,,,,,,1,1,1.1995109999998022,None,,,,,,,,899,20,M,R,2026-02-25_12h28.32.300,VisualSearch_2526_3,,2025.2.4,2026-02-25 12h28.32.504887 +0100,
tilted.xlsx,The target is tilted.,117,14,6,1,0,1,1,1,0,0,0,0,0,0,0,0,1,3,4,117,space,5.920727599999736,None,0,1,1.0808307000006607,None,space,5.067235999999866,None,0,0,0,0,,,,,1,6,14,6,78.38988150000023,,,,,,,,,,,,,,,,,,,,,78.37408789999972,78.38988150000023,78.87348999999995,78.87801810000019,78.88954889999968,79.9737468000003,,,,,79.9739669999999,79.98864020000019,80.18871279999985,80.17286539999986,78.88954889999968,,,,,,,,0,1,1.0808307000006607,None,,,,,,,,899,20,M,R,2026-02-25_12h28.32.300,VisualSearch_2526_3,,2025.2.4,2026-02-25 12h28.32.504887 +0100,
tilted.xlsx,The target is tilted.,117,15,7,1,1,0,0,0,0,0,0,0,0,0,0,0,0,0,1,117,space,5.920727599999736,None,1,1,0.5749922000004517,None,space,5.067235999999866,None,0,0,0,0,,,,,1,7,15,3,80.18871279999985,,,,,,,,,,,,,,,,,,,,,80.17360850000023,80.18871279999985,80.67266719999952,80.67742089999956,80.69049369999993,81.27299149999999,,,,,81.27319199999965,81.2880384,81.48809650000021,81.47237529999984,80.69049369999993,,,,,,,,1,1,0.5749922000004517,None,,,,,,,,899,20,M,R,2026-02-25_12h28.32.300,VisualSearch_2526_3,,2025.2.4,2026-02-25 12h28.32.504887 +0100,
tilted.xlsx,The target is tilted.,117,16,0,2,0,1,1,1,1,1,1,1,0,0,0,0,1,7,8,117,space,5.920727599999736,None,0,1,1.945721500000218,None,space,5.067235999999866,None,0,0,0,0,,,,,2,0,16,5,81.48809650000021,,,,,,,,,,,,,,,,,,,,,81.47317920000023,81.48809650000021,81.9721112999996,81.97686319999957,81.99258480000026,83.9536833000002,,,,,83.95380060000025,83.97046529999989,,84.15423120000014,81.99258480000026,,,,,,,,0,1,1.945721500000218,None,,,,,,,,899,20,M,R,2026-02-25_12h28.32.300,VisualSearch_2526_3,,2025.2.4,2026-02-25 12h28.32.504887 +0100,
tilted.xlsx,The target is tilted.,117,17,1,2,0,1,1,1,1,1,1,1,1,1,1,1,1,11,12,117,space,5.920727599999736,None,0,1,2.4559073000000353,None,space,5.067235999999866,None,0,0,0,0,,,,,2,1,17,4,84.17059909999989,,,,,,,,,,,,,,,,,,,,,84.15502529999958,84.17059909999989,84.65407890000006,84.6589057000001,84.67355640000005,87.13673709999966,,,,,87.13690190000034,87.15204509999967,87.35251599999992,87.33639359999961,,,,,,,,,0,1,2.4559073000000353,None,,,,,,,,899,20,M,R,2026-02-25_12h28.32.300,VisualSearch_2526_3,,2025.2.4,2026-02-25 12h28.32.504887 +0100,
tilted.xlsx,The target is tilted.,117,18,2,2,1,1,1,1,1,1,1,1,0,0,0,0,0,7,8,117,space,5.920727599999736,None,1,1,0.8720165000004272,None,space,5.067235999999866,None,0,0,0,0,,,,,2,2,18,1,87.35251599999992,,,,,,,,,,,,,,,,,,,,,87.33712730000025,87.35251599999992,87.83610829999998,87.8407473999996,87.85654969999996,88.73619359999975,,,,,88.73639040000035,88.75127040000007,88.95179290000033,88.93564100000003,87.85654969999996,,,,,,,,1,1,0.8720165000004272,None,,,,,,,,899,20,M,R,2026-02-25_12h28.32.300,VisualSearch_2526_3,,2025.2.4,2026-02-25 12h28.32.504887 +0100,
tilted.xlsx,The target is tilted.,117,19,3,2,0,1,1,1,0,0,0,0,0,0,0,0,1,3,4,117,space,5.920727599999736,None,0,1,0.6766832000002978,None,space,5.067235999999866,None,0,0,0,0,,,,,2,3,19,6,88.95179290000033,,,,,,,,,,,,,,,,,,,,,88.93638670000018,88.95179290000033,89.4354143999999,89.44018080000023,89.45533129999967,90.13522050000029,,,,,90.1354037000001,90.15064299999995,90.35113199999978,90.33495419999963,89.45533129999967,,,,,,,,0,1,0.6766832000002978,None,,,,,,,,899,20,M,R,2026-02-25_12h28.32.300,VisualSearch_2526_3,,2025.2.4,2026-02-25 12h28.32.504887 +0100,
tilted.xlsx,The target is tilted.,117,20,4,2,0,0,0,0,0,0,0,0,0,0,0,0,1,1,1,117,space,5.920727599999736,None,0,1,0.7196979999998803,None,space,5.067235999999866,None,0,0,0,0,,,,,2,4,20,7,90.35113199999978,,,,,,,,,,,,,,,,,,,,,90.33573679999972,90.35113199999978,90.83485259999998,90.83948710000004,90.8507281000002,91.58428800000002,,,,,91.58453819999977,91.60005319999982,91.80036889999974,91.7843812000001,90.8507281000002,,,,,,,,0,1,0.7196979999998803,None,,,,,,,,899,20,M,R,2026-02-25_12h28.32.300,VisualSearch_2526_3,,2025.2.4,2026-02-25 12h28.32.504887 +0100,
tilted.xlsx,The target is tilted.,117,21,5,2,1,1,1,1,1,1,1,1,1,1,1,1,0,11,12,117,space,5.920727599999736,None,0,0,2.7594912000004115,None,space,5.067235999999866,None,0,0,0,0,,,,,2,5,21,0,91.80036889999974,,,,,,,,,,,,,,,,,,,,,91.78512609999962,91.80036889999974,92.28418859999965,92.2887281000003,92.30012009999973,95.06682089999958,,,,,95.06702159999986,95.08157300000039,95.28214779999962,95.26591540000027,92.30012009999973,,,,,,,,0,0,2.7594912000004115,None,,,,,,,,899,20,M,R,2026-02-25_12h28.32.300,VisualSearch_2526_3,,2025.2.4,2026-02-25 12h28.32.504887 +0100,
tilted.xlsx,The target is tilted.,117,22,6,2,1,1,1,1,0,0,0,0,0,0,0,0,0,3,4,117,space,5.920727599999736,None,1,1,1.0106888999998773,None,space,5.067235999999866,None,0,0,0,0,,,,,2,6,22,2,95.28214779999962,,,,,,,,,,,,,,,,,,,,,95.26664359999995,95.28214779999962,95.76556600000004,95.77026279999973,95.78537640000013,96.79810809999981,,,,,96.79819419999967,96.81407779999972,97.01470530000006,96.99833169999965,95.78537640000013,,,,,,,,1,1,1.0106888999998773,None,,,,,,,,899,20,M,R,2026-02-25_12h28.32.300,VisualSearch_2526_3,,2025.2.4,2026-02-25 12h28.32.504887 +0100,
tilted.xlsx,The target is tilted.,117,23,7,2,1,0,0,0,0,0,0,0,0,0,0,0,0,0,1,117,space,5.920727599999736,None,1,1,0.554653899999721,None,space,5.067235999999866,None,0,0,0,0,,,,,2,7,23,3,97.01470530000006,,,,,,,,,,,,,,,,,,,,,96.99908189999951,97.01470530000006,97.49829479999971,97.50299199999972,97.51788269999997,98.08191460000035,,,,,98.08212459999959,98.09704630000033,98.29754609999964,98.2813597000004,97.51788269999997,,,,,,,,1,1,0.554653899999721,None,,,,,,,,899,20,M,R,2026-02-25_12h28.32.300,VisualSearch_2526_3,,2025.2.4,2026-02-25 12h28.32.504887 +0100,
tilted.xlsx,The target is tilted.,117,24,0,3,1,0,0,0,0,0,0,0,0,0,0,0,0,0,1,117,space,5.920727599999736,None,1,1,0.4233016999996835,None,space,5.067235999999866,None,0,0,0,0,,,,,3,0,24,3,98.29754609999964,,,,,,,,,,,,,,,,,,,,,98.28214329999992,98.29754609999964,98.78107829999954,98.78592440000011,98.80133990000013,99.2309336999997,,,,,99.23110050000014,99.24653690000014,99.4466567999998,99.43051370000012,98.80133990000013,,,,,,,,1,1,0.4233016999996835,None,,,,,,,,899,20,M,R,2026-02-25_12h28.32.300,VisualSearch_2526_3,,2025.2.4,2026-02-25 12h28.32.504887 +0100,
tilted.xlsx,The target is tilted.,117,25,1,3,1,1,1,1,1,1,1,1,0,0,0,0,0,7,8,117,space,5.920727599999736,None,1,1,1.0402614000004178,None,space,5.067235999999866,None,0,0,0,0,,,,,3,1,25,1,99.4466567999998,,,,,,,,,,,,,,,,,,,,,99.43130110000038,99.4466567999998,99.93062370000007,99.93542390000039,99.95195200000035,100.99716249999983,,,,,100.9973613000002,101.01242490000004,101.21282749999955,101.19675840000036,99.95195200000035,,,,,,,,1,1,1.0402614000004178,None,,,,,,,,899,20,M,R,2026-02-25_12h28.32.300,VisualSearch_2526_3,,2025.2.4,2026-02-25 12h28.32.504887 +0100,
tilted.xlsx,The target is tilted.,117,26,2,3,0,0,0,0,0,0,0,0,0,0,0,0,1,1,1,117,space,5.920727599999736,None,0,1,0.5518237000005684,None,space,5.067235999999866,None,0,0,0,0,,,,,3,2,26,7,101.21282749999955,,,,,,,,,,,,,,,,,,,,,101.19752210000024,101.21282749999955,101.6962225999996,101.70088029999988,101.71677550000004,102.2801416000002,,,,,102.28035720000025,102.29518989999997,102.49566390000018,102.47930799999995,101.71677550000004,,,,,,,,0,1,0.5518237000005684,None,,,,,,,,899,20,M,R,2026-02-25_12h28.32.300,VisualSearch_2526_3,,2025.2.4,2026-02-25 12h28.32.504887 +0100,
tilted.xlsx,The target is tilted.,117,27,3,3,1,1,1,1,1,1,1,1,1,1,1,1,0,11,12,117,space,5.920727599999736,None,1,1,1.9709351000001334,None,space,5.067235999999866,None,0,0,0,0,,,,,3,3,27,0,102.49566390000018,,,,,,,,,,,,,,,,,,,,,102.48007979999966,102.49566390000018,102.97908459999962,102.98385140000028,102.99872529999993,104.97865160000038,,,,,104.97884989999966,104.99389929999961,105.19427009999981,105.1783961000001,102.99872529999993,,,,,,,,1,1,1.9709351000001334,None,,,,,,,,899,20,M,R,2026-02-25_12h28.32.300,VisualSearch_2526_3,,2025.2.4,2026-02-25 12h28.32.504887 +0100,
tilted.xlsx,The target is tilted.,117,28,4,3,0,1,1,1,1,1,1,1,1,1,1,1,1,11,12,117,space,5.920727599999736,None,0,1,2.643340200000239,None,space,5.067235999999866,None,0,0,0,0,,,,,3,4,28,4,105.19427009999981,,,,,,,,,,,,,,,,,,,,,105.17923549999978,105.19427009999981,105.67807720000019,105.68286410000019,105.69798859999992,108.34409549999964,,,,,108.34429540000019,108.35902669999996,108.55947629999991,108.54329820000021,105.69798859999992,,,,,,,,0,1,2.643340200000239,None,,,,,,,,899,20,M,R,2026-02-25_12h28.32.300,VisualSearch_2526_3,,2025.2.4,2026-02-25 12h28.32.504887 +0100,
tilted.xlsx,The target is tilted.,117,29,5,3,0,1,1,1,1,1,1,1,0,0,0,0,1,7,8,117,space,5.920727599999736,None,0,1,1.3572290000001885,None,space,5.067235999999866,None,0,0,0,0,,,,,3,5,29,5,108.55947629999991,,,,,,,,,,,,,,,,,,,,,108.54407309999988,108.55947629999991,109.04324240000005,109.04806579999968,109.06315730000006,110.42622709999978,,,,,110.42642599999999,110.44146720000026,110.6417921000002,110.62554240000009,109.06315730000006,,,,,,,,0,1,1.3572290000001885,None,,,,,,,,899,20,M,R,2026-02-25_12h28.32.300,VisualSearch_2526_3,,2025.2.4,2026-02-25 12h28.32.504887 +0100,
tilted.xlsx,The target is tilted.,117,30,6,3,0,1,1,1,0,0,0,0,0,0,0,0,1,3,4,117,space,5.920727599999736,None,0,1,0.8710846000003585,None,space,5.067235999999866,None,0,0,0,0,,,,,3,6,30,6,110.6417921000002,,,,,,,,,,,,,,,,,,,,,110.62627580000026,110.6417921000002,111.12559440000041,111.1299853999999,111.14441629999965,112.02534649999961,,,,,112.0255404999998,112.04081059999953,112.24114499999996,112.22499619999962,111.14441629999965,,,,,,,,0,1,0.8710846000003585,None,,,,,,,,899,20,M,R,2026-02-25_12h28.32.300,VisualSearch_2526_3,,2025.2.4,2026-02-25 12h28.32.504887 +0100,
tilted.xlsx,The target is tilted.,117,31,7,3,1,1,1,1,0,0,0,0,0,0,0,0,0,3,4,117,space,5.920727599999736,None,1,1,0.7583134000005884,None,space,5.067235999999866,None,0,0,0,0,,,,,3,7,31,2,112.24114499999996,,,,,,,,,,,,,,,,,,,,,112.22584749999987,112.24114499999996,112.72477290000006,112.72920669999985,112.7407960999999,113.50835009999992,,,,,113.50854799999979,113.52341499999966,113.72397329999967,113.70772729999953,112.7407960999999,,,,,,,,1,1,0.7583134000005884,None,,,,,,,,899,20,M,R,2026-02-25_12h28.32.300,VisualSearch_2526_3,,2025.2.4,2026-02-25 12h28.32.504887 +0100,
tilted.xlsx,The target is tilted.,117,32,0,4,1,0,0,0,0,0,0,0,0,0,0,0,0,0,1,117,space,5.920727599999736,None,1,1,0.4470006999999896,None,space,5.067235999999866,None,0,0,0,0,,,,,4,0,32,3,113.72397329999967,,,,,,,,,,,,,,,,,,,,,113.70848649999971,113.72397329999967,114.20750549999957,114.2122032999996,114.2273194999998,114.68971150000016,,,,,114.68983490000028,114.7061421999997,,114.89005670000006,114.2273194999998,,,,,,,,1,1,0.4470006999999896,None,,,,,,,,899,20,M,R,2026-02-25_12h28.32.300,VisualSearch_2526_3,,2025.2.4,2026-02-25 12h28.32.504887 +0100,
tilted.xlsx,The target is tilted.,117,33,1,4,0,1,1,1,1,1,1,1,1,1,1,1,1,11,12,117,space,5.920727599999736,None,0,1,1.9841245999996318,None,space,5.067235999999866,None,0,0,0,0,,,,,4,1,33,4,114.9065270000001,,,,,,,,,,,,,,,,,,,,,114.89090659999965,114.9065270000001,115.39000430000033,115.3948018000001,115.40996259999974,117.40634729999965,,,,,117.40652659999978,117.42159890000039,117.62203990000035,117.60587430000032,,,,,,,,,0,1,1.9841245999996318,None,,,,,,,,899,20,M,R,2026-02-25_12h28.32.300,VisualSearch_2526_3,,2025.2.4,2026-02-25 12h28.32.504887 +0100,
tilted.xlsx,The target is tilted.,117,34,2,4,0,1,1,1,0,0,0,0,0,0,0,0,1,3,4,117,space,5.920727599999736,None,0,1,0.7595633000000817,None,space,5.067235999999866,None,0,0,0,0,,,,,4,2,34,6,117.62203990000035,,,,,,,,,,,,,,,,,,,,,117.60664540000016,117.62203990000035,118.10572609999963,118.11035489999995,118.12548849999985,118.8889210999996,,,,,118.88913520000006,118.90428249999968,119.10432860000037,119.0884374999996,118.12548849999985,,,,,,,,0,1,0.7595633000000817,None,,,,,,,,899,20,M,R,2026-02-25_12h28.32.300,VisualSearch_2526_3,,2025.2.4,2026-02-25 12h28.32.504887 +0100,
tilted.xlsx,The target is tilted.,117,35,3,4,1,1,1,1,1,1,1,1,0,0,0,0,0,7,8,117,space,5.920727599999736,None,0,0,1.407532700000047,None,space,5.067235999999866,None,0,0,0,0,,,,,4,3,35,1,119.10432860000037,,,,,,,,,,,,,,,,,,,,,119.08921149999969,119.10432860000037,119.58831180000016,119.59301479999976,119.60618720000002,121.02164100000027,,,,,121.0218402999999,121.0366385999996,121.23684159999993,121.2207957999999,119.60618720000002,,,,,,,,0,0,1.407532700000047,None,,,,,,,,899,20,M,R,2026-02-25_12h28.32.300,VisualSearch_2526_3,,2025.2.4,2026-02-25 12h28.32.504887 +0100,
tilted.xlsx,The target is tilted.,117,36,4,4,0,0,0,0,0,0,0,0,0,0,0,0,1,1,1,117,space,5.920727599999736,None,0,1,0.48209640000004583,None,space,5.067235999999866,None,0,0,0,0,,,,,4,4,36,7,121.23684159999993,,,,,,,,,,,,,,,,,,,,,121.22160160000021,121.23684159999993,121.72071059999962,121.72542290000001,121.74188349999986,122.2370719999999,,,,,122.23727750000035,122.25278400000025,122.45316559999992,122.43691949999993,121.74188349999986,,,,,,,,0,1,0.48209640000004583,None,,,,,,,,899,20,M,R,2026-02-25_12h28.32.300,VisualSearch_2526_3,,2025.2.4,2026-02-25 12h28.32.504887 +0100,
tilted.xlsx,The target is tilted.,117,37,5,4,1,1,1,1,0,0,0,0,0,0,0,0,0,3,4,117,space,5.920727599999736,None,0,0,0.9034631000004083,None,space,5.067235999999866,None,0,0,0,0,,,,,4,5,37,2,122.45316559999992,,,,,,,,,,,,,,,,,,,,,122.43766570000025,122.45316559999992,122.93665659999988,122.94130450000011,122.9564147000001,123.8702661999996,,,,,123.8705530999996,123.88536469999963,124.0854545000002,124.06960530000015,122.9564147000001,,,,,,,,0,0,0.9034631000004083,None,,,,,,,,899,20,M,R,2026-02-25_12h28.32.300,VisualSearch_2526_3,,2025.2.4,2026-02-25 12h28.32.504887 +0100,
tilted.xlsx,The target is tilted.,117,38,6,4,1,1,1,1,1,1,1,1,1,1,1,1,0,11,12,117,space,5.920727599999736,None,0,0,2.3934444000005897,None,space,5.067235999999866,None,0,0,0,0,,,,,4,6,38,0,124.0854545000002,,,,,,,,,,,,,,,,,,,,,124.07038019999982,124.0854545000002,124.56936640000004,124.57390610000039,124.5854546999999,126.98561940000036,,,,,126.98582100000021,127.00027229999978,127.20101840000007,127.18484780000017,124.5854546999999,,,,,,,,0,0,2.3934444000005897,None,,,,,,,,899,20,M,R,2026-02-25_12h28.32.300,VisualSearch_2526_3,,2025.2.4,2026-02-25 12h28.32.504887 +0100,
tilted.xlsx,The target is tilted.,117,39,7,4,0,1,1,1,1,1,1,1,0,0,0,0,1,7,8,117,space,5.920727599999736,None,0,1,2.22086119999949,None,space,5.067235999999866,None,0,0,0,0,,,,,4,7,39,5,127.20101840000007,,,,,,,,,,,,,,,,,,,,,127.18559989999994,127.20101840000007,127.68443039999966,127.68744539999989,127.70028000000002,129.93397249999998,,,,,129.93413489999966,129.9492153000001,130.14967520000027,130.13318040000013,127.70028000000002,,,,,,,,0,1,2.22086119999949,None,,,,,,,,899,20,M,R,2026-02-25_12h28.32.300,VisualSearch_2526_3,,2025.2.4,2026-02-25 12h28.32.504887 +0100,
tilted.xlsx,The target is tilted.,117,40,0,5,0,1,1,1,1,1,1,1,0,0,0,0,1,7,8,117,space,5.920727599999736,None,0,1,2.7609911999998076,None,space,5.067235999999866,None,0,0,0,0,,,,,5,0,40,5,130.14967520000027,,,,,,,,,,,,,,,,,,,,,130.13391880000017,130.14967520000027,130.63330119999955,130.63808530000006,130.6527683000004,133.41603039999973,,,,,133.4162411999996,133.43103549999978,133.63141749999977,133.61544549999962,130.6527683000004,,,,,,,,0,1,2.7609911999998076,None,,,,,,,,899,20,M,R,2026-02-25_12h28.32.300,VisualSearch_2526_3,,2025.2.4,2026-02-25 12h28.32.504887 +0100,
tilted.xlsx,The target is tilted.,117,41,1,5,0,1,1,1,0,0,0,0,0,0,0,0,1,3,4,117,space,5.920727599999736,None,0,1,1.0558825000007346,None,space,5.067235999999866,None,0,0,0,0,,,,,5,1,41,6,133.63141749999977,,,,,,,,,,,,,,,,,,,,,133.61623390000022,133.63141749999977,134.1150177999998,134.11972239999977,134.1345524999997,135.19779389999985,,,,,135.19791309999982,135.21347119999973,135.41404069999953,135.39791799999966,134.1345524999997,,,,,,,,0,1,1.0558825000007346,None,,,,,,,,899,20,M,R,2026-02-25_12h28.32.300,VisualSearch_2526_3,,2025.2.4,2026-02-25 12h28.32.504887 +0100,
tilted.xlsx,The target is tilted.,117,42,2,5,1,1,1,1,1,1,1,1,0,0,0,0,0,7,8,117,space,5.920727599999736,None,0,0,1.928191500000139,None,space,5.067235999999866,None,0,0,0,0,,,,,5,2,42,1,135.41404069999953,,,,,,,,,,,,,,,,,,,,,135.3986476,135.41404069999953,135.89730260000033,135.90197090000038,135.91671039999983,137.84702910000033,,,,,137.84719229999973,137.86226830000032,138.06269659999998,138.0466018999996,135.91671039999983,,,,,,,,0,0,1.928191500000139,None,,,,,,,,899,20,M,R,2026-02-25_12h28.32.300,VisualSearch_2526_3,,2025.2.4,2026-02-25 12h28.32.504887 +0100,
tilted.xlsx,The target is tilted.,117,43,3,5,1,1,1,1,1,1,1,1,1,1,1,1,0,11,12,117,space,5.920727599999736,None,1,1,0.7953714000004766,None,space,5.067235999999866,None,0,0,0,0,,,,,5,3,43,0,138.06269659999998,,,,,,,,,,,,,,,,,,,,,138.04736440000033,138.06269659999998,138.54627559999972,138.55037059999995,138.56246219999957,139.3630188999996,,,,,139.3631959000004,139.37824480000018,139.57855980000022,139.56253149999975,138.56246219999957,,,,,,,,1,1,0.7953714000004766,None,,,,,,,,899,20,M,R,2026-02-25_12h28.32.300,VisualSearch_2526_3,,2025.2.4,2026-02-25 12h28.32.504887 +0100,
tilted.xlsx,The target is tilted.,117,44,4,5,1,0,0,0,0,0,0,0,0,0,0,0,0,0,1,117,space,5.920727599999736,None,1,1,0.4852357999998276,None,space,5.067235999999866,None,0,0,0,0,,,,,5,4,44,3,139.57855980000022,,,,,,,,,,,,,,,,,,,,,139.56329769999957,139.57855980000022,140.06226630000037,140.0670484000002,140.08297370000037,140.5790337999997,,,,,140.57923399999981,140.59443209999972,140.79479059999994,140.7783900000004,140.08297370000037,,,,,,,,1,1,0.4852357999998276,None,,,,,,,,899,20,M,R,2026-02-25_12h28.32.300,VisualSearch_2526_3,,2025.2.4,2026-02-25 12h28.32.504887 +0100,
tilted.xlsx,The target is tilted.,117,45,5,5,0,1,1,1,1,1,1,1,1,1,1,1,1,11,12,117,space,5.920727599999736,None,0,1,2.440705099999832,None,space,5.067235999999866,None,0,0,0,0,,,,,5,5,45,4,140.79479059999994,,,,,,,,,,,,,,,,,,,,,140.7791556000002,140.79479059999994,141.27838390000034,141.28326079999988,141.29894140000033,143.74458870000035,,,,,143.74478939999972,143.75960639999994,143.9600604999996,143.94401199999993,141.29894140000033,,,,,,,,0,1,2.440705099999832,None,,,,,,,,899,20,M,R,2026-02-25_12h28.32.300,VisualSearch_2526_3,,2025.2.4,2026-02-25 12h28.32.504887 +0100,
tilted.xlsx,The target is tilted.,117,46,6,5,0,0,0,0,0,0,0,0,0,0,0,0,1,1,1,117,space,5.920727599999736,None,0,1,0.46953430000030494,None,space,5.067235999999866,None,0,0,0,0,,,,,5,6,46,7,143.9600604999996,,,,,,,,,,,,,,,,,,,,,143.9447242999995,143.9600604999996,144.4437237000002,144.4484808999996,144.4634804999996,144.9441323000001,,,,,144.94433109999954,144.9591000999999,145.15947229999983,145.1433651999996,144.4634804999996,,,,,,,,0,1,0.46953430000030494,None,,,,,,,,899,20,M,R,2026-02-25_12h28.32.300,VisualSearch_2526_3,,2025.2.4,2026-02-25 12h28.32.504887 +0100,
tilted.xlsx,The target is tilted.,117,47,7,5,1,1,1,1,0,0,0,0,0,0,0,0,0,3,4,117,space,5.920727599999736,None,0,0,0.7338030000000799,None,space,5.067235999999866,None,0,0,0,0,,,,,5,7,47,2,145.15947229999983,,,,,,,,,,,,,,,,,,,,,145.1441318999996,145.15947229999983,145.64310659999956,145.64784510000027,145.66290990000016,146.40905440000006,,,,,146.40919219999978,146.42511509999986,146.62558040000022,146.60923600000024,145.66290990000016,,,,,,,,0,0,0.7338030000000799,None,,,,,,,,899,20,M,R,2026-02-25_12h28.32.300,VisualSearch_2526_3,,2025.2.4,2026-02-25 12h28.32.504887 +0100,
tilted.xlsx,The target is tilted.,117,48,0,6,1,1,1,1,1,1,1,1,0,0,0,0,0,7,8,117,space,5.920727599999736,None,1,1,1.3686636000002181,None,space,5.067235999999866,None,0,0,0,0,,,,,6,0,48,1,146.62558040000022,,,,,,,,,,,,,,,,,,,,,146.60998500000005,146.62558040000022,147.1090021,147.11376540000037,147.12897640000028,148.50890619999973,,,,,148.50910509999994,148.52409650000027,148.72464639999998,148.70840229999976,147.12897640000028,,,,,,,,1,1,1.3686636000002181,None,,,,,,,,899,20,M,R,2026-02-25_12h28.32.300,VisualSearch_2526_3,,2025.2.4,2026-02-25 12h28.32.504887 +0100,
tilted.xlsx,The target is tilted.,117,49,1,6,1,1,1,1,0,0,0,0,0,0,0,0,0,3,4,117,space,5.920727599999736,None,1,1,0.6733806000002005,None,space,5.067235999999866,None,0,0,0,0,,,,,6,1,49,2,148.72464639999998,,,,,,,,,,,,,,,,,,,,,148.70917550000013,148.72464639999998,149.2081360000002,149.2128974999996,149.22858670000005,149.90843320000022,,,,,149.90863170000011,149.92346739999994,150.12373260000004,150.10752909999974,149.22858670000005,,,,,,,,1,1,0.6733806000002005,None,,,,,,,,899,20,M,R,2026-02-25_12h28.32.300,VisualSearch_2526_3,,2025.2.4,2026-02-25 12h28.32.504887 +0100,
tilted.xlsx,The target is tilted.,117,50,2,6,1,1,1,1,1,1,1,1,1,1,1,1,0,11,12,117,space,5.920727599999736,None,0,0,2.3580432999997356,None,space,5.067235999999866,None,0,0,0,0,,,,,6,2,50,0,150.12373260000004,,,,,,,,,,,,,,,,,,,,,150.10825829999976,150.12373260000004,150.60767060000035,150.61236350000036,150.6275515999996,152.99006610000015,,,,,152.99026870000034,153.00542380000024,153.20585909999954,153.1896982999997,150.6275515999996,,,,,,,,0,0,2.3580432999997356,None,,,,,,,,899,20,M,R,2026-02-25_12h28.32.300,VisualSearch_2526_3,,2025.2.4,2026-02-25 12h28.32.504887 +0100,
tilted.xlsx,The target is tilted.,117,51,3,6,1,0,0,0,0,0,0,0,0,0,0,0,0,0,1,117,space,5.920727599999736,None,1,1,0.5817643000000317,None,space,5.067235999999866,None,0,0,0,0,,,,,6,3,51,3,153.20585909999954,,,,,,,,,,,,,,,,,,,,,153.19046650000018,153.20585909999954,153.68948619999992,153.69418829999995,153.70952690000013,154.30547550000028,,,,,154.3056233999996,154.3215263000002,154.5219833000001,154.50584079999953,153.70952690000013,,,,,,,,1,1,0.5817643000000317,None,,,,,,,,899,20,M,R,2026-02-25_12h28.32.300,VisualSearch_2526_3,,2025.2.4,2026-02-25 12h28.32.504887 +0100,
tilted.xlsx,The target is tilted.,117,52,4,6,0,1,1,1,1,1,1,1,0,0,0,0,1,7,8,117,space,5.920727599999736,None,0,1,2.168688099999599,None,space,5.067235999999866,None,0,0,0,0,,,,,6,4,52,5,154.5219833000001,,,,,,,,,,,,,,,,,,,,,154.50657620000038,154.5219833000001,155.00575029999982,155.01035049999973,155.02545099999952,157.20503649999955,,,,,157.20521629999985,157.22019420000015,157.42056419999972,157.4043627000001,155.02545099999952,,,,,,,,0,1,2.168688099999599,None,,,,,,,,899,20,M,R,2026-02-25_12h28.32.300,VisualSearch_2526_3,,2025.2.4,2026-02-25 12h28.32.504887 +0100,
tilted.xlsx,The target is tilted.,117,53,5,6,0,1,1,1,0,0,0,0,0,0,0,0,1,3,4,117,space,5.920727599999736,None,0,1,1.095228700000007,None,space,5.067235999999866,None,0,0,0,0,,,,,6,5,53,6,157.42056419999972,,,,,,,,,,,,,,,,,,,,,157.40522640000017,157.42056419999972,157.9042274000003,157.90895939999973,157.9234408000002,159.02098670000032,,,,,159.0212002999997,159.03602150000006,159.23640410000007,159.22021789999962,157.9234408000002,,,,,,,,0,1,1.095228700000007,None,,,,,,,,899,20,M,R,2026-02-25_12h28.32.300,VisualSearch_2526_3,,2025.2.4,2026-02-25 12h28.32.504887 +0100,
tilted.xlsx,The target is tilted.,117,54,6,6,0,0,0,0,0,0,0,0,0,0,0,0,1,1,1,117,space,5.920727599999736,None,0,1,0.5956263000007311,None,space,5.067235999999866,None,0,0,0,0,,,,,6,6,54,7,159.23640410000007,,,,,,,,,,,,,,,,,,,,,159.2209839999996,159.23640410000007,159.72001590000036,159.7247083000002,159.73932439999953,160.33705949999967,,,,,160.33727050000016,160.35207480000008,160.55252759999985,160.53643490000013,159.73932439999953,,,,,,,,0,1,0.5956263000007311,None,,,,,,,,899,20,M,R,2026-02-25_12h28.32.300,VisualSearch_2526_3,,2025.2.4,2026-02-25 12h28.32.504887 +0100,
tilted.xlsx,The target is tilted.,117,55,7,6,0,1,1,1,1,1,1,1,1,1,1,1,1,11,12,117,space,5.920727599999736,None,0,1,3.092137399999956,None,space,5.067235999999866,None,0,0,0,0,,,,,6,7,55,4,160.55252759999985,,,,,,,,,,,,,,,,,,,,,160.53718889999982,160.55252759999985,161.03621070000008,161.0408483000001,161.05636979999963,164.15133090000018,,,,,164.1515042000001,164.16683769999963,164.3676078999997,164.3512965,161.05636979999963,,,,,,,,0,1,3.092137399999956,None,,,,,,,,899,20,M,R,2026-02-25_12h28.32.300,VisualSearch_2526_3,,2025.2.4,2026-02-25 12h28.32.504887 +0100,
tilted.xlsx,The target is tilted.,117,56,0,7,1,1,1,1,0,0,0,0,0,0,0,0,0,3,4,117,space,5.920727599999736,None,1,1,0.8191397000000507,None,space,5.067235999999866,None,0,0,0,0,,,,,7,0,56,2,164.3676078999997,,,,,,,,,,,,,,,,,,,,,164.3520685000003,164.3676078999997,164.85113829999955,164.8557794999997,164.87061079999967,165.70079540000006,,,,,165.70093329999963,165.71631290000005,165.91656969999985,165.90034990000004,164.87061079999967,,,,,,,,1,1,0.8191397000000507,None,,,,,,,,899,20,M,R,2026-02-25_12h28.32.300,VisualSearch_2526_3,,2025.2.4,2026-02-25 12h28.32.504887 +0100,
tilted.xlsx,The target is tilted.,117,57,1,7,0,1,1,1,0,0,0,0,0,0,0,0,1,3,4,117,space,5.920727599999736,None,0,1,0.8165093000006891,None,space,5.067235999999866,None,0,0,0,0,,,,,7,1,57,6,165.91656969999985,,,,,,,,,,,,,,,,,,,,,165.90107609999995,165.91656969999985,166.40039890000025,166.40525499999967,166.41987710000012,167.25030160000006,,,,,167.25049940000008,167.26562310000008,167.46602679999978,167.44984339999974,166.41987710000012,,,,,,,,0,1,0.8165093000006891,None,,,,,,,,899,20,M,R,2026-02-25_12h28.32.300,VisualSearch_2526_3,,2025.2.4,2026-02-25 12h28.32.504887 +0100,
tilted.xlsx,The target is tilted.,117,58,2,7,0,1,1,1,1,1,1,1,1,1,1,1,1,11,12,117,space,5.920727599999736,None,0,1,2.134940299999471,None,space,5.067235999999866,None,0,0,0,0,,,,,7,2,58,4,167.46602679999978,,,,,,,,,,,,,,,,,,,,,167.45066570000017,167.46602679999978,167.94965990000037,167.95440280000003,167.96870959999978,170.11594859999968,,,,,170.11615079999956,170.13100039999972,170.3314035000003,170.31518810000034,167.96870959999978,,,,,,,,0,1,2.134940299999471,None,,,,,,,,899,20,M,R,2026-02-25_12h28.32.300,VisualSearch_2526_3,,2025.2.4,2026-02-25 12h28.32.504887 +0100,
tilted.xlsx,The target is tilted.,117,59,3,7,0,0,0,0,0,0,0,0,0,0,0,0,1,1,1,117,space,5.920727599999736,None,0,1,0.7263100999998642,None,space,5.067235999999866,None,0,0,0,0,,,,,7,3,59,7,170.3314035000003,,,,,,,,,,,,,,,,,,,,,170.31595170000037,170.3314035000003,170.81509730000016,170.81986489999963,170.83590410000033,171.56543390000024,,,,,171.56565750000027,171.58039579999968,171.7807770999998,171.76454879999983,170.83590410000033,,,,,,,,0,1,0.7263100999998642,None,,,,,,,,899,20,M,R,2026-02-25_12h28.32.300,VisualSearch_2526_3,,2025.2.4,2026-02-25 12h28.32.504887 +0100,
tilted.xlsx,The target is tilted.,117,60,4,7,1,1,1,1,1,1,1,1,1,1,1,1,0,11,12,117,space,5.920727599999736,None,0,0,2.5005926000003456,None,space,5.067235999999866,None,0,0,0,0,,,,,7,4,60,0,171.7807770999998,,,,,,,,,,,,,,,,,,,,,171.76533899999959,171.7807770999998,172.2643704000002,172.26908149999963,172.28388350000023,174.79629829999976,,,,,174.79649710000012,174.8121431999998,175.0126065000004,174.9965056000001,172.28388350000023,,,,,,,,0,0,2.5005926000003456,None,,,,,,,,899,20,M,R,2026-02-25_12h28.32.300,VisualSearch_2526_3,,2025.2.4,2026-02-25 12h28.32.504887 +0100,
tilted.xlsx,The target is tilted.,117,61,5,7,0,1,1,1,1,1,1,1,0,0,0,0,1,7,8,117,space,5.920727599999736,None,0,1,1.2594773999999234,None,space,5.067235999999866,None,0,0,0,0,,,,,7,5,61,5,175.0126065000004,,,,,,,,,,,,,,,,,,,,,174.9972501000002,175.0126065000004,175.49618980000014,175.5008472999998,175.51604119999956,176.77877759999956,,,,,176.77892619999966,176.79458150000028,176.99495469999965,176.97882200000004,175.51604119999956,,,,,,,,0,1,1.2594773999999234,None,,,,,,,,899,20,M,R,2026-02-25_12h28.32.300,VisualSearch_2526_3,,2025.2.4,2026-02-25 12h28.32.504887 +0100,
tilted.xlsx,The target is tilted.,117,62,6,7,1,0,0,0,0,0,0,0,0,0,0,0,0,0,1,117,space,5.920727599999736,None,1,1,0.5774720999997953,None,space,5.067235999999866,None,0,0,0,0,,,,,7,6,62,3,176.99495469999965,,,,,,,,,,,,,,,,,,,,,176.97958089999975,176.99495469999965,177.47836329999973,177.48367729999973,177.49914910000007,178.07838720000018,,,,,178.07856919999995,178.09386340000037,178.2944865999998,178.27842839999994,177.49914910000007,,,,,,,,1,1,0.5774720999997953,None,,,,,,,,899,20,M,R,2026-02-25_12h28.32.300,VisualSearch_2526_3,,2025.2.4,2026-02-25 12h28.32.504887 +0100,
tilted.xlsx,The target is tilted.,117,63,7,7,1,1,1,1,1,1,1,1,0,0,0,0,0,7,8,117,space,5.920727599999736,None,0,0,1.6830152999991697,None,space,5.067235999999866,None,0,0,0,0,,,,,7,7,63,1,178.2944865999998,,,,,,,,,,,,,,,,,,,,,178.27915769999981,178.2944865999998,178.7781246000004,178.78282409999974,178.79847919999975,180.4930602000004,,,,,180.49313119999988,180.5099277999998,,180.6936367999997,178.79847919999975,,,,,,,,0,0,1.6830152999991697,None,,,,,,,,899,20,M,R,2026-02-25_12h28.32.300,VisualSearch_2526_3,,2025.2.4,2026-02-25 12h28.32.504887 +0100,
tilted.xlsx,The target is tilted.,117,64,0,8,1,1,1,1,1,1,1,1,0,0,0,0,0,7,8,117,space,5.920727599999736,None,0,0,1.3989572999998927,None,space,5.067235999999866,None,0,0,0,0,,,,,8,0,64,1,180.7096472000003,,,,,,,,,,,,,,,,,,,,,180.6943736000003,180.7096472000003,181.19336180000028,181.19805850000012,181.2134218000001,182.62628849999965,,,,,182.62647689999994,182.64196600000014,182.8424541000004,182.82629749999978,181.2134218000001,,,,,,,,0,0,1.3989572999998927,None,,,,,,,,899,20,M,R,2026-02-25_12h28.32.300,VisualSearch_2526_3,,2025.2.4,2026-02-25 12h28.32.504887 +0100,
tilted.xlsx,The target is tilted.,117,65,1,8,0,0,0,0,0,0,0,0,0,0,0,0,1,1,1,117,space,5.920727599999736,None,0,1,0.634976899999856,None,space,5.067235999999866,None,0,0,0,0,,,,,8,1,65,7,182.8424541000004,,,,,,,,,,,,,,,,,,,,,182.82703239999955,182.8424541000004,183.32598309999958,183.33048959999996,183.3421003000003,183.9923318000001,,,,,183.99253080000017,184.00798849999956,184.2084249999998,184.19223729999976,183.3421003000003,,,,,,,,0,1,0.634976899999856,None,,,,,,,,899,20,M,R,2026-02-25_12h28.32.300,VisualSearch_2526_3,,2025.2.4,2026-02-25 12h28.32.504887 +0100,
tilted.xlsx,The target is tilted.,117,66,2,8,1,0,0,0,0,0,0,0,0,0,0,0,0,0,1,117,space,5.920727599999736,None,0,0,0.6068632999995316,None,space,5.067235999999866,None,0,0,0,0,,,,,8,2,66,3,184.2084249999998,,,,,,,,,,,,,,,,,,,,,184.19306739999956,184.2084249999998,184.69206250000025,184.6967300999995,184.71099969999977,185.32545909999953,,,,,185.32563740000023,185.3407176999999,185.54119759999958,185.52507549999973,184.71099969999977,,,,,,,,0,0,0.6068632999995316,None,,,,,,,,899,20,M,R,2026-02-25_12h28.32.300,VisualSearch_2526_3,,2025.2.4,2026-02-25 12h28.32.504887 +0100,
tilted.xlsx,The target is tilted.,117,67,3,8,1,1,1,1,1,1,1,1,1,1,1,1,0,11,12,117,space,5.920727599999736,None,1,1,0.8315458999995826,None,space,5.067235999999866,None,0,0,0,0,,,,,8,3,67,0,185.54119759999958,,,,,,,,,,,,,,,,,,,,,185.52591440000015,185.54119759999958,186.0248464999995,186.02958020000005,186.04490319999968,186.89089220000005,,,,,186.89106590000029,186.90664300000026,187.10725759999968,187.0908903999998,186.04490319999968,,,,,,,,1,1,0.8315458999995826,None,,,,,,,,899,20,M,R,2026-02-25_12h28.32.300,VisualSearch_2526_3,,2025.2.4,2026-02-25 12h28.32.504887 +0100,
tilted.xlsx,The target is tilted.,117,68,4,8,0,1,1,1,0,0,0,0,0,0,0,0,1,3,4,117,space,5.920727599999736,None,0,1,0.8759862999995676,None,space,5.067235999999866,None,0,0,0,0,,,,,8,4,68,6,187.10725759999968,,,,,,,,,,,,,,,,,,,,,187.09164580000015,187.10725759999968,187.5907588,187.59537009999985,187.61164929999995,188.4906547999999,,,,,188.49078869999994,188.50595030000022,188.70644960000027,188.69025409999995,187.61164929999995,,,,,,,,0,1,0.8759862999995676,None,,,,,,,,899,20,M,R,2026-02-25_12h28.32.300,VisualSearch_2526_3,,2025.2.4,2026-02-25 12h28.32.504887 +0100,
tilted.xlsx,The target is tilted.,117,69,5,8,0,1,1,1,1,1,1,1,1,1,1,1,1,11,12,117,space,5.920727599999736,None,0,1,2.0149006999999983,None,space,5.067235999999866,None,0,0,0,0,,,,,8,5,69,4,188.70644960000027,,,,,,,,,,,,,,,,,,,,,188.69111210000028,188.70644960000027,189.19002629999977,189.19460729999992,189.2101032999999,191.2386548000004,,,,,191.238789,191.25472420000006,191.45520750000014,191.4388740000004,189.2101032999999,,,,,,,,0,1,2.0149006999999983,None,,,,,,,,899,20,M,R,2026-02-25_12h28.32.300,VisualSearch_2526_3,,2025.2.4,2026-02-25 12h28.32.504887 +0100,
tilted.xlsx,The target is tilted.,117,70,6,8,1,1,1,1,0,0,0,0,0,0,0,0,0,3,4,117,space,5.920727599999736,None,1,1,0.6030687999991642,None,space,5.067235999999866,None,0,0,0,0,,,,,8,6,70,2,191.45520750000014,,,,,,,,,,,,,,,,,,,,,191.43962120000015,191.45520750000014,191.93872180000017,191.9433299000002,191.95709309999984,192.5722083999999,,,,,192.57237929999974,192.58740099999977,192.78798879999977,192.7716774999999,191.95709309999984,,,,,,,,1,1,0.6030687999991642,None,,,,,,,,899,20,M,R,2026-02-25_12h28.32.300,VisualSearch_2526_3,,2025.2.4,2026-02-25 12h28.32.504887 +0100,
tilted.xlsx,The target is tilted.,117,71,7,8,0,1,1,1,1,1,1,1,0,0,0,0,1,7,8,117,space,5.920727599999736,None,0,1,1.629906399999527,None,space,5.067235999999866,None,0,0,0,0,,,,,8,7,71,5,192.78798879999977,,,,,,,,,,,,,,,,,,,,,192.77250949999961,192.78798879999977,193.27152060000026,193.27619510000022,193.29201529999955,194.93706120000024,,,,,194.93717689999994,194.95343369999955,195.15344679999998,195.13696960000016,193.29201529999955,,,,,,,,0,1,1.629906399999527,None,,,,,,,,899,20,M,R,2026-02-25_12h28.32.300,VisualSearch_2526_3,,2025.2.4,2026-02-25 12h28.32.504887 +0100,
tilted.xlsx,The target is tilted.,117,72,0,9,0,1,1,1,1,1,1,1,0,0,0,0,1,7,8,117,space,5.920727599999736,None,0,1,1.7196994999994786,None,space,5.067235999999866,None,0,0,0,0,,,,,9,0,72,5,195.15344679999998,,,,,,,,,,,,,,,,,,,,,195.13771259999976,195.15344679999998,195.63714100000016,195.64170009999998,195.65703490000033,197.38689450000038,,,,,197.3871006999998,197.4019602999997,197.60195029999977,197.58626790000017,195.65703490000033,,,,,,,,0,1,1.7196994999994786,None,,,,,,,,899,20,M,R,2026-02-25_12h28.32.300,VisualSearch_2526_3,,2025.2.4,2026-02-25 12h28.32.504887 +0100,
tilted.xlsx,The target is tilted.,117,73,1,9,1,1,1,1,1,1,1,1,0,0,0,0,0,7,8,117,space,5.920727599999736,None,1,1,1.1625260000000708,None,space,5.067235999999866,None,0,0,0,0,,,,,9,1,73,1,197.60195029999977,,,,,,,,,,,,,,,,,,,,,197.5869905999998,197.60195029999977,198.08605989999978,198.09059489999981,198.10702649999985,199.28543360000003,,,,,199.28566229999979,199.30106220000016,199.5014616999997,199.48501399999986,198.10702649999985,,,,,,,,1,1,1.1625260000000708,None,,,,,,,,899,20,M,R,2026-02-25_12h28.32.300,VisualSearch_2526_3,,2025.2.4,2026-02-25 12h28.32.504887 +0100,
tilted.xlsx,The target is tilted.,117,74,2,9,0,1,1,1,1,1,1,1,1,1,1,1,1,11,12,117,space,5.920727599999736,None,0,1,2.0658735000006345,None,space,5.067235999999866,None,0,0,0,0,,,,,9,2,74,4,199.5014616999997,,,,,,,,,,,,,,,,,,,,,199.48579140000038,199.5014616999997,199.98517989999982,199.98967679999987,200.0054540000001,202.08414699999958,,,,,202.0843735999997,202.0997414000003,202.30020309999964,202.28413569999975,200.0054540000001,,,,,,,,0,1,2.0658735000006345,None,,,,,,,,899,20,M,R,2026-02-25_12h28.32.300,VisualSearch_2526_3,,2025.2.4,2026-02-25 12h28.32.504887 +0100,
tilted.xlsx,The target is tilted.,117,75,3,9,0,0,0,0,0,0,0,0,0,0,0,0,1,1,1,117,space,5.920727599999736,None,0,1,0.6558202000005622,None,space,5.067235999999866,None,0,0,0,0,,,,,9,3,75,7,202.30020309999964,,,,,,,,,,,,,,,,,,,,,202.28494709999995,202.30020309999964,202.7837612000003,202.7883893999997,202.80351539999992,203.46691790000023,,,,,203.46706379999978,203.48241210000015,203.68295729999954,203.66687939999974,202.80351539999992,,,,,,,,0,1,0.6558202000005622,None,,,,,,,,899,20,M,R,2026-02-25_12h28.32.300,VisualSearch_2526_3,,2025.2.4,2026-02-25 12h28.32.504887 +0100,
tilted.xlsx,The target is tilted.,117,76,4,9,1,1,1,1,1,1,1,1,1,1,1,1,0,11,12,117,space,5.920727599999736,None,0,0,2.412846499999432,None,space,5.067235999999866,None,0,0,0,0,,,,,9,4,76,0,203.68295729999954,,,,,,,,,,,,,,,,,,,,,203.6675868000002,203.68295729999954,204.16663470000003,204.1710049000003,204.1826117999999,206.5985273999995,,,,,206.59867200000008,206.61434519999966,206.81491860000006,206.79834140000003,204.1826117999999,,,,,,,,0,0,2.412846499999432,None,,,,,,,,899,20,M,R,2026-02-25_12h28.32.300,VisualSearch_2526_3,,2025.2.4,2026-02-25 12h28.32.504887 +0100,
tilted.xlsx,The target is tilted.,117,77,5,9,1,1,1,1,0,0,0,0,0,0,0,0,0,3,4,117,space,5.920727599999736,None,1,1,0.8151716000002125,None,space,5.067235999999866,None,0,0,0,0,,,,,9,5,77,2,206.81491860000006,,,,,,,,,,,,,,,,,,,,,206.79908869999963,206.81491860000006,207.29850499999975,207.30304400000023,207.3186996000004,208.14798229999997,,,,,208.148185,208.16368630000034,208.36411839999982,208.34812450000027,207.3186996000004,,,,,,,,1,1,0.8151716000002125,None,,,,,,,,899,20,M,R,2026-02-25_12h28.32.300,VisualSearch_2526_3,,2025.2.4,2026-02-25 12h28.32.504887 +0100,
tilted.xlsx,The target is tilted.,117,78,6,9,1,0,0,0,0,0,0,0,0,0,0,0,0,0,1,117,space,5.920727599999736,None,1,1,0.5384315999999671,None,space,5.067235999999866,None,0,0,0,0,,,,,9,6,78,3,208.36411839999982,,,,,,,,,,,,,,,,,,,,,208.3488755999997,208.36411839999982,208.84755479999967,208.8521456999997,208.86711399999967,209.41395939999984,,,,,209.4140400999995,209.4295245000003,209.63020210000013,209.614055,208.86711399999967,,,,,,,,1,1,0.5384315999999671,None,,,,,,,,899,20,M,R,2026-02-25_12h28.32.300,VisualSearch_2526_3,,2025.2.4,2026-02-25 12h28.32.504887 +0100,
tilted.xlsx,The target is tilted.,117,79,7,9,0,1,1,1,0,0,0,0,0,0,0,0,1,3,4,117,space,5.920727599999736,None,0,1,0.9870685999994748,None,space,5.067235999999866,None,0,0,0,0,,,,,9,7,79,6,209.63020210000013,,,,,,,,,,,,,,,,,,,,,209.6148377999998,209.63020210000013,210.11393640000006,210.11863019999964,210.13315150000017,211.13040170000022,,,,,211.1305755000003,211.14556489999995,211.34603960000004,211.32990729999983,210.13315150000017,,,,,,,,0,1,0.9870685999994748,None,,,,,,,,899,20,M,R,2026-02-25_12h28.32.300,VisualSearch_2526_3,,2025.2.4,2026-02-25 12h28.32.504887 +0100,
tilted.xlsx,The target is tilted.,117,80,0,10,1,1,1,1,1,1,1,1,0,0,0,0,0,7,8,117,space,5.920727599999736,None,0,0,1.7148778999999195,None,space,5.067235999999866,None,0,0,0,0,,,,,10,0,80,1,211.34603960000004,,,,,,,,,,,,,,,,,,,,,211.33066729999973,211.34603960000004,211.82988709999972,211.83433309999964,211.85224329999983,213.57917420000012,,,,,213.57936570000038,213.59460620000027,213.79504329999963,213.77846469999986,211.85224329999983,,,,,,,,0,0,1.7148778999999195,None,,,,,,,,899,20,M,R,2026-02-25_12h28.32.300,VisualSearch_2526_3,,2025.2.4,2026-02-25 12h28.32.504887 +0100,
tilted.xlsx,The target is tilted.,117,81,1,10,0,1,1,1,1,1,1,1,0,0,0,0,1,7,8,117,space,5.920727599999736,None,0,1,1.2288393999997425,None,space,5.067235999999866,None,0,0,0,0,,,,,10,1,81,5,213.79504329999963,,,,,,,,,,,,,,,,,,,,,213.77921489999972,213.79504329999963,214.27830619999986,214.28298379999978,214.29805149999993,215.52848129999984,,,,,215.52865380000003,215.54373550000037,215.74408109999968,215.7279639999997,214.29805149999993,,,,,,,,0,1,1.2288393999997425,None,,,,,,,,899,20,M,R,2026-02-25_12h28.32.300,VisualSearch_2526_3,,2025.2.4,2026-02-25 12h28.32.504887 +0100,
tilted.xlsx,The target is tilted.,117,82,2,10,1,1,1,1,0,0,0,0,0,0,0,0,0,3,4,117,space,5.920727599999736,None,1,1,0.6763015999995332,None,space,5.067235999999866,None,0,0,0,0,,,,,10,2,82,2,215.74408109999968,,,,,,,,,,,,,,,,,,,,,215.7287452999999,215.74408109999968,216.22778370000015,216.23232459999963,216.24763019999955,216.92764950000037,,,,,216.92784089999986,216.94300229999953,217.14348940000036,217.12733019999996,216.24763019999955,,,,,,,,1,1,0.6763015999995332,None,,,,,,,,899,20,M,R,2026-02-25_12h28.32.300,VisualSearch_2526_3,,2025.2.4,2026-02-25 12h28.32.504887 +0100,
tilted.xlsx,The target is tilted.,117,83,3,10,0,1,1,1,1,1,1,1,1,1,1,1,1,11,12,117,space,5.920727599999736,None,0,1,1.734266800000114,None,space,5.067235999999866,None,0,0,0,0,,,,,10,3,83,4,217.14348940000036,,,,,,,,,,,,,,,,,,,,,217.1280938,217.14348940000036,217.6271630000001,217.63170379999974,217.64680380000027,219.3935650000003,,,,,219.39375819999987,219.4086097999998,219.608929,219.59281250000004,217.64680380000027,,,,,,,,0,1,1.734266800000114,None,,,,,,,,899,20,M,R,2026-02-25_12h28.32.300,VisualSearch_2526_3,,2025.2.4,2026-02-25 12h28.32.504887 +0100,
tilted.xlsx,The target is tilted.,117,84,4,10,0,1,1,1,0,0,0,0,0,0,0,0,1,3,4,117,space,5.920727599999736,None,0,1,0.7616880999994464,None,space,5.067235999999866,None,0,0,0,0,,,,,10,4,84,6,219.608929,,,,,,,,,,,,,,,,,,,,,219.5936468,219.608929,220.09262500000023,220.09724780000033,220.1128435999999,220.87613619999956,,,,,220.87633649999952,220.8918203000003,221.0915855000003,221.07538870000008,220.1128435999999,,,,,,,,0,1,0.7616880999994464,None,,,,,,,,899,20,M,R,2026-02-25_12h28.32.300,VisualSearch_2526_3,,2025.2.4,2026-02-25 12h28.32.504887 +0100,
tilted.xlsx,The target is tilted.,117,85,5,10,1,0,0,0,0,0,0,0,0,0,0,0,0,0,1,117,space,5.920727599999736,None,1,1,0.5931721999995716,None,space,5.067235999999866,None,0,0,0,0,,,,,10,5,85,3,221.0915855000003,,,,,,,,,,,,,,,,,,,,,221.07613270000002,221.0915855000003,221.5754533999998,221.5800691000004,221.59525759999997,222.19190799999978,,,,,222.19211309999991,222.20754659999966,222.40785529999994,222.39159719999952,221.59525759999997,,,,,,,,1,1,0.5931721999995716,None,,,,,,,,899,20,M,R,2026-02-25_12h28.32.300,VisualSearch_2526_3,,2025.2.4,2026-02-25 12h28.32.504887 +0100,
tilted.xlsx,The target is tilted.,117,86,6,10,1,1,1,1,1,1,1,1,1,1,1,1,0,11,12,117,space,5.920727599999736,None,1,1,0.7190797999992355,None,space,5.067235999999866,None,0,0,0,0,,,,,10,6,86,0,222.40785529999994,,,,,,,,,,,,,,,,,,,,,222.39235290000033,222.40785529999994,222.8912822000002,222.89586090000012,222.91101309999976,223.6412307999999,,,,,223.64137550000032,223.6567629000001,223.8571450999998,223.8409829000002,222.91101309999976,,,,,,,,1,1,0.7190797999992355,None,,,,,,,,899,20,M,R,2026-02-25_12h28.32.300,VisualSearch_2526_3,,2025.2.4,2026-02-25 12h28.32.504887 +0100,
tilted.xlsx,The target is tilted.,117,87,7,10,0,0,0,0,0,0,0,0,0,0,0,0,1,1,1,117,space,5.920727599999736,None,0,1,0.7254586999997628,None,space,5.067235999999866,None,0,0,0,0,,,,,10,7,87,7,223.8571450999998,,,,,,,,,,,,,,,,,,,,,223.84172020000005,223.8571450999998,224.3406890999995,224.3453896000001,224.36008889999994,225.09091939999962,,,,,225.09111240000038,225.10649720000038,225.30636719999984,225.28992860000017,224.36008889999994,,,,,,,,0,1,0.7254586999997628,None,,,,,,,,899,20,M,R,2026-02-25_12h28.32.300,VisualSearch_2526_3,,2025.2.4,2026-02-25 12h28.32.504887 +0100,
tilted.xlsx,The target is tilted.,117,88,0,11,0,1,1,1,1,1,1,1,0,0,0,0,1,7,8,117,space,5.920727599999736,None,0,1,1.461434800000461,None,space,5.067235999999866,None,0,0,0,0,,,,,11,0,88,5,225.30636719999984,,,,,,,,,,,,,,,,,,,,,225.29076720000012,225.30636719999984,225.79001909999988,225.79475840000032,225.80897110000024,227.27337979999993,,,,,227.27358389999972,227.28881189999993,227.4887480999996,227.47260050000023,225.80897110000024,,,,,,,,0,1,1.461434800000461,None,,,,,,,,899,20,M,R,2026-02-25_12h28.32.300,VisualSearch_2526_3,,2025.2.4,2026-02-25 12h28.32.504887 +0100,
tilted.xlsx,The target is tilted.,117,89,1,11,0,0,0,0,0,0,0,0,0,0,0,0,1,1,1,117,space,5.920727599999736,None,0,1,0.6555909999997311,None,space,5.067235999999866,None,0,0,0,0,,,,,11,1,89,7,227.4887480999996,,,,,,,,,,,,,,,,,,,,,227.47336579999956,227.4887480999996,227.9724354,227.9770110999998,227.99201509999966,228.655624,,,,,228.65581500000008,228.67147529999966,228.8714775999997,228.85530839999956,227.99201509999966,,,,,,,,0,1,0.6555909999997311,None,,,,,,,,899,20,M,R,2026-02-25_12h28.32.300,VisualSearch_2526_3,,2025.2.4,2026-02-25 12h28.32.504887 +0100,
tilted.xlsx,The target is tilted.,117,90,2,11,1,1,1,1,0,0,0,0,0,0,0,0,0,3,4,117,space,5.920727599999736,None,1,1,0.7476353000001836,None,space,5.067235999999866,None,0,0,0,0,,,,,11,2,90,2,228.8714775999997,,,,,,,,,,,,,,,,,,,,,228.85606610000013,228.8714775999997,229.35507450000023,229.3596534999997,229.37485079999988,230.1383095000001,,,,,230.13845140000012,230.15401759999986,230.35414430000037,230.33815479999976,229.37485079999988,,,,,,,,1,1,0.7476353000001836,None,,,,,,,,899,20,M,R,2026-02-25_12h28.32.300,VisualSearch_2526_3,,2025.2.4,2026-02-25 12h28.32.504887 +0100,
tilted.xlsx,The target is tilted.,117,91,3,11,1,1,1,1,1,1,1,1,0,0,0,0,0,7,8,117,space,5.920727599999736,None,1,1,0.7592445000000225,None,space,5.067235999999866,None,0,0,0,0,,,,,11,3,91,1,230.35414430000037,,,,,,,,,,,,,,,,,,,,,230.33890040000006,230.35414430000037,230.8378075999999,230.8424372999998,230.85507849999976,231.6204515999998,,,,,231.62057499999992,231.6366162000004,231.8369021999997,231.82065750000038,230.85507849999976,,,,,,,,1,1,0.7592445000000225,None,,,,,,,,899,20,M,R,2026-02-25_12h28.32.300,VisualSearch_2526_3,,2025.2.4,2026-02-25 12h28.32.504887 +0100,
tilted.xlsx,The target is tilted.,117,92,4,11,1,1,1,1,1,1,1,1,1,1,1,1,0,11,12,117,space,5.920727599999736,None,1,1,0.8049593000005189,None,space,5.067235999999866,None,0,0,0,0,,,,,11,4,92,0,231.8369021999997,,,,,,,,,,,,,,,,,,,,,231.82141429999956,231.8369021999997,232.32021239999995,232.32473010000012,232.33877479999956,233.15363340000022,,,,,233.1538271999998,233.1691090000004,233.3693677000001,233.3533163000002,232.33877479999956,,,,,,,,1,1,0.8049593000005189,None,,,,,,,,899,20,M,R,2026-02-25_12h28.32.300,VisualSearch_2526_3,,2025.2.4,2026-02-25 12h28.32.504887 +0100,
tilted.xlsx,The target is tilted.,117,93,5,11,1,0,0,0,0,0,0,0,0,0,0,0,0,0,1,117,space,5.920727599999736,None,1,1,0.5672020000001794,None,space,5.067235999999866,None,0,0,0,0,,,,,11,5,93,3,233.3693677000001,,,,,,,,,,,,,,,,,,,,,233.35406450000028,233.3693677000001,233.85302570000022,233.85760539999956,233.87261829999989,234.45322870000018,,,,,234.45340359999955,234.46887719999995,234.66874129999997,234.6527612,233.87261829999989,,,,,,,,1,1,0.5672020000001794,None,,,,,,,,899,20,M,R,2026-02-25_12h28.32.300,VisualSearch_2526_3,,2025.2.4,2026-02-25 12h28.32.504887 +0100,
tilted.xlsx,The target is tilted.,117,94,6,11,0,1,1,1,1,1,1,1,1,1,1,1,1,11,12,117,space,5.920727599999736,None,0,1,2.276310399999602,None,space,5.067235999999866,None,0,0,0,0,,,,,11,6,94,4,234.66874129999997,,,,,,,,,,,,,,,,,,,,,234.6535812000002,234.66874129999997,235.15238799999952,235.15706709999995,235.1728223,237.45205350000015,,,,,237.45225839999966,237.46737630000007,237.66755250000006,237.65132730000005,235.1728223,,,,,,,,0,1,2.276310399999602,None,,,,,,,,899,20,M,R,2026-02-25_12h28.32.300,VisualSearch_2526_3,,2025.2.4,2026-02-25 12h28.32.504887 +0100,
tilted.xlsx,The target is tilted.,117,95,7,11,0,1,1,1,0,0,0,0,0,0,0,0,1,3,4,117,space,5.920727599999736,None,0,1,1.0419425000000047,None,space,5.067235999999866,None,0,0,0,0,,,,,11,7,95,6,237.66755250000006,,,,,,,,,,,,,,,,,,,,,237.65215780000017,237.66755250000006,238.1510801000004,238.1557128000004,238.1707720000004,239.21730109999953,,,,,239.21746729999995,239.23330019999958,239.43338909999966,239.4172010000002,238.1707720000004,,,,,,,,0,1,1.0419425000000047,None,,,,,,,,899,20,M,R,2026-02-25_12h28.32.300,VisualSearch_2526_3,,2025.2.4,2026-02-25 12h28.32.504887 +0100,
tilted.xlsx,The target is tilted.,117,96,0,12,1,1,1,1,1,1,1,1,1,1,1,1,0,11,12,117,space,5.920727599999736,None,0,0,1.6966871000004176,None,space,5.067235999999866,None,0,0,0,0,,,,,12,0,96,0,239.43338909999966,,,,,,,,,,,,,,,,,,,,,239.41797419999966,239.43338909999966,239.9170108999997,239.92154709999977,239.9366841000001,241.6499573000001,,,,,241.65014989999963,241.66571029999977,241.86561359999996,241.84928909999962,239.9366841000001,,,,,,,,0,0,1.6966871000004176,None,,,,,,,,899,20,M,R,2026-02-25_12h28.32.300,VisualSearch_2526_3,,2025.2.4,2026-02-25 12h28.32.504887 +0100,
tilted.xlsx,The target is tilted.,117,97,1,12,1,1,1,1,0,0,0,0,0,0,0,0,0,3,4,117,space,5.920727599999736,None,0,0,0.6574499999996988,None,space,5.067235999999866,None,0,0,0,0,,,,,12,1,97,2,241.86561359999996,,,,,,,,,,,,,,,,,,,,,241.85006129999965,241.86561359999996,242.34908559999985,242.3536512999999,242.36825130000034,243.0328045999995,,,,,243.03303179999966,243.04827269999987,243.24790070000017,243.23196949999965,242.36825130000034,,,,,,,,0,0,0.6574499999996988,None,,,,,,,,899,20,M,R,2026-02-25_12h28.32.300,VisualSearch_2526_3,,2025.2.4,2026-02-25 12h28.32.504887 +0100,
tilted.xlsx,The target is tilted.,117,98,2,12,1,0,0,0,0,0,0,0,0,0,0,0,0,0,1,117,space,5.920727599999736,None,1,1,0.5763162999992346,None,space,5.067235999999866,None,0,0,0,0,,,,,12,2,98,3,243.24790070000017,,,,,,,,,,,,,,,,,,,,,243.23280590000013,243.24790070000017,243.7318997000002,243.7364908999998,243.75157049999962,244.33184259999962,,,,,244.33204670000032,244.34771509999973,244.54760950000036,244.53126080000038,243.75157049999962,,,,,,,,1,1,0.5763162999992346,None,,,,,,,,899,20,M,R,2026-02-25_12h28.32.300,VisualSearch_2526_3,,2025.2.4,2026-02-25 12h28.32.504887 +0100,
tilted.xlsx,The target is tilted.,117,99,3,12,0,0,0,0,0,0,0,0,0,0,0,0,1,1,1,117,space,5.920727599999736,None,0,1,0.6088379000002533,None,space,5.067235999999866,None,0,0,0,0,,,,,12,3,99,7,244.54760950000036,,,,,,,,,,,,,,,,,,,,,244.5317871999996,244.54760950000036,245.0314957999999,245.03623789999983,245.0514307000003,245.6645451000004,,,,,245.66473589999987,245.68039529999987,245.88038340000003,245.86435429999983,245.0514307000003,,,,,,,,0,1,0.6088379000002533,None,,,,,,,,899,20,M,R,2026-02-25_12h28.32.300,VisualSearch_2526_3,,2025.2.4,2026-02-25 12h28.32.504887 +0100,
tilted.xlsx,The target is tilted.,117,100,4,12,1,1,1,1,1,1,1,1,0,0,0,0,0,7,8,117,space,5.920727599999736,None,1,1,0.8630780999992567,None,space,5.067235999999866,None,0,0,0,0,,,,,12,4,100,1,245.88038340000003,,,,,,,,,,,,,,,,,,,,,245.86505560000023,245.88038340000003,246.3640531000001,246.36866420000024,246.38456529999985,247.26357170000028,,,,,247.26375559999997,247.27971689999958,247.47931659999995,247.46312020000005,246.38456529999985,,,,,,,,1,1,0.8630780999992567,None,,,,,,,,899,20,M,R,2026-02-25_12h28.32.300,VisualSearch_2526_3,,2025.2.4,2026-02-25 12h28.32.504887 +0100,
tilted.xlsx,The target is tilted.,117,101,5,12,0,1,1,1,1,1,1,1,1,1,1,1,1,11,12,117,space,5.920727599999736,None,0,1,2.2015221999999994,None,space,5.067235999999866,None,0,0,0,0,,,,,12,5,101,4,247.47931659999995,,,,,,,,,,,,,,,,,,,,,247.46387810000033,247.47931659999995,247.9631556000004,247.96832110000014,247.97875250000016,250.19609579999997,,,,,250.19628939999984,250.21157870000025,250.41172819999974,250.3955833,247.97875250000016,,,,,,,,0,1,2.2015221999999994,None,,,,,,,,899,20,M,R,2026-02-25_12h28.32.300,VisualSearch_2526_3,,2025.2.4,2026-02-25 12h28.32.504887 +0100,
tilted.xlsx,The target is tilted.,117,102,6,12,0,1,1,1,0,0,0,0,0,0,0,0,1,3,4,117,space,5.920727599999736,None,0,1,0.8312717999997403,None,space,5.067235999999866,None,0,0,0,0,,,,,12,6,102,6,250.41172819999974,,,,,,,,,,,,,,,,,,,,,250.39631399999962,250.41172819999974,250.89542210000036,250.89998250000008,250.91519189999963,251.76215260000026,,,,,251.76236900000004,251.7777242000002,251.97773080000024,251.96147370000017,250.91519189999963,,,,,,,,0,1,0.8312717999997403,None,,,,,,,,899,20,M,R,2026-02-25_12h28.32.300,VisualSearch_2526_3,,2025.2.4,2026-02-25 12h28.32.504887 +0100,
tilted.xlsx,The target is tilted.,117,103,7,12,0,1,1,1,1,1,1,1,0,0,0,0,1,7,8,117,space,5.920727599999736,None,0,1,1.5135448999999426,None,space,5.067235999999866,None,0,0,0,0,,,,,12,7,103,5,251.97773080000024,,,,,,,,,,,,,,,,,,,,,251.96230709999963,251.97773080000024,252.46124539999983,252.4658733999995,252.48096669999995,254.0111555000003,,,,,254.0113497000002,254.02674949999982,254.22667019999972,254.21045609999965,252.48096669999995,,,,,,,,0,1,1.5135448999999426,None,,,,,,,,899,20,M,R,2026-02-25_12h28.32.300,VisualSearch_2526_3,,2025.2.4,2026-02-25 12h28.32.504887 +0100,
tilted.xlsx,The target is tilted.,117,104,0,13,1,1,1,1,1,1,1,1,0,0,0,0,0,7,8,117,space,5.920727599999736,None,0,0,1.6435935999998037,None,space,5.067235999999866,None,0,0,0,0,,,,,13,0,104,1,254.22667019999972,,,,,,,,,,,,,,,,,,,,,254.2112874000004,254.22667019999972,254.70993399999952,254.71450370000002,254.7289168999996,256.3764289999999,,,,,256.3766220999996,256.39211160000013,256.5922268000004,256.5760011000002,254.7289168999996,,,,,,,,0,0,1.6435935999998037,None,,,,,,,,899,20,M,R,2026-02-25_12h28.32.300,VisualSearch_2526_3,,2025.2.4,2026-02-25 12h28.32.504887 +0100,
tilted.xlsx,The target is tilted.,117,105,1,13,0,1,1,1,1,1,1,1,1,1,1,1,1,11,12,117,space,5.920727599999736,None,0,1,1.6917940000003,None,space,5.067235999999866,None,0,0,0,0,,,,,13,1,105,4,256.5922268000004,,,,,,,,,,,,,,,,,,,,,256.57676170000013,256.5922268000004,257.0757666999998,257.0802751000001,257.0956054999997,258.7920506999999,,,,,258.7922245,258.8077156999998,259.0077484000003,258.9915381999999,257.0956054999997,,,,,,,,0,1,1.6917940000003,None,,,,,,,,899,20,M,R,2026-02-25_12h28.32.300,VisualSearch_2526_3,,2025.2.4,2026-02-25 12h28.32.504887 +0100,
tilted.xlsx,The target is tilted.,117,106,2,13,0,0,0,0,0,0,0,0,0,0,0,0,1,1,1,117,space,5.920727599999736,None,0,1,0.5304777999999715,None,space,5.067235999999866,None,0,0,0,0,,,,,13,2,106,7,259.0077484000003,,,,,,,,,,,,,,,,,,,,,258.9923160999997,259.0077484000003,259.4908499000003,259.4923564999999,259.5073736000004,260.0406203000002,,,,,260.04069640000034,260.0570531000003,,260.24084140000014,259.5073736000004,,,,,,,,0,1,0.5304777999999715,None,,,,,,,,899,20,M,R,2026-02-25_12h28.32.300,VisualSearch_2526_3,,2025.2.4,2026-02-25 12h28.32.504887 +0100,
tilted.xlsx,The target is tilted.,117,107,3,13,1,0,0,0,0,0,0,0,0,0,0,0,0,0,1,117,space,5.920727599999736,None,0,0,0.5536941000000297,None,space,5.067235999999866,None,0,0,0,0,,,,,13,3,107,3,260.25727840000036,,,,,,,,,,,,,,,,,,,,,260.2416740999997,260.25727840000036,260.74079249999977,260.74537059999966,260.7604994000003,261.32420569999977,,,,,261.32439929999964,261.3400201000004,261.53971889999957,261.52329420000024,260.7604994000003,,,,,,,,0,0,0.5536941000000297,None,,,,,,,,899,20,M,R,2026-02-25_12h28.32.300,VisualSearch_2526_3,,2025.2.4,2026-02-25 12h28.32.504887 +0100,
tilted.xlsx,The target is tilted.,117,108,4,13,1,1,1,1,1,1,1,1,1,1,1,1,0,11,12,117,space,5.920727599999736,None,1,1,2.7506600000006074,None,space,5.067235999999866,None,0,0,0,0,,,,,13,4,108,0,261.53971889999957,,,,,,,,,,,,,,,,,,,,,261.52374989999953,261.53971889999957,262.02355569999963,262.02813200000037,262.0426776000004,264.80580980000013,,,,,264.8059296000001,264.82138120000036,265.0217112999999,265.0056169999998,262.0426776000004,,,,,,,,1,1,2.7506600000006074,None,,,,,,,,899,20,M,R,2026-02-25_12h28.32.300,VisualSearch_2526_3,,2025.2.4,2026-02-25 12h28.32.504887 +0100,
tilted.xlsx,The target is tilted.,117,109,5,13,0,1,1,1,0,0,0,0,0,0,0,0,1,3,4,117,space,5.920727599999736,None,0,1,0.7766729999993913,None,space,5.067235999999866,None,0,0,0,0,,,,,13,5,109,6,265.0217112999999,,,,,,,,,,,,,,,,,,,,,265.00634660000014,265.0217112999999,265.50544139999965,265.51000959999965,265.52359499999966,266.30555209999966,,,,,266.30574309999975,266.32066870000017,266.52082530000007,266.5049375999997,265.52359499999966,,,,,,,,0,1,0.7766729999993913,None,,,,,,,,899,20,M,R,2026-02-25_12h28.32.300,VisualSearch_2526_3,,2025.2.4,2026-02-25 12h28.32.504887 +0100,
tilted.xlsx,The target is tilted.,117,110,6,13,1,1,1,1,0,0,0,0,0,0,0,0,0,3,4,117,space,5.920727599999736,None,1,1,0.8552813000005699,None,space,5.067235999999866,None,0,0,0,0,,,,,13,6,110,2,266.52082530000007,,,,,,,,,,,,,,,,,,,,,266.5056717999996,266.52082530000007,267.00470940000014,267.00944139999956,267.02416319999975,267.88818549999996,,,,,267.8883800000003,267.90332359999957,268.1036475000001,268.08724470000016,267.02416319999975,,,,,,,,1,1,0.8552813000005699,None,,,,,,,,899,20,M,R,2026-02-25_12h28.32.300,VisualSearch_2526_3,,2025.2.4,2026-02-25 12h28.32.504887 +0100,
tilted.xlsx,The target is tilted.,117,111,7,13,0,1,1,1,1,1,1,1,0,0,0,0,1,7,8,117,space,5.920727599999736,None,0,1,1.3287530000006882,None,space,5.067235999999866,None,0,0,0,0,,,,,13,7,111,5,268.1036475000001,,,,,,,,,,,,,,,,,,,,,268.0880139000001,268.1036475000001,268.5870114999998,268.59164919999967,268.6066639999999,269.93720909999956,,,,,269.9374319999997,269.9527361999999,270.1527495,270.13661030000003,268.6066639999999,,,,,,,,0,1,1.3287530000006882,None,,,,,,,,899,20,M,R,2026-02-25_12h28.32.300,VisualSearch_2526_3,,2025.2.4,2026-02-25 12h28.32.504887 +0100,
tilted.xlsx,The target is tilted.,117,112,0,14,0,1,1,1,1,1,1,1,0,0,0,0,1,7,8,117,space,5.920727599999736,None,0,1,1.5925555000003442,None,space,5.067235999999866,None,0,0,0,0,,,,,14,0,112,5,270.1527495,,,,,,,,,,,,,,,,,,,,,270.1373432999999,270.1527495,270.6363811000001,270.64093909999974,270.6566958000003,272.25248869999996,,,,,272.25268640000013,272.2681553000002,272.4679262999998,272.45215720000033,270.6566958000003,,,,,,,,0,1,1.5925555000003442,None,,,,,,,,899,20,M,R,2026-02-25_12h28.32.300,VisualSearch_2526_3,,2025.2.4,2026-02-25 12h28.32.504887 +0100,
tilted.xlsx,The target is tilted.,117,113,1,14,1,1,1,1,1,1,1,1,0,0,0,0,0,7,8,117,space,5.920727599999736,None,0,0,1.265036699999655,None,space,5.067235999999866,None,0,0,0,0,,,,,14,1,113,1,272.4679262999998,,,,,,,,,,,,,,,,,,,,,272.4529913999995,272.4679262999998,272.95180849999997,272.9564031,272.9715917000003,274.2515494999998,,,,,274.25174460000017,274.2674943000002,274.46743270000024,274.45090549999986,272.9715917000003,,,,,,,,0,0,1.265036699999655,None,,,,,,,,899,20,M,R,2026-02-25_12h28.32.300,VisualSearch_2526_3,,2025.2.4,2026-02-25 12h28.32.504887 +0100,
tilted.xlsx,The target is tilted.,117,114,2,14,1,1,1,1,0,0,0,0,0,0,0,0,0,3,4,117,space,5.920727599999736,None,1,1,1.1674635999997918,None,space,5.067235999999866,None,0,0,0,0,,,,,14,2,114,2,274.46743270000024,,,,,,,,,,,,,,,,,,,,,274.4516351000002,274.46743270000024,274.9510442999999,274.95566469999994,274.9694754000002,276.1510207000001,,,,,276.1512150999997,276.1665820999997,276.3665737000001,276.3503174999996,274.9694754000002,,,,,,,,1,1,1.1674635999997918,None,,,,,,,,899,20,M,R,2026-02-25_12h28.32.300,VisualSearch_2526_3,,2025.2.4,2026-02-25 12h28.32.504887 +0100,
tilted.xlsx,The target is tilted.,117,115,3,14,1,1,1,1,1,1,1,1,1,1,1,1,0,11,12,117,space,5.920727599999736,None,1,1,2.5514679000007163,None,space,5.067235999999866,None,0,0,0,0,,,,,14,3,115,0,276.3665737000001,,,,,,,,,,,,,,,,,,,,,276.35115849999966,276.3665737000001,276.8498794999996,276.85453679999955,276.8663766999998,279.43244570000024,,,,,279.4326181999995,279.4480626000004,279.64802619999955,279.63222099999984,276.8663766999998,,,,,,,,1,1,2.5514679000007163,None,,,,,,,,899,20,M,R,2026-02-25_12h28.32.300,VisualSearch_2526_3,,2025.2.4,2026-02-25 12h28.32.504887 +0100,
tilted.xlsx,The target is tilted.,117,116,4,14,0,0,0,0,0,0,0,0,0,0,0,0,1,1,1,117,space,5.920727599999736,None,0,1,0.5867636000002676,None,space,5.067235999999866,None,0,0,0,0,,,,,14,4,116,7,279.64802619999955,,,,,,,,,,,,,,,,,,,,,279.6330115999999,279.64802619999955,280.1318411000002,280.1365291000002,280.15261290000035,280.74836700000014,,,,,280.74854529999993,280.7643814000003,280.9644275999999,280.94770470000003,280.15261290000035,,,,,,,,0,1,0.5867636000002676,None,,,,,,,,899,20,M,R,2026-02-25_12h28.32.300,VisualSearch_2526_3,,2025.2.4,2026-02-25 12h28.32.504887 +0100,
tilted.xlsx,The target is tilted.,117,117,5,14,0,1,1,1,1,1,1,1,1,1,1,1,1,11,12,117,space,5.920727599999736,None,0,1,2.166719399999238,None,space,5.067235999999866,None,0,0,0,0,,,,,14,5,117,4,280.9644275999999,,,,,,,,,,,,,,,,,,,,,280.94843729999957,280.9644275999999,281.44810750000033,281.4529794,281.46802690000004,283.64731200000006,,,,,283.6475061000001,283.66287250000005,283.86313510000036,283.84704189999957,281.46802690000004,,,,,,,,0,1,2.166719399999238,None,,,,,,,,899,20,M,R,2026-02-25_12h28.32.300,VisualSearch_2526_3,,2025.2.4,2026-02-25 12h28.32.504887 +0100,
tilted.xlsx,The target is tilted.,117,118,6,14,1,0,0,0,0,0,0,0,0,0,0,0,0,0,1,117,space,5.920727599999736,None,1,1,0.5578893000001699,None,space,5.067235999999866,None,0,0,0,0,,,,,14,6,118,3,283.86313510000036,,,,,,,,,,,,,,,,,,,,,283.84777459999987,283.86313510000036,284.34681720000026,284.35137269999996,284.3672141999996,284.9295783999996,,,,,284.92970609999975,284.94578139999976,285.1459298,285.1295761000001,284.3672141999996,,,,,,,,1,1,0.5578893000001699,None,,,,,,,,899,20,M,R,2026-02-25_12h28.32.300,VisualSearch_2526_3,,2025.2.4,2026-02-25 12h28.32.504887 +0100,
tilted.xlsx,The target is tilted.,117,119,7,14,0,1,1,1,0,0,0,0,0,0,0,0,1,3,4,117,space,5.920727599999736,None,0,1,0.8264221999997972,None,space,5.067235999999866,None,0,0,0,0,,,,,14,7,119,6,285.1459298,,,,,,,,,,,,,,,,,,,,,285.1303592000004,285.1459298,285.62943970000015,285.63410589999967,285.65005629999996,286.47944350000034,,,,,286.47959919999994,286.49523820000013,286.70630249999977,286.6787463999999,285.65005629999996,,,,,,,,0,1,0.8264221999997972,None,,,,,,,,899,20,M,R,2026-02-25_12h28.32.300,VisualSearch_2526_3,,2025.2.4,2026-02-25 12h28.32.504887 +0100,
tilted.xlsx,The target is tilted.,117,0,0,0,,,,,,,,,,,,,,,,,space,5.920727599999736,None,,,,,space,5.067235999999866,None,0,0,0,0,,,,,,,,,,,,,,,,,,,,,,,,,,,,,,,,,,,,,,,,,,,,,,,,,,,,,,,,,,,,,,,899,20,M,R,2026-02-25_12h28.32.300,VisualSearch_2526_3,,2025.2.4,2026-02-25 12h28.32.504887 +0100,
vertical.xlsx,The target is tilted.,135,0,0,0,0,1,1,1,0,0,0,0,0,0,0,0,1,3,4,135,space,1.9919153999999253,None,0,1,0.8002567000003182,None,,,,0,1,1,1,0,0,0,6,,,,,288.7366334999997,,,,,,,,,,,,,,,286.70630249999977,286.70630249999977,286.70630249999977,space,1.9919153999999253,None,288.7327599,288.7366334999997,289.2274999000001,289.2321157999995,289.2484244999996,290.0614147999995,0,1,0.8002567000003182,None,290.0616044999997,290.0768023999999,290.27694859999974,290.26067150000017,,,,,,,,,,,,,,,,,,,,899,20,M,R,2026-02-25_12h28.32.300,VisualSearch_2526_3,,2025.2.4,2026-02-25 12h28.32.504887 +0100,
vertical.xlsx,The target is tilted.,135,1,1,0,1,1,1,1,0,0,0,0,0,0,0,0,0,3,4,135,space,1.9919153999999253,None,1,1,0.5222456999999849,None,,,,0,1,1,1,0,1,1,2,,,,,290.27694859999974,,,,,,,,,,,,,,,,,,,,,290.26133000000027,290.27694859999974,290.76051129999996,290.76512730000013,290.7794450000001,291.31080199999997,1,1,0.5222456999999849,None,291.31098779999957,291.3264618000003,291.5262657000003,291.51001149999956,290.7794450000001,,,,,,,,,,,,,,,,,,,899,20,M,R,2026-02-25_12h28.32.300,VisualSearch_2526_3,,2025.2.4,2026-02-25 12h28.32.504887 +0100,
vertical.xlsx,The target is tilted.,135,2,2,0,0,0,0,0,0,0,0,0,0,0,0,0,1,1,1,135,space,1.9919153999999253,None,0,1,0.5197754999999233,None,,,,0,1,1,1,0,2,2,7,,,,,291.5262657000003,,,,,,,,,,,,,,,,,,,,,291.5106956999998,291.5262657000003,292.0099597999997,292.0146241000002,292.02886490000037,292.56023000000005,0,1,0.5197754999999233,None,292.5604809999995,292.57579160000023,292.7758137999999,292.7595373000004,292.02886490000037,,,,,,,,,,,,,,,,,,,899,20,M,R,2026-02-25_12h28.32.300,VisualSearch_2526_3,,2025.2.4,2026-02-25 12h28.32.504887 +0100,
vertical.xlsx,The target is tilted.,135,3,3,0,0,1,1,1,1,1,1,1,1,1,1,1,1,11,12,135,space,1.9919153999999253,None,0,1,1.1041968999998062,None,,,,0,1,1,1,0,3,3,4,,,,,292.7758137999999,,,,,,,,,,,,,,,,,,,,,292.7602334000003,292.7758137999999,293.2592838999999,293.26384249999956,293.27897219999977,294.39272979999987,0,1,1.1041968999998062,None,294.39291179999964,294.40799719999995,294.6079147999999,294.5921537000004,293.27897219999977,,,,,,,,,,,,,,,,,,,899,20,M,R,2026-02-25_12h28.32.300,VisualSearch_2526_3,,2025.2.4,2026-02-25 12h28.32.504887 +0100,
vertical.xlsx,The target is tilted.,135,4,4,0,1,1,1,1,1,1,1,1,1,1,1,1,0,11,12,135,space,1.9919153999999253,None,1,1,0.5977861999999732,None,,,,0,1,1,1,0,4,4,0,,,,,294.6079147999999,,,,,,,,,,,,,,,,,,,,,294.59283080000023,294.6079147999999,295.0919705999995,295.09634730000016,295.1076457999998,295.7086502000002,1,1,0.5977861999999732,None,295.7088154000003,295.7243251,295.9241556999996,295.90780859999995,295.1076457999998,,,,,,,,,,,,,,,,,,,899,20,M,R,2026-02-25_12h28.32.300,VisualSearch_2526_3,,2025.2.4,2026-02-25 12h28.32.504887 +0100,
vertical.xlsx,The target is tilted.,135,5,5,0,1,0,0,0,0,0,0,0,0,0,0,0,0,0,1,135,space,1.9919153999999253,None,1,1,0.5573712000004889,None,,,,0,1,1,1,0,5,5,3,,,,,295.9241556999996,,,,,,,,,,,,,,,,,,,,,295.90853379999953,295.9241556999996,296.4080071999997,296.41258130000006,296.4281649000004,296.99109469999985,1,1,0.5573712000004889,None,296.99122439999974,297.0070761999996,297.2070528000004,297.19086249999964,296.4281649000004,,,,,,,,,,,,,,,,,,,899,20,M,R,2026-02-25_12h28.32.300,VisualSearch_2526_3,,2025.2.4,2026-02-25 12h28.32.504887 +0100,
vertical.xlsx,The target is tilted.,135,6,6,0,1,1,1,1,1,1,1,1,0,0,0,0,0,7,8,135,space,1.9919153999999253,None,1,1,0.8487063000002308,None,,,,0,1,1,1,0,6,6,1,,,,,297.2070528000004,,,,,,,,,,,,,,,,,,,,,297.1915780999998,297.2070528000004,297.69061599999986,297.69524980000006,297.71078359999956,298.5742177000002,1,1,0.8487063000002308,None,298.57440250000036,298.5896875999997,298.7896295999999,298.77337590000025,297.71078359999956,,,,,,,,,,,,,,,,,,,899,20,M,R,2026-02-25_12h28.32.300,VisualSearch_2526_3,,2025.2.4,2026-02-25 12h28.32.504887 +0100,
vertical.xlsx,The target is tilted.,135,7,7,0,0,1,1,1,1,1,1,1,0,0,0,0,1,7,8,135,space,1.9919153999999253,None,0,1,0.8384342999997898,None,,,,0,1,1,1,0,7,7,5,,,,,298.7896295999999,,,,,,,,,,,,,,,,,,,,,298.77406470000005,298.7896295999999,299.2733925000002,299.2777894000001,299.2893359999998,300.14001759999974,0,1,0.8384342999997898,None,300.1402042999998,300.15566599999966,300.35563319999983,300.33942730000035,299.2893359999998,,,,,,,,,,,,,,,,,,,899,20,M,R,2026-02-25_12h28.32.300,VisualSearch_2526_3,,2025.2.4,2026-02-25 12h28.32.504887 +0100,
vertical.xlsx,The target is tilted.,135,0,0,0,0,1,1,1,0,0,0,0,0,0,0,0,1,3,4,135,space,1.9919153999999253,None,0,1,0.6609434000001784,None,space,2.854090699999688,None,0,1,1,1,,,,,0,0,0,6,303.2509536999996,,,,,,,,,,,,,,,,,,,,,303.2469715999996,303.2509536999996,303.7375615000001,303.7423208,303.7572538000004,304.4214357000001,,,,,304.4216413000004,304.43706459999976,304.6369401000002,304.62086869999985,,300.34692259999974,300.35563319999983,300.35563319999983,303.2218598999998,space,2.854090699999688,None,0,1,0.6609434000001784,None,,,,,,,,899,20,M,R,2026-02-25_12h28.32.300,VisualSearch_2526_3,,2025.2.4,2026-02-25 12h28.32.504887 +0100,
vertical.xlsx,The target is tilted.,135,1,1,0,0,1,1,1,1,1,1,1,0,0,0,0,1,7,8,135,space,1.9919153999999253,None,0,1,0.7497752999997829,None,space,2.854090699999688,None,0,1,1,1,,,,,0,1,1,5,304.6369401000002,,,,,,,,,,,,,,,,,,,,,304.6216463999999,304.6369401000002,305.12061879999965,305.12539769999967,305.13931440000033,305.90420579999954,,,,,305.90439779999997,305.9194021000003,306.11930159999974,306.1035645000002,305.13931440000033,,,,,,,,0,1,0.7497752999997829,None,,,,,,,,899,20,M,R,2026-02-25_12h28.32.300,VisualSearch_2526_3,,2025.2.4,2026-02-25 12h28.32.504887 +0100,
vertical.xlsx,The target is tilted.,135,2,2,0,1,0,0,0,0,0,0,0,0,0,0,0,0,0,1,135,space,1.9919153999999253,None,1,1,0.4879331000001912,None,space,2.854090699999688,None,0,1,1,1,,,,,0,2,2,3,306.11930159999974,,,,,,,,,,,,,,,,,,,,,306.10433170000033,306.11930159999974,306.6032986,306.60790759999963,306.6231832000003,307.1202454000004,,,,,307.1204369999996,307.1355477999996,307.33584280000014,307.31964640000024,306.6231832000003,,,,,,,,1,1,0.4879331000001912,None,,,,,,,,899,20,M,R,2026-02-25_12h28.32.300,VisualSearch_2526_3,,2025.2.4,2026-02-25 12h28.32.504887 +0100,
vertical.xlsx,The target is tilted.,135,3,3,0,0,1,1,1,1,1,1,1,1,1,1,1,1,11,12,135,space,1.9919153999999253,None,0,1,0.8380962000001091,None,space,2.854090699999688,None,0,1,1,1,,,,,0,3,3,4,307.33584280000014,,,,,,,,,,,,,,,,,,,,,307.3204082000002,307.33584280000014,307.81937070000004,307.8240384999999,307.83844659999977,308.6851974000001,,,,,308.68543690000024,308.7012408999999,,308.8855156999998,307.83844659999977,,,,,,,,0,1,0.8380962000001091,None,,,,,,,,899,20,M,R,2026-02-25_12h28.32.300,VisualSearch_2526_3,,2025.2.4,2026-02-25 12h28.32.504887 +0100,
vertical.xlsx,The target is tilted.,135,4,4,0,1,1,1,1,1,1,1,1,0,0,0,0,0,7,8,135,space,1.9919153999999253,None,1,1,0.7243030999998155,None,space,2.854090699999688,None,0,1,1,1,,,,,0,4,4,1,308.90180559999953,,,,,,,,,,,,,,,,,,,,,308.8864126999997,308.90180559999953,309.3855163999997,309.38999330000024,309.40507760000037,310.13568940000005,,,,,310.1358830999998,310.15082259999963,310.35114689999955,310.3351110000003,309.40507760000037,,,,,,,,1,1,0.7243030999998155,None,,,,,,,,899,20,M,R,2026-02-25_12h28.32.300,VisualSearch_2526_3,,2025.2.4,2026-02-25 12h28.32.504887 +0100,
vertical.xlsx,The target is tilted.,135,5,5,0,0,0,0,0,0,0,0,0,0,0,0,0,1,1,1,135,space,1.9919153999999253,None,0,1,0.5217351000001145,None,space,2.854090699999688,None,0,1,1,1,,,,,0,5,5,7,310.35114689999955,,,,,,,,,,,,,,,,,,,,,310.3359524999996,310.35114689999955,310.8347553000003,310.83934620000036,310.8528650999997,311.3848103999999,,,,,311.3849690999996,311.4005156000003,311.60019939999984,311.5841429000002,310.8528650999997,,,,,,,,0,1,0.5217351000001145,None,,,,,,,,899,20,M,R,2026-02-25_12h28.32.300,VisualSearch_2526_3,,2025.2.4,2026-02-25 12h28.32.504887 +0100,
vertical.xlsx,The target is tilted.,135,6,6,0,1,1,1,1,1,1,1,1,1,1,1,1,0,11,12,135,space,1.9919153999999253,None,1,1,0.588232799999787,None,space,2.854090699999688,None,0,1,1,1,,,,,0,6,6,0,311.60019939999984,,,,,,,,,,,,,,,,,,,,,311.58496769999965,311.60019939999984,312.08418919999986,312.08889869999985,312.10467289999997,312.7005118999996,,,,,312.70073409999986,312.7166645999996,312.9166249,312.9004063000002,312.10467289999997,,,,,,,,1,1,0.588232799999787,None,,,,,,,,899,20,M,R,2026-02-25_12h28.32.300,VisualSearch_2526_3,,2025.2.4,2026-02-25 12h28.32.504887 +0100,
vertical.xlsx,The target is tilted.,135,7,7,0,1,1,1,1,0,0,0,0,0,0,0,0,0,3,4,135,space,1.9919153999999253,None,1,1,0.5617217999997592,None,space,2.854090699999688,None,0,1,1,1,,,,,0,7,7,2,312.9166249,,,,,,,,,,,,,,,,,,,,,312.90116390000003,312.9166249,313.39983269999993,313.4044928000003,313.4192863999997,313.9834810000002,,,,,313.9836894,313.9991675000001,314.19929030000003,314.18320419999964,313.4192863999997,,,,,,,,1,1,0.5617217999997592,None,,,,,,,,899,20,M,R,2026-02-25_12h28.32.300,VisualSearch_2526_3,,2025.2.4,2026-02-25 12h28.32.504887 +0100,
vertical.xlsx,The target is tilted.,135,8,0,1,0,1,1,1,1,1,1,1,1,1,1,1,1,11,12,135,space,1.9919153999999253,None,0,1,0.9919357999997374,None,space,2.854090699999688,None,0,1,1,1,,,,,1,0,8,4,314.19929030000003,,,,,,,,,,,,,,,,,,,,,314.1840562999996,314.19929030000003,314.6829566999995,314.68761300000006,314.70105499999954,315.69939799999975,,,,,315.6995887000003,315.7152795000002,315.91525980000006,315.8990004999996,314.70105499999954,,,,,,,,0,1,0.9919357999997374,None,,,,,,,,899,20,M,R,2026-02-25_12h28.32.300,VisualSearch_2526_3,,2025.2.4,2026-02-25 12h28.32.504887 +0100,
vertical.xlsx,The target is tilted.,135,9,1,1,0,1,1,1,1,1,1,1,0,0,0,0,1,7,8,135,space,1.9919153999999253,None,0,1,1.0584432999994533,None,space,2.854090699999688,None,0,1,1,1,,,,,1,1,9,5,315.91525980000006,,,,,,,,,,,,,,,,,,,,,315.89975309999954,315.91525980000006,316.3985010999995,316.4031138999999,316.41715339999973,317.48211040000024,,,,,317.48232199999984,317.4976638999997,317.6979287000004,317.68142160000025,316.41715339999973,,,,,,,,0,1,1.0584432999994533,None,,,,,,,,899,20,M,R,2026-02-25_12h28.32.300,VisualSearch_2526_3,,2025.2.4,2026-02-25 12h28.32.504887 +0100,
vertical.xlsx,The target is tilted.,135,10,2,1,0,1,1,1,0,0,0,0,0,0,0,0,1,3,4,135,space,1.9919153999999253,None,0,1,0.5100684999997611,None,space,2.854090699999688,None,0,1,1,1,,,,,1,2,10,6,317.6979287000004,,,,,,,,,,,,,,,,,,,,,317.68229280000014,317.6979287000004,318.18138369999997,318.18595430000005,318.1996081999996,318.7147009999999,,,,,318.71489289999954,318.7304849000002,318.93044980000013,318.91431589999956,318.1996081999996,,,,,,,,0,1,0.5100684999997611,None,,,,,,,,899,20,M,R,2026-02-25_12h28.32.300,VisualSearch_2526_3,,2025.2.4,2026-02-25 12h28.32.504887 +0100,
vertical.xlsx,The target is tilted.,135,11,3,1,1,0,0,0,0,0,0,0,0,0,0,0,0,0,1,135,space,1.9919153999999253,None,1,1,0.5151991999991878,None,space,2.854090699999688,None,0,1,1,1,,,,,1,3,11,3,318.93044980000013,,,,,,,,,,,,,,,,,,,,,318.9150411999999,318.93044980000013,319.4141178,319.4186815000003,319.4322424000002,319.9644973000004,,,,,319.9646912999997,319.9800234000004,320.1798756999997,320.1637756,319.4322424000002,,,,,,,,1,1,0.5151991999991878,None,,,,,,,,899,20,M,R,2026-02-25_12h28.32.300,VisualSearch_2526_3,,2025.2.4,2026-02-25 12h28.32.504887 +0100,
vertical.xlsx,The target is tilted.,135,12,4,1,1,1,1,1,1,1,1,1,1,1,1,1,0,11,12,135,space,1.9919153999999253,None,0,0,1.0148849999995946,None,space,2.854090699999688,None,0,1,1,1,,,,,1,4,12,0,320.1798756999997,,,,,,,,,,,,,,,,,,,,,320.1645325999998,320.1798756999997,320.6636550000003,320.66837940000005,320.68329019999965,321.71307629999956,,,,,321.71330020000005,321.72921640000004,321.9287118000002,321.9131134999998,320.68329019999965,,,,,,,,0,0,1.0148849999995946,None,,,,,,,,899,20,M,R,2026-02-25_12h28.32.300,VisualSearch_2526_3,,2025.2.4,2026-02-25 12h28.32.504887 +0100,
vertical.xlsx,The target is tilted.,135,13,5,1,0,0,0,0,0,0,0,0,0,0,0,0,1,1,1,135,space,1.9919153999999253,None,0,1,0.4592726999999286,None,space,2.854090699999688,None,0,1,1,1,,,,,1,5,13,7,321.9287118000002,,,,,,,,,,,,,,,,,,,,,321.9138420999998,321.9287118000002,322.4127569000002,322.4185209999996,322.43251320000036,322.8958517000001,,,,,322.8960224000002,322.91193810000004,323.1120087999998,323.0960020000002,322.43251320000036,,,,,,,,0,1,0.4592726999999286,None,,,,,,,,899,20,M,R,2026-02-25_12h28.32.300,VisualSearch_2526_3,,2025.2.4,2026-02-25 12h28.32.504887 +0100,
vertical.xlsx,The target is tilted.,135,14,6,1,1,1,1,1,1,1,1,1,0,0,0,0,0,7,8,135,space,1.9919153999999253,None,1,1,0.9758652999998958,None,space,2.854090699999688,None,0,1,1,1,,,,,1,6,14,1,323.1120087999998,,,,,,,,,,,,,,,,,,,,,323.09672429999955,323.1120087999998,323.5956054999997,323.6002255000003,323.6163048999997,324.59543680000024,,,,,324.59563119999984,324.61113599999953,324.81118069999957,324.7950983999999,323.6163048999997,,,,,,,,1,1,0.9758652999998958,None,,,,,,,,899,20,M,R,2026-02-25_12h28.32.300,VisualSearch_2526_3,,2025.2.4,2026-02-25 12h28.32.504887 +0100,
vertical.xlsx,The target is tilted.,135,15,7,1,1,1,1,1,0,0,0,0,0,0,0,0,0,3,4,135,space,1.9919153999999253,None,1,1,0.8901656999996703,None,space,2.854090699999688,None,0,1,1,1,,,,,1,7,15,2,324.81118069999957,,,,,,,,,,,,,,,,,,,,,324.7958445000004,324.81118069999957,325.2947100000001,325.2993389000003,325.31409819999953,326.2108433000003,,,,,326.2110227000003,326.2271075999997,326.42718669999977,326.4109397000002,325.31409819999953,,,,,,,,1,1,0.8901656999996703,None,,,,,,,,899,20,M,R,2026-02-25_12h28.32.300,VisualSearch_2526_3,,2025.2.4,2026-02-25 12h28.32.504887 +0100,
vertical.xlsx,The target is tilted.,135,16,0,2,1,1,1,1,0,0,0,0,0,0,0,0,0,3,4,135,space,1.9919153999999253,None,1,1,0.5644003000006705,None,space,2.854090699999688,None,0,1,1,1,,,,,2,0,16,2,326.42718669999977,,,,,,,,,,,,,,,,,,,,,326.4117008000003,326.42718669999977,326.91089360000024,326.9152573000001,326.92681900000025,327.4943820999997,,,,,327.4946090000003,327.5097980999999,327.70989910000026,327.6936101000001,326.92681900000025,,,,,,,,1,1,0.5644003000006705,None,,,,,,,,899,20,M,R,2026-02-25_12h28.32.300,VisualSearch_2526_3,,2025.2.4,2026-02-25 12h28.32.504887 +0100,
vertical.xlsx,The target is tilted.,135,17,1,2,0,1,1,1,0,0,0,0,0,0,0,0,1,3,4,135,space,1.9919153999999253,None,0,1,0.6025932000002285,None,space,2.854090699999688,None,0,1,1,1,,,,,2,1,17,6,327.70989910000026,,,,,,,,,,,,,,,,,,,,,327.69445129999986,327.70989910000026,328.19352999999956,328.19812420000017,328.21403759999976,328.8268425999995,,,,,328.8270354999995,328.8426072000002,329.04259639999964,329.0264189999998,328.21403759999976,,,,,,,,0,1,0.6025932000002285,None,,,,,,,,899,20,M,R,2026-02-25_12h28.32.300,VisualSearch_2526_3,,2025.2.4,2026-02-25 12h28.32.504887 +0100,
vertical.xlsx,The target is tilted.,135,18,2,2,0,1,1,1,1,1,1,1,1,1,1,1,1,11,12,135,space,1.9919153999999253,None,0,1,0.8292221000001518,None,space,2.854090699999688,None,0,1,1,1,,,,,2,2,18,4,329.04259639999964,,,,,,,,,,,,,,,,,,,,,329.0271925999996,329.04259639999964,329.5263324999996,329.53108299999985,329.5464469999997,330.3930889000003,,,,,330.3932805000004,330.4085034,330.60842479999974,330.59236489999967,329.5464469999997,,,,,,,,0,1,0.8292221000001518,None,,,,,,,,899,20,M,R,2026-02-25_12h28.32.300,VisualSearch_2526_3,,2025.2.4,2026-02-25 12h28.32.504887 +0100,
vertical.xlsx,The target is tilted.,135,19,3,2,0,0,0,0,0,0,0,0,0,0,0,0,1,1,1,135,space,1.9919153999999253,None,0,1,0.49698220000027504,None,space,2.854090699999688,None,0,1,1,1,,,,,2,3,19,7,330.60842479999974,,,,,,,,,,,,,,,,,,,,,330.59313010000005,330.60842479999974,331.0921290999995,331.09675179999977,331.11172890000034,331.62526549999984,,,,,331.62542940000003,331.64124489999995,331.84133910000037,331.82522679999965,331.11172890000034,,,,,,,,0,1,0.49698220000027504,None,,,,,,,,899,20,M,R,2026-02-25_12h28.32.300,VisualSearch_2526_3,,2025.2.4,2026-02-25 12h28.32.504887 +0100,
vertical.xlsx,The target is tilted.,135,20,4,2,1,1,1,1,1,1,1,1,0,0,0,0,0,7,8,135,space,1.9919153999999253,None,0,0,0.8000283000001218,None,space,2.854090699999688,None,0,1,1,1,,,,,2,4,20,1,331.84133910000037,,,,,,,,,,,,,,,,,,,,,331.82608170000003,331.84133910000037,332.3249384999999,332.3294869000001,332.3446224999998,333.1586062999995,,,,,333.1588246000001,333.17351229999986,333.3739942000002,333.3574428000002,332.3446224999998,,,,,,,,0,0,0.8000283000001218,None,,,,,,,,899,20,M,R,2026-02-25_12h28.32.300,VisualSearch_2526_3,,2025.2.4,2026-02-25 12h28.32.504887 +0100,
vertical.xlsx,The target is tilted.,135,21,5,2,0,1,1,1,1,1,1,1,0,0,0,0,1,7,8,135,space,1.9919153999999253,None,0,1,0.836236999999528,None,space,2.854090699999688,None,0,1,1,1,,,,,2,5,21,5,333.3739942000002,,,,,,,,,,,,,,,,,,,,,333.35818610000024,333.3739942000002,333.85727769999994,333.8624855999997,333.8773030000002,334.72404579999966,,,,,334.7241895999996,334.73978669999997,334.9395249999998,334.92382689999977,333.8773030000002,,,,,,,,0,1,0.836236999999528,None,,,,,,,,899,20,M,R,2026-02-25_12h28.32.300,VisualSearch_2526_3,,2025.2.4,2026-02-25 12h28.32.504887 +0100,
vertical.xlsx,The target is tilted.,135,22,6,2,1,0,0,0,0,0,0,0,0,0,0,0,0,0,1,135,space,1.9919153999999253,None,1,1,0.46027390000017476,None,space,2.854090699999688,None,0,1,1,1,,,,,2,6,22,3,334.9395249999998,,,,,,,,,,,,,,,,,,,,,334.9246046999997,334.9395249999998,335.42356370000016,335.42823169999974,335.44304029999967,335.9068858999999,,,,,335.9076108999998,335.92246780000005,336.1221663999995,336.1060513000002,335.44304029999967,,,,,,,,1,1,0.46027390000017476,None,,,,,,,,899,20,M,R,2026-02-25_12h28.32.300,VisualSearch_2526_3,,2025.2.4,2026-02-25 12h28.32.504887 +0100,
vertical.xlsx,The target is tilted.,135,23,7,2,1,1,1,1,1,1,1,1,1,1,1,1,0,11,12,135,space,1.9919153999999253,None,0,0,0.8321252000005188,None,space,2.854090699999688,None,0,1,1,1,,,,,2,7,23,0,336.1221663999995,,,,,,,,,,,,,,,,,,,,,336.10673399999996,336.1221663999995,336.6065007999996,336.61103699999967,336.62687410000035,337.4731587999995,,,,,337.4733513000001,337.48849319999954,337.6885524999998,337.6725336999998,336.62687410000035,,,,,,,,0,0,0.8321252000005188,None,,,,,,,,899,20,M,R,2026-02-25_12h28.32.300,VisualSearch_2526_3,,2025.2.4,2026-02-25 12h28.32.504887 +0100,
vertical.xlsx,The target is tilted.,135,24,0,3,1,1,1,1,1,1,1,1,0,0,0,0,0,7,8,135,space,1.9919153999999253,None,0,0,0.6510046000003058,None,space,2.854090699999688,None,0,1,1,1,,,,,3,0,24,1,337.6885524999998,,,,,,,,,,,,,,,,,,,,,337.6733852999996,337.6885524999998,338.1723836000001,338.17697099999987,338.1907779000003,338.8552067999999,,,,,338.8552818999997,338.87127899999996,339.0714716000002,339.05554289999964,338.1907779000003,,,,,,,,0,0,0.6510046000003058,None,,,,,,,,899,20,M,R,2026-02-25_12h28.32.300,VisualSearch_2526_3,,2025.2.4,2026-02-25 12h28.32.504887 +0100,
vertical.xlsx,The target is tilted.,135,25,1,3,1,1,1,1,1,1,1,1,1,1,1,1,0,11,12,135,space,1.9919153999999253,None,0,0,0.6531603000003088,None,space,2.854090699999688,None,0,1,1,1,,,,,3,1,25,0,339.0714716000002,,,,,,,,,,,,,,,,,,,,,339.0563857999996,339.0714716000002,339.5549428000004,339.55954699999984,339.5755683999996,340.2386951999997,,,,,340.23889659999986,340.2535994,340.45402809999996,340.4378909999996,339.5755683999996,,,,,,,,0,0,0.6531603000003088,None,,,,,,,,899,20,M,R,2026-02-25_12h28.32.300,VisualSearch_2526_3,,2025.2.4,2026-02-25 12h28.32.504887 +0100,
vertical.xlsx,The target is tilted.,135,26,2,3,1,1,1,1,0,0,0,0,0,0,0,0,0,3,4,135,space,1.9919153999999253,None,1,1,0.4810250000000451,None,space,2.854090699999688,None,0,1,1,1,,,,,3,2,26,2,340.45402809999996,,,,,,,,,,,,,,,,,,,,,340.4386486000003,340.45402809999996,340.93781260000014,340.9423035,340.9537472000002,341.43718830000034,,,,,341.4373241000003,341.4534643999996,341.65350260000014,341.6374071,340.9537472000002,,,,,,,,1,1,0.4810250000000451,None,,,,,,,,899,20,M,R,2026-02-25_12h28.32.300,VisualSearch_2526_3,,2025.2.4,2026-02-25 12h28.32.504887 +0100,
vertical.xlsx,The target is tilted.,135,27,3,3,0,1,1,1,1,1,1,1,1,1,1,1,1,11,12,135,space,1.9919153999999253,None,0,1,0.7783996000007392,None,space,2.854090699999688,None,0,1,1,1,,,,,3,3,27,4,341.65350260000014,,,,,,,,,,,,,,,,,,,,,341.6381554999998,341.65350260000014,342.1371615999997,342.14182679999976,342.15695380000034,342.93695019999996,,,,,342.9371046999995,342.95255050000014,343.15286149999974,343.1367559,342.15695380000034,,,,,,,,0,1,0.7783996000007392,None,,,,,,,,899,20,M,R,2026-02-25_12h28.32.300,VisualSearch_2526_3,,2025.2.4,2026-02-25 12h28.32.504887 +0100,
vertical.xlsx,The target is tilted.,135,28,4,3,0,0,0,0,0,0,0,0,0,0,0,0,1,1,1,135,space,1.9919153999999253,None,0,1,0.406304099999943,None,space,2.854090699999688,None,0,1,1,1,,,,,3,4,28,7,343.15286149999974,,,,,,,,,,,,,,,,,,,,,343.1375048,343.15286149999974,343.63642489999984,343.64109559999997,343.6566893999998,344.07010720000017,,,,,344.0702961999996,344.0858027000004,344.2857659000001,344.2694594000004,343.6566893999998,,,,,,,,0,1,0.406304099999943,None,,,,,,,,899,20,M,R,2026-02-25_12h28.32.300,VisualSearch_2526_3,,2025.2.4,2026-02-25 12h28.32.504887 +0100,
vertical.xlsx,The target is tilted.,135,29,5,3,0,1,1,1,1,1,1,1,0,0,0,0,1,7,8,135,space,1.9919153999999253,None,0,1,0.5389979000001404,None,space,2.854090699999688,None,0,1,1,1,,,,,3,5,29,5,344.2857659000001,,,,,,,,,,,,,,,,,,,,,344.27020449999964,344.2857659000001,344.76922600000034,344.77375949999987,344.79090280000037,345.3359598999996,,,,,345.33615550000013,345.3517254999997,345.55184370000006,345.53574930000013,344.79090280000037,,,,,,,,0,1,0.5389979000001404,None,,,,,,,,899,20,M,R,2026-02-25_12h28.32.300,VisualSearch_2526_3,,2025.2.4,2026-02-25 12h28.32.504887 +0100,
vertical.xlsx,The target is tilted.,135,30,6,3,0,1,1,1,0,0,0,0,0,0,0,0,1,3,4,135,space,1.9919153999999253,None,0,1,0.5220618000003014,None,space,2.854090699999688,None,0,1,1,1,,,,,3,6,30,6,345.55184370000006,,,,,,,,,,,,,,,,,,,,,345.53647290000026,345.55184370000006,346.03537810000034,346.04008539999995,346.05524200000036,346.5855499999998,,,,,346.5857256999998,346.6012004000004,346.8008114000004,346.7847119999997,346.05524200000036,,,,,,,,0,1,0.5220618000003014,None,,,,,,,,899,20,M,R,2026-02-25_12h28.32.300,VisualSearch_2526_3,,2025.2.4,2026-02-25 12h28.32.504887 +0100,
vertical.xlsx,The target is tilted.,135,31,7,3,1,0,0,0,0,0,0,0,0,0,0,0,0,0,1,135,space,1.9919153999999253,None,1,1,0.49103139999988343,None,space,2.854090699999688,None,0,1,1,1,,,,,3,7,31,3,346.8008114000004,,,,,,,,,,,,,,,,,,,,,346.7854877,346.8008114000004,347.28480020000006,347.2896036000002,347.3045414999997,347.8013498999999,,,,,347.8014856,347.8173723,348.01730080000016,348.0010642999996,347.3045414999997,,,,,,,,1,1,0.49103139999988343,None,,,,,,,,899,20,M,R,2026-02-25_12h28.32.300,VisualSearch_2526_3,,2025.2.4,2026-02-25 12h28.32.504887 +0100,
vertical.xlsx,The target is tilted.,135,32,0,4,0,1,1,1,1,1,1,1,0,0,0,0,1,7,8,135,space,1.9919153999999253,None,0,1,0.618662900000345,None,space,2.854090699999688,None,0,1,1,1,,,,,4,0,32,5,348.01730080000016,,,,,,,,,,,,,,,,,,,,,348.0018148999998,348.01730080000016,348.50062660000003,348.5053160999996,348.5184282,349.15048209999986,,,,,349.1506065000003,349.1666685,349.36631149999994,349.3505475000002,348.5184282,,,,,,,,0,1,0.618662900000345,None,,,,,,,,899,20,M,R,2026-02-25_12h28.32.300,VisualSearch_2526_3,,2025.2.4,2026-02-25 12h28.32.504887 +0100,
vertical.xlsx,The target is tilted.,135,33,1,4,1,1,1,1,1,1,1,1,1,1,1,1,0,11,12,135,space,1.9919153999999253,None,1,1,0.6509840999997323,None,space,2.854090699999688,None,0,1,1,1,,,,,4,1,33,0,349.36631149999994,,,,,,,,,,,,,,,,,,,,,349.35130409999965,349.36631149999994,349.8503106999997,349.85503249999965,349.8690206000001,350.53325909999967,,,,,350.5333781999998,350.5489719999996,350.7493942000001,350.73310949999996,349.8690206000001,,,,,,,,1,1,0.6509840999997323,None,,,,,,,,899,20,M,R,2026-02-25_12h28.32.300,VisualSearch_2526_3,,2025.2.4,2026-02-25 12h28.32.504887 +0100,
