file_name,block_instructions,target_example,thisN,thisTrialN,thisRepN,target_presence,opacity_1,opacity_2,opacity_3,opacity_4,opacity_5,opacity_6,opacity_7,opacity_8,opacity_9,opacity_10,opacity_11,opacity_12,n_distract,n_items,target_ori,key_resp_4.keys,key_resp_4.rt,key_resp_4.duration,key_resp.keys,key_resp.corr,key_resp.rt,key_resp.duration,key_resp_5.keys,key_resp_5.rt,key_resp_5.duration,blocks.thisRepN,blocks.thisTrialN,blocks.thisN,blocks.thisIndex,practice_trials.thisRepN,practice_trials.thisTrialN,practice_trials.thisN,practice_trials.thisIndex,trials.thisRepN,trials.thisTrialN,trials.thisN,trials.thisIndex,thisRow.t,notes,Welcome.started,WelcomeText.started,key_resp_2.started,Welcome.stopped,key_resp_2.keys,key_resp_2.rt,key_resp_2.duration,InformedConsent.started,text_4.started,InformedConsent.stopped,key_resp_6.keys,key_resp_6.rt,key_resp_6.duration,key_resp_4.started,example_target.started,text_3.started,blocks.key_resp_4.keys,blocks.key_resp_4.rt,blocks.key_resp_4.duration,FixCross.started,fixCross.started,FixCross.stopped,Stimulus.started,key_resp.started,Stimulus.stopped,practice_trials.key_resp.keys,practice_trials.key_resp.corr,practice_trials.key_resp.rt,practice_trials.key_resp.duration,BlankScreen.started,text.started,text.stopped,BlankScreen.stopped,fixCross.stopped,ExperimentStart.started,text_2.started,key_resp_5.started,ExperimentStart.stopped,blocks.key_resp_5.keys,blocks.key_resp_5.rt,blocks.key_resp_5.duration,trials.key_resp.keys,trials.key_resp.corr,trials.key_resp.rt,trials.key_resp.duration,Thanks.started,ThankYou.started,key_resp_3.started,Thanks.stopped,key_resp_3.keys,key_resp_3.rt,key_resp_3.duration,participant,leeftijd,gender,links/rechtshandig,date,expName,expVersion,psychopyVersion,expStart,
,,,,,,,,,,,,,,,,,,,,,,,,,,,,,,,,,,,,,,,,,,,,,,0.024505099999942104,0.053295999999932064,0.053295999999932064,62.78896969999994,space,62.64530679999996,None,,,,,,,,,,,,,,,,,,,,,,,,,,,,,,,,,,,,,,,,,,,,,,908,18,M,L,2026-02-23_11h10.25.533,VisualSearch_2526_3,,2025.2.4,2026-02-23 11h10.26.027120 +0100,
,,,,,,,,,,,,,,,,,,,,,,,,,,,,,,,,,,,,,,,,,,,,,,,,,,,,,62.78901239999993,62.79398249999997,81.24504400000001,y,18.443690800000013,None,,,,,,,,,,,,,,,,,,,,,,,,,,,,,,,,,,,,,,,,908,18,M,L,2026-02-23_11h10.25.533,VisualSearch_2526_3,,2025.2.4,2026-02-23 11h10.26.027120 +0100,
vertical.xlsx,The target is tilted.,135,0,0,0,0,1,1,1,1,1,1,1,0,0,0,0,1,7,8,135,space,5.331705100000022,None,0,1,1.5176474000001008,None,,,,0,0,0,1,0,0,0,5,,,,,86.75612339999998,,,,,,,,,,,,,,,81.34911039999997,81.34911039999997,81.34911039999997,space,5.331705100000022,None,86.75219870000001,86.75612339999998,87.20878419999997,87.21012989999997,87.22536070000001,88.76038829999993,0,1,1.5176474000001008,None,88.76057949999995,88.77558650000003,88.97598729999993,88.95987349999996,,,,,,,,,,,,,,,,,,,,908,18,M,L,2026-02-23_11h10.25.533,VisualSearch_2526_3,,2025.2.4,2026-02-23 11h10.26.027120 +0100,
vertical.xlsx,The target is tilted.,135,1,1,0,0,1,1,1,1,1,1,1,1,1,1,1,1,11,12,135,space,5.331705100000022,None,0,1,1.6008964000000105,None,,,,0,0,0,1,0,1,1,4,,,,,88.97598729999993,,,,,,,,,,,,,,,,,,,,,88.96053989999996,88.97598729999993,89.45944209999993,89.46398209999995,89.47513040000001,91.09200229999999,0,1,1.6008964000000105,None,91.09205339999994,91.10831759999996,91.30807959999993,91.29161450000004,89.47513040000001,,,,,,,,,,,,,,,,,,,908,18,M,L,2026-02-23_11h10.25.533,VisualSearch_2526_3,,2025.2.4,2026-02-23 11h10.26.027120 +0100,
vertical.xlsx,The target is tilted.,135,2,2,0,1,1,1,1,0,0,0,0,0,0,0,0,0,3,4,135,space,5.331705100000022,None,1,1,0.7921982999999955,None,,,,0,0,0,1,0,2,2,2,,,,,91.30807959999993,,,,,,,,,,,,,,,,,,,,,91.29181459999995,91.30807959999993,91.79155939999998,91.79274169999997,91.80830560000004,92.60948899999994,1,1,0.7921982999999955,None,92.609644,92.62488299999995,92.82520239999997,92.80888529999993,91.80830560000004,,,,,,,,,,,,,,,,,,,908,18,M,L,2026-02-23_11h10.25.533,VisualSearch_2526_3,,2025.2.4,2026-02-23 11h10.26.027120 +0100,
vertical.xlsx,The target is tilted.,135,3,3,0,0,1,1,1,0,0,0,0,0,0,0,0,1,3,4,135,space,5.331705100000022,None,0,1,0.7402301000000762,None,,,,0,0,0,1,0,3,3,6,,,,,92.82520239999997,,,,,,,,,,,,,,,,,,,,,92.80945710000003,92.82520239999997,93.30879429999993,93.31347070000004,93.32591479999996,94.07474460000003,0,1,0.7402301000000762,None,94.0748039,94.09133369999995,94.29106969999998,94.27447499999994,93.32591479999996,,,,,,,,,,,,,,,,,,,908,18,M,L,2026-02-23_11h10.25.533,VisualSearch_2526_3,,2025.2.4,2026-02-23 11h10.26.027120 +0100,
vertical.xlsx,The target is tilted.,135,4,4,0,1,0,0,0,0,0,0,0,0,0,0,0,0,0,1,135,space,5.331705100000022,None,1,1,0.6283012000000099,None,,,,0,0,0,1,0,4,4,3,,,,,94.29106969999998,,,,,,,,,,,,,,,,,,,,,94.27466859999993,94.29106969999998,94.7746469,94.77587549999998,94.79133030000003,95.42466860000002,1,1,0.6283012000000099,None,95.42475969999998,95.44082209999999,95.64078359999996,95.62428320000004,94.79133030000003,,,,,,,,,,,,,,,,,,,908,18,M,L,2026-02-23_11h10.25.533,VisualSearch_2526_3,,2025.2.4,2026-02-23 11h10.26.027120 +0100,
vertical.xlsx,The target is tilted.,135,5,5,0,1,1,1,1,1,1,1,1,1,1,1,1,0,11,12,135,space,5.331705100000022,None,1,1,1.238625500000012,None,,,,0,0,0,1,0,5,5,0,,,,,95.64078359999996,,,,,,,,,,,,,,,,,,,,,95.62449830000003,95.64078359999996,96.12464739999996,96.12625000000003,96.14120969999999,97.39109689999998,1,1,1.238625500000012,None,97.39116249999995,97.40720279999994,,97.59168690000001,96.14120969999999,,,,,,,,,,,,,,,,,,,908,18,M,L,2026-02-23_11h10.25.533,VisualSearch_2526_3,,2025.2.4,2026-02-23 11h10.26.027120 +0100,
vertical.xlsx,The target is tilted.,135,6,6,0,0,0,0,0,0,0,0,0,0,0,0,0,1,1,1,135,space,5.331705100000022,None,0,1,0.5640008999999964,None,,,,0,0,0,1,0,6,6,7,,,,,97.6078086,,,,,,,,,,,,,,,,,,,,,97.59238870000001,97.6078086,98.09072370000001,98.09217609999996,98.10715909999999,98.67500529999995,0,1,0.5640008999999964,None,98.67514289999997,98.69062459999998,98.8909989,98.87456220000001,98.10715909999999,,,,,,,,,,,,,,,,,,,908,18,M,L,2026-02-23_11h10.25.533,VisualSearch_2526_3,,2025.2.4,2026-02-23 11h10.26.027120 +0100,
vertical.xlsx,The target is tilted.,135,7,7,0,1,1,1,1,1,1,1,1,0,0,0,0,0,7,8,135,space,5.331705100000022,None,1,1,0.9307336000000532,None,,,,0,0,0,1,0,7,7,1,,,,,98.8909989,,,,,,,,,,,,,,,,,,,,,98.87499049999997,98.8909989,99.3751009,99.38011029999996,99.39842539999995,100.34056569999996,1,1,0.9307336000000532,None,100.34062549999999,100.35679519999997,100.55685619999997,100.54041080000002,99.39842539999995,,,,,,,,,,,,,,,,,,,908,18,M,L,2026-02-23_11h10.25.533,VisualSearch_2526_3,,2025.2.4,2026-02-23 11h10.26.027120 +0100,
vertical.xlsx,The target is tilted.,135,0,0,0,0,1,1,1,1,1,1,1,1,1,1,1,1,11,12,135,space,5.331705100000022,None,0,1,1.803937200000064,None,space,3.0084100000000262,None,0,0,0,1,,,,,0,0,0,4,103.59208579999995,,,,,,,,,,,,,,,,,,,,,103.58847679999997,103.59208579999995,104.090598,104.09630670000001,104.11385389999998,105.9237951,,,,,105.92390749999993,105.93942960000004,106.1397657,106.12374269999998,,100.54347050000001,100.55685619999997,100.55685619999997,103.57370589999994,space,3.0084100000000262,None,0,1,1.803937200000064,None,,,,,,,,908,18,M,L,2026-02-23_11h10.25.533,VisualSearch_2526_3,,2025.2.4,2026-02-23 11h10.26.027120 +0100,
vertical.xlsx,The target is tilted.,135,1,1,0,1,1,1,1,1,1,1,1,0,0,0,0,0,7,8,135,space,5.331705100000022,None,1,1,1.0058290999999144,None,space,3.0084100000000262,None,0,0,0,1,,,,,0,1,1,1,106.1397657,,,,,,,,,,,,,,,,,,,,,106.12448589999997,106.1397657,106.62274539999999,106.62417199999993,106.63927460000002,107.65775559999997,,,,,107.65795249999996,107.67278509999994,107.8731626,107.85696970000004,106.63927460000002,,,,,,,,1,1,1.0058290999999144,None,,,,,,,,908,18,M,L,2026-02-23_11h10.25.533,VisualSearch_2526_3,,2025.2.4,2026-02-23 11h10.26.027120 +0100,
vertical.xlsx,The target is tilted.,135,2,2,0,1,0,0,0,0,0,0,0,0,0,0,0,0,0,1,135,space,5.331705100000022,None,1,1,0.6218966999999793,None,space,3.0084100000000262,None,0,0,0,1,,,,,0,2,2,3,107.8731626,,,,,,,,,,,,,,,,,,,,,107.85768069999995,107.8731626,108.35668839999994,108.36146550000001,108.37610659999996,109.00743349999993,,,,,109.0076282,109.02259349999997,109.22264999999993,109.20634269999994,108.37610659999996,,,,,,,,1,1,0.6218966999999793,None,,,,,,,,908,18,M,L,2026-02-23_11h10.25.533,VisualSearch_2526_3,,2025.2.4,2026-02-23 11h10.26.027120 +0100,
vertical.xlsx,The target is tilted.,135,3,3,0,1,1,1,1,0,0,0,0,0,0,0,0,0,3,4,135,space,5.331705100000022,None,1,1,0.4998953999999003,None,space,3.0084100000000262,None,0,0,0,1,,,,,0,3,3,2,109.22264999999993,,,,,,,,,,,,,,,,,,,,,109.20674739999993,109.22264999999993,109.70649849999995,109.71128609999994,109.72481529999993,110.23915790000001,,,,,110.23921919999998,110.2554179,110.45533260000002,110.43886699999996,109.72481529999993,,,,,,,,1,1,0.4998953999999003,None,,,,,,,,908,18,M,L,2026-02-23_11h10.25.533,VisualSearch_2526_3,,2025.2.4,2026-02-23 11h10.26.027120 +0100,
vertical.xlsx,The target is tilted.,135,4,4,0,0,1,1,1,0,0,0,0,0,0,0,0,1,3,4,135,space,5.331705100000022,None,0,1,0.6507132000000411,None,space,3.0084100000000262,None,0,0,0,1,,,,,0,4,4,6,110.45533260000002,,,,,,,,,,,,,,,,,,,,,110.43910310000001,110.45533260000002,110.93923310000002,110.94069739999998,110.9556791,111.62277689999996,,,,,111.62285569999995,111.638914,111.83868949999999,111.82207559999995,110.9556791,,,,,,,,0,1,0.6507132000000411,None,,,,,,,,908,18,M,L,2026-02-23_11h10.25.533,VisualSearch_2526_3,,2025.2.4,2026-02-23 11h10.26.027120 +0100,
vertical.xlsx,The target is tilted.,135,5,5,0,0,1,1,1,1,1,1,1,0,0,0,0,1,7,8,135,space,5.331705100000022,None,0,1,1.4619364999999789,None,space,3.0084100000000262,None,0,0,0,1,,,,,0,5,5,5,111.83868949999999,,,,,,,,,,,,,,,,,,,,,111.82227169999999,111.83868949999999,112.32214339999996,112.3240389,112.33890669999994,113.80532340000002,,,,,113.80541219999998,113.82154909999997,114.02174009999999,114.0055992,112.33890669999994,,,,,,,,0,1,1.4619364999999789,None,,,,,,,,908,18,M,L,2026-02-23_11h10.25.533,VisualSearch_2526_3,,2025.2.4,2026-02-23 11h10.26.027120 +0100,
vertical.xlsx,The target is tilted.,135,6,6,0,1,1,1,1,1,1,1,1,1,1,1,1,0,11,12,135,space,5.331705100000022,None,1,1,0.8724895000000288,None,space,3.0084100000000262,None,0,0,0,1,,,,,0,6,6,0,114.02174009999999,,,,,,,,,,,,,,,,,,,,,114.00610410000002,114.02174009999999,114.50508619999994,114.50641499999995,114.52158710000003,115.40504639999995,,,,,115.40511089999995,115.42132359999994,115.62130219999995,115.60488069999997,114.52158710000003,,,,,,,,1,1,0.8724895000000288,None,,,,,,,,908,18,M,L,2026-02-23_11h10.25.533,VisualSearch_2526_3,,2025.2.4,2026-02-23 11h10.26.027120 +0100,
vertical.xlsx,The target is tilted.,135,7,7,0,0,0,0,0,0,0,0,0,0,0,0,0,1,1,1,135,space,5.331705100000022,None,0,1,0.45032639999999446,None,space,3.0084100000000262,None,0,0,0,1,,,,,0,7,7,7,115.62130219999995,,,,,,,,,,,,,,,,,,,,,115.6051688,115.62130219999995,116.10488029999999,116.10666230000004,116.12127989999999,116.58860459999994,,,,,116.58868859999995,116.60479029999999,116.80462909999994,116.78834299999994,116.12127989999999,,,,,,,,0,1,0.45032639999999446,None,,,,,,,,908,18,M,L,2026-02-23_11h10.25.533,VisualSearch_2526_3,,2025.2.4,2026-02-23 11h10.26.027120 +0100,
vertical.xlsx,The target is tilted.,135,8,0,1,1,1,1,1,1,1,1,1,1,1,1,1,0,11,12,135,space,5.331705100000022,None,1,1,1.1580470000000105,None,space,3.0084100000000262,None,0,0,0,1,,,,,1,0,8,0,116.80462909999994,,,,,,,,,,,,,,,,,,,,,116.78860659999998,116.80462909999994,117.28826129999993,117.29237669999998,117.30470609999998,118.47146539999994,,,,,118.47155450000002,118.4875366,118.68749969999999,118.67138179999995,117.30470609999998,,,,,,,,1,1,1.1580470000000105,None,,,,,,,,908,18,M,L,2026-02-23_11h10.25.533,VisualSearch_2526_3,,2025.2.4,2026-02-23 11h10.26.027120 +0100,
vertical.xlsx,The target is tilted.,135,9,1,1,1,1,1,1,1,1,1,1,0,0,0,0,0,7,8,135,space,5.331705100000022,None,1,1,0.716438900000071,None,space,3.0084100000000262,None,0,0,0,1,,,,,1,1,9,1,118.68749969999999,,,,,,,,,,,,,,,,,,,,,118.67180359999998,118.68749969999999,119.17093409999995,119.17226429999994,119.1875139,119.90471179999997,,,,,119.90479779999998,119.92085150000003,120.12068069999998,120.1041649,119.1875139,,,,,,,,1,1,0.716438900000071,None,,,,,,,,908,18,M,L,2026-02-23_11h10.25.533,VisualSearch_2526_3,,2025.2.4,2026-02-23 11h10.26.027120 +0100,
vertical.xlsx,The target is tilted.,135,10,2,1,0,1,1,1,1,1,1,1,0,0,0,0,1,7,8,135,space,5.331705100000022,None,0,1,1.1539735000000064,None,space,3.0084100000000262,None,0,0,0,1,,,,,1,2,10,5,120.12068069999998,,,,,,,,,,,,,,,,,,,,,120.10437189999993,120.12068069999998,120.60459600000002,120.6071786,120.62137429999996,121.7884527,,,,,121.78866489999996,121.80391150000003,122.00446079999995,121.98801560000004,120.62137429999996,,,,,,,,0,1,1.1539735000000064,None,,,,,,,,908,18,M,L,2026-02-23_11h10.25.533,VisualSearch_2526_3,,2025.2.4,2026-02-23 11h10.26.027120 +0100,
vertical.xlsx,The target is tilted.,135,11,3,1,0,1,1,1,0,0,0,0,0,0,0,0,1,3,4,135,space,5.331705100000022,None,0,1,0.8105246999999736,None,space,3.0084100000000262,None,0,0,0,1,,,,,1,3,11,6,122.00446079999995,,,,,,,,,,,,,,,,,,,,,121.98874620000004,122.00446079999995,122.48730260000002,122.48879820000002,122.50362740000003,123.32118489999993,,,,,123.32130640000003,123.33705680000003,123.53707020000002,123.52063680000003,122.50362740000003,,,,,,,,0,1,0.8105246999999736,None,,,,,,,,908,18,M,L,2026-02-23_11h10.25.533,VisualSearch_2526_3,,2025.2.4,2026-02-23 11h10.26.027120 +0100,
vertical.xlsx,The target is tilted.,135,12,4,1,0,1,1,1,1,1,1,1,1,1,1,1,1,11,12,135,space,5.331705100000022,None,0,1,1.3543125999999575,None,space,3.0084100000000262,None,0,0,0,1,,,,,1,4,12,4,123.53707020000002,,,,,,,,,,,,,,,,,,,,,123.52095599999996,123.53707020000002,124.02129159999993,124.02606560000004,124.04354439999997,125.40399769999999,,,,,125.40408100000002,125.41987499999993,125.6205483,125.60408299999995,124.04354439999997,,,,,,,,0,1,1.3543125999999575,None,,,,,,,,908,18,M,L,2026-02-23_11h10.25.533,VisualSearch_2526_3,,2025.2.4,2026-02-23 11h10.26.027120 +0100,
vertical.xlsx,The target is tilted.,135,13,5,1,0,0,0,0,0,0,0,0,0,0,0,0,1,1,1,135,space,5.331705100000022,None,0,1,0.5172113000000991,None,space,3.0084100000000262,None,0,0,0,1,,,,,1,5,13,7,125.6205483,,,,,,,,,,,,,,,,,,,,,125.60466299999996,125.6205483,126.10369460000004,126.10620499999993,126.11983659999999,126.65384599999993,,,,,126.65390990000003,126.66997730000003,126.86969109999995,126.85322109999993,126.11983659999999,,,,,,,,0,1,0.5172113000000991,None,,,,,,,,908,18,M,L,2026-02-23_11h10.25.533,VisualSearch_2526_3,,2025.2.4,2026-02-23 11h10.26.027120 +0100,
vertical.xlsx,The target is tilted.,135,14,6,1,1,0,0,0,0,0,0,0,0,0,0,0,0,0,1,135,space,5.331705100000022,None,1,1,0.5020921999999928,None,space,3.0084100000000262,None,0,0,0,1,,,,,1,6,14,3,126.86969109999995,,,,,,,,,,,,,,,,,,,,,126.8534535,126.86969109999995,127.35342019999996,127.3554216,127.37011039999993,127.88715760000002,,,,,127.88726929999996,127.90297329999999,128.1036024,128.0873914,127.37011039999993,,,,,,,,1,1,0.5020921999999928,None,,,,,,,,908,18,M,L,2026-02-23_11h10.25.533,VisualSearch_2526_3,,2025.2.4,2026-02-23 11h10.26.027120 +0100,
vertical.xlsx,The target is tilted.,135,15,7,1,1,1,1,1,0,0,0,0,0,0,0,0,0,3,4,135,space,5.331705100000022,None,1,1,0.5520397999999886,None,space,3.0084100000000262,None,0,0,0,1,,,,,1,7,15,2,128.1036024,,,,,,,,,,,,,,,,,,,,,128.08814859999995,128.1036024,128.58630110000001,128.58763899999997,128.60281169999996,129.16988089999995,,,,,129.16998279999996,129.1866566,,129.3700242,128.60281169999996,,,,,,,,1,1,0.5520397999999886,None,,,,,,,,908,18,M,L,2026-02-23_11h10.25.533,VisualSearch_2526_3,,2025.2.4,2026-02-23 11h10.26.027120 +0100,
vertical.xlsx,The target is tilted.,135,16,0,2,0,1,1,1,1,1,1,1,1,1,1,1,1,11,12,135,space,5.331705100000022,None,0,1,1.6709765000000516,None,space,3.0084100000000262,None,0,0,0,1,,,,,2,0,16,4,129.38656719999994,,,,,,,,,,,,,,,,,,,,,129.37033469999994,129.38656719999994,129.87042499999995,129.87548200000003,129.8866805,131.56941989999996,,,,,131.56947990000003,131.58564590000003,131.78563629999996,131.76916099999994,,,,,,,,,0,1,1.6709765000000516,None,,,,,,,,908,18,M,L,2026-02-23_11h10.25.533,VisualSearch_2526_3,,2025.2.4,2026-02-23 11h10.26.027120 +0100,
vertical.xlsx,The target is tilted.,135,17,1,2,1,0,0,0,0,0,0,0,0,0,0,0,0,0,1,135,space,5.331705100000022,None,1,1,0.5536593000000494,None,space,3.0084100000000262,None,0,0,0,1,,,,,2,1,17,3,131.78563629999996,,,,,,,,,,,,,,,,,,,,,131.76941450000004,131.78563629999996,132.26933199999996,132.2713076,132.28603739999994,132.85255410000002,,,,,132.85261730000002,132.8688029,133.0688156,133.0525751,132.28603739999994,,,,,,,,1,1,0.5536593000000494,None,,,,,,,,908,18,M,L,2026-02-23_11h10.25.533,VisualSearch_2526_3,,2025.2.4,2026-02-23 11h10.26.027120 +0100,
vertical.xlsx,The target is tilted.,135,18,2,2,0,1,1,1,1,1,1,1,0,0,0,0,1,7,8,135,space,5.331705100000022,None,0,1,0.831408300000021,None,space,3.0084100000000262,None,0,0,0,1,,,,,2,2,18,5,133.0688156,,,,,,,,,,,,,,,,,,,,,133.05290909999997,133.0688156,133.55225199999995,133.55352570000002,133.56877099999997,134.40351569999996,,,,,134.40371689999995,134.41871359999993,134.61916199999996,134.60294999999996,133.56877099999997,,,,,,,,0,1,0.831408300000021,None,,,,,,,,908,18,M,L,2026-02-23_11h10.25.533,VisualSearch_2526_3,,2025.2.4,2026-02-23 11h10.26.027120 +0100,
vertical.xlsx,The target is tilted.,135,19,3,2,1,1,1,1,0,0,0,0,0,0,0,0,0,3,4,135,space,5.331705100000022,None,1,1,0.6067934999999807,None,space,3.0084100000000262,None,0,0,0,1,,,,,2,3,19,2,134.61916199999996,,,,,,,,,,,,,,,,,,,,,134.60372139999993,134.61916199999996,135.10230790000003,135.10425550000002,135.11859960000004,135.73734490000004,,,,,135.73755170000004,135.7521951,135.9522187,135.93632579999996,135.11859960000004,,,,,,,,1,1,0.6067934999999807,None,,,,,,,,908,18,M,L,2026-02-23_11h10.25.533,VisualSearch_2526_3,,2025.2.4,2026-02-23 11h10.26.027120 +0100,
vertical.xlsx,The target is tilted.,135,20,4,2,0,0,0,0,0,0,0,0,0,0,0,0,1,1,1,135,space,5.331705100000022,None,0,1,0.5893124000000398,None,space,3.0084100000000262,None,0,0,0,1,,,,,2,4,20,7,135.9522187,,,,,,,,,,,,,,,,,,,,,135.9370583,135.9522187,136.4355719,136.437994,136.4518266,137.05324010000004,,,,,137.05343570000002,137.06858190000003,137.2686357,137.25199339999995,136.4518266,,,,,,,,0,1,0.5893124000000398,None,,,,,,,,908,18,M,L,2026-02-23_11h10.25.533,VisualSearch_2526_3,,2025.2.4,2026-02-23 11h10.26.027120 +0100,
vertical.xlsx,The target is tilted.,135,21,5,2,1,1,1,1,1,1,1,1,1,1,1,1,0,11,12,135,space,5.331705100000022,None,1,1,1.00033140000005,None,space,3.0084100000000262,None,0,0,0,1,,,,,2,5,21,0,137.2686357,,,,,,,,,,,,,,,,,,,,,137.25240539999993,137.2686357,137.75248249999993,137.75731689999998,137.77506600000004,138.7850879,,,,,138.78514859999996,138.8012824,139.00129189999996,138.98487639999996,137.77506600000004,,,,,,,,1,1,1.00033140000005,None,,,,,,,,908,18,M,L,2026-02-23_11h10.25.533,VisualSearch_2526_3,,2025.2.4,2026-02-23 11h10.26.027120 +0100,
vertical.xlsx,The target is tilted.,135,22,6,2,1,1,1,1,1,1,1,1,0,0,0,0,0,7,8,135,space,5.331705100000022,None,1,1,0.6549770000000308,None,space,3.0084100000000262,None,0,0,0,1,,,,,2,6,22,1,139.00129189999996,,,,,,,,,,,,,,,,,,,,,138.98511640000004,139.00129189999996,139.4849163,139.48627850000003,139.5015406,140.16850850000003,,,,,140.16858819999993,140.184526,140.38495690000002,140.36794580000003,139.5015406,,,,,,,,1,1,0.6549770000000308,None,,,,,,,,908,18,M,L,2026-02-23_11h10.25.533,VisualSearch_2526_3,,2025.2.4,2026-02-23 11h10.26.027120 +0100,
vertical.xlsx,The target is tilted.,135,23,7,2,0,1,1,1,0,0,0,0,0,0,0,0,1,3,4,135,space,5.331705100000022,None,0,1,0.5666971999999078,None,space,3.0084100000000262,None,0,0,0,1,,,,,2,7,23,6,140.38495690000002,,,,,,,,,,,,,,,,,,,,,140.36815969999998,140.38495690000002,140.86814600000002,140.8697687,140.88472079999997,141.46801619999997,,,,,141.4680902,141.4842863,141.6843252,141.66836839999996,140.88472079999997,,,,,,,,0,1,0.5666971999999078,None,,,,,,,,908,18,M,L,2026-02-23_11h10.25.533,VisualSearch_2526_3,,2025.2.4,2026-02-23 11h10.26.027120 +0100,
vertical.xlsx,The target is tilted.,135,24,0,3,1,1,1,1,0,0,0,0,0,0,0,0,0,3,4,135,space,5.331705100000022,None,1,1,0.5877731999999014,None,space,3.0084100000000262,None,0,0,0,1,,,,,3,0,24,2,141.6843252,,,,,,,,,,,,,,,,,,,,,141.66894949999994,141.6843252,142.16771789999996,142.16910129999997,142.18417679999993,142.78477739999994,,,,,142.78489319999994,142.80091059999995,,142.98522890000004,142.18417679999993,,,,,,,,1,1,0.5877731999999014,None,,,,,,,,908,18,M,L,2026-02-23_11h10.25.533,VisualSearch_2526_3,,2025.2.4,2026-02-23 11h10.26.027120 +0100,
vertical.xlsx,The target is tilted.,135,25,1,3,1,1,1,1,1,1,1,1,0,0,0,0,0,7,8,135,space,5.331705100000022,None,1,1,0.7072324000000663,None,space,3.0084100000000262,None,0,0,0,1,,,,,3,1,25,1,143.00110299999994,,,,,,,,,,,,,,,,,,,,,142.9861426,143.00110299999994,143.4842185,143.48596150000003,143.50068199999998,144.21794590000002,,,,,144.21800759999996,144.23413649999998,144.43431299999997,144.41729199999997,143.50068199999998,,,,,,,,1,1,0.7072324000000663,None,,,,,,,,908,18,M,L,2026-02-23_11h10.25.533,VisualSearch_2526_3,,2025.2.4,2026-02-23 11h10.26.027120 +0100,
vertical.xlsx,The target is tilted.,135,26,2,3,1,0,0,0,0,0,0,0,0,0,0,0,0,0,1,135,space,5.331705100000022,None,1,1,0.5756033999999772,None,space,3.0084100000000262,None,0,0,0,1,,,,,3,2,26,3,144.43431299999997,,,,,,,,,,,,,,,,,,,,,144.41747599999997,144.43431299999997,144.91810239999995,144.9228557,144.9401259,145.51737589999993,,,,,145.51743269999997,145.53364939999994,145.73365189999993,145.71716689999994,144.9401259,,,,,,,,1,1,0.5756033999999772,None,,,,,,,,908,18,M,L,2026-02-23_11h10.25.533,VisualSearch_2526_3,,2025.2.4,2026-02-23 11h10.26.027120 +0100,
vertical.xlsx,The target is tilted.,135,27,3,3,0,1,1,1,1,1,1,1,1,1,1,1,1,11,12,135,space,5.331705100000022,None,0,1,1.7462189999999964,None,space,3.0084100000000262,None,0,0,0,1,,,,,3,3,27,4,145.73365189999993,,,,,,,,,,,,,,,,,,,,,145.71740090000003,145.73365189999993,146.21750020000002,146.21909170000004,146.2339101,147.98376080000003,,,,,147.98382070000002,148.00003779999997,,148.18431079999993,146.2339101,,,,,,,,0,1,1.7462189999999964,None,,,,,,,,908,18,M,L,2026-02-23_11h10.25.533,VisualSearch_2526_3,,2025.2.4,2026-02-23 11h10.26.027120 +0100,
vertical.xlsx,The target is tilted.,135,28,4,3,0,1,1,1,1,1,1,1,0,0,0,0,1,7,8,135,space,5.331705100000022,None,0,1,1.2861401000000114,None,space,3.0084100000000262,None,0,0,0,1,,,,,3,4,28,5,148.20041530000003,,,,,,,,,,,,,,,,,,,,,148.18519619999995,148.20041530000003,148.68410949999998,148.6894529,148.70618230000002,150.00036909999994,,,,,150.00041999999996,150.01670920000004,150.2164024,150.19974609999997,,,,,,,,,0,1,1.2861401000000114,None,,,,,,,,908,18,M,L,2026-02-23_11h10.25.533,VisualSearch_2526_3,,2025.2.4,2026-02-23 11h10.26.027120 +0100,
vertical.xlsx,The target is tilted.,135,29,5,3,0,0,0,0,0,0,0,0,0,0,0,0,1,1,1,135,space,5.331705100000022,None,0,1,0.9192983000000368,None,space,3.0084100000000262,None,0,0,0,1,,,,,3,5,29,7,150.2164024,,,,,,,,,,,,,,,,,,,,,150.19994499999996,150.2164024,150.70027619999996,150.70155639999996,150.71660459999998,151.65048779999995,,,,,151.65061500000002,151.66640699999994,151.86666849999995,151.85009379999997,150.71660459999998,,,,,,,,0,1,0.9192983000000368,None,,,,,,,,908,18,M,L,2026-02-23_11h10.25.533,VisualSearch_2526_3,,2025.2.4,2026-02-23 11h10.26.027120 +0100,
vertical.xlsx,The target is tilted.,135,30,6,3,0,1,1,1,0,0,0,0,0,0,0,0,1,3,4,135,space,5.331705100000022,None,0,1,0.7348885999999766,None,space,3.0084100000000262,None,0,0,0,1,,,,,3,6,30,6,151.86666849999995,,,,,,,,,,,,,,,,,,,,,151.85045919999993,151.86666849999995,152.35077649999994,152.3558762,152.36613149999994,153.11639030000003,,,,,153.11647779999998,153.13284049999993,153.3325499,153.3160338,152.36613149999994,,,,,,,,0,1,0.7348885999999766,None,,,,,,,,908,18,M,L,2026-02-23_11h10.25.533,VisualSearch_2526_3,,2025.2.4,2026-02-23 11h10.26.027120 +0100,
vertical.xlsx,The target is tilted.,135,31,7,3,1,1,1,1,1,1,1,1,1,1,1,1,0,11,12,135,space,5.331705100000022,None,1,1,0.5871967999999015,None,space,3.0084100000000262,None,0,0,0,1,,,,,3,7,31,0,153.3325499,,,,,,,,,,,,,,,,,,,,,153.31624020000004,153.3325499,153.81633399999998,153.8178947,153.83254309999995,154.43329119999999,,,,,154.433399,154.44915100000003,154.6496813,154.6336334,153.83254309999995,,,,,,,,1,1,0.5871967999999015,None,,,,,,,,908,18,M,L,2026-02-23_11h10.25.533,VisualSearch_2526_3,,2025.2.4,2026-02-23 11h10.26.027120 +0100,
vertical.xlsx,The target is tilted.,135,32,0,4,0,1,1,1,1,1,1,1,1,1,1,1,1,11,12,135,space,5.331705100000022,None,0,1,1.6068734000000404,None,space,3.0084100000000262,None,0,0,0,1,,,,,4,0,32,4,154.6496813,,,,,,,,,,,,,,,,,,,,,154.63440200000002,154.6496813,155.13248709999993,155.13397039999995,155.14897910000002,156.7657845,,,,,156.76584890000004,156.78207299999997,156.9820459,156.96571010000002,155.14897910000002,,,,,,,,0,1,1.6068734000000404,None,,,,,,,,908,18,M,L,2026-02-23_11h10.25.533,VisualSearch_2526_3,,2025.2.4,2026-02-23 11h10.26.027120 +0100,
vertical.xlsx,The target is tilted.,135,33,1,4,0,0,0,0,0,0,0,0,0,0,0,0,1,1,1,135,space,5.331705100000022,None,0,1,0.6206429000000071,None,space,3.0084100000000262,None,0,0,0,1,,,,,4,1,33,7,156.9820459,,,,,,,,,,,,,,,,,,,,,156.96599019999996,156.9820459,157.4654802,157.46677090000003,157.4820251,158.1167484,,,,,158.1169539,158.13197300000002,158.3323355,158.31651049999994,157.4820251,,,,,,,,0,1,0.6206429000000071,None,,,,,,,,908,18,M,L,2026-02-23_11h10.25.533,VisualSearch_2526_3,,2025.2.4,2026-02-23 11h10.26.027120 +0100,
vertical.xlsx,The target is tilted.,135,34,2,4,1,1,1,1,1,1,1,1,0,0,0,0,0,7,8,135,space,5.331705100000022,None,1,1,1.5911526999999523,None,space,3.0084100000000262,None,0,0,0,1,,,,,4,2,34,1,158.3323355,,,,,,,,,,,,,,,,,,,,,158.31724769999994,158.3323355,158.8158479,158.81911739999998,158.83190430000002,160.43325200000004,,,,,160.4334536,160.4483057,160.6482919,160.63254189999998,158.83190430000002,,,,,,,,1,1,1.5911526999999523,None,,,,,,,,908,18,M,L,2026-02-23_11h10.25.533,VisualSearch_2526_3,,2025.2.4,2026-02-23 11h10.26.027120 +0100,
vertical.xlsx,The target is tilted.,135,35,3,4,0,1,1,1,1,1,1,1,0,0,0,0,1,7,8,135,space,5.331705100000022,None,0,1,1.2948367999999846,None,space,3.0084100000000262,None,0,0,0,1,,,,,4,3,35,5,160.6482919,,,,,,,,,,,,,,,,,,,,,160.6333078,160.6482919,161.1315856,161.13285050000002,161.14809630000002,162.44831439999996,,,,,162.44837569999993,162.46455809999998,162.66452200000003,162.64804370000002,161.14809630000002,,,,,,,,0,1,1.2948367999999846,None,,,,,,,,908,18,M,L,2026-02-23_11h10.25.533,VisualSearch_2526_3,,2025.2.4,2026-02-23 11h10.26.027120 +0100,
vertical.xlsx,The target is tilted.,135,36,4,4,0,1,1,1,0,0,0,0,0,0,0,0,1,3,4,135,space,5.331705100000022,None,0,1,0.6156771999999364,None,space,3.0084100000000262,None,0,0,0,1,,,,,4,4,36,6,162.66452200000003,,,,,,,,,,,,,,,,,,,,,162.64829339999994,162.66452200000003,163.14798080000003,163.14920459999996,163.16453239999998,163.78139939999994,,,,,163.7814561,163.7977121,163.99765209999998,163.98131,163.16453239999998,,,,,,,,0,1,0.6156771999999364,None,,,,,,,,908,18,M,L,2026-02-23_11h10.25.533,VisualSearch_2526_3,,2025.2.4,2026-02-23 11h10.26.027120 +0100,
vertical.xlsx,The target is tilted.,135,37,5,4,1,1,1,1,0,0,0,0,0,0,0,0,0,3,4,135,space,5.331705100000022,None,1,1,0.7592114999999922,None,space,3.0084100000000262,None,0,0,0,1,,,,,4,5,37,2,163.99765209999998,,,,,,,,,,,,,,,,,,,,,163.98159299999998,163.99765209999998,164.4811489,164.48265419999996,164.49765649999995,165.26542159999997,,,,,165.26552960000004,165.2810584,165.48145120000004,165.46465439999997,164.49765649999995,,,,,,,,1,1,0.7592114999999922,None,,,,,,,,908,18,M,L,2026-02-23_11h10.25.533,VisualSearch_2526_3,,2025.2.4,2026-02-23 11h10.26.027120 +0100,
vertical.xlsx,The target is tilted.,135,38,6,4,1,0,0,0,0,0,0,0,0,0,0,0,0,0,1,135,space,5.331705100000022,None,1,1,0.4628525000000536,None,space,3.0084100000000262,None,0,0,0,1,,,,,4,6,38,3,165.48145120000004,,,,,,,,,,,,,,,,,,,,,165.46493499999997,165.48145120000004,165.96477229999994,165.9682583,165.98095590000003,166.44921920000002,,,,,166.44944439999995,166.46441370000002,166.66446689999998,166.64810799999998,165.98095590000003,,,,,,,,1,1,0.4628525000000536,None,,,,,,,,908,18,M,L,2026-02-23_11h10.25.533,VisualSearch_2526_3,,2025.2.4,2026-02-23 11h10.26.027120 +0100,
vertical.xlsx,The target is tilted.,135,39,7,4,1,1,1,1,1,1,1,1,1,1,1,1,0,11,12,135,space,5.331705100000022,None,1,1,1.1787617999999611,None,space,3.0084100000000262,None,0,0,0,1,,,,,4,7,39,0,166.66446689999998,,,,,,,,,,,,,,,,,,,,,166.64848799999993,166.66446689999998,167.14858789999994,167.15350890000002,167.1704969,168.36411009999995,,,,,168.36416929999996,168.38040219999993,168.58041509999998,168.56398430000002,167.1704969,,,,,,,,1,1,1.1787617999999611,None,,,,,,,,908,18,M,L,2026-02-23_11h10.25.533,VisualSearch_2526_3,,2025.2.4,2026-02-23 11h10.26.027120 +0100,
vertical.xlsx,The target is tilted.,135,40,0,5,1,0,0,0,0,0,0,0,0,0,0,0,0,0,1,135,space,5.331705100000022,None,1,1,0.5993475000000217,None,space,3.0084100000000262,None,0,0,0,1,,,,,5,0,40,3,168.58041509999998,,,,,,,,,,,,,,,,,,,,,168.56417090000002,168.58041509999998,169.06419199999993,169.06579450000004,169.08046209999998,169.68081659999996,,,,,169.68089369999996,169.69697169999995,169.89725650000003,169.8806105,169.08046209999998,,,,,,,,1,1,0.5993475000000217,None,,,,,,,,908,18,M,L,2026-02-23_11h10.25.533,VisualSearch_2526_3,,2025.2.4,2026-02-23 11h10.26.027120 +0100,
vertical.xlsx,The target is tilted.,135,41,1,5,0,1,1,1,1,1,1,1,0,0,0,0,1,7,8,135,space,5.331705100000022,None,0,1,1.4998950000000377,None,space,3.0084100000000262,None,0,0,0,1,,,,,5,1,41,5,169.89725650000003,,,,,,,,,,,,,,,,,,,,,169.88082380000003,169.89725650000003,170.38066119999996,170.38229019999994,170.39742949999993,171.9139626,,,,,171.91401889999997,171.92992359999994,172.1300116,172.11356279999995,170.39742949999993,,,,,,,,0,1,1.4998950000000377,None,,,,,,,,908,18,M,L,2026-02-23_11h10.25.533,VisualSearch_2526_3,,2025.2.4,2026-02-23 11h10.26.027120 +0100,
vertical.xlsx,The target is tilted.,135,42,2,5,1,1,1,1,1,1,1,1,0,0,0,0,0,7,8,135,space,5.331705100000022,None,1,1,0.7602232000000413,None,space,3.0084100000000262,None,0,0,0,1,,,,,5,2,42,1,172.1300116,,,,,,,,,,,,,,,,,,,,,172.11384109999995,172.1300116,172.6137675,172.61518939999996,172.63042589999998,173.39859460000002,,,,,173.39881360000004,173.41348689999995,173.61370390000002,173.5976283,172.63042589999998,,,,,,,,1,1,0.7602232000000413,None,,,,,,,,908,18,M,L,2026-02-23_11h10.25.533,VisualSearch_2526_3,,2025.2.4,2026-02-23 11h10.26.027120 +0100,
vertical.xlsx,The target is tilted.,135,43,3,5,0,1,1,1,0,0,0,0,0,0,0,0,1,3,4,135,space,5.331705100000022,None,0,1,0.6493192000000363,None,space,3.0084100000000262,None,0,0,0,1,,,,,5,3,43,6,173.61370390000002,,,,,,,,,,,,,,,,,,,,,173.5984869,173.61370390000002,174.097617,174.10336410000002,174.12336600000003,174.7805614,,,,,174.78072309999993,174.79628289999994,174.99653019999994,174.97977889999993,174.12336600000003,,,,,,,,0,1,0.6493192000000363,None,,,,,,,,908,18,M,L,2026-02-23_11h10.25.533,VisualSearch_2526_3,,2025.2.4,2026-02-23 11h10.26.027120 +0100,
vertical.xlsx,The target is tilted.,135,44,4,5,1,1,1,1,1,1,1,1,1,1,1,1,0,11,12,135,space,5.331705100000022,None,1,1,0.5792850000000271,None,space,3.0084100000000262,None,0,0,0,1,,,,,5,4,44,0,174.99653019999994,,,,,,,,,,,,,,,,,,,,,174.9801059,174.99653019999994,175.47999979999997,175.48272329999998,175.49639749999994,176.07975499999998,,,,,176.07981899999993,176.09592939999993,,176.27998760000003,175.49639749999994,,,,,,,,1,1,0.5792850000000271,None,,,,,,,,908,18,M,L,2026-02-23_11h10.25.533,VisualSearch_2526_3,,2025.2.4,2026-02-23 11h10.26.027120 +0100,
vertical.xlsx,The target is tilted.,135,45,5,5,0,1,1,1,1,1,1,1,1,1,1,1,1,11,12,135,space,5.331705100000022,None,0,1,1.3073825999999826,None,space,3.0084100000000262,None,0,0,0,1,,,,,5,5,45,4,176.29611739999996,,,,,,,,,,,,,,,,,,,,,176.28058569999996,176.29611739999996,176.77944200000002,176.7807828,176.79596749999996,178.11425499999996,,,,,178.11445219999996,178.1295308,178.32939120000003,178.31294630000002,176.79596749999996,,,,,,,,0,1,1.3073825999999826,None,,,,,,,,908,18,M,L,2026-02-23_11h10.25.533,VisualSearch_2526_3,,2025.2.4,2026-02-23 11h10.26.027120 +0100,
vertical.xlsx,The target is tilted.,135,46,6,5,1,1,1,1,0,0,0,0,0,0,0,0,0,3,4,135,space,5.331705100000022,None,1,1,0.46469520000005105,None,space,3.0084100000000262,None,0,0,0,1,,,,,5,6,46,2,178.32939120000003,,,,,,,,,,,,,,,,,,,,,178.31328759999997,178.32939120000003,178.8134003,178.8187401,178.83603010000002,179.31341339999994,,,,,179.31357930000001,179.32917399999997,179.52899019999995,179.51269079999997,178.83603010000002,,,,,,,,1,1,0.46469520000005105,None,,,,,,,,908,18,M,L,2026-02-23_11h10.25.533,VisualSearch_2526_3,,2025.2.4,2026-02-23 11h10.26.027120 +0100,
vertical.xlsx,The target is tilted.,135,47,7,5,0,0,0,0,0,0,0,0,0,0,0,0,1,1,1,135,space,5.331705100000022,None,1,0,0.49472190000005867,None,space,3.0084100000000262,None,0,0,0,1,,,,,5,7,47,7,179.52899019999995,,,,,,,,,,,,,,,,,,,,,179.51294640000003,179.52899019999995,180.01260049999996,180.01554420000002,180.02946680000002,180.52979419999997,,,,,180.52995279999993,180.54575249999994,180.74572579999995,180.72944280000002,180.02946680000002,,,,,,,,1,0,0.49472190000005867,None,,,,,,,,908,18,M,L,2026-02-23_11h10.25.533,VisualSearch_2526_3,,2025.2.4,2026-02-23 11h10.26.027120 +0100,
vertical.xlsx,The target is tilted.,135,48,0,6,0,1,1,1,1,1,1,1,0,0,0,0,1,7,8,135,space,5.331705100000022,None,0,1,1.55832190000001,None,space,3.0084100000000262,None,0,0,0,1,,,,,6,0,48,5,180.74572579999995,,,,,,,,,,,,,,,,,,,,,180.7297853,180.74572579999995,181.22903469999994,181.23122460000002,181.2456307,182.81246850000002,,,,,182.8125473,182.82850180000003,183.02842910000004,183.01218919999997,181.2456307,,,,,,,,0,1,1.55832190000001,None,,,,,,,,908,18,M,L,2026-02-23_11h10.25.533,VisualSearch_2526_3,,2025.2.4,2026-02-23 11h10.26.027120 +0100,
vertical.xlsx,The target is tilted.,135,49,1,6,1,1,1,1,1,1,1,1,0,0,0,0,0,7,8,135,space,5.331705100000022,None,1,1,0.8217482000000018,None,space,3.0084100000000262,None,0,0,0,1,,,,,6,1,49,1,183.02842910000004,,,,,,,,,,,,,,,,,,,,,183.01244439999994,183.02842910000004,183.51192600000002,183.51337290000004,183.52831960000003,184.36340699999994,,,,,184.36360439999999,184.37844499999994,184.5783149,184.56215069999996,183.52831960000003,,,,,,,,1,1,0.8217482000000018,None,,,,,,,,908,18,M,L,2026-02-23_11h10.25.533,VisualSearch_2526_3,,2025.2.4,2026-02-23 11h10.26.027120 +0100,
vertical.xlsx,The target is tilted.,135,50,2,6,1,1,1,1,1,1,1,1,1,1,1,1,0,11,12,135,space,5.331705100000022,None,1,1,1.3774266000000353,None,space,3.0084100000000262,None,0,0,0,1,,,,,6,2,50,0,184.5783149,,,,,,,,,,,,,,,,,,,,,184.56287739999993,184.5783149,185.06224669999995,185.06574339999997,185.0799842,186.46264669999994,,,,,186.46281299999998,186.4780581,186.6784328,186.66180529999997,185.0799842,,,,,,,,1,1,1.3774266000000353,None,,,,,,,,908,18,M,L,2026-02-23_11h10.25.533,VisualSearch_2526_3,,2025.2.4,2026-02-23 11h10.26.027120 +0100,
vertical.xlsx,The target is tilted.,135,51,3,6,1,0,0,0,0,0,0,0,0,0,0,0,0,0,1,135,space,5.331705100000022,None,1,1,0.5461504000001014,None,space,3.0084100000000262,None,0,0,0,1,,,,,6,3,51,3,186.6784328,,,,,,,,,,,,,,,,,,,,,186.66205749999995,186.6784328,187.16180859999997,187.16351480000003,187.1783216,187.72961050000004,,,,,187.7298078,187.7446572,187.94485599999996,187.92835919999993,187.1783216,,,,,,,,1,1,0.5461504000001014,None,,,,,,,,908,18,M,L,2026-02-23_11h10.25.533,VisualSearch_2526_3,,2025.2.4,2026-02-23 11h10.26.027120 +0100,
vertical.xlsx,The target is tilted.,135,52,4,6,0,1,1,1,0,0,0,0,0,0,0,0,1,3,4,135,space,5.331705100000022,None,0,1,0.721404600000028,None,space,3.0084100000000262,None,0,0,0,1,,,,,6,4,52,6,187.94485599999996,,,,,,,,,,,,,,,,,,,,,187.9288305,187.94485599999996,188.42792120000001,188.43013169999995,188.4442517,189.17799560000003,,,,,189.17807270000003,189.19423089999998,,189.37817559999996,188.4442517,,,,,,,,0,1,0.721404600000028,None,,,,,,,,908,18,M,L,2026-02-23_11h10.25.533,VisualSearch_2526_3,,2025.2.4,2026-02-23 11h10.26.027120 +0100,
vertical.xlsx,The target is tilted.,135,53,5,6,0,0,0,0,0,0,0,0,0,0,0,0,1,1,1,135,space,5.331705100000022,None,0,1,0.7240428999999722,None,space,3.0084100000000262,None,0,0,0,1,,,,,6,5,53,7,189.3943782,,,,,,,,,,,,,,,,,,,,,189.37899029999994,189.3943782,189.87759210000002,189.87888139999995,189.89402959999995,190.62860049999995,,,,,190.62879739999994,190.64392899999996,190.84382399999993,190.82733229999997,189.89402959999995,,,,,,,,0,1,0.7240428999999722,None,,,,,,,,908,18,M,L,2026-02-23_11h10.25.533,VisualSearch_2526_3,,2025.2.4,2026-02-23 11h10.26.027120 +0100,
vertical.xlsx,The target is tilted.,135,54,6,6,0,1,1,1,1,1,1,1,1,1,1,1,1,11,12,135,space,5.331705100000022,None,0,1,2.0725658000000067,None,space,3.0084100000000262,None,0,0,0,1,,,,,6,6,54,4,190.84382399999993,,,,,,,,,,,,,,,,,,,,,190.8275178,190.84382399999993,191.32757259999994,191.32949059999999,191.34397560000002,193.4272846,,,,,193.42737650000004,193.44371539999997,193.64371199999994,193.6270932,191.34397560000002,,,,,,,,0,1,2.0725658000000067,None,,,,,,,,908,18,M,L,2026-02-23_11h10.25.533,VisualSearch_2526_3,,2025.2.4,2026-02-23 11h10.26.027120 +0100,
vertical.xlsx,The target is tilted.,135,55,7,6,1,1,1,1,0,0,0,0,0,0,0,0,0,3,4,135,space,5.331705100000022,None,1,1,0.524385299999949,None,space,3.0084100000000262,None,0,0,0,1,,,,,6,7,55,2,193.64371199999994,,,,,,,,,,,,,,,,,,,,,193.62736970000003,193.64371199999994,194.12700099999995,194.12859200000003,194.1435907,194.67758549999996,,,,,194.67771500000003,194.69351069999993,194.89355849999993,194.87740699999995,194.1435907,,,,,,,,1,1,0.524385299999949,None,,,,,,,,908,18,M,L,2026-02-23_11h10.25.533,VisualSearch_2526_3,,2025.2.4,2026-02-23 11h10.26.027120 +0100,
vertical.xlsx,The target is tilted.,135,56,0,7,1,1,1,1,1,1,1,1,0,0,0,0,0,7,8,135,space,5.331705100000022,None,1,1,0.8470548999999892,None,space,3.0084100000000262,None,0,0,0,1,,,,,7,0,56,1,194.89355849999993,,,,,,,,,,,,,,,,,,,,,194.87770039999998,194.89355849999993,195.37807829999997,195.3862878,195.40086109999993,196.26160779999998,,,,,196.26186169999994,196.27683430000002,196.47667549999994,196.46050019999996,195.40086109999993,,,,,,,,1,1,0.8470548999999892,None,,,,,,,,908,18,M,L,2026-02-23_11h10.25.533,VisualSearch_2526_3,,2025.2.4,2026-02-23 11h10.26.027120 +0100,
vertical.xlsx,The target is tilted.,135,57,1,7,0,1,1,1,1,1,1,1,0,0,0,0,1,7,8,135,space,5.331705100000022,None,0,1,1.5311114999999518,None,space,3.0084100000000262,None,0,0,0,1,,,,,7,1,57,5,196.47667549999994,,,,,,,,,,,,,,,,,,,,,196.46085819999996,196.47667549999994,196.9600044,196.9621366,196.97649820000004,198.51066979999996,,,,,198.5108517,198.52617399999997,198.72662309999998,198.71086939999998,196.97649820000004,,,,,,,,0,1,1.5311114999999518,None,,,,,,,,908,18,M,L,2026-02-23_11h10.25.533,VisualSearch_2526_3,,2025.2.4,2026-02-23 11h10.26.027120 +0100,
vertical.xlsx,The target is tilted.,135,58,2,7,1,1,1,1,0,0,0,0,0,0,0,0,0,3,4,135,space,5.331705100000022,None,1,1,0.5962590000000318,None,space,3.0084100000000262,None,0,0,0,1,,,,,7,2,58,2,198.72662309999998,,,,,,,,,,,,,,,,,,,,,198.71169989999999,198.72662309999998,199.21049199999993,199.21517540000002,199.22772910000003,199.8269805,,,,,199.82713260000003,199.842893,200.0432518,200.02693479999994,199.22772910000003,,,,,,,,1,1,0.5962590000000318,None,,,,,,,,908,18,M,L,2026-02-23_11h10.25.533,VisualSearch_2526_3,,2025.2.4,2026-02-23 11h10.26.027120 +0100,
vertical.xlsx,The target is tilted.,135,59,3,7,1,1,1,1,1,1,1,1,1,1,1,1,0,11,12,135,space,5.331705100000022,None,1,1,0.6832603999999947,None,space,3.0084100000000262,None,0,0,0,1,,,,,7,3,59,0,200.0432518,,,,,,,,,,,,,,,,,,,,,200.0274796,200.0432518,200.52700300000004,200.532558,200.55262119999998,201.24350259999994,,,,,201.2436219,201.25931400000002,201.45930880000003,201.4429692,200.55262119999998,,,,,,,,1,1,0.6832603999999947,None,,,,,,,,908,18,M,L,2026-02-23_11h10.25.533,VisualSearch_2526_3,,2025.2.4,2026-02-23 11h10.26.027120 +0100,
vertical.xlsx,The target is tilted.,135,60,4,7,0,1,1,1,0,0,0,0,0,0,0,0,1,3,4,135,space,5.331705100000022,None,0,1,0.6906560999999556,None,space,3.0084100000000262,None,0,0,0,1,,,,,7,4,60,6,201.45930880000003,,,,,,,,,,,,,,,,,,,,,201.44340569999997,201.45930880000003,201.94355640000003,201.9484552,201.9593076,202.66054529999997,,,,,202.66078170000003,202.67588139999998,202.8764,202.8599253,201.9593076,,,,,,,,0,1,0.6906560999999556,None,,,,,,,,908,18,M,L,2026-02-23_11h10.25.533,VisualSearch_2526_3,,2025.2.4,2026-02-23 11h10.26.027120 +0100,
vertical.xlsx,The target is tilted.,135,61,5,7,0,0,0,0,0,0,0,0,0,0,0,0,1,1,1,135,space,5.331705100000022,None,0,1,0.530879700000014,None,space,3.0084100000000262,None,0,0,0,1,,,,,7,5,61,7,202.8764,,,,,,,,,,,,,,,,,,,,,202.86057970000002,202.8764,203.35994110000001,203.36540279999997,203.38265539999998,203.92627670000002,,,,,203.92634509999993,203.9420993,204.14203229999998,204.1255175,203.38265539999998,,,,,,,,0,1,0.530879700000014,None,,,,,,,,908,18,M,L,2026-02-23_11h10.25.533,VisualSearch_2526_3,,2025.2.4,2026-02-23 11h10.26.027120 +0100,
vertical.xlsx,The target is tilted.,135,62,6,7,1,0,0,0,0,0,0,0,0,0,0,0,0,0,1,135,space,5.331705100000022,None,1,1,0.5760308000000123,None,space,3.0084100000000262,None,0,0,0,1,,,,,7,6,62,3,204.14203229999998,,,,,,,,,,,,,,,,,,,,,204.12576920000004,204.14203229999998,204.62593229999993,204.627427,204.64240629999995,205.22678329999997,,,,,205.2269784,205.24196759999995,205.44222279999997,205.42628809999997,204.64240629999995,,,,,,,,1,1,0.5760308000000123,None,,,,,,,,908,18,M,L,2026-02-23_11h10.25.533,VisualSearch_2526_3,,2025.2.4,2026-02-23 11h10.26.027120 +0100,
vertical.xlsx,The target is tilted.,135,63,7,7,0,1,1,1,1,1,1,1,1,1,1,1,1,11,12,135,space,5.331705100000022,None,0,1,1.884762099999989,None,space,3.0084100000000262,None,0,0,0,1,,,,,7,7,63,4,205.44222279999997,,,,,,,,,,,,,,,,,,,,,205.42695389999994,205.44222279999997,205.92604310000002,205.93138769999996,205.94547839999996,207.84302489999993,,,,,207.84322469999995,207.85828689999994,208.05862330000002,208.04271370000004,205.94547839999996,,,,,,,,0,1,1.884762099999989,None,,,,,,,,908,18,M,L,2026-02-23_11h10.25.533,VisualSearch_2526_3,,2025.2.4,2026-02-23 11h10.26.027120 +0100,
vertical.xlsx,The target is tilted.,135,64,0,8,0,1,1,1,0,0,0,0,0,0,0,0,1,3,4,135,space,5.331705100000022,None,0,1,0.7229054000000588,None,space,3.0084100000000262,None,0,0,0,1,,,,,8,0,64,6,208.05862330000002,,,,,,,,,,,,,,,,,,,,,208.0435612,208.05862330000002,208.54175480000004,208.5440562,208.55812579999997,209.29170009999996,,,,,209.29178790000003,209.30788940000002,,209.49204169999996,208.55812579999997,,,,,,,,0,1,0.7229054000000588,None,,,,,,,,908,18,M,L,2026-02-23_11h10.25.533,VisualSearch_2526_3,,2025.2.4,2026-02-23 11h10.26.027120 +0100,
vertical.xlsx,The target is tilted.,135,65,1,8,1,1,1,1,1,1,1,1,1,1,1,1,0,11,12,135,space,5.331705100000022,None,1,1,0.6423117999999022,None,space,3.0084100000000262,None,0,0,0,1,,,,,8,1,65,0,209.50814890000004,,,,,,,,,,,,,,,,,,,,,209.4928658,209.50814890000004,209.9916227,209.99373749999995,210.00785580000002,210.65914069999997,,,,,210.659316,210.67472709999993,210.87495820000004,210.85860979999995,210.00785580000002,,,,,,,,1,1,0.6423117999999022,None,,,,,,,,908,18,M,L,2026-02-23_11h10.25.533,VisualSearch_2526_3,,2025.2.4,2026-02-23 11h10.26.027120 +0100,
vertical.xlsx,The target is tilted.,135,66,2,8,1,0,0,0,0,0,0,0,0,0,0,0,0,0,1,135,space,5.331705100000022,None,1,1,0.4132076999999299,None,space,3.0084100000000262,None,0,0,0,1,,,,,8,2,66,3,210.87495820000004,,,,,,,,,,,,,,,,,,,,,210.85910179999996,210.87495820000004,211.3592205,211.36452280000003,211.38487669999995,211.80873299999996,,,,,211.80887269999994,211.82455570000002,212.02458160000003,212.0081603,211.38487669999995,,,,,,,,1,1,0.4132076999999299,None,,,,,,,,908,18,M,L,2026-02-23_11h10.25.533,VisualSearch_2526_3,,2025.2.4,2026-02-23 11h10.26.027120 +0100,
vertical.xlsx,The target is tilted.,135,67,3,8,1,1,1,1,0,0,0,0,0,0,0,0,0,3,4,135,space,5.331705100000022,None,1,1,0.4819046000000071,None,space,3.0084100000000262,None,0,0,0,1,,,,,8,3,67,2,212.02458160000003,,,,,,,,,,,,,,,,,,,,,212.0084187,212.02458160000003,212.50901950000002,212.51411689999998,212.52479559999995,213.0090381,,,,,213.009235,213.02440019999995,213.2243105,213.2080102,212.52479559999995,,,,,,,,1,1,0.4819046000000071,None,,,,,,,,908,18,M,L,2026-02-23_11h10.25.533,VisualSearch_2526_3,,2025.2.4,2026-02-23 11h10.26.027120 +0100,
vertical.xlsx,The target is tilted.,135,68,4,8,0,0,0,0,0,0,0,0,0,0,0,0,1,1,1,135,space,5.331705100000022,None,0,1,0.49183270000003176,None,space,3.0084100000000262,None,0,0,0,1,,,,,8,4,68,7,213.2243105,,,,,,,,,,,,,,,,,,,,,213.20846289999997,213.2243105,213.70840279999993,213.71306319999997,213.72463649999997,214.2258233,,,,,214.226046,214.24099079999996,214.44106499999998,214.42439679999995,213.72463649999997,,,,,,,,0,1,0.49183270000003176,None,,,,,,,,908,18,M,L,2026-02-23_11h10.25.533,VisualSearch_2526_3,,2025.2.4,2026-02-23 11h10.26.027120 +0100,
vertical.xlsx,The target is tilted.,135,69,5,8,0,1,1,1,1,1,1,1,0,0,0,0,1,7,8,135,space,5.331705100000022,None,0,1,1.01263629999994,None,space,3.0084100000000262,None,0,0,0,1,,,,,8,5,69,5,214.44106499999998,,,,,,,,,,,,,,,,,,,,,214.42486610000003,214.44106499999998,214.92483479999999,214.93016479999994,214.94630359999996,215.9740253,,,,,215.9740908,215.9904371,,216.1743649,214.94630359999996,,,,,,,,0,1,1.01263629999994,None,,,,,,,,908,18,M,L,2026-02-23_11h10.25.533,VisualSearch_2526_3,,2025.2.4,2026-02-23 11h10.26.027120 +0100,
vertical.xlsx,The target is tilted.,135,70,6,8,0,1,1,1,1,1,1,1,1,1,1,1,1,11,12,135,space,5.331705100000022,None,0,1,1.4083951999999726,None,space,3.0084100000000262,None,0,0,0,1,,,,,8,6,70,4,216.19032830000003,,,,,,,,,,,,,,,,,,,,,216.17494439999996,216.19032830000003,216.67368020000004,216.67517309999994,216.69023919999995,218.10836399999994,,,,,218.10855400000003,218.12360109999997,218.3237239,218.3072972,216.69023919999995,,,,,,,,0,1,1.4083951999999726,None,,,,,,,,908,18,M,L,2026-02-23_11h10.25.533,VisualSearch_2526_3,,2025.2.4,2026-02-23 11h10.26.027120 +0100,
vertical.xlsx,The target is tilted.,135,71,7,8,1,1,1,1,1,1,1,1,0,0,0,0,0,7,8,135,space,5.331705100000022,None,1,1,0.6685681000000159,None,space,3.0084100000000262,None,0,0,0,1,,,,,8,7,71,1,218.3237239,,,,,,,,,,,,,,,,,,,,,218.30768679999994,218.3237239,218.80811599999993,218.81344590000003,218.83089759999996,219.50726580000003,,,,,219.5073407,219.52315409999994,219.72336210000003,219.7070294,218.83089759999996,,,,,,,,1,1,0.6685681000000159,None,,,,,,,,908,18,M,L,2026-02-23_11h10.25.533,VisualSearch_2526_3,,2025.2.4,2026-02-23 11h10.26.027120 +0100,
vertical.xlsx,The target is tilted.,135,72,0,9,0,0,0,0,0,0,0,0,0,0,0,0,1,1,1,135,space,5.331705100000022,None,0,1,0.565625999999952,None,space,3.0084100000000262,None,0,0,0,1,,,,,9,0,72,7,219.72336210000003,,,,,,,,,,,,,,,,,,,,,219.70726960000002,219.72336210000003,220.20723899999996,220.21063379999998,220.2262799,220.80706550000002,,,,,220.80713189999994,220.82288870000002,221.02354760000003,221.00690559999998,220.2262799,,,,,,,,0,1,0.565625999999952,None,,,,,,,,908,18,M,L,2026-02-23_11h10.25.533,VisualSearch_2526_3,,2025.2.4,2026-02-23 11h10.26.027120 +0100,
vertical.xlsx,The target is tilted.,135,73,1,9,0,1,1,1,0,0,0,0,0,0,0,0,1,3,4,135,space,5.331705100000022,None,0,1,0.6523157999999967,None,space,3.0084100000000262,None,0,0,0,1,,,,,9,1,73,6,221.02354760000003,,,,,,,,,,,,,,,,,,,,,221.0071256,221.02354760000003,221.50672459999998,221.50830159999998,221.52327679999996,222.18980039999997,,,,,222.18985350000003,222.20611159999999,222.40610479999998,222.38963869999998,221.52327679999996,,,,,,,,0,1,0.6523157999999967,None,,,,,,,,908,18,M,L,2026-02-23_11h10.25.533,VisualSearch_2526_3,,2025.2.4,2026-02-23 11h10.26.027120 +0100,
vertical.xlsx,The target is tilted.,135,74,2,9,1,1,1,1,1,1,1,1,1,1,1,1,0,11,12,135,space,5.331705100000022,None,1,1,0.6405390999999554,None,space,3.0084100000000262,None,0,0,0,1,,,,,9,2,74,0,222.40610479999998,,,,,,,,,,,,,,,,,,,,,222.38996529999997,222.40610479999998,222.88985630000002,222.89239179999993,222.906068,223.55674599999998,,,,,223.55683839999995,223.5725734,223.77302559999998,223.75719789999994,222.906068,,,,,,,,1,1,0.6405390999999554,None,,,,,,,,908,18,M,L,2026-02-23_11h10.25.533,VisualSearch_2526_3,,2025.2.4,2026-02-23 11h10.26.027120 +0100,
vertical.xlsx,The target is tilted.,135,75,3,9,0,1,1,1,1,1,1,1,0,0,0,0,1,7,8,135,space,5.331705100000022,None,0,1,0.6448447999999871,None,space,3.0084100000000262,None,0,0,0,1,,,,,9,3,75,5,223.77302559999998,,,,,,,,,,,,,,,,,,,,,223.75799719999998,223.77302559999998,224.2563358,224.25889859999995,224.2726262,224.92371619999994,,,,,224.92388589999996,224.93918439999993,225.13957440000001,225.12338939999995,224.2726262,,,,,,,,0,1,0.6448447999999871,None,,,,,,,,908,18,M,L,2026-02-23_11h10.25.533,VisualSearch_2526_3,,2025.2.4,2026-02-23 11h10.26.027120 +0100,
vertical.xlsx,The target is tilted.,135,76,4,9,1,1,1,1,0,0,0,0,0,0,0,0,0,3,4,135,space,5.331705100000022,None,1,1,0.530012499999998,None,space,3.0084100000000262,None,0,0,0,1,,,,,9,4,76,2,225.13957440000001,,,,,,,,,,,,,,,,,,,,,225.12415079999994,225.13957440000001,225.62373030000003,225.62840870000002,225.64179219999994,226.17254649999995,,,,,226.17260629999998,226.18875079999998,226.38891239999998,226.3726636,225.64179219999994,,,,,,,,1,1,0.530012499999998,None,,,,,,,,908,18,M,L,2026-02-23_11h10.25.533,VisualSearch_2526_3,,2025.2.4,2026-02-23 11h10.26.027120 +0100,
vertical.xlsx,The target is tilted.,135,77,5,9,1,0,0,0,0,0,0,0,0,0,0,0,0,0,1,135,space,5.331705100000022,None,1,1,0.5340313000000378,None,space,3.0084100000000262,None,0,0,0,1,,,,,9,5,77,3,226.38891239999998,,,,,,,,,,,,,,,,,,,,,226.37295429999995,226.38891239999998,226.8722146,226.87359200000003,226.88874429999998,227.43939409999996,,,,,227.4394797,227.45564530000001,227.65534379999997,227.63878909999994,226.88874429999998,,,,,,,,1,1,0.5340313000000378,None,,,,,,,,908,18,M,L,2026-02-23_11h10.25.533,VisualSearch_2526_3,,2025.2.4,2026-02-23 11h10.26.027120 +0100,
vertical.xlsx,The target is tilted.,135,78,6,9,1,1,1,1,1,1,1,1,0,0,0,0,0,7,8,135,space,5.331705100000022,None,1,1,0.5283444000000372,None,space,3.0084100000000262,None,0,0,0,1,,,,,9,6,78,1,227.65534379999997,,,,,,,,,,,,,,,,,,,,,227.63903270000003,227.65534379999997,228.1388094,228.14000399999998,228.15581810000003,228.6901117,,,,,228.69032059999995,228.70542749999993,228.9054562,228.88884269999994,228.15581810000003,,,,,,,,1,1,0.5283444000000372,None,,,,,,,,908,18,M,L,2026-02-23_11h10.25.533,VisualSearch_2526_3,,2025.2.4,2026-02-23 11h10.26.027120 +0100,
vertical.xlsx,The target is tilted.,135,79,7,9,0,1,1,1,1,1,1,1,1,1,1,1,1,11,12,135,space,5.331705100000022,None,0,1,1.8219523000000208,None,space,3.0084100000000262,None,0,0,0,1,,,,,9,7,79,4,228.9054562,,,,,,,,,,,,,,,,,,,,,228.8891976,228.9054562,229.38957889999995,229.3947511,229.4144983,231.2394177,,,,,231.23959509999997,231.25507129999994,231.45563659999993,231.43889560000002,229.4144983,,,,,,,,0,1,1.8219523000000208,None,,,,,,,,908,18,M,L,2026-02-23_11h10.25.533,VisualSearch_2526_3,,2025.2.4,2026-02-23 11h10.26.027120 +0100,
vertical.xlsx,The target is tilted.,135,80,0,10,1,1,1,1,1,1,1,1,1,1,1,1,0,11,12,135,space,5.331705100000022,None,1,1,0.5274914999999964,None,space,3.0084100000000262,None,0,0,0,1,,,,,10,0,80,0,231.45563659999993,,,,,,,,,,,,,,,,,,,,,231.43954559999997,231.45563659999993,231.93942289999995,231.94496530000004,231.96167809999997,232.50516199999993,,,,,232.50524369999994,232.5215015,232.72149790000003,232.70467789999998,231.96167809999997,,,,,,,,1,1,0.5274914999999964,None,,,,,,,,908,18,M,L,2026-02-23_11h10.25.533,VisualSearch_2526_3,,2025.2.4,2026-02-23 11h10.26.027120 +0100,
vertical.xlsx,The target is tilted.,135,81,1,10,0,1,1,1,1,1,1,1,1,1,1,1,1,11,12,135,space,5.331705100000022,None,0,1,1.0593538000000535,None,space,3.0084100000000262,None,0,0,0,1,,,,,10,1,81,4,232.72149790000003,,,,,,,,,,,,,,,,,,,,,232.7049081,232.72149790000003,233.20484420000003,233.20710689999999,233.22177190000002,234.28860810000003,,,,,234.28869339999994,234.30438449999997,234.50456299999996,234.4877705,233.22177190000002,,,,,,,,0,1,1.0593538000000535,None,,,,,,,,908,18,M,L,2026-02-23_11h10.25.533,VisualSearch_2526_3,,2025.2.4,2026-02-23 11h10.26.027120 +0100,
vertical.xlsx,The target is tilted.,135,82,2,10,0,1,1,1,0,0,0,0,0,0,0,0,1,3,4,135,space,5.331705100000022,None,0,1,0.6044623999999885,None,space,3.0084100000000262,None,0,0,0,1,,,,,10,2,82,6,234.50456299999996,,,,,,,,,,,,,,,,,,,,,234.48798880000004,234.50456299999996,234.9885309,234.9931567,235.01068120000002,235.62126560000002,,,,,235.62135290000003,235.63768289999996,235.8374612,235.82094759999995,235.01068120000002,,,,,,,,0,1,0.6044623999999885,None,,,,,,,,908,18,M,L,2026-02-23_11h10.25.533,VisualSearch_2526_3,,2025.2.4,2026-02-23 11h10.26.027120 +0100,
vertical.xlsx,The target is tilted.,135,83,3,10,1,0,0,0,0,0,0,0,0,0,0,0,0,0,1,135,space,5.331705100000022,None,1,1,0.45415539999999055,None,space,3.0084100000000262,None,0,0,0,1,,,,,10,3,83,3,235.8374612,,,,,,,,,,,,,,,,,,,,,235.82120009999994,235.8374612,236.32135629999993,236.3227991,236.33770570000001,236.80520330000002,,,,,236.80535880000002,236.82088799999997,237.02137559999994,237.00466740000002,236.33770570000001,,,,,,,,1,1,0.45415539999999055,None,,,,,,,,908,18,M,L,2026-02-23_11h10.25.533,VisualSearch_2526_3,,2025.2.4,2026-02-23 11h10.26.027120 +0100,
vertical.xlsx,The target is tilted.,135,84,4,10,0,0,0,0,0,0,0,0,0,0,0,0,1,1,1,135,space,5.331705100000022,None,0,1,0.5298660999999356,None,space,3.0084100000000262,None,0,0,0,1,,,,,10,4,84,7,237.02137559999994,,,,,,,,,,,,,,,,,,,,,237.00504739999997,237.02137559999994,237.5054616,237.51085190000003,237.5273194,238.0708558,,,,,238.0709213,238.08708019999995,238.2871626,238.27092199999993,237.5273194,,,,,,,,0,1,0.5298660999999356,None,,,,,,,,908,18,M,L,2026-02-23_11h10.25.533,VisualSearch_2526_3,,2025.2.4,2026-02-23 11h10.26.027120 +0100,
vertical.xlsx,The target is tilted.,135,85,5,10,1,1,1,1,0,0,0,0,0,0,0,0,0,3,4,135,space,5.331705100000022,None,1,1,0.544644500000004,None,space,3.0084100000000262,None,0,0,0,1,,,,,10,5,85,2,238.2871626,,,,,,,,,,,,,,,,,,,,,238.2713612,238.2871626,238.77054780000003,238.77196300000003,238.78707880000002,239.33814589999997,,,,,239.33825049999996,239.35421789999998,239.55402730000003,239.53752099999997,238.78707880000002,,,,,,,,1,1,0.544644500000004,None,,,,,,,,908,18,M,L,2026-02-23_11h10.25.533,VisualSearch_2526_3,,2025.2.4,2026-02-23 11h10.26.027120 +0100,
vertical.xlsx,The target is tilted.,135,86,6,10,0,1,1,1,1,1,1,1,0,0,0,0,1,7,8,135,space,5.331705100000022,None,0,1,0.9639135999999553,None,space,3.0084100000000262,None,0,0,0,1,,,,,10,6,86,5,239.55402730000003,,,,,,,,,,,,,,,,,,,,,239.53787239999997,239.55402730000003,240.0384034,240.0438279,240.06170710000004,241.03769009999996,,,,,241.0377654,241.05370879999998,241.25372119999997,241.23702230000004,240.06170710000004,,,,,,,,0,1,0.9639135999999553,None,,,,,,,,908,18,M,L,2026-02-23_11h10.25.533,VisualSearch_2526_3,,2025.2.4,2026-02-23 11h10.26.027120 +0100,
vertical.xlsx,The target is tilted.,135,87,7,10,1,1,1,1,1,1,1,1,0,0,0,0,0,7,8,135,space,5.331705100000022,None,1,1,0.5453209000000925,None,space,3.0084100000000262,None,0,0,0,1,,,,,10,7,87,1,241.25372119999997,,,,,,,,,,,,,,,,,,,,,241.23730149999994,241.25372119999997,241.737389,241.7408504,241.75398469999993,242.30396110000004,,,,,242.30409939999993,242.31981640000004,242.52019080000002,242.50436849999994,241.75398469999993,,,,,,,,1,1,0.5453209000000925,None,,,,,,,,908,18,M,L,2026-02-23_11h10.25.533,VisualSearch_2526_3,,2025.2.4,2026-02-23 11h10.26.027120 +0100,
vertical.xlsx,The target is tilted.,135,88,0,11,0,1,1,1,1,1,1,1,1,1,1,1,1,11,12,135,space,5.331705100000022,None,0,1,1.6131848999999647,None,space,3.0084100000000262,None,0,0,0,1,,,,,11,0,88,4,242.52019080000002,,,,,,,,,,,,,,,,,,,,,242.50521679999997,242.52019080000002,243.0034286,243.0049507,243.019861,244.63702360000002,,,,,244.63709219999998,244.6531437,244.85312320000003,244.83672760000002,243.019861,,,,,,,,0,1,1.6131848999999647,None,,,,,,,,908,18,M,L,2026-02-23_11h10.25.533,VisualSearch_2526_3,,2025.2.4,2026-02-23 11h10.26.027120 +0100,
vertical.xlsx,The target is tilted.,135,89,1,11,1,1,1,1,1,1,1,1,1,1,1,1,0,11,12,135,space,5.331705100000022,None,1,1,1.3673884999999473,None,space,3.0084100000000262,None,0,0,0,1,,,,,11,1,89,0,244.85312320000003,,,,,,,,,,,,,,,,,,,,,244.83703549999996,244.85312320000003,245.33672739999997,245.34014919999993,245.35354899999993,246.73801879999996,,,,,246.73827240000003,246.75335139999993,246.95317909999994,246.93702580000001,245.35354899999993,,,,,,,,1,1,1.3673884999999473,None,,,,,,,,908,18,M,L,2026-02-23_11h10.25.533,VisualSearch_2526_3,,2025.2.4,2026-02-23 11h10.26.027120 +0100,
vertical.xlsx,The target is tilted.,135,90,2,11,1,1,1,1,0,0,0,0,0,0,0,0,0,3,4,135,space,5.331705100000022,None,1,1,0.6574560999999903,None,space,3.0084100000000262,None,0,0,0,1,,,,,11,2,90,2,246.95317909999994,,,,,,,,,,,,,,,,,,,,,246.93776419999995,246.95317909999994,247.43700579999995,247.44245690000002,247.45772490000002,248.119825,,,,,248.11991569999998,248.13564199999996,,248.32007420000002,247.45772490000002,,,,,,,,1,1,0.6574560999999903,None,,,,,,,,908,18,M,L,2026-02-23_11h10.25.533,VisualSearch_2526_3,,2025.2.4,2026-02-23 11h10.26.027120 +0100,
vertical.xlsx,The target is tilted.,135,91,3,11,0,0,0,0,0,0,0,0,0,0,0,0,1,1,1,135,space,5.331705100000022,None,0,1,0.6228161000000227,None,space,3.0084100000000262,None,0,0,0,1,,,,,11,3,91,7,248.33613179999998,,,,,,,,,,,,,,,,,,,,,248.32090359999995,248.33613179999998,248.8191127,248.82038699999998,248.83571570000004,249.4692976,,,,,249.46940889999996,249.48551539999994,249.6855845,249.6692954,248.83571570000004,,,,,,,,0,1,0.6228161000000227,None,,,,,,,,908,18,M,L,2026-02-23_11h10.25.533,VisualSearch_2526_3,,2025.2.4,2026-02-23 11h10.26.027120 +0100,
vertical.xlsx,The target is tilted.,135,92,4,11,0,1,1,1,1,1,1,1,0,0,0,0,1,7,8,135,space,5.331705100000022,None,0,1,1.3454302000000098,None,space,3.0084100000000262,None,0,0,0,1,,,,,11,4,92,5,249.6855845,,,,,,,,,,,,,,,,,,,,,249.6698285,249.6855845,250.16890049999995,250.17018819999998,250.1854389,251.53685289999999,,,,,251.53704570000002,251.5523071,251.75232659999995,251.73583359999998,250.1854389,,,,,,,,0,1,1.3454302000000098,None,,,,,,,,908,18,M,L,2026-02-23_11h10.25.533,VisualSearch_2526_3,,2025.2.4,2026-02-23 11h10.26.027120 +0100,
vertical.xlsx,The target is tilted.,135,93,5,11,1,0,0,0,0,0,0,0,0,0,0,0,0,0,1,135,space,5.331705100000022,None,1,1,0.49999880000007124,None,space,3.0084100000000262,None,0,0,0,1,,,,,11,5,93,3,251.75232659999995,,,,,,,,,,,,,,,,,,,,,251.73637940000003,251.75232659999995,252.23553579999998,252.23798779999993,252.25182689999997,252.76931969999998,,,,,252.76942789999998,252.78510989999995,252.98527509999997,252.96855470000003,252.25182689999997,,,,,,,,1,1,0.49999880000007124,None,,,,,,,,908,18,M,L,2026-02-23_11h10.25.533,VisualSearch_2526_3,,2025.2.4,2026-02-23 11h10.26.027120 +0100,
vertical.xlsx,The target is tilted.,135,94,6,11,0,1,1,1,0,0,0,0,0,0,0,0,1,3,4,135,space,5.331705100000022,None,0,1,0.6721595999999863,None,space,3.0084100000000262,None,0,0,0,1,,,,,11,6,94,6,252.98527509999997,,,,,,,,,,,,,,,,,,,,,252.96886740000002,252.98527509999997,253.46890659999997,253.46997139999996,253.4857462,254.16894409999998,,,,,254.16902199999993,254.18513659999996,254.38520059999996,254.36866759999998,253.4857462,,,,,,,,0,1,0.6721595999999863,None,,,,,,,,908,18,M,L,2026-02-23_11h10.25.533,VisualSearch_2526_3,,2025.2.4,2026-02-23 11h10.26.027120 +0100,
vertical.xlsx,The target is tilted.,135,95,7,11,1,1,1,1,1,1,1,1,0,0,0,0,0,7,8,135,space,5.331705100000022,None,1,1,0.534957200000008,None,space,3.0084100000000262,None,0,0,0,1,,,,,11,7,95,1,254.38520059999996,,,,,,,,,,,,,,,,,,,,,254.3689263,254.38520059999996,254.8688538,254.8701234,254.88529470000003,255.4366043,,,,,255.43679680000002,255.45188239999993,255.65186759999995,255.63557509999998,254.88529470000003,,,,,,,,1,1,0.534957200000008,None,,,,,,,,908,18,M,L,2026-02-23_11h10.25.533,VisualSearch_2526_3,,2025.2.4,2026-02-23 11h10.26.027120 +0100,
vertical.xlsx,The target is tilted.,135,96,0,12,1,1,1,1,1,1,1,1,0,0,0,0,0,7,8,135,space,5.331705100000022,None,1,1,0.8642773999999918,None,space,3.0084100000000262,None,0,0,0,1,,,,,12,0,96,1,255.65186759999995,,,,,,,,,,,,,,,,,,,,,255.63612349999994,255.65186759999995,256.1355221,256.1398586,256.1517620999999,257.01904590000004,,,,,257.0192876,257.0344827,257.23452739999993,257.2189581,256.1517620999999,,,,,,,,1,1,0.8642773999999918,None,,,,,,,,908,18,M,L,2026-02-23_11h10.25.533,VisualSearch_2526_3,,2025.2.4,2026-02-23 11h10.26.027120 +0100,
vertical.xlsx,The target is tilted.,135,97,1,12,1,1,1,1,0,0,0,0,0,0,0,0,0,3,4,135,space,5.331705100000022,None,1,1,0.5398645000000215,None,space,3.0084100000000262,None,0,0,0,1,,,,,12,1,97,2,257.23452739999993,,,,,,,,,,,,,,,,,,,,,257.21979309999995,257.23452739999993,257.71875409999996,257.7232094,257.7350312,258.28534690000004,,,,,258.28545769999994,258.3016448999999,258.50123640000004,258.48482519999993,257.7350312,,,,,,,,1,1,0.5398645000000215,None,,,,,,,,908,18,M,L,2026-02-23_11h10.25.533,VisualSearch_2526_3,,2025.2.4,2026-02-23 11h10.26.027120 +0100,
vertical.xlsx,The target is tilted.,135,98,2,12,0,1,1,1,0,0,0,0,0,0,0,0,1,3,4,135,space,5.331705100000022,None,0,1,0.5332597999999962,None,space,3.0084100000000262,None,0,0,0,1,,,,,12,2,98,6,258.50123640000004,,,,,,,,,,,,,,,,,,,,,258.48516299999994,258.50123640000004,258.98565829999995,258.9908497,259.01075159999994,259.55199919999995,,,,,259.552051,259.56790149999995,259.76738409999996,259.7508713,259.01075159999994,,,,,,,,0,1,0.5332597999999962,None,,,,,,,,908,18,M,L,2026-02-23_11h10.25.533,VisualSearch_2526_3,,2025.2.4,2026-02-23 11h10.26.027120 +0100,
vertical.xlsx,The target is tilted.,135,99,3,12,0,1,1,1,1,1,1,1,1,1,1,1,1,11,12,135,space,5.331705100000022,None,0,1,1.0167800999998917,None,space,3.0084100000000262,None,0,0,0,1,,,,,12,3,99,4,259.76738409999996,,,,,,,,,,,,,,,,,,,,,259.7511105,259.76738409999996,260.2513424,260.25249199999996,260.2681317,261.30117799999994,,,,,261.30125799999996,261.3170834,261.51734220000003,261.50115129999995,260.2681317,,,,,,,,0,1,1.0167800999998917,None,,,,,,,,908,18,M,L,2026-02-23_11h10.25.533,VisualSearch_2526_3,,2025.2.4,2026-02-23 11h10.26.027120 +0100,
vertical.xlsx,The target is tilted.,135,100,4,12,1,0,0,0,0,0,0,0,0,0,0,0,0,0,1,135,space,5.331705100000022,None,1,1,0.512010299999929,None,space,3.0084100000000262,None,0,0,0,1,,,,,12,4,100,3,261.51734220000003,,,,,,,,,,,,,,,,,,,,,261.5016814999999,261.51734220000003,262.00159940000003,262.0064738000001,262.01875210000003,262.5343963,,,,,262.5344599,262.55085899999995,262.75023020000003,262.7337421,262.01875210000003,,,,,,,,1,1,0.512010299999929,None,,,,,,,,908,18,M,L,2026-02-23_11h10.25.533,VisualSearch_2526_3,,2025.2.4,2026-02-23 11h10.26.027120 +0100,
vertical.xlsx,The target is tilted.,135,101,5,12,1,1,1,1,1,1,1,1,1,1,1,1,0,11,12,135,space,5.331705100000022,None,1,1,0.5696985999998105,None,space,3.0084100000000262,None,0,0,0,1,,,,,12,5,101,0,262.75023020000003,,,,,,,,,,,,,,,,,,,,,262.73394669999993,262.75023020000003,263.23393839999994,263.23543369999993,263.2501907000001,263.83556139999996,,,,,263.8358238999999,263.8506275,264.05060090000006,264.03408179999997,263.2501907000001,,,,,,,,1,1,0.5696985999998105,None,,,,,,,,908,18,M,L,2026-02-23_11h10.25.533,VisualSearch_2526_3,,2025.2.4,2026-02-23 11h10.26.027120 +0100,
vertical.xlsx,The target is tilted.,135,102,6,12,0,0,0,0,0,0,0,0,0,0,0,0,1,1,1,135,space,5.331705100000022,None,0,1,0.5264227000000119,None,space,3.0084100000000262,None,0,0,0,1,,,,,12,6,102,7,264.05060090000006,,,,,,,,,,,,,,,,,,,,,264.0344388000001,264.05060090000006,264.5339658999999,264.5360599999999,264.5500274000001,265.0836328999999,,,,,265.08369130000005,265.0998807000001,,265.2841555,264.5500274000001,,,,,,,,0,1,0.5264227000000119,None,,,,,,,,908,18,M,L,2026-02-23_11h10.25.533,VisualSearch_2526_3,,2025.2.4,2026-02-23 11h10.26.027120 +0100,
vertical.xlsx,The target is tilted.,135,103,7,12,0,1,1,1,1,1,1,1,0,0,0,0,1,7,8,135,space,5.331705100000022,None,0,1,0.9703041999998732,None,space,3.0084100000000262,None,0,0,0,1,,,,,12,7,103,5,265.3003532,,,,,,,,,,,,,,,,,,,,,265.28506960000004,265.3003532,265.78342369999996,265.78495939999993,265.7998006999999,266.7839271,,,,,266.7839861,266.8003352999999,266.9996363,266.98323060000007,265.7998006999999,,,,,,,,0,1,0.9703041999998732,None,,,,,,,,908,18,M,L,2026-02-23_11h10.25.533,VisualSearch_2526_3,,2025.2.4,2026-02-23 11h10.26.027120 +0100,
vertical.xlsx,The target is tilted.,135,104,0,13,1,0,0,0,0,0,0,0,0,0,0,0,0,0,1,135,space,5.331705100000022,None,1,1,0.45014080000009926,None,space,3.0084100000000262,None,0,0,0,1,,,,,13,0,104,3,266.9996363,,,,,,,,,,,,,,,,,,,,,266.98347450000006,266.9996363,267.4839184,267.4885841999999,267.50137859999995,267.96694460000003,,,,,267.96700039999996,267.98317040000006,268.1833898,268.16692620000003,267.50137859999995,,,,,,,,1,1,0.45014080000009926,None,,,,,,,,908,18,M,L,2026-02-23_11h10.25.533,VisualSearch_2526_3,,2025.2.4,2026-02-23 11h10.26.027120 +0100,
vertical.xlsx,The target is tilted.,135,105,1,13,0,1,1,1,1,1,1,1,0,0,0,0,1,7,8,135,space,5.331705100000022,None,0,1,1.4634364999999434,None,space,3.0084100000000262,None,0,0,0,1,,,,,13,1,105,5,268.1833898,,,,,,,,,,,,,,,,,,,,,268.16711280000004,268.1833898,268.6663564999999,268.6674891,268.6830112,270.1499590000001,,,,,270.1500323,270.1658414000001,270.36623910000003,270.3499491,268.6830112,,,,,,,,0,1,1.4634364999999434,None,,,,,,,,908,18,M,L,2026-02-23_11h10.25.533,VisualSearch_2526_3,,2025.2.4,2026-02-23 11h10.26.027120 +0100,
vertical.xlsx,The target is tilted.,135,106,2,13,0,0,0,0,0,0,0,0,0,0,0,0,1,1,1,135,space,5.331705100000022,None,0,1,0.7628486999999495,None,space,3.0084100000000262,None,0,0,0,1,,,,,13,2,106,7,270.36623910000003,,,,,,,,,,,,,,,,,,,,,270.3502377,270.36623910000003,270.8503782,270.85555539999996,270.8725419,271.64968640000006,,,,,271.64975690000006,271.6656518,,271.84997640000006,270.8725419,,,,,,,,0,1,0.7628486999999495,None,,,,,,,,908,18,M,L,2026-02-23_11h10.25.533,VisualSearch_2526_3,,2025.2.4,2026-02-23 11h10.26.027120 +0100,
vertical.xlsx,The target is tilted.,135,107,3,13,0,1,1,1,0,0,0,0,0,0,0,0,1,3,4,135,space,5.331705100000022,None,0,1,0.6227650000000722,None,space,3.0084100000000262,None,0,0,0,1,,,,,13,3,107,6,271.8657625999999,,,,,,,,,,,,,,,,,,,,,271.85083170000007,271.8657625999999,272.34954249999987,272.3528586,272.36562660000004,273.00091040000007,,,,,273.0011620999999,273.01604380000003,273.21588670000006,273.19933029999993,272.36562660000004,,,,,,,,0,1,0.6227650000000722,None,,,,,,,,908,18,M,L,2026-02-23_11h10.25.533,VisualSearch_2526_3,,2025.2.4,2026-02-23 11h10.26.027120 +0100,
vertical.xlsx,The target is tilted.,135,108,4,13,1,1,1,1,1,1,1,1,1,1,1,1,0,11,12,135,space,5.331705100000022,None,1,1,1.3006313000000773,None,space,3.0084100000000262,None,0,0,0,1,,,,,13,4,108,0,273.21588670000006,,,,,,,,,,,,,,,,,,,,,273.1996904,273.21588670000006,273.70020309999995,273.70552900000007,273.72299999999996,275.0323432,,,,,275.03241419999995,275.04849949999993,,275.2326306,273.72299999999996,,,,,,,,1,1,1.3006313000000773,None,,,,,,,,908,18,M,L,2026-02-23_11h10.25.533,VisualSearch_2526_3,,2025.2.4,2026-02-23 11h10.26.027120 +0100,
vertical.xlsx,The target is tilted.,135,109,5,13,1,1,1,1,0,0,0,0,0,0,0,0,0,3,4,135,space,5.331705100000022,None,1,1,0.5620751999999811,None,space,3.0084100000000262,None,0,0,0,1,,,,,13,5,109,2,275.2486713999999,,,,,,,,,,,,,,,,,,,,,275.233516,275.2486713999999,275.7323191999999,275.7348617,275.74859100000003,276.3158410000001,,,,,276.31590129999995,276.3318451,276.53174839999997,276.5153897,275.74859100000003,,,,,,,,1,1,0.5620751999999811,None,,,,,,,,908,18,M,L,2026-02-23_11h10.25.533,VisualSearch_2526_3,,2025.2.4,2026-02-23 11h10.26.027120 +0100,
vertical.xlsx,The target is tilted.,135,110,6,13,1,1,1,1,1,1,1,1,0,0,0,0,0,7,8,135,space,5.331705100000022,None,1,1,0.5764286000000993,None,space,3.0084100000000262,None,0,0,0,1,,,,,13,6,110,1,276.53174839999997,,,,,,,,,,,,,,,,,,,,,276.5156830000001,276.53174839999997,277.01547349999987,277.0180330999999,277.03161380000006,277.61649940000007,,,,,277.6166588000001,277.63212309999994,277.8321627999999,277.81593670000007,277.03161380000006,,,,,,,,1,1,0.5764286000000993,None,,,,,,,,908,18,M,L,2026-02-23_11h10.25.533,VisualSearch_2526_3,,2025.2.4,2026-02-23 11h10.26.027120 +0100,
vertical.xlsx,The target is tilted.,135,111,7,13,0,1,1,1,1,1,1,1,1,1,1,1,1,11,12,135,space,5.331705100000022,None,0,1,1.1319893999998385,None,space,3.0084100000000262,None,0,0,0,1,,,,,13,7,111,4,277.8321627999999,,,,,,,,,,,,,,,,,,,,,277.8167034999999,277.8321627999999,278.3161462999999,278.32080859999996,278.3355523,279.48251430000005,,,,,279.48264760000006,279.49848470000006,279.6981395999999,279.68195390000005,278.3355523,,,,,,,,0,1,1.1319893999998385,None,,,,,,,,908,18,M,L,2026-02-23_11h10.25.533,VisualSearch_2526_3,,2025.2.4,2026-02-23 11h10.26.027120 +0100,
vertical.xlsx,The target is tilted.,135,112,0,14,0,1,1,1,1,1,1,1,0,0,0,0,1,7,8,135,space,5.331705100000022,None,0,1,1.1239985999998225,None,space,3.0084100000000262,None,0,0,0,1,,,,,14,0,112,5,279.6981395999999,,,,,,,,,,,,,,,,,,,,,279.6822185000001,279.6981395999999,280.18272479999996,280.1879365,280.2043635,281.3325402999999,,,,,281.33273170000007,281.34838220000006,281.54781479999997,281.5313785000001,280.2043635,,,,,,,,0,1,1.1239985999998225,None,,,,,,,,908,18,M,L,2026-02-23_11h10.25.533,VisualSearch_2526_3,,2025.2.4,2026-02-23 11h10.26.027120 +0100,
vertical.xlsx,The target is tilted.,135,113,1,14,1,1,1,1,1,1,1,1,0,0,0,0,0,7,8,135,space,5.331705100000022,None,1,1,0.8699251000000459,None,space,3.0084100000000262,None,0,0,0,1,,,,,14,1,113,1,281.54781479999997,,,,,,,,,,,,,,,,,,,,,281.5317436,281.54781479999997,282.0320632999999,282.03669850000006,282.0534121999999,282.9321287,,,,,282.93225970000003,282.9479423999999,283.1478001999999,283.1314044999999,282.0534121999999,,,,,,,,1,1,0.8699251000000459,None,,,,,,,,908,18,M,L,2026-02-23_11h10.25.533,VisualSearch_2526_3,,2025.2.4,2026-02-23 11h10.26.027120 +0100,
vertical.xlsx,The target is tilted.,135,114,2,14,1,1,1,1,1,1,1,1,1,1,1,1,0,11,12,135,space,5.331705100000022,None,1,1,0.806787199999917,None,space,3.0084100000000262,None,0,0,0,1,,,,,14,2,114,0,283.1478001999999,,,,,,,,,,,,,,,,,,,,,283.1317334999999,283.1478001999999,283.63185810000004,283.6364492,283.6544119,284.46490259999996,,,,,284.4650368,284.4808315999999,284.6811465999999,284.66484689999993,283.6544119,,,,,,,,1,1,0.806787199999917,None,,,,,,,,908,18,M,L,2026-02-23_11h10.25.533,VisualSearch_2526_3,,2025.2.4,2026-02-23 11h10.26.027120 +0100,
vertical.xlsx,The target is tilted.,135,115,3,14,0,1,1,1,0,0,0,0,0,0,0,0,1,3,4,135,space,5.331705100000022,None,0,1,0.5591417999999067,None,space,3.0084100000000262,None,0,0,0,1,,,,,14,3,115,6,284.6811465999999,,,,,,,,,,,,,,,,,,,,,284.66549480000003,284.6811465999999,285.16502149999997,285.1703516,285.1865507,285.747296,,,,,285.7473576,285.76361139999995,285.9635733,285.9475992,285.1865507,,,,,,,,0,1,0.5591417999999067,None,,,,,,,,908,18,M,L,2026-02-23_11h10.25.533,VisualSearch_2526_3,,2025.2.4,2026-02-23 11h10.26.027120 +0100,
vertical.xlsx,The target is tilted.,135,116,4,14,1,0,0,0,0,0,0,0,0,0,0,0,0,0,1,135,space,5.331705100000022,None,1,1,0.4259448999998767,None,space,3.0084100000000262,None,0,0,0,1,,,,,14,4,116,3,285.9635733,,,,,,,,,,,,,,,,,,,,,285.9481412,285.9635733,286.44715640000004,286.4481837999999,286.46356289999994,286.8984768999999,,,,,286.89866699999993,286.9138848,287.1142242000001,287.0982305,286.46356289999994,,,,,,,,1,1,0.4259448999998767,None,,,,,,,,908,18,M,L,2026-02-23_11h10.25.533,VisualSearch_2526_3,,2025.2.4,2026-02-23 11h10.26.027120 +0100,
vertical.xlsx,The target is tilted.,135,117,5,14,0,0,0,0,0,0,0,0,0,0,0,0,1,1,1,135,space,5.331705100000022,None,0,1,0.5129918000000089,None,space,3.0084100000000262,None,0,0,0,1,,,,,14,5,117,7,287.1142242000001,,,,,,,,,,,,,,,,,,,,,287.09902940000006,287.1142242000001,287.5977888,287.6025554999999,287.61630719999994,288.13031060000003,,,,,288.1303754999999,288.1469233,288.3466607999999,288.3302965999999,287.61630719999994,,,,,,,,0,1,0.5129918000000089,None,,,,,,,,908,18,M,L,2026-02-23_11h10.25.533,VisualSearch_2526_3,,2025.2.4,2026-02-23 11h10.26.027120 +0100,
vertical.xlsx,The target is tilted.,135,118,6,14,0,1,1,1,1,1,1,1,1,1,1,1,1,11,12,135,space,5.331705100000022,None,0,1,2.0423714999999447,None,space,3.0084100000000262,None,0,0,0,1,,,,,14,6,118,4,288.3466607999999,,,,,,,,,,,,,,,,,,,,,288.3305356000001,288.3466607999999,288.8304389,288.83317639999996,288.84685119999995,290.8973043000001,,,,,290.8974095000001,290.9133188999999,291.1130421999999,291.09668740000006,288.84685119999995,,,,,,,,0,1,2.0423714999999447,None,,,,,,,,908,18,M,L,2026-02-23_11h10.25.533,VisualSearch_2526_3,,2025.2.4,2026-02-23 11h10.26.027120 +0100,
vertical.xlsx,The target is tilted.,135,119,7,14,1,1,1,1,0,0,0,0,0,0,0,0,0,3,4,135,space,5.331705100000022,None,1,1,0.5321918000001915,None,space,3.0084100000000262,None,0,0,0,1,,,,,14,7,119,2,291.1130421999999,,,,,,,,,,,,,,,,,,,,,291.09703680000007,291.1130421999999,291.5976960999999,291.6030025,291.6214086,292.16361729999994,,,,,292.16371030000005,292.1799228,292.3797944999999,292.3628137999999,291.6214086,,,,,,,,1,1,0.5321918000001915,None,,,,,,,,908,18,M,L,2026-02-23_11h10.25.533,VisualSearch_2526_3,,2025.2.4,2026-02-23 11h10.26.027120 +0100,
vertical.xlsx,The target is tilted.,135,0,0,0,,,,,,,,,,,,,,,,,space,5.331705100000022,None,,,,,space,3.0084100000000262,None,0,0,0,1,,,,,,,,,,,,,,,,,,,,,,,,,,,,,,,,,,,,,,,,,,,,,,,,,,,,,,,,,,,,,,,908,18,M,L,2026-02-23_11h10.25.533,VisualSearch_2526_3,,2025.2.4,2026-02-23 11h10.26.027120 +0100,
tilted.xlsx,The target is tilted.,117,0,0,0,0,1,1,1,0,0,0,0,0,0,0,0,1,3,4,117,space,16.758405100000118,None,0,1,1.0670086000000083,None,,,,0,1,1,0,0,0,0,6,,,,,309.1824191999999,,,,,,,,,,,,,,,292.3797944999999,292.3797944999999,292.3797944999999,space,16.758405100000118,None,309.17903739999997,309.1824191999999,309.6607698999999,309.6620647,309.6772269999999,310.76039919999994,0,1,1.0670086000000083,None,310.76045550000003,310.7770636,310.97667249999995,310.9603608,,,,,,,,,,,,,,,,,,,,908,18,M,L,2026-02-23_11h10.25.533,VisualSearch_2526_3,,2025.2.4,2026-02-23 11h10.26.027120 +0100,
tilted.xlsx,The target is tilted.,117,1,1,0,1,1,1,1,0,0,0,0,0,0,0,0,0,3,4,117,space,16.758405100000118,None,1,1,0.9201490000000376,None,,,,0,1,1,0,0,1,1,2,,,,,310.97667249999995,,,,,,,,,,,,,,,,,,,,,310.96066659999997,310.97667249999995,311.46054989999993,311.4623385,311.4769156,312.4107514,1,1,0.9201490000000376,None,312.4108285,312.4269296,312.6267513999999,312.6103989999999,311.4769156,,,,,,,,,,,,,,,,,,,908,18,M,L,2026-02-23_11h10.25.533,VisualSearch_2526_3,,2025.2.4,2026-02-23 11h10.26.027120 +0100,
tilted.xlsx,The target is tilted.,117,2,2,0,1,1,1,1,1,1,1,1,0,0,0,0,0,7,8,117,space,16.758405100000118,None,1,1,0.962897600000133,None,,,,0,1,1,0,0,2,2,1,,,,,312.6267513999999,,,,,,,,,,,,,,,,,,,,,312.6107096999999,312.6267513999999,313.11087739999994,313.1156369999999,313.12699109999994,314.09342760000004,1,1,0.962897600000133,None,314.0935009,314.10969509999995,314.30947749999996,314.2930423,313.12699109999994,,,,,,,,,,,,,,,,,,,908,18,M,L,2026-02-23_11h10.25.533,VisualSearch_2526_3,,2025.2.4,2026-02-23 11h10.26.027120 +0100,
tilted.xlsx,The target is tilted.,117,3,3,0,0,0,0,0,0,0,0,0,0,0,0,0,1,1,1,117,space,16.758405100000118,None,0,1,0.6158348999999816,None,,,,0,1,1,0,0,3,3,7,,,,,314.30947749999996,,,,,,,,,,,,,,,,,,,,,314.2933035000001,314.30947749999996,314.7929655999999,314.7941123999999,314.80960060000007,315.4267422999999,0,1,0.6158348999999816,None,315.4267927000001,315.4429087000001,,315.6271862000001,314.80960060000007,,,,,,,,,,,,,,,,,,,908,18,M,L,2026-02-23_11h10.25.533,VisualSearch_2526_3,,2025.2.4,2026-02-23 11h10.26.027120 +0100,
tilted.xlsx,The target is tilted.,117,4,4,0,1,1,1,1,1,1,1,1,1,1,1,1,0,11,12,117,space,16.758405100000118,None,1,1,1.7119296999999278,None,,,,0,1,1,0,0,4,4,0,,,,,315.6435105999999,,,,,,,,,,,,,,,,,,,,,315.62796520000006,315.6435105999999,316.12704009999993,316.1319303,316.14942369999994,317.8759568999999,1,1,1.7119296999999278,None,317.8760296999999,317.89233020000006,,318.0764623,,,,,,,,,,,,,,,,,,,,908,18,M,L,2026-02-23_11h10.25.533,VisualSearch_2526_3,,2025.2.4,2026-02-23 11h10.26.027120 +0100,
tilted.xlsx,The target is tilted.,117,5,5,0,0,1,1,1,1,1,1,1,0,0,0,0,1,7,8,117,space,16.758405100000118,None,0,1,2.127660900000137,None,,,,0,1,1,0,0,5,5,5,,,,,318.0928838,,,,,,,,,,,,,,,,,,,,,318.07716690000007,318.0928838,318.57657199999994,318.5818729,318.59975209999993,320.74286959999995,0,1,2.127660900000137,None,320.7429316999999,320.75902769999993,320.9586346000001,320.9420067000001,,,,,,,,,,,,,,,,,,,,908,18,M,L,2026-02-23_11h10.25.533,VisualSearch_2526_3,,2025.2.4,2026-02-23 11h10.26.027120 +0100,
tilted.xlsx,The target is tilted.,117,6,6,0,1,0,0,0,0,0,0,0,0,0,0,0,0,0,1,117,space,16.758405100000118,None,1,1,0.5382313000000067,None,,,,0,1,1,0,0,6,6,3,,,,,320.9586346000001,,,,,,,,,,,,,,,,,,,,,320.9421855999999,320.9586346000001,321.4420347,321.4432787999999,321.4586689999999,322.01004179999995,1,1,0.5382313000000067,None,322.01022869999997,322.0255602,322.22504389999995,322.2086340999999,321.4586689999999,,,,,,,,,,,,,,,,,,,908,18,M,L,2026-02-23_11h10.25.533,VisualSearch_2526_3,,2025.2.4,2026-02-23 11h10.26.027120 +0100,
tilted.xlsx,The target is tilted.,117,7,7,0,0,1,1,1,1,1,1,1,1,1,1,1,1,11,12,117,space,16.758405100000118,None,0,1,2.899193799999921,None,,,,0,1,1,0,0,7,7,4,,,,,322.22504389999995,,,,,,,,,,,,,,,,,,,,,322.2088374,322.22504389999995,322.7087139,322.7118779,322.72517270000003,325.626268,0,1,2.899193799999921,None,325.6264529,325.64141930000005,325.8417577,325.82601210000007,322.72517270000003,,,,,,,,,,,,,,,,,,,908,18,M,L,2026-02-23_11h10.25.533,VisualSearch_2526_3,,2025.2.4,2026-02-23 11h10.26.027120 +0100,
tilted.xlsx,The target is tilted.,117,0,0,0,0,1,1,1,1,1,1,1,1,1,1,1,1,11,12,117,space,16.758405100000118,None,0,1,3.217648600000075,None,space,2.7077907000000323,None,0,1,1,0,,,,,0,0,0,4,328.5746819000001,,,,,,,,,,,,,,,,,,,,,328.5712506,328.5746819000001,329.0575417,329.0585151999999,329.0741974,332.3077965,,,,,332.3078791999999,332.3240544999999,332.52407629999993,332.50766099999987,329.0741974,325.83299650000004,325.8417577,325.8417577,328.5581420000001,space,2.7077907000000323,None,0,1,3.217648600000075,None,,,,,,,,908,18,M,L,2026-02-23_11h10.25.533,VisualSearch_2526_3,,2025.2.4,2026-02-23 11h10.26.027120 +0100,
tilted.xlsx,The target is tilted.,117,1,1,0,1,1,1,1,0,0,0,0,0,0,0,0,0,3,4,117,space,16.758405100000118,None,1,1,0.667404900000065,None,space,2.7077907000000323,None,0,1,1,0,,,,,0,1,1,2,332.52407629999993,,,,,,,,,,,,,,,,,,,,,332.5080458,332.52407629999993,333.00759330000005,333.00928999999996,333.0242287000001,333.7072315999999,,,,,333.707318,333.72336670000004,333.9235702000001,333.9072257,333.0242287000001,,,,,,,,1,1,0.667404900000065,None,,,,,,,,908,18,M,L,2026-02-23_11h10.25.533,VisualSearch_2526_3,,2025.2.4,2026-02-23 11h10.26.027120 +0100,
tilted.xlsx,The target is tilted.,117,2,2,0,1,1,1,1,1,1,1,1,0,0,0,0,0,7,8,117,space,16.758405100000118,None,1,1,2.0871022999999695,None,space,2.7077907000000323,None,0,1,1,0,,,,,0,2,2,1,333.9235702000001,,,,,,,,,,,,,,,,,,,,,333.90766740000004,333.9235702000001,334.4069234000001,334.407958,334.4233606,336.5234667,,,,,336.5235453999999,336.5396962,,336.7238775999999,334.4233606,,,,,,,,1,1,2.0871022999999695,None,,,,,,,,908,18,M,L,2026-02-23_11h10.25.533,VisualSearch_2526_3,,2025.2.4,2026-02-23 11h10.26.027120 +0100,
tilted.xlsx,The target is tilted.,117,3,3,0,0,1,1,1,0,0,0,0,0,0,0,0,1,3,4,117,space,16.758405100000118,None,0,1,1.0718842999999652,None,space,2.7077907000000323,None,0,1,1,0,,,,,0,3,3,6,336.74037670000007,,,,,,,,,,,,,,,,,,,,,336.7247353999999,336.74037670000007,337.2235713,337.2261550999999,337.2397392999999,338.3236568,,,,,338.3237079999999,338.33987649999995,338.53936410000006,338.52286920000006,337.2397392999999,,,,,,,,0,1,1.0718842999999652,None,,,,,,,,908,18,M,L,2026-02-23_11h10.25.533,VisualSearch_2526_3,,2025.2.4,2026-02-23 11h10.26.027120 +0100,
tilted.xlsx,The target is tilted.,117,4,4,0,1,1,1,1,1,1,1,1,1,1,1,1,0,11,12,117,space,16.758405100000118,None,1,1,1.7602775000000292,None,space,2.7077907000000323,None,0,1,1,0,,,,,0,4,4,0,338.53936410000006,,,,,,,,,,,,,,,,,,,,,338.5230824999999,338.53936410000006,339.0229457999999,339.0240099,339.0394045999999,340.8070017,,,,,340.8070537000001,340.8229836999999,341.02238839999995,341.00580450000007,339.0394045999999,,,,,,,,1,1,1.7602775000000292,None,,,,,,,,908,18,M,L,2026-02-23_11h10.25.533,VisualSearch_2526_3,,2025.2.4,2026-02-23 11h10.26.027120 +0100,
tilted.xlsx,The target is tilted.,117,5,5,0,0,0,0,0,0,0,0,0,0,0,0,0,1,1,1,117,space,16.758405100000118,None,0,1,0.6519448999999895,None,space,2.7077907000000323,None,0,1,1,0,,,,,0,5,5,7,341.02238839999995,,,,,,,,,,,,,,,,,,,,,341.00599839999995,341.02238839999995,341.50586999999996,341.5072356999999,341.5223698,342.1901390999999,,,,,342.1902795000001,342.2061606,342.4056270000001,342.3892862,341.5223698,,,,,,,,0,1,0.6519448999999895,None,,,,,,,,908,18,M,L,2026-02-23_11h10.25.533,VisualSearch_2526_3,,2025.2.4,2026-02-23 11h10.26.027120 +0100,
tilted.xlsx,The target is tilted.,117,6,6,0,1,0,0,0,0,0,0,0,0,0,0,0,0,0,1,117,space,16.758405100000118,None,1,1,0.618205400000079,None,space,2.7077907000000323,None,0,1,1,0,,,,,0,6,6,3,342.4056270000001,,,,,,,,,,,,,,,,,,,,,342.3896010000001,342.4056270000001,342.8889013999999,342.8900020000001,342.90555760000007,343.53911990000006,,,,,343.5391764000001,343.5553685,,343.7393761999999,342.90555760000007,,,,,,,,1,1,0.618205400000079,None,,,,,,,,908,18,M,L,2026-02-23_11h10.25.533,VisualSearch_2526_3,,2025.2.4,2026-02-23 11h10.26.027120 +0100,
tilted.xlsx,The target is tilted.,117,7,7,0,0,1,1,1,1,1,1,1,0,0,0,0,1,7,8,117,space,16.758405100000118,None,0,1,2.3802237999998397,None,space,2.7077907000000323,None,0,1,1,0,,,,,0,7,7,5,343.7560561999999,,,,,,,,,,,,,,,,,,,,,343.73988499999996,343.7560561999999,344.23874309999997,344.2397647999999,344.25536809999994,346.63862700000004,,,,,346.638684,346.6548934,,346.8390870999999,344.25536809999994,,,,,,,,0,1,2.3802237999998397,None,,,,,,,,908,18,M,L,2026-02-23_11h10.25.533,VisualSearch_2526_3,,2025.2.4,2026-02-23 11h10.26.027120 +0100,
tilted.xlsx,The target is tilted.,117,8,0,1,1,0,0,0,0,0,0,0,0,0,0,0,0,0,1,117,space,16.758405100000118,None,1,1,0.9353958000001512,None,space,2.7077907000000323,None,0,1,1,0,,,,,1,0,8,3,346.8555455999999,,,,,,,,,,,,,,,,,,,,,346.8398864999999,346.8555455999999,347.338718,347.34071859999995,347.3548559000001,348.30550270000003,,,,,348.3055701999999,348.3214720000001,348.52143810000007,348.5052518,347.3548559000001,,,,,,,,1,1,0.9353958000001512,None,,,,,,,,908,18,M,L,2026-02-23_11h10.25.533,VisualSearch_2526_3,,2025.2.4,2026-02-23 11h10.26.027120 +0100,
tilted.xlsx,The target is tilted.,117,9,1,1,1,1,1,1,1,1,1,1,0,0,0,0,0,7,8,117,space,16.758405100000118,None,1,1,1.6393884000001435,None,space,2.7077907000000323,None,0,1,1,0,,,,,1,1,9,1,348.52143810000007,,,,,,,,,,,,,,,,,,,,,348.50548030000004,348.52143810000007,349.00506210000003,349.0076254999999,349.0219585,350.67291709999995,,,,,350.67322749999994,350.6881188,350.88783549999994,350.8721713,349.0219585,,,,,,,,1,1,1.6393884000001435,None,,,,,,,,908,18,M,L,2026-02-23_11h10.25.533,VisualSearch_2526_3,,2025.2.4,2026-02-23 11h10.26.027120 +0100,
tilted.xlsx,The target is tilted.,117,10,2,1,1,1,1,1,0,0,0,0,0,0,0,0,0,3,4,117,space,16.758405100000118,None,1,1,0.5378954000000249,None,space,2.7077907000000323,None,0,1,1,0,,,,,1,2,10,2,350.88783549999994,,,,,,,,,,,,,,,,,,,,,350.8729495,350.88783549999994,351.3710349999999,351.3723622,351.3879012,351.93820619999997,,,,,351.9382547,351.95475710000005,352.15414039999996,352.1378304,351.3879012,,,,,,,,1,1,0.5378954000000249,None,,,,,,,,908,18,M,L,2026-02-23_11h10.25.533,VisualSearch_2526_3,,2025.2.4,2026-02-23 11h10.26.027120 +0100,
tilted.xlsx,The target is tilted.,117,11,3,1,0,0,0,0,0,0,0,0,0,0,0,0,1,1,1,117,space,16.758405100000118,None,0,1,0.6006265999999414,None,space,2.7077907000000323,None,0,1,1,0,,,,,1,3,11,7,352.15414039999996,,,,,,,,,,,,,,,,,,,,,352.1381173,352.15414039999996,352.63811910000004,352.63920170000006,352.65418929999987,353.2725075999999,,,,,353.2727,353.28783410000005,353.4878443,353.4714964,352.65418929999987,,,,,,,,0,1,0.6006265999999414,None,,,,,,,,908,18,M,L,2026-02-23_11h10.25.533,VisualSearch_2526_3,,2025.2.4,2026-02-23 11h10.26.027120 +0100,
tilted.xlsx,The target is tilted.,117,12,4,1,0,1,1,1,1,1,1,1,1,1,1,1,1,11,12,117,space,16.758405100000118,None,0,1,3.5197977000000265,None,space,2.7077907000000323,None,0,1,1,0,,,,,1,4,12,4,353.4878443,,,,,,,,,,,,,,,,,,,,,353.4718628999999,353.4878443,353.9707125,353.9717482000001,353.98754099999996,357.5208768,,,,,357.52094740000007,357.53698740000004,357.7366649999999,357.7203632999999,353.98754099999996,,,,,,,,0,1,3.5197977000000265,None,,,,,,,,908,18,M,L,2026-02-23_11h10.25.533,VisualSearch_2526_3,,2025.2.4,2026-02-23 11h10.26.027120 +0100,
tilted.xlsx,The target is tilted.,117,13,5,1,0,1,1,1,0,0,0,0,0,0,0,0,1,3,4,117,space,16.758405100000118,None,0,1,1.0879085999999916,None,space,2.7077907000000323,None,0,1,1,0,,,,,1,5,13,6,357.7366649999999,,,,,,,,,,,,,,,,,,,,,357.7206656000001,357.7366649999999,358.2205056,358.22233460000007,358.2369841,359.3368541,,,,,359.3369121999999,359.35314270000003,,359.5370802,358.2369841,,,,,,,,0,1,1.0879085999999916,None,,,,,,,,908,18,M,L,2026-02-23_11h10.25.533,VisualSearch_2526_3,,2025.2.4,2026-02-23 11h10.26.027120 +0100,
tilted.xlsx,The target is tilted.,117,14,6,1,1,1,1,1,1,1,1,1,1,1,1,1,0,11,12,117,space,16.758405100000118,None,1,1,2.98585039999989,None,space,2.7077907000000323,None,0,1,1,0,,,,,1,6,14,0,359.5534613,,,,,,,,,,,,,,,,,,,,,359.5373414999999,359.5534613,360.0371333999999,360.04090840000003,360.0566951999999,363.053729,,,,,363.0538311,363.06989180000005,363.2699453,363.25323230000004,360.0566951999999,,,,,,,,1,1,2.98585039999989,None,,,,,,,,908,18,M,L,2026-02-23_11h10.25.533,VisualSearch_2526_3,,2025.2.4,2026-02-23 11h10.26.027120 +0100,
tilted.xlsx,The target is tilted.,117,15,7,1,0,1,1,1,1,1,1,1,0,0,0,0,1,7,8,117,space,16.758405100000118,None,0,1,2.8175780999999915,None,space,2.7077907000000323,None,0,1,1,0,,,,,1,7,15,5,363.2699453,,,,,,,,,,,,,,,,,,,,,363.2536132,363.2699453,363.7534172999999,363.7572041000001,363.7723899,366.6026293,,,,,366.60270620000006,366.6187133000001,366.8188924000001,366.80279829999995,363.7723899,,,,,,,,0,1,2.8175780999999915,None,,,,,,,,908,18,M,L,2026-02-23_11h10.25.533,VisualSearch_2526_3,,2025.2.4,2026-02-23 11h10.26.027120 +0100,
tilted.xlsx,The target is tilted.,117,16,0,2,1,1,1,1,1,1,1,1,0,0,0,0,0,7,8,117,space,16.758405100000118,None,1,1,2.0106958999999733,None,space,2.7077907000000323,None,0,1,1,0,,,,,2,0,16,1,366.8188924000001,,,,,,,,,,,,,,,,,,,,,366.80345050000005,366.8188924000001,367.3021779999999,367.3036417999999,367.3186919,369.335906,,,,,369.33601139999996,369.351635,369.5517689999999,369.5353172,367.3186919,,,,,,,,1,1,2.0106958999999733,None,,,,,,,,908,18,M,L,2026-02-23_11h10.25.533,VisualSearch_2526_3,,2025.2.4,2026-02-23 11h10.26.027120 +0100,
tilted.xlsx,The target is tilted.,117,17,1,2,1,1,1,1,0,0,0,0,0,0,0,0,0,3,4,117,space,16.758405100000118,None,1,1,1.0494668000001184,None,space,2.7077907000000323,None,0,1,1,0,,,,,2,1,17,2,369.5517689999999,,,,,,,,,,,,,,,,,,,,,369.53568300000006,369.5517689999999,370.0352840999999,370.03709389999995,370.0516287999999,371.1028239,,,,,371.10296790000007,371.1186161999999,371.3186332999999,371.3024106999999,370.0516287999999,,,,,,,,1,1,1.0494668000001184,None,,,,,,,,908,18,M,L,2026-02-23_11h10.25.533,VisualSearch_2526_3,,2025.2.4,2026-02-23 11h10.26.027120 +0100,
tilted.xlsx,The target is tilted.,117,18,2,2,1,0,0,0,0,0,0,0,0,0,0,0,0,0,1,117,space,16.758405100000118,None,1,1,0.4387246999999661,None,space,2.7077907000000323,None,0,1,1,0,,,,,2,2,18,3,371.3186332999999,,,,,,,,,,,,,,,,,,,,,371.3032052000001,371.3186332999999,371.8028571,371.8064012,371.8181850000001,372.2688441999999,,,,,372.26894229999994,372.28466019999996,372.4849703,372.46920180000006,371.8181850000001,,,,,,,,1,1,0.4387246999999661,None,,,,,,,,908,18,M,L,2026-02-23_11h10.25.533,VisualSearch_2526_3,,2025.2.4,2026-02-23 11h10.26.027120 +0100,
tilted.xlsx,The target is tilted.,117,19,3,2,0,0,0,0,0,0,0,0,0,0,0,0,1,1,1,117,space,16.758405100000118,None,0,1,0.5586753000000044,None,space,2.7077907000000323,None,0,1,1,0,,,,,2,3,19,7,372.4849703,,,,,,,,,,,,,,,,,,,,,372.4700602999999,372.4849703,372.9682958000001,372.9703142000001,372.9845783999999,373.5521080000001,,,,,373.5521896,373.56816260000005,373.7681135999999,373.7516946999999,372.9845783999999,,,,,,,,0,1,0.5586753000000044,None,,,,,,,,908,18,M,L,2026-02-23_11h10.25.533,VisualSearch_2526_3,,2025.2.4,2026-02-23 11h10.26.027120 +0100,
tilted.xlsx,The target is tilted.,117,20,4,2,0,1,1,1,1,1,1,1,0,0,0,0,1,7,8,117,space,16.758405100000118,None,0,1,2.2371281999999155,None,space,2.7077907000000323,None,0,1,1,0,,,,,2,4,20,5,373.7681135999999,,,,,,,,,,,,,,,,,,,,,373.7519683999999,373.7681135999999,374.25173530000006,374.25341819999994,374.26844619999997,376.5176856999999,,,,,376.51774610000007,376.53440649999993,376.73393880000003,376.7179057000001,374.26844619999997,,,,,,,,0,1,2.2371281999999155,None,,,,,,,,908,18,M,L,2026-02-23_11h10.25.533,VisualSearch_2526_3,,2025.2.4,2026-02-23 11h10.26.027120 +0100,
tilted.xlsx,The target is tilted.,117,21,5,2,0,1,1,1,1,1,1,1,1,1,1,1,1,11,12,117,space,16.758405100000118,None,0,1,2.1656637000000956,None,space,2.7077907000000323,None,0,1,1,0,,,,,2,5,21,4,376.73393880000003,,,,,,,,,,,,,,,,,,,,,376.7182035999999,376.73393880000003,377.2177093999999,377.21932130000005,377.2345482999999,379.40149169999995,,,,,379.4016194000001,379.4174731999999,379.61708120000003,379.60076890000005,377.2345482999999,,,,,,,,0,1,2.1656637000000956,None,,,,,,,,908,18,M,L,2026-02-23_11h10.25.533,VisualSearch_2526_3,,2025.2.4,2026-02-23 11h10.26.027120 +0100,
tilted.xlsx,The target is tilted.,117,22,6,2,0,1,1,1,0,0,0,0,0,0,0,0,1,3,4,117,space,16.758405100000118,None,0,1,0.9804477999998653,None,space,2.7077907000000323,None,0,1,1,0,,,,,2,6,22,6,379.61708120000003,,,,,,,,,,,,,,,,,,,,,379.6011324000001,379.61708120000003,380.1017276,380.10711779999997,380.1226790999999,381.117338,,,,,381.1174435999999,381.1334093999999,381.3334305000001,381.3169829000001,380.1226790999999,,,,,,,,0,1,0.9804477999998653,None,,,,,,,,908,18,M,L,2026-02-23_11h10.25.533,VisualSearch_2526_3,,2025.2.4,2026-02-23 11h10.26.027120 +0100,
tilted.xlsx,The target is tilted.,117,23,7,2,1,1,1,1,1,1,1,1,1,1,1,1,0,11,12,117,space,16.758405100000118,None,1,1,1.0632716000000073,None,space,2.7077907000000323,None,0,1,1,0,,,,,2,7,23,0,381.3334305000001,,,,,,,,,,,,,,,,,,,,,381.3173228999999,381.3334305000001,381.81693440000004,381.8182861999999,381.8333453,382.9003152,,,,,382.9003726000001,382.9165467,383.1165060000001,383.10009850000006,381.8333453,,,,,,,,1,1,1.0632716000000073,None,,,,,,,,908,18,M,L,2026-02-23_11h10.25.533,VisualSearch_2526_3,,2025.2.4,2026-02-23 11h10.26.027120 +0100,
tilted.xlsx,The target is tilted.,117,24,0,3,1,1,1,1,1,1,1,1,0,0,0,0,0,7,8,117,space,16.758405100000118,None,0,0,2.306072299999869,None,space,2.7077907000000323,None,0,1,1,0,,,,,3,0,24,1,383.1165060000001,,,,,,,,,,,,,,,,,,,,,383.10044160000007,383.1165060000001,383.59994319999987,383.6014012999999,383.616704,385.9341643999999,,,,,385.9343572999999,385.94974030000003,386.1492403,386.13264230000004,383.616704,,,,,,,,0,0,2.306072299999869,None,,,,,,,,908,18,M,L,2026-02-23_11h10.25.533,VisualSearch_2526_3,,2025.2.4,2026-02-23 11h10.26.027120 +0100,
tilted.xlsx,The target is tilted.,117,25,1,3,0,0,0,0,0,0,0,0,0,0,0,0,1,1,1,117,space,16.758405100000118,None,0,1,0.8583673000000545,None,space,2.7077907000000323,None,0,1,1,0,,,,,3,1,25,7,386.1492403,,,,,,,,,,,,,,,,,,,,,386.13283350000006,386.1492403,386.6330802,386.6347711000001,386.6495958999999,387.51615560000005,,,,,387.5162235,387.53245259999994,387.73249450000003,387.7159948000001,386.6495958999999,,,,,,,,0,1,0.8583673000000545,None,,,,,,,,908,18,M,L,2026-02-23_11h10.25.533,VisualSearch_2526_3,,2025.2.4,2026-02-23 11h10.26.027120 +0100,
tilted.xlsx,The target is tilted.,117,26,2,3,1,1,1,1,1,1,1,1,1,1,1,1,0,11,12,117,space,16.758405100000118,None,1,1,1.2889777000000322,None,space,2.7077907000000323,None,0,1,1,0,,,,,3,2,26,0,387.73249450000003,,,,,,,,,,,,,,,,,,,,,387.7162521,387.73249450000003,388.2159067,388.21693619999996,388.2323174999999,389.5328213,,,,,389.5329048000001,389.548763,,389.7331216,388.2323174999999,,,,,,,,1,1,1.2889777000000322,None,,,,,,,,908,18,M,L,2026-02-23_11h10.25.533,VisualSearch_2526_3,,2025.2.4,2026-02-23 11h10.26.027120 +0100,
tilted.xlsx,The target is tilted.,117,27,3,3,1,1,1,1,0,0,0,0,0,0,0,0,0,3,4,117,space,16.758405100000118,None,1,1,0.814620399999967,None,space,2.7077907000000323,None,0,1,1,0,,,,,3,3,27,2,389.74944400000004,,,,,,,,,,,,,,,,,,,,,389.7340154000001,389.74944400000004,390.2325665999999,390.2340538000001,390.2490863999999,391.067051,,,,,391.0672677,391.08271949999994,391.28251269999987,391.2668212000001,390.2490863999999,,,,,,,,1,1,0.814620399999967,None,,,,,,,,908,18,M,L,2026-02-23_11h10.25.533,VisualSearch_2526_3,,2025.2.4,2026-02-23 11h10.26.027120 +0100,
tilted.xlsx,The target is tilted.,117,28,4,3,1,0,0,0,0,0,0,0,0,0,0,0,0,0,1,117,space,16.758405100000118,None,1,1,0.5313017999999374,None,space,2.7077907000000323,None,0,1,1,0,,,,,3,4,28,3,391.28251269999987,,,,,,,,,,,,,,,,,,,,,391.26767169999994,391.28251269999987,391.766744,391.7720348999999,391.7879481,392.33326349999993,,,,,392.3334583000001,392.3489178,392.5491876000001,392.53295950000006,391.7879481,,,,,,,,1,1,0.5313017999999374,None,,,,,,,,908,18,M,L,2026-02-23_11h10.25.533,VisualSearch_2526_3,,2025.2.4,2026-02-23 11h10.26.027120 +0100,
tilted.xlsx,The target is tilted.,117,29,5,3,0,1,1,1,1,1,1,1,1,1,1,1,1,11,12,117,space,16.758405100000118,None,1,0,2.4688254000000143,None,space,2.7077907000000323,None,0,1,1,0,,,,,3,5,29,4,392.5491876000001,,,,,,,,,,,,,,,,,,,,,392.5337886,392.5491876000001,393.0326249,393.0372883,393.04895650000003,395.5331443,,,,,395.53333870000006,395.5484653000001,395.7487696999999,395.7326315,393.04895650000003,,,,,,,,1,0,2.4688254000000143,None,,,,,,,,908,18,M,L,2026-02-23_11h10.25.533,VisualSearch_2526_3,,2025.2.4,2026-02-23 11h10.26.027120 +0100,
tilted.xlsx,The target is tilted.,117,30,6,3,0,1,1,1,0,0,0,0,0,0,0,0,1,3,4,117,space,16.758405100000118,None,0,1,1.0809297000000697,None,space,2.7077907000000323,None,0,1,1,0,,,,,3,6,30,6,395.7487696999999,,,,,,,,,,,,,,,,,,,,,395.7333813,395.7487696999999,396.2328267999999,396.23766090000004,396.24811,397.33213810000007,,,,,397.33227020000004,397.34831140000006,397.54850809999994,397.53228379999996,396.24811,,,,,,,,0,1,1.0809297000000697,None,,,,,,,,908,18,M,L,2026-02-23_11h10.25.533,VisualSearch_2526_3,,2025.2.4,2026-02-23 11h10.26.027120 +0100,
tilted.xlsx,The target is tilted.,117,31,7,3,0,1,1,1,1,1,1,1,0,0,0,0,1,7,8,117,space,16.758405100000118,None,0,1,1.923871500000132,None,space,2.7077907000000323,None,0,1,1,0,,,,,3,7,31,5,397.54850809999994,,,,,,,,,,,,,,,,,,,,,397.5330741,397.54850809999994,398.0323171,398.03698269999995,398.05150490000005,399.98209309999993,,,,,399.9822394,399.99789859999987,400.1981195999999,400.1816457,398.05150490000005,,,,,,,,0,1,1.923871500000132,None,,,,,,,,908,18,M,L,2026-02-23_11h10.25.533,VisualSearch_2526_3,,2025.2.4,2026-02-23 11h10.26.027120 +0100,
tilted.xlsx,The target is tilted.,117,32,0,4,0,1,1,1,0,0,0,0,0,0,0,0,1,3,4,117,space,16.758405100000118,None,0,1,1.0171739999998408,None,space,2.7077907000000323,None,0,1,1,0,,,,,4,0,32,6,400.1981195999999,,,,,,,,,,,,,,,,,,,,,400.1823658999999,400.1981195999999,400.68202640000004,400.68677419999995,400.7019485999999,401.7318149,,,,,401.73193919999994,401.74764060000007,401.9478951000001,401.9316790999999,400.7019485999999,,,,,,,,0,1,1.0171739999998408,None,,,,,,,,908,18,M,L,2026-02-23_11h10.25.533,VisualSearch_2526_3,,2025.2.4,2026-02-23 11h10.26.027120 +0100,
tilted.xlsx,The target is tilted.,117,33,1,4,1,1,1,1,0,0,0,0,0,0,0,0,0,3,4,117,space,16.758405100000118,None,1,1,0.6665514000001167,None,space,2.7077907000000323,None,0,1,1,0,,,,,4,1,33,2,401.9478951000001,,,,,,,,,,,,,,,,,,,,,401.93246479999993,401.9478951000001,402.4313291000001,402.4360537,402.4511316999999,403.13173069999993,,,,,403.1319195000001,403.1476398,403.34726449999994,403.3315098999999,402.4511316999999,,,,,,,,1,1,0.6665514000001167,None,,,,,,,,908,18,M,L,2026-02-23_11h10.25.533,VisualSearch_2526_3,,2025.2.4,2026-02-23 11h10.26.027120 +0100,
tilted.xlsx,The target is tilted.,117,34,2,4,0,1,1,1,1,1,1,1,0,0,0,0,1,7,8,117,space,16.758405100000118,None,0,1,1.9600355999998555,None,space,2.7077907000000323,None,0,1,1,0,,,,,4,2,34,5,403.34726449999994,,,,,,,,,,,,,,,,,,,,,403.3322212999999,403.34726449999994,403.8314912999999,403.83613979999996,403.8516314000001,405.81472929999995,,,,,405.81488779999995,405.83035010000003,406.0306258999999,406.0141469,403.8516314000001,,,,,,,,0,1,1.9600355999998555,None,,,,,,,,908,18,M,L,2026-02-23_11h10.25.533,VisualSearch_2526_3,,2025.2.4,2026-02-23 11h10.26.027120 +0100,
tilted.xlsx,The target is tilted.,117,35,3,4,1,1,1,1,1,1,1,1,0,0,0,0,0,7,8,117,space,16.758405100000118,None,1,1,1.2019611000000623,None,space,2.7077907000000323,None,0,1,1,0,,,,,4,3,35,1,406.0306258999999,,,,,,,,,,,,,,,,,,,,,406.01487440000005,406.0306258999999,406.51432769999997,406.5191092,406.5358509,407.74755789999995,,,,,407.74768229999995,407.7634088,407.96367710000004,407.9474307999999,406.5358509,,,,,,,,1,1,1.2019611000000623,None,,,,,,,,908,18,M,L,2026-02-23_11h10.25.533,VisualSearch_2526_3,,2025.2.4,2026-02-23 11h10.26.027120 +0100,
tilted.xlsx,The target is tilted.,117,36,4,4,0,1,1,1,1,1,1,1,1,1,1,1,1,11,12,117,space,16.758405100000118,None,0,1,1.952498099999957,None,space,2.7077907000000323,None,0,1,1,0,,,,,4,4,36,4,407.96367710000004,,,,,,,,,,,,,,,,,,,,,407.94819359999997,407.96367710000004,408.4470816999999,408.4516323,408.4671464999999,410.43020550000006,,,,,410.4302743999999,410.4462536000001,410.64664919999996,410.6304705,408.4671464999999,,,,,,,,0,1,1.952498099999957,None,,,,,,,,908,18,M,L,2026-02-23_11h10.25.533,VisualSearch_2526_3,,2025.2.4,2026-02-23 11h10.26.027120 +0100,
tilted.xlsx,The target is tilted.,117,37,5,4,1,1,1,1,1,1,1,1,1,1,1,1,0,11,12,117,space,16.758405100000118,None,1,1,0.8252668000000085,None,space,2.7077907000000323,None,0,1,1,0,,,,,4,5,37,0,410.64664919999996,,,,,,,,,,,,,,,,,,,,,410.6312009999999,410.64664919999996,411.13028099999997,411.1349597000001,411.1499956,411.9799757999999,,,,,411.9801167999999,411.99626680000006,,412.18040900000005,411.1499956,,,,,,,,1,1,0.8252668000000085,None,,,,,,,,908,18,M,L,2026-02-23_11h10.25.533,VisualSearch_2526_3,,2025.2.4,2026-02-23 11h10.26.027120 +0100,
tilted.xlsx,The target is tilted.,117,38,6,4,1,0,0,0,0,0,0,0,0,0,0,0,0,0,1,117,space,16.758405100000118,None,1,1,0.44023839999999836,None,space,2.7077907000000323,None,0,1,1,0,,,,,4,6,38,3,412.19643139999994,,,,,,,,,,,,,,,,,,,,,412.18156109999995,412.19643139999994,412.68028989999993,412.6853621,412.70076859999995,413.1473602000001,,,,,413.1475504,413.16274780000003,413.362431,413.3467889000001,412.70076859999995,,,,,,,,1,1,0.44023839999999836,None,,,,,,,,908,18,M,L,2026-02-23_11h10.25.533,VisualSearch_2526_3,,2025.2.4,2026-02-23 11h10.26.027120 +0100,
